"success","timeout","failed_images","failed_audio","failed_video","trial_type","trial_index","time_elapsed","internal_node_id","subject","subject_id","study_id","session_id","urlvar","current_url","audio_id","view_history","rt","device_id","stimulus","response","estimated_stimulus_onset","seq_name"
"true","false","[]","[]","[]","preload","0","20828","0.0-0.0","52F21B0001B04D9BADE6BEA0550B5468","52F21B0001B04D9BADE6BEA0550B5468","6f995072-ce4a-4d10-bfd6-8ccb2fde06d3","9076ac92-be42-43a2-9634-8b67c7fe93a7","{""num_scrambled_semantic"":""8"",""num_scrambled_causal"":""4"",""num_scrambled_schematic"":""4"",""participantId"":""52F21B0001B04D9BADE6BEA0550B5468"",""assignmentId"":""6f995072-ce4a-4d10-bfd6-8ccb2fde06d3"",""projectId"":""9076ac92-be42-43a2-9634-8b67c7fe93a7""}","https://test12345.live/?num_scrambled_semantic=8&num_scrambled_causal=4&num_scrambled_schematic=4&participantId=52F21B0001B04D9BADE6BEA0550B5468&assignmentId=6f995072-ce4a-4d10-bfd6-8ccb2fde06d3&projectId=9076ac92-be42-43a2-9634-8b67c7fe93a7","52F21B0001B04D9BADE6BEA0550B5468-2025-05-22-19-23-33","","","","","","",""
"","","","","","instructions","1","28207","0.0-1.0","52F21B0001B04D9BADE6BEA0550B5468","52F21B0001B04D9BADE6BEA0550B5468","6f995072-ce4a-4d10-bfd6-8ccb2fde06d3","9076ac92-be42-43a2-9634-8b67c7fe93a7","{""num_scrambled_semantic"":""8"",""num_scrambled_causal"":""4"",""num_scrambled_schematic"":""4"",""participantId"":""52F21B0001B04D9BADE6BEA0550B5468"",""assignmentId"":""6f995072-ce4a-4d10-bfd6-8ccb2fde06d3"",""projectId"":""9076ac92-be42-43a2-9634-8b67c7fe93a7""}","https://test12345.live/?num_scrambled_semantic=8&num_scrambled_causal=4&num_scrambled_schematic=4&participantId=52F21B0001B04D9BADE6BEA0550B5468&assignmentId=6f995072-ce4a-4d10-bfd6-8ccb2fde06d3&projectId=9076ac92-be42-43a2-9634-8b67c7fe93a7","52F21B0001B04D9BADE6BEA0550B5468-2025-05-22-19-23-33","[{""page_index"":0,""viewing_time"":7379}]","7379","","","","",""
"","","","","","instructions","2","31878","0.0-2.0","52F21B0001B04D9BADE6BEA0550B5468","52F21B0001B04D9BADE6BEA0550B5468","6f995072-ce4a-4d10-bfd6-8ccb2fde06d3","9076ac92-be42-43a2-9634-8b67c7fe93a7","{""num_scrambled_semantic"":""8"",""num_scrambled_causal"":""4"",""num_scrambled_schematic"":""4"",""participantId"":""52F21B0001B04D9BADE6BEA0550B5468"",""assignmentId"":""6f995072-ce4a-4d10-bfd6-8ccb2fde06d3"",""projectId"":""9076ac92-be42-43a2-9634-8b67c7fe93a7""}","https://test12345.live/?num_scrambled_semantic=8&num_scrambled_causal=4&num_scrambled_schematic=4&participantId=52F21B0001B04D9BADE6BEA0550B5468&assignmentId=6f995072-ce4a-4d10-bfd6-8ccb2fde06d3&projectId=9076ac92-be42-43a2-9634-8b67c7fe93a7","52F21B0001B04D9BADE6BEA0550B5468-2025-05-22-19-23-33","[{""page_index"":0,""viewing_time"":3670}]","3670","","","","",""
"true","","","","","fullscreen","3","34332","0.0-3.0","52F21B0001B04D9BADE6BEA0550B5468","52F21B0001B04D9BADE6BEA0550B5468","6f995072-ce4a-4d10-bfd6-8ccb2fde06d3","9076ac92-be42-43a2-9634-8b67c7fe93a7","{""num_scrambled_semantic"":""8"",""num_scrambled_causal"":""4"",""num_scrambled_schematic"":""4"",""participantId"":""52F21B0001B04D9BADE6BEA0550B5468"",""assignmentId"":""6f995072-ce4a-4d10-bfd6-8ccb2fde06d3"",""projectId"":""9076ac92-be42-43a2-9634-8b67c7fe93a7""}","https://test12345.live/?num_scrambled_semantic=8&num_scrambled_causal=4&num_scrambled_schematic=4&participantId=52F21B0001B04D9BADE6BEA0550B5468&assignmentId=6f995072-ce4a-4d10-bfd6-8ccb2fde06d3&projectId=9076ac92-be42-43a2-9634-8b67c7fe93a7","52F21B0001B04D9BADE6BEA0550B5468-2025-05-22-19-23-33","","1445","","","","",""
"","","","","","initialize-microphone","4","40419","0.0-4.0-0.0","52F21B0001B04D9BADE6BEA0550B5468","52F21B0001B04D9BADE6BEA0550B5468","6f995072-ce4a-4d10-bfd6-8ccb2fde06d3","9076ac92-be42-43a2-9634-8b67c7fe93a7","{""num_scrambled_semantic"":""8"",""num_scrambled_causal"":""4"",""num_scrambled_schematic"":""4"",""participantId"":""52F21B0001B04D9BADE6BEA0550B5468"",""assignmentId"":""6f995072-ce4a-4d10-bfd6-8ccb2fde06d3"",""projectId"":""9076ac92-be42-43a2-9634-8b67c7fe93a7""}","https://test12345.live/?num_scrambled_semantic=8&num_scrambled_causal=4&num_scrambled_schematic=4&participantId=52F21B0001B04D9BADE6BEA0550B5468&assignmentId=6f995072-ce4a-4d10-bfd6-8ccb2fde06d3&projectId=9076ac92-be42-43a2-9634-8b67c7fe93a7","52F21B0001B04D9BADE6BEA0550B5468-2025-05-22-19-23-33","","","f8d0840aa22c36688f97a8233ddc202dc13cc008ffc637445f48169bd54d1ddd","","","",""
"","","","","","html-audio-response","5","52123","0.0-4.0-1.0","52F21B0001B04D9BADE6BEA0550B5468","52F21B0001B04D9BADE6BEA0550B5468","6f995072-ce4a-4d10-bfd6-8ccb2fde06d3","9076ac92-be42-43a2-9634-8b67c7fe93a7","{""num_scrambled_semantic"":""8"",""num_scrambled_causal"":""4"",""num_scrambled_schematic"":""4"",""participantId"":""52F21B0001B04D9BADE6BEA0550B5468"",""assignmentId"":""6f995072-ce4a-4d10-bfd6-8ccb2fde06d3"",""projectId"":""9076ac92-be42-43a2-9634-8b67c7fe93a7""}","https://test12345.live/?num_scrambled_semantic=8&num_scrambled_causal=4&num_scrambled_schematic=4&participantId=52F21B0001B04D9BADE6BEA0550B5468&assignmentId=6f995072-ce4a-4d10-bfd6-8ccb2fde06d3&projectId=9076ac92-be42-43a2-9634-8b67c7fe93a7","52F21B0001B04D9BADE6BEA0550B5468-2025-05-22-19-23-33","","4458","","<span style=""color: red; font-size: 24px""> NOW RECORDING</span>
        <p>Please test Microphone</p>","","3",""
"","","","","","html-button-response","6","53320","0.0-4.0-2.0","52F21B0001B04D9BADE6BEA0550B5468","52F21B0001B04D9BADE6BEA0550B5468","6f995072-ce4a-4d10-bfd6-8ccb2fde06d3","9076ac92-be42-43a2-9634-8b67c7fe93a7","{""num_scrambled_semantic"":""8"",""num_scrambled_causal"":""4"",""num_scrambled_schematic"":""4"",""participantId"":""52F21B0001B04D9BADE6BEA0550B5468"",""assignmentId"":""6f995072-ce4a-4d10-bfd6-8ccb2fde06d3"",""projectId"":""9076ac92-be42-43a2-9634-8b67c7fe93a7""}","https://test12345.live/?num_scrambled_semantic=8&num_scrambled_causal=4&num_scrambled_schematic=4&participantId=52F21B0001B04D9BADE6BEA0550B5468&assignmentId=6f995072-ce4a-4d10-bfd6-8ccb2fde06d3&projectId=9076ac92-be42-43a2-9634-8b67c7fe93a7","52F21B0001B04D9BADE6BEA0550B5468-2025-05-22-19-23-33","","1196","","<p style=""font-size:48px; color:red;"">Is Microphone OK?</p>","1","",""
"","","","","","instructions","7","61342","0.0-5.0","52F21B0001B04D9BADE6BEA0550B5468","52F21B0001B04D9BADE6BEA0550B5468","6f995072-ce4a-4d10-bfd6-8ccb2fde06d3","9076ac92-be42-43a2-9634-8b67c7fe93a7","{""num_scrambled_semantic"":""8"",""num_scrambled_causal"":""4"",""num_scrambled_schematic"":""4"",""participantId"":""52F21B0001B04D9BADE6BEA0550B5468"",""assignmentId"":""6f995072-ce4a-4d10-bfd6-8ccb2fde06d3"",""projectId"":""9076ac92-be42-43a2-9634-8b67c7fe93a7""}","https://test12345.live/?num_scrambled_semantic=8&num_scrambled_causal=4&num_scrambled_schematic=4&participantId=52F21B0001B04D9BADE6BEA0550B5468&assignmentId=6f995072-ce4a-4d10-bfd6-8ccb2fde06d3&projectId=9076ac92-be42-43a2-9634-8b67c7fe93a7","52F21B0001B04D9BADE6BEA0550B5468-2025-05-22-19-23-33","[{""page_index"":0,""viewing_time"":3359},{""page_index"":1,""viewing_time"":4662}]","8021","","","","",""
"","","","","","image-button-response","8","67358","0.0-6.0-0.0","52F21B0001B04D9BADE6BEA0550B5468","52F21B0001B04D9BADE6BEA0550B5468","6f995072-ce4a-4d10-bfd6-8ccb2fde06d3","9076ac92-be42-43a2-9634-8b67c7fe93a7","{""num_scrambled_semantic"":""8"",""num_scrambled_causal"":""4"",""num_scrambled_schematic"":""4"",""participantId"":""52F21B0001B04D9BADE6BEA0550B5468"",""assignmentId"":""6f995072-ce4a-4d10-bfd6-8ccb2fde06d3"",""projectId"":""9076ac92-be42-43a2-9634-8b67c7fe93a7""}","https://test12345.live/?num_scrambled_semantic=8&num_scrambled_causal=4&num_scrambled_schematic=4&participantId=52F21B0001B04D9BADE6BEA0550B5468&assignmentId=6f995072-ce4a-4d10-bfd6-8ccb2fde06d3&projectId=9076ac92-be42-43a2-9634-8b67c7fe93a7","52F21B0001B04D9BADE6BEA0550B5468-2025-05-22-19-23-33","","null","","images/instructions/movie_0.png","null","",""
"","","","","","image-button-response","9","71866","0.0-6.0-1.0-0.0","52F21B0001B04D9BADE6BEA0550B5468","52F21B0001B04D9BADE6BEA0550B5468","6f995072-ce4a-4d10-bfd6-8ccb2fde06d3","9076ac92-be42-43a2-9634-8b67c7fe93a7","{""num_scrambled_semantic"":""8"",""num_scrambled_causal"":""4"",""num_scrambled_schematic"":""4"",""participantId"":""52F21B0001B04D9BADE6BEA0550B5468"",""assignmentId"":""6f995072-ce4a-4d10-bfd6-8ccb2fde06d3"",""projectId"":""9076ac92-be42-43a2-9634-8b67c7fe93a7""}","https://test12345.live/?num_scrambled_semantic=8&num_scrambled_causal=4&num_scrambled_schematic=4&participantId=52F21B0001B04D9BADE6BEA0550B5468&assignmentId=6f995072-ce4a-4d10-bfd6-8ccb2fde06d3&projectId=9076ac92-be42-43a2-9634-8b67c7fe93a7","52F21B0001B04D9BADE6BEA0550B5468-2025-05-22-19-23-33","","null","","images/instructions/movie_1.png","null","",""
"","","","","","image-button-response","10","74982","0.0-6.0-1.0-1.0","52F21B0001B04D9BADE6BEA0550B5468","52F21B0001B04D9BADE6BEA0550B5468","6f995072-ce4a-4d10-bfd6-8ccb2fde06d3","9076ac92-be42-43a2-9634-8b67c7fe93a7","{""num_scrambled_semantic"":""8"",""num_scrambled_causal"":""4"",""num_scrambled_schematic"":""4"",""participantId"":""52F21B0001B04D9BADE6BEA0550B5468"",""assignmentId"":""6f995072-ce4a-4d10-bfd6-8ccb2fde06d3"",""projectId"":""9076ac92-be42-43a2-9634-8b67c7fe93a7""}","https://test12345.live/?num_scrambled_semantic=8&num_scrambled_causal=4&num_scrambled_schematic=4&participantId=52F21B0001B04D9BADE6BEA0550B5468&assignmentId=6f995072-ce4a-4d10-bfd6-8ccb2fde06d3&projectId=9076ac92-be42-43a2-9634-8b67c7fe93a7","52F21B0001B04D9BADE6BEA0550B5468-2025-05-22-19-23-33","","3114","","images/instructions/movie_1.png","0","",""
"","","","","","image-button-response","11","76788","0.0-6.0-1.0-2.0","52F21B0001B04D9BADE6BEA0550B5468","52F21B0001B04D9BADE6BEA0550B5468","6f995072-ce4a-4d10-bfd6-8ccb2fde06d3","9076ac92-be42-43a2-9634-8b67c7fe93a7","{""num_scrambled_semantic"":""8"",""num_scrambled_causal"":""4"",""num_scrambled_schematic"":""4"",""participantId"":""52F21B0001B04D9BADE6BEA0550B5468"",""assignmentId"":""6f995072-ce4a-4d10-bfd6-8ccb2fde06d3"",""projectId"":""9076ac92-be42-43a2-9634-8b67c7fe93a7""}","https://test12345.live/?num_scrambled_semantic=8&num_scrambled_causal=4&num_scrambled_schematic=4&participantId=52F21B0001B04D9BADE6BEA0550B5468&assignmentId=6f995072-ce4a-4d10-bfd6-8ccb2fde06d3&projectId=9076ac92-be42-43a2-9634-8b67c7fe93a7","52F21B0001B04D9BADE6BEA0550B5468-2025-05-22-19-23-33","","null","","[]","null","",""
"","","","","","image-button-response","12","81298","0.0-6.0-1.0-0.1","52F21B0001B04D9BADE6BEA0550B5468","52F21B0001B04D9BADE6BEA0550B5468","6f995072-ce4a-4d10-bfd6-8ccb2fde06d3","9076ac92-be42-43a2-9634-8b67c7fe93a7","{""num_scrambled_semantic"":""8"",""num_scrambled_causal"":""4"",""num_scrambled_schematic"":""4"",""participantId"":""52F21B0001B04D9BADE6BEA0550B5468"",""assignmentId"":""6f995072-ce4a-4d10-bfd6-8ccb2fde06d3"",""projectId"":""9076ac92-be42-43a2-9634-8b67c7fe93a7""}","https://test12345.live/?num_scrambled_semantic=8&num_scrambled_causal=4&num_scrambled_schematic=4&participantId=52F21B0001B04D9BADE6BEA0550B5468&assignmentId=6f995072-ce4a-4d10-bfd6-8ccb2fde06d3&projectId=9076ac92-be42-43a2-9634-8b67c7fe93a7","52F21B0001B04D9BADE6BEA0550B5468-2025-05-22-19-23-33","","null","","images/instructions/movie_2.png","null","",""
"","","","","","image-button-response","13","83668","0.0-6.0-1.0-1.1","52F21B0001B04D9BADE6BEA0550B5468","52F21B0001B04D9BADE6BEA0550B5468","6f995072-ce4a-4d10-bfd6-8ccb2fde06d3","9076ac92-be42-43a2-9634-8b67c7fe93a7","{""num_scrambled_semantic"":""8"",""num_scrambled_causal"":""4"",""num_scrambled_schematic"":""4"",""participantId"":""52F21B0001B04D9BADE6BEA0550B5468"",""assignmentId"":""6f995072-ce4a-4d10-bfd6-8ccb2fde06d3"",""projectId"":""9076ac92-be42-43a2-9634-8b67c7fe93a7""}","https://test12345.live/?num_scrambled_semantic=8&num_scrambled_causal=4&num_scrambled_schematic=4&participantId=52F21B0001B04D9BADE6BEA0550B5468&assignmentId=6f995072-ce4a-4d10-bfd6-8ccb2fde06d3&projectId=9076ac92-be42-43a2-9634-8b67c7fe93a7","52F21B0001B04D9BADE6BEA0550B5468-2025-05-22-19-23-33","","2368","","images/instructions/movie_2.png","0","",""
"","","","","","image-button-response","14","85475","0.0-6.0-1.0-2.1","52F21B0001B04D9BADE6BEA0550B5468","52F21B0001B04D9BADE6BEA0550B5468","6f995072-ce4a-4d10-bfd6-8ccb2fde06d3","9076ac92-be42-43a2-9634-8b67c7fe93a7","{""num_scrambled_semantic"":""8"",""num_scrambled_causal"":""4"",""num_scrambled_schematic"":""4"",""participantId"":""52F21B0001B04D9BADE6BEA0550B5468"",""assignmentId"":""6f995072-ce4a-4d10-bfd6-8ccb2fde06d3"",""projectId"":""9076ac92-be42-43a2-9634-8b67c7fe93a7""}","https://test12345.live/?num_scrambled_semantic=8&num_scrambled_causal=4&num_scrambled_schematic=4&participantId=52F21B0001B04D9BADE6BEA0550B5468&assignmentId=6f995072-ce4a-4d10-bfd6-8ccb2fde06d3&projectId=9076ac92-be42-43a2-9634-8b67c7fe93a7","52F21B0001B04D9BADE6BEA0550B5468-2025-05-22-19-23-33","","null","","[]","null","",""
"","","","","","image-button-response","15","89980","0.0-6.0-1.0-0.2","52F21B0001B04D9BADE6BEA0550B5468","52F21B0001B04D9BADE6BEA0550B5468","6f995072-ce4a-4d10-bfd6-8ccb2fde06d3","9076ac92-be42-43a2-9634-8b67c7fe93a7","{""num_scrambled_semantic"":""8"",""num_scrambled_causal"":""4"",""num_scrambled_schematic"":""4"",""participantId"":""52F21B0001B04D9BADE6BEA0550B5468"",""assignmentId"":""6f995072-ce4a-4d10-bfd6-8ccb2fde06d3"",""projectId"":""9076ac92-be42-43a2-9634-8b67c7fe93a7""}","https://test12345.live/?num_scrambled_semantic=8&num_scrambled_causal=4&num_scrambled_schematic=4&participantId=52F21B0001B04D9BADE6BEA0550B5468&assignmentId=6f995072-ce4a-4d10-bfd6-8ccb2fde06d3&projectId=9076ac92-be42-43a2-9634-8b67c7fe93a7","52F21B0001B04D9BADE6BEA0550B5468-2025-05-22-19-23-33","","null","","images/instructions/movie_3.png","null","",""
"","","","","","image-button-response","16","90972","0.0-6.0-1.0-1.2","52F21B0001B04D9BADE6BEA0550B5468","52F21B0001B04D9BADE6BEA0550B5468","6f995072-ce4a-4d10-bfd6-8ccb2fde06d3","9076ac92-be42-43a2-9634-8b67c7fe93a7","{""num_scrambled_semantic"":""8"",""num_scrambled_causal"":""4"",""num_scrambled_schematic"":""4"",""participantId"":""52F21B0001B04D9BADE6BEA0550B5468"",""assignmentId"":""6f995072-ce4a-4d10-bfd6-8ccb2fde06d3"",""projectId"":""9076ac92-be42-43a2-9634-8b67c7fe93a7""}","https://test12345.live/?num_scrambled_semantic=8&num_scrambled_causal=4&num_scrambled_schematic=4&participantId=52F21B0001B04D9BADE6BEA0550B5468&assignmentId=6f995072-ce4a-4d10-bfd6-8ccb2fde06d3&projectId=9076ac92-be42-43a2-9634-8b67c7fe93a7","52F21B0001B04D9BADE6BEA0550B5468-2025-05-22-19-23-33","","990","","images/instructions/movie_3.png","0","",""
"","","","","","image-button-response","17","92785","0.0-6.0-1.0-2.2","52F21B0001B04D9BADE6BEA0550B5468","52F21B0001B04D9BADE6BEA0550B5468","6f995072-ce4a-4d10-bfd6-8ccb2fde06d3","9076ac92-be42-43a2-9634-8b67c7fe93a7","{""num_scrambled_semantic"":""8"",""num_scrambled_causal"":""4"",""num_scrambled_schematic"":""4"",""participantId"":""52F21B0001B04D9BADE6BEA0550B5468"",""assignmentId"":""6f995072-ce4a-4d10-bfd6-8ccb2fde06d3"",""projectId"":""9076ac92-be42-43a2-9634-8b67c7fe93a7""}","https://test12345.live/?num_scrambled_semantic=8&num_scrambled_causal=4&num_scrambled_schematic=4&participantId=52F21B0001B04D9BADE6BEA0550B5468&assignmentId=6f995072-ce4a-4d10-bfd6-8ccb2fde06d3&projectId=9076ac92-be42-43a2-9634-8b67c7fe93a7","52F21B0001B04D9BADE6BEA0550B5468-2025-05-22-19-23-33","","null","","[]","null","",""
"","","","","","image-button-response","18","97301","0.0-6.0-1.0-0.3","52F21B0001B04D9BADE6BEA0550B5468","52F21B0001B04D9BADE6BEA0550B5468","6f995072-ce4a-4d10-bfd6-8ccb2fde06d3","9076ac92-be42-43a2-9634-8b67c7fe93a7","{""num_scrambled_semantic"":""8"",""num_scrambled_causal"":""4"",""num_scrambled_schematic"":""4"",""participantId"":""52F21B0001B04D9BADE6BEA0550B5468"",""assignmentId"":""6f995072-ce4a-4d10-bfd6-8ccb2fde06d3"",""projectId"":""9076ac92-be42-43a2-9634-8b67c7fe93a7""}","https://test12345.live/?num_scrambled_semantic=8&num_scrambled_causal=4&num_scrambled_schematic=4&participantId=52F21B0001B04D9BADE6BEA0550B5468&assignmentId=6f995072-ce4a-4d10-bfd6-8ccb2fde06d3&projectId=9076ac92-be42-43a2-9634-8b67c7fe93a7","52F21B0001B04D9BADE6BEA0550B5468-2025-05-22-19-23-33","","null","","images/instructions/movie_4.png","null","",""
"","","","","","image-button-response","19","99435","0.0-6.0-1.0-1.3","52F21B0001B04D9BADE6BEA0550B5468","52F21B0001B04D9BADE6BEA0550B5468","6f995072-ce4a-4d10-bfd6-8ccb2fde06d3","9076ac92-be42-43a2-9634-8b67c7fe93a7","{""num_scrambled_semantic"":""8"",""num_scrambled_causal"":""4"",""num_scrambled_schematic"":""4"",""participantId"":""52F21B0001B04D9BADE6BEA0550B5468"",""assignmentId"":""6f995072-ce4a-4d10-bfd6-8ccb2fde06d3"",""projectId"":""9076ac92-be42-43a2-9634-8b67c7fe93a7""}","https://test12345.live/?num_scrambled_semantic=8&num_scrambled_causal=4&num_scrambled_schematic=4&participantId=52F21B0001B04D9BADE6BEA0550B5468&assignmentId=6f995072-ce4a-4d10-bfd6-8ccb2fde06d3&projectId=9076ac92-be42-43a2-9634-8b67c7fe93a7","52F21B0001B04D9BADE6BEA0550B5468-2025-05-22-19-23-33","","2133","","images/instructions/movie_4.png","0","",""
"","","","","","image-button-response","20","101245","0.0-6.0-1.0-2.3","52F21B0001B04D9BADE6BEA0550B5468","52F21B0001B04D9BADE6BEA0550B5468","6f995072-ce4a-4d10-bfd6-8ccb2fde06d3","9076ac92-be42-43a2-9634-8b67c7fe93a7","{""num_scrambled_semantic"":""8"",""num_scrambled_causal"":""4"",""num_scrambled_schematic"":""4"",""participantId"":""52F21B0001B04D9BADE6BEA0550B5468"",""assignmentId"":""6f995072-ce4a-4d10-bfd6-8ccb2fde06d3"",""projectId"":""9076ac92-be42-43a2-9634-8b67c7fe93a7""}","https://test12345.live/?num_scrambled_semantic=8&num_scrambled_causal=4&num_scrambled_schematic=4&participantId=52F21B0001B04D9BADE6BEA0550B5468&assignmentId=6f995072-ce4a-4d10-bfd6-8ccb2fde06d3&projectId=9076ac92-be42-43a2-9634-8b67c7fe93a7","52F21B0001B04D9BADE6BEA0550B5468-2025-05-22-19-23-33","","null","","[]","null","",""
"","","","","","instructions","21","111657","0.0-7.0","52F21B0001B04D9BADE6BEA0550B5468","52F21B0001B04D9BADE6BEA0550B5468","6f995072-ce4a-4d10-bfd6-8ccb2fde06d3","9076ac92-be42-43a2-9634-8b67c7fe93a7","{""num_scrambled_semantic"":""8"",""num_scrambled_causal"":""4"",""num_scrambled_schematic"":""4"",""participantId"":""52F21B0001B04D9BADE6BEA0550B5468"",""assignmentId"":""6f995072-ce4a-4d10-bfd6-8ccb2fde06d3"",""projectId"":""9076ac92-be42-43a2-9634-8b67c7fe93a7""}","https://test12345.live/?num_scrambled_semantic=8&num_scrambled_causal=4&num_scrambled_schematic=4&participantId=52F21B0001B04D9BADE6BEA0550B5468&assignmentId=6f995072-ce4a-4d10-bfd6-8ccb2fde06d3&projectId=9076ac92-be42-43a2-9634-8b67c7fe93a7","52F21B0001B04D9BADE6BEA0550B5468-2025-05-22-19-23-33","[{""page_index"":0,""viewing_time"":6183},{""page_index"":1,""viewing_time"":4228}]","10412","","","","",""
"","","","","","html-audio-response","22","127831","0.0-8.0","52F21B0001B04D9BADE6BEA0550B5468","52F21B0001B04D9BADE6BEA0550B5468","6f995072-ce4a-4d10-bfd6-8ccb2fde06d3","9076ac92-be42-43a2-9634-8b67c7fe93a7","{""num_scrambled_semantic"":""8"",""num_scrambled_causal"":""4"",""num_scrambled_schematic"":""4"",""participantId"":""52F21B0001B04D9BADE6BEA0550B5468"",""assignmentId"":""6f995072-ce4a-4d10-bfd6-8ccb2fde06d3"",""projectId"":""9076ac92-be42-43a2-9634-8b67c7fe93a7""}","https://test12345.live/?num_scrambled_semantic=8&num_scrambled_causal=4&num_scrambled_schematic=4&participantId=52F21B0001B04D9BADE6BEA0550B5468&assignmentId=6f995072-ce4a-4d10-bfd6-8ccb2fde06d3&projectId=9076ac92-be42-43a2-9634-8b67c7fe93a7","52F21B0001B04D9BADE6BEA0550B5468-2025-05-22-19-23-33","","14107","","[""<span style=\""color: red; font-size: 24px\""> NOW RECORDING</span><p>Please say out loud all the images you saw in the exact order you saw them. Try to recall as many images as you can, but remember: getting the order right is more important than the number of images you recall.</p>""]","","1",""
"","","","","","instructions","23","129863","0.0-9.0","52F21B0001B04D9BADE6BEA0550B5468","52F21B0001B04D9BADE6BEA0550B5468","6f995072-ce4a-4d10-bfd6-8ccb2fde06d3","9076ac92-be42-43a2-9634-8b67c7fe93a7","{""num_scrambled_semantic"":""8"",""num_scrambled_causal"":""4"",""num_scrambled_schematic"":""4"",""participantId"":""52F21B0001B04D9BADE6BEA0550B5468"",""assignmentId"":""6f995072-ce4a-4d10-bfd6-8ccb2fde06d3"",""projectId"":""9076ac92-be42-43a2-9634-8b67c7fe93a7""}","https://test12345.live/?num_scrambled_semantic=8&num_scrambled_causal=4&num_scrambled_schematic=4&participantId=52F21B0001B04D9BADE6BEA0550B5468&assignmentId=6f995072-ce4a-4d10-bfd6-8ccb2fde06d3&projectId=9076ac92-be42-43a2-9634-8b67c7fe93a7","52F21B0001B04D9BADE6BEA0550B5468-2025-05-22-19-23-33","[{""page_index"":0,""viewing_time"":2029}]","2029","","","","",""
"","","","","","image-button-response","24","135875","0.0-10.0-0.0","52F21B0001B04D9BADE6BEA0550B5468","52F21B0001B04D9BADE6BEA0550B5468","6f995072-ce4a-4d10-bfd6-8ccb2fde06d3","9076ac92-be42-43a2-9634-8b67c7fe93a7","{""num_scrambled_semantic"":""8"",""num_scrambled_causal"":""4"",""num_scrambled_schematic"":""4"",""participantId"":""52F21B0001B04D9BADE6BEA0550B5468"",""assignmentId"":""6f995072-ce4a-4d10-bfd6-8ccb2fde06d3"",""projectId"":""9076ac92-be42-43a2-9634-8b67c7fe93a7""}","https://test12345.live/?num_scrambled_semantic=8&num_scrambled_causal=4&num_scrambled_schematic=4&participantId=52F21B0001B04D9BADE6BEA0550B5468&assignmentId=6f995072-ce4a-4d10-bfd6-8ccb2fde06d3&projectId=9076ac92-be42-43a2-9634-8b67c7fe93a7","52F21B0001B04D9BADE6BEA0550B5468-2025-05-22-19-23-33","","null","","images/semantic_sequence/using_technology_semantic/using_technology_semantic_0.png","null","",""
"","","","","","image-button-response","25","140385","0.0-10.0-1.0-0.0","52F21B0001B04D9BADE6BEA0550B5468","52F21B0001B04D9BADE6BEA0550B5468","6f995072-ce4a-4d10-bfd6-8ccb2fde06d3","9076ac92-be42-43a2-9634-8b67c7fe93a7","{""num_scrambled_semantic"":""8"",""num_scrambled_causal"":""4"",""num_scrambled_schematic"":""4"",""participantId"":""52F21B0001B04D9BADE6BEA0550B5468"",""assignmentId"":""6f995072-ce4a-4d10-bfd6-8ccb2fde06d3"",""projectId"":""9076ac92-be42-43a2-9634-8b67c7fe93a7""}","https://test12345.live/?num_scrambled_semantic=8&num_scrambled_causal=4&num_scrambled_schematic=4&participantId=52F21B0001B04D9BADE6BEA0550B5468&assignmentId=6f995072-ce4a-4d10-bfd6-8ccb2fde06d3&projectId=9076ac92-be42-43a2-9634-8b67c7fe93a7","52F21B0001B04D9BADE6BEA0550B5468-2025-05-22-19-23-33","","null","","images/semantic_sequence/using_technology_semantic/using_technology_semantic_1.png","null","",""
"","","","","","image-button-response","26","142251","0.0-10.0-1.0-1.0","52F21B0001B04D9BADE6BEA0550B5468","52F21B0001B04D9BADE6BEA0550B5468","6f995072-ce4a-4d10-bfd6-8ccb2fde06d3","9076ac92-be42-43a2-9634-8b67c7fe93a7","{""num_scrambled_semantic"":""8"",""num_scrambled_causal"":""4"",""num_scrambled_schematic"":""4"",""participantId"":""52F21B0001B04D9BADE6BEA0550B5468"",""assignmentId"":""6f995072-ce4a-4d10-bfd6-8ccb2fde06d3"",""projectId"":""9076ac92-be42-43a2-9634-8b67c7fe93a7""}","https://test12345.live/?num_scrambled_semantic=8&num_scrambled_causal=4&num_scrambled_schematic=4&participantId=52F21B0001B04D9BADE6BEA0550B5468&assignmentId=6f995072-ce4a-4d10-bfd6-8ccb2fde06d3&projectId=9076ac92-be42-43a2-9634-8b67c7fe93a7","52F21B0001B04D9BADE6BEA0550B5468-2025-05-22-19-23-33","","1865","","images/semantic_sequence/using_technology_semantic/using_technology_semantic_1.png","0","",""
"","","","","","image-button-response","27","144059","0.0-10.0-1.0-2.0","52F21B0001B04D9BADE6BEA0550B5468","52F21B0001B04D9BADE6BEA0550B5468","6f995072-ce4a-4d10-bfd6-8ccb2fde06d3","9076ac92-be42-43a2-9634-8b67c7fe93a7","{""num_scrambled_semantic"":""8"",""num_scrambled_causal"":""4"",""num_scrambled_schematic"":""4"",""participantId"":""52F21B0001B04D9BADE6BEA0550B5468"",""assignmentId"":""6f995072-ce4a-4d10-bfd6-8ccb2fde06d3"",""projectId"":""9076ac92-be42-43a2-9634-8b67c7fe93a7""}","https://test12345.live/?num_scrambled_semantic=8&num_scrambled_causal=4&num_scrambled_schematic=4&participantId=52F21B0001B04D9BADE6BEA0550B5468&assignmentId=6f995072-ce4a-4d10-bfd6-8ccb2fde06d3&projectId=9076ac92-be42-43a2-9634-8b67c7fe93a7","52F21B0001B04D9BADE6BEA0550B5468-2025-05-22-19-23-33","","null","","[]","null","",""
"","","","","","image-button-response","28","148576","0.0-10.0-1.0-0.1","52F21B0001B04D9BADE6BEA0550B5468","52F21B0001B04D9BADE6BEA0550B5468","6f995072-ce4a-4d10-bfd6-8ccb2fde06d3","9076ac92-be42-43a2-9634-8b67c7fe93a7","{""num_scrambled_semantic"":""8"",""num_scrambled_causal"":""4"",""num_scrambled_schematic"":""4"",""participantId"":""52F21B0001B04D9BADE6BEA0550B5468"",""assignmentId"":""6f995072-ce4a-4d10-bfd6-8ccb2fde06d3"",""projectId"":""9076ac92-be42-43a2-9634-8b67c7fe93a7""}","https://test12345.live/?num_scrambled_semantic=8&num_scrambled_causal=4&num_scrambled_schematic=4&participantId=52F21B0001B04D9BADE6BEA0550B5468&assignmentId=6f995072-ce4a-4d10-bfd6-8ccb2fde06d3&projectId=9076ac92-be42-43a2-9634-8b67c7fe93a7","52F21B0001B04D9BADE6BEA0550B5468-2025-05-22-19-23-33","","null","","images/semantic_sequence/using_technology_semantic/using_technology_semantic_2.png","null","",""
"","","","","","image-button-response","29","150643","0.0-10.0-1.0-1.1","52F21B0001B04D9BADE6BEA0550B5468","52F21B0001B04D9BADE6BEA0550B5468","6f995072-ce4a-4d10-bfd6-8ccb2fde06d3","9076ac92-be42-43a2-9634-8b67c7fe93a7","{""num_scrambled_semantic"":""8"",""num_scrambled_causal"":""4"",""num_scrambled_schematic"":""4"",""participantId"":""52F21B0001B04D9BADE6BEA0550B5468"",""assignmentId"":""6f995072-ce4a-4d10-bfd6-8ccb2fde06d3"",""projectId"":""9076ac92-be42-43a2-9634-8b67c7fe93a7""}","https://test12345.live/?num_scrambled_semantic=8&num_scrambled_causal=4&num_scrambled_schematic=4&participantId=52F21B0001B04D9BADE6BEA0550B5468&assignmentId=6f995072-ce4a-4d10-bfd6-8ccb2fde06d3&projectId=9076ac92-be42-43a2-9634-8b67c7fe93a7","52F21B0001B04D9BADE6BEA0550B5468-2025-05-22-19-23-33","","2065","","images/semantic_sequence/using_technology_semantic/using_technology_semantic_2.png","0","",""
"","","","","","image-button-response","30","152445","0.0-10.0-1.0-2.1","52F21B0001B04D9BADE6BEA0550B5468","52F21B0001B04D9BADE6BEA0550B5468","6f995072-ce4a-4d10-bfd6-8ccb2fde06d3","9076ac92-be42-43a2-9634-8b67c7fe93a7","{""num_scrambled_semantic"":""8"",""num_scrambled_causal"":""4"",""num_scrambled_schematic"":""4"",""participantId"":""52F21B0001B04D9BADE6BEA0550B5468"",""assignmentId"":""6f995072-ce4a-4d10-bfd6-8ccb2fde06d3"",""projectId"":""9076ac92-be42-43a2-9634-8b67c7fe93a7""}","https://test12345.live/?num_scrambled_semantic=8&num_scrambled_causal=4&num_scrambled_schematic=4&participantId=52F21B0001B04D9BADE6BEA0550B5468&assignmentId=6f995072-ce4a-4d10-bfd6-8ccb2fde06d3&projectId=9076ac92-be42-43a2-9634-8b67c7fe93a7","52F21B0001B04D9BADE6BEA0550B5468-2025-05-22-19-23-33","","null","","[]","null","",""
"","","","","","image-button-response","31","156960","0.0-10.0-1.0-0.2","52F21B0001B04D9BADE6BEA0550B5468","52F21B0001B04D9BADE6BEA0550B5468","6f995072-ce4a-4d10-bfd6-8ccb2fde06d3","9076ac92-be42-43a2-9634-8b67c7fe93a7","{""num_scrambled_semantic"":""8"",""num_scrambled_causal"":""4"",""num_scrambled_schematic"":""4"",""participantId"":""52F21B0001B04D9BADE6BEA0550B5468"",""assignmentId"":""6f995072-ce4a-4d10-bfd6-8ccb2fde06d3"",""projectId"":""9076ac92-be42-43a2-9634-8b67c7fe93a7""}","https://test12345.live/?num_scrambled_semantic=8&num_scrambled_causal=4&num_scrambled_schematic=4&participantId=52F21B0001B04D9BADE6BEA0550B5468&assignmentId=6f995072-ce4a-4d10-bfd6-8ccb2fde06d3&projectId=9076ac92-be42-43a2-9634-8b67c7fe93a7","52F21B0001B04D9BADE6BEA0550B5468-2025-05-22-19-23-33","","null","","images/semantic_sequence/using_technology_semantic/using_technology_semantic_3.png","null","",""
"","","","","","image-button-response","32","159853","0.0-10.0-1.0-1.2","52F21B0001B04D9BADE6BEA0550B5468","52F21B0001B04D9BADE6BEA0550B5468","6f995072-ce4a-4d10-bfd6-8ccb2fde06d3","9076ac92-be42-43a2-9634-8b67c7fe93a7","{""num_scrambled_semantic"":""8"",""num_scrambled_causal"":""4"",""num_scrambled_schematic"":""4"",""participantId"":""52F21B0001B04D9BADE6BEA0550B5468"",""assignmentId"":""6f995072-ce4a-4d10-bfd6-8ccb2fde06d3"",""projectId"":""9076ac92-be42-43a2-9634-8b67c7fe93a7""}","https://test12345.live/?num_scrambled_semantic=8&num_scrambled_causal=4&num_scrambled_schematic=4&participantId=52F21B0001B04D9BADE6BEA0550B5468&assignmentId=6f995072-ce4a-4d10-bfd6-8ccb2fde06d3&projectId=9076ac92-be42-43a2-9634-8b67c7fe93a7","52F21B0001B04D9BADE6BEA0550B5468-2025-05-22-19-23-33","","2891","","images/semantic_sequence/using_technology_semantic/using_technology_semantic_3.png","0","",""
"","","","","","image-button-response","33","161662","0.0-10.0-1.0-2.2","52F21B0001B04D9BADE6BEA0550B5468","52F21B0001B04D9BADE6BEA0550B5468","6f995072-ce4a-4d10-bfd6-8ccb2fde06d3","9076ac92-be42-43a2-9634-8b67c7fe93a7","{""num_scrambled_semantic"":""8"",""num_scrambled_causal"":""4"",""num_scrambled_schematic"":""4"",""participantId"":""52F21B0001B04D9BADE6BEA0550B5468"",""assignmentId"":""6f995072-ce4a-4d10-bfd6-8ccb2fde06d3"",""projectId"":""9076ac92-be42-43a2-9634-8b67c7fe93a7""}","https://test12345.live/?num_scrambled_semantic=8&num_scrambled_causal=4&num_scrambled_schematic=4&participantId=52F21B0001B04D9BADE6BEA0550B5468&assignmentId=6f995072-ce4a-4d10-bfd6-8ccb2fde06d3&projectId=9076ac92-be42-43a2-9634-8b67c7fe93a7","52F21B0001B04D9BADE6BEA0550B5468-2025-05-22-19-23-33","","null","","[]","null","",""
"","","","","","image-button-response","34","166167","0.0-10.0-1.0-0.3","52F21B0001B04D9BADE6BEA0550B5468","52F21B0001B04D9BADE6BEA0550B5468","6f995072-ce4a-4d10-bfd6-8ccb2fde06d3","9076ac92-be42-43a2-9634-8b67c7fe93a7","{""num_scrambled_semantic"":""8"",""num_scrambled_causal"":""4"",""num_scrambled_schematic"":""4"",""participantId"":""52F21B0001B04D9BADE6BEA0550B5468"",""assignmentId"":""6f995072-ce4a-4d10-bfd6-8ccb2fde06d3"",""projectId"":""9076ac92-be42-43a2-9634-8b67c7fe93a7""}","https://test12345.live/?num_scrambled_semantic=8&num_scrambled_causal=4&num_scrambled_schematic=4&participantId=52F21B0001B04D9BADE6BEA0550B5468&assignmentId=6f995072-ce4a-4d10-bfd6-8ccb2fde06d3&projectId=9076ac92-be42-43a2-9634-8b67c7fe93a7","52F21B0001B04D9BADE6BEA0550B5468-2025-05-22-19-23-33","","null","","images/semantic_sequence/using_technology_semantic/using_technology_semantic_4.png","null","",""
"","","","","","image-button-response","35","166875","0.0-10.0-1.0-1.3","52F21B0001B04D9BADE6BEA0550B5468","52F21B0001B04D9BADE6BEA0550B5468","6f995072-ce4a-4d10-bfd6-8ccb2fde06d3","9076ac92-be42-43a2-9634-8b67c7fe93a7","{""num_scrambled_semantic"":""8"",""num_scrambled_causal"":""4"",""num_scrambled_schematic"":""4"",""participantId"":""52F21B0001B04D9BADE6BEA0550B5468"",""assignmentId"":""6f995072-ce4a-4d10-bfd6-8ccb2fde06d3"",""projectId"":""9076ac92-be42-43a2-9634-8b67c7fe93a7""}","https://test12345.live/?num_scrambled_semantic=8&num_scrambled_causal=4&num_scrambled_schematic=4&participantId=52F21B0001B04D9BADE6BEA0550B5468&assignmentId=6f995072-ce4a-4d10-bfd6-8ccb2fde06d3&projectId=9076ac92-be42-43a2-9634-8b67c7fe93a7","52F21B0001B04D9BADE6BEA0550B5468-2025-05-22-19-23-33","","707","","images/semantic_sequence/using_technology_semantic/using_technology_semantic_4.png","0","",""
"","","","","","image-button-response","36","168686","0.0-10.0-1.0-2.3","52F21B0001B04D9BADE6BEA0550B5468","52F21B0001B04D9BADE6BEA0550B5468","6f995072-ce4a-4d10-bfd6-8ccb2fde06d3","9076ac92-be42-43a2-9634-8b67c7fe93a7","{""num_scrambled_semantic"":""8"",""num_scrambled_causal"":""4"",""num_scrambled_schematic"":""4"",""participantId"":""52F21B0001B04D9BADE6BEA0550B5468"",""assignmentId"":""6f995072-ce4a-4d10-bfd6-8ccb2fde06d3"",""projectId"":""9076ac92-be42-43a2-9634-8b67c7fe93a7""}","https://test12345.live/?num_scrambled_semantic=8&num_scrambled_causal=4&num_scrambled_schematic=4&participantId=52F21B0001B04D9BADE6BEA0550B5468&assignmentId=6f995072-ce4a-4d10-bfd6-8ccb2fde06d3&projectId=9076ac92-be42-43a2-9634-8b67c7fe93a7","52F21B0001B04D9BADE6BEA0550B5468-2025-05-22-19-23-33","","null","","[]","null","",""
"","","","","","image-button-response","37","173189","0.0-10.0-1.0-0.4","52F21B0001B04D9BADE6BEA0550B5468","52F21B0001B04D9BADE6BEA0550B5468","6f995072-ce4a-4d10-bfd6-8ccb2fde06d3","9076ac92-be42-43a2-9634-8b67c7fe93a7","{""num_scrambled_semantic"":""8"",""num_scrambled_causal"":""4"",""num_scrambled_schematic"":""4"",""participantId"":""52F21B0001B04D9BADE6BEA0550B5468"",""assignmentId"":""6f995072-ce4a-4d10-bfd6-8ccb2fde06d3"",""projectId"":""9076ac92-be42-43a2-9634-8b67c7fe93a7""}","https://test12345.live/?num_scrambled_semantic=8&num_scrambled_causal=4&num_scrambled_schematic=4&participantId=52F21B0001B04D9BADE6BEA0550B5468&assignmentId=6f995072-ce4a-4d10-bfd6-8ccb2fde06d3&projectId=9076ac92-be42-43a2-9634-8b67c7fe93a7","52F21B0001B04D9BADE6BEA0550B5468-2025-05-22-19-23-33","","null","","images/semantic_sequence/using_technology_semantic/using_technology_semantic_5.png","null","",""
"","","","","","image-button-response","38","173894","0.0-10.0-1.0-1.4","52F21B0001B04D9BADE6BEA0550B5468","52F21B0001B04D9BADE6BEA0550B5468","6f995072-ce4a-4d10-bfd6-8ccb2fde06d3","9076ac92-be42-43a2-9634-8b67c7fe93a7","{""num_scrambled_semantic"":""8"",""num_scrambled_causal"":""4"",""num_scrambled_schematic"":""4"",""participantId"":""52F21B0001B04D9BADE6BEA0550B5468"",""assignmentId"":""6f995072-ce4a-4d10-bfd6-8ccb2fde06d3"",""projectId"":""9076ac92-be42-43a2-9634-8b67c7fe93a7""}","https://test12345.live/?num_scrambled_semantic=8&num_scrambled_causal=4&num_scrambled_schematic=4&participantId=52F21B0001B04D9BADE6BEA0550B5468&assignmentId=6f995072-ce4a-4d10-bfd6-8ccb2fde06d3&projectId=9076ac92-be42-43a2-9634-8b67c7fe93a7","52F21B0001B04D9BADE6BEA0550B5468-2025-05-22-19-23-33","","704","","images/semantic_sequence/using_technology_semantic/using_technology_semantic_5.png","0","",""
"","","","","","image-button-response","39","175704","0.0-10.0-1.0-2.4","52F21B0001B04D9BADE6BEA0550B5468","52F21B0001B04D9BADE6BEA0550B5468","6f995072-ce4a-4d10-bfd6-8ccb2fde06d3","9076ac92-be42-43a2-9634-8b67c7fe93a7","{""num_scrambled_semantic"":""8"",""num_scrambled_causal"":""4"",""num_scrambled_schematic"":""4"",""participantId"":""52F21B0001B04D9BADE6BEA0550B5468"",""assignmentId"":""6f995072-ce4a-4d10-bfd6-8ccb2fde06d3"",""projectId"":""9076ac92-be42-43a2-9634-8b67c7fe93a7""}","https://test12345.live/?num_scrambled_semantic=8&num_scrambled_causal=4&num_scrambled_schematic=4&participantId=52F21B0001B04D9BADE6BEA0550B5468&assignmentId=6f995072-ce4a-4d10-bfd6-8ccb2fde06d3&projectId=9076ac92-be42-43a2-9634-8b67c7fe93a7","52F21B0001B04D9BADE6BEA0550B5468-2025-05-22-19-23-33","","null","","[]","null","",""
"","","","","","image-button-response","40","180207","0.0-10.0-1.0-0.5","52F21B0001B04D9BADE6BEA0550B5468","52F21B0001B04D9BADE6BEA0550B5468","6f995072-ce4a-4d10-bfd6-8ccb2fde06d3","9076ac92-be42-43a2-9634-8b67c7fe93a7","{""num_scrambled_semantic"":""8"",""num_scrambled_causal"":""4"",""num_scrambled_schematic"":""4"",""participantId"":""52F21B0001B04D9BADE6BEA0550B5468"",""assignmentId"":""6f995072-ce4a-4d10-bfd6-8ccb2fde06d3"",""projectId"":""9076ac92-be42-43a2-9634-8b67c7fe93a7""}","https://test12345.live/?num_scrambled_semantic=8&num_scrambled_causal=4&num_scrambled_schematic=4&participantId=52F21B0001B04D9BADE6BEA0550B5468&assignmentId=6f995072-ce4a-4d10-bfd6-8ccb2fde06d3&projectId=9076ac92-be42-43a2-9634-8b67c7fe93a7","52F21B0001B04D9BADE6BEA0550B5468-2025-05-22-19-23-33","","null","","images/semantic_sequence/using_technology_semantic/using_technology_semantic_6.png","null","",""
"","","","","","image-button-response","41","181322","0.0-10.0-1.0-1.5","52F21B0001B04D9BADE6BEA0550B5468","52F21B0001B04D9BADE6BEA0550B5468","6f995072-ce4a-4d10-bfd6-8ccb2fde06d3","9076ac92-be42-43a2-9634-8b67c7fe93a7","{""num_scrambled_semantic"":""8"",""num_scrambled_causal"":""4"",""num_scrambled_schematic"":""4"",""participantId"":""52F21B0001B04D9BADE6BEA0550B5468"",""assignmentId"":""6f995072-ce4a-4d10-bfd6-8ccb2fde06d3"",""projectId"":""9076ac92-be42-43a2-9634-8b67c7fe93a7""}","https://test12345.live/?num_scrambled_semantic=8&num_scrambled_causal=4&num_scrambled_schematic=4&participantId=52F21B0001B04D9BADE6BEA0550B5468&assignmentId=6f995072-ce4a-4d10-bfd6-8ccb2fde06d3&projectId=9076ac92-be42-43a2-9634-8b67c7fe93a7","52F21B0001B04D9BADE6BEA0550B5468-2025-05-22-19-23-33","","1114","","images/semantic_sequence/using_technology_semantic/using_technology_semantic_6.png","0","",""
"","","","","","image-button-response","42","183123","0.0-10.0-1.0-2.5","52F21B0001B04D9BADE6BEA0550B5468","52F21B0001B04D9BADE6BEA0550B5468","6f995072-ce4a-4d10-bfd6-8ccb2fde06d3","9076ac92-be42-43a2-9634-8b67c7fe93a7","{""num_scrambled_semantic"":""8"",""num_scrambled_causal"":""4"",""num_scrambled_schematic"":""4"",""participantId"":""52F21B0001B04D9BADE6BEA0550B5468"",""assignmentId"":""6f995072-ce4a-4d10-bfd6-8ccb2fde06d3"",""projectId"":""9076ac92-be42-43a2-9634-8b67c7fe93a7""}","https://test12345.live/?num_scrambled_semantic=8&num_scrambled_causal=4&num_scrambled_schematic=4&participantId=52F21B0001B04D9BADE6BEA0550B5468&assignmentId=6f995072-ce4a-4d10-bfd6-8ccb2fde06d3&projectId=9076ac92-be42-43a2-9634-8b67c7fe93a7","52F21B0001B04D9BADE6BEA0550B5468-2025-05-22-19-23-33","","null","","[]","null","",""
"","","","","","image-button-response","43","187633","0.0-10.0-1.0-0.6","52F21B0001B04D9BADE6BEA0550B5468","52F21B0001B04D9BADE6BEA0550B5468","6f995072-ce4a-4d10-bfd6-8ccb2fde06d3","9076ac92-be42-43a2-9634-8b67c7fe93a7","{""num_scrambled_semantic"":""8"",""num_scrambled_causal"":""4"",""num_scrambled_schematic"":""4"",""participantId"":""52F21B0001B04D9BADE6BEA0550B5468"",""assignmentId"":""6f995072-ce4a-4d10-bfd6-8ccb2fde06d3"",""projectId"":""9076ac92-be42-43a2-9634-8b67c7fe93a7""}","https://test12345.live/?num_scrambled_semantic=8&num_scrambled_causal=4&num_scrambled_schematic=4&participantId=52F21B0001B04D9BADE6BEA0550B5468&assignmentId=6f995072-ce4a-4d10-bfd6-8ccb2fde06d3&projectId=9076ac92-be42-43a2-9634-8b67c7fe93a7","52F21B0001B04D9BADE6BEA0550B5468-2025-05-22-19-23-33","","null","","images/semantic_sequence/using_technology_semantic/using_technology_semantic_7.png","null","",""
"","","","","","image-button-response","44","188703","0.0-10.0-1.0-1.6","52F21B0001B04D9BADE6BEA0550B5468","52F21B0001B04D9BADE6BEA0550B5468","6f995072-ce4a-4d10-bfd6-8ccb2fde06d3","9076ac92-be42-43a2-9634-8b67c7fe93a7","{""num_scrambled_semantic"":""8"",""num_scrambled_causal"":""4"",""num_scrambled_schematic"":""4"",""participantId"":""52F21B0001B04D9BADE6BEA0550B5468"",""assignmentId"":""6f995072-ce4a-4d10-bfd6-8ccb2fde06d3"",""projectId"":""9076ac92-be42-43a2-9634-8b67c7fe93a7""}","https://test12345.live/?num_scrambled_semantic=8&num_scrambled_causal=4&num_scrambled_schematic=4&participantId=52F21B0001B04D9BADE6BEA0550B5468&assignmentId=6f995072-ce4a-4d10-bfd6-8ccb2fde06d3&projectId=9076ac92-be42-43a2-9634-8b67c7fe93a7","52F21B0001B04D9BADE6BEA0550B5468-2025-05-22-19-23-33","","1069","","images/semantic_sequence/using_technology_semantic/using_technology_semantic_7.png","0","",""
"","","","","","image-button-response","45","190509","0.0-10.0-1.0-2.6","52F21B0001B04D9BADE6BEA0550B5468","52F21B0001B04D9BADE6BEA0550B5468","6f995072-ce4a-4d10-bfd6-8ccb2fde06d3","9076ac92-be42-43a2-9634-8b67c7fe93a7","{""num_scrambled_semantic"":""8"",""num_scrambled_causal"":""4"",""num_scrambled_schematic"":""4"",""participantId"":""52F21B0001B04D9BADE6BEA0550B5468"",""assignmentId"":""6f995072-ce4a-4d10-bfd6-8ccb2fde06d3"",""projectId"":""9076ac92-be42-43a2-9634-8b67c7fe93a7""}","https://test12345.live/?num_scrambled_semantic=8&num_scrambled_causal=4&num_scrambled_schematic=4&participantId=52F21B0001B04D9BADE6BEA0550B5468&assignmentId=6f995072-ce4a-4d10-bfd6-8ccb2fde06d3&projectId=9076ac92-be42-43a2-9634-8b67c7fe93a7","52F21B0001B04D9BADE6BEA0550B5468-2025-05-22-19-23-33","","null","","[]","null","",""
"","","","","","image-button-response","46","195014","0.0-10.0-1.0-0.7","52F21B0001B04D9BADE6BEA0550B5468","52F21B0001B04D9BADE6BEA0550B5468","6f995072-ce4a-4d10-bfd6-8ccb2fde06d3","9076ac92-be42-43a2-9634-8b67c7fe93a7","{""num_scrambled_semantic"":""8"",""num_scrambled_causal"":""4"",""num_scrambled_schematic"":""4"",""participantId"":""52F21B0001B04D9BADE6BEA0550B5468"",""assignmentId"":""6f995072-ce4a-4d10-bfd6-8ccb2fde06d3"",""projectId"":""9076ac92-be42-43a2-9634-8b67c7fe93a7""}","https://test12345.live/?num_scrambled_semantic=8&num_scrambled_causal=4&num_scrambled_schematic=4&participantId=52F21B0001B04D9BADE6BEA0550B5468&assignmentId=6f995072-ce4a-4d10-bfd6-8ccb2fde06d3&projectId=9076ac92-be42-43a2-9634-8b67c7fe93a7","52F21B0001B04D9BADE6BEA0550B5468-2025-05-22-19-23-33","","null","","images/semantic_sequence/using_technology_semantic/using_technology_semantic_8.png","null","",""
"","","","","","image-button-response","47","196169","0.0-10.0-1.0-1.7","52F21B0001B04D9BADE6BEA0550B5468","52F21B0001B04D9BADE6BEA0550B5468","6f995072-ce4a-4d10-bfd6-8ccb2fde06d3","9076ac92-be42-43a2-9634-8b67c7fe93a7","{""num_scrambled_semantic"":""8"",""num_scrambled_causal"":""4"",""num_scrambled_schematic"":""4"",""participantId"":""52F21B0001B04D9BADE6BEA0550B5468"",""assignmentId"":""6f995072-ce4a-4d10-bfd6-8ccb2fde06d3"",""projectId"":""9076ac92-be42-43a2-9634-8b67c7fe93a7""}","https://test12345.live/?num_scrambled_semantic=8&num_scrambled_causal=4&num_scrambled_schematic=4&participantId=52F21B0001B04D9BADE6BEA0550B5468&assignmentId=6f995072-ce4a-4d10-bfd6-8ccb2fde06d3&projectId=9076ac92-be42-43a2-9634-8b67c7fe93a7","52F21B0001B04D9BADE6BEA0550B5468-2025-05-22-19-23-33","","1154","","images/semantic_sequence/using_technology_semantic/using_technology_semantic_8.png","0","",""
"","","","","","image-button-response","48","197984","0.0-10.0-1.0-2.7","52F21B0001B04D9BADE6BEA0550B5468","52F21B0001B04D9BADE6BEA0550B5468","6f995072-ce4a-4d10-bfd6-8ccb2fde06d3","9076ac92-be42-43a2-9634-8b67c7fe93a7","{""num_scrambled_semantic"":""8"",""num_scrambled_causal"":""4"",""num_scrambled_schematic"":""4"",""participantId"":""52F21B0001B04D9BADE6BEA0550B5468"",""assignmentId"":""6f995072-ce4a-4d10-bfd6-8ccb2fde06d3"",""projectId"":""9076ac92-be42-43a2-9634-8b67c7fe93a7""}","https://test12345.live/?num_scrambled_semantic=8&num_scrambled_causal=4&num_scrambled_schematic=4&participantId=52F21B0001B04D9BADE6BEA0550B5468&assignmentId=6f995072-ce4a-4d10-bfd6-8ccb2fde06d3&projectId=9076ac92-be42-43a2-9634-8b67c7fe93a7","52F21B0001B04D9BADE6BEA0550B5468-2025-05-22-19-23-33","","null","","[]","null","",""
"","","","","","image-button-response","49","202497","0.0-10.0-1.0-0.8","52F21B0001B04D9BADE6BEA0550B5468","52F21B0001B04D9BADE6BEA0550B5468","6f995072-ce4a-4d10-bfd6-8ccb2fde06d3","9076ac92-be42-43a2-9634-8b67c7fe93a7","{""num_scrambled_semantic"":""8"",""num_scrambled_causal"":""4"",""num_scrambled_schematic"":""4"",""participantId"":""52F21B0001B04D9BADE6BEA0550B5468"",""assignmentId"":""6f995072-ce4a-4d10-bfd6-8ccb2fde06d3"",""projectId"":""9076ac92-be42-43a2-9634-8b67c7fe93a7""}","https://test12345.live/?num_scrambled_semantic=8&num_scrambled_causal=4&num_scrambled_schematic=4&participantId=52F21B0001B04D9BADE6BEA0550B5468&assignmentId=6f995072-ce4a-4d10-bfd6-8ccb2fde06d3&projectId=9076ac92-be42-43a2-9634-8b67c7fe93a7","52F21B0001B04D9BADE6BEA0550B5468-2025-05-22-19-23-33","","null","","images/semantic_sequence/using_technology_semantic/using_technology_semantic_9.png","null","",""
"","","","","","image-button-response","50","203431","0.0-10.0-1.0-1.8","52F21B0001B04D9BADE6BEA0550B5468","52F21B0001B04D9BADE6BEA0550B5468","6f995072-ce4a-4d10-bfd6-8ccb2fde06d3","9076ac92-be42-43a2-9634-8b67c7fe93a7","{""num_scrambled_semantic"":""8"",""num_scrambled_causal"":""4"",""num_scrambled_schematic"":""4"",""participantId"":""52F21B0001B04D9BADE6BEA0550B5468"",""assignmentId"":""6f995072-ce4a-4d10-bfd6-8ccb2fde06d3"",""projectId"":""9076ac92-be42-43a2-9634-8b67c7fe93a7""}","https://test12345.live/?num_scrambled_semantic=8&num_scrambled_causal=4&num_scrambled_schematic=4&participantId=52F21B0001B04D9BADE6BEA0550B5468&assignmentId=6f995072-ce4a-4d10-bfd6-8ccb2fde06d3&projectId=9076ac92-be42-43a2-9634-8b67c7fe93a7","52F21B0001B04D9BADE6BEA0550B5468-2025-05-22-19-23-33","","933","","images/semantic_sequence/using_technology_semantic/using_technology_semantic_9.png","0","",""
"","","","","","image-button-response","51","205234","0.0-10.0-1.0-2.8","52F21B0001B04D9BADE6BEA0550B5468","52F21B0001B04D9BADE6BEA0550B5468","6f995072-ce4a-4d10-bfd6-8ccb2fde06d3","9076ac92-be42-43a2-9634-8b67c7fe93a7","{""num_scrambled_semantic"":""8"",""num_scrambled_causal"":""4"",""num_scrambled_schematic"":""4"",""participantId"":""52F21B0001B04D9BADE6BEA0550B5468"",""assignmentId"":""6f995072-ce4a-4d10-bfd6-8ccb2fde06d3"",""projectId"":""9076ac92-be42-43a2-9634-8b67c7fe93a7""}","https://test12345.live/?num_scrambled_semantic=8&num_scrambled_causal=4&num_scrambled_schematic=4&participantId=52F21B0001B04D9BADE6BEA0550B5468&assignmentId=6f995072-ce4a-4d10-bfd6-8ccb2fde06d3&projectId=9076ac92-be42-43a2-9634-8b67c7fe93a7","52F21B0001B04D9BADE6BEA0550B5468-2025-05-22-19-23-33","","null","","[]","null","",""
"","","","","","image-button-response","52","209741","0.0-10.0-1.0-0.9","52F21B0001B04D9BADE6BEA0550B5468","52F21B0001B04D9BADE6BEA0550B5468","6f995072-ce4a-4d10-bfd6-8ccb2fde06d3","9076ac92-be42-43a2-9634-8b67c7fe93a7","{""num_scrambled_semantic"":""8"",""num_scrambled_causal"":""4"",""num_scrambled_schematic"":""4"",""participantId"":""52F21B0001B04D9BADE6BEA0550B5468"",""assignmentId"":""6f995072-ce4a-4d10-bfd6-8ccb2fde06d3"",""projectId"":""9076ac92-be42-43a2-9634-8b67c7fe93a7""}","https://test12345.live/?num_scrambled_semantic=8&num_scrambled_causal=4&num_scrambled_schematic=4&participantId=52F21B0001B04D9BADE6BEA0550B5468&assignmentId=6f995072-ce4a-4d10-bfd6-8ccb2fde06d3&projectId=9076ac92-be42-43a2-9634-8b67c7fe93a7","52F21B0001B04D9BADE6BEA0550B5468-2025-05-22-19-23-33","","null","","images/semantic_sequence/using_technology_semantic/using_technology_semantic_ten.png","null","",""
"","","","","","image-button-response","53","210275","0.0-10.0-1.0-1.9","52F21B0001B04D9BADE6BEA0550B5468","52F21B0001B04D9BADE6BEA0550B5468","6f995072-ce4a-4d10-bfd6-8ccb2fde06d3","9076ac92-be42-43a2-9634-8b67c7fe93a7","{""num_scrambled_semantic"":""8"",""num_scrambled_causal"":""4"",""num_scrambled_schematic"":""4"",""participantId"":""52F21B0001B04D9BADE6BEA0550B5468"",""assignmentId"":""6f995072-ce4a-4d10-bfd6-8ccb2fde06d3"",""projectId"":""9076ac92-be42-43a2-9634-8b67c7fe93a7""}","https://test12345.live/?num_scrambled_semantic=8&num_scrambled_causal=4&num_scrambled_schematic=4&participantId=52F21B0001B04D9BADE6BEA0550B5468&assignmentId=6f995072-ce4a-4d10-bfd6-8ccb2fde06d3&projectId=9076ac92-be42-43a2-9634-8b67c7fe93a7","52F21B0001B04D9BADE6BEA0550B5468-2025-05-22-19-23-33","","532","","images/semantic_sequence/using_technology_semantic/using_technology_semantic_ten.png","0","",""
"","","","","","image-button-response","54","212084","0.0-10.0-1.0-2.9","52F21B0001B04D9BADE6BEA0550B5468","52F21B0001B04D9BADE6BEA0550B5468","6f995072-ce4a-4d10-bfd6-8ccb2fde06d3","9076ac92-be42-43a2-9634-8b67c7fe93a7","{""num_scrambled_semantic"":""8"",""num_scrambled_causal"":""4"",""num_scrambled_schematic"":""4"",""participantId"":""52F21B0001B04D9BADE6BEA0550B5468"",""assignmentId"":""6f995072-ce4a-4d10-bfd6-8ccb2fde06d3"",""projectId"":""9076ac92-be42-43a2-9634-8b67c7fe93a7""}","https://test12345.live/?num_scrambled_semantic=8&num_scrambled_causal=4&num_scrambled_schematic=4&participantId=52F21B0001B04D9BADE6BEA0550B5468&assignmentId=6f995072-ce4a-4d10-bfd6-8ccb2fde06d3&projectId=9076ac92-be42-43a2-9634-8b67c7fe93a7","52F21B0001B04D9BADE6BEA0550B5468-2025-05-22-19-23-33","","null","","[]","null","",""
"","","","","","html-audio-response","55","249366","0.0-11.0","52F21B0001B04D9BADE6BEA0550B5468","52F21B0001B04D9BADE6BEA0550B5468","6f995072-ce4a-4d10-bfd6-8ccb2fde06d3","9076ac92-be42-43a2-9634-8b67c7fe93a7","{""num_scrambled_semantic"":""8"",""num_scrambled_causal"":""4"",""num_scrambled_schematic"":""4"",""participantId"":""52F21B0001B04D9BADE6BEA0550B5468"",""assignmentId"":""6f995072-ce4a-4d10-bfd6-8ccb2fde06d3"",""projectId"":""9076ac92-be42-43a2-9634-8b67c7fe93a7""}","https://test12345.live/?num_scrambled_semantic=8&num_scrambled_causal=4&num_scrambled_schematic=4&participantId=52F21B0001B04D9BADE6BEA0550B5468&assignmentId=6f995072-ce4a-4d10-bfd6-8ccb2fde06d3&projectId=9076ac92-be42-43a2-9634-8b67c7fe93a7","52F21B0001B04D9BADE6BEA0550B5468-2025-05-22-19-23-33","","35833","","[""<span style=\""color: red; font-size: 24px\""> NOW RECORDING</span><p>Please say out loud all the images you saw, in the exact order you saw them. Try to recall as many images as you can, but remember: getting the order right is more important than the number of images you recall.</p>""]","","2","using_technology_semantic"
"","","","","","image-button-response","56","255381","0.0-12.0-0.0","52F21B0001B04D9BADE6BEA0550B5468","52F21B0001B04D9BADE6BEA0550B5468","6f995072-ce4a-4d10-bfd6-8ccb2fde06d3","9076ac92-be42-43a2-9634-8b67c7fe93a7","{""num_scrambled_semantic"":""8"",""num_scrambled_causal"":""4"",""num_scrambled_schematic"":""4"",""participantId"":""52F21B0001B04D9BADE6BEA0550B5468"",""assignmentId"":""6f995072-ce4a-4d10-bfd6-8ccb2fde06d3"",""projectId"":""9076ac92-be42-43a2-9634-8b67c7fe93a7""}","https://test12345.live/?num_scrambled_semantic=8&num_scrambled_causal=4&num_scrambled_schematic=4&participantId=52F21B0001B04D9BADE6BEA0550B5468&assignmentId=6f995072-ce4a-4d10-bfd6-8ccb2fde06d3&projectId=9076ac92-be42-43a2-9634-8b67c7fe93a7","52F21B0001B04D9BADE6BEA0550B5468-2025-05-22-19-23-33","","null","","images/schematic_sequence/dinner_party_scheme/dinner_party_scheme_0.png","null","",""
"","","","","","image-button-response","57","259887","0.0-12.0-1.0-0.0","52F21B0001B04D9BADE6BEA0550B5468","52F21B0001B04D9BADE6BEA0550B5468","6f995072-ce4a-4d10-bfd6-8ccb2fde06d3","9076ac92-be42-43a2-9634-8b67c7fe93a7","{""num_scrambled_semantic"":""8"",""num_scrambled_causal"":""4"",""num_scrambled_schematic"":""4"",""participantId"":""52F21B0001B04D9BADE6BEA0550B5468"",""assignmentId"":""6f995072-ce4a-4d10-bfd6-8ccb2fde06d3"",""projectId"":""9076ac92-be42-43a2-9634-8b67c7fe93a7""}","https://test12345.live/?num_scrambled_semantic=8&num_scrambled_causal=4&num_scrambled_schematic=4&participantId=52F21B0001B04D9BADE6BEA0550B5468&assignmentId=6f995072-ce4a-4d10-bfd6-8ccb2fde06d3&projectId=9076ac92-be42-43a2-9634-8b67c7fe93a7","52F21B0001B04D9BADE6BEA0550B5468-2025-05-22-19-23-33","","null","","images/schematic_sequence/dinner_party_scheme/dinner_party_scheme_1.png","null","",""
"","","","","","image-button-response","58","261091","0.0-12.0-1.0-1.0","52F21B0001B04D9BADE6BEA0550B5468","52F21B0001B04D9BADE6BEA0550B5468","6f995072-ce4a-4d10-bfd6-8ccb2fde06d3","9076ac92-be42-43a2-9634-8b67c7fe93a7","{""num_scrambled_semantic"":""8"",""num_scrambled_causal"":""4"",""num_scrambled_schematic"":""4"",""participantId"":""52F21B0001B04D9BADE6BEA0550B5468"",""assignmentId"":""6f995072-ce4a-4d10-bfd6-8ccb2fde06d3"",""projectId"":""9076ac92-be42-43a2-9634-8b67c7fe93a7""}","https://test12345.live/?num_scrambled_semantic=8&num_scrambled_causal=4&num_scrambled_schematic=4&participantId=52F21B0001B04D9BADE6BEA0550B5468&assignmentId=6f995072-ce4a-4d10-bfd6-8ccb2fde06d3&projectId=9076ac92-be42-43a2-9634-8b67c7fe93a7","52F21B0001B04D9BADE6BEA0550B5468-2025-05-22-19-23-33","","1202","","images/schematic_sequence/dinner_party_scheme/dinner_party_scheme_1.png","0","",""
"","","","","","image-button-response","59","262906","0.0-12.0-1.0-2.0","52F21B0001B04D9BADE6BEA0550B5468","52F21B0001B04D9BADE6BEA0550B5468","6f995072-ce4a-4d10-bfd6-8ccb2fde06d3","9076ac92-be42-43a2-9634-8b67c7fe93a7","{""num_scrambled_semantic"":""8"",""num_scrambled_causal"":""4"",""num_scrambled_schematic"":""4"",""participantId"":""52F21B0001B04D9BADE6BEA0550B5468"",""assignmentId"":""6f995072-ce4a-4d10-bfd6-8ccb2fde06d3"",""projectId"":""9076ac92-be42-43a2-9634-8b67c7fe93a7""}","https://test12345.live/?num_scrambled_semantic=8&num_scrambled_causal=4&num_scrambled_schematic=4&participantId=52F21B0001B04D9BADE6BEA0550B5468&assignmentId=6f995072-ce4a-4d10-bfd6-8ccb2fde06d3&projectId=9076ac92-be42-43a2-9634-8b67c7fe93a7","52F21B0001B04D9BADE6BEA0550B5468-2025-05-22-19-23-33","","null","","[]","null","",""
"","","","","","image-button-response","60","267411","0.0-12.0-1.0-0.1","52F21B0001B04D9BADE6BEA0550B5468","52F21B0001B04D9BADE6BEA0550B5468","6f995072-ce4a-4d10-bfd6-8ccb2fde06d3","9076ac92-be42-43a2-9634-8b67c7fe93a7","{""num_scrambled_semantic"":""8"",""num_scrambled_causal"":""4"",""num_scrambled_schematic"":""4"",""participantId"":""52F21B0001B04D9BADE6BEA0550B5468"",""assignmentId"":""6f995072-ce4a-4d10-bfd6-8ccb2fde06d3"",""projectId"":""9076ac92-be42-43a2-9634-8b67c7fe93a7""}","https://test12345.live/?num_scrambled_semantic=8&num_scrambled_causal=4&num_scrambled_schematic=4&participantId=52F21B0001B04D9BADE6BEA0550B5468&assignmentId=6f995072-ce4a-4d10-bfd6-8ccb2fde06d3&projectId=9076ac92-be42-43a2-9634-8b67c7fe93a7","52F21B0001B04D9BADE6BEA0550B5468-2025-05-22-19-23-33","","null","","images/schematic_sequence/dinner_party_scheme/dinner_party_scheme_2.png","null","",""
"","","","","","image-button-response","61","268371","0.0-12.0-1.0-1.1","52F21B0001B04D9BADE6BEA0550B5468","52F21B0001B04D9BADE6BEA0550B5468","6f995072-ce4a-4d10-bfd6-8ccb2fde06d3","9076ac92-be42-43a2-9634-8b67c7fe93a7","{""num_scrambled_semantic"":""8"",""num_scrambled_causal"":""4"",""num_scrambled_schematic"":""4"",""participantId"":""52F21B0001B04D9BADE6BEA0550B5468"",""assignmentId"":""6f995072-ce4a-4d10-bfd6-8ccb2fde06d3"",""projectId"":""9076ac92-be42-43a2-9634-8b67c7fe93a7""}","https://test12345.live/?num_scrambled_semantic=8&num_scrambled_causal=4&num_scrambled_schematic=4&participantId=52F21B0001B04D9BADE6BEA0550B5468&assignmentId=6f995072-ce4a-4d10-bfd6-8ccb2fde06d3&projectId=9076ac92-be42-43a2-9634-8b67c7fe93a7","52F21B0001B04D9BADE6BEA0550B5468-2025-05-22-19-23-33","","959","","images/schematic_sequence/dinner_party_scheme/dinner_party_scheme_2.png","0","",""
"","","","","","image-button-response","62","270181","0.0-12.0-1.0-2.1","52F21B0001B04D9BADE6BEA0550B5468","52F21B0001B04D9BADE6BEA0550B5468","6f995072-ce4a-4d10-bfd6-8ccb2fde06d3","9076ac92-be42-43a2-9634-8b67c7fe93a7","{""num_scrambled_semantic"":""8"",""num_scrambled_causal"":""4"",""num_scrambled_schematic"":""4"",""participantId"":""52F21B0001B04D9BADE6BEA0550B5468"",""assignmentId"":""6f995072-ce4a-4d10-bfd6-8ccb2fde06d3"",""projectId"":""9076ac92-be42-43a2-9634-8b67c7fe93a7""}","https://test12345.live/?num_scrambled_semantic=8&num_scrambled_causal=4&num_scrambled_schematic=4&participantId=52F21B0001B04D9BADE6BEA0550B5468&assignmentId=6f995072-ce4a-4d10-bfd6-8ccb2fde06d3&projectId=9076ac92-be42-43a2-9634-8b67c7fe93a7","52F21B0001B04D9BADE6BEA0550B5468-2025-05-22-19-23-33","","null","","[]","null","",""
"","","","","","image-button-response","63","274686","0.0-12.0-1.0-0.2","52F21B0001B04D9BADE6BEA0550B5468","52F21B0001B04D9BADE6BEA0550B5468","6f995072-ce4a-4d10-bfd6-8ccb2fde06d3","9076ac92-be42-43a2-9634-8b67c7fe93a7","{""num_scrambled_semantic"":""8"",""num_scrambled_causal"":""4"",""num_scrambled_schematic"":""4"",""participantId"":""52F21B0001B04D9BADE6BEA0550B5468"",""assignmentId"":""6f995072-ce4a-4d10-bfd6-8ccb2fde06d3"",""projectId"":""9076ac92-be42-43a2-9634-8b67c7fe93a7""}","https://test12345.live/?num_scrambled_semantic=8&num_scrambled_causal=4&num_scrambled_schematic=4&participantId=52F21B0001B04D9BADE6BEA0550B5468&assignmentId=6f995072-ce4a-4d10-bfd6-8ccb2fde06d3&projectId=9076ac92-be42-43a2-9634-8b67c7fe93a7","52F21B0001B04D9BADE6BEA0550B5468-2025-05-22-19-23-33","","null","","images/schematic_sequence/dinner_party_scheme/dinner_party_scheme_3.png","null","",""
"","","","","","image-button-response","64","277506","0.0-12.0-1.0-1.2","52F21B0001B04D9BADE6BEA0550B5468","52F21B0001B04D9BADE6BEA0550B5468","6f995072-ce4a-4d10-bfd6-8ccb2fde06d3","9076ac92-be42-43a2-9634-8b67c7fe93a7","{""num_scrambled_semantic"":""8"",""num_scrambled_causal"":""4"",""num_scrambled_schematic"":""4"",""participantId"":""52F21B0001B04D9BADE6BEA0550B5468"",""assignmentId"":""6f995072-ce4a-4d10-bfd6-8ccb2fde06d3"",""projectId"":""9076ac92-be42-43a2-9634-8b67c7fe93a7""}","https://test12345.live/?num_scrambled_semantic=8&num_scrambled_causal=4&num_scrambled_schematic=4&participantId=52F21B0001B04D9BADE6BEA0550B5468&assignmentId=6f995072-ce4a-4d10-bfd6-8ccb2fde06d3&projectId=9076ac92-be42-43a2-9634-8b67c7fe93a7","52F21B0001B04D9BADE6BEA0550B5468-2025-05-22-19-23-33","","2818","","images/schematic_sequence/dinner_party_scheme/dinner_party_scheme_3.png","0","",""
"","","","","","image-button-response","65","279323","0.0-12.0-1.0-2.2","52F21B0001B04D9BADE6BEA0550B5468","52F21B0001B04D9BADE6BEA0550B5468","6f995072-ce4a-4d10-bfd6-8ccb2fde06d3","9076ac92-be42-43a2-9634-8b67c7fe93a7","{""num_scrambled_semantic"":""8"",""num_scrambled_causal"":""4"",""num_scrambled_schematic"":""4"",""participantId"":""52F21B0001B04D9BADE6BEA0550B5468"",""assignmentId"":""6f995072-ce4a-4d10-bfd6-8ccb2fde06d3"",""projectId"":""9076ac92-be42-43a2-9634-8b67c7fe93a7""}","https://test12345.live/?num_scrambled_semantic=8&num_scrambled_causal=4&num_scrambled_schematic=4&participantId=52F21B0001B04D9BADE6BEA0550B5468&assignmentId=6f995072-ce4a-4d10-bfd6-8ccb2fde06d3&projectId=9076ac92-be42-43a2-9634-8b67c7fe93a7","52F21B0001B04D9BADE6BEA0550B5468-2025-05-22-19-23-33","","null","","[]","null","",""
"","","","","","image-button-response","66","283838","0.0-12.0-1.0-0.3","52F21B0001B04D9BADE6BEA0550B5468","52F21B0001B04D9BADE6BEA0550B5468","6f995072-ce4a-4d10-bfd6-8ccb2fde06d3","9076ac92-be42-43a2-9634-8b67c7fe93a7","{""num_scrambled_semantic"":""8"",""num_scrambled_causal"":""4"",""num_scrambled_schematic"":""4"",""participantId"":""52F21B0001B04D9BADE6BEA0550B5468"",""assignmentId"":""6f995072-ce4a-4d10-bfd6-8ccb2fde06d3"",""projectId"":""9076ac92-be42-43a2-9634-8b67c7fe93a7""}","https://test12345.live/?num_scrambled_semantic=8&num_scrambled_causal=4&num_scrambled_schematic=4&participantId=52F21B0001B04D9BADE6BEA0550B5468&assignmentId=6f995072-ce4a-4d10-bfd6-8ccb2fde06d3&projectId=9076ac92-be42-43a2-9634-8b67c7fe93a7","52F21B0001B04D9BADE6BEA0550B5468-2025-05-22-19-23-33","","null","","images/schematic_sequence/dinner_party_scheme/dinner_party_scheme_4.png","null","",""
"","","","","","image-button-response","67","286068","0.0-12.0-1.0-1.3","52F21B0001B04D9BADE6BEA0550B5468","52F21B0001B04D9BADE6BEA0550B5468","6f995072-ce4a-4d10-bfd6-8ccb2fde06d3","9076ac92-be42-43a2-9634-8b67c7fe93a7","{""num_scrambled_semantic"":""8"",""num_scrambled_causal"":""4"",""num_scrambled_schematic"":""4"",""participantId"":""52F21B0001B04D9BADE6BEA0550B5468"",""assignmentId"":""6f995072-ce4a-4d10-bfd6-8ccb2fde06d3"",""projectId"":""9076ac92-be42-43a2-9634-8b67c7fe93a7""}","https://test12345.live/?num_scrambled_semantic=8&num_scrambled_causal=4&num_scrambled_schematic=4&participantId=52F21B0001B04D9BADE6BEA0550B5468&assignmentId=6f995072-ce4a-4d10-bfd6-8ccb2fde06d3&projectId=9076ac92-be42-43a2-9634-8b67c7fe93a7","52F21B0001B04D9BADE6BEA0550B5468-2025-05-22-19-23-33","","2228","","images/schematic_sequence/dinner_party_scheme/dinner_party_scheme_4.png","0","",""
"","","","","","image-button-response","68","287875","0.0-12.0-1.0-2.3","52F21B0001B04D9BADE6BEA0550B5468","52F21B0001B04D9BADE6BEA0550B5468","6f995072-ce4a-4d10-bfd6-8ccb2fde06d3","9076ac92-be42-43a2-9634-8b67c7fe93a7","{""num_scrambled_semantic"":""8"",""num_scrambled_causal"":""4"",""num_scrambled_schematic"":""4"",""participantId"":""52F21B0001B04D9BADE6BEA0550B5468"",""assignmentId"":""6f995072-ce4a-4d10-bfd6-8ccb2fde06d3"",""projectId"":""9076ac92-be42-43a2-9634-8b67c7fe93a7""}","https://test12345.live/?num_scrambled_semantic=8&num_scrambled_causal=4&num_scrambled_schematic=4&participantId=52F21B0001B04D9BADE6BEA0550B5468&assignmentId=6f995072-ce4a-4d10-bfd6-8ccb2fde06d3&projectId=9076ac92-be42-43a2-9634-8b67c7fe93a7","52F21B0001B04D9BADE6BEA0550B5468-2025-05-22-19-23-33","","null","","[]","null","",""
"","","","","","image-button-response","69","292390","0.0-12.0-1.0-0.4","52F21B0001B04D9BADE6BEA0550B5468","52F21B0001B04D9BADE6BEA0550B5468","6f995072-ce4a-4d10-bfd6-8ccb2fde06d3","9076ac92-be42-43a2-9634-8b67c7fe93a7","{""num_scrambled_semantic"":""8"",""num_scrambled_causal"":""4"",""num_scrambled_schematic"":""4"",""participantId"":""52F21B0001B04D9BADE6BEA0550B5468"",""assignmentId"":""6f995072-ce4a-4d10-bfd6-8ccb2fde06d3"",""projectId"":""9076ac92-be42-43a2-9634-8b67c7fe93a7""}","https://test12345.live/?num_scrambled_semantic=8&num_scrambled_causal=4&num_scrambled_schematic=4&participantId=52F21B0001B04D9BADE6BEA0550B5468&assignmentId=6f995072-ce4a-4d10-bfd6-8ccb2fde06d3&projectId=9076ac92-be42-43a2-9634-8b67c7fe93a7","52F21B0001B04D9BADE6BEA0550B5468-2025-05-22-19-23-33","","null","","images/schematic_sequence/dinner_party_scheme/dinner_party_scheme_5.png","null","",""
"","","","","","image-button-response","70","296109","0.0-12.0-1.0-1.4","52F21B0001B04D9BADE6BEA0550B5468","52F21B0001B04D9BADE6BEA0550B5468","6f995072-ce4a-4d10-bfd6-8ccb2fde06d3","9076ac92-be42-43a2-9634-8b67c7fe93a7","{""num_scrambled_semantic"":""8"",""num_scrambled_causal"":""4"",""num_scrambled_schematic"":""4"",""participantId"":""52F21B0001B04D9BADE6BEA0550B5468"",""assignmentId"":""6f995072-ce4a-4d10-bfd6-8ccb2fde06d3"",""projectId"":""9076ac92-be42-43a2-9634-8b67c7fe93a7""}","https://test12345.live/?num_scrambled_semantic=8&num_scrambled_causal=4&num_scrambled_schematic=4&participantId=52F21B0001B04D9BADE6BEA0550B5468&assignmentId=6f995072-ce4a-4d10-bfd6-8ccb2fde06d3&projectId=9076ac92-be42-43a2-9634-8b67c7fe93a7","52F21B0001B04D9BADE6BEA0550B5468-2025-05-22-19-23-33","","3718","","images/schematic_sequence/dinner_party_scheme/dinner_party_scheme_5.png","0","",""
"","","","","","image-button-response","71","297914","0.0-12.0-1.0-2.4","52F21B0001B04D9BADE6BEA0550B5468","52F21B0001B04D9BADE6BEA0550B5468","6f995072-ce4a-4d10-bfd6-8ccb2fde06d3","9076ac92-be42-43a2-9634-8b67c7fe93a7","{""num_scrambled_semantic"":""8"",""num_scrambled_causal"":""4"",""num_scrambled_schematic"":""4"",""participantId"":""52F21B0001B04D9BADE6BEA0550B5468"",""assignmentId"":""6f995072-ce4a-4d10-bfd6-8ccb2fde06d3"",""projectId"":""9076ac92-be42-43a2-9634-8b67c7fe93a7""}","https://test12345.live/?num_scrambled_semantic=8&num_scrambled_causal=4&num_scrambled_schematic=4&participantId=52F21B0001B04D9BADE6BEA0550B5468&assignmentId=6f995072-ce4a-4d10-bfd6-8ccb2fde06d3&projectId=9076ac92-be42-43a2-9634-8b67c7fe93a7","52F21B0001B04D9BADE6BEA0550B5468-2025-05-22-19-23-33","","null","","[]","null","",""
"","","","","","image-button-response","72","302417","0.0-12.0-1.0-0.5","52F21B0001B04D9BADE6BEA0550B5468","52F21B0001B04D9BADE6BEA0550B5468","6f995072-ce4a-4d10-bfd6-8ccb2fde06d3","9076ac92-be42-43a2-9634-8b67c7fe93a7","{""num_scrambled_semantic"":""8"",""num_scrambled_causal"":""4"",""num_scrambled_schematic"":""4"",""participantId"":""52F21B0001B04D9BADE6BEA0550B5468"",""assignmentId"":""6f995072-ce4a-4d10-bfd6-8ccb2fde06d3"",""projectId"":""9076ac92-be42-43a2-9634-8b67c7fe93a7""}","https://test12345.live/?num_scrambled_semantic=8&num_scrambled_causal=4&num_scrambled_schematic=4&participantId=52F21B0001B04D9BADE6BEA0550B5468&assignmentId=6f995072-ce4a-4d10-bfd6-8ccb2fde06d3&projectId=9076ac92-be42-43a2-9634-8b67c7fe93a7","52F21B0001B04D9BADE6BEA0550B5468-2025-05-22-19-23-33","","null","","images/schematic_sequence/dinner_party_scheme/dinner_party_scheme_6.png","null","",""
"","","","","","image-button-response","73","303155","0.0-12.0-1.0-1.5","52F21B0001B04D9BADE6BEA0550B5468","52F21B0001B04D9BADE6BEA0550B5468","6f995072-ce4a-4d10-bfd6-8ccb2fde06d3","9076ac92-be42-43a2-9634-8b67c7fe93a7","{""num_scrambled_semantic"":""8"",""num_scrambled_causal"":""4"",""num_scrambled_schematic"":""4"",""participantId"":""52F21B0001B04D9BADE6BEA0550B5468"",""assignmentId"":""6f995072-ce4a-4d10-bfd6-8ccb2fde06d3"",""projectId"":""9076ac92-be42-43a2-9634-8b67c7fe93a7""}","https://test12345.live/?num_scrambled_semantic=8&num_scrambled_causal=4&num_scrambled_schematic=4&participantId=52F21B0001B04D9BADE6BEA0550B5468&assignmentId=6f995072-ce4a-4d10-bfd6-8ccb2fde06d3&projectId=9076ac92-be42-43a2-9634-8b67c7fe93a7","52F21B0001B04D9BADE6BEA0550B5468-2025-05-22-19-23-33","","737","","images/schematic_sequence/dinner_party_scheme/dinner_party_scheme_6.png","0","",""
"","","","","","image-button-response","74","304964","0.0-12.0-1.0-2.5","52F21B0001B04D9BADE6BEA0550B5468","52F21B0001B04D9BADE6BEA0550B5468","6f995072-ce4a-4d10-bfd6-8ccb2fde06d3","9076ac92-be42-43a2-9634-8b67c7fe93a7","{""num_scrambled_semantic"":""8"",""num_scrambled_causal"":""4"",""num_scrambled_schematic"":""4"",""participantId"":""52F21B0001B04D9BADE6BEA0550B5468"",""assignmentId"":""6f995072-ce4a-4d10-bfd6-8ccb2fde06d3"",""projectId"":""9076ac92-be42-43a2-9634-8b67c7fe93a7""}","https://test12345.live/?num_scrambled_semantic=8&num_scrambled_causal=4&num_scrambled_schematic=4&participantId=52F21B0001B04D9BADE6BEA0550B5468&assignmentId=6f995072-ce4a-4d10-bfd6-8ccb2fde06d3&projectId=9076ac92-be42-43a2-9634-8b67c7fe93a7","52F21B0001B04D9BADE6BEA0550B5468-2025-05-22-19-23-33","","null","","[]","null","",""
"","","","","","image-button-response","75","309469","0.0-12.0-1.0-0.6","52F21B0001B04D9BADE6BEA0550B5468","52F21B0001B04D9BADE6BEA0550B5468","6f995072-ce4a-4d10-bfd6-8ccb2fde06d3","9076ac92-be42-43a2-9634-8b67c7fe93a7","{""num_scrambled_semantic"":""8"",""num_scrambled_causal"":""4"",""num_scrambled_schematic"":""4"",""participantId"":""52F21B0001B04D9BADE6BEA0550B5468"",""assignmentId"":""6f995072-ce4a-4d10-bfd6-8ccb2fde06d3"",""projectId"":""9076ac92-be42-43a2-9634-8b67c7fe93a7""}","https://test12345.live/?num_scrambled_semantic=8&num_scrambled_causal=4&num_scrambled_schematic=4&participantId=52F21B0001B04D9BADE6BEA0550B5468&assignmentId=6f995072-ce4a-4d10-bfd6-8ccb2fde06d3&projectId=9076ac92-be42-43a2-9634-8b67c7fe93a7","52F21B0001B04D9BADE6BEA0550B5468-2025-05-22-19-23-33","","null","","images/schematic_sequence/dinner_party_scheme/dinner_party_scheme_7.png","null","",""
"","","","","","image-button-response","76","313127","0.0-12.0-1.0-1.6","52F21B0001B04D9BADE6BEA0550B5468","52F21B0001B04D9BADE6BEA0550B5468","6f995072-ce4a-4d10-bfd6-8ccb2fde06d3","9076ac92-be42-43a2-9634-8b67c7fe93a7","{""num_scrambled_semantic"":""8"",""num_scrambled_causal"":""4"",""num_scrambled_schematic"":""4"",""participantId"":""52F21B0001B04D9BADE6BEA0550B5468"",""assignmentId"":""6f995072-ce4a-4d10-bfd6-8ccb2fde06d3"",""projectId"":""9076ac92-be42-43a2-9634-8b67c7fe93a7""}","https://test12345.live/?num_scrambled_semantic=8&num_scrambled_causal=4&num_scrambled_schematic=4&participantId=52F21B0001B04D9BADE6BEA0550B5468&assignmentId=6f995072-ce4a-4d10-bfd6-8ccb2fde06d3&projectId=9076ac92-be42-43a2-9634-8b67c7fe93a7","52F21B0001B04D9BADE6BEA0550B5468-2025-05-22-19-23-33","","3658","","images/schematic_sequence/dinner_party_scheme/dinner_party_scheme_7.png","0","",""
"","","","","","image-button-response","77","314941","0.0-12.0-1.0-2.6","52F21B0001B04D9BADE6BEA0550B5468","52F21B0001B04D9BADE6BEA0550B5468","6f995072-ce4a-4d10-bfd6-8ccb2fde06d3","9076ac92-be42-43a2-9634-8b67c7fe93a7","{""num_scrambled_semantic"":""8"",""num_scrambled_causal"":""4"",""num_scrambled_schematic"":""4"",""participantId"":""52F21B0001B04D9BADE6BEA0550B5468"",""assignmentId"":""6f995072-ce4a-4d10-bfd6-8ccb2fde06d3"",""projectId"":""9076ac92-be42-43a2-9634-8b67c7fe93a7""}","https://test12345.live/?num_scrambled_semantic=8&num_scrambled_causal=4&num_scrambled_schematic=4&participantId=52F21B0001B04D9BADE6BEA0550B5468&assignmentId=6f995072-ce4a-4d10-bfd6-8ccb2fde06d3&projectId=9076ac92-be42-43a2-9634-8b67c7fe93a7","52F21B0001B04D9BADE6BEA0550B5468-2025-05-22-19-23-33","","null","","[]","null","",""
"","","","","","image-button-response","78","319455","0.0-12.0-1.0-0.7","52F21B0001B04D9BADE6BEA0550B5468","52F21B0001B04D9BADE6BEA0550B5468","6f995072-ce4a-4d10-bfd6-8ccb2fde06d3","9076ac92-be42-43a2-9634-8b67c7fe93a7","{""num_scrambled_semantic"":""8"",""num_scrambled_causal"":""4"",""num_scrambled_schematic"":""4"",""participantId"":""52F21B0001B04D9BADE6BEA0550B5468"",""assignmentId"":""6f995072-ce4a-4d10-bfd6-8ccb2fde06d3"",""projectId"":""9076ac92-be42-43a2-9634-8b67c7fe93a7""}","https://test12345.live/?num_scrambled_semantic=8&num_scrambled_causal=4&num_scrambled_schematic=4&participantId=52F21B0001B04D9BADE6BEA0550B5468&assignmentId=6f995072-ce4a-4d10-bfd6-8ccb2fde06d3&projectId=9076ac92-be42-43a2-9634-8b67c7fe93a7","52F21B0001B04D9BADE6BEA0550B5468-2025-05-22-19-23-33","","null","","images/schematic_sequence/dinner_party_scheme/dinner_party_scheme_8.png","null","",""
"","","","","","image-button-response","79","323003","0.0-12.0-1.0-1.7","52F21B0001B04D9BADE6BEA0550B5468","52F21B0001B04D9BADE6BEA0550B5468","6f995072-ce4a-4d10-bfd6-8ccb2fde06d3","9076ac92-be42-43a2-9634-8b67c7fe93a7","{""num_scrambled_semantic"":""8"",""num_scrambled_causal"":""4"",""num_scrambled_schematic"":""4"",""participantId"":""52F21B0001B04D9BADE6BEA0550B5468"",""assignmentId"":""6f995072-ce4a-4d10-bfd6-8ccb2fde06d3"",""projectId"":""9076ac92-be42-43a2-9634-8b67c7fe93a7""}","https://test12345.live/?num_scrambled_semantic=8&num_scrambled_causal=4&num_scrambled_schematic=4&participantId=52F21B0001B04D9BADE6BEA0550B5468&assignmentId=6f995072-ce4a-4d10-bfd6-8ccb2fde06d3&projectId=9076ac92-be42-43a2-9634-8b67c7fe93a7","52F21B0001B04D9BADE6BEA0550B5468-2025-05-22-19-23-33","","3547","","images/schematic_sequence/dinner_party_scheme/dinner_party_scheme_8.png","0","",""
"","","","","","image-button-response","80","324813","0.0-12.0-1.0-2.7","52F21B0001B04D9BADE6BEA0550B5468","52F21B0001B04D9BADE6BEA0550B5468","6f995072-ce4a-4d10-bfd6-8ccb2fde06d3","9076ac92-be42-43a2-9634-8b67c7fe93a7","{""num_scrambled_semantic"":""8"",""num_scrambled_causal"":""4"",""num_scrambled_schematic"":""4"",""participantId"":""52F21B0001B04D9BADE6BEA0550B5468"",""assignmentId"":""6f995072-ce4a-4d10-bfd6-8ccb2fde06d3"",""projectId"":""9076ac92-be42-43a2-9634-8b67c7fe93a7""}","https://test12345.live/?num_scrambled_semantic=8&num_scrambled_causal=4&num_scrambled_schematic=4&participantId=52F21B0001B04D9BADE6BEA0550B5468&assignmentId=6f995072-ce4a-4d10-bfd6-8ccb2fde06d3&projectId=9076ac92-be42-43a2-9634-8b67c7fe93a7","52F21B0001B04D9BADE6BEA0550B5468-2025-05-22-19-23-33","","null","","[]","null","",""
"","","","","","image-button-response","81","329324","0.0-12.0-1.0-0.8","52F21B0001B04D9BADE6BEA0550B5468","52F21B0001B04D9BADE6BEA0550B5468","6f995072-ce4a-4d10-bfd6-8ccb2fde06d3","9076ac92-be42-43a2-9634-8b67c7fe93a7","{""num_scrambled_semantic"":""8"",""num_scrambled_causal"":""4"",""num_scrambled_schematic"":""4"",""participantId"":""52F21B0001B04D9BADE6BEA0550B5468"",""assignmentId"":""6f995072-ce4a-4d10-bfd6-8ccb2fde06d3"",""projectId"":""9076ac92-be42-43a2-9634-8b67c7fe93a7""}","https://test12345.live/?num_scrambled_semantic=8&num_scrambled_causal=4&num_scrambled_schematic=4&participantId=52F21B0001B04D9BADE6BEA0550B5468&assignmentId=6f995072-ce4a-4d10-bfd6-8ccb2fde06d3&projectId=9076ac92-be42-43a2-9634-8b67c7fe93a7","52F21B0001B04D9BADE6BEA0550B5468-2025-05-22-19-23-33","","null","","images/schematic_sequence/dinner_party_scheme/dinner_party_scheme_9.png","null","",""
"","","","","","image-button-response","82","330593","0.0-12.0-1.0-1.8","52F21B0001B04D9BADE6BEA0550B5468","52F21B0001B04D9BADE6BEA0550B5468","6f995072-ce4a-4d10-bfd6-8ccb2fde06d3","9076ac92-be42-43a2-9634-8b67c7fe93a7","{""num_scrambled_semantic"":""8"",""num_scrambled_causal"":""4"",""num_scrambled_schematic"":""4"",""participantId"":""52F21B0001B04D9BADE6BEA0550B5468"",""assignmentId"":""6f995072-ce4a-4d10-bfd6-8ccb2fde06d3"",""projectId"":""9076ac92-be42-43a2-9634-8b67c7fe93a7""}","https://test12345.live/?num_scrambled_semantic=8&num_scrambled_causal=4&num_scrambled_schematic=4&participantId=52F21B0001B04D9BADE6BEA0550B5468&assignmentId=6f995072-ce4a-4d10-bfd6-8ccb2fde06d3&projectId=9076ac92-be42-43a2-9634-8b67c7fe93a7","52F21B0001B04D9BADE6BEA0550B5468-2025-05-22-19-23-33","","1269","","images/schematic_sequence/dinner_party_scheme/dinner_party_scheme_9.png","0","",""
"","","","","","image-button-response","83","332401","0.0-12.0-1.0-2.8","52F21B0001B04D9BADE6BEA0550B5468","52F21B0001B04D9BADE6BEA0550B5468","6f995072-ce4a-4d10-bfd6-8ccb2fde06d3","9076ac92-be42-43a2-9634-8b67c7fe93a7","{""num_scrambled_semantic"":""8"",""num_scrambled_causal"":""4"",""num_scrambled_schematic"":""4"",""participantId"":""52F21B0001B04D9BADE6BEA0550B5468"",""assignmentId"":""6f995072-ce4a-4d10-bfd6-8ccb2fde06d3"",""projectId"":""9076ac92-be42-43a2-9634-8b67c7fe93a7""}","https://test12345.live/?num_scrambled_semantic=8&num_scrambled_causal=4&num_scrambled_schematic=4&participantId=52F21B0001B04D9BADE6BEA0550B5468&assignmentId=6f995072-ce4a-4d10-bfd6-8ccb2fde06d3&projectId=9076ac92-be42-43a2-9634-8b67c7fe93a7","52F21B0001B04D9BADE6BEA0550B5468-2025-05-22-19-23-33","","null","","[]","null","",""
"","","","","","image-button-response","84","336910","0.0-12.0-1.0-0.9","52F21B0001B04D9BADE6BEA0550B5468","52F21B0001B04D9BADE6BEA0550B5468","6f995072-ce4a-4d10-bfd6-8ccb2fde06d3","9076ac92-be42-43a2-9634-8b67c7fe93a7","{""num_scrambled_semantic"":""8"",""num_scrambled_causal"":""4"",""num_scrambled_schematic"":""4"",""participantId"":""52F21B0001B04D9BADE6BEA0550B5468"",""assignmentId"":""6f995072-ce4a-4d10-bfd6-8ccb2fde06d3"",""projectId"":""9076ac92-be42-43a2-9634-8b67c7fe93a7""}","https://test12345.live/?num_scrambled_semantic=8&num_scrambled_causal=4&num_scrambled_schematic=4&participantId=52F21B0001B04D9BADE6BEA0550B5468&assignmentId=6f995072-ce4a-4d10-bfd6-8ccb2fde06d3&projectId=9076ac92-be42-43a2-9634-8b67c7fe93a7","52F21B0001B04D9BADE6BEA0550B5468-2025-05-22-19-23-33","","null","","images/schematic_sequence/dinner_party_scheme/dinner_party_scheme_ten.png","null","",""
"","","","","","image-button-response","85","340921","0.0-12.0-1.0-1.9","52F21B0001B04D9BADE6BEA0550B5468","52F21B0001B04D9BADE6BEA0550B5468","6f995072-ce4a-4d10-bfd6-8ccb2fde06d3","9076ac92-be42-43a2-9634-8b67c7fe93a7","{""num_scrambled_semantic"":""8"",""num_scrambled_causal"":""4"",""num_scrambled_schematic"":""4"",""participantId"":""52F21B0001B04D9BADE6BEA0550B5468"",""assignmentId"":""6f995072-ce4a-4d10-bfd6-8ccb2fde06d3"",""projectId"":""9076ac92-be42-43a2-9634-8b67c7fe93a7""}","https://test12345.live/?num_scrambled_semantic=8&num_scrambled_causal=4&num_scrambled_schematic=4&participantId=52F21B0001B04D9BADE6BEA0550B5468&assignmentId=6f995072-ce4a-4d10-bfd6-8ccb2fde06d3&projectId=9076ac92-be42-43a2-9634-8b67c7fe93a7","52F21B0001B04D9BADE6BEA0550B5468-2025-05-22-19-23-33","","null","","images/schematic_sequence/dinner_party_scheme/dinner_party_scheme_ten.png","null","",""
"","","","","","image-button-response","86","342728","0.0-12.0-1.0-2.9","52F21B0001B04D9BADE6BEA0550B5468","52F21B0001B04D9BADE6BEA0550B5468","6f995072-ce4a-4d10-bfd6-8ccb2fde06d3","9076ac92-be42-43a2-9634-8b67c7fe93a7","{""num_scrambled_semantic"":""8"",""num_scrambled_causal"":""4"",""num_scrambled_schematic"":""4"",""participantId"":""52F21B0001B04D9BADE6BEA0550B5468"",""assignmentId"":""6f995072-ce4a-4d10-bfd6-8ccb2fde06d3"",""projectId"":""9076ac92-be42-43a2-9634-8b67c7fe93a7""}","https://test12345.live/?num_scrambled_semantic=8&num_scrambled_causal=4&num_scrambled_schematic=4&participantId=52F21B0001B04D9BADE6BEA0550B5468&assignmentId=6f995072-ce4a-4d10-bfd6-8ccb2fde06d3&projectId=9076ac92-be42-43a2-9634-8b67c7fe93a7","52F21B0001B04D9BADE6BEA0550B5468-2025-05-22-19-23-33","","null","","[]","null","",""
"","","","","","html-audio-response","87","382032","0.0-13.0","52F21B0001B04D9BADE6BEA0550B5468","52F21B0001B04D9BADE6BEA0550B5468","6f995072-ce4a-4d10-bfd6-8ccb2fde06d3","9076ac92-be42-43a2-9634-8b67c7fe93a7","{""num_scrambled_semantic"":""8"",""num_scrambled_causal"":""4"",""num_scrambled_schematic"":""4"",""participantId"":""52F21B0001B04D9BADE6BEA0550B5468"",""assignmentId"":""6f995072-ce4a-4d10-bfd6-8ccb2fde06d3"",""projectId"":""9076ac92-be42-43a2-9634-8b67c7fe93a7""}","https://test12345.live/?num_scrambled_semantic=8&num_scrambled_causal=4&num_scrambled_schematic=4&participantId=52F21B0001B04D9BADE6BEA0550B5468&assignmentId=6f995072-ce4a-4d10-bfd6-8ccb2fde06d3&projectId=9076ac92-be42-43a2-9634-8b67c7fe93a7","52F21B0001B04D9BADE6BEA0550B5468-2025-05-22-19-23-33","","37715","","[""<span style=\""color: red; font-size: 24px\""> NOW RECORDING</span><p>Please say out loud all the images you saw, in the exact order you saw them. Try to recall as many images as you can, but remember: getting the order right is more important than the number of images you recall.</p>""]","","2","dinner_party_scheme"
"","","","","","image-button-response","88","388043","0.0-14.0-0.0","52F21B0001B04D9BADE6BEA0550B5468","52F21B0001B04D9BADE6BEA0550B5468","6f995072-ce4a-4d10-bfd6-8ccb2fde06d3","9076ac92-be42-43a2-9634-8b67c7fe93a7","{""num_scrambled_semantic"":""8"",""num_scrambled_causal"":""4"",""num_scrambled_schematic"":""4"",""participantId"":""52F21B0001B04D9BADE6BEA0550B5468"",""assignmentId"":""6f995072-ce4a-4d10-bfd6-8ccb2fde06d3"",""projectId"":""9076ac92-be42-43a2-9634-8b67c7fe93a7""}","https://test12345.live/?num_scrambled_semantic=8&num_scrambled_causal=4&num_scrambled_schematic=4&participantId=52F21B0001B04D9BADE6BEA0550B5468&assignmentId=6f995072-ce4a-4d10-bfd6-8ccb2fde06d3&projectId=9076ac92-be42-43a2-9634-8b67c7fe93a7","52F21B0001B04D9BADE6BEA0550B5468-2025-05-22-19-23-33","","null","","images/semantic_sequence/creative_activities_semantic/creative_activities_semantic_0.png","null","",""
"","","","","","image-button-response","89","392549","0.0-14.0-1.0-0.0","52F21B0001B04D9BADE6BEA0550B5468","52F21B0001B04D9BADE6BEA0550B5468","6f995072-ce4a-4d10-bfd6-8ccb2fde06d3","9076ac92-be42-43a2-9634-8b67c7fe93a7","{""num_scrambled_semantic"":""8"",""num_scrambled_causal"":""4"",""num_scrambled_schematic"":""4"",""participantId"":""52F21B0001B04D9BADE6BEA0550B5468"",""assignmentId"":""6f995072-ce4a-4d10-bfd6-8ccb2fde06d3"",""projectId"":""9076ac92-be42-43a2-9634-8b67c7fe93a7""}","https://test12345.live/?num_scrambled_semantic=8&num_scrambled_causal=4&num_scrambled_schematic=4&participantId=52F21B0001B04D9BADE6BEA0550B5468&assignmentId=6f995072-ce4a-4d10-bfd6-8ccb2fde06d3&projectId=9076ac92-be42-43a2-9634-8b67c7fe93a7","52F21B0001B04D9BADE6BEA0550B5468-2025-05-22-19-23-33","","null","","images/semantic_sequence/creative_activities_semantic/creative_activities_semantic_5.png","null","",""
"","","","","","image-button-response","90","394238","0.0-14.0-1.0-1.0","52F21B0001B04D9BADE6BEA0550B5468","52F21B0001B04D9BADE6BEA0550B5468","6f995072-ce4a-4d10-bfd6-8ccb2fde06d3","9076ac92-be42-43a2-9634-8b67c7fe93a7","{""num_scrambled_semantic"":""8"",""num_scrambled_causal"":""4"",""num_scrambled_schematic"":""4"",""participantId"":""52F21B0001B04D9BADE6BEA0550B5468"",""assignmentId"":""6f995072-ce4a-4d10-bfd6-8ccb2fde06d3"",""projectId"":""9076ac92-be42-43a2-9634-8b67c7fe93a7""}","https://test12345.live/?num_scrambled_semantic=8&num_scrambled_causal=4&num_scrambled_schematic=4&participantId=52F21B0001B04D9BADE6BEA0550B5468&assignmentId=6f995072-ce4a-4d10-bfd6-8ccb2fde06d3&projectId=9076ac92-be42-43a2-9634-8b67c7fe93a7","52F21B0001B04D9BADE6BEA0550B5468-2025-05-22-19-23-33","","1687","","images/semantic_sequence/creative_activities_semantic/creative_activities_semantic_5.png","0","",""
"","","","","","image-button-response","91","396043","0.0-14.0-1.0-2.0","52F21B0001B04D9BADE6BEA0550B5468","52F21B0001B04D9BADE6BEA0550B5468","6f995072-ce4a-4d10-bfd6-8ccb2fde06d3","9076ac92-be42-43a2-9634-8b67c7fe93a7","{""num_scrambled_semantic"":""8"",""num_scrambled_causal"":""4"",""num_scrambled_schematic"":""4"",""participantId"":""52F21B0001B04D9BADE6BEA0550B5468"",""assignmentId"":""6f995072-ce4a-4d10-bfd6-8ccb2fde06d3"",""projectId"":""9076ac92-be42-43a2-9634-8b67c7fe93a7""}","https://test12345.live/?num_scrambled_semantic=8&num_scrambled_causal=4&num_scrambled_schematic=4&participantId=52F21B0001B04D9BADE6BEA0550B5468&assignmentId=6f995072-ce4a-4d10-bfd6-8ccb2fde06d3&projectId=9076ac92-be42-43a2-9634-8b67c7fe93a7","52F21B0001B04D9BADE6BEA0550B5468-2025-05-22-19-23-33","","null","","[]","null","",""
"","","","","","image-button-response","92","400549","0.0-14.0-1.0-0.1","52F21B0001B04D9BADE6BEA0550B5468","52F21B0001B04D9BADE6BEA0550B5468","6f995072-ce4a-4d10-bfd6-8ccb2fde06d3","9076ac92-be42-43a2-9634-8b67c7fe93a7","{""num_scrambled_semantic"":""8"",""num_scrambled_causal"":""4"",""num_scrambled_schematic"":""4"",""participantId"":""52F21B0001B04D9BADE6BEA0550B5468"",""assignmentId"":""6f995072-ce4a-4d10-bfd6-8ccb2fde06d3"",""projectId"":""9076ac92-be42-43a2-9634-8b67c7fe93a7""}","https://test12345.live/?num_scrambled_semantic=8&num_scrambled_causal=4&num_scrambled_schematic=4&participantId=52F21B0001B04D9BADE6BEA0550B5468&assignmentId=6f995072-ce4a-4d10-bfd6-8ccb2fde06d3&projectId=9076ac92-be42-43a2-9634-8b67c7fe93a7","52F21B0001B04D9BADE6BEA0550B5468-2025-05-22-19-23-33","","null","","images/semantic_sequence/creative_activities_semantic/creative_activities_semantic_4.png","null","",""
"","","","","","image-button-response","93","401584","0.0-14.0-1.0-1.1","52F21B0001B04D9BADE6BEA0550B5468","52F21B0001B04D9BADE6BEA0550B5468","6f995072-ce4a-4d10-bfd6-8ccb2fde06d3","9076ac92-be42-43a2-9634-8b67c7fe93a7","{""num_scrambled_semantic"":""8"",""num_scrambled_causal"":""4"",""num_scrambled_schematic"":""4"",""participantId"":""52F21B0001B04D9BADE6BEA0550B5468"",""assignmentId"":""6f995072-ce4a-4d10-bfd6-8ccb2fde06d3"",""projectId"":""9076ac92-be42-43a2-9634-8b67c7fe93a7""}","https://test12345.live/?num_scrambled_semantic=8&num_scrambled_causal=4&num_scrambled_schematic=4&participantId=52F21B0001B04D9BADE6BEA0550B5468&assignmentId=6f995072-ce4a-4d10-bfd6-8ccb2fde06d3&projectId=9076ac92-be42-43a2-9634-8b67c7fe93a7","52F21B0001B04D9BADE6BEA0550B5468-2025-05-22-19-23-33","","1034","","images/semantic_sequence/creative_activities_semantic/creative_activities_semantic_4.png","0","",""
"","","","","","image-button-response","94","403388","0.0-14.0-1.0-2.1","52F21B0001B04D9BADE6BEA0550B5468","52F21B0001B04D9BADE6BEA0550B5468","6f995072-ce4a-4d10-bfd6-8ccb2fde06d3","9076ac92-be42-43a2-9634-8b67c7fe93a7","{""num_scrambled_semantic"":""8"",""num_scrambled_causal"":""4"",""num_scrambled_schematic"":""4"",""participantId"":""52F21B0001B04D9BADE6BEA0550B5468"",""assignmentId"":""6f995072-ce4a-4d10-bfd6-8ccb2fde06d3"",""projectId"":""9076ac92-be42-43a2-9634-8b67c7fe93a7""}","https://test12345.live/?num_scrambled_semantic=8&num_scrambled_causal=4&num_scrambled_schematic=4&participantId=52F21B0001B04D9BADE6BEA0550B5468&assignmentId=6f995072-ce4a-4d10-bfd6-8ccb2fde06d3&projectId=9076ac92-be42-43a2-9634-8b67c7fe93a7","52F21B0001B04D9BADE6BEA0550B5468-2025-05-22-19-23-33","","null","","[]","null","",""
"","","","","","image-button-response","95","407895","0.0-14.0-1.0-0.2","52F21B0001B04D9BADE6BEA0550B5468","52F21B0001B04D9BADE6BEA0550B5468","6f995072-ce4a-4d10-bfd6-8ccb2fde06d3","9076ac92-be42-43a2-9634-8b67c7fe93a7","{""num_scrambled_semantic"":""8"",""num_scrambled_causal"":""4"",""num_scrambled_schematic"":""4"",""participantId"":""52F21B0001B04D9BADE6BEA0550B5468"",""assignmentId"":""6f995072-ce4a-4d10-bfd6-8ccb2fde06d3"",""projectId"":""9076ac92-be42-43a2-9634-8b67c7fe93a7""}","https://test12345.live/?num_scrambled_semantic=8&num_scrambled_causal=4&num_scrambled_schematic=4&participantId=52F21B0001B04D9BADE6BEA0550B5468&assignmentId=6f995072-ce4a-4d10-bfd6-8ccb2fde06d3&projectId=9076ac92-be42-43a2-9634-8b67c7fe93a7","52F21B0001B04D9BADE6BEA0550B5468-2025-05-22-19-23-33","","null","","images/semantic_sequence/creative_activities_semantic/creative_activities_semantic_2.png","null","",""
"","","","","","image-button-response","96","408564","0.0-14.0-1.0-1.2","52F21B0001B04D9BADE6BEA0550B5468","52F21B0001B04D9BADE6BEA0550B5468","6f995072-ce4a-4d10-bfd6-8ccb2fde06d3","9076ac92-be42-43a2-9634-8b67c7fe93a7","{""num_scrambled_semantic"":""8"",""num_scrambled_causal"":""4"",""num_scrambled_schematic"":""4"",""participantId"":""52F21B0001B04D9BADE6BEA0550B5468"",""assignmentId"":""6f995072-ce4a-4d10-bfd6-8ccb2fde06d3"",""projectId"":""9076ac92-be42-43a2-9634-8b67c7fe93a7""}","https://test12345.live/?num_scrambled_semantic=8&num_scrambled_causal=4&num_scrambled_schematic=4&participantId=52F21B0001B04D9BADE6BEA0550B5468&assignmentId=6f995072-ce4a-4d10-bfd6-8ccb2fde06d3&projectId=9076ac92-be42-43a2-9634-8b67c7fe93a7","52F21B0001B04D9BADE6BEA0550B5468-2025-05-22-19-23-33","","667","","images/semantic_sequence/creative_activities_semantic/creative_activities_semantic_2.png","0","",""
"","","","","","image-button-response","97","410375","0.0-14.0-1.0-2.2","52F21B0001B04D9BADE6BEA0550B5468","52F21B0001B04D9BADE6BEA0550B5468","6f995072-ce4a-4d10-bfd6-8ccb2fde06d3","9076ac92-be42-43a2-9634-8b67c7fe93a7","{""num_scrambled_semantic"":""8"",""num_scrambled_causal"":""4"",""num_scrambled_schematic"":""4"",""participantId"":""52F21B0001B04D9BADE6BEA0550B5468"",""assignmentId"":""6f995072-ce4a-4d10-bfd6-8ccb2fde06d3"",""projectId"":""9076ac92-be42-43a2-9634-8b67c7fe93a7""}","https://test12345.live/?num_scrambled_semantic=8&num_scrambled_causal=4&num_scrambled_schematic=4&participantId=52F21B0001B04D9BADE6BEA0550B5468&assignmentId=6f995072-ce4a-4d10-bfd6-8ccb2fde06d3&projectId=9076ac92-be42-43a2-9634-8b67c7fe93a7","52F21B0001B04D9BADE6BEA0550B5468-2025-05-22-19-23-33","","null","","[]","null","",""
"","","","","","image-button-response","98","414885","0.0-14.0-1.0-0.3","52F21B0001B04D9BADE6BEA0550B5468","52F21B0001B04D9BADE6BEA0550B5468","6f995072-ce4a-4d10-bfd6-8ccb2fde06d3","9076ac92-be42-43a2-9634-8b67c7fe93a7","{""num_scrambled_semantic"":""8"",""num_scrambled_causal"":""4"",""num_scrambled_schematic"":""4"",""participantId"":""52F21B0001B04D9BADE6BEA0550B5468"",""assignmentId"":""6f995072-ce4a-4d10-bfd6-8ccb2fde06d3"",""projectId"":""9076ac92-be42-43a2-9634-8b67c7fe93a7""}","https://test12345.live/?num_scrambled_semantic=8&num_scrambled_causal=4&num_scrambled_schematic=4&participantId=52F21B0001B04D9BADE6BEA0550B5468&assignmentId=6f995072-ce4a-4d10-bfd6-8ccb2fde06d3&projectId=9076ac92-be42-43a2-9634-8b67c7fe93a7","52F21B0001B04D9BADE6BEA0550B5468-2025-05-22-19-23-33","","null","","images/semantic_sequence/creative_activities_semantic/creative_activities_semantic_ten.png","null","",""
"","","","","","image-button-response","99","418233","0.0-14.0-1.0-1.3","52F21B0001B04D9BADE6BEA0550B5468","52F21B0001B04D9BADE6BEA0550B5468","6f995072-ce4a-4d10-bfd6-8ccb2fde06d3","9076ac92-be42-43a2-9634-8b67c7fe93a7","{""num_scrambled_semantic"":""8"",""num_scrambled_causal"":""4"",""num_scrambled_schematic"":""4"",""participantId"":""52F21B0001B04D9BADE6BEA0550B5468"",""assignmentId"":""6f995072-ce4a-4d10-bfd6-8ccb2fde06d3"",""projectId"":""9076ac92-be42-43a2-9634-8b67c7fe93a7""}","https://test12345.live/?num_scrambled_semantic=8&num_scrambled_causal=4&num_scrambled_schematic=4&participantId=52F21B0001B04D9BADE6BEA0550B5468&assignmentId=6f995072-ce4a-4d10-bfd6-8ccb2fde06d3&projectId=9076ac92-be42-43a2-9634-8b67c7fe93a7","52F21B0001B04D9BADE6BEA0550B5468-2025-05-22-19-23-33","","3346","","images/semantic_sequence/creative_activities_semantic/creative_activities_semantic_ten.png","0","",""
"","","","","","image-button-response","100","420037","0.0-14.0-1.0-2.3","52F21B0001B04D9BADE6BEA0550B5468","52F21B0001B04D9BADE6BEA0550B5468","6f995072-ce4a-4d10-bfd6-8ccb2fde06d3","9076ac92-be42-43a2-9634-8b67c7fe93a7","{""num_scrambled_semantic"":""8"",""num_scrambled_causal"":""4"",""num_scrambled_schematic"":""4"",""participantId"":""52F21B0001B04D9BADE6BEA0550B5468"",""assignmentId"":""6f995072-ce4a-4d10-bfd6-8ccb2fde06d3"",""projectId"":""9076ac92-be42-43a2-9634-8b67c7fe93a7""}","https://test12345.live/?num_scrambled_semantic=8&num_scrambled_causal=4&num_scrambled_schematic=4&participantId=52F21B0001B04D9BADE6BEA0550B5468&assignmentId=6f995072-ce4a-4d10-bfd6-8ccb2fde06d3&projectId=9076ac92-be42-43a2-9634-8b67c7fe93a7","52F21B0001B04D9BADE6BEA0550B5468-2025-05-22-19-23-33","","null","","[]","null","",""
"","","","","","image-button-response","101","424553","0.0-14.0-1.0-0.4","52F21B0001B04D9BADE6BEA0550B5468","52F21B0001B04D9BADE6BEA0550B5468","6f995072-ce4a-4d10-bfd6-8ccb2fde06d3","9076ac92-be42-43a2-9634-8b67c7fe93a7","{""num_scrambled_semantic"":""8"",""num_scrambled_causal"":""4"",""num_scrambled_schematic"":""4"",""participantId"":""52F21B0001B04D9BADE6BEA0550B5468"",""assignmentId"":""6f995072-ce4a-4d10-bfd6-8ccb2fde06d3"",""projectId"":""9076ac92-be42-43a2-9634-8b67c7fe93a7""}","https://test12345.live/?num_scrambled_semantic=8&num_scrambled_causal=4&num_scrambled_schematic=4&participantId=52F21B0001B04D9BADE6BEA0550B5468&assignmentId=6f995072-ce4a-4d10-bfd6-8ccb2fde06d3&projectId=9076ac92-be42-43a2-9634-8b67c7fe93a7","52F21B0001B04D9BADE6BEA0550B5468-2025-05-22-19-23-33","","null","","images/semantic_sequence/creative_activities_semantic/creative_activities_semantic_6.png","null","",""
"","","","","","image-button-response","102","426573","0.0-14.0-1.0-1.4","52F21B0001B04D9BADE6BEA0550B5468","52F21B0001B04D9BADE6BEA0550B5468","6f995072-ce4a-4d10-bfd6-8ccb2fde06d3","9076ac92-be42-43a2-9634-8b67c7fe93a7","{""num_scrambled_semantic"":""8"",""num_scrambled_causal"":""4"",""num_scrambled_schematic"":""4"",""participantId"":""52F21B0001B04D9BADE6BEA0550B5468"",""assignmentId"":""6f995072-ce4a-4d10-bfd6-8ccb2fde06d3"",""projectId"":""9076ac92-be42-43a2-9634-8b67c7fe93a7""}","https://test12345.live/?num_scrambled_semantic=8&num_scrambled_causal=4&num_scrambled_schematic=4&participantId=52F21B0001B04D9BADE6BEA0550B5468&assignmentId=6f995072-ce4a-4d10-bfd6-8ccb2fde06d3&projectId=9076ac92-be42-43a2-9634-8b67c7fe93a7","52F21B0001B04D9BADE6BEA0550B5468-2025-05-22-19-23-33","","2019","","images/semantic_sequence/creative_activities_semantic/creative_activities_semantic_6.png","0","",""
"","","","","","image-button-response","103","428388","0.0-14.0-1.0-2.4","52F21B0001B04D9BADE6BEA0550B5468","52F21B0001B04D9BADE6BEA0550B5468","6f995072-ce4a-4d10-bfd6-8ccb2fde06d3","9076ac92-be42-43a2-9634-8b67c7fe93a7","{""num_scrambled_semantic"":""8"",""num_scrambled_causal"":""4"",""num_scrambled_schematic"":""4"",""participantId"":""52F21B0001B04D9BADE6BEA0550B5468"",""assignmentId"":""6f995072-ce4a-4d10-bfd6-8ccb2fde06d3"",""projectId"":""9076ac92-be42-43a2-9634-8b67c7fe93a7""}","https://test12345.live/?num_scrambled_semantic=8&num_scrambled_causal=4&num_scrambled_schematic=4&participantId=52F21B0001B04D9BADE6BEA0550B5468&assignmentId=6f995072-ce4a-4d10-bfd6-8ccb2fde06d3&projectId=9076ac92-be42-43a2-9634-8b67c7fe93a7","52F21B0001B04D9BADE6BEA0550B5468-2025-05-22-19-23-33","","null","","[]","null","",""
"","","","","","image-button-response","104","432903","0.0-14.0-1.0-0.5","52F21B0001B04D9BADE6BEA0550B5468","52F21B0001B04D9BADE6BEA0550B5468","6f995072-ce4a-4d10-bfd6-8ccb2fde06d3","9076ac92-be42-43a2-9634-8b67c7fe93a7","{""num_scrambled_semantic"":""8"",""num_scrambled_causal"":""4"",""num_scrambled_schematic"":""4"",""participantId"":""52F21B0001B04D9BADE6BEA0550B5468"",""assignmentId"":""6f995072-ce4a-4d10-bfd6-8ccb2fde06d3"",""projectId"":""9076ac92-be42-43a2-9634-8b67c7fe93a7""}","https://test12345.live/?num_scrambled_semantic=8&num_scrambled_causal=4&num_scrambled_schematic=4&participantId=52F21B0001B04D9BADE6BEA0550B5468&assignmentId=6f995072-ce4a-4d10-bfd6-8ccb2fde06d3&projectId=9076ac92-be42-43a2-9634-8b67c7fe93a7","52F21B0001B04D9BADE6BEA0550B5468-2025-05-22-19-23-33","","null","","images/semantic_sequence/creative_activities_semantic/creative_activities_semantic_8.png","null","",""
"","","","","","image-button-response","105","433997","0.0-14.0-1.0-1.5","52F21B0001B04D9BADE6BEA0550B5468","52F21B0001B04D9BADE6BEA0550B5468","6f995072-ce4a-4d10-bfd6-8ccb2fde06d3","9076ac92-be42-43a2-9634-8b67c7fe93a7","{""num_scrambled_semantic"":""8"",""num_scrambled_causal"":""4"",""num_scrambled_schematic"":""4"",""participantId"":""52F21B0001B04D9BADE6BEA0550B5468"",""assignmentId"":""6f995072-ce4a-4d10-bfd6-8ccb2fde06d3"",""projectId"":""9076ac92-be42-43a2-9634-8b67c7fe93a7""}","https://test12345.live/?num_scrambled_semantic=8&num_scrambled_causal=4&num_scrambled_schematic=4&participantId=52F21B0001B04D9BADE6BEA0550B5468&assignmentId=6f995072-ce4a-4d10-bfd6-8ccb2fde06d3&projectId=9076ac92-be42-43a2-9634-8b67c7fe93a7","52F21B0001B04D9BADE6BEA0550B5468-2025-05-22-19-23-33","","1093","","images/semantic_sequence/creative_activities_semantic/creative_activities_semantic_8.png","0","",""
"","","","","","image-button-response","106","435807","0.0-14.0-1.0-2.5","52F21B0001B04D9BADE6BEA0550B5468","52F21B0001B04D9BADE6BEA0550B5468","6f995072-ce4a-4d10-bfd6-8ccb2fde06d3","9076ac92-be42-43a2-9634-8b67c7fe93a7","{""num_scrambled_semantic"":""8"",""num_scrambled_causal"":""4"",""num_scrambled_schematic"":""4"",""participantId"":""52F21B0001B04D9BADE6BEA0550B5468"",""assignmentId"":""6f995072-ce4a-4d10-bfd6-8ccb2fde06d3"",""projectId"":""9076ac92-be42-43a2-9634-8b67c7fe93a7""}","https://test12345.live/?num_scrambled_semantic=8&num_scrambled_causal=4&num_scrambled_schematic=4&participantId=52F21B0001B04D9BADE6BEA0550B5468&assignmentId=6f995072-ce4a-4d10-bfd6-8ccb2fde06d3&projectId=9076ac92-be42-43a2-9634-8b67c7fe93a7","52F21B0001B04D9BADE6BEA0550B5468-2025-05-22-19-23-33","","null","","[]","null","",""
"","","","","","image-button-response","107","440323","0.0-14.0-1.0-0.6","52F21B0001B04D9BADE6BEA0550B5468","52F21B0001B04D9BADE6BEA0550B5468","6f995072-ce4a-4d10-bfd6-8ccb2fde06d3","9076ac92-be42-43a2-9634-8b67c7fe93a7","{""num_scrambled_semantic"":""8"",""num_scrambled_causal"":""4"",""num_scrambled_schematic"":""4"",""participantId"":""52F21B0001B04D9BADE6BEA0550B5468"",""assignmentId"":""6f995072-ce4a-4d10-bfd6-8ccb2fde06d3"",""projectId"":""9076ac92-be42-43a2-9634-8b67c7fe93a7""}","https://test12345.live/?num_scrambled_semantic=8&num_scrambled_causal=4&num_scrambled_schematic=4&participantId=52F21B0001B04D9BADE6BEA0550B5468&assignmentId=6f995072-ce4a-4d10-bfd6-8ccb2fde06d3&projectId=9076ac92-be42-43a2-9634-8b67c7fe93a7","52F21B0001B04D9BADE6BEA0550B5468-2025-05-22-19-23-33","","null","","images/semantic_sequence/creative_activities_semantic/creative_activities_semantic_7.png","null","",""
"","","","","","image-button-response","108","442084","0.0-14.0-1.0-1.6","52F21B0001B04D9BADE6BEA0550B5468","52F21B0001B04D9BADE6BEA0550B5468","6f995072-ce4a-4d10-bfd6-8ccb2fde06d3","9076ac92-be42-43a2-9634-8b67c7fe93a7","{""num_scrambled_semantic"":""8"",""num_scrambled_causal"":""4"",""num_scrambled_schematic"":""4"",""participantId"":""52F21B0001B04D9BADE6BEA0550B5468"",""assignmentId"":""6f995072-ce4a-4d10-bfd6-8ccb2fde06d3"",""projectId"":""9076ac92-be42-43a2-9634-8b67c7fe93a7""}","https://test12345.live/?num_scrambled_semantic=8&num_scrambled_causal=4&num_scrambled_schematic=4&participantId=52F21B0001B04D9BADE6BEA0550B5468&assignmentId=6f995072-ce4a-4d10-bfd6-8ccb2fde06d3&projectId=9076ac92-be42-43a2-9634-8b67c7fe93a7","52F21B0001B04D9BADE6BEA0550B5468-2025-05-22-19-23-33","","1759","","images/semantic_sequence/creative_activities_semantic/creative_activities_semantic_7.png","0","",""
"","","","","","image-button-response","109","443897","0.0-14.0-1.0-2.6","52F21B0001B04D9BADE6BEA0550B5468","52F21B0001B04D9BADE6BEA0550B5468","6f995072-ce4a-4d10-bfd6-8ccb2fde06d3","9076ac92-be42-43a2-9634-8b67c7fe93a7","{""num_scrambled_semantic"":""8"",""num_scrambled_causal"":""4"",""num_scrambled_schematic"":""4"",""participantId"":""52F21B0001B04D9BADE6BEA0550B5468"",""assignmentId"":""6f995072-ce4a-4d10-bfd6-8ccb2fde06d3"",""projectId"":""9076ac92-be42-43a2-9634-8b67c7fe93a7""}","https://test12345.live/?num_scrambled_semantic=8&num_scrambled_causal=4&num_scrambled_schematic=4&participantId=52F21B0001B04D9BADE6BEA0550B5468&assignmentId=6f995072-ce4a-4d10-bfd6-8ccb2fde06d3&projectId=9076ac92-be42-43a2-9634-8b67c7fe93a7","52F21B0001B04D9BADE6BEA0550B5468-2025-05-22-19-23-33","","null","","[]","null","",""
"","","","","","image-button-response","110","448409","0.0-14.0-1.0-0.7","52F21B0001B04D9BADE6BEA0550B5468","52F21B0001B04D9BADE6BEA0550B5468","6f995072-ce4a-4d10-bfd6-8ccb2fde06d3","9076ac92-be42-43a2-9634-8b67c7fe93a7","{""num_scrambled_semantic"":""8"",""num_scrambled_causal"":""4"",""num_scrambled_schematic"":""4"",""participantId"":""52F21B0001B04D9BADE6BEA0550B5468"",""assignmentId"":""6f995072-ce4a-4d10-bfd6-8ccb2fde06d3"",""projectId"":""9076ac92-be42-43a2-9634-8b67c7fe93a7""}","https://test12345.live/?num_scrambled_semantic=8&num_scrambled_causal=4&num_scrambled_schematic=4&participantId=52F21B0001B04D9BADE6BEA0550B5468&assignmentId=6f995072-ce4a-4d10-bfd6-8ccb2fde06d3&projectId=9076ac92-be42-43a2-9634-8b67c7fe93a7","52F21B0001B04D9BADE6BEA0550B5468-2025-05-22-19-23-33","","null","","images/semantic_sequence/creative_activities_semantic/creative_activities_semantic_9.png","null","",""
"","","","","","image-button-response","111","449998","0.0-14.0-1.0-1.7","52F21B0001B04D9BADE6BEA0550B5468","52F21B0001B04D9BADE6BEA0550B5468","6f995072-ce4a-4d10-bfd6-8ccb2fde06d3","9076ac92-be42-43a2-9634-8b67c7fe93a7","{""num_scrambled_semantic"":""8"",""num_scrambled_causal"":""4"",""num_scrambled_schematic"":""4"",""participantId"":""52F21B0001B04D9BADE6BEA0550B5468"",""assignmentId"":""6f995072-ce4a-4d10-bfd6-8ccb2fde06d3"",""projectId"":""9076ac92-be42-43a2-9634-8b67c7fe93a7""}","https://test12345.live/?num_scrambled_semantic=8&num_scrambled_causal=4&num_scrambled_schematic=4&participantId=52F21B0001B04D9BADE6BEA0550B5468&assignmentId=6f995072-ce4a-4d10-bfd6-8ccb2fde06d3&projectId=9076ac92-be42-43a2-9634-8b67c7fe93a7","52F21B0001B04D9BADE6BEA0550B5468-2025-05-22-19-23-33","","1588","","images/semantic_sequence/creative_activities_semantic/creative_activities_semantic_9.png","0","",""
"","","","","","image-button-response","112","451803","0.0-14.0-1.0-2.7","52F21B0001B04D9BADE6BEA0550B5468","52F21B0001B04D9BADE6BEA0550B5468","6f995072-ce4a-4d10-bfd6-8ccb2fde06d3","9076ac92-be42-43a2-9634-8b67c7fe93a7","{""num_scrambled_semantic"":""8"",""num_scrambled_causal"":""4"",""num_scrambled_schematic"":""4"",""participantId"":""52F21B0001B04D9BADE6BEA0550B5468"",""assignmentId"":""6f995072-ce4a-4d10-bfd6-8ccb2fde06d3"",""projectId"":""9076ac92-be42-43a2-9634-8b67c7fe93a7""}","https://test12345.live/?num_scrambled_semantic=8&num_scrambled_causal=4&num_scrambled_schematic=4&participantId=52F21B0001B04D9BADE6BEA0550B5468&assignmentId=6f995072-ce4a-4d10-bfd6-8ccb2fde06d3&projectId=9076ac92-be42-43a2-9634-8b67c7fe93a7","52F21B0001B04D9BADE6BEA0550B5468-2025-05-22-19-23-33","","null","","[]","null","",""
"","","","","","image-button-response","113","456316","0.0-14.0-1.0-0.8","52F21B0001B04D9BADE6BEA0550B5468","52F21B0001B04D9BADE6BEA0550B5468","6f995072-ce4a-4d10-bfd6-8ccb2fde06d3","9076ac92-be42-43a2-9634-8b67c7fe93a7","{""num_scrambled_semantic"":""8"",""num_scrambled_causal"":""4"",""num_scrambled_schematic"":""4"",""participantId"":""52F21B0001B04D9BADE6BEA0550B5468"",""assignmentId"":""6f995072-ce4a-4d10-bfd6-8ccb2fde06d3"",""projectId"":""9076ac92-be42-43a2-9634-8b67c7fe93a7""}","https://test12345.live/?num_scrambled_semantic=8&num_scrambled_causal=4&num_scrambled_schematic=4&participantId=52F21B0001B04D9BADE6BEA0550B5468&assignmentId=6f995072-ce4a-4d10-bfd6-8ccb2fde06d3&projectId=9076ac92-be42-43a2-9634-8b67c7fe93a7","52F21B0001B04D9BADE6BEA0550B5468-2025-05-22-19-23-33","","null","","images/semantic_sequence/creative_activities_semantic/creative_activities_semantic_1.png","null","",""
