"success","timeout","failed_images","failed_audio","failed_video","trial_type","trial_index","time_elapsed","internal_node_id","subject","subject_id","study_id","session_id","urlvar","current_url","audio_id","view_history","rt","device_id","stimulus","response","estimated_stimulus_onset","seq_name"
"true","false","[]","[]","[]","preload","0","1282","0.0-0.0","53BE65A0D9D045D693E666AD3994ADAD","53BE65A0D9D045D693E666AD3994ADAD","e592bfe4-e59b-4184-ba8c-cffb5c4fec1d","051c06f1-75cc-4548-856d-4923ddaba0dc","{""num_scrambled_semantic"":""8"",""num_scrambled_causal"":""4"",""num_scrambled_schematic"":""4"",""participantId"":""53BE65A0D9D045D693E666AD3994ADAD"",""assignmentId"":""e592bfe4-e59b-4184-ba8c-cffb5c4fec1d"",""projectId"":""051c06f1-75cc-4548-856d-4923ddaba0dc""}","https://test12345.live/?num_scrambled_semantic=8&num_scrambled_causal=4&num_scrambled_schematic=4&participantId=53BE65A0D9D045D693E666AD3994ADAD&assignmentId=e592bfe4-e59b-4184-ba8c-cffb5c4fec1d&projectId=051c06f1-75cc-4548-856d-4923ddaba0dc","53BE65A0D9D045D693E666AD3994ADAD-2025-05-15-18-53-39","","","","","","",""
"","","","","","instructions","1","9446","0.0-1.0","53BE65A0D9D045D693E666AD3994ADAD","53BE65A0D9D045D693E666AD3994ADAD","e592bfe4-e59b-4184-ba8c-cffb5c4fec1d","051c06f1-75cc-4548-856d-4923ddaba0dc","{""num_scrambled_semantic"":""8"",""num_scrambled_causal"":""4"",""num_scrambled_schematic"":""4"",""participantId"":""53BE65A0D9D045D693E666AD3994ADAD"",""assignmentId"":""e592bfe4-e59b-4184-ba8c-cffb5c4fec1d"",""projectId"":""051c06f1-75cc-4548-856d-4923ddaba0dc""}","https://test12345.live/?num_scrambled_semantic=8&num_scrambled_causal=4&num_scrambled_schematic=4&participantId=53BE65A0D9D045D693E666AD3994ADAD&assignmentId=e592bfe4-e59b-4184-ba8c-cffb5c4fec1d&projectId=051c06f1-75cc-4548-856d-4923ddaba0dc","53BE65A0D9D045D693E666AD3994ADAD-2025-05-15-18-53-39","[{""page_index"":0,""viewing_time"":8164}]","8164","","","","",""
"","","","","","instructions","2","19293","0.0-2.0","53BE65A0D9D045D693E666AD3994ADAD","53BE65A0D9D045D693E666AD3994ADAD","e592bfe4-e59b-4184-ba8c-cffb5c4fec1d","051c06f1-75cc-4548-856d-4923ddaba0dc","{""num_scrambled_semantic"":""8"",""num_scrambled_causal"":""4"",""num_scrambled_schematic"":""4"",""participantId"":""53BE65A0D9D045D693E666AD3994ADAD"",""assignmentId"":""e592bfe4-e59b-4184-ba8c-cffb5c4fec1d"",""projectId"":""051c06f1-75cc-4548-856d-4923ddaba0dc""}","https://test12345.live/?num_scrambled_semantic=8&num_scrambled_causal=4&num_scrambled_schematic=4&participantId=53BE65A0D9D045D693E666AD3994ADAD&assignmentId=e592bfe4-e59b-4184-ba8c-cffb5c4fec1d&projectId=051c06f1-75cc-4548-856d-4923ddaba0dc","53BE65A0D9D045D693E666AD3994ADAD-2025-05-15-18-53-39","[{""page_index"":0,""viewing_time"":9846}]","9846","","","","",""
"true","","","","","fullscreen","3","22227","0.0-3.0","53BE65A0D9D045D693E666AD3994ADAD","53BE65A0D9D045D693E666AD3994ADAD","e592bfe4-e59b-4184-ba8c-cffb5c4fec1d","051c06f1-75cc-4548-856d-4923ddaba0dc","{""num_scrambled_semantic"":""8"",""num_scrambled_causal"":""4"",""num_scrambled_schematic"":""4"",""participantId"":""53BE65A0D9D045D693E666AD3994ADAD"",""assignmentId"":""e592bfe4-e59b-4184-ba8c-cffb5c4fec1d"",""projectId"":""051c06f1-75cc-4548-856d-4923ddaba0dc""}","https://test12345.live/?num_scrambled_semantic=8&num_scrambled_causal=4&num_scrambled_schematic=4&participantId=53BE65A0D9D045D693E666AD3994ADAD&assignmentId=e592bfe4-e59b-4184-ba8c-cffb5c4fec1d&projectId=051c06f1-75cc-4548-856d-4923ddaba0dc","53BE65A0D9D045D693E666AD3994ADAD-2025-05-15-18-53-39","","1931","","","","",""
"","","","","","initialize-microphone","4","34517","0.0-4.0-0.0","53BE65A0D9D045D693E666AD3994ADAD","53BE65A0D9D045D693E666AD3994ADAD","e592bfe4-e59b-4184-ba8c-cffb5c4fec1d","051c06f1-75cc-4548-856d-4923ddaba0dc","{""num_scrambled_semantic"":""8"",""num_scrambled_causal"":""4"",""num_scrambled_schematic"":""4"",""participantId"":""53BE65A0D9D045D693E666AD3994ADAD"",""assignmentId"":""e592bfe4-e59b-4184-ba8c-cffb5c4fec1d"",""projectId"":""051c06f1-75cc-4548-856d-4923ddaba0dc""}","https://test12345.live/?num_scrambled_semantic=8&num_scrambled_causal=4&num_scrambled_schematic=4&participantId=53BE65A0D9D045D693E666AD3994ADAD&assignmentId=e592bfe4-e59b-4184-ba8c-cffb5c4fec1d&projectId=051c06f1-75cc-4548-856d-4923ddaba0dc","53BE65A0D9D045D693E666AD3994ADAD-2025-05-15-18-53-39","","","41f83d6674d80e846904b67271701c519ca8e7bf0e851cf73e8e26559b4a98ef","","","",""
"","","","","","html-audio-response","5","45466","0.0-4.0-1.0","53BE65A0D9D045D693E666AD3994ADAD","53BE65A0D9D045D693E666AD3994ADAD","e592bfe4-e59b-4184-ba8c-cffb5c4fec1d","051c06f1-75cc-4548-856d-4923ddaba0dc","{""num_scrambled_semantic"":""8"",""num_scrambled_causal"":""4"",""num_scrambled_schematic"":""4"",""participantId"":""53BE65A0D9D045D693E666AD3994ADAD"",""assignmentId"":""e592bfe4-e59b-4184-ba8c-cffb5c4fec1d"",""projectId"":""051c06f1-75cc-4548-856d-4923ddaba0dc""}","https://test12345.live/?num_scrambled_semantic=8&num_scrambled_causal=4&num_scrambled_schematic=4&participantId=53BE65A0D9D045D693E666AD3994ADAD&assignmentId=e592bfe4-e59b-4184-ba8c-cffb5c4fec1d&projectId=051c06f1-75cc-4548-856d-4923ddaba0dc","53BE65A0D9D045D693E666AD3994ADAD-2025-05-15-18-53-39","","4387","","<span style=""color: red; font-size: 24px""> NOW RECORDING</span>
        <p>Please test Microphone</p>","","2",""
"","","","","","html-button-response","6","48147","0.0-4.0-2.0","53BE65A0D9D045D693E666AD3994ADAD","53BE65A0D9D045D693E666AD3994ADAD","e592bfe4-e59b-4184-ba8c-cffb5c4fec1d","051c06f1-75cc-4548-856d-4923ddaba0dc","{""num_scrambled_semantic"":""8"",""num_scrambled_causal"":""4"",""num_scrambled_schematic"":""4"",""participantId"":""53BE65A0D9D045D693E666AD3994ADAD"",""assignmentId"":""e592bfe4-e59b-4184-ba8c-cffb5c4fec1d"",""projectId"":""051c06f1-75cc-4548-856d-4923ddaba0dc""}","https://test12345.live/?num_scrambled_semantic=8&num_scrambled_causal=4&num_scrambled_schematic=4&participantId=53BE65A0D9D045D693E666AD3994ADAD&assignmentId=e592bfe4-e59b-4184-ba8c-cffb5c4fec1d&projectId=051c06f1-75cc-4548-856d-4923ddaba0dc","53BE65A0D9D045D693E666AD3994ADAD-2025-05-15-18-53-39","","2679","","<p style=""font-size:48px; color:red;"">Is Microphone OK?</p>","1","",""
"","","","","","instructions","7","65376","0.0-5.0","53BE65A0D9D045D693E666AD3994ADAD","53BE65A0D9D045D693E666AD3994ADAD","e592bfe4-e59b-4184-ba8c-cffb5c4fec1d","051c06f1-75cc-4548-856d-4923ddaba0dc","{""num_scrambled_semantic"":""8"",""num_scrambled_causal"":""4"",""num_scrambled_schematic"":""4"",""participantId"":""53BE65A0D9D045D693E666AD3994ADAD"",""assignmentId"":""e592bfe4-e59b-4184-ba8c-cffb5c4fec1d"",""projectId"":""051c06f1-75cc-4548-856d-4923ddaba0dc""}","https://test12345.live/?num_scrambled_semantic=8&num_scrambled_causal=4&num_scrambled_schematic=4&participantId=53BE65A0D9D045D693E666AD3994ADAD&assignmentId=e592bfe4-e59b-4184-ba8c-cffb5c4fec1d&projectId=051c06f1-75cc-4548-856d-4923ddaba0dc","53BE65A0D9D045D693E666AD3994ADAD-2025-05-15-18-53-39","[{""page_index"":0,""viewing_time"":7783},{""page_index"":1,""viewing_time"":9446}]","17229","","","","",""
"","","","","","image-button-response","8","71384","0.0-6.0-0.0","53BE65A0D9D045D693E666AD3994ADAD","53BE65A0D9D045D693E666AD3994ADAD","e592bfe4-e59b-4184-ba8c-cffb5c4fec1d","051c06f1-75cc-4548-856d-4923ddaba0dc","{""num_scrambled_semantic"":""8"",""num_scrambled_causal"":""4"",""num_scrambled_schematic"":""4"",""participantId"":""53BE65A0D9D045D693E666AD3994ADAD"",""assignmentId"":""e592bfe4-e59b-4184-ba8c-cffb5c4fec1d"",""projectId"":""051c06f1-75cc-4548-856d-4923ddaba0dc""}","https://test12345.live/?num_scrambled_semantic=8&num_scrambled_causal=4&num_scrambled_schematic=4&participantId=53BE65A0D9D045D693E666AD3994ADAD&assignmentId=e592bfe4-e59b-4184-ba8c-cffb5c4fec1d&projectId=051c06f1-75cc-4548-856d-4923ddaba0dc","53BE65A0D9D045D693E666AD3994ADAD-2025-05-15-18-53-39","","null","","images/instructions/movie_0.png","null","",""
"","","","","","image-button-response","9","75890","0.0-6.0-1.0-0.0","53BE65A0D9D045D693E666AD3994ADAD","53BE65A0D9D045D693E666AD3994ADAD","e592bfe4-e59b-4184-ba8c-cffb5c4fec1d","051c06f1-75cc-4548-856d-4923ddaba0dc","{""num_scrambled_semantic"":""8"",""num_scrambled_causal"":""4"",""num_scrambled_schematic"":""4"",""participantId"":""53BE65A0D9D045D693E666AD3994ADAD"",""assignmentId"":""e592bfe4-e59b-4184-ba8c-cffb5c4fec1d"",""projectId"":""051c06f1-75cc-4548-856d-4923ddaba0dc""}","https://test12345.live/?num_scrambled_semantic=8&num_scrambled_causal=4&num_scrambled_schematic=4&participantId=53BE65A0D9D045D693E666AD3994ADAD&assignmentId=e592bfe4-e59b-4184-ba8c-cffb5c4fec1d&projectId=051c06f1-75cc-4548-856d-4923ddaba0dc","53BE65A0D9D045D693E666AD3994ADAD-2025-05-15-18-53-39","","null","","images/instructions/movie_1.png","null","",""
"","","","","","image-button-response","10","77987","0.0-6.0-1.0-1.0","53BE65A0D9D045D693E666AD3994ADAD","53BE65A0D9D045D693E666AD3994ADAD","e592bfe4-e59b-4184-ba8c-cffb5c4fec1d","051c06f1-75cc-4548-856d-4923ddaba0dc","{""num_scrambled_semantic"":""8"",""num_scrambled_causal"":""4"",""num_scrambled_schematic"":""4"",""participantId"":""53BE65A0D9D045D693E666AD3994ADAD"",""assignmentId"":""e592bfe4-e59b-4184-ba8c-cffb5c4fec1d"",""projectId"":""051c06f1-75cc-4548-856d-4923ddaba0dc""}","https://test12345.live/?num_scrambled_semantic=8&num_scrambled_causal=4&num_scrambled_schematic=4&participantId=53BE65A0D9D045D693E666AD3994ADAD&assignmentId=e592bfe4-e59b-4184-ba8c-cffb5c4fec1d&projectId=051c06f1-75cc-4548-856d-4923ddaba0dc","53BE65A0D9D045D693E666AD3994ADAD-2025-05-15-18-53-39","","2095","","images/instructions/movie_1.png","0","",""
"","","","","","image-button-response","11","79796","0.0-6.0-1.0-2.0","53BE65A0D9D045D693E666AD3994ADAD","53BE65A0D9D045D693E666AD3994ADAD","e592bfe4-e59b-4184-ba8c-cffb5c4fec1d","051c06f1-75cc-4548-856d-4923ddaba0dc","{""num_scrambled_semantic"":""8"",""num_scrambled_causal"":""4"",""num_scrambled_schematic"":""4"",""participantId"":""53BE65A0D9D045D693E666AD3994ADAD"",""assignmentId"":""e592bfe4-e59b-4184-ba8c-cffb5c4fec1d"",""projectId"":""051c06f1-75cc-4548-856d-4923ddaba0dc""}","https://test12345.live/?num_scrambled_semantic=8&num_scrambled_causal=4&num_scrambled_schematic=4&participantId=53BE65A0D9D045D693E666AD3994ADAD&assignmentId=e592bfe4-e59b-4184-ba8c-cffb5c4fec1d&projectId=051c06f1-75cc-4548-856d-4923ddaba0dc","53BE65A0D9D045D693E666AD3994ADAD-2025-05-15-18-53-39","","null","","[]","null","",""
"","","","","","image-button-response","12","84300","0.0-6.0-1.0-0.1","53BE65A0D9D045D693E666AD3994ADAD","53BE65A0D9D045D693E666AD3994ADAD","e592bfe4-e59b-4184-ba8c-cffb5c4fec1d","051c06f1-75cc-4548-856d-4923ddaba0dc","{""num_scrambled_semantic"":""8"",""num_scrambled_causal"":""4"",""num_scrambled_schematic"":""4"",""participantId"":""53BE65A0D9D045D693E666AD3994ADAD"",""assignmentId"":""e592bfe4-e59b-4184-ba8c-cffb5c4fec1d"",""projectId"":""051c06f1-75cc-4548-856d-4923ddaba0dc""}","https://test12345.live/?num_scrambled_semantic=8&num_scrambled_causal=4&num_scrambled_schematic=4&participantId=53BE65A0D9D045D693E666AD3994ADAD&assignmentId=e592bfe4-e59b-4184-ba8c-cffb5c4fec1d&projectId=051c06f1-75cc-4548-856d-4923ddaba0dc","53BE65A0D9D045D693E666AD3994ADAD-2025-05-15-18-53-39","","null","","images/instructions/movie_2.png","null","",""
"","","","","","image-button-response","13","86242","0.0-6.0-1.0-1.1","53BE65A0D9D045D693E666AD3994ADAD","53BE65A0D9D045D693E666AD3994ADAD","e592bfe4-e59b-4184-ba8c-cffb5c4fec1d","051c06f1-75cc-4548-856d-4923ddaba0dc","{""num_scrambled_semantic"":""8"",""num_scrambled_causal"":""4"",""num_scrambled_schematic"":""4"",""participantId"":""53BE65A0D9D045D693E666AD3994ADAD"",""assignmentId"":""e592bfe4-e59b-4184-ba8c-cffb5c4fec1d"",""projectId"":""051c06f1-75cc-4548-856d-4923ddaba0dc""}","https://test12345.live/?num_scrambled_semantic=8&num_scrambled_causal=4&num_scrambled_schematic=4&participantId=53BE65A0D9D045D693E666AD3994ADAD&assignmentId=e592bfe4-e59b-4184-ba8c-cffb5c4fec1d&projectId=051c06f1-75cc-4548-856d-4923ddaba0dc","53BE65A0D9D045D693E666AD3994ADAD-2025-05-15-18-53-39","","1941","","images/instructions/movie_2.png","0","",""
"","","","","","image-button-response","14","88044","0.0-6.0-1.0-2.1","53BE65A0D9D045D693E666AD3994ADAD","53BE65A0D9D045D693E666AD3994ADAD","e592bfe4-e59b-4184-ba8c-cffb5c4fec1d","051c06f1-75cc-4548-856d-4923ddaba0dc","{""num_scrambled_semantic"":""8"",""num_scrambled_causal"":""4"",""num_scrambled_schematic"":""4"",""participantId"":""53BE65A0D9D045D693E666AD3994ADAD"",""assignmentId"":""e592bfe4-e59b-4184-ba8c-cffb5c4fec1d"",""projectId"":""051c06f1-75cc-4548-856d-4923ddaba0dc""}","https://test12345.live/?num_scrambled_semantic=8&num_scrambled_causal=4&num_scrambled_schematic=4&participantId=53BE65A0D9D045D693E666AD3994ADAD&assignmentId=e592bfe4-e59b-4184-ba8c-cffb5c4fec1d&projectId=051c06f1-75cc-4548-856d-4923ddaba0dc","53BE65A0D9D045D693E666AD3994ADAD-2025-05-15-18-53-39","","null","","[]","null","",""
"","","","","","image-button-response","15","92551","0.0-6.0-1.0-0.2","53BE65A0D9D045D693E666AD3994ADAD","53BE65A0D9D045D693E666AD3994ADAD","e592bfe4-e59b-4184-ba8c-cffb5c4fec1d","051c06f1-75cc-4548-856d-4923ddaba0dc","{""num_scrambled_semantic"":""8"",""num_scrambled_causal"":""4"",""num_scrambled_schematic"":""4"",""participantId"":""53BE65A0D9D045D693E666AD3994ADAD"",""assignmentId"":""e592bfe4-e59b-4184-ba8c-cffb5c4fec1d"",""projectId"":""051c06f1-75cc-4548-856d-4923ddaba0dc""}","https://test12345.live/?num_scrambled_semantic=8&num_scrambled_causal=4&num_scrambled_schematic=4&participantId=53BE65A0D9D045D693E666AD3994ADAD&assignmentId=e592bfe4-e59b-4184-ba8c-cffb5c4fec1d&projectId=051c06f1-75cc-4548-856d-4923ddaba0dc","53BE65A0D9D045D693E666AD3994ADAD-2025-05-15-18-53-39","","null","","images/instructions/movie_3.png","null","",""
"","","","","","image-button-response","16","94638","0.0-6.0-1.0-1.2","53BE65A0D9D045D693E666AD3994ADAD","53BE65A0D9D045D693E666AD3994ADAD","e592bfe4-e59b-4184-ba8c-cffb5c4fec1d","051c06f1-75cc-4548-856d-4923ddaba0dc","{""num_scrambled_semantic"":""8"",""num_scrambled_causal"":""4"",""num_scrambled_schematic"":""4"",""participantId"":""53BE65A0D9D045D693E666AD3994ADAD"",""assignmentId"":""e592bfe4-e59b-4184-ba8c-cffb5c4fec1d"",""projectId"":""051c06f1-75cc-4548-856d-4923ddaba0dc""}","https://test12345.live/?num_scrambled_semantic=8&num_scrambled_causal=4&num_scrambled_schematic=4&participantId=53BE65A0D9D045D693E666AD3994ADAD&assignmentId=e592bfe4-e59b-4184-ba8c-cffb5c4fec1d&projectId=051c06f1-75cc-4548-856d-4923ddaba0dc","53BE65A0D9D045D693E666AD3994ADAD-2025-05-15-18-53-39","","2085","","images/instructions/movie_3.png","0","",""
"","","","","","image-button-response","17","96444","0.0-6.0-1.0-2.2","53BE65A0D9D045D693E666AD3994ADAD","53BE65A0D9D045D693E666AD3994ADAD","e592bfe4-e59b-4184-ba8c-cffb5c4fec1d","051c06f1-75cc-4548-856d-4923ddaba0dc","{""num_scrambled_semantic"":""8"",""num_scrambled_causal"":""4"",""num_scrambled_schematic"":""4"",""participantId"":""53BE65A0D9D045D693E666AD3994ADAD"",""assignmentId"":""e592bfe4-e59b-4184-ba8c-cffb5c4fec1d"",""projectId"":""051c06f1-75cc-4548-856d-4923ddaba0dc""}","https://test12345.live/?num_scrambled_semantic=8&num_scrambled_causal=4&num_scrambled_schematic=4&participantId=53BE65A0D9D045D693E666AD3994ADAD&assignmentId=e592bfe4-e59b-4184-ba8c-cffb5c4fec1d&projectId=051c06f1-75cc-4548-856d-4923ddaba0dc","53BE65A0D9D045D693E666AD3994ADAD-2025-05-15-18-53-39","","null","","[]","null","",""
"","","","","","image-button-response","18","100951","0.0-6.0-1.0-0.3","53BE65A0D9D045D693E666AD3994ADAD","53BE65A0D9D045D693E666AD3994ADAD","e592bfe4-e59b-4184-ba8c-cffb5c4fec1d","051c06f1-75cc-4548-856d-4923ddaba0dc","{""num_scrambled_semantic"":""8"",""num_scrambled_causal"":""4"",""num_scrambled_schematic"":""4"",""participantId"":""53BE65A0D9D045D693E666AD3994ADAD"",""assignmentId"":""e592bfe4-e59b-4184-ba8c-cffb5c4fec1d"",""projectId"":""051c06f1-75cc-4548-856d-4923ddaba0dc""}","https://test12345.live/?num_scrambled_semantic=8&num_scrambled_causal=4&num_scrambled_schematic=4&participantId=53BE65A0D9D045D693E666AD3994ADAD&assignmentId=e592bfe4-e59b-4184-ba8c-cffb5c4fec1d&projectId=051c06f1-75cc-4548-856d-4923ddaba0dc","53BE65A0D9D045D693E666AD3994ADAD-2025-05-15-18-53-39","","null","","images/instructions/movie_4.png","null","",""
"","","","","","image-button-response","19","102028","0.0-6.0-1.0-1.3","53BE65A0D9D045D693E666AD3994ADAD","53BE65A0D9D045D693E666AD3994ADAD","e592bfe4-e59b-4184-ba8c-cffb5c4fec1d","051c06f1-75cc-4548-856d-4923ddaba0dc","{""num_scrambled_semantic"":""8"",""num_scrambled_causal"":""4"",""num_scrambled_schematic"":""4"",""participantId"":""53BE65A0D9D045D693E666AD3994ADAD"",""assignmentId"":""e592bfe4-e59b-4184-ba8c-cffb5c4fec1d"",""projectId"":""051c06f1-75cc-4548-856d-4923ddaba0dc""}","https://test12345.live/?num_scrambled_semantic=8&num_scrambled_causal=4&num_scrambled_schematic=4&participantId=53BE65A0D9D045D693E666AD3994ADAD&assignmentId=e592bfe4-e59b-4184-ba8c-cffb5c4fec1d&projectId=051c06f1-75cc-4548-856d-4923ddaba0dc","53BE65A0D9D045D693E666AD3994ADAD-2025-05-15-18-53-39","","1075","","images/instructions/movie_4.png","0","",""
"","","","","","image-button-response","20","103835","0.0-6.0-1.0-2.3","53BE65A0D9D045D693E666AD3994ADAD","53BE65A0D9D045D693E666AD3994ADAD","e592bfe4-e59b-4184-ba8c-cffb5c4fec1d","051c06f1-75cc-4548-856d-4923ddaba0dc","{""num_scrambled_semantic"":""8"",""num_scrambled_causal"":""4"",""num_scrambled_schematic"":""4"",""participantId"":""53BE65A0D9D045D693E666AD3994ADAD"",""assignmentId"":""e592bfe4-e59b-4184-ba8c-cffb5c4fec1d"",""projectId"":""051c06f1-75cc-4548-856d-4923ddaba0dc""}","https://test12345.live/?num_scrambled_semantic=8&num_scrambled_causal=4&num_scrambled_schematic=4&participantId=53BE65A0D9D045D693E666AD3994ADAD&assignmentId=e592bfe4-e59b-4184-ba8c-cffb5c4fec1d&projectId=051c06f1-75cc-4548-856d-4923ddaba0dc","53BE65A0D9D045D693E666AD3994ADAD-2025-05-15-18-53-39","","null","","[]","null","",""
"","","","","","instructions","21","110377","0.0-7.0","53BE65A0D9D045D693E666AD3994ADAD","53BE65A0D9D045D693E666AD3994ADAD","e592bfe4-e59b-4184-ba8c-cffb5c4fec1d","051c06f1-75cc-4548-856d-4923ddaba0dc","{""num_scrambled_semantic"":""8"",""num_scrambled_causal"":""4"",""num_scrambled_schematic"":""4"",""participantId"":""53BE65A0D9D045D693E666AD3994ADAD"",""assignmentId"":""e592bfe4-e59b-4184-ba8c-cffb5c4fec1d"",""projectId"":""051c06f1-75cc-4548-856d-4923ddaba0dc""}","https://test12345.live/?num_scrambled_semantic=8&num_scrambled_causal=4&num_scrambled_schematic=4&participantId=53BE65A0D9D045D693E666AD3994ADAD&assignmentId=e592bfe4-e59b-4184-ba8c-cffb5c4fec1d&projectId=051c06f1-75cc-4548-856d-4923ddaba0dc","53BE65A0D9D045D693E666AD3994ADAD-2025-05-15-18-53-39","[{""page_index"":0,""viewing_time"":5400},{""page_index"":1,""viewing_time"":1142}]","6541","","","","",""
"","","","","","html-audio-response","22","145572","0.0-8.0","53BE65A0D9D045D693E666AD3994ADAD","53BE65A0D9D045D693E666AD3994ADAD","e592bfe4-e59b-4184-ba8c-cffb5c4fec1d","051c06f1-75cc-4548-856d-4923ddaba0dc","{""num_scrambled_semantic"":""8"",""num_scrambled_causal"":""4"",""num_scrambled_schematic"":""4"",""participantId"":""53BE65A0D9D045D693E666AD3994ADAD"",""assignmentId"":""e592bfe4-e59b-4184-ba8c-cffb5c4fec1d"",""projectId"":""051c06f1-75cc-4548-856d-4923ddaba0dc""}","https://test12345.live/?num_scrambled_semantic=8&num_scrambled_causal=4&num_scrambled_schematic=4&participantId=53BE65A0D9D045D693E666AD3994ADAD&assignmentId=e592bfe4-e59b-4184-ba8c-cffb5c4fec1d&projectId=051c06f1-75cc-4548-856d-4923ddaba0dc","53BE65A0D9D045D693E666AD3994ADAD-2025-05-15-18-53-39","","20812","","[""<span style=\""color: red; font-size: 24px\""> NOW RECORDING</span><p>Please say out loud all the images you saw, as many as you can remember. The images can be said in any order.</p>""]","","2",""
"","","","","","instructions","23","147985","0.0-9.0","53BE65A0D9D045D693E666AD3994ADAD","53BE65A0D9D045D693E666AD3994ADAD","e592bfe4-e59b-4184-ba8c-cffb5c4fec1d","051c06f1-75cc-4548-856d-4923ddaba0dc","{""num_scrambled_semantic"":""8"",""num_scrambled_causal"":""4"",""num_scrambled_schematic"":""4"",""participantId"":""53BE65A0D9D045D693E666AD3994ADAD"",""assignmentId"":""e592bfe4-e59b-4184-ba8c-cffb5c4fec1d"",""projectId"":""051c06f1-75cc-4548-856d-4923ddaba0dc""}","https://test12345.live/?num_scrambled_semantic=8&num_scrambled_causal=4&num_scrambled_schematic=4&participantId=53BE65A0D9D045D693E666AD3994ADAD&assignmentId=e592bfe4-e59b-4184-ba8c-cffb5c4fec1d&projectId=051c06f1-75cc-4548-856d-4923ddaba0dc","53BE65A0D9D045D693E666AD3994ADAD-2025-05-15-18-53-39","[{""page_index"":0,""viewing_time"":2407}]","2407","","","","",""
"","","","","","image-button-response","24","153991","0.0-10.0-0.0","53BE65A0D9D045D693E666AD3994ADAD","53BE65A0D9D045D693E666AD3994ADAD","e592bfe4-e59b-4184-ba8c-cffb5c4fec1d","051c06f1-75cc-4548-856d-4923ddaba0dc","{""num_scrambled_semantic"":""8"",""num_scrambled_causal"":""4"",""num_scrambled_schematic"":""4"",""participantId"":""53BE65A0D9D045D693E666AD3994ADAD"",""assignmentId"":""e592bfe4-e59b-4184-ba8c-cffb5c4fec1d"",""projectId"":""051c06f1-75cc-4548-856d-4923ddaba0dc""}","https://test12345.live/?num_scrambled_semantic=8&num_scrambled_causal=4&num_scrambled_schematic=4&participantId=53BE65A0D9D045D693E666AD3994ADAD&assignmentId=e592bfe4-e59b-4184-ba8c-cffb5c4fec1d&projectId=051c06f1-75cc-4548-856d-4923ddaba0dc","53BE65A0D9D045D693E666AD3994ADAD-2025-05-15-18-53-39","","null","","images/causal_sequence/coin_causal/coin_causal_0.png","null","",""
"","","","","","image-button-response","25","158496","0.0-10.0-1.0-0.0","53BE65A0D9D045D693E666AD3994ADAD","53BE65A0D9D045D693E666AD3994ADAD","e592bfe4-e59b-4184-ba8c-cffb5c4fec1d","051c06f1-75cc-4548-856d-4923ddaba0dc","{""num_scrambled_semantic"":""8"",""num_scrambled_causal"":""4"",""num_scrambled_schematic"":""4"",""participantId"":""53BE65A0D9D045D693E666AD3994ADAD"",""assignmentId"":""e592bfe4-e59b-4184-ba8c-cffb5c4fec1d"",""projectId"":""051c06f1-75cc-4548-856d-4923ddaba0dc""}","https://test12345.live/?num_scrambled_semantic=8&num_scrambled_causal=4&num_scrambled_schematic=4&participantId=53BE65A0D9D045D693E666AD3994ADAD&assignmentId=e592bfe4-e59b-4184-ba8c-cffb5c4fec1d&projectId=051c06f1-75cc-4548-856d-4923ddaba0dc","53BE65A0D9D045D693E666AD3994ADAD-2025-05-15-18-53-39","","null","","images/causal_sequence/coin_causal/coin_causal_7.png","null","",""
"","","","","","image-button-response","26","161569","0.0-10.0-1.0-1.0","53BE65A0D9D045D693E666AD3994ADAD","53BE65A0D9D045D693E666AD3994ADAD","e592bfe4-e59b-4184-ba8c-cffb5c4fec1d","051c06f1-75cc-4548-856d-4923ddaba0dc","{""num_scrambled_semantic"":""8"",""num_scrambled_causal"":""4"",""num_scrambled_schematic"":""4"",""participantId"":""53BE65A0D9D045D693E666AD3994ADAD"",""assignmentId"":""e592bfe4-e59b-4184-ba8c-cffb5c4fec1d"",""projectId"":""051c06f1-75cc-4548-856d-4923ddaba0dc""}","https://test12345.live/?num_scrambled_semantic=8&num_scrambled_causal=4&num_scrambled_schematic=4&participantId=53BE65A0D9D045D693E666AD3994ADAD&assignmentId=e592bfe4-e59b-4184-ba8c-cffb5c4fec1d&projectId=051c06f1-75cc-4548-856d-4923ddaba0dc","53BE65A0D9D045D693E666AD3994ADAD-2025-05-15-18-53-39","","3072","","images/causal_sequence/coin_causal/coin_causal_7.png","1","",""
"","","","","","image-button-response","27","163376","0.0-10.0-1.0-2.0","53BE65A0D9D045D693E666AD3994ADAD","53BE65A0D9D045D693E666AD3994ADAD","e592bfe4-e59b-4184-ba8c-cffb5c4fec1d","051c06f1-75cc-4548-856d-4923ddaba0dc","{""num_scrambled_semantic"":""8"",""num_scrambled_causal"":""4"",""num_scrambled_schematic"":""4"",""participantId"":""53BE65A0D9D045D693E666AD3994ADAD"",""assignmentId"":""e592bfe4-e59b-4184-ba8c-cffb5c4fec1d"",""projectId"":""051c06f1-75cc-4548-856d-4923ddaba0dc""}","https://test12345.live/?num_scrambled_semantic=8&num_scrambled_causal=4&num_scrambled_schematic=4&participantId=53BE65A0D9D045D693E666AD3994ADAD&assignmentId=e592bfe4-e59b-4184-ba8c-cffb5c4fec1d&projectId=051c06f1-75cc-4548-856d-4923ddaba0dc","53BE65A0D9D045D693E666AD3994ADAD-2025-05-15-18-53-39","","null","","[]","null","",""
"","","","","","image-button-response","28","167878","0.0-10.0-1.0-0.1","53BE65A0D9D045D693E666AD3994ADAD","53BE65A0D9D045D693E666AD3994ADAD","e592bfe4-e59b-4184-ba8c-cffb5c4fec1d","051c06f1-75cc-4548-856d-4923ddaba0dc","{""num_scrambled_semantic"":""8"",""num_scrambled_causal"":""4"",""num_scrambled_schematic"":""4"",""participantId"":""53BE65A0D9D045D693E666AD3994ADAD"",""assignmentId"":""e592bfe4-e59b-4184-ba8c-cffb5c4fec1d"",""projectId"":""051c06f1-75cc-4548-856d-4923ddaba0dc""}","https://test12345.live/?num_scrambled_semantic=8&num_scrambled_causal=4&num_scrambled_schematic=4&participantId=53BE65A0D9D045D693E666AD3994ADAD&assignmentId=e592bfe4-e59b-4184-ba8c-cffb5c4fec1d&projectId=051c06f1-75cc-4548-856d-4923ddaba0dc","53BE65A0D9D045D693E666AD3994ADAD-2025-05-15-18-53-39","","null","","images/causal_sequence/coin_causal/coin_causal_4.png","null","",""
"","","","","","image-button-response","29","168594","0.0-10.0-1.0-1.1","53BE65A0D9D045D693E666AD3994ADAD","53BE65A0D9D045D693E666AD3994ADAD","e592bfe4-e59b-4184-ba8c-cffb5c4fec1d","051c06f1-75cc-4548-856d-4923ddaba0dc","{""num_scrambled_semantic"":""8"",""num_scrambled_causal"":""4"",""num_scrambled_schematic"":""4"",""participantId"":""53BE65A0D9D045D693E666AD3994ADAD"",""assignmentId"":""e592bfe4-e59b-4184-ba8c-cffb5c4fec1d"",""projectId"":""051c06f1-75cc-4548-856d-4923ddaba0dc""}","https://test12345.live/?num_scrambled_semantic=8&num_scrambled_causal=4&num_scrambled_schematic=4&participantId=53BE65A0D9D045D693E666AD3994ADAD&assignmentId=e592bfe4-e59b-4184-ba8c-cffb5c4fec1d&projectId=051c06f1-75cc-4548-856d-4923ddaba0dc","53BE65A0D9D045D693E666AD3994ADAD-2025-05-15-18-53-39","","715","","images/causal_sequence/coin_causal/coin_causal_4.png","0","",""
"","","","","","image-button-response","30","170397","0.0-10.0-1.0-2.1","53BE65A0D9D045D693E666AD3994ADAD","53BE65A0D9D045D693E666AD3994ADAD","e592bfe4-e59b-4184-ba8c-cffb5c4fec1d","051c06f1-75cc-4548-856d-4923ddaba0dc","{""num_scrambled_semantic"":""8"",""num_scrambled_causal"":""4"",""num_scrambled_schematic"":""4"",""participantId"":""53BE65A0D9D045D693E666AD3994ADAD"",""assignmentId"":""e592bfe4-e59b-4184-ba8c-cffb5c4fec1d"",""projectId"":""051c06f1-75cc-4548-856d-4923ddaba0dc""}","https://test12345.live/?num_scrambled_semantic=8&num_scrambled_causal=4&num_scrambled_schematic=4&participantId=53BE65A0D9D045D693E666AD3994ADAD&assignmentId=e592bfe4-e59b-4184-ba8c-cffb5c4fec1d&projectId=051c06f1-75cc-4548-856d-4923ddaba0dc","53BE65A0D9D045D693E666AD3994ADAD-2025-05-15-18-53-39","","null","","[]","null","",""
"","","","","","image-button-response","31","174902","0.0-10.0-1.0-0.2","53BE65A0D9D045D693E666AD3994ADAD","53BE65A0D9D045D693E666AD3994ADAD","e592bfe4-e59b-4184-ba8c-cffb5c4fec1d","051c06f1-75cc-4548-856d-4923ddaba0dc","{""num_scrambled_semantic"":""8"",""num_scrambled_causal"":""4"",""num_scrambled_schematic"":""4"",""participantId"":""53BE65A0D9D045D693E666AD3994ADAD"",""assignmentId"":""e592bfe4-e59b-4184-ba8c-cffb5c4fec1d"",""projectId"":""051c06f1-75cc-4548-856d-4923ddaba0dc""}","https://test12345.live/?num_scrambled_semantic=8&num_scrambled_causal=4&num_scrambled_schematic=4&participantId=53BE65A0D9D045D693E666AD3994ADAD&assignmentId=e592bfe4-e59b-4184-ba8c-cffb5c4fec1d&projectId=051c06f1-75cc-4548-856d-4923ddaba0dc","53BE65A0D9D045D693E666AD3994ADAD-2025-05-15-18-53-39","","null","","images/causal_sequence/coin_causal/coin_causal_5.png","null","",""
"","","","","","image-button-response","32","177482","0.0-10.0-1.0-1.2","53BE65A0D9D045D693E666AD3994ADAD","53BE65A0D9D045D693E666AD3994ADAD","e592bfe4-e59b-4184-ba8c-cffb5c4fec1d","051c06f1-75cc-4548-856d-4923ddaba0dc","{""num_scrambled_semantic"":""8"",""num_scrambled_causal"":""4"",""num_scrambled_schematic"":""4"",""participantId"":""53BE65A0D9D045D693E666AD3994ADAD"",""assignmentId"":""e592bfe4-e59b-4184-ba8c-cffb5c4fec1d"",""projectId"":""051c06f1-75cc-4548-856d-4923ddaba0dc""}","https://test12345.live/?num_scrambled_semantic=8&num_scrambled_causal=4&num_scrambled_schematic=4&participantId=53BE65A0D9D045D693E666AD3994ADAD&assignmentId=e592bfe4-e59b-4184-ba8c-cffb5c4fec1d&projectId=051c06f1-75cc-4548-856d-4923ddaba0dc","53BE65A0D9D045D693E666AD3994ADAD-2025-05-15-18-53-39","","2578","","images/causal_sequence/coin_causal/coin_causal_5.png","0","",""
"","","","","","image-button-response","33","179286","0.0-10.0-1.0-2.2","53BE65A0D9D045D693E666AD3994ADAD","53BE65A0D9D045D693E666AD3994ADAD","e592bfe4-e59b-4184-ba8c-cffb5c4fec1d","051c06f1-75cc-4548-856d-4923ddaba0dc","{""num_scrambled_semantic"":""8"",""num_scrambled_causal"":""4"",""num_scrambled_schematic"":""4"",""participantId"":""53BE65A0D9D045D693E666AD3994ADAD"",""assignmentId"":""e592bfe4-e59b-4184-ba8c-cffb5c4fec1d"",""projectId"":""051c06f1-75cc-4548-856d-4923ddaba0dc""}","https://test12345.live/?num_scrambled_semantic=8&num_scrambled_causal=4&num_scrambled_schematic=4&participantId=53BE65A0D9D045D693E666AD3994ADAD&assignmentId=e592bfe4-e59b-4184-ba8c-cffb5c4fec1d&projectId=051c06f1-75cc-4548-856d-4923ddaba0dc","53BE65A0D9D045D693E666AD3994ADAD-2025-05-15-18-53-39","","null","","[]","null","",""
"","","","","","image-button-response","34","183792","0.0-10.0-1.0-0.3","53BE65A0D9D045D693E666AD3994ADAD","53BE65A0D9D045D693E666AD3994ADAD","e592bfe4-e59b-4184-ba8c-cffb5c4fec1d","051c06f1-75cc-4548-856d-4923ddaba0dc","{""num_scrambled_semantic"":""8"",""num_scrambled_causal"":""4"",""num_scrambled_schematic"":""4"",""participantId"":""53BE65A0D9D045D693E666AD3994ADAD"",""assignmentId"":""e592bfe4-e59b-4184-ba8c-cffb5c4fec1d"",""projectId"":""051c06f1-75cc-4548-856d-4923ddaba0dc""}","https://test12345.live/?num_scrambled_semantic=8&num_scrambled_causal=4&num_scrambled_schematic=4&participantId=53BE65A0D9D045D693E666AD3994ADAD&assignmentId=e592bfe4-e59b-4184-ba8c-cffb5c4fec1d&projectId=051c06f1-75cc-4548-856d-4923ddaba0dc","53BE65A0D9D045D693E666AD3994ADAD-2025-05-15-18-53-39","","null","","images/causal_sequence/coin_causal/coin_causal_ten.png","null","",""
"","","","","","image-button-response","35","184628","0.0-10.0-1.0-1.3","53BE65A0D9D045D693E666AD3994ADAD","53BE65A0D9D045D693E666AD3994ADAD","e592bfe4-e59b-4184-ba8c-cffb5c4fec1d","051c06f1-75cc-4548-856d-4923ddaba0dc","{""num_scrambled_semantic"":""8"",""num_scrambled_causal"":""4"",""num_scrambled_schematic"":""4"",""participantId"":""53BE65A0D9D045D693E666AD3994ADAD"",""assignmentId"":""e592bfe4-e59b-4184-ba8c-cffb5c4fec1d"",""projectId"":""051c06f1-75cc-4548-856d-4923ddaba0dc""}","https://test12345.live/?num_scrambled_semantic=8&num_scrambled_causal=4&num_scrambled_schematic=4&participantId=53BE65A0D9D045D693E666AD3994ADAD&assignmentId=e592bfe4-e59b-4184-ba8c-cffb5c4fec1d&projectId=051c06f1-75cc-4548-856d-4923ddaba0dc","53BE65A0D9D045D693E666AD3994ADAD-2025-05-15-18-53-39","","835","","images/causal_sequence/coin_causal/coin_causal_ten.png","0","",""
"","","","","","image-button-response","36","186434","0.0-10.0-1.0-2.3","53BE65A0D9D045D693E666AD3994ADAD","53BE65A0D9D045D693E666AD3994ADAD","e592bfe4-e59b-4184-ba8c-cffb5c4fec1d","051c06f1-75cc-4548-856d-4923ddaba0dc","{""num_scrambled_semantic"":""8"",""num_scrambled_causal"":""4"",""num_scrambled_schematic"":""4"",""participantId"":""53BE65A0D9D045D693E666AD3994ADAD"",""assignmentId"":""e592bfe4-e59b-4184-ba8c-cffb5c4fec1d"",""projectId"":""051c06f1-75cc-4548-856d-4923ddaba0dc""}","https://test12345.live/?num_scrambled_semantic=8&num_scrambled_causal=4&num_scrambled_schematic=4&participantId=53BE65A0D9D045D693E666AD3994ADAD&assignmentId=e592bfe4-e59b-4184-ba8c-cffb5c4fec1d&projectId=051c06f1-75cc-4548-856d-4923ddaba0dc","53BE65A0D9D045D693E666AD3994ADAD-2025-05-15-18-53-39","","null","","[]","null","",""
"","","","","","image-button-response","37","190937","0.0-10.0-1.0-0.4","53BE65A0D9D045D693E666AD3994ADAD","53BE65A0D9D045D693E666AD3994ADAD","e592bfe4-e59b-4184-ba8c-cffb5c4fec1d","051c06f1-75cc-4548-856d-4923ddaba0dc","{""num_scrambled_semantic"":""8"",""num_scrambled_causal"":""4"",""num_scrambled_schematic"":""4"",""participantId"":""53BE65A0D9D045D693E666AD3994ADAD"",""assignmentId"":""e592bfe4-e59b-4184-ba8c-cffb5c4fec1d"",""projectId"":""051c06f1-75cc-4548-856d-4923ddaba0dc""}","https://test12345.live/?num_scrambled_semantic=8&num_scrambled_causal=4&num_scrambled_schematic=4&participantId=53BE65A0D9D045D693E666AD3994ADAD&assignmentId=e592bfe4-e59b-4184-ba8c-cffb5c4fec1d&projectId=051c06f1-75cc-4548-856d-4923ddaba0dc","53BE65A0D9D045D693E666AD3994ADAD-2025-05-15-18-53-39","","null","","images/causal_sequence/coin_causal/coin_causal_6.png","null","",""
"","","","","","image-button-response","38","191877","0.0-10.0-1.0-1.4","53BE65A0D9D045D693E666AD3994ADAD","53BE65A0D9D045D693E666AD3994ADAD","e592bfe4-e59b-4184-ba8c-cffb5c4fec1d","051c06f1-75cc-4548-856d-4923ddaba0dc","{""num_scrambled_semantic"":""8"",""num_scrambled_causal"":""4"",""num_scrambled_schematic"":""4"",""participantId"":""53BE65A0D9D045D693E666AD3994ADAD"",""assignmentId"":""e592bfe4-e59b-4184-ba8c-cffb5c4fec1d"",""projectId"":""051c06f1-75cc-4548-856d-4923ddaba0dc""}","https://test12345.live/?num_scrambled_semantic=8&num_scrambled_causal=4&num_scrambled_schematic=4&participantId=53BE65A0D9D045D693E666AD3994ADAD&assignmentId=e592bfe4-e59b-4184-ba8c-cffb5c4fec1d&projectId=051c06f1-75cc-4548-856d-4923ddaba0dc","53BE65A0D9D045D693E666AD3994ADAD-2025-05-15-18-53-39","","939","","images/causal_sequence/coin_causal/coin_causal_6.png","0","",""
"","","","","","image-button-response","39","193682","0.0-10.0-1.0-2.4","53BE65A0D9D045D693E666AD3994ADAD","53BE65A0D9D045D693E666AD3994ADAD","e592bfe4-e59b-4184-ba8c-cffb5c4fec1d","051c06f1-75cc-4548-856d-4923ddaba0dc","{""num_scrambled_semantic"":""8"",""num_scrambled_causal"":""4"",""num_scrambled_schematic"":""4"",""participantId"":""53BE65A0D9D045D693E666AD3994ADAD"",""assignmentId"":""e592bfe4-e59b-4184-ba8c-cffb5c4fec1d"",""projectId"":""051c06f1-75cc-4548-856d-4923ddaba0dc""}","https://test12345.live/?num_scrambled_semantic=8&num_scrambled_causal=4&num_scrambled_schematic=4&participantId=53BE65A0D9D045D693E666AD3994ADAD&assignmentId=e592bfe4-e59b-4184-ba8c-cffb5c4fec1d&projectId=051c06f1-75cc-4548-856d-4923ddaba0dc","53BE65A0D9D045D693E666AD3994ADAD-2025-05-15-18-53-39","","null","","[]","null","",""
"","","","","","image-button-response","40","198196","0.0-10.0-1.0-0.5","53BE65A0D9D045D693E666AD3994ADAD","53BE65A0D9D045D693E666AD3994ADAD","e592bfe4-e59b-4184-ba8c-cffb5c4fec1d","051c06f1-75cc-4548-856d-4923ddaba0dc","{""num_scrambled_semantic"":""8"",""num_scrambled_causal"":""4"",""num_scrambled_schematic"":""4"",""participantId"":""53BE65A0D9D045D693E666AD3994ADAD"",""assignmentId"":""e592bfe4-e59b-4184-ba8c-cffb5c4fec1d"",""projectId"":""051c06f1-75cc-4548-856d-4923ddaba0dc""}","https://test12345.live/?num_scrambled_semantic=8&num_scrambled_causal=4&num_scrambled_schematic=4&participantId=53BE65A0D9D045D693E666AD3994ADAD&assignmentId=e592bfe4-e59b-4184-ba8c-cffb5c4fec1d&projectId=051c06f1-75cc-4548-856d-4923ddaba0dc","53BE65A0D9D045D693E666AD3994ADAD-2025-05-15-18-53-39","","null","","images/causal_sequence/coin_causal/coin_causal_8.png","null","",""
"","","","","","image-button-response","41","199085","0.0-10.0-1.0-1.5","53BE65A0D9D045D693E666AD3994ADAD","53BE65A0D9D045D693E666AD3994ADAD","e592bfe4-e59b-4184-ba8c-cffb5c4fec1d","051c06f1-75cc-4548-856d-4923ddaba0dc","{""num_scrambled_semantic"":""8"",""num_scrambled_causal"":""4"",""num_scrambled_schematic"":""4"",""participantId"":""53BE65A0D9D045D693E666AD3994ADAD"",""assignmentId"":""e592bfe4-e59b-4184-ba8c-cffb5c4fec1d"",""projectId"":""051c06f1-75cc-4548-856d-4923ddaba0dc""}","https://test12345.live/?num_scrambled_semantic=8&num_scrambled_causal=4&num_scrambled_schematic=4&participantId=53BE65A0D9D045D693E666AD3994ADAD&assignmentId=e592bfe4-e59b-4184-ba8c-cffb5c4fec1d&projectId=051c06f1-75cc-4548-856d-4923ddaba0dc","53BE65A0D9D045D693E666AD3994ADAD-2025-05-15-18-53-39","","887","","images/causal_sequence/coin_causal/coin_causal_8.png","0","",""
"","","","","","image-button-response","42","200887","0.0-10.0-1.0-2.5","53BE65A0D9D045D693E666AD3994ADAD","53BE65A0D9D045D693E666AD3994ADAD","e592bfe4-e59b-4184-ba8c-cffb5c4fec1d","051c06f1-75cc-4548-856d-4923ddaba0dc","{""num_scrambled_semantic"":""8"",""num_scrambled_causal"":""4"",""num_scrambled_schematic"":""4"",""participantId"":""53BE65A0D9D045D693E666AD3994ADAD"",""assignmentId"":""e592bfe4-e59b-4184-ba8c-cffb5c4fec1d"",""projectId"":""051c06f1-75cc-4548-856d-4923ddaba0dc""}","https://test12345.live/?num_scrambled_semantic=8&num_scrambled_causal=4&num_scrambled_schematic=4&participantId=53BE65A0D9D045D693E666AD3994ADAD&assignmentId=e592bfe4-e59b-4184-ba8c-cffb5c4fec1d&projectId=051c06f1-75cc-4548-856d-4923ddaba0dc","53BE65A0D9D045D693E666AD3994ADAD-2025-05-15-18-53-39","","null","","[]","null","",""
"","","","","","image-button-response","43","205393","0.0-10.0-1.0-0.6","53BE65A0D9D045D693E666AD3994ADAD","53BE65A0D9D045D693E666AD3994ADAD","e592bfe4-e59b-4184-ba8c-cffb5c4fec1d","051c06f1-75cc-4548-856d-4923ddaba0dc","{""num_scrambled_semantic"":""8"",""num_scrambled_causal"":""4"",""num_scrambled_schematic"":""4"",""participantId"":""53BE65A0D9D045D693E666AD3994ADAD"",""assignmentId"":""e592bfe4-e59b-4184-ba8c-cffb5c4fec1d"",""projectId"":""051c06f1-75cc-4548-856d-4923ddaba0dc""}","https://test12345.live/?num_scrambled_semantic=8&num_scrambled_causal=4&num_scrambled_schematic=4&participantId=53BE65A0D9D045D693E666AD3994ADAD&assignmentId=e592bfe4-e59b-4184-ba8c-cffb5c4fec1d&projectId=051c06f1-75cc-4548-856d-4923ddaba0dc","53BE65A0D9D045D693E666AD3994ADAD-2025-05-15-18-53-39","","null","","images/causal_sequence/coin_causal/coin_causal_1.png","null","",""
"","","","","","image-button-response","44","206235","0.0-10.0-1.0-1.6","53BE65A0D9D045D693E666AD3994ADAD","53BE65A0D9D045D693E666AD3994ADAD","e592bfe4-e59b-4184-ba8c-cffb5c4fec1d","051c06f1-75cc-4548-856d-4923ddaba0dc","{""num_scrambled_semantic"":""8"",""num_scrambled_causal"":""4"",""num_scrambled_schematic"":""4"",""participantId"":""53BE65A0D9D045D693E666AD3994ADAD"",""assignmentId"":""e592bfe4-e59b-4184-ba8c-cffb5c4fec1d"",""projectId"":""051c06f1-75cc-4548-856d-4923ddaba0dc""}","https://test12345.live/?num_scrambled_semantic=8&num_scrambled_causal=4&num_scrambled_schematic=4&participantId=53BE65A0D9D045D693E666AD3994ADAD&assignmentId=e592bfe4-e59b-4184-ba8c-cffb5c4fec1d&projectId=051c06f1-75cc-4548-856d-4923ddaba0dc","53BE65A0D9D045D693E666AD3994ADAD-2025-05-15-18-53-39","","840","","images/causal_sequence/coin_causal/coin_causal_1.png","0","",""
"","","","","","image-button-response","45","208039","0.0-10.0-1.0-2.6","53BE65A0D9D045D693E666AD3994ADAD","53BE65A0D9D045D693E666AD3994ADAD","e592bfe4-e59b-4184-ba8c-cffb5c4fec1d","051c06f1-75cc-4548-856d-4923ddaba0dc","{""num_scrambled_semantic"":""8"",""num_scrambled_causal"":""4"",""num_scrambled_schematic"":""4"",""participantId"":""53BE65A0D9D045D693E666AD3994ADAD"",""assignmentId"":""e592bfe4-e59b-4184-ba8c-cffb5c4fec1d"",""projectId"":""051c06f1-75cc-4548-856d-4923ddaba0dc""}","https://test12345.live/?num_scrambled_semantic=8&num_scrambled_causal=4&num_scrambled_schematic=4&participantId=53BE65A0D9D045D693E666AD3994ADAD&assignmentId=e592bfe4-e59b-4184-ba8c-cffb5c4fec1d&projectId=051c06f1-75cc-4548-856d-4923ddaba0dc","53BE65A0D9D045D693E666AD3994ADAD-2025-05-15-18-53-39","","null","","[]","null","",""
"","","","","","image-button-response","46","212543","0.0-10.0-1.0-0.7","53BE65A0D9D045D693E666AD3994ADAD","53BE65A0D9D045D693E666AD3994ADAD","e592bfe4-e59b-4184-ba8c-cffb5c4fec1d","051c06f1-75cc-4548-856d-4923ddaba0dc","{""num_scrambled_semantic"":""8"",""num_scrambled_causal"":""4"",""num_scrambled_schematic"":""4"",""participantId"":""53BE65A0D9D045D693E666AD3994ADAD"",""assignmentId"":""e592bfe4-e59b-4184-ba8c-cffb5c4fec1d"",""projectId"":""051c06f1-75cc-4548-856d-4923ddaba0dc""}","https://test12345.live/?num_scrambled_semantic=8&num_scrambled_causal=4&num_scrambled_schematic=4&participantId=53BE65A0D9D045D693E666AD3994ADAD&assignmentId=e592bfe4-e59b-4184-ba8c-cffb5c4fec1d&projectId=051c06f1-75cc-4548-856d-4923ddaba0dc","53BE65A0D9D045D693E666AD3994ADAD-2025-05-15-18-53-39","","null","","images/causal_sequence/coin_causal/coin_causal_9.png","null","",""
"","","","","","image-button-response","47","213427","0.0-10.0-1.0-1.7","53BE65A0D9D045D693E666AD3994ADAD","53BE65A0D9D045D693E666AD3994ADAD","e592bfe4-e59b-4184-ba8c-cffb5c4fec1d","051c06f1-75cc-4548-856d-4923ddaba0dc","{""num_scrambled_semantic"":""8"",""num_scrambled_causal"":""4"",""num_scrambled_schematic"":""4"",""participantId"":""53BE65A0D9D045D693E666AD3994ADAD"",""assignmentId"":""e592bfe4-e59b-4184-ba8c-cffb5c4fec1d"",""projectId"":""051c06f1-75cc-4548-856d-4923ddaba0dc""}","https://test12345.live/?num_scrambled_semantic=8&num_scrambled_causal=4&num_scrambled_schematic=4&participantId=53BE65A0D9D045D693E666AD3994ADAD&assignmentId=e592bfe4-e59b-4184-ba8c-cffb5c4fec1d&projectId=051c06f1-75cc-4548-856d-4923ddaba0dc","53BE65A0D9D045D693E666AD3994ADAD-2025-05-15-18-53-39","","882","","images/causal_sequence/coin_causal/coin_causal_9.png","0","",""
"","","","","","image-button-response","48","215233","0.0-10.0-1.0-2.7","53BE65A0D9D045D693E666AD3994ADAD","53BE65A0D9D045D693E666AD3994ADAD","e592bfe4-e59b-4184-ba8c-cffb5c4fec1d","051c06f1-75cc-4548-856d-4923ddaba0dc","{""num_scrambled_semantic"":""8"",""num_scrambled_causal"":""4"",""num_scrambled_schematic"":""4"",""participantId"":""53BE65A0D9D045D693E666AD3994ADAD"",""assignmentId"":""e592bfe4-e59b-4184-ba8c-cffb5c4fec1d"",""projectId"":""051c06f1-75cc-4548-856d-4923ddaba0dc""}","https://test12345.live/?num_scrambled_semantic=8&num_scrambled_causal=4&num_scrambled_schematic=4&participantId=53BE65A0D9D045D693E666AD3994ADAD&assignmentId=e592bfe4-e59b-4184-ba8c-cffb5c4fec1d&projectId=051c06f1-75cc-4548-856d-4923ddaba0dc","53BE65A0D9D045D693E666AD3994ADAD-2025-05-15-18-53-39","","null","","[]","null","",""
"","","","","","image-button-response","49","219737","0.0-10.0-1.0-0.8","53BE65A0D9D045D693E666AD3994ADAD","53BE65A0D9D045D693E666AD3994ADAD","e592bfe4-e59b-4184-ba8c-cffb5c4fec1d","051c06f1-75cc-4548-856d-4923ddaba0dc","{""num_scrambled_semantic"":""8"",""num_scrambled_causal"":""4"",""num_scrambled_schematic"":""4"",""participantId"":""53BE65A0D9D045D693E666AD3994ADAD"",""assignmentId"":""e592bfe4-e59b-4184-ba8c-cffb5c4fec1d"",""projectId"":""051c06f1-75cc-4548-856d-4923ddaba0dc""}","https://test12345.live/?num_scrambled_semantic=8&num_scrambled_causal=4&num_scrambled_schematic=4&participantId=53BE65A0D9D045D693E666AD3994ADAD&assignmentId=e592bfe4-e59b-4184-ba8c-cffb5c4fec1d&projectId=051c06f1-75cc-4548-856d-4923ddaba0dc","53BE65A0D9D045D693E666AD3994ADAD-2025-05-15-18-53-39","","null","","images/causal_sequence/coin_causal/coin_causal_3.png","null","",""
"","","","","","image-button-response","50","220548","0.0-10.0-1.0-1.8","53BE65A0D9D045D693E666AD3994ADAD","53BE65A0D9D045D693E666AD3994ADAD","e592bfe4-e59b-4184-ba8c-cffb5c4fec1d","051c06f1-75cc-4548-856d-4923ddaba0dc","{""num_scrambled_semantic"":""8"",""num_scrambled_causal"":""4"",""num_scrambled_schematic"":""4"",""participantId"":""53BE65A0D9D045D693E666AD3994ADAD"",""assignmentId"":""e592bfe4-e59b-4184-ba8c-cffb5c4fec1d"",""projectId"":""051c06f1-75cc-4548-856d-4923ddaba0dc""}","https://test12345.live/?num_scrambled_semantic=8&num_scrambled_causal=4&num_scrambled_schematic=4&participantId=53BE65A0D9D045D693E666AD3994ADAD&assignmentId=e592bfe4-e59b-4184-ba8c-cffb5c4fec1d&projectId=051c06f1-75cc-4548-856d-4923ddaba0dc","53BE65A0D9D045D693E666AD3994ADAD-2025-05-15-18-53-39","","808","","images/causal_sequence/coin_causal/coin_causal_3.png","0","",""
"","","","","","image-button-response","51","222353","0.0-10.0-1.0-2.8","53BE65A0D9D045D693E666AD3994ADAD","53BE65A0D9D045D693E666AD3994ADAD","e592bfe4-e59b-4184-ba8c-cffb5c4fec1d","051c06f1-75cc-4548-856d-4923ddaba0dc","{""num_scrambled_semantic"":""8"",""num_scrambled_causal"":""4"",""num_scrambled_schematic"":""4"",""participantId"":""53BE65A0D9D045D693E666AD3994ADAD"",""assignmentId"":""e592bfe4-e59b-4184-ba8c-cffb5c4fec1d"",""projectId"":""051c06f1-75cc-4548-856d-4923ddaba0dc""}","https://test12345.live/?num_scrambled_semantic=8&num_scrambled_causal=4&num_scrambled_schematic=4&participantId=53BE65A0D9D045D693E666AD3994ADAD&assignmentId=e592bfe4-e59b-4184-ba8c-cffb5c4fec1d&projectId=051c06f1-75cc-4548-856d-4923ddaba0dc","53BE65A0D9D045D693E666AD3994ADAD-2025-05-15-18-53-39","","null","","[]","null","",""
"","","","","","image-button-response","52","226860","0.0-10.0-1.0-0.9","53BE65A0D9D045D693E666AD3994ADAD","53BE65A0D9D045D693E666AD3994ADAD","e592bfe4-e59b-4184-ba8c-cffb5c4fec1d","051c06f1-75cc-4548-856d-4923ddaba0dc","{""num_scrambled_semantic"":""8"",""num_scrambled_causal"":""4"",""num_scrambled_schematic"":""4"",""participantId"":""53BE65A0D9D045D693E666AD3994ADAD"",""assignmentId"":""e592bfe4-e59b-4184-ba8c-cffb5c4fec1d"",""projectId"":""051c06f1-75cc-4548-856d-4923ddaba0dc""}","https://test12345.live/?num_scrambled_semantic=8&num_scrambled_causal=4&num_scrambled_schematic=4&participantId=53BE65A0D9D045D693E666AD3994ADAD&assignmentId=e592bfe4-e59b-4184-ba8c-cffb5c4fec1d&projectId=051c06f1-75cc-4548-856d-4923ddaba0dc","53BE65A0D9D045D693E666AD3994ADAD-2025-05-15-18-53-39","","null","","images/causal_sequence/coin_causal/coin_causal_2.png","null","",""
"","","","","","image-button-response","53","228221","0.0-10.0-1.0-1.9","53BE65A0D9D045D693E666AD3994ADAD","53BE65A0D9D045D693E666AD3994ADAD","e592bfe4-e59b-4184-ba8c-cffb5c4fec1d","051c06f1-75cc-4548-856d-4923ddaba0dc","{""num_scrambled_semantic"":""8"",""num_scrambled_causal"":""4"",""num_scrambled_schematic"":""4"",""participantId"":""53BE65A0D9D045D693E666AD3994ADAD"",""assignmentId"":""e592bfe4-e59b-4184-ba8c-cffb5c4fec1d"",""projectId"":""051c06f1-75cc-4548-856d-4923ddaba0dc""}","https://test12345.live/?num_scrambled_semantic=8&num_scrambled_causal=4&num_scrambled_schematic=4&participantId=53BE65A0D9D045D693E666AD3994ADAD&assignmentId=e592bfe4-e59b-4184-ba8c-cffb5c4fec1d&projectId=051c06f1-75cc-4548-856d-4923ddaba0dc","53BE65A0D9D045D693E666AD3994ADAD-2025-05-15-18-53-39","","1359","","images/causal_sequence/coin_causal/coin_causal_2.png","0","",""
"","","","","","image-button-response","54","230028","0.0-10.0-1.0-2.9","53BE65A0D9D045D693E666AD3994ADAD","53BE65A0D9D045D693E666AD3994ADAD","e592bfe4-e59b-4184-ba8c-cffb5c4fec1d","051c06f1-75cc-4548-856d-4923ddaba0dc","{""num_scrambled_semantic"":""8"",""num_scrambled_causal"":""4"",""num_scrambled_schematic"":""4"",""participantId"":""53BE65A0D9D045D693E666AD3994ADAD"",""assignmentId"":""e592bfe4-e59b-4184-ba8c-cffb5c4fec1d"",""projectId"":""051c06f1-75cc-4548-856d-4923ddaba0dc""}","https://test12345.live/?num_scrambled_semantic=8&num_scrambled_causal=4&num_scrambled_schematic=4&participantId=53BE65A0D9D045D693E666AD3994ADAD&assignmentId=e592bfe4-e59b-4184-ba8c-cffb5c4fec1d&projectId=051c06f1-75cc-4548-856d-4923ddaba0dc","53BE65A0D9D045D693E666AD3994ADAD-2025-05-15-18-53-39","","null","","[]","null","",""
"","","","","","html-audio-response","55","287517","0.0-11.0","53BE65A0D9D045D693E666AD3994ADAD","53BE65A0D9D045D693E666AD3994ADAD","e592bfe4-e59b-4184-ba8c-cffb5c4fec1d","051c06f1-75cc-4548-856d-4923ddaba0dc","{""num_scrambled_semantic"":""8"",""num_scrambled_causal"":""4"",""num_scrambled_schematic"":""4"",""participantId"":""53BE65A0D9D045D693E666AD3994ADAD"",""assignmentId"":""e592bfe4-e59b-4184-ba8c-cffb5c4fec1d"",""projectId"":""051c06f1-75cc-4548-856d-4923ddaba0dc""}","https://test12345.live/?num_scrambled_semantic=8&num_scrambled_causal=4&num_scrambled_schematic=4&participantId=53BE65A0D9D045D693E666AD3994ADAD&assignmentId=e592bfe4-e59b-4184-ba8c-cffb5c4fec1d&projectId=051c06f1-75cc-4548-856d-4923ddaba0dc","53BE65A0D9D045D693E666AD3994ADAD-2025-05-15-18-53-39","","null","","[""<span style=\""color: red; font-size: 24px\""> NOW RECORDING</span><p>Please say out loud all the images you saw, as many as you can remember. The images can be said in any order.</p>""]","","1","coin_causal"
"","","","","","image-button-response","56","293535","0.0-12.0-0.0","53BE65A0D9D045D693E666AD3994ADAD","53BE65A0D9D045D693E666AD3994ADAD","e592bfe4-e59b-4184-ba8c-cffb5c4fec1d","051c06f1-75cc-4548-856d-4923ddaba0dc","{""num_scrambled_semantic"":""8"",""num_scrambled_causal"":""4"",""num_scrambled_schematic"":""4"",""participantId"":""53BE65A0D9D045D693E666AD3994ADAD"",""assignmentId"":""e592bfe4-e59b-4184-ba8c-cffb5c4fec1d"",""projectId"":""051c06f1-75cc-4548-856d-4923ddaba0dc""}","https://test12345.live/?num_scrambled_semantic=8&num_scrambled_causal=4&num_scrambled_schematic=4&participantId=53BE65A0D9D045D693E666AD3994ADAD&assignmentId=e592bfe4-e59b-4184-ba8c-cffb5c4fec1d&projectId=051c06f1-75cc-4548-856d-4923ddaba0dc","53BE65A0D9D045D693E666AD3994ADAD-2025-05-15-18-53-39","","null","","images/semantic_sequence/physical_activity_semantic/physical_activity_semantic_0.png","null","",""
"","","","","","image-button-response","57","298039","0.0-12.0-1.0-0.0","53BE65A0D9D045D693E666AD3994ADAD","53BE65A0D9D045D693E666AD3994ADAD","e592bfe4-e59b-4184-ba8c-cffb5c4fec1d","051c06f1-75cc-4548-856d-4923ddaba0dc","{""num_scrambled_semantic"":""8"",""num_scrambled_causal"":""4"",""num_scrambled_schematic"":""4"",""participantId"":""53BE65A0D9D045D693E666AD3994ADAD"",""assignmentId"":""e592bfe4-e59b-4184-ba8c-cffb5c4fec1d"",""projectId"":""051c06f1-75cc-4548-856d-4923ddaba0dc""}","https://test12345.live/?num_scrambled_semantic=8&num_scrambled_causal=4&num_scrambled_schematic=4&participantId=53BE65A0D9D045D693E666AD3994ADAD&assignmentId=e592bfe4-e59b-4184-ba8c-cffb5c4fec1d&projectId=051c06f1-75cc-4548-856d-4923ddaba0dc","53BE65A0D9D045D693E666AD3994ADAD-2025-05-15-18-53-39","","null","","images/semantic_sequence/physical_activity_semantic/physical_activity_semantic_7.png","null","",""
"","","","","","image-button-response","58","298920","0.0-12.0-1.0-1.0","53BE65A0D9D045D693E666AD3994ADAD","53BE65A0D9D045D693E666AD3994ADAD","e592bfe4-e59b-4184-ba8c-cffb5c4fec1d","051c06f1-75cc-4548-856d-4923ddaba0dc","{""num_scrambled_semantic"":""8"",""num_scrambled_causal"":""4"",""num_scrambled_schematic"":""4"",""participantId"":""53BE65A0D9D045D693E666AD3994ADAD"",""assignmentId"":""e592bfe4-e59b-4184-ba8c-cffb5c4fec1d"",""projectId"":""051c06f1-75cc-4548-856d-4923ddaba0dc""}","https://test12345.live/?num_scrambled_semantic=8&num_scrambled_causal=4&num_scrambled_schematic=4&participantId=53BE65A0D9D045D693E666AD3994ADAD&assignmentId=e592bfe4-e59b-4184-ba8c-cffb5c4fec1d&projectId=051c06f1-75cc-4548-856d-4923ddaba0dc","53BE65A0D9D045D693E666AD3994ADAD-2025-05-15-18-53-39","","880","","images/semantic_sequence/physical_activity_semantic/physical_activity_semantic_7.png","0","",""
"","","","","","image-button-response","59","300725","0.0-12.0-1.0-2.0","53BE65A0D9D045D693E666AD3994ADAD","53BE65A0D9D045D693E666AD3994ADAD","e592bfe4-e59b-4184-ba8c-cffb5c4fec1d","051c06f1-75cc-4548-856d-4923ddaba0dc","{""num_scrambled_semantic"":""8"",""num_scrambled_causal"":""4"",""num_scrambled_schematic"":""4"",""participantId"":""53BE65A0D9D045D693E666AD3994ADAD"",""assignmentId"":""e592bfe4-e59b-4184-ba8c-cffb5c4fec1d"",""projectId"":""051c06f1-75cc-4548-856d-4923ddaba0dc""}","https://test12345.live/?num_scrambled_semantic=8&num_scrambled_causal=4&num_scrambled_schematic=4&participantId=53BE65A0D9D045D693E666AD3994ADAD&assignmentId=e592bfe4-e59b-4184-ba8c-cffb5c4fec1d&projectId=051c06f1-75cc-4548-856d-4923ddaba0dc","53BE65A0D9D045D693E666AD3994ADAD-2025-05-15-18-53-39","","null","","[]","null","",""
"","","","","","image-button-response","60","305229","0.0-12.0-1.0-0.1","53BE65A0D9D045D693E666AD3994ADAD","53BE65A0D9D045D693E666AD3994ADAD","e592bfe4-e59b-4184-ba8c-cffb5c4fec1d","051c06f1-75cc-4548-856d-4923ddaba0dc","{""num_scrambled_semantic"":""8"",""num_scrambled_causal"":""4"",""num_scrambled_schematic"":""4"",""participantId"":""53BE65A0D9D045D693E666AD3994ADAD"",""assignmentId"":""e592bfe4-e59b-4184-ba8c-cffb5c4fec1d"",""projectId"":""051c06f1-75cc-4548-856d-4923ddaba0dc""}","https://test12345.live/?num_scrambled_semantic=8&num_scrambled_causal=4&num_scrambled_schematic=4&participantId=53BE65A0D9D045D693E666AD3994ADAD&assignmentId=e592bfe4-e59b-4184-ba8c-cffb5c4fec1d&projectId=051c06f1-75cc-4548-856d-4923ddaba0dc","53BE65A0D9D045D693E666AD3994ADAD-2025-05-15-18-53-39","","null","","images/semantic_sequence/physical_activity_semantic/physical_activity_semantic_2.png","null","",""
"","","","","","image-button-response","61","306385","0.0-12.0-1.0-1.1","53BE65A0D9D045D693E666AD3994ADAD","53BE65A0D9D045D693E666AD3994ADAD","e592bfe4-e59b-4184-ba8c-cffb5c4fec1d","051c06f1-75cc-4548-856d-4923ddaba0dc","{""num_scrambled_semantic"":""8"",""num_scrambled_causal"":""4"",""num_scrambled_schematic"":""4"",""participantId"":""53BE65A0D9D045D693E666AD3994ADAD"",""assignmentId"":""e592bfe4-e59b-4184-ba8c-cffb5c4fec1d"",""projectId"":""051c06f1-75cc-4548-856d-4923ddaba0dc""}","https://test12345.live/?num_scrambled_semantic=8&num_scrambled_causal=4&num_scrambled_schematic=4&participantId=53BE65A0D9D045D693E666AD3994ADAD&assignmentId=e592bfe4-e59b-4184-ba8c-cffb5c4fec1d&projectId=051c06f1-75cc-4548-856d-4923ddaba0dc","53BE65A0D9D045D693E666AD3994ADAD-2025-05-15-18-53-39","","1153","","images/semantic_sequence/physical_activity_semantic/physical_activity_semantic_2.png","0","",""
"","","","","","image-button-response","62","308195","0.0-12.0-1.0-2.1","53BE65A0D9D045D693E666AD3994ADAD","53BE65A0D9D045D693E666AD3994ADAD","e592bfe4-e59b-4184-ba8c-cffb5c4fec1d","051c06f1-75cc-4548-856d-4923ddaba0dc","{""num_scrambled_semantic"":""8"",""num_scrambled_causal"":""4"",""num_scrambled_schematic"":""4"",""participantId"":""53BE65A0D9D045D693E666AD3994ADAD"",""assignmentId"":""e592bfe4-e59b-4184-ba8c-cffb5c4fec1d"",""projectId"":""051c06f1-75cc-4548-856d-4923ddaba0dc""}","https://test12345.live/?num_scrambled_semantic=8&num_scrambled_causal=4&num_scrambled_schematic=4&participantId=53BE65A0D9D045D693E666AD3994ADAD&assignmentId=e592bfe4-e59b-4184-ba8c-cffb5c4fec1d&projectId=051c06f1-75cc-4548-856d-4923ddaba0dc","53BE65A0D9D045D693E666AD3994ADAD-2025-05-15-18-53-39","","null","","[]","null","",""
"","","","","","image-button-response","63","312701","0.0-12.0-1.0-0.2","53BE65A0D9D045D693E666AD3994ADAD","53BE65A0D9D045D693E666AD3994ADAD","e592bfe4-e59b-4184-ba8c-cffb5c4fec1d","051c06f1-75cc-4548-856d-4923ddaba0dc","{""num_scrambled_semantic"":""8"",""num_scrambled_causal"":""4"",""num_scrambled_schematic"":""4"",""participantId"":""53BE65A0D9D045D693E666AD3994ADAD"",""assignmentId"":""e592bfe4-e59b-4184-ba8c-cffb5c4fec1d"",""projectId"":""051c06f1-75cc-4548-856d-4923ddaba0dc""}","https://test12345.live/?num_scrambled_semantic=8&num_scrambled_causal=4&num_scrambled_schematic=4&participantId=53BE65A0D9D045D693E666AD3994ADAD&assignmentId=e592bfe4-e59b-4184-ba8c-cffb5c4fec1d&projectId=051c06f1-75cc-4548-856d-4923ddaba0dc","53BE65A0D9D045D693E666AD3994ADAD-2025-05-15-18-53-39","","null","","images/semantic_sequence/physical_activity_semantic/physical_activity_semantic_4.png","null","",""
"","","","","","image-button-response","64","313501","0.0-12.0-1.0-1.2","53BE65A0D9D045D693E666AD3994ADAD","53BE65A0D9D045D693E666AD3994ADAD","e592bfe4-e59b-4184-ba8c-cffb5c4fec1d","051c06f1-75cc-4548-856d-4923ddaba0dc","{""num_scrambled_semantic"":""8"",""num_scrambled_causal"":""4"",""num_scrambled_schematic"":""4"",""participantId"":""53BE65A0D9D045D693E666AD3994ADAD"",""assignmentId"":""e592bfe4-e59b-4184-ba8c-cffb5c4fec1d"",""projectId"":""051c06f1-75cc-4548-856d-4923ddaba0dc""}","https://test12345.live/?num_scrambled_semantic=8&num_scrambled_causal=4&num_scrambled_schematic=4&participantId=53BE65A0D9D045D693E666AD3994ADAD&assignmentId=e592bfe4-e59b-4184-ba8c-cffb5c4fec1d&projectId=051c06f1-75cc-4548-856d-4923ddaba0dc","53BE65A0D9D045D693E666AD3994ADAD-2025-05-15-18-53-39","","798","","images/semantic_sequence/physical_activity_semantic/physical_activity_semantic_4.png","0","",""
"","","","","","image-button-response","65","315307","0.0-12.0-1.0-2.2","53BE65A0D9D045D693E666AD3994ADAD","53BE65A0D9D045D693E666AD3994ADAD","e592bfe4-e59b-4184-ba8c-cffb5c4fec1d","051c06f1-75cc-4548-856d-4923ddaba0dc","{""num_scrambled_semantic"":""8"",""num_scrambled_causal"":""4"",""num_scrambled_schematic"":""4"",""participantId"":""53BE65A0D9D045D693E666AD3994ADAD"",""assignmentId"":""e592bfe4-e59b-4184-ba8c-cffb5c4fec1d"",""projectId"":""051c06f1-75cc-4548-856d-4923ddaba0dc""}","https://test12345.live/?num_scrambled_semantic=8&num_scrambled_causal=4&num_scrambled_schematic=4&participantId=53BE65A0D9D045D693E666AD3994ADAD&assignmentId=e592bfe4-e59b-4184-ba8c-cffb5c4fec1d&projectId=051c06f1-75cc-4548-856d-4923ddaba0dc","53BE65A0D9D045D693E666AD3994ADAD-2025-05-15-18-53-39","","null","","[]","null","",""
"","","","","","image-button-response","66","319810","0.0-12.0-1.0-0.3","53BE65A0D9D045D693E666AD3994ADAD","53BE65A0D9D045D693E666AD3994ADAD","e592bfe4-e59b-4184-ba8c-cffb5c4fec1d","051c06f1-75cc-4548-856d-4923ddaba0dc","{""num_scrambled_semantic"":""8"",""num_scrambled_causal"":""4"",""num_scrambled_schematic"":""4"",""participantId"":""53BE65A0D9D045D693E666AD3994ADAD"",""assignmentId"":""e592bfe4-e59b-4184-ba8c-cffb5c4fec1d"",""projectId"":""051c06f1-75cc-4548-856d-4923ddaba0dc""}","https://test12345.live/?num_scrambled_semantic=8&num_scrambled_causal=4&num_scrambled_schematic=4&participantId=53BE65A0D9D045D693E666AD3994ADAD&assignmentId=e592bfe4-e59b-4184-ba8c-cffb5c4fec1d&projectId=051c06f1-75cc-4548-856d-4923ddaba0dc","53BE65A0D9D045D693E666AD3994ADAD-2025-05-15-18-53-39","","null","","images/semantic_sequence/physical_activity_semantic/physical_activity_semantic_ten.png","null","",""
"","","","","","image-button-response","67","320667","0.0-12.0-1.0-1.3","53BE65A0D9D045D693E666AD3994ADAD","53BE65A0D9D045D693E666AD3994ADAD","e592bfe4-e59b-4184-ba8c-cffb5c4fec1d","051c06f1-75cc-4548-856d-4923ddaba0dc","{""num_scrambled_semantic"":""8"",""num_scrambled_causal"":""4"",""num_scrambled_schematic"":""4"",""participantId"":""53BE65A0D9D045D693E666AD3994ADAD"",""assignmentId"":""e592bfe4-e59b-4184-ba8c-cffb5c4fec1d"",""projectId"":""051c06f1-75cc-4548-856d-4923ddaba0dc""}","https://test12345.live/?num_scrambled_semantic=8&num_scrambled_causal=4&num_scrambled_schematic=4&participantId=53BE65A0D9D045D693E666AD3994ADAD&assignmentId=e592bfe4-e59b-4184-ba8c-cffb5c4fec1d&projectId=051c06f1-75cc-4548-856d-4923ddaba0dc","53BE65A0D9D045D693E666AD3994ADAD-2025-05-15-18-53-39","","856","","images/semantic_sequence/physical_activity_semantic/physical_activity_semantic_ten.png","0","",""
"","","","","","image-button-response","68","322473","0.0-12.0-1.0-2.3","53BE65A0D9D045D693E666AD3994ADAD","53BE65A0D9D045D693E666AD3994ADAD","e592bfe4-e59b-4184-ba8c-cffb5c4fec1d","051c06f1-75cc-4548-856d-4923ddaba0dc","{""num_scrambled_semantic"":""8"",""num_scrambled_causal"":""4"",""num_scrambled_schematic"":""4"",""participantId"":""53BE65A0D9D045D693E666AD3994ADAD"",""assignmentId"":""e592bfe4-e59b-4184-ba8c-cffb5c4fec1d"",""projectId"":""051c06f1-75cc-4548-856d-4923ddaba0dc""}","https://test12345.live/?num_scrambled_semantic=8&num_scrambled_causal=4&num_scrambled_schematic=4&participantId=53BE65A0D9D045D693E666AD3994ADAD&assignmentId=e592bfe4-e59b-4184-ba8c-cffb5c4fec1d&projectId=051c06f1-75cc-4548-856d-4923ddaba0dc","53BE65A0D9D045D693E666AD3994ADAD-2025-05-15-18-53-39","","null","","[]","null","",""
"","","","","","image-button-response","69","326980","0.0-12.0-1.0-0.4","53BE65A0D9D045D693E666AD3994ADAD","53BE65A0D9D045D693E666AD3994ADAD","e592bfe4-e59b-4184-ba8c-cffb5c4fec1d","051c06f1-75cc-4548-856d-4923ddaba0dc","{""num_scrambled_semantic"":""8"",""num_scrambled_causal"":""4"",""num_scrambled_schematic"":""4"",""participantId"":""53BE65A0D9D045D693E666AD3994ADAD"",""assignmentId"":""e592bfe4-e59b-4184-ba8c-cffb5c4fec1d"",""projectId"":""051c06f1-75cc-4548-856d-4923ddaba0dc""}","https://test12345.live/?num_scrambled_semantic=8&num_scrambled_causal=4&num_scrambled_schematic=4&participantId=53BE65A0D9D045D693E666AD3994ADAD&assignmentId=e592bfe4-e59b-4184-ba8c-cffb5c4fec1d&projectId=051c06f1-75cc-4548-856d-4923ddaba0dc","53BE65A0D9D045D693E666AD3994ADAD-2025-05-15-18-53-39","","null","","images/semantic_sequence/physical_activity_semantic/physical_activity_semantic_9.png","null","",""
"","","","","","image-button-response","70","327744","0.0-12.0-1.0-1.4","53BE65A0D9D045D693E666AD3994ADAD","53BE65A0D9D045D693E666AD3994ADAD","e592bfe4-e59b-4184-ba8c-cffb5c4fec1d","051c06f1-75cc-4548-856d-4923ddaba0dc","{""num_scrambled_semantic"":""8"",""num_scrambled_causal"":""4"",""num_scrambled_schematic"":""4"",""participantId"":""53BE65A0D9D045D693E666AD3994ADAD"",""assignmentId"":""e592bfe4-e59b-4184-ba8c-cffb5c4fec1d"",""projectId"":""051c06f1-75cc-4548-856d-4923ddaba0dc""}","https://test12345.live/?num_scrambled_semantic=8&num_scrambled_causal=4&num_scrambled_schematic=4&participantId=53BE65A0D9D045D693E666AD3994ADAD&assignmentId=e592bfe4-e59b-4184-ba8c-cffb5c4fec1d&projectId=051c06f1-75cc-4548-856d-4923ddaba0dc","53BE65A0D9D045D693E666AD3994ADAD-2025-05-15-18-53-39","","763","","images/semantic_sequence/physical_activity_semantic/physical_activity_semantic_9.png","0","",""
"","","","","","image-button-response","71","329550","0.0-12.0-1.0-2.4","53BE65A0D9D045D693E666AD3994ADAD","53BE65A0D9D045D693E666AD3994ADAD","e592bfe4-e59b-4184-ba8c-cffb5c4fec1d","051c06f1-75cc-4548-856d-4923ddaba0dc","{""num_scrambled_semantic"":""8"",""num_scrambled_causal"":""4"",""num_scrambled_schematic"":""4"",""participantId"":""53BE65A0D9D045D693E666AD3994ADAD"",""assignmentId"":""e592bfe4-e59b-4184-ba8c-cffb5c4fec1d"",""projectId"":""051c06f1-75cc-4548-856d-4923ddaba0dc""}","https://test12345.live/?num_scrambled_semantic=8&num_scrambled_causal=4&num_scrambled_schematic=4&participantId=53BE65A0D9D045D693E666AD3994ADAD&assignmentId=e592bfe4-e59b-4184-ba8c-cffb5c4fec1d&projectId=051c06f1-75cc-4548-856d-4923ddaba0dc","53BE65A0D9D045D693E666AD3994ADAD-2025-05-15-18-53-39","","null","","[]","null","",""
"","","","","","image-button-response","72","334055","0.0-12.0-1.0-0.5","53BE65A0D9D045D693E666AD3994ADAD","53BE65A0D9D045D693E666AD3994ADAD","e592bfe4-e59b-4184-ba8c-cffb5c4fec1d","051c06f1-75cc-4548-856d-4923ddaba0dc","{""num_scrambled_semantic"":""8"",""num_scrambled_causal"":""4"",""num_scrambled_schematic"":""4"",""participantId"":""53BE65A0D9D045D693E666AD3994ADAD"",""assignmentId"":""e592bfe4-e59b-4184-ba8c-cffb5c4fec1d"",""projectId"":""051c06f1-75cc-4548-856d-4923ddaba0dc""}","https://test12345.live/?num_scrambled_semantic=8&num_scrambled_causal=4&num_scrambled_schematic=4&participantId=53BE65A0D9D045D693E666AD3994ADAD&assignmentId=e592bfe4-e59b-4184-ba8c-cffb5c4fec1d&projectId=051c06f1-75cc-4548-856d-4923ddaba0dc","53BE65A0D9D045D693E666AD3994ADAD-2025-05-15-18-53-39","","null","","images/semantic_sequence/physical_activity_semantic/physical_activity_semantic_1.png","null","",""
"","","","","","image-button-response","73","334888","0.0-12.0-1.0-1.5","53BE65A0D9D045D693E666AD3994ADAD","53BE65A0D9D045D693E666AD3994ADAD","e592bfe4-e59b-4184-ba8c-cffb5c4fec1d","051c06f1-75cc-4548-856d-4923ddaba0dc","{""num_scrambled_semantic"":""8"",""num_scrambled_causal"":""4"",""num_scrambled_schematic"":""4"",""participantId"":""53BE65A0D9D045D693E666AD3994ADAD"",""assignmentId"":""e592bfe4-e59b-4184-ba8c-cffb5c4fec1d"",""projectId"":""051c06f1-75cc-4548-856d-4923ddaba0dc""}","https://test12345.live/?num_scrambled_semantic=8&num_scrambled_causal=4&num_scrambled_schematic=4&participantId=53BE65A0D9D045D693E666AD3994ADAD&assignmentId=e592bfe4-e59b-4184-ba8c-cffb5c4fec1d&projectId=051c06f1-75cc-4548-856d-4923ddaba0dc","53BE65A0D9D045D693E666AD3994ADAD-2025-05-15-18-53-39","","830","","images/semantic_sequence/physical_activity_semantic/physical_activity_semantic_1.png","0","",""
"","","","","","image-button-response","74","336692","0.0-12.0-1.0-2.5","53BE65A0D9D045D693E666AD3994ADAD","53BE65A0D9D045D693E666AD3994ADAD","e592bfe4-e59b-4184-ba8c-cffb5c4fec1d","051c06f1-75cc-4548-856d-4923ddaba0dc","{""num_scrambled_semantic"":""8"",""num_scrambled_causal"":""4"",""num_scrambled_schematic"":""4"",""participantId"":""53BE65A0D9D045D693E666AD3994ADAD"",""assignmentId"":""e592bfe4-e59b-4184-ba8c-cffb5c4fec1d"",""projectId"":""051c06f1-75cc-4548-856d-4923ddaba0dc""}","https://test12345.live/?num_scrambled_semantic=8&num_scrambled_causal=4&num_scrambled_schematic=4&participantId=53BE65A0D9D045D693E666AD3994ADAD&assignmentId=e592bfe4-e59b-4184-ba8c-cffb5c4fec1d&projectId=051c06f1-75cc-4548-856d-4923ddaba0dc","53BE65A0D9D045D693E666AD3994ADAD-2025-05-15-18-53-39","","null","","[]","null","",""
"","","","","","image-button-response","75","341200","0.0-12.0-1.0-0.6","53BE65A0D9D045D693E666AD3994ADAD","53BE65A0D9D045D693E666AD3994ADAD","e592bfe4-e59b-4184-ba8c-cffb5c4fec1d","051c06f1-75cc-4548-856d-4923ddaba0dc","{""num_scrambled_semantic"":""8"",""num_scrambled_causal"":""4"",""num_scrambled_schematic"":""4"",""participantId"":""53BE65A0D9D045D693E666AD3994ADAD"",""assignmentId"":""e592bfe4-e59b-4184-ba8c-cffb5c4fec1d"",""projectId"":""051c06f1-75cc-4548-856d-4923ddaba0dc""}","https://test12345.live/?num_scrambled_semantic=8&num_scrambled_causal=4&num_scrambled_schematic=4&participantId=53BE65A0D9D045D693E666AD3994ADAD&assignmentId=e592bfe4-e59b-4184-ba8c-cffb5c4fec1d&projectId=051c06f1-75cc-4548-856d-4923ddaba0dc","53BE65A0D9D045D693E666AD3994ADAD-2025-05-15-18-53-39","","null","","images/semantic_sequence/physical_activity_semantic/physical_activity_semantic_8.png","null","",""
"","","","","","image-button-response","76","342012","0.0-12.0-1.0-1.6","53BE65A0D9D045D693E666AD3994ADAD","53BE65A0D9D045D693E666AD3994ADAD","e592bfe4-e59b-4184-ba8c-cffb5c4fec1d","051c06f1-75cc-4548-856d-4923ddaba0dc","{""num_scrambled_semantic"":""8"",""num_scrambled_causal"":""4"",""num_scrambled_schematic"":""4"",""participantId"":""53BE65A0D9D045D693E666AD3994ADAD"",""assignmentId"":""e592bfe4-e59b-4184-ba8c-cffb5c4fec1d"",""projectId"":""051c06f1-75cc-4548-856d-4923ddaba0dc""}","https://test12345.live/?num_scrambled_semantic=8&num_scrambled_causal=4&num_scrambled_schematic=4&participantId=53BE65A0D9D045D693E666AD3994ADAD&assignmentId=e592bfe4-e59b-4184-ba8c-cffb5c4fec1d&projectId=051c06f1-75cc-4548-856d-4923ddaba0dc","53BE65A0D9D045D693E666AD3994ADAD-2025-05-15-18-53-39","","810","","images/semantic_sequence/physical_activity_semantic/physical_activity_semantic_8.png","0","",""
"","","","","","image-button-response","77","343816","0.0-12.0-1.0-2.6","53BE65A0D9D045D693E666AD3994ADAD","53BE65A0D9D045D693E666AD3994ADAD","e592bfe4-e59b-4184-ba8c-cffb5c4fec1d","051c06f1-75cc-4548-856d-4923ddaba0dc","{""num_scrambled_semantic"":""8"",""num_scrambled_causal"":""4"",""num_scrambled_schematic"":""4"",""participantId"":""53BE65A0D9D045D693E666AD3994ADAD"",""assignmentId"":""e592bfe4-e59b-4184-ba8c-cffb5c4fec1d"",""projectId"":""051c06f1-75cc-4548-856d-4923ddaba0dc""}","https://test12345.live/?num_scrambled_semantic=8&num_scrambled_causal=4&num_scrambled_schematic=4&participantId=53BE65A0D9D045D693E666AD3994ADAD&assignmentId=e592bfe4-e59b-4184-ba8c-cffb5c4fec1d&projectId=051c06f1-75cc-4548-856d-4923ddaba0dc","53BE65A0D9D045D693E666AD3994ADAD-2025-05-15-18-53-39","","null","","[]","null","",""
"","","","","","image-button-response","78","348320","0.0-12.0-1.0-0.7","53BE65A0D9D045D693E666AD3994ADAD","53BE65A0D9D045D693E666AD3994ADAD","e592bfe4-e59b-4184-ba8c-cffb5c4fec1d","051c06f1-75cc-4548-856d-4923ddaba0dc","{""num_scrambled_semantic"":""8"",""num_scrambled_causal"":""4"",""num_scrambled_schematic"":""4"",""participantId"":""53BE65A0D9D045D693E666AD3994ADAD"",""assignmentId"":""e592bfe4-e59b-4184-ba8c-cffb5c4fec1d"",""projectId"":""051c06f1-75cc-4548-856d-4923ddaba0dc""}","https://test12345.live/?num_scrambled_semantic=8&num_scrambled_causal=4&num_scrambled_schematic=4&participantId=53BE65A0D9D045D693E666AD3994ADAD&assignmentId=e592bfe4-e59b-4184-ba8c-cffb5c4fec1d&projectId=051c06f1-75cc-4548-856d-4923ddaba0dc","53BE65A0D9D045D693E666AD3994ADAD-2025-05-15-18-53-39","","null","","images/semantic_sequence/physical_activity_semantic/physical_activity_semantic_3.png","null","",""
"","","","","","image-button-response","79","349124","0.0-12.0-1.0-1.7","53BE65A0D9D045D693E666AD3994ADAD","53BE65A0D9D045D693E666AD3994ADAD","e592bfe4-e59b-4184-ba8c-cffb5c4fec1d","051c06f1-75cc-4548-856d-4923ddaba0dc","{""num_scrambled_semantic"":""8"",""num_scrambled_causal"":""4"",""num_scrambled_schematic"":""4"",""participantId"":""53BE65A0D9D045D693E666AD3994ADAD"",""assignmentId"":""e592bfe4-e59b-4184-ba8c-cffb5c4fec1d"",""projectId"":""051c06f1-75cc-4548-856d-4923ddaba0dc""}","https://test12345.live/?num_scrambled_semantic=8&num_scrambled_causal=4&num_scrambled_schematic=4&participantId=53BE65A0D9D045D693E666AD3994ADAD&assignmentId=e592bfe4-e59b-4184-ba8c-cffb5c4fec1d&projectId=051c06f1-75cc-4548-856d-4923ddaba0dc","53BE65A0D9D045D693E666AD3994ADAD-2025-05-15-18-53-39","","802","","images/semantic_sequence/physical_activity_semantic/physical_activity_semantic_3.png","0","",""
"","","","","","image-button-response","80","350930","0.0-12.0-1.0-2.7","53BE65A0D9D045D693E666AD3994ADAD","53BE65A0D9D045D693E666AD3994ADAD","e592bfe4-e59b-4184-ba8c-cffb5c4fec1d","051c06f1-75cc-4548-856d-4923ddaba0dc","{""num_scrambled_semantic"":""8"",""num_scrambled_causal"":""4"",""num_scrambled_schematic"":""4"",""participantId"":""53BE65A0D9D045D693E666AD3994ADAD"",""assignmentId"":""e592bfe4-e59b-4184-ba8c-cffb5c4fec1d"",""projectId"":""051c06f1-75cc-4548-856d-4923ddaba0dc""}","https://test12345.live/?num_scrambled_semantic=8&num_scrambled_causal=4&num_scrambled_schematic=4&participantId=53BE65A0D9D045D693E666AD3994ADAD&assignmentId=e592bfe4-e59b-4184-ba8c-cffb5c4fec1d&projectId=051c06f1-75cc-4548-856d-4923ddaba0dc","53BE65A0D9D045D693E666AD3994ADAD-2025-05-15-18-53-39","","null","","[]","null","",""
"","","","","","image-button-response","81","355436","0.0-12.0-1.0-0.8","53BE65A0D9D045D693E666AD3994ADAD","53BE65A0D9D045D693E666AD3994ADAD","e592bfe4-e59b-4184-ba8c-cffb5c4fec1d","051c06f1-75cc-4548-856d-4923ddaba0dc","{""num_scrambled_semantic"":""8"",""num_scrambled_causal"":""4"",""num_scrambled_schematic"":""4"",""participantId"":""53BE65A0D9D045D693E666AD3994ADAD"",""assignmentId"":""e592bfe4-e59b-4184-ba8c-cffb5c4fec1d"",""projectId"":""051c06f1-75cc-4548-856d-4923ddaba0dc""}","https://test12345.live/?num_scrambled_semantic=8&num_scrambled_causal=4&num_scrambled_schematic=4&participantId=53BE65A0D9D045D693E666AD3994ADAD&assignmentId=e592bfe4-e59b-4184-ba8c-cffb5c4fec1d&projectId=051c06f1-75cc-4548-856d-4923ddaba0dc","53BE65A0D9D045D693E666AD3994ADAD-2025-05-15-18-53-39","","null","","images/semantic_sequence/physical_activity_semantic/physical_activity_semantic_5.png","null","",""
"","","","","","image-button-response","82","356917","0.0-12.0-1.0-1.8","53BE65A0D9D045D693E666AD3994ADAD","53BE65A0D9D045D693E666AD3994ADAD","e592bfe4-e59b-4184-ba8c-cffb5c4fec1d","051c06f1-75cc-4548-856d-4923ddaba0dc","{""num_scrambled_semantic"":""8"",""num_scrambled_causal"":""4"",""num_scrambled_schematic"":""4"",""participantId"":""53BE65A0D9D045D693E666AD3994ADAD"",""assignmentId"":""e592bfe4-e59b-4184-ba8c-cffb5c4fec1d"",""projectId"":""051c06f1-75cc-4548-856d-4923ddaba0dc""}","https://test12345.live/?num_scrambled_semantic=8&num_scrambled_causal=4&num_scrambled_schematic=4&participantId=53BE65A0D9D045D693E666AD3994ADAD&assignmentId=e592bfe4-e59b-4184-ba8c-cffb5c4fec1d&projectId=051c06f1-75cc-4548-856d-4923ddaba0dc","53BE65A0D9D045D693E666AD3994ADAD-2025-05-15-18-53-39","","1479","","images/semantic_sequence/physical_activity_semantic/physical_activity_semantic_5.png","0","",""
"","","","","","image-button-response","83","358720","0.0-12.0-1.0-2.8","53BE65A0D9D045D693E666AD3994ADAD","53BE65A0D9D045D693E666AD3994ADAD","e592bfe4-e59b-4184-ba8c-cffb5c4fec1d","051c06f1-75cc-4548-856d-4923ddaba0dc","{""num_scrambled_semantic"":""8"",""num_scrambled_causal"":""4"",""num_scrambled_schematic"":""4"",""participantId"":""53BE65A0D9D045D693E666AD3994ADAD"",""assignmentId"":""e592bfe4-e59b-4184-ba8c-cffb5c4fec1d"",""projectId"":""051c06f1-75cc-4548-856d-4923ddaba0dc""}","https://test12345.live/?num_scrambled_semantic=8&num_scrambled_causal=4&num_scrambled_schematic=4&participantId=53BE65A0D9D045D693E666AD3994ADAD&assignmentId=e592bfe4-e59b-4184-ba8c-cffb5c4fec1d&projectId=051c06f1-75cc-4548-856d-4923ddaba0dc","53BE65A0D9D045D693E666AD3994ADAD-2025-05-15-18-53-39","","null","","[]","null","",""
"","","","","","image-button-response","84","363226","0.0-12.0-1.0-0.9","53BE65A0D9D045D693E666AD3994ADAD","53BE65A0D9D045D693E666AD3994ADAD","e592bfe4-e59b-4184-ba8c-cffb5c4fec1d","051c06f1-75cc-4548-856d-4923ddaba0dc","{""num_scrambled_semantic"":""8"",""num_scrambled_causal"":""4"",""num_scrambled_schematic"":""4"",""participantId"":""53BE65A0D9D045D693E666AD3994ADAD"",""assignmentId"":""e592bfe4-e59b-4184-ba8c-cffb5c4fec1d"",""projectId"":""051c06f1-75cc-4548-856d-4923ddaba0dc""}","https://test12345.live/?num_scrambled_semantic=8&num_scrambled_causal=4&num_scrambled_schematic=4&participantId=53BE65A0D9D045D693E666AD3994ADAD&assignmentId=e592bfe4-e59b-4184-ba8c-cffb5c4fec1d&projectId=051c06f1-75cc-4548-856d-4923ddaba0dc","53BE65A0D9D045D693E666AD3994ADAD-2025-05-15-18-53-39","","null","","images/semantic_sequence/physical_activity_semantic/physical_activity_semantic_6.png","null","",""
"","","","","","image-button-response","85","364633","0.0-12.0-1.0-1.9","53BE65A0D9D045D693E666AD3994ADAD","53BE65A0D9D045D693E666AD3994ADAD","e592bfe4-e59b-4184-ba8c-cffb5c4fec1d","051c06f1-75cc-4548-856d-4923ddaba0dc","{""num_scrambled_semantic"":""8"",""num_scrambled_causal"":""4"",""num_scrambled_schematic"":""4"",""participantId"":""53BE65A0D9D045D693E666AD3994ADAD"",""assignmentId"":""e592bfe4-e59b-4184-ba8c-cffb5c4fec1d"",""projectId"":""051c06f1-75cc-4548-856d-4923ddaba0dc""}","https://test12345.live/?num_scrambled_semantic=8&num_scrambled_causal=4&num_scrambled_schematic=4&participantId=53BE65A0D9D045D693E666AD3994ADAD&assignmentId=e592bfe4-e59b-4184-ba8c-cffb5c4fec1d&projectId=051c06f1-75cc-4548-856d-4923ddaba0dc","53BE65A0D9D045D693E666AD3994ADAD-2025-05-15-18-53-39","","1405","","images/semantic_sequence/physical_activity_semantic/physical_activity_semantic_6.png","0","",""
"","","","","","image-button-response","86","366436","0.0-12.0-1.0-2.9","53BE65A0D9D045D693E666AD3994ADAD","53BE65A0D9D045D693E666AD3994ADAD","e592bfe4-e59b-4184-ba8c-cffb5c4fec1d","051c06f1-75cc-4548-856d-4923ddaba0dc","{""num_scrambled_semantic"":""8"",""num_scrambled_causal"":""4"",""num_scrambled_schematic"":""4"",""participantId"":""53BE65A0D9D045D693E666AD3994ADAD"",""assignmentId"":""e592bfe4-e59b-4184-ba8c-cffb5c4fec1d"",""projectId"":""051c06f1-75cc-4548-856d-4923ddaba0dc""}","https://test12345.live/?num_scrambled_semantic=8&num_scrambled_causal=4&num_scrambled_schematic=4&participantId=53BE65A0D9D045D693E666AD3994ADAD&assignmentId=e592bfe4-e59b-4184-ba8c-cffb5c4fec1d&projectId=051c06f1-75cc-4548-856d-4923ddaba0dc","53BE65A0D9D045D693E666AD3994ADAD-2025-05-15-18-53-39","","null","","[]","null","",""
"","","","","","html-audio-response","87","398760","0.0-13.0","53BE65A0D9D045D693E666AD3994ADAD","53BE65A0D9D045D693E666AD3994ADAD","e592bfe4-e59b-4184-ba8c-cffb5c4fec1d","051c06f1-75cc-4548-856d-4923ddaba0dc","{""num_scrambled_semantic"":""8"",""num_scrambled_causal"":""4"",""num_scrambled_schematic"":""4"",""participantId"":""53BE65A0D9D045D693E666AD3994ADAD"",""assignmentId"":""e592bfe4-e59b-4184-ba8c-cffb5c4fec1d"",""projectId"":""051c06f1-75cc-4548-856d-4923ddaba0dc""}","https://test12345.live/?num_scrambled_semantic=8&num_scrambled_causal=4&num_scrambled_schematic=4&participantId=53BE65A0D9D045D693E666AD3994ADAD&assignmentId=e592bfe4-e59b-4184-ba8c-cffb5c4fec1d&projectId=051c06f1-75cc-4548-856d-4923ddaba0dc","53BE65A0D9D045D693E666AD3994ADAD-2025-05-15-18-53-39","","30980","","[""<span style=\""color: red; font-size: 24px\""> NOW RECORDING</span><p>Please say out loud all the images you saw, as many as you can remember. The images can be said in any order.</p>""]","","1","physical_activity_semantic"
"","","","","","image-button-response","88","404774","0.0-14.0-0.0","53BE65A0D9D045D693E666AD3994ADAD","53BE65A0D9D045D693E666AD3994ADAD","e592bfe4-e59b-4184-ba8c-cffb5c4fec1d","051c06f1-75cc-4548-856d-4923ddaba0dc","{""num_scrambled_semantic"":""8"",""num_scrambled_causal"":""4"",""num_scrambled_schematic"":""4"",""participantId"":""53BE65A0D9D045D693E666AD3994ADAD"",""assignmentId"":""e592bfe4-e59b-4184-ba8c-cffb5c4fec1d"",""projectId"":""051c06f1-75cc-4548-856d-4923ddaba0dc""}","https://test12345.live/?num_scrambled_semantic=8&num_scrambled_causal=4&num_scrambled_schematic=4&participantId=53BE65A0D9D045D693E666AD3994ADAD&assignmentId=e592bfe4-e59b-4184-ba8c-cffb5c4fec1d&projectId=051c06f1-75cc-4548-856d-4923ddaba0dc","53BE65A0D9D045D693E666AD3994ADAD-2025-05-15-18-53-39","","null","","images/causal_sequence/the_performance_causal/the_performance_causal_0.png","null","",""
"","","","","","image-button-response","89","409281","0.0-14.0-1.0-0.0","53BE65A0D9D045D693E666AD3994ADAD","53BE65A0D9D045D693E666AD3994ADAD","e592bfe4-e59b-4184-ba8c-cffb5c4fec1d","051c06f1-75cc-4548-856d-4923ddaba0dc","{""num_scrambled_semantic"":""8"",""num_scrambled_causal"":""4"",""num_scrambled_schematic"":""4"",""participantId"":""53BE65A0D9D045D693E666AD3994ADAD"",""assignmentId"":""e592bfe4-e59b-4184-ba8c-cffb5c4fec1d"",""projectId"":""051c06f1-75cc-4548-856d-4923ddaba0dc""}","https://test12345.live/?num_scrambled_semantic=8&num_scrambled_causal=4&num_scrambled_schematic=4&participantId=53BE65A0D9D045D693E666AD3994ADAD&assignmentId=e592bfe4-e59b-4184-ba8c-cffb5c4fec1d&projectId=051c06f1-75cc-4548-856d-4923ddaba0dc","53BE65A0D9D045D693E666AD3994ADAD-2025-05-15-18-53-39","","null","","images/causal_sequence/the_performance_causal/the_performance_causal_1.png","null","",""
"","","","","","image-button-response","90","410386","0.0-14.0-1.0-1.0","53BE65A0D9D045D693E666AD3994ADAD","53BE65A0D9D045D693E666AD3994ADAD","e592bfe4-e59b-4184-ba8c-cffb5c4fec1d","051c06f1-75cc-4548-856d-4923ddaba0dc","{""num_scrambled_semantic"":""8"",""num_scrambled_causal"":""4"",""num_scrambled_schematic"":""4"",""participantId"":""53BE65A0D9D045D693E666AD3994ADAD"",""assignmentId"":""e592bfe4-e59b-4184-ba8c-cffb5c4fec1d"",""projectId"":""051c06f1-75cc-4548-856d-4923ddaba0dc""}","https://test12345.live/?num_scrambled_semantic=8&num_scrambled_causal=4&num_scrambled_schematic=4&participantId=53BE65A0D9D045D693E666AD3994ADAD&assignmentId=e592bfe4-e59b-4184-ba8c-cffb5c4fec1d&projectId=051c06f1-75cc-4548-856d-4923ddaba0dc","53BE65A0D9D045D693E666AD3994ADAD-2025-05-15-18-53-39","","1100","","images/causal_sequence/the_performance_causal/the_performance_causal_1.png","0","",""
"","","","","","image-button-response","91","412192","0.0-14.0-1.0-2.0","53BE65A0D9D045D693E666AD3994ADAD","53BE65A0D9D045D693E666AD3994ADAD","e592bfe4-e59b-4184-ba8c-cffb5c4fec1d","051c06f1-75cc-4548-856d-4923ddaba0dc","{""num_scrambled_semantic"":""8"",""num_scrambled_causal"":""4"",""num_scrambled_schematic"":""4"",""participantId"":""53BE65A0D9D045D693E666AD3994ADAD"",""assignmentId"":""e592bfe4-e59b-4184-ba8c-cffb5c4fec1d"",""projectId"":""051c06f1-75cc-4548-856d-4923ddaba0dc""}","https://test12345.live/?num_scrambled_semantic=8&num_scrambled_causal=4&num_scrambled_schematic=4&participantId=53BE65A0D9D045D693E666AD3994ADAD&assignmentId=e592bfe4-e59b-4184-ba8c-cffb5c4fec1d&projectId=051c06f1-75cc-4548-856d-4923ddaba0dc","53BE65A0D9D045D693E666AD3994ADAD-2025-05-15-18-53-39","","null","","[]","null","",""
"","","","","","image-button-response","92","416697","0.0-14.0-1.0-0.1","53BE65A0D9D045D693E666AD3994ADAD","53BE65A0D9D045D693E666AD3994ADAD","e592bfe4-e59b-4184-ba8c-cffb5c4fec1d","051c06f1-75cc-4548-856d-4923ddaba0dc","{""num_scrambled_semantic"":""8"",""num_scrambled_causal"":""4"",""num_scrambled_schematic"":""4"",""participantId"":""53BE65A0D9D045D693E666AD3994ADAD"",""assignmentId"":""e592bfe4-e59b-4184-ba8c-cffb5c4fec1d"",""projectId"":""051c06f1-75cc-4548-856d-4923ddaba0dc""}","https://test12345.live/?num_scrambled_semantic=8&num_scrambled_causal=4&num_scrambled_schematic=4&participantId=53BE65A0D9D045D693E666AD3994ADAD&assignmentId=e592bfe4-e59b-4184-ba8c-cffb5c4fec1d&projectId=051c06f1-75cc-4548-856d-4923ddaba0dc","53BE65A0D9D045D693E666AD3994ADAD-2025-05-15-18-53-39","","null","","images/causal_sequence/the_performance_causal/the_performance_causal_2.png","null","",""
"","","","","","image-button-response","93","417480","0.0-14.0-1.0-1.1","53BE65A0D9D045D693E666AD3994ADAD","53BE65A0D9D045D693E666AD3994ADAD","e592bfe4-e59b-4184-ba8c-cffb5c4fec1d","051c06f1-75cc-4548-856d-4923ddaba0dc","{""num_scrambled_semantic"":""8"",""num_scrambled_causal"":""4"",""num_scrambled_schematic"":""4"",""participantId"":""53BE65A0D9D045D693E666AD3994ADAD"",""assignmentId"":""e592bfe4-e59b-4184-ba8c-cffb5c4fec1d"",""projectId"":""051c06f1-75cc-4548-856d-4923ddaba0dc""}","https://test12345.live/?num_scrambled_semantic=8&num_scrambled_causal=4&num_scrambled_schematic=4&participantId=53BE65A0D9D045D693E666AD3994ADAD&assignmentId=e592bfe4-e59b-4184-ba8c-cffb5c4fec1d&projectId=051c06f1-75cc-4548-856d-4923ddaba0dc","53BE65A0D9D045D693E666AD3994ADAD-2025-05-15-18-53-39","","782","","images/causal_sequence/the_performance_causal/the_performance_causal_2.png","0","",""
"","","","","","image-button-response","94","419287","0.0-14.0-1.0-2.1","53BE65A0D9D045D693E666AD3994ADAD","53BE65A0D9D045D693E666AD3994ADAD","e592bfe4-e59b-4184-ba8c-cffb5c4fec1d","051c06f1-75cc-4548-856d-4923ddaba0dc","{""num_scrambled_semantic"":""8"",""num_scrambled_causal"":""4"",""num_scrambled_schematic"":""4"",""participantId"":""53BE65A0D9D045D693E666AD3994ADAD"",""assignmentId"":""e592bfe4-e59b-4184-ba8c-cffb5c4fec1d"",""projectId"":""051c06f1-75cc-4548-856d-4923ddaba0dc""}","https://test12345.live/?num_scrambled_semantic=8&num_scrambled_causal=4&num_scrambled_schematic=4&participantId=53BE65A0D9D045D693E666AD3994ADAD&assignmentId=e592bfe4-e59b-4184-ba8c-cffb5c4fec1d&projectId=051c06f1-75cc-4548-856d-4923ddaba0dc","53BE65A0D9D045D693E666AD3994ADAD-2025-05-15-18-53-39","","null","","[]","null","",""
"","","","","","image-button-response","95","423792","0.0-14.0-1.0-0.2","53BE65A0D9D045D693E666AD3994ADAD","53BE65A0D9D045D693E666AD3994ADAD","e592bfe4-e59b-4184-ba8c-cffb5c4fec1d","051c06f1-75cc-4548-856d-4923ddaba0dc","{""num_scrambled_semantic"":""8"",""num_scrambled_causal"":""4"",""num_scrambled_schematic"":""4"",""participantId"":""53BE65A0D9D045D693E666AD3994ADAD"",""assignmentId"":""e592bfe4-e59b-4184-ba8c-cffb5c4fec1d"",""projectId"":""051c06f1-75cc-4548-856d-4923ddaba0dc""}","https://test12345.live/?num_scrambled_semantic=8&num_scrambled_causal=4&num_scrambled_schematic=4&participantId=53BE65A0D9D045D693E666AD3994ADAD&assignmentId=e592bfe4-e59b-4184-ba8c-cffb5c4fec1d&projectId=051c06f1-75cc-4548-856d-4923ddaba0dc","53BE65A0D9D045D693E666AD3994ADAD-2025-05-15-18-53-39","","null","","images/causal_sequence/the_performance_causal/the_performance_causal_3.png","null","",""
"","","","","","image-button-response","96","424688","0.0-14.0-1.0-1.2","53BE65A0D9D045D693E666AD3994ADAD","53BE65A0D9D045D693E666AD3994ADAD","e592bfe4-e59b-4184-ba8c-cffb5c4fec1d","051c06f1-75cc-4548-856d-4923ddaba0dc","{""num_scrambled_semantic"":""8"",""num_scrambled_causal"":""4"",""num_scrambled_schematic"":""4"",""participantId"":""53BE65A0D9D045D693E666AD3994ADAD"",""assignmentId"":""e592bfe4-e59b-4184-ba8c-cffb5c4fec1d"",""projectId"":""051c06f1-75cc-4548-856d-4923ddaba0dc""}","https://test12345.live/?num_scrambled_semantic=8&num_scrambled_causal=4&num_scrambled_schematic=4&participantId=53BE65A0D9D045D693E666AD3994ADAD&assignmentId=e592bfe4-e59b-4184-ba8c-cffb5c4fec1d&projectId=051c06f1-75cc-4548-856d-4923ddaba0dc","53BE65A0D9D045D693E666AD3994ADAD-2025-05-15-18-53-39","","895","","images/causal_sequence/the_performance_causal/the_performance_causal_3.png","0","",""
"","","","","","image-button-response","97","426495","0.0-14.0-1.0-2.2","53BE65A0D9D045D693E666AD3994ADAD","53BE65A0D9D045D693E666AD3994ADAD","e592bfe4-e59b-4184-ba8c-cffb5c4fec1d","051c06f1-75cc-4548-856d-4923ddaba0dc","{""num_scrambled_semantic"":""8"",""num_scrambled_causal"":""4"",""num_scrambled_schematic"":""4"",""participantId"":""53BE65A0D9D045D693E666AD3994ADAD"",""assignmentId"":""e592bfe4-e59b-4184-ba8c-cffb5c4fec1d"",""projectId"":""051c06f1-75cc-4548-856d-4923ddaba0dc""}","https://test12345.live/?num_scrambled_semantic=8&num_scrambled_causal=4&num_scrambled_schematic=4&participantId=53BE65A0D9D045D693E666AD3994ADAD&assignmentId=e592bfe4-e59b-4184-ba8c-cffb5c4fec1d&projectId=051c06f1-75cc-4548-856d-4923ddaba0dc","53BE65A0D9D045D693E666AD3994ADAD-2025-05-15-18-53-39","","null","","[]","null","",""
"","","","","","image-button-response","98","431002","0.0-14.0-1.0-0.3","53BE65A0D9D045D693E666AD3994ADAD","53BE65A0D9D045D693E666AD3994ADAD","e592bfe4-e59b-4184-ba8c-cffb5c4fec1d","051c06f1-75cc-4548-856d-4923ddaba0dc","{""num_scrambled_semantic"":""8"",""num_scrambled_causal"":""4"",""num_scrambled_schematic"":""4"",""participantId"":""53BE65A0D9D045D693E666AD3994ADAD"",""assignmentId"":""e592bfe4-e59b-4184-ba8c-cffb5c4fec1d"",""projectId"":""051c06f1-75cc-4548-856d-4923ddaba0dc""}","https://test12345.live/?num_scrambled_semantic=8&num_scrambled_causal=4&num_scrambled_schematic=4&participantId=53BE65A0D9D045D693E666AD3994ADAD&assignmentId=e592bfe4-e59b-4184-ba8c-cffb5c4fec1d&projectId=051c06f1-75cc-4548-856d-4923ddaba0dc","53BE65A0D9D045D693E666AD3994ADAD-2025-05-15-18-53-39","","null","","images/causal_sequence/the_performance_causal/the_performance_causal_4.png","null","",""
"","","","","","image-button-response","99","432012","0.0-14.0-1.0-1.3","53BE65A0D9D045D693E666AD3994ADAD","53BE65A0D9D045D693E666AD3994ADAD","e592bfe4-e59b-4184-ba8c-cffb5c4fec1d","051c06f1-75cc-4548-856d-4923ddaba0dc","{""num_scrambled_semantic"":""8"",""num_scrambled_causal"":""4"",""num_scrambled_schematic"":""4"",""participantId"":""53BE65A0D9D045D693E666AD3994ADAD"",""assignmentId"":""e592bfe4-e59b-4184-ba8c-cffb5c4fec1d"",""projectId"":""051c06f1-75cc-4548-856d-4923ddaba0dc""}","https://test12345.live/?num_scrambled_semantic=8&num_scrambled_causal=4&num_scrambled_schematic=4&participantId=53BE65A0D9D045D693E666AD3994ADAD&assignmentId=e592bfe4-e59b-4184-ba8c-cffb5c4fec1d&projectId=051c06f1-75cc-4548-856d-4923ddaba0dc","53BE65A0D9D045D693E666AD3994ADAD-2025-05-15-18-53-39","","1008","","images/causal_sequence/the_performance_causal/the_performance_causal_4.png","0","",""
"","","","","","image-button-response","100","433818","0.0-14.0-1.0-2.3","53BE65A0D9D045D693E666AD3994ADAD","53BE65A0D9D045D693E666AD3994ADAD","e592bfe4-e59b-4184-ba8c-cffb5c4fec1d","051c06f1-75cc-4548-856d-4923ddaba0dc","{""num_scrambled_semantic"":""8"",""num_scrambled_causal"":""4"",""num_scrambled_schematic"":""4"",""participantId"":""53BE65A0D9D045D693E666AD3994ADAD"",""assignmentId"":""e592bfe4-e59b-4184-ba8c-cffb5c4fec1d"",""projectId"":""051c06f1-75cc-4548-856d-4923ddaba0dc""}","https://test12345.live/?num_scrambled_semantic=8&num_scrambled_causal=4&num_scrambled_schematic=4&participantId=53BE65A0D9D045D693E666AD3994ADAD&assignmentId=e592bfe4-e59b-4184-ba8c-cffb5c4fec1d&projectId=051c06f1-75cc-4548-856d-4923ddaba0dc","53BE65A0D9D045D693E666AD3994ADAD-2025-05-15-18-53-39","","null","","[]","null","",""
"","","","","","image-button-response","101","438322","0.0-14.0-1.0-0.4","53BE65A0D9D045D693E666AD3994ADAD","53BE65A0D9D045D693E666AD3994ADAD","e592bfe4-e59b-4184-ba8c-cffb5c4fec1d","051c06f1-75cc-4548-856d-4923ddaba0dc","{""num_scrambled_semantic"":""8"",""num_scrambled_causal"":""4"",""num_scrambled_schematic"":""4"",""participantId"":""53BE65A0D9D045D693E666AD3994ADAD"",""assignmentId"":""e592bfe4-e59b-4184-ba8c-cffb5c4fec1d"",""projectId"":""051c06f1-75cc-4548-856d-4923ddaba0dc""}","https://test12345.live/?num_scrambled_semantic=8&num_scrambled_causal=4&num_scrambled_schematic=4&participantId=53BE65A0D9D045D693E666AD3994ADAD&assignmentId=e592bfe4-e59b-4184-ba8c-cffb5c4fec1d&projectId=051c06f1-75cc-4548-856d-4923ddaba0dc","53BE65A0D9D045D693E666AD3994ADAD-2025-05-15-18-53-39","","null","","images/causal_sequence/the_performance_causal/the_performance_causal_5.png","null","",""
"","","","","","image-button-response","102","439242","0.0-14.0-1.0-1.4","53BE65A0D9D045D693E666AD3994ADAD","53BE65A0D9D045D693E666AD3994ADAD","e592bfe4-e59b-4184-ba8c-cffb5c4fec1d","051c06f1-75cc-4548-856d-4923ddaba0dc","{""num_scrambled_semantic"":""8"",""num_scrambled_causal"":""4"",""num_scrambled_schematic"":""4"",""participantId"":""53BE65A0D9D045D693E666AD3994ADAD"",""assignmentId"":""e592bfe4-e59b-4184-ba8c-cffb5c4fec1d"",""projectId"":""051c06f1-75cc-4548-856d-4923ddaba0dc""}","https://test12345.live/?num_scrambled_semantic=8&num_scrambled_causal=4&num_scrambled_schematic=4&participantId=53BE65A0D9D045D693E666AD3994ADAD&assignmentId=e592bfe4-e59b-4184-ba8c-cffb5c4fec1d&projectId=051c06f1-75cc-4548-856d-4923ddaba0dc","53BE65A0D9D045D693E666AD3994ADAD-2025-05-15-18-53-39","","918","","images/causal_sequence/the_performance_causal/the_performance_causal_5.png","0","",""
"","","","","","image-button-response","103","441048","0.0-14.0-1.0-2.4","53BE65A0D9D045D693E666AD3994ADAD","53BE65A0D9D045D693E666AD3994ADAD","e592bfe4-e59b-4184-ba8c-cffb5c4fec1d","051c06f1-75cc-4548-856d-4923ddaba0dc","{""num_scrambled_semantic"":""8"",""num_scrambled_causal"":""4"",""num_scrambled_schematic"":""4"",""participantId"":""53BE65A0D9D045D693E666AD3994ADAD"",""assignmentId"":""e592bfe4-e59b-4184-ba8c-cffb5c4fec1d"",""projectId"":""051c06f1-75cc-4548-856d-4923ddaba0dc""}","https://test12345.live/?num_scrambled_semantic=8&num_scrambled_causal=4&num_scrambled_schematic=4&participantId=53BE65A0D9D045D693E666AD3994ADAD&assignmentId=e592bfe4-e59b-4184-ba8c-cffb5c4fec1d&projectId=051c06f1-75cc-4548-856d-4923ddaba0dc","53BE65A0D9D045D693E666AD3994ADAD-2025-05-15-18-53-39","","null","","[]","null","",""
"","","","","","image-button-response","104","445552","0.0-14.0-1.0-0.5","53BE65A0D9D045D693E666AD3994ADAD","53BE65A0D9D045D693E666AD3994ADAD","e592bfe4-e59b-4184-ba8c-cffb5c4fec1d","051c06f1-75cc-4548-856d-4923ddaba0dc","{""num_scrambled_semantic"":""8"",""num_scrambled_causal"":""4"",""num_scrambled_schematic"":""4"",""participantId"":""53BE65A0D9D045D693E666AD3994ADAD"",""assignmentId"":""e592bfe4-e59b-4184-ba8c-cffb5c4fec1d"",""projectId"":""051c06f1-75cc-4548-856d-4923ddaba0dc""}","https://test12345.live/?num_scrambled_semantic=8&num_scrambled_causal=4&num_scrambled_schematic=4&participantId=53BE65A0D9D045D693E666AD3994ADAD&assignmentId=e592bfe4-e59b-4184-ba8c-cffb5c4fec1d&projectId=051c06f1-75cc-4548-856d-4923ddaba0dc","53BE65A0D9D045D693E666AD3994ADAD-2025-05-15-18-53-39","","null","","images/causal_sequence/the_performance_causal/the_performance_causal_6.png","null","",""
"","","","","","image-button-response","105","447051","0.0-14.0-1.0-1.5","53BE65A0D9D045D693E666AD3994ADAD","53BE65A0D9D045D693E666AD3994ADAD","e592bfe4-e59b-4184-ba8c-cffb5c4fec1d","051c06f1-75cc-4548-856d-4923ddaba0dc","{""num_scrambled_semantic"":""8"",""num_scrambled_causal"":""4"",""num_scrambled_schematic"":""4"",""participantId"":""53BE65A0D9D045D693E666AD3994ADAD"",""assignmentId"":""e592bfe4-e59b-4184-ba8c-cffb5c4fec1d"",""projectId"":""051c06f1-75cc-4548-856d-4923ddaba0dc""}","https://test12345.live/?num_scrambled_semantic=8&num_scrambled_causal=4&num_scrambled_schematic=4&participantId=53BE65A0D9D045D693E666AD3994ADAD&assignmentId=e592bfe4-e59b-4184-ba8c-cffb5c4fec1d&projectId=051c06f1-75cc-4548-856d-4923ddaba0dc","53BE65A0D9D045D693E666AD3994ADAD-2025-05-15-18-53-39","","1497","","images/causal_sequence/the_performance_causal/the_performance_causal_6.png","0","",""
"","","","","","image-button-response","106","448858","0.0-14.0-1.0-2.5","53BE65A0D9D045D693E666AD3994ADAD","53BE65A0D9D045D693E666AD3994ADAD","e592bfe4-e59b-4184-ba8c-cffb5c4fec1d","051c06f1-75cc-4548-856d-4923ddaba0dc","{""num_scrambled_semantic"":""8"",""num_scrambled_causal"":""4"",""num_scrambled_schematic"":""4"",""participantId"":""53BE65A0D9D045D693E666AD3994ADAD"",""assignmentId"":""e592bfe4-e59b-4184-ba8c-cffb5c4fec1d"",""projectId"":""051c06f1-75cc-4548-856d-4923ddaba0dc""}","https://test12345.live/?num_scrambled_semantic=8&num_scrambled_causal=4&num_scrambled_schematic=4&participantId=53BE65A0D9D045D693E666AD3994ADAD&assignmentId=e592bfe4-e59b-4184-ba8c-cffb5c4fec1d&projectId=051c06f1-75cc-4548-856d-4923ddaba0dc","53BE65A0D9D045D693E666AD3994ADAD-2025-05-15-18-53-39","","null","","[]","null","",""
"","","","","","image-button-response","107","453362","0.0-14.0-1.0-0.6","53BE65A0D9D045D693E666AD3994ADAD","53BE65A0D9D045D693E666AD3994ADAD","e592bfe4-e59b-4184-ba8c-cffb5c4fec1d","051c06f1-75cc-4548-856d-4923ddaba0dc","{""num_scrambled_semantic"":""8"",""num_scrambled_causal"":""4"",""num_scrambled_schematic"":""4"",""participantId"":""53BE65A0D9D045D693E666AD3994ADAD"",""assignmentId"":""e592bfe4-e59b-4184-ba8c-cffb5c4fec1d"",""projectId"":""051c06f1-75cc-4548-856d-4923ddaba0dc""}","https://test12345.live/?num_scrambled_semantic=8&num_scrambled_causal=4&num_scrambled_schematic=4&participantId=53BE65A0D9D045D693E666AD3994ADAD&assignmentId=e592bfe4-e59b-4184-ba8c-cffb5c4fec1d&projectId=051c06f1-75cc-4548-856d-4923ddaba0dc","53BE65A0D9D045D693E666AD3994ADAD-2025-05-15-18-53-39","","null","","images/causal_sequence/the_performance_causal/the_performance_causal_7.png","null","",""
"","","","","","image-button-response","108","455263","0.0-14.0-1.0-1.6","53BE65A0D9D045D693E666AD3994ADAD","53BE65A0D9D045D693E666AD3994ADAD","e592bfe4-e59b-4184-ba8c-cffb5c4fec1d","051c06f1-75cc-4548-856d-4923ddaba0dc","{""num_scrambled_semantic"":""8"",""num_scrambled_causal"":""4"",""num_scrambled_schematic"":""4"",""participantId"":""53BE65A0D9D045D693E666AD3994ADAD"",""assignmentId"":""e592bfe4-e59b-4184-ba8c-cffb5c4fec1d"",""projectId"":""051c06f1-75cc-4548-856d-4923ddaba0dc""}","https://test12345.live/?num_scrambled_semantic=8&num_scrambled_causal=4&num_scrambled_schematic=4&participantId=53BE65A0D9D045D693E666AD3994ADAD&assignmentId=e592bfe4-e59b-4184-ba8c-cffb5c4fec1d&projectId=051c06f1-75cc-4548-856d-4923ddaba0dc","53BE65A0D9D045D693E666AD3994ADAD-2025-05-15-18-53-39","","1899","","images/causal_sequence/the_performance_causal/the_performance_causal_7.png","0","",""
"","","","","","image-button-response","109","457068","0.0-14.0-1.0-2.6","53BE65A0D9D045D693E666AD3994ADAD","53BE65A0D9D045D693E666AD3994ADAD","e592bfe4-e59b-4184-ba8c-cffb5c4fec1d","051c06f1-75cc-4548-856d-4923ddaba0dc","{""num_scrambled_semantic"":""8"",""num_scrambled_causal"":""4"",""num_scrambled_schematic"":""4"",""participantId"":""53BE65A0D9D045D693E666AD3994ADAD"",""assignmentId"":""e592bfe4-e59b-4184-ba8c-cffb5c4fec1d"",""projectId"":""051c06f1-75cc-4548-856d-4923ddaba0dc""}","https://test12345.live/?num_scrambled_semantic=8&num_scrambled_causal=4&num_scrambled_schematic=4&participantId=53BE65A0D9D045D693E666AD3994ADAD&assignmentId=e592bfe4-e59b-4184-ba8c-cffb5c4fec1d&projectId=051c06f1-75cc-4548-856d-4923ddaba0dc","53BE65A0D9D045D693E666AD3994ADAD-2025-05-15-18-53-39","","null","","[]","null","",""
"","","","","","image-button-response","110","461570","0.0-14.0-1.0-0.7","53BE65A0D9D045D693E666AD3994ADAD","53BE65A0D9D045D693E666AD3994ADAD","e592bfe4-e59b-4184-ba8c-cffb5c4fec1d","051c06f1-75cc-4548-856d-4923ddaba0dc","{""num_scrambled_semantic"":""8"",""num_scrambled_causal"":""4"",""num_scrambled_schematic"":""4"",""participantId"":""53BE65A0D9D045D693E666AD3994ADAD"",""assignmentId"":""e592bfe4-e59b-4184-ba8c-cffb5c4fec1d"",""projectId"":""051c06f1-75cc-4548-856d-4923ddaba0dc""}","https://test12345.live/?num_scrambled_semantic=8&num_scrambled_causal=4&num_scrambled_schematic=4&participantId=53BE65A0D9D045D693E666AD3994ADAD&assignmentId=e592bfe4-e59b-4184-ba8c-cffb5c4fec1d&projectId=051c06f1-75cc-4548-856d-4923ddaba0dc","53BE65A0D9D045D693E666AD3994ADAD-2025-05-15-18-53-39","","null","","images/causal_sequence/the_performance_causal/the_performance_causal_8.png","null","",""
"","","","","","image-button-response","111","462645","0.0-14.0-1.0-1.7","53BE65A0D9D045D693E666AD3994ADAD","53BE65A0D9D045D693E666AD3994ADAD","e592bfe4-e59b-4184-ba8c-cffb5c4fec1d","051c06f1-75cc-4548-856d-4923ddaba0dc","{""num_scrambled_semantic"":""8"",""num_scrambled_causal"":""4"",""num_scrambled_schematic"":""4"",""participantId"":""53BE65A0D9D045D693E666AD3994ADAD"",""assignmentId"":""e592bfe4-e59b-4184-ba8c-cffb5c4fec1d"",""projectId"":""051c06f1-75cc-4548-856d-4923ddaba0dc""}","https://test12345.live/?num_scrambled_semantic=8&num_scrambled_causal=4&num_scrambled_schematic=4&participantId=53BE65A0D9D045D693E666AD3994ADAD&assignmentId=e592bfe4-e59b-4184-ba8c-cffb5c4fec1d&projectId=051c06f1-75cc-4548-856d-4923ddaba0dc","53BE65A0D9D045D693E666AD3994ADAD-2025-05-15-18-53-39","","1073","","images/causal_sequence/the_performance_causal/the_performance_causal_8.png","0","",""
"","","","","","image-button-response","112","464449","0.0-14.0-1.0-2.7","53BE65A0D9D045D693E666AD3994ADAD","53BE65A0D9D045D693E666AD3994ADAD","e592bfe4-e59b-4184-ba8c-cffb5c4fec1d","051c06f1-75cc-4548-856d-4923ddaba0dc","{""num_scrambled_semantic"":""8"",""num_scrambled_causal"":""4"",""num_scrambled_schematic"":""4"",""participantId"":""53BE65A0D9D045D693E666AD3994ADAD"",""assignmentId"":""e592bfe4-e59b-4184-ba8c-cffb5c4fec1d"",""projectId"":""051c06f1-75cc-4548-856d-4923ddaba0dc""}","https://test12345.live/?num_scrambled_semantic=8&num_scrambled_causal=4&num_scrambled_schematic=4&participantId=53BE65A0D9D045D693E666AD3994ADAD&assignmentId=e592bfe4-e59b-4184-ba8c-cffb5c4fec1d&projectId=051c06f1-75cc-4548-856d-4923ddaba0dc","53BE65A0D9D045D693E666AD3994ADAD-2025-05-15-18-53-39","","null","","[]","null","",""
"","","","","","image-button-response","113","468952","0.0-14.0-1.0-0.8","53BE65A0D9D045D693E666AD3994ADAD","53BE65A0D9D045D693E666AD3994ADAD","e592bfe4-e59b-4184-ba8c-cffb5c4fec1d","051c06f1-75cc-4548-856d-4923ddaba0dc","{""num_scrambled_semantic"":""8"",""num_scrambled_causal"":""4"",""num_scrambled_schematic"":""4"",""participantId"":""53BE65A0D9D045D693E666AD3994ADAD"",""assignmentId"":""e592bfe4-e59b-4184-ba8c-cffb5c4fec1d"",""projectId"":""051c06f1-75cc-4548-856d-4923ddaba0dc""}","https://test12345.live/?num_scrambled_semantic=8&num_scrambled_causal=4&num_scrambled_schematic=4&participantId=53BE65A0D9D045D693E666AD3994ADAD&assignmentId=e592bfe4-e59b-4184-ba8c-cffb5c4fec1d&projectId=051c06f1-75cc-4548-856d-4923ddaba0dc","53BE65A0D9D045D693E666AD3994ADAD-2025-05-15-18-53-39","","null","","images/causal_sequence/the_performance_causal/the_performance_causal_9.png","null","",""
"","","","","","image-button-response","114","469919","0.0-14.0-1.0-1.8","53BE65A0D9D045D693E666AD3994ADAD","53BE65A0D9D045D693E666AD3994ADAD","e592bfe4-e59b-4184-ba8c-cffb5c4fec1d","051c06f1-75cc-4548-856d-4923ddaba0dc","{""num_scrambled_semantic"":""8"",""num_scrambled_causal"":""4"",""num_scrambled_schematic"":""4"",""participantId"":""53BE65A0D9D045D693E666AD3994ADAD"",""assignmentId"":""e592bfe4-e59b-4184-ba8c-cffb5c4fec1d"",""projectId"":""051c06f1-75cc-4548-856d-4923ddaba0dc""}","https://test12345.live/?num_scrambled_semantic=8&num_scrambled_causal=4&num_scrambled_schematic=4&participantId=53BE65A0D9D045D693E666AD3994ADAD&assignmentId=e592bfe4-e59b-4184-ba8c-cffb5c4fec1d&projectId=051c06f1-75cc-4548-856d-4923ddaba0dc","53BE65A0D9D045D693E666AD3994ADAD-2025-05-15-18-53-39","","967","","images/causal_sequence/the_performance_causal/the_performance_causal_9.png","0","",""
