"success","timeout","failed_images","failed_audio","failed_video","trial_type","trial_index","time_elapsed","internal_node_id","subject","subject_id","study_id","session_id","urlvar","current_url","audio_id","view_history","rt","device_id","stimulus","response","estimated_stimulus_onset","seq_name"
"true","false","[]","[]","[]","preload","0","4259","0.0-0.0","5545C0DE960643A3B113135F52497835","5545C0DE960643A3B113135F52497835","0198be91-c627-718f-ad0a-068446c3f464","0198be8b-78cf-72d2-ba2b-1e62c78022e0","{""num_scrambled_semantic"":""8"",""num_scrambled_causal"":""4"",""num_scrambled_schematic"":""4"",""participantId"":""5545C0DE960643A3B113135F52497835"",""assignmentId"":""0198be91-c627-718f-ad0a-068446c3f464"",""projectId"":""0198be8b-78cf-72d2-ba2b-1e62c78022e0""}","https://test12345.live/?num_scrambled_semantic=8&num_scrambled_causal=4&num_scrambled_schematic=4&participantId=5545C0DE960643A3B113135F52497835&assignmentId=0198be91-c627-718f-ad0a-068446c3f464&projectId=0198be8b-78cf-72d2-ba2b-1e62c78022e0","5545C0DE960643A3B113135F52497835-2025-08-18-19-35-59","","","","","","",""
"","","","","","instructions","1","130667","0.0-1.0","5545C0DE960643A3B113135F52497835","5545C0DE960643A3B113135F52497835","0198be91-c627-718f-ad0a-068446c3f464","0198be8b-78cf-72d2-ba2b-1e62c78022e0","{""num_scrambled_semantic"":""8"",""num_scrambled_causal"":""4"",""num_scrambled_schematic"":""4"",""participantId"":""5545C0DE960643A3B113135F52497835"",""assignmentId"":""0198be91-c627-718f-ad0a-068446c3f464"",""projectId"":""0198be8b-78cf-72d2-ba2b-1e62c78022e0""}","https://test12345.live/?num_scrambled_semantic=8&num_scrambled_causal=4&num_scrambled_schematic=4&participantId=5545C0DE960643A3B113135F52497835&assignmentId=0198be91-c627-718f-ad0a-068446c3f464&projectId=0198be8b-78cf-72d2-ba2b-1e62c78022e0","5545C0DE960643A3B113135F52497835-2025-08-18-19-35-59","[{""page_index"":0,""viewing_time"":126408}]","126409","","","","",""
"","","","","","instructions","2","133969","0.0-2.0","5545C0DE960643A3B113135F52497835","5545C0DE960643A3B113135F52497835","0198be91-c627-718f-ad0a-068446c3f464","0198be8b-78cf-72d2-ba2b-1e62c78022e0","{""num_scrambled_semantic"":""8"",""num_scrambled_causal"":""4"",""num_scrambled_schematic"":""4"",""participantId"":""5545C0DE960643A3B113135F52497835"",""assignmentId"":""0198be91-c627-718f-ad0a-068446c3f464"",""projectId"":""0198be8b-78cf-72d2-ba2b-1e62c78022e0""}","https://test12345.live/?num_scrambled_semantic=8&num_scrambled_causal=4&num_scrambled_schematic=4&participantId=5545C0DE960643A3B113135F52497835&assignmentId=0198be91-c627-718f-ad0a-068446c3f464&projectId=0198be8b-78cf-72d2-ba2b-1e62c78022e0","5545C0DE960643A3B113135F52497835-2025-08-18-19-35-59","[{""page_index"":0,""viewing_time"":3302}]","3302","","","","",""
"true","","","","","fullscreen","3","136436","0.0-3.0","5545C0DE960643A3B113135F52497835","5545C0DE960643A3B113135F52497835","0198be91-c627-718f-ad0a-068446c3f464","0198be8b-78cf-72d2-ba2b-1e62c78022e0","{""num_scrambled_semantic"":""8"",""num_scrambled_causal"":""4"",""num_scrambled_schematic"":""4"",""participantId"":""5545C0DE960643A3B113135F52497835"",""assignmentId"":""0198be91-c627-718f-ad0a-068446c3f464"",""projectId"":""0198be8b-78cf-72d2-ba2b-1e62c78022e0""}","https://test12345.live/?num_scrambled_semantic=8&num_scrambled_causal=4&num_scrambled_schematic=4&participantId=5545C0DE960643A3B113135F52497835&assignmentId=0198be91-c627-718f-ad0a-068446c3f464&projectId=0198be8b-78cf-72d2-ba2b-1e62c78022e0","5545C0DE960643A3B113135F52497835-2025-08-18-19-35-59","","1451","","","","",""
"","","","","","initialize-microphone","4","139409","0.0-4.0-0.0","5545C0DE960643A3B113135F52497835","5545C0DE960643A3B113135F52497835","0198be91-c627-718f-ad0a-068446c3f464","0198be8b-78cf-72d2-ba2b-1e62c78022e0","{""num_scrambled_semantic"":""8"",""num_scrambled_causal"":""4"",""num_scrambled_schematic"":""4"",""participantId"":""5545C0DE960643A3B113135F52497835"",""assignmentId"":""0198be91-c627-718f-ad0a-068446c3f464"",""projectId"":""0198be8b-78cf-72d2-ba2b-1e62c78022e0""}","https://test12345.live/?num_scrambled_semantic=8&num_scrambled_causal=4&num_scrambled_schematic=4&participantId=5545C0DE960643A3B113135F52497835&assignmentId=0198be91-c627-718f-ad0a-068446c3f464&projectId=0198be8b-78cf-72d2-ba2b-1e62c78022e0","5545C0DE960643A3B113135F52497835-2025-08-18-19-35-59","","","b23d5cffe979c0af911ca9d9795675f7c96b39a5bd74d50fedbb18e935f26159","","","",""
"","","","","","html-audio-response","5","145844","0.0-4.0-1.0","5545C0DE960643A3B113135F52497835","5545C0DE960643A3B113135F52497835","0198be91-c627-718f-ad0a-068446c3f464","0198be8b-78cf-72d2-ba2b-1e62c78022e0","{""num_scrambled_semantic"":""8"",""num_scrambled_causal"":""4"",""num_scrambled_schematic"":""4"",""participantId"":""5545C0DE960643A3B113135F52497835"",""assignmentId"":""0198be91-c627-718f-ad0a-068446c3f464"",""projectId"":""0198be8b-78cf-72d2-ba2b-1e62c78022e0""}","https://test12345.live/?num_scrambled_semantic=8&num_scrambled_causal=4&num_scrambled_schematic=4&participantId=5545C0DE960643A3B113135F52497835&assignmentId=0198be91-c627-718f-ad0a-068446c3f464&projectId=0198be8b-78cf-72d2-ba2b-1e62c78022e0","5545C0DE960643A3B113135F52497835-2025-08-18-19-35-59","","3516","","<span style=""color: red; font-size: 24px""> NOW RECORDING</span>
        <p>Please test Microphone</p>","","2",""
"","","","","","html-button-response","6","146963","0.0-4.0-2.0","5545C0DE960643A3B113135F52497835","5545C0DE960643A3B113135F52497835","0198be91-c627-718f-ad0a-068446c3f464","0198be8b-78cf-72d2-ba2b-1e62c78022e0","{""num_scrambled_semantic"":""8"",""num_scrambled_causal"":""4"",""num_scrambled_schematic"":""4"",""participantId"":""5545C0DE960643A3B113135F52497835"",""assignmentId"":""0198be91-c627-718f-ad0a-068446c3f464"",""projectId"":""0198be8b-78cf-72d2-ba2b-1e62c78022e0""}","https://test12345.live/?num_scrambled_semantic=8&num_scrambled_causal=4&num_scrambled_schematic=4&participantId=5545C0DE960643A3B113135F52497835&assignmentId=0198be91-c627-718f-ad0a-068446c3f464&projectId=0198be8b-78cf-72d2-ba2b-1e62c78022e0","5545C0DE960643A3B113135F52497835-2025-08-18-19-35-59","","1119","","<p style=""font-size:48px; color:red;"">Is Microphone OK?</p>","1","",""
"","","","","","instructions","7","156623","0.0-5.0","5545C0DE960643A3B113135F52497835","5545C0DE960643A3B113135F52497835","0198be91-c627-718f-ad0a-068446c3f464","0198be8b-78cf-72d2-ba2b-1e62c78022e0","{""num_scrambled_semantic"":""8"",""num_scrambled_causal"":""4"",""num_scrambled_schematic"":""4"",""participantId"":""5545C0DE960643A3B113135F52497835"",""assignmentId"":""0198be91-c627-718f-ad0a-068446c3f464"",""projectId"":""0198be8b-78cf-72d2-ba2b-1e62c78022e0""}","https://test12345.live/?num_scrambled_semantic=8&num_scrambled_causal=4&num_scrambled_schematic=4&participantId=5545C0DE960643A3B113135F52497835&assignmentId=0198be91-c627-718f-ad0a-068446c3f464&projectId=0198be8b-78cf-72d2-ba2b-1e62c78022e0","5545C0DE960643A3B113135F52497835-2025-08-18-19-35-59","[{""page_index"":0,""viewing_time"":3801},{""page_index"":1,""viewing_time"":5858}]","9659","","","","",""
"","","","","","image-button-response","8","162635","0.0-6.0-0.0","5545C0DE960643A3B113135F52497835","5545C0DE960643A3B113135F52497835","0198be91-c627-718f-ad0a-068446c3f464","0198be8b-78cf-72d2-ba2b-1e62c78022e0","{""num_scrambled_semantic"":""8"",""num_scrambled_causal"":""4"",""num_scrambled_schematic"":""4"",""participantId"":""5545C0DE960643A3B113135F52497835"",""assignmentId"":""0198be91-c627-718f-ad0a-068446c3f464"",""projectId"":""0198be8b-78cf-72d2-ba2b-1e62c78022e0""}","https://test12345.live/?num_scrambled_semantic=8&num_scrambled_causal=4&num_scrambled_schematic=4&participantId=5545C0DE960643A3B113135F52497835&assignmentId=0198be91-c627-718f-ad0a-068446c3f464&projectId=0198be8b-78cf-72d2-ba2b-1e62c78022e0","5545C0DE960643A3B113135F52497835-2025-08-18-19-35-59","","null","","images/instructions/movie_0.png","null","",""
"","","","","","image-button-response","9","167147","0.0-6.0-1.0-0.0","5545C0DE960643A3B113135F52497835","5545C0DE960643A3B113135F52497835","0198be91-c627-718f-ad0a-068446c3f464","0198be8b-78cf-72d2-ba2b-1e62c78022e0","{""num_scrambled_semantic"":""8"",""num_scrambled_causal"":""4"",""num_scrambled_schematic"":""4"",""participantId"":""5545C0DE960643A3B113135F52497835"",""assignmentId"":""0198be91-c627-718f-ad0a-068446c3f464"",""projectId"":""0198be8b-78cf-72d2-ba2b-1e62c78022e0""}","https://test12345.live/?num_scrambled_semantic=8&num_scrambled_causal=4&num_scrambled_schematic=4&participantId=5545C0DE960643A3B113135F52497835&assignmentId=0198be91-c627-718f-ad0a-068446c3f464&projectId=0198be8b-78cf-72d2-ba2b-1e62c78022e0","5545C0DE960643A3B113135F52497835-2025-08-18-19-35-59","","null","","images/instructions/movie_1.png","null","",""
"","","","","","image-button-response","10","168937","0.0-6.0-1.0-1.0","5545C0DE960643A3B113135F52497835","5545C0DE960643A3B113135F52497835","0198be91-c627-718f-ad0a-068446c3f464","0198be8b-78cf-72d2-ba2b-1e62c78022e0","{""num_scrambled_semantic"":""8"",""num_scrambled_causal"":""4"",""num_scrambled_schematic"":""4"",""participantId"":""5545C0DE960643A3B113135F52497835"",""assignmentId"":""0198be91-c627-718f-ad0a-068446c3f464"",""projectId"":""0198be8b-78cf-72d2-ba2b-1e62c78022e0""}","https://test12345.live/?num_scrambled_semantic=8&num_scrambled_causal=4&num_scrambled_schematic=4&participantId=5545C0DE960643A3B113135F52497835&assignmentId=0198be91-c627-718f-ad0a-068446c3f464&projectId=0198be8b-78cf-72d2-ba2b-1e62c78022e0","5545C0DE960643A3B113135F52497835-2025-08-18-19-35-59","","1790","","images/instructions/movie_1.png","0","",""
"","","","","","image-button-response","11","170744","0.0-6.0-1.0-2.0","5545C0DE960643A3B113135F52497835","5545C0DE960643A3B113135F52497835","0198be91-c627-718f-ad0a-068446c3f464","0198be8b-78cf-72d2-ba2b-1e62c78022e0","{""num_scrambled_semantic"":""8"",""num_scrambled_causal"":""4"",""num_scrambled_schematic"":""4"",""participantId"":""5545C0DE960643A3B113135F52497835"",""assignmentId"":""0198be91-c627-718f-ad0a-068446c3f464"",""projectId"":""0198be8b-78cf-72d2-ba2b-1e62c78022e0""}","https://test12345.live/?num_scrambled_semantic=8&num_scrambled_causal=4&num_scrambled_schematic=4&participantId=5545C0DE960643A3B113135F52497835&assignmentId=0198be91-c627-718f-ad0a-068446c3f464&projectId=0198be8b-78cf-72d2-ba2b-1e62c78022e0","5545C0DE960643A3B113135F52497835-2025-08-18-19-35-59","","null","","[]","null","",""
"","","","","","image-button-response","12","175245","0.0-6.0-1.0-0.1","5545C0DE960643A3B113135F52497835","5545C0DE960643A3B113135F52497835","0198be91-c627-718f-ad0a-068446c3f464","0198be8b-78cf-72d2-ba2b-1e62c78022e0","{""num_scrambled_semantic"":""8"",""num_scrambled_causal"":""4"",""num_scrambled_schematic"":""4"",""participantId"":""5545C0DE960643A3B113135F52497835"",""assignmentId"":""0198be91-c627-718f-ad0a-068446c3f464"",""projectId"":""0198be8b-78cf-72d2-ba2b-1e62c78022e0""}","https://test12345.live/?num_scrambled_semantic=8&num_scrambled_causal=4&num_scrambled_schematic=4&participantId=5545C0DE960643A3B113135F52497835&assignmentId=0198be91-c627-718f-ad0a-068446c3f464&projectId=0198be8b-78cf-72d2-ba2b-1e62c78022e0","5545C0DE960643A3B113135F52497835-2025-08-18-19-35-59","","null","","images/instructions/movie_2.png","null","",""
"","","","","","image-button-response","13","176127","0.0-6.0-1.0-1.1","5545C0DE960643A3B113135F52497835","5545C0DE960643A3B113135F52497835","0198be91-c627-718f-ad0a-068446c3f464","0198be8b-78cf-72d2-ba2b-1e62c78022e0","{""num_scrambled_semantic"":""8"",""num_scrambled_causal"":""4"",""num_scrambled_schematic"":""4"",""participantId"":""5545C0DE960643A3B113135F52497835"",""assignmentId"":""0198be91-c627-718f-ad0a-068446c3f464"",""projectId"":""0198be8b-78cf-72d2-ba2b-1e62c78022e0""}","https://test12345.live/?num_scrambled_semantic=8&num_scrambled_causal=4&num_scrambled_schematic=4&participantId=5545C0DE960643A3B113135F52497835&assignmentId=0198be91-c627-718f-ad0a-068446c3f464&projectId=0198be8b-78cf-72d2-ba2b-1e62c78022e0","5545C0DE960643A3B113135F52497835-2025-08-18-19-35-59","","882","","images/instructions/movie_2.png","0","",""
"","","","","","image-button-response","14","177935","0.0-6.0-1.0-2.1","5545C0DE960643A3B113135F52497835","5545C0DE960643A3B113135F52497835","0198be91-c627-718f-ad0a-068446c3f464","0198be8b-78cf-72d2-ba2b-1e62c78022e0","{""num_scrambled_semantic"":""8"",""num_scrambled_causal"":""4"",""num_scrambled_schematic"":""4"",""participantId"":""5545C0DE960643A3B113135F52497835"",""assignmentId"":""0198be91-c627-718f-ad0a-068446c3f464"",""projectId"":""0198be8b-78cf-72d2-ba2b-1e62c78022e0""}","https://test12345.live/?num_scrambled_semantic=8&num_scrambled_causal=4&num_scrambled_schematic=4&participantId=5545C0DE960643A3B113135F52497835&assignmentId=0198be91-c627-718f-ad0a-068446c3f464&projectId=0198be8b-78cf-72d2-ba2b-1e62c78022e0","5545C0DE960643A3B113135F52497835-2025-08-18-19-35-59","","null","","[]","null","",""
"","","","","","image-button-response","15","182452","0.0-6.0-1.0-0.2","5545C0DE960643A3B113135F52497835","5545C0DE960643A3B113135F52497835","0198be91-c627-718f-ad0a-068446c3f464","0198be8b-78cf-72d2-ba2b-1e62c78022e0","{""num_scrambled_semantic"":""8"",""num_scrambled_causal"":""4"",""num_scrambled_schematic"":""4"",""participantId"":""5545C0DE960643A3B113135F52497835"",""assignmentId"":""0198be91-c627-718f-ad0a-068446c3f464"",""projectId"":""0198be8b-78cf-72d2-ba2b-1e62c78022e0""}","https://test12345.live/?num_scrambled_semantic=8&num_scrambled_causal=4&num_scrambled_schematic=4&participantId=5545C0DE960643A3B113135F52497835&assignmentId=0198be91-c627-718f-ad0a-068446c3f464&projectId=0198be8b-78cf-72d2-ba2b-1e62c78022e0","5545C0DE960643A3B113135F52497835-2025-08-18-19-35-59","","null","","images/instructions/movie_3.png","null","",""
"","","","","","image-button-response","16","183381","0.0-6.0-1.0-1.2","5545C0DE960643A3B113135F52497835","5545C0DE960643A3B113135F52497835","0198be91-c627-718f-ad0a-068446c3f464","0198be8b-78cf-72d2-ba2b-1e62c78022e0","{""num_scrambled_semantic"":""8"",""num_scrambled_causal"":""4"",""num_scrambled_schematic"":""4"",""participantId"":""5545C0DE960643A3B113135F52497835"",""assignmentId"":""0198be91-c627-718f-ad0a-068446c3f464"",""projectId"":""0198be8b-78cf-72d2-ba2b-1e62c78022e0""}","https://test12345.live/?num_scrambled_semantic=8&num_scrambled_causal=4&num_scrambled_schematic=4&participantId=5545C0DE960643A3B113135F52497835&assignmentId=0198be91-c627-718f-ad0a-068446c3f464&projectId=0198be8b-78cf-72d2-ba2b-1e62c78022e0","5545C0DE960643A3B113135F52497835-2025-08-18-19-35-59","","927","","images/instructions/movie_3.png","0","",""
"","","","","","image-button-response","17","185189","0.0-6.0-1.0-2.2","5545C0DE960643A3B113135F52497835","5545C0DE960643A3B113135F52497835","0198be91-c627-718f-ad0a-068446c3f464","0198be8b-78cf-72d2-ba2b-1e62c78022e0","{""num_scrambled_semantic"":""8"",""num_scrambled_causal"":""4"",""num_scrambled_schematic"":""4"",""participantId"":""5545C0DE960643A3B113135F52497835"",""assignmentId"":""0198be91-c627-718f-ad0a-068446c3f464"",""projectId"":""0198be8b-78cf-72d2-ba2b-1e62c78022e0""}","https://test12345.live/?num_scrambled_semantic=8&num_scrambled_causal=4&num_scrambled_schematic=4&participantId=5545C0DE960643A3B113135F52497835&assignmentId=0198be91-c627-718f-ad0a-068446c3f464&projectId=0198be8b-78cf-72d2-ba2b-1e62c78022e0","5545C0DE960643A3B113135F52497835-2025-08-18-19-35-59","","null","","[]","null","",""
"","","","","","image-button-response","18","189693","0.0-6.0-1.0-0.3","5545C0DE960643A3B113135F52497835","5545C0DE960643A3B113135F52497835","0198be91-c627-718f-ad0a-068446c3f464","0198be8b-78cf-72d2-ba2b-1e62c78022e0","{""num_scrambled_semantic"":""8"",""num_scrambled_causal"":""4"",""num_scrambled_schematic"":""4"",""participantId"":""5545C0DE960643A3B113135F52497835"",""assignmentId"":""0198be91-c627-718f-ad0a-068446c3f464"",""projectId"":""0198be8b-78cf-72d2-ba2b-1e62c78022e0""}","https://test12345.live/?num_scrambled_semantic=8&num_scrambled_causal=4&num_scrambled_schematic=4&participantId=5545C0DE960643A3B113135F52497835&assignmentId=0198be91-c627-718f-ad0a-068446c3f464&projectId=0198be8b-78cf-72d2-ba2b-1e62c78022e0","5545C0DE960643A3B113135F52497835-2025-08-18-19-35-59","","null","","images/instructions/movie_4.png","null","",""
"","","","","","image-button-response","19","190239","0.0-6.0-1.0-1.3","5545C0DE960643A3B113135F52497835","5545C0DE960643A3B113135F52497835","0198be91-c627-718f-ad0a-068446c3f464","0198be8b-78cf-72d2-ba2b-1e62c78022e0","{""num_scrambled_semantic"":""8"",""num_scrambled_causal"":""4"",""num_scrambled_schematic"":""4"",""participantId"":""5545C0DE960643A3B113135F52497835"",""assignmentId"":""0198be91-c627-718f-ad0a-068446c3f464"",""projectId"":""0198be8b-78cf-72d2-ba2b-1e62c78022e0""}","https://test12345.live/?num_scrambled_semantic=8&num_scrambled_causal=4&num_scrambled_schematic=4&participantId=5545C0DE960643A3B113135F52497835&assignmentId=0198be91-c627-718f-ad0a-068446c3f464&projectId=0198be8b-78cf-72d2-ba2b-1e62c78022e0","5545C0DE960643A3B113135F52497835-2025-08-18-19-35-59","","545","","images/instructions/movie_4.png","0","",""
"","","","","","image-button-response","20","192054","0.0-6.0-1.0-2.3","5545C0DE960643A3B113135F52497835","5545C0DE960643A3B113135F52497835","0198be91-c627-718f-ad0a-068446c3f464","0198be8b-78cf-72d2-ba2b-1e62c78022e0","{""num_scrambled_semantic"":""8"",""num_scrambled_causal"":""4"",""num_scrambled_schematic"":""4"",""participantId"":""5545C0DE960643A3B113135F52497835"",""assignmentId"":""0198be91-c627-718f-ad0a-068446c3f464"",""projectId"":""0198be8b-78cf-72d2-ba2b-1e62c78022e0""}","https://test12345.live/?num_scrambled_semantic=8&num_scrambled_causal=4&num_scrambled_schematic=4&participantId=5545C0DE960643A3B113135F52497835&assignmentId=0198be91-c627-718f-ad0a-068446c3f464&projectId=0198be8b-78cf-72d2-ba2b-1e62c78022e0","5545C0DE960643A3B113135F52497835-2025-08-18-19-35-59","","null","","[]","null","",""
"","","","","","instructions","21","203801","0.0-7.0","5545C0DE960643A3B113135F52497835","5545C0DE960643A3B113135F52497835","0198be91-c627-718f-ad0a-068446c3f464","0198be8b-78cf-72d2-ba2b-1e62c78022e0","{""num_scrambled_semantic"":""8"",""num_scrambled_causal"":""4"",""num_scrambled_schematic"":""4"",""participantId"":""5545C0DE960643A3B113135F52497835"",""assignmentId"":""0198be91-c627-718f-ad0a-068446c3f464"",""projectId"":""0198be8b-78cf-72d2-ba2b-1e62c78022e0""}","https://test12345.live/?num_scrambled_semantic=8&num_scrambled_causal=4&num_scrambled_schematic=4&participantId=5545C0DE960643A3B113135F52497835&assignmentId=0198be91-c627-718f-ad0a-068446c3f464&projectId=0198be8b-78cf-72d2-ba2b-1e62c78022e0","5545C0DE960643A3B113135F52497835-2025-08-18-19-35-59","[{""page_index"":0,""viewing_time"":11746}]","11746","","","","",""
"","","","","","html-audio-response","22","227937","0.0-8.0","5545C0DE960643A3B113135F52497835","5545C0DE960643A3B113135F52497835","0198be91-c627-718f-ad0a-068446c3f464","0198be8b-78cf-72d2-ba2b-1e62c78022e0","{""num_scrambled_semantic"":""8"",""num_scrambled_causal"":""4"",""num_scrambled_schematic"":""4"",""participantId"":""5545C0DE960643A3B113135F52497835"",""assignmentId"":""0198be91-c627-718f-ad0a-068446c3f464"",""projectId"":""0198be8b-78cf-72d2-ba2b-1e62c78022e0""}","https://test12345.live/?num_scrambled_semantic=8&num_scrambled_causal=4&num_scrambled_schematic=4&participantId=5545C0DE960643A3B113135F52497835&assignmentId=0198be91-c627-718f-ad0a-068446c3f464&projectId=0198be8b-78cf-72d2-ba2b-1e62c78022e0","5545C0DE960643A3B113135F52497835-2025-08-18-19-35-59","","17072","","[""<span style=\""color: red; font-size: 24px\""> NOW RECORDING</span><p>Please say out loud all the images you saw, in the order of the story they create. Try to recall the sequence of events as they appeared in the story, not necessarily the order they were presented on the screen.</p>""]","","4",""
"","","","","","instructions","23","229149","0.0-9.0","5545C0DE960643A3B113135F52497835","5545C0DE960643A3B113135F52497835","0198be91-c627-718f-ad0a-068446c3f464","0198be8b-78cf-72d2-ba2b-1e62c78022e0","{""num_scrambled_semantic"":""8"",""num_scrambled_causal"":""4"",""num_scrambled_schematic"":""4"",""participantId"":""5545C0DE960643A3B113135F52497835"",""assignmentId"":""0198be91-c627-718f-ad0a-068446c3f464"",""projectId"":""0198be8b-78cf-72d2-ba2b-1e62c78022e0""}","https://test12345.live/?num_scrambled_semantic=8&num_scrambled_causal=4&num_scrambled_schematic=4&participantId=5545C0DE960643A3B113135F52497835&assignmentId=0198be91-c627-718f-ad0a-068446c3f464&projectId=0198be8b-78cf-72d2-ba2b-1e62c78022e0","5545C0DE960643A3B113135F52497835-2025-08-18-19-35-59","[{""page_index"":0,""viewing_time"":1209}]","1209","","","","",""
"","","","","","image-button-response","24","235157","0.0-10.0-0.0","5545C0DE960643A3B113135F52497835","5545C0DE960643A3B113135F52497835","0198be91-c627-718f-ad0a-068446c3f464","0198be8b-78cf-72d2-ba2b-1e62c78022e0","{""num_scrambled_semantic"":""8"",""num_scrambled_causal"":""4"",""num_scrambled_schematic"":""4"",""participantId"":""5545C0DE960643A3B113135F52497835"",""assignmentId"":""0198be91-c627-718f-ad0a-068446c3f464"",""projectId"":""0198be8b-78cf-72d2-ba2b-1e62c78022e0""}","https://test12345.live/?num_scrambled_semantic=8&num_scrambled_causal=4&num_scrambled_schematic=4&participantId=5545C0DE960643A3B113135F52497835&assignmentId=0198be91-c627-718f-ad0a-068446c3f464&projectId=0198be8b-78cf-72d2-ba2b-1e62c78022e0","5545C0DE960643A3B113135F52497835-2025-08-18-19-35-59","","null","","images/semantic_sequence/creative_activities_semantic/creative_activities_semantic_0.png","null","",""
"","","","","","image-button-response","25","239675","0.0-10.0-1.0-0.0","5545C0DE960643A3B113135F52497835","5545C0DE960643A3B113135F52497835","0198be91-c627-718f-ad0a-068446c3f464","0198be8b-78cf-72d2-ba2b-1e62c78022e0","{""num_scrambled_semantic"":""8"",""num_scrambled_causal"":""4"",""num_scrambled_schematic"":""4"",""participantId"":""5545C0DE960643A3B113135F52497835"",""assignmentId"":""0198be91-c627-718f-ad0a-068446c3f464"",""projectId"":""0198be8b-78cf-72d2-ba2b-1e62c78022e0""}","https://test12345.live/?num_scrambled_semantic=8&num_scrambled_causal=4&num_scrambled_schematic=4&participantId=5545C0DE960643A3B113135F52497835&assignmentId=0198be91-c627-718f-ad0a-068446c3f464&projectId=0198be8b-78cf-72d2-ba2b-1e62c78022e0","5545C0DE960643A3B113135F52497835-2025-08-18-19-35-59","","null","","images/semantic_sequence/creative_activities_semantic/creative_activities_semantic_3.png","null","",""
"","","","","","image-button-response","26","240807","0.0-10.0-1.0-1.0","5545C0DE960643A3B113135F52497835","5545C0DE960643A3B113135F52497835","0198be91-c627-718f-ad0a-068446c3f464","0198be8b-78cf-72d2-ba2b-1e62c78022e0","{""num_scrambled_semantic"":""8"",""num_scrambled_causal"":""4"",""num_scrambled_schematic"":""4"",""participantId"":""5545C0DE960643A3B113135F52497835"",""assignmentId"":""0198be91-c627-718f-ad0a-068446c3f464"",""projectId"":""0198be8b-78cf-72d2-ba2b-1e62c78022e0""}","https://test12345.live/?num_scrambled_semantic=8&num_scrambled_causal=4&num_scrambled_schematic=4&participantId=5545C0DE960643A3B113135F52497835&assignmentId=0198be91-c627-718f-ad0a-068446c3f464&projectId=0198be8b-78cf-72d2-ba2b-1e62c78022e0","5545C0DE960643A3B113135F52497835-2025-08-18-19-35-59","","1132","","images/semantic_sequence/creative_activities_semantic/creative_activities_semantic_3.png","0","",""
"","","","","","image-button-response","27","242610","0.0-10.0-1.0-2.0","5545C0DE960643A3B113135F52497835","5545C0DE960643A3B113135F52497835","0198be91-c627-718f-ad0a-068446c3f464","0198be8b-78cf-72d2-ba2b-1e62c78022e0","{""num_scrambled_semantic"":""8"",""num_scrambled_causal"":""4"",""num_scrambled_schematic"":""4"",""participantId"":""5545C0DE960643A3B113135F52497835"",""assignmentId"":""0198be91-c627-718f-ad0a-068446c3f464"",""projectId"":""0198be8b-78cf-72d2-ba2b-1e62c78022e0""}","https://test12345.live/?num_scrambled_semantic=8&num_scrambled_causal=4&num_scrambled_schematic=4&participantId=5545C0DE960643A3B113135F52497835&assignmentId=0198be91-c627-718f-ad0a-068446c3f464&projectId=0198be8b-78cf-72d2-ba2b-1e62c78022e0","5545C0DE960643A3B113135F52497835-2025-08-18-19-35-59","","null","","[]","null","",""
"","","","","","image-button-response","28","247111","0.0-10.0-1.0-0.1","5545C0DE960643A3B113135F52497835","5545C0DE960643A3B113135F52497835","0198be91-c627-718f-ad0a-068446c3f464","0198be8b-78cf-72d2-ba2b-1e62c78022e0","{""num_scrambled_semantic"":""8"",""num_scrambled_causal"":""4"",""num_scrambled_schematic"":""4"",""participantId"":""5545C0DE960643A3B113135F52497835"",""assignmentId"":""0198be91-c627-718f-ad0a-068446c3f464"",""projectId"":""0198be8b-78cf-72d2-ba2b-1e62c78022e0""}","https://test12345.live/?num_scrambled_semantic=8&num_scrambled_causal=4&num_scrambled_schematic=4&participantId=5545C0DE960643A3B113135F52497835&assignmentId=0198be91-c627-718f-ad0a-068446c3f464&projectId=0198be8b-78cf-72d2-ba2b-1e62c78022e0","5545C0DE960643A3B113135F52497835-2025-08-18-19-35-59","","null","","images/semantic_sequence/creative_activities_semantic/creative_activities_semantic_6.png","null","",""
"","","","","","image-button-response","29","248589","0.0-10.0-1.0-1.1","5545C0DE960643A3B113135F52497835","5545C0DE960643A3B113135F52497835","0198be91-c627-718f-ad0a-068446c3f464","0198be8b-78cf-72d2-ba2b-1e62c78022e0","{""num_scrambled_semantic"":""8"",""num_scrambled_causal"":""4"",""num_scrambled_schematic"":""4"",""participantId"":""5545C0DE960643A3B113135F52497835"",""assignmentId"":""0198be91-c627-718f-ad0a-068446c3f464"",""projectId"":""0198be8b-78cf-72d2-ba2b-1e62c78022e0""}","https://test12345.live/?num_scrambled_semantic=8&num_scrambled_causal=4&num_scrambled_schematic=4&participantId=5545C0DE960643A3B113135F52497835&assignmentId=0198be91-c627-718f-ad0a-068446c3f464&projectId=0198be8b-78cf-72d2-ba2b-1e62c78022e0","5545C0DE960643A3B113135F52497835-2025-08-18-19-35-59","","1477","","images/semantic_sequence/creative_activities_semantic/creative_activities_semantic_6.png","0","",""
"","","","","","image-button-response","30","250394","0.0-10.0-1.0-2.1","5545C0DE960643A3B113135F52497835","5545C0DE960643A3B113135F52497835","0198be91-c627-718f-ad0a-068446c3f464","0198be8b-78cf-72d2-ba2b-1e62c78022e0","{""num_scrambled_semantic"":""8"",""num_scrambled_causal"":""4"",""num_scrambled_schematic"":""4"",""participantId"":""5545C0DE960643A3B113135F52497835"",""assignmentId"":""0198be91-c627-718f-ad0a-068446c3f464"",""projectId"":""0198be8b-78cf-72d2-ba2b-1e62c78022e0""}","https://test12345.live/?num_scrambled_semantic=8&num_scrambled_causal=4&num_scrambled_schematic=4&participantId=5545C0DE960643A3B113135F52497835&assignmentId=0198be91-c627-718f-ad0a-068446c3f464&projectId=0198be8b-78cf-72d2-ba2b-1e62c78022e0","5545C0DE960643A3B113135F52497835-2025-08-18-19-35-59","","null","","[]","null","",""
"","","","","","image-button-response","31","254905","0.0-10.0-1.0-0.2","5545C0DE960643A3B113135F52497835","5545C0DE960643A3B113135F52497835","0198be91-c627-718f-ad0a-068446c3f464","0198be8b-78cf-72d2-ba2b-1e62c78022e0","{""num_scrambled_semantic"":""8"",""num_scrambled_causal"":""4"",""num_scrambled_schematic"":""4"",""participantId"":""5545C0DE960643A3B113135F52497835"",""assignmentId"":""0198be91-c627-718f-ad0a-068446c3f464"",""projectId"":""0198be8b-78cf-72d2-ba2b-1e62c78022e0""}","https://test12345.live/?num_scrambled_semantic=8&num_scrambled_causal=4&num_scrambled_schematic=4&participantId=5545C0DE960643A3B113135F52497835&assignmentId=0198be91-c627-718f-ad0a-068446c3f464&projectId=0198be8b-78cf-72d2-ba2b-1e62c78022e0","5545C0DE960643A3B113135F52497835-2025-08-18-19-35-59","","null","","images/semantic_sequence/creative_activities_semantic/creative_activities_semantic_7.png","null","",""
"","","","","","image-button-response","32","255835","0.0-10.0-1.0-1.2","5545C0DE960643A3B113135F52497835","5545C0DE960643A3B113135F52497835","0198be91-c627-718f-ad0a-068446c3f464","0198be8b-78cf-72d2-ba2b-1e62c78022e0","{""num_scrambled_semantic"":""8"",""num_scrambled_causal"":""4"",""num_scrambled_schematic"":""4"",""participantId"":""5545C0DE960643A3B113135F52497835"",""assignmentId"":""0198be91-c627-718f-ad0a-068446c3f464"",""projectId"":""0198be8b-78cf-72d2-ba2b-1e62c78022e0""}","https://test12345.live/?num_scrambled_semantic=8&num_scrambled_causal=4&num_scrambled_schematic=4&participantId=5545C0DE960643A3B113135F52497835&assignmentId=0198be91-c627-718f-ad0a-068446c3f464&projectId=0198be8b-78cf-72d2-ba2b-1e62c78022e0","5545C0DE960643A3B113135F52497835-2025-08-18-19-35-59","","929","","images/semantic_sequence/creative_activities_semantic/creative_activities_semantic_7.png","0","",""
"","","","","","image-button-response","33","257637","0.0-10.0-1.0-2.2","5545C0DE960643A3B113135F52497835","5545C0DE960643A3B113135F52497835","0198be91-c627-718f-ad0a-068446c3f464","0198be8b-78cf-72d2-ba2b-1e62c78022e0","{""num_scrambled_semantic"":""8"",""num_scrambled_causal"":""4"",""num_scrambled_schematic"":""4"",""participantId"":""5545C0DE960643A3B113135F52497835"",""assignmentId"":""0198be91-c627-718f-ad0a-068446c3f464"",""projectId"":""0198be8b-78cf-72d2-ba2b-1e62c78022e0""}","https://test12345.live/?num_scrambled_semantic=8&num_scrambled_causal=4&num_scrambled_schematic=4&participantId=5545C0DE960643A3B113135F52497835&assignmentId=0198be91-c627-718f-ad0a-068446c3f464&projectId=0198be8b-78cf-72d2-ba2b-1e62c78022e0","5545C0DE960643A3B113135F52497835-2025-08-18-19-35-59","","null","","[]","null","",""
"","","","","","image-button-response","34","262139","0.0-10.0-1.0-0.3","5545C0DE960643A3B113135F52497835","5545C0DE960643A3B113135F52497835","0198be91-c627-718f-ad0a-068446c3f464","0198be8b-78cf-72d2-ba2b-1e62c78022e0","{""num_scrambled_semantic"":""8"",""num_scrambled_causal"":""4"",""num_scrambled_schematic"":""4"",""participantId"":""5545C0DE960643A3B113135F52497835"",""assignmentId"":""0198be91-c627-718f-ad0a-068446c3f464"",""projectId"":""0198be8b-78cf-72d2-ba2b-1e62c78022e0""}","https://test12345.live/?num_scrambled_semantic=8&num_scrambled_causal=4&num_scrambled_schematic=4&participantId=5545C0DE960643A3B113135F52497835&assignmentId=0198be91-c627-718f-ad0a-068446c3f464&projectId=0198be8b-78cf-72d2-ba2b-1e62c78022e0","5545C0DE960643A3B113135F52497835-2025-08-18-19-35-59","","null","","images/semantic_sequence/creative_activities_semantic/creative_activities_semantic_2.png","null","",""
"","","","","","image-button-response","35","263657","0.0-10.0-1.0-1.3","5545C0DE960643A3B113135F52497835","5545C0DE960643A3B113135F52497835","0198be91-c627-718f-ad0a-068446c3f464","0198be8b-78cf-72d2-ba2b-1e62c78022e0","{""num_scrambled_semantic"":""8"",""num_scrambled_causal"":""4"",""num_scrambled_schematic"":""4"",""participantId"":""5545C0DE960643A3B113135F52497835"",""assignmentId"":""0198be91-c627-718f-ad0a-068446c3f464"",""projectId"":""0198be8b-78cf-72d2-ba2b-1e62c78022e0""}","https://test12345.live/?num_scrambled_semantic=8&num_scrambled_causal=4&num_scrambled_schematic=4&participantId=5545C0DE960643A3B113135F52497835&assignmentId=0198be91-c627-718f-ad0a-068446c3f464&projectId=0198be8b-78cf-72d2-ba2b-1e62c78022e0","5545C0DE960643A3B113135F52497835-2025-08-18-19-35-59","","1518","","images/semantic_sequence/creative_activities_semantic/creative_activities_semantic_2.png","0","",""
"","","","","","image-button-response","36","265465","0.0-10.0-1.0-2.3","5545C0DE960643A3B113135F52497835","5545C0DE960643A3B113135F52497835","0198be91-c627-718f-ad0a-068446c3f464","0198be8b-78cf-72d2-ba2b-1e62c78022e0","{""num_scrambled_semantic"":""8"",""num_scrambled_causal"":""4"",""num_scrambled_schematic"":""4"",""participantId"":""5545C0DE960643A3B113135F52497835"",""assignmentId"":""0198be91-c627-718f-ad0a-068446c3f464"",""projectId"":""0198be8b-78cf-72d2-ba2b-1e62c78022e0""}","https://test12345.live/?num_scrambled_semantic=8&num_scrambled_causal=4&num_scrambled_schematic=4&participantId=5545C0DE960643A3B113135F52497835&assignmentId=0198be91-c627-718f-ad0a-068446c3f464&projectId=0198be8b-78cf-72d2-ba2b-1e62c78022e0","5545C0DE960643A3B113135F52497835-2025-08-18-19-35-59","","null","","[]","null","",""
"","","","","","image-button-response","37","269976","0.0-10.0-1.0-0.4","5545C0DE960643A3B113135F52497835","5545C0DE960643A3B113135F52497835","0198be91-c627-718f-ad0a-068446c3f464","0198be8b-78cf-72d2-ba2b-1e62c78022e0","{""num_scrambled_semantic"":""8"",""num_scrambled_causal"":""4"",""num_scrambled_schematic"":""4"",""participantId"":""5545C0DE960643A3B113135F52497835"",""assignmentId"":""0198be91-c627-718f-ad0a-068446c3f464"",""projectId"":""0198be8b-78cf-72d2-ba2b-1e62c78022e0""}","https://test12345.live/?num_scrambled_semantic=8&num_scrambled_causal=4&num_scrambled_schematic=4&participantId=5545C0DE960643A3B113135F52497835&assignmentId=0198be91-c627-718f-ad0a-068446c3f464&projectId=0198be8b-78cf-72d2-ba2b-1e62c78022e0","5545C0DE960643A3B113135F52497835-2025-08-18-19-35-59","","null","","images/semantic_sequence/creative_activities_semantic/creative_activities_semantic_5.png","null","",""
"","","","","","image-button-response","38","271087","0.0-10.0-1.0-1.4","5545C0DE960643A3B113135F52497835","5545C0DE960643A3B113135F52497835","0198be91-c627-718f-ad0a-068446c3f464","0198be8b-78cf-72d2-ba2b-1e62c78022e0","{""num_scrambled_semantic"":""8"",""num_scrambled_causal"":""4"",""num_scrambled_schematic"":""4"",""participantId"":""5545C0DE960643A3B113135F52497835"",""assignmentId"":""0198be91-c627-718f-ad0a-068446c3f464"",""projectId"":""0198be8b-78cf-72d2-ba2b-1e62c78022e0""}","https://test12345.live/?num_scrambled_semantic=8&num_scrambled_causal=4&num_scrambled_schematic=4&participantId=5545C0DE960643A3B113135F52497835&assignmentId=0198be91-c627-718f-ad0a-068446c3f464&projectId=0198be8b-78cf-72d2-ba2b-1e62c78022e0","5545C0DE960643A3B113135F52497835-2025-08-18-19-35-59","","1111","","images/semantic_sequence/creative_activities_semantic/creative_activities_semantic_5.png","0","",""
"","","","","","image-button-response","39","272902","0.0-10.0-1.0-2.4","5545C0DE960643A3B113135F52497835","5545C0DE960643A3B113135F52497835","0198be91-c627-718f-ad0a-068446c3f464","0198be8b-78cf-72d2-ba2b-1e62c78022e0","{""num_scrambled_semantic"":""8"",""num_scrambled_causal"":""4"",""num_scrambled_schematic"":""4"",""participantId"":""5545C0DE960643A3B113135F52497835"",""assignmentId"":""0198be91-c627-718f-ad0a-068446c3f464"",""projectId"":""0198be8b-78cf-72d2-ba2b-1e62c78022e0""}","https://test12345.live/?num_scrambled_semantic=8&num_scrambled_causal=4&num_scrambled_schematic=4&participantId=5545C0DE960643A3B113135F52497835&assignmentId=0198be91-c627-718f-ad0a-068446c3f464&projectId=0198be8b-78cf-72d2-ba2b-1e62c78022e0","5545C0DE960643A3B113135F52497835-2025-08-18-19-35-59","","null","","[]","null","",""
"","","","","","image-button-response","40","277411","0.0-10.0-1.0-0.5","5545C0DE960643A3B113135F52497835","5545C0DE960643A3B113135F52497835","0198be91-c627-718f-ad0a-068446c3f464","0198be8b-78cf-72d2-ba2b-1e62c78022e0","{""num_scrambled_semantic"":""8"",""num_scrambled_causal"":""4"",""num_scrambled_schematic"":""4"",""participantId"":""5545C0DE960643A3B113135F52497835"",""assignmentId"":""0198be91-c627-718f-ad0a-068446c3f464"",""projectId"":""0198be8b-78cf-72d2-ba2b-1e62c78022e0""}","https://test12345.live/?num_scrambled_semantic=8&num_scrambled_causal=4&num_scrambled_schematic=4&participantId=5545C0DE960643A3B113135F52497835&assignmentId=0198be91-c627-718f-ad0a-068446c3f464&projectId=0198be8b-78cf-72d2-ba2b-1e62c78022e0","5545C0DE960643A3B113135F52497835-2025-08-18-19-35-59","","null","","images/semantic_sequence/creative_activities_semantic/creative_activities_semantic_8.png","null","",""
"","","","","","image-button-response","41","279645","0.0-10.0-1.0-1.5","5545C0DE960643A3B113135F52497835","5545C0DE960643A3B113135F52497835","0198be91-c627-718f-ad0a-068446c3f464","0198be8b-78cf-72d2-ba2b-1e62c78022e0","{""num_scrambled_semantic"":""8"",""num_scrambled_causal"":""4"",""num_scrambled_schematic"":""4"",""participantId"":""5545C0DE960643A3B113135F52497835"",""assignmentId"":""0198be91-c627-718f-ad0a-068446c3f464"",""projectId"":""0198be8b-78cf-72d2-ba2b-1e62c78022e0""}","https://test12345.live/?num_scrambled_semantic=8&num_scrambled_causal=4&num_scrambled_schematic=4&participantId=5545C0DE960643A3B113135F52497835&assignmentId=0198be91-c627-718f-ad0a-068446c3f464&projectId=0198be8b-78cf-72d2-ba2b-1e62c78022e0","5545C0DE960643A3B113135F52497835-2025-08-18-19-35-59","","2233","","images/semantic_sequence/creative_activities_semantic/creative_activities_semantic_8.png","0","",""
"","","","","","image-button-response","42","281451","0.0-10.0-1.0-2.5","5545C0DE960643A3B113135F52497835","5545C0DE960643A3B113135F52497835","0198be91-c627-718f-ad0a-068446c3f464","0198be8b-78cf-72d2-ba2b-1e62c78022e0","{""num_scrambled_semantic"":""8"",""num_scrambled_causal"":""4"",""num_scrambled_schematic"":""4"",""participantId"":""5545C0DE960643A3B113135F52497835"",""assignmentId"":""0198be91-c627-718f-ad0a-068446c3f464"",""projectId"":""0198be8b-78cf-72d2-ba2b-1e62c78022e0""}","https://test12345.live/?num_scrambled_semantic=8&num_scrambled_causal=4&num_scrambled_schematic=4&participantId=5545C0DE960643A3B113135F52497835&assignmentId=0198be91-c627-718f-ad0a-068446c3f464&projectId=0198be8b-78cf-72d2-ba2b-1e62c78022e0","5545C0DE960643A3B113135F52497835-2025-08-18-19-35-59","","null","","[]","null","",""
"","","","","","image-button-response","43","285960","0.0-10.0-1.0-0.6","5545C0DE960643A3B113135F52497835","5545C0DE960643A3B113135F52497835","0198be91-c627-718f-ad0a-068446c3f464","0198be8b-78cf-72d2-ba2b-1e62c78022e0","{""num_scrambled_semantic"":""8"",""num_scrambled_causal"":""4"",""num_scrambled_schematic"":""4"",""participantId"":""5545C0DE960643A3B113135F52497835"",""assignmentId"":""0198be91-c627-718f-ad0a-068446c3f464"",""projectId"":""0198be8b-78cf-72d2-ba2b-1e62c78022e0""}","https://test12345.live/?num_scrambled_semantic=8&num_scrambled_causal=4&num_scrambled_schematic=4&participantId=5545C0DE960643A3B113135F52497835&assignmentId=0198be91-c627-718f-ad0a-068446c3f464&projectId=0198be8b-78cf-72d2-ba2b-1e62c78022e0","5545C0DE960643A3B113135F52497835-2025-08-18-19-35-59","","null","","images/semantic_sequence/creative_activities_semantic/creative_activities_semantic_9.png","null","",""
"","","","","","image-button-response","44","287115","0.0-10.0-1.0-1.6","5545C0DE960643A3B113135F52497835","5545C0DE960643A3B113135F52497835","0198be91-c627-718f-ad0a-068446c3f464","0198be8b-78cf-72d2-ba2b-1e62c78022e0","{""num_scrambled_semantic"":""8"",""num_scrambled_causal"":""4"",""num_scrambled_schematic"":""4"",""participantId"":""5545C0DE960643A3B113135F52497835"",""assignmentId"":""0198be91-c627-718f-ad0a-068446c3f464"",""projectId"":""0198be8b-78cf-72d2-ba2b-1e62c78022e0""}","https://test12345.live/?num_scrambled_semantic=8&num_scrambled_causal=4&num_scrambled_schematic=4&participantId=5545C0DE960643A3B113135F52497835&assignmentId=0198be91-c627-718f-ad0a-068446c3f464&projectId=0198be8b-78cf-72d2-ba2b-1e62c78022e0","5545C0DE960643A3B113135F52497835-2025-08-18-19-35-59","","1155","","images/semantic_sequence/creative_activities_semantic/creative_activities_semantic_9.png","0","",""
"","","","","","image-button-response","45","288924","0.0-10.0-1.0-2.6","5545C0DE960643A3B113135F52497835","5545C0DE960643A3B113135F52497835","0198be91-c627-718f-ad0a-068446c3f464","0198be8b-78cf-72d2-ba2b-1e62c78022e0","{""num_scrambled_semantic"":""8"",""num_scrambled_causal"":""4"",""num_scrambled_schematic"":""4"",""participantId"":""5545C0DE960643A3B113135F52497835"",""assignmentId"":""0198be91-c627-718f-ad0a-068446c3f464"",""projectId"":""0198be8b-78cf-72d2-ba2b-1e62c78022e0""}","https://test12345.live/?num_scrambled_semantic=8&num_scrambled_causal=4&num_scrambled_schematic=4&participantId=5545C0DE960643A3B113135F52497835&assignmentId=0198be91-c627-718f-ad0a-068446c3f464&projectId=0198be8b-78cf-72d2-ba2b-1e62c78022e0","5545C0DE960643A3B113135F52497835-2025-08-18-19-35-59","","null","","[]","null","",""
"","","","","","image-button-response","46","293438","0.0-10.0-1.0-0.7","5545C0DE960643A3B113135F52497835","5545C0DE960643A3B113135F52497835","0198be91-c627-718f-ad0a-068446c3f464","0198be8b-78cf-72d2-ba2b-1e62c78022e0","{""num_scrambled_semantic"":""8"",""num_scrambled_causal"":""4"",""num_scrambled_schematic"":""4"",""participantId"":""5545C0DE960643A3B113135F52497835"",""assignmentId"":""0198be91-c627-718f-ad0a-068446c3f464"",""projectId"":""0198be8b-78cf-72d2-ba2b-1e62c78022e0""}","https://test12345.live/?num_scrambled_semantic=8&num_scrambled_causal=4&num_scrambled_schematic=4&participantId=5545C0DE960643A3B113135F52497835&assignmentId=0198be91-c627-718f-ad0a-068446c3f464&projectId=0198be8b-78cf-72d2-ba2b-1e62c78022e0","5545C0DE960643A3B113135F52497835-2025-08-18-19-35-59","","null","","images/semantic_sequence/creative_activities_semantic/creative_activities_semantic_4.png","null","",""
"","","","","","image-button-response","47","294161","0.0-10.0-1.0-1.7","5545C0DE960643A3B113135F52497835","5545C0DE960643A3B113135F52497835","0198be91-c627-718f-ad0a-068446c3f464","0198be8b-78cf-72d2-ba2b-1e62c78022e0","{""num_scrambled_semantic"":""8"",""num_scrambled_causal"":""4"",""num_scrambled_schematic"":""4"",""participantId"":""5545C0DE960643A3B113135F52497835"",""assignmentId"":""0198be91-c627-718f-ad0a-068446c3f464"",""projectId"":""0198be8b-78cf-72d2-ba2b-1e62c78022e0""}","https://test12345.live/?num_scrambled_semantic=8&num_scrambled_causal=4&num_scrambled_schematic=4&participantId=5545C0DE960643A3B113135F52497835&assignmentId=0198be91-c627-718f-ad0a-068446c3f464&projectId=0198be8b-78cf-72d2-ba2b-1e62c78022e0","5545C0DE960643A3B113135F52497835-2025-08-18-19-35-59","","723","","images/semantic_sequence/creative_activities_semantic/creative_activities_semantic_4.png","0","",""
"","","","","","image-button-response","48","295969","0.0-10.0-1.0-2.7","5545C0DE960643A3B113135F52497835","5545C0DE960643A3B113135F52497835","0198be91-c627-718f-ad0a-068446c3f464","0198be8b-78cf-72d2-ba2b-1e62c78022e0","{""num_scrambled_semantic"":""8"",""num_scrambled_causal"":""4"",""num_scrambled_schematic"":""4"",""participantId"":""5545C0DE960643A3B113135F52497835"",""assignmentId"":""0198be91-c627-718f-ad0a-068446c3f464"",""projectId"":""0198be8b-78cf-72d2-ba2b-1e62c78022e0""}","https://test12345.live/?num_scrambled_semantic=8&num_scrambled_causal=4&num_scrambled_schematic=4&participantId=5545C0DE960643A3B113135F52497835&assignmentId=0198be91-c627-718f-ad0a-068446c3f464&projectId=0198be8b-78cf-72d2-ba2b-1e62c78022e0","5545C0DE960643A3B113135F52497835-2025-08-18-19-35-59","","null","","[]","null","",""
"","","","","","image-button-response","49","300481","0.0-10.0-1.0-0.8","5545C0DE960643A3B113135F52497835","5545C0DE960643A3B113135F52497835","0198be91-c627-718f-ad0a-068446c3f464","0198be8b-78cf-72d2-ba2b-1e62c78022e0","{""num_scrambled_semantic"":""8"",""num_scrambled_causal"":""4"",""num_scrambled_schematic"":""4"",""participantId"":""5545C0DE960643A3B113135F52497835"",""assignmentId"":""0198be91-c627-718f-ad0a-068446c3f464"",""projectId"":""0198be8b-78cf-72d2-ba2b-1e62c78022e0""}","https://test12345.live/?num_scrambled_semantic=8&num_scrambled_causal=4&num_scrambled_schematic=4&participantId=5545C0DE960643A3B113135F52497835&assignmentId=0198be91-c627-718f-ad0a-068446c3f464&projectId=0198be8b-78cf-72d2-ba2b-1e62c78022e0","5545C0DE960643A3B113135F52497835-2025-08-18-19-35-59","","null","","images/semantic_sequence/creative_activities_semantic/creative_activities_semantic_ten.png","null","",""
"","","","","","image-button-response","50","301771","0.0-10.0-1.0-1.8","5545C0DE960643A3B113135F52497835","5545C0DE960643A3B113135F52497835","0198be91-c627-718f-ad0a-068446c3f464","0198be8b-78cf-72d2-ba2b-1e62c78022e0","{""num_scrambled_semantic"":""8"",""num_scrambled_causal"":""4"",""num_scrambled_schematic"":""4"",""participantId"":""5545C0DE960643A3B113135F52497835"",""assignmentId"":""0198be91-c627-718f-ad0a-068446c3f464"",""projectId"":""0198be8b-78cf-72d2-ba2b-1e62c78022e0""}","https://test12345.live/?num_scrambled_semantic=8&num_scrambled_causal=4&num_scrambled_schematic=4&participantId=5545C0DE960643A3B113135F52497835&assignmentId=0198be91-c627-718f-ad0a-068446c3f464&projectId=0198be8b-78cf-72d2-ba2b-1e62c78022e0","5545C0DE960643A3B113135F52497835-2025-08-18-19-35-59","","1289","","images/semantic_sequence/creative_activities_semantic/creative_activities_semantic_ten.png","0","",""
"","","","","","image-button-response","51","303582","0.0-10.0-1.0-2.8","5545C0DE960643A3B113135F52497835","5545C0DE960643A3B113135F52497835","0198be91-c627-718f-ad0a-068446c3f464","0198be8b-78cf-72d2-ba2b-1e62c78022e0","{""num_scrambled_semantic"":""8"",""num_scrambled_causal"":""4"",""num_scrambled_schematic"":""4"",""participantId"":""5545C0DE960643A3B113135F52497835"",""assignmentId"":""0198be91-c627-718f-ad0a-068446c3f464"",""projectId"":""0198be8b-78cf-72d2-ba2b-1e62c78022e0""}","https://test12345.live/?num_scrambled_semantic=8&num_scrambled_causal=4&num_scrambled_schematic=4&participantId=5545C0DE960643A3B113135F52497835&assignmentId=0198be91-c627-718f-ad0a-068446c3f464&projectId=0198be8b-78cf-72d2-ba2b-1e62c78022e0","5545C0DE960643A3B113135F52497835-2025-08-18-19-35-59","","null","","[]","null","",""
"","","","","","image-button-response","52","308089","0.0-10.0-1.0-0.9","5545C0DE960643A3B113135F52497835","5545C0DE960643A3B113135F52497835","0198be91-c627-718f-ad0a-068446c3f464","0198be8b-78cf-72d2-ba2b-1e62c78022e0","{""num_scrambled_semantic"":""8"",""num_scrambled_causal"":""4"",""num_scrambled_schematic"":""4"",""participantId"":""5545C0DE960643A3B113135F52497835"",""assignmentId"":""0198be91-c627-718f-ad0a-068446c3f464"",""projectId"":""0198be8b-78cf-72d2-ba2b-1e62c78022e0""}","https://test12345.live/?num_scrambled_semantic=8&num_scrambled_causal=4&num_scrambled_schematic=4&participantId=5545C0DE960643A3B113135F52497835&assignmentId=0198be91-c627-718f-ad0a-068446c3f464&projectId=0198be8b-78cf-72d2-ba2b-1e62c78022e0","5545C0DE960643A3B113135F52497835-2025-08-18-19-35-59","","null","","images/semantic_sequence/creative_activities_semantic/creative_activities_semantic_1.png","null","",""
"","","","","","image-button-response","53","308953","0.0-10.0-1.0-1.9","5545C0DE960643A3B113135F52497835","5545C0DE960643A3B113135F52497835","0198be91-c627-718f-ad0a-068446c3f464","0198be8b-78cf-72d2-ba2b-1e62c78022e0","{""num_scrambled_semantic"":""8"",""num_scrambled_causal"":""4"",""num_scrambled_schematic"":""4"",""participantId"":""5545C0DE960643A3B113135F52497835"",""assignmentId"":""0198be91-c627-718f-ad0a-068446c3f464"",""projectId"":""0198be8b-78cf-72d2-ba2b-1e62c78022e0""}","https://test12345.live/?num_scrambled_semantic=8&num_scrambled_causal=4&num_scrambled_schematic=4&participantId=5545C0DE960643A3B113135F52497835&assignmentId=0198be91-c627-718f-ad0a-068446c3f464&projectId=0198be8b-78cf-72d2-ba2b-1e62c78022e0","5545C0DE960643A3B113135F52497835-2025-08-18-19-35-59","","863","","images/semantic_sequence/creative_activities_semantic/creative_activities_semantic_1.png","0","",""
"","","","","","image-button-response","54","310755","0.0-10.0-1.0-2.9","5545C0DE960643A3B113135F52497835","5545C0DE960643A3B113135F52497835","0198be91-c627-718f-ad0a-068446c3f464","0198be8b-78cf-72d2-ba2b-1e62c78022e0","{""num_scrambled_semantic"":""8"",""num_scrambled_causal"":""4"",""num_scrambled_schematic"":""4"",""participantId"":""5545C0DE960643A3B113135F52497835"",""assignmentId"":""0198be91-c627-718f-ad0a-068446c3f464"",""projectId"":""0198be8b-78cf-72d2-ba2b-1e62c78022e0""}","https://test12345.live/?num_scrambled_semantic=8&num_scrambled_causal=4&num_scrambled_schematic=4&participantId=5545C0DE960643A3B113135F52497835&assignmentId=0198be91-c627-718f-ad0a-068446c3f464&projectId=0198be8b-78cf-72d2-ba2b-1e62c78022e0","5545C0DE960643A3B113135F52497835-2025-08-18-19-35-59","","null","","[]","null","",""
"","","","","","html-audio-response","55","356289","0.0-11.0","5545C0DE960643A3B113135F52497835","5545C0DE960643A3B113135F52497835","0198be91-c627-718f-ad0a-068446c3f464","0198be8b-78cf-72d2-ba2b-1e62c78022e0","{""num_scrambled_semantic"":""8"",""num_scrambled_causal"":""4"",""num_scrambled_schematic"":""4"",""participantId"":""5545C0DE960643A3B113135F52497835"",""assignmentId"":""0198be91-c627-718f-ad0a-068446c3f464"",""projectId"":""0198be8b-78cf-72d2-ba2b-1e62c78022e0""}","https://test12345.live/?num_scrambled_semantic=8&num_scrambled_causal=4&num_scrambled_schematic=4&participantId=5545C0DE960643A3B113135F52497835&assignmentId=0198be91-c627-718f-ad0a-068446c3f464&projectId=0198be8b-78cf-72d2-ba2b-1e62c78022e0","5545C0DE960643A3B113135F52497835-2025-08-18-19-35-59","","38921","","[""<span style=\""color: red; font-size: 24px\""> NOW RECORDING</span><p>Please say out loud all the images you saw, in the order of the story they create. Try to recall the sequence of events as they appeared in the story, not necessarily the order they were presented on the screen.</p>""]","","1","creative_activities_semantic"
"","","","","","image-button-response","56","362298","0.0-12.0-0.0","5545C0DE960643A3B113135F52497835","5545C0DE960643A3B113135F52497835","0198be91-c627-718f-ad0a-068446c3f464","0198be8b-78cf-72d2-ba2b-1e62c78022e0","{""num_scrambled_semantic"":""8"",""num_scrambled_causal"":""4"",""num_scrambled_schematic"":""4"",""participantId"":""5545C0DE960643A3B113135F52497835"",""assignmentId"":""0198be91-c627-718f-ad0a-068446c3f464"",""projectId"":""0198be8b-78cf-72d2-ba2b-1e62c78022e0""}","https://test12345.live/?num_scrambled_semantic=8&num_scrambled_causal=4&num_scrambled_schematic=4&participantId=5545C0DE960643A3B113135F52497835&assignmentId=0198be91-c627-718f-ad0a-068446c3f464&projectId=0198be8b-78cf-72d2-ba2b-1e62c78022e0","5545C0DE960643A3B113135F52497835-2025-08-18-19-35-59","","null","","images/causal_sequence/package_causal/package_causal_0.png","null","",""
"","","","","","image-button-response","57","366799","0.0-12.0-1.0-0.0","5545C0DE960643A3B113135F52497835","5545C0DE960643A3B113135F52497835","0198be91-c627-718f-ad0a-068446c3f464","0198be8b-78cf-72d2-ba2b-1e62c78022e0","{""num_scrambled_semantic"":""8"",""num_scrambled_causal"":""4"",""num_scrambled_schematic"":""4"",""participantId"":""5545C0DE960643A3B113135F52497835"",""assignmentId"":""0198be91-c627-718f-ad0a-068446c3f464"",""projectId"":""0198be8b-78cf-72d2-ba2b-1e62c78022e0""}","https://test12345.live/?num_scrambled_semantic=8&num_scrambled_causal=4&num_scrambled_schematic=4&participantId=5545C0DE960643A3B113135F52497835&assignmentId=0198be91-c627-718f-ad0a-068446c3f464&projectId=0198be8b-78cf-72d2-ba2b-1e62c78022e0","5545C0DE960643A3B113135F52497835-2025-08-18-19-35-59","","null","","images/causal_sequence/package_causal/package_causal_1.png","null","",""
"","","","","","image-button-response","58","368715","0.0-12.0-1.0-1.0","5545C0DE960643A3B113135F52497835","5545C0DE960643A3B113135F52497835","0198be91-c627-718f-ad0a-068446c3f464","0198be8b-78cf-72d2-ba2b-1e62c78022e0","{""num_scrambled_semantic"":""8"",""num_scrambled_causal"":""4"",""num_scrambled_schematic"":""4"",""participantId"":""5545C0DE960643A3B113135F52497835"",""assignmentId"":""0198be91-c627-718f-ad0a-068446c3f464"",""projectId"":""0198be8b-78cf-72d2-ba2b-1e62c78022e0""}","https://test12345.live/?num_scrambled_semantic=8&num_scrambled_causal=4&num_scrambled_schematic=4&participantId=5545C0DE960643A3B113135F52497835&assignmentId=0198be91-c627-718f-ad0a-068446c3f464&projectId=0198be8b-78cf-72d2-ba2b-1e62c78022e0","5545C0DE960643A3B113135F52497835-2025-08-18-19-35-59","","1915","","images/causal_sequence/package_causal/package_causal_1.png","0","",""
"","","","","","image-button-response","59","370517","0.0-12.0-1.0-2.0","5545C0DE960643A3B113135F52497835","5545C0DE960643A3B113135F52497835","0198be91-c627-718f-ad0a-068446c3f464","0198be8b-78cf-72d2-ba2b-1e62c78022e0","{""num_scrambled_semantic"":""8"",""num_scrambled_causal"":""4"",""num_scrambled_schematic"":""4"",""participantId"":""5545C0DE960643A3B113135F52497835"",""assignmentId"":""0198be91-c627-718f-ad0a-068446c3f464"",""projectId"":""0198be8b-78cf-72d2-ba2b-1e62c78022e0""}","https://test12345.live/?num_scrambled_semantic=8&num_scrambled_causal=4&num_scrambled_schematic=4&participantId=5545C0DE960643A3B113135F52497835&assignmentId=0198be91-c627-718f-ad0a-068446c3f464&projectId=0198be8b-78cf-72d2-ba2b-1e62c78022e0","5545C0DE960643A3B113135F52497835-2025-08-18-19-35-59","","null","","[]","null","",""
"","","","","","image-button-response","60","375023","0.0-12.0-1.0-0.1","5545C0DE960643A3B113135F52497835","5545C0DE960643A3B113135F52497835","0198be91-c627-718f-ad0a-068446c3f464","0198be8b-78cf-72d2-ba2b-1e62c78022e0","{""num_scrambled_semantic"":""8"",""num_scrambled_causal"":""4"",""num_scrambled_schematic"":""4"",""participantId"":""5545C0DE960643A3B113135F52497835"",""assignmentId"":""0198be91-c627-718f-ad0a-068446c3f464"",""projectId"":""0198be8b-78cf-72d2-ba2b-1e62c78022e0""}","https://test12345.live/?num_scrambled_semantic=8&num_scrambled_causal=4&num_scrambled_schematic=4&participantId=5545C0DE960643A3B113135F52497835&assignmentId=0198be91-c627-718f-ad0a-068446c3f464&projectId=0198be8b-78cf-72d2-ba2b-1e62c78022e0","5545C0DE960643A3B113135F52497835-2025-08-18-19-35-59","","null","","images/causal_sequence/package_causal/package_causal_2.png","null","",""
"","","","","","image-button-response","61","376997","0.0-12.0-1.0-1.1","5545C0DE960643A3B113135F52497835","5545C0DE960643A3B113135F52497835","0198be91-c627-718f-ad0a-068446c3f464","0198be8b-78cf-72d2-ba2b-1e62c78022e0","{""num_scrambled_semantic"":""8"",""num_scrambled_causal"":""4"",""num_scrambled_schematic"":""4"",""participantId"":""5545C0DE960643A3B113135F52497835"",""assignmentId"":""0198be91-c627-718f-ad0a-068446c3f464"",""projectId"":""0198be8b-78cf-72d2-ba2b-1e62c78022e0""}","https://test12345.live/?num_scrambled_semantic=8&num_scrambled_causal=4&num_scrambled_schematic=4&participantId=5545C0DE960643A3B113135F52497835&assignmentId=0198be91-c627-718f-ad0a-068446c3f464&projectId=0198be8b-78cf-72d2-ba2b-1e62c78022e0","5545C0DE960643A3B113135F52497835-2025-08-18-19-35-59","","1973","","images/causal_sequence/package_causal/package_causal_2.png","0","",""
"","","","","","image-button-response","62","378807","0.0-12.0-1.0-2.1","5545C0DE960643A3B113135F52497835","5545C0DE960643A3B113135F52497835","0198be91-c627-718f-ad0a-068446c3f464","0198be8b-78cf-72d2-ba2b-1e62c78022e0","{""num_scrambled_semantic"":""8"",""num_scrambled_causal"":""4"",""num_scrambled_schematic"":""4"",""participantId"":""5545C0DE960643A3B113135F52497835"",""assignmentId"":""0198be91-c627-718f-ad0a-068446c3f464"",""projectId"":""0198be8b-78cf-72d2-ba2b-1e62c78022e0""}","https://test12345.live/?num_scrambled_semantic=8&num_scrambled_causal=4&num_scrambled_schematic=4&participantId=5545C0DE960643A3B113135F52497835&assignmentId=0198be91-c627-718f-ad0a-068446c3f464&projectId=0198be8b-78cf-72d2-ba2b-1e62c78022e0","5545C0DE960643A3B113135F52497835-2025-08-18-19-35-59","","null","","[]","null","",""
"","","","","","image-button-response","63","383321","0.0-12.0-1.0-0.2","5545C0DE960643A3B113135F52497835","5545C0DE960643A3B113135F52497835","0198be91-c627-718f-ad0a-068446c3f464","0198be8b-78cf-72d2-ba2b-1e62c78022e0","{""num_scrambled_semantic"":""8"",""num_scrambled_causal"":""4"",""num_scrambled_schematic"":""4"",""participantId"":""5545C0DE960643A3B113135F52497835"",""assignmentId"":""0198be91-c627-718f-ad0a-068446c3f464"",""projectId"":""0198be8b-78cf-72d2-ba2b-1e62c78022e0""}","https://test12345.live/?num_scrambled_semantic=8&num_scrambled_causal=4&num_scrambled_schematic=4&participantId=5545C0DE960643A3B113135F52497835&assignmentId=0198be91-c627-718f-ad0a-068446c3f464&projectId=0198be8b-78cf-72d2-ba2b-1e62c78022e0","5545C0DE960643A3B113135F52497835-2025-08-18-19-35-59","","null","","images/causal_sequence/package_causal/package_causal_3.png","null","",""
"","","","","","image-button-response","64","384443","0.0-12.0-1.0-1.2","5545C0DE960643A3B113135F52497835","5545C0DE960643A3B113135F52497835","0198be91-c627-718f-ad0a-068446c3f464","0198be8b-78cf-72d2-ba2b-1e62c78022e0","{""num_scrambled_semantic"":""8"",""num_scrambled_causal"":""4"",""num_scrambled_schematic"":""4"",""participantId"":""5545C0DE960643A3B113135F52497835"",""assignmentId"":""0198be91-c627-718f-ad0a-068446c3f464"",""projectId"":""0198be8b-78cf-72d2-ba2b-1e62c78022e0""}","https://test12345.live/?num_scrambled_semantic=8&num_scrambled_causal=4&num_scrambled_schematic=4&participantId=5545C0DE960643A3B113135F52497835&assignmentId=0198be91-c627-718f-ad0a-068446c3f464&projectId=0198be8b-78cf-72d2-ba2b-1e62c78022e0","5545C0DE960643A3B113135F52497835-2025-08-18-19-35-59","","1121","","images/causal_sequence/package_causal/package_causal_3.png","0","",""
"","","","","","image-button-response","65","386246","0.0-12.0-1.0-2.2","5545C0DE960643A3B113135F52497835","5545C0DE960643A3B113135F52497835","0198be91-c627-718f-ad0a-068446c3f464","0198be8b-78cf-72d2-ba2b-1e62c78022e0","{""num_scrambled_semantic"":""8"",""num_scrambled_causal"":""4"",""num_scrambled_schematic"":""4"",""participantId"":""5545C0DE960643A3B113135F52497835"",""assignmentId"":""0198be91-c627-718f-ad0a-068446c3f464"",""projectId"":""0198be8b-78cf-72d2-ba2b-1e62c78022e0""}","https://test12345.live/?num_scrambled_semantic=8&num_scrambled_causal=4&num_scrambled_schematic=4&participantId=5545C0DE960643A3B113135F52497835&assignmentId=0198be91-c627-718f-ad0a-068446c3f464&projectId=0198be8b-78cf-72d2-ba2b-1e62c78022e0","5545C0DE960643A3B113135F52497835-2025-08-18-19-35-59","","null","","[]","null","",""
"","","","","","image-button-response","66","390755","0.0-12.0-1.0-0.3","5545C0DE960643A3B113135F52497835","5545C0DE960643A3B113135F52497835","0198be91-c627-718f-ad0a-068446c3f464","0198be8b-78cf-72d2-ba2b-1e62c78022e0","{""num_scrambled_semantic"":""8"",""num_scrambled_causal"":""4"",""num_scrambled_schematic"":""4"",""participantId"":""5545C0DE960643A3B113135F52497835"",""assignmentId"":""0198be91-c627-718f-ad0a-068446c3f464"",""projectId"":""0198be8b-78cf-72d2-ba2b-1e62c78022e0""}","https://test12345.live/?num_scrambled_semantic=8&num_scrambled_causal=4&num_scrambled_schematic=4&participantId=5545C0DE960643A3B113135F52497835&assignmentId=0198be91-c627-718f-ad0a-068446c3f464&projectId=0198be8b-78cf-72d2-ba2b-1e62c78022e0","5545C0DE960643A3B113135F52497835-2025-08-18-19-35-59","","null","","images/causal_sequence/package_causal/package_causal_4.png","null","",""
"","","","","","image-button-response","67","392178","0.0-12.0-1.0-1.3","5545C0DE960643A3B113135F52497835","5545C0DE960643A3B113135F52497835","0198be91-c627-718f-ad0a-068446c3f464","0198be8b-78cf-72d2-ba2b-1e62c78022e0","{""num_scrambled_semantic"":""8"",""num_scrambled_causal"":""4"",""num_scrambled_schematic"":""4"",""participantId"":""5545C0DE960643A3B113135F52497835"",""assignmentId"":""0198be91-c627-718f-ad0a-068446c3f464"",""projectId"":""0198be8b-78cf-72d2-ba2b-1e62c78022e0""}","https://test12345.live/?num_scrambled_semantic=8&num_scrambled_causal=4&num_scrambled_schematic=4&participantId=5545C0DE960643A3B113135F52497835&assignmentId=0198be91-c627-718f-ad0a-068446c3f464&projectId=0198be8b-78cf-72d2-ba2b-1e62c78022e0","5545C0DE960643A3B113135F52497835-2025-08-18-19-35-59","","1422","","images/causal_sequence/package_causal/package_causal_4.png","1","",""
"","","","","","image-button-response","68","393980","0.0-12.0-1.0-2.3","5545C0DE960643A3B113135F52497835","5545C0DE960643A3B113135F52497835","0198be91-c627-718f-ad0a-068446c3f464","0198be8b-78cf-72d2-ba2b-1e62c78022e0","{""num_scrambled_semantic"":""8"",""num_scrambled_causal"":""4"",""num_scrambled_schematic"":""4"",""participantId"":""5545C0DE960643A3B113135F52497835"",""assignmentId"":""0198be91-c627-718f-ad0a-068446c3f464"",""projectId"":""0198be8b-78cf-72d2-ba2b-1e62c78022e0""}","https://test12345.live/?num_scrambled_semantic=8&num_scrambled_causal=4&num_scrambled_schematic=4&participantId=5545C0DE960643A3B113135F52497835&assignmentId=0198be91-c627-718f-ad0a-068446c3f464&projectId=0198be8b-78cf-72d2-ba2b-1e62c78022e0","5545C0DE960643A3B113135F52497835-2025-08-18-19-35-59","","null","","[]","null","",""
"","","","","","image-button-response","69","398489","0.0-12.0-1.0-0.4","5545C0DE960643A3B113135F52497835","5545C0DE960643A3B113135F52497835","0198be91-c627-718f-ad0a-068446c3f464","0198be8b-78cf-72d2-ba2b-1e62c78022e0","{""num_scrambled_semantic"":""8"",""num_scrambled_causal"":""4"",""num_scrambled_schematic"":""4"",""participantId"":""5545C0DE960643A3B113135F52497835"",""assignmentId"":""0198be91-c627-718f-ad0a-068446c3f464"",""projectId"":""0198be8b-78cf-72d2-ba2b-1e62c78022e0""}","https://test12345.live/?num_scrambled_semantic=8&num_scrambled_causal=4&num_scrambled_schematic=4&participantId=5545C0DE960643A3B113135F52497835&assignmentId=0198be91-c627-718f-ad0a-068446c3f464&projectId=0198be8b-78cf-72d2-ba2b-1e62c78022e0","5545C0DE960643A3B113135F52497835-2025-08-18-19-35-59","","null","","images/causal_sequence/package_causal/package_causal_5.png","null","",""
"","","","","","image-button-response","70","399480","0.0-12.0-1.0-1.4","5545C0DE960643A3B113135F52497835","5545C0DE960643A3B113135F52497835","0198be91-c627-718f-ad0a-068446c3f464","0198be8b-78cf-72d2-ba2b-1e62c78022e0","{""num_scrambled_semantic"":""8"",""num_scrambled_causal"":""4"",""num_scrambled_schematic"":""4"",""participantId"":""5545C0DE960643A3B113135F52497835"",""assignmentId"":""0198be91-c627-718f-ad0a-068446c3f464"",""projectId"":""0198be8b-78cf-72d2-ba2b-1e62c78022e0""}","https://test12345.live/?num_scrambled_semantic=8&num_scrambled_causal=4&num_scrambled_schematic=4&participantId=5545C0DE960643A3B113135F52497835&assignmentId=0198be91-c627-718f-ad0a-068446c3f464&projectId=0198be8b-78cf-72d2-ba2b-1e62c78022e0","5545C0DE960643A3B113135F52497835-2025-08-18-19-35-59","","990","","images/causal_sequence/package_causal/package_causal_5.png","0","",""
"","","","","","image-button-response","71","401293","0.0-12.0-1.0-2.4","5545C0DE960643A3B113135F52497835","5545C0DE960643A3B113135F52497835","0198be91-c627-718f-ad0a-068446c3f464","0198be8b-78cf-72d2-ba2b-1e62c78022e0","{""num_scrambled_semantic"":""8"",""num_scrambled_causal"":""4"",""num_scrambled_schematic"":""4"",""participantId"":""5545C0DE960643A3B113135F52497835"",""assignmentId"":""0198be91-c627-718f-ad0a-068446c3f464"",""projectId"":""0198be8b-78cf-72d2-ba2b-1e62c78022e0""}","https://test12345.live/?num_scrambled_semantic=8&num_scrambled_causal=4&num_scrambled_schematic=4&participantId=5545C0DE960643A3B113135F52497835&assignmentId=0198be91-c627-718f-ad0a-068446c3f464&projectId=0198be8b-78cf-72d2-ba2b-1e62c78022e0","5545C0DE960643A3B113135F52497835-2025-08-18-19-35-59","","null","","[]","null","",""
"","","","","","image-button-response","72","405808","0.0-12.0-1.0-0.5","5545C0DE960643A3B113135F52497835","5545C0DE960643A3B113135F52497835","0198be91-c627-718f-ad0a-068446c3f464","0198be8b-78cf-72d2-ba2b-1e62c78022e0","{""num_scrambled_semantic"":""8"",""num_scrambled_causal"":""4"",""num_scrambled_schematic"":""4"",""participantId"":""5545C0DE960643A3B113135F52497835"",""assignmentId"":""0198be91-c627-718f-ad0a-068446c3f464"",""projectId"":""0198be8b-78cf-72d2-ba2b-1e62c78022e0""}","https://test12345.live/?num_scrambled_semantic=8&num_scrambled_causal=4&num_scrambled_schematic=4&participantId=5545C0DE960643A3B113135F52497835&assignmentId=0198be91-c627-718f-ad0a-068446c3f464&projectId=0198be8b-78cf-72d2-ba2b-1e62c78022e0","5545C0DE960643A3B113135F52497835-2025-08-18-19-35-59","","null","","images/causal_sequence/package_causal/package_causal_6.png","null","",""
"","","","","","image-button-response","73","406774","0.0-12.0-1.0-1.5","5545C0DE960643A3B113135F52497835","5545C0DE960643A3B113135F52497835","0198be91-c627-718f-ad0a-068446c3f464","0198be8b-78cf-72d2-ba2b-1e62c78022e0","{""num_scrambled_semantic"":""8"",""num_scrambled_causal"":""4"",""num_scrambled_schematic"":""4"",""participantId"":""5545C0DE960643A3B113135F52497835"",""assignmentId"":""0198be91-c627-718f-ad0a-068446c3f464"",""projectId"":""0198be8b-78cf-72d2-ba2b-1e62c78022e0""}","https://test12345.live/?num_scrambled_semantic=8&num_scrambled_causal=4&num_scrambled_schematic=4&participantId=5545C0DE960643A3B113135F52497835&assignmentId=0198be91-c627-718f-ad0a-068446c3f464&projectId=0198be8b-78cf-72d2-ba2b-1e62c78022e0","5545C0DE960643A3B113135F52497835-2025-08-18-19-35-59","","966","","images/causal_sequence/package_causal/package_causal_6.png","0","",""
"","","","","","image-button-response","74","408585","0.0-12.0-1.0-2.5","5545C0DE960643A3B113135F52497835","5545C0DE960643A3B113135F52497835","0198be91-c627-718f-ad0a-068446c3f464","0198be8b-78cf-72d2-ba2b-1e62c78022e0","{""num_scrambled_semantic"":""8"",""num_scrambled_causal"":""4"",""num_scrambled_schematic"":""4"",""participantId"":""5545C0DE960643A3B113135F52497835"",""assignmentId"":""0198be91-c627-718f-ad0a-068446c3f464"",""projectId"":""0198be8b-78cf-72d2-ba2b-1e62c78022e0""}","https://test12345.live/?num_scrambled_semantic=8&num_scrambled_causal=4&num_scrambled_schematic=4&participantId=5545C0DE960643A3B113135F52497835&assignmentId=0198be91-c627-718f-ad0a-068446c3f464&projectId=0198be8b-78cf-72d2-ba2b-1e62c78022e0","5545C0DE960643A3B113135F52497835-2025-08-18-19-35-59","","null","","[]","null","",""
"","","","","","image-button-response","75","413088","0.0-12.0-1.0-0.6","5545C0DE960643A3B113135F52497835","5545C0DE960643A3B113135F52497835","0198be91-c627-718f-ad0a-068446c3f464","0198be8b-78cf-72d2-ba2b-1e62c78022e0","{""num_scrambled_semantic"":""8"",""num_scrambled_causal"":""4"",""num_scrambled_schematic"":""4"",""participantId"":""5545C0DE960643A3B113135F52497835"",""assignmentId"":""0198be91-c627-718f-ad0a-068446c3f464"",""projectId"":""0198be8b-78cf-72d2-ba2b-1e62c78022e0""}","https://test12345.live/?num_scrambled_semantic=8&num_scrambled_causal=4&num_scrambled_schematic=4&participantId=5545C0DE960643A3B113135F52497835&assignmentId=0198be91-c627-718f-ad0a-068446c3f464&projectId=0198be8b-78cf-72d2-ba2b-1e62c78022e0","5545C0DE960643A3B113135F52497835-2025-08-18-19-35-59","","null","","images/causal_sequence/package_causal/package_causal_7.png","null","",""
"","","","","","image-button-response","76","413831","0.0-12.0-1.0-1.6","5545C0DE960643A3B113135F52497835","5545C0DE960643A3B113135F52497835","0198be91-c627-718f-ad0a-068446c3f464","0198be8b-78cf-72d2-ba2b-1e62c78022e0","{""num_scrambled_semantic"":""8"",""num_scrambled_causal"":""4"",""num_scrambled_schematic"":""4"",""participantId"":""5545C0DE960643A3B113135F52497835"",""assignmentId"":""0198be91-c627-718f-ad0a-068446c3f464"",""projectId"":""0198be8b-78cf-72d2-ba2b-1e62c78022e0""}","https://test12345.live/?num_scrambled_semantic=8&num_scrambled_causal=4&num_scrambled_schematic=4&participantId=5545C0DE960643A3B113135F52497835&assignmentId=0198be91-c627-718f-ad0a-068446c3f464&projectId=0198be8b-78cf-72d2-ba2b-1e62c78022e0","5545C0DE960643A3B113135F52497835-2025-08-18-19-35-59","","742","","images/causal_sequence/package_causal/package_causal_7.png","0","",""
"","","","","","image-button-response","77","415639","0.0-12.0-1.0-2.6","5545C0DE960643A3B113135F52497835","5545C0DE960643A3B113135F52497835","0198be91-c627-718f-ad0a-068446c3f464","0198be8b-78cf-72d2-ba2b-1e62c78022e0","{""num_scrambled_semantic"":""8"",""num_scrambled_causal"":""4"",""num_scrambled_schematic"":""4"",""participantId"":""5545C0DE960643A3B113135F52497835"",""assignmentId"":""0198be91-c627-718f-ad0a-068446c3f464"",""projectId"":""0198be8b-78cf-72d2-ba2b-1e62c78022e0""}","https://test12345.live/?num_scrambled_semantic=8&num_scrambled_causal=4&num_scrambled_schematic=4&participantId=5545C0DE960643A3B113135F52497835&assignmentId=0198be91-c627-718f-ad0a-068446c3f464&projectId=0198be8b-78cf-72d2-ba2b-1e62c78022e0","5545C0DE960643A3B113135F52497835-2025-08-18-19-35-59","","null","","[]","null","",""
"","","","","","image-button-response","78","420147","0.0-12.0-1.0-0.7","5545C0DE960643A3B113135F52497835","5545C0DE960643A3B113135F52497835","0198be91-c627-718f-ad0a-068446c3f464","0198be8b-78cf-72d2-ba2b-1e62c78022e0","{""num_scrambled_semantic"":""8"",""num_scrambled_causal"":""4"",""num_scrambled_schematic"":""4"",""participantId"":""5545C0DE960643A3B113135F52497835"",""assignmentId"":""0198be91-c627-718f-ad0a-068446c3f464"",""projectId"":""0198be8b-78cf-72d2-ba2b-1e62c78022e0""}","https://test12345.live/?num_scrambled_semantic=8&num_scrambled_causal=4&num_scrambled_schematic=4&participantId=5545C0DE960643A3B113135F52497835&assignmentId=0198be91-c627-718f-ad0a-068446c3f464&projectId=0198be8b-78cf-72d2-ba2b-1e62c78022e0","5545C0DE960643A3B113135F52497835-2025-08-18-19-35-59","","null","","images/causal_sequence/package_causal/package_causal_8.png","null","",""
"","","","","","image-button-response","79","420554","0.0-12.0-1.0-1.7","5545C0DE960643A3B113135F52497835","5545C0DE960643A3B113135F52497835","0198be91-c627-718f-ad0a-068446c3f464","0198be8b-78cf-72d2-ba2b-1e62c78022e0","{""num_scrambled_semantic"":""8"",""num_scrambled_causal"":""4"",""num_scrambled_schematic"":""4"",""participantId"":""5545C0DE960643A3B113135F52497835"",""assignmentId"":""0198be91-c627-718f-ad0a-068446c3f464"",""projectId"":""0198be8b-78cf-72d2-ba2b-1e62c78022e0""}","https://test12345.live/?num_scrambled_semantic=8&num_scrambled_causal=4&num_scrambled_schematic=4&participantId=5545C0DE960643A3B113135F52497835&assignmentId=0198be91-c627-718f-ad0a-068446c3f464&projectId=0198be8b-78cf-72d2-ba2b-1e62c78022e0","5545C0DE960643A3B113135F52497835-2025-08-18-19-35-59","","406","","images/causal_sequence/package_causal/package_causal_8.png","0","",""
"","","","","","image-button-response","80","422360","0.0-12.0-1.0-2.7","5545C0DE960643A3B113135F52497835","5545C0DE960643A3B113135F52497835","0198be91-c627-718f-ad0a-068446c3f464","0198be8b-78cf-72d2-ba2b-1e62c78022e0","{""num_scrambled_semantic"":""8"",""num_scrambled_causal"":""4"",""num_scrambled_schematic"":""4"",""participantId"":""5545C0DE960643A3B113135F52497835"",""assignmentId"":""0198be91-c627-718f-ad0a-068446c3f464"",""projectId"":""0198be8b-78cf-72d2-ba2b-1e62c78022e0""}","https://test12345.live/?num_scrambled_semantic=8&num_scrambled_causal=4&num_scrambled_schematic=4&participantId=5545C0DE960643A3B113135F52497835&assignmentId=0198be91-c627-718f-ad0a-068446c3f464&projectId=0198be8b-78cf-72d2-ba2b-1e62c78022e0","5545C0DE960643A3B113135F52497835-2025-08-18-19-35-59","","null","","[]","null","",""
"","","","","","image-button-response","81","426861","0.0-12.0-1.0-0.8","5545C0DE960643A3B113135F52497835","5545C0DE960643A3B113135F52497835","0198be91-c627-718f-ad0a-068446c3f464","0198be8b-78cf-72d2-ba2b-1e62c78022e0","{""num_scrambled_semantic"":""8"",""num_scrambled_causal"":""4"",""num_scrambled_schematic"":""4"",""participantId"":""5545C0DE960643A3B113135F52497835"",""assignmentId"":""0198be91-c627-718f-ad0a-068446c3f464"",""projectId"":""0198be8b-78cf-72d2-ba2b-1e62c78022e0""}","https://test12345.live/?num_scrambled_semantic=8&num_scrambled_causal=4&num_scrambled_schematic=4&participantId=5545C0DE960643A3B113135F52497835&assignmentId=0198be91-c627-718f-ad0a-068446c3f464&projectId=0198be8b-78cf-72d2-ba2b-1e62c78022e0","5545C0DE960643A3B113135F52497835-2025-08-18-19-35-59","","null","","images/causal_sequence/package_causal/package_causal_9.png","null","",""
"","","","","","image-button-response","82","427479","0.0-12.0-1.0-1.8","5545C0DE960643A3B113135F52497835","5545C0DE960643A3B113135F52497835","0198be91-c627-718f-ad0a-068446c3f464","0198be8b-78cf-72d2-ba2b-1e62c78022e0","{""num_scrambled_semantic"":""8"",""num_scrambled_causal"":""4"",""num_scrambled_schematic"":""4"",""participantId"":""5545C0DE960643A3B113135F52497835"",""assignmentId"":""0198be91-c627-718f-ad0a-068446c3f464"",""projectId"":""0198be8b-78cf-72d2-ba2b-1e62c78022e0""}","https://test12345.live/?num_scrambled_semantic=8&num_scrambled_causal=4&num_scrambled_schematic=4&participantId=5545C0DE960643A3B113135F52497835&assignmentId=0198be91-c627-718f-ad0a-068446c3f464&projectId=0198be8b-78cf-72d2-ba2b-1e62c78022e0","5545C0DE960643A3B113135F52497835-2025-08-18-19-35-59","","617","","images/causal_sequence/package_causal/package_causal_9.png","0","",""
"","","","","","image-button-response","83","429288","0.0-12.0-1.0-2.8","5545C0DE960643A3B113135F52497835","5545C0DE960643A3B113135F52497835","0198be91-c627-718f-ad0a-068446c3f464","0198be8b-78cf-72d2-ba2b-1e62c78022e0","{""num_scrambled_semantic"":""8"",""num_scrambled_causal"":""4"",""num_scrambled_schematic"":""4"",""participantId"":""5545C0DE960643A3B113135F52497835"",""assignmentId"":""0198be91-c627-718f-ad0a-068446c3f464"",""projectId"":""0198be8b-78cf-72d2-ba2b-1e62c78022e0""}","https://test12345.live/?num_scrambled_semantic=8&num_scrambled_causal=4&num_scrambled_schematic=4&participantId=5545C0DE960643A3B113135F52497835&assignmentId=0198be91-c627-718f-ad0a-068446c3f464&projectId=0198be8b-78cf-72d2-ba2b-1e62c78022e0","5545C0DE960643A3B113135F52497835-2025-08-18-19-35-59","","null","","[]","null","",""
"","","","","","image-button-response","84","433795","0.0-12.0-1.0-0.9","5545C0DE960643A3B113135F52497835","5545C0DE960643A3B113135F52497835","0198be91-c627-718f-ad0a-068446c3f464","0198be8b-78cf-72d2-ba2b-1e62c78022e0","{""num_scrambled_semantic"":""8"",""num_scrambled_causal"":""4"",""num_scrambled_schematic"":""4"",""participantId"":""5545C0DE960643A3B113135F52497835"",""assignmentId"":""0198be91-c627-718f-ad0a-068446c3f464"",""projectId"":""0198be8b-78cf-72d2-ba2b-1e62c78022e0""}","https://test12345.live/?num_scrambled_semantic=8&num_scrambled_causal=4&num_scrambled_schematic=4&participantId=5545C0DE960643A3B113135F52497835&assignmentId=0198be91-c627-718f-ad0a-068446c3f464&projectId=0198be8b-78cf-72d2-ba2b-1e62c78022e0","5545C0DE960643A3B113135F52497835-2025-08-18-19-35-59","","null","","images/causal_sequence/package_causal/package_causal_ten.png","null","",""
"","","","","","image-button-response","85","434449","0.0-12.0-1.0-1.9","5545C0DE960643A3B113135F52497835","5545C0DE960643A3B113135F52497835","0198be91-c627-718f-ad0a-068446c3f464","0198be8b-78cf-72d2-ba2b-1e62c78022e0","{""num_scrambled_semantic"":""8"",""num_scrambled_causal"":""4"",""num_scrambled_schematic"":""4"",""participantId"":""5545C0DE960643A3B113135F52497835"",""assignmentId"":""0198be91-c627-718f-ad0a-068446c3f464"",""projectId"":""0198be8b-78cf-72d2-ba2b-1e62c78022e0""}","https://test12345.live/?num_scrambled_semantic=8&num_scrambled_causal=4&num_scrambled_schematic=4&participantId=5545C0DE960643A3B113135F52497835&assignmentId=0198be91-c627-718f-ad0a-068446c3f464&projectId=0198be8b-78cf-72d2-ba2b-1e62c78022e0","5545C0DE960643A3B113135F52497835-2025-08-18-19-35-59","","653","","images/causal_sequence/package_causal/package_causal_ten.png","0","",""
"","","","","","image-button-response","86","436254","0.0-12.0-1.0-2.9","5545C0DE960643A3B113135F52497835","5545C0DE960643A3B113135F52497835","0198be91-c627-718f-ad0a-068446c3f464","0198be8b-78cf-72d2-ba2b-1e62c78022e0","{""num_scrambled_semantic"":""8"",""num_scrambled_causal"":""4"",""num_scrambled_schematic"":""4"",""participantId"":""5545C0DE960643A3B113135F52497835"",""assignmentId"":""0198be91-c627-718f-ad0a-068446c3f464"",""projectId"":""0198be8b-78cf-72d2-ba2b-1e62c78022e0""}","https://test12345.live/?num_scrambled_semantic=8&num_scrambled_causal=4&num_scrambled_schematic=4&participantId=5545C0DE960643A3B113135F52497835&assignmentId=0198be91-c627-718f-ad0a-068446c3f464&projectId=0198be8b-78cf-72d2-ba2b-1e62c78022e0","5545C0DE960643A3B113135F52497835-2025-08-18-19-35-59","","null","","[]","null","",""
"","","","","","html-audio-response","87","478079","0.0-13.0","5545C0DE960643A3B113135F52497835","5545C0DE960643A3B113135F52497835","0198be91-c627-718f-ad0a-068446c3f464","0198be8b-78cf-72d2-ba2b-1e62c78022e0","{""num_scrambled_semantic"":""8"",""num_scrambled_causal"":""4"",""num_scrambled_schematic"":""4"",""participantId"":""5545C0DE960643A3B113135F52497835"",""assignmentId"":""0198be91-c627-718f-ad0a-068446c3f464"",""projectId"":""0198be8b-78cf-72d2-ba2b-1e62c78022e0""}","https://test12345.live/?num_scrambled_semantic=8&num_scrambled_causal=4&num_scrambled_schematic=4&participantId=5545C0DE960643A3B113135F52497835&assignmentId=0198be91-c627-718f-ad0a-068446c3f464&projectId=0198be8b-78cf-72d2-ba2b-1e62c78022e0","5545C0DE960643A3B113135F52497835-2025-08-18-19-35-59","","40537","","[""<span style=\""color: red; font-size: 24px\""> NOW RECORDING</span><p>Please say out loud all the images you saw, in the order of the story they create. Try to recall the sequence of events as they appeared in the story, not necessarily the order they were presented on the screen.</p>""]","","1","package_causal"
"","","","","","image-button-response","88","484085","0.0-14.0-0.0","5545C0DE960643A3B113135F52497835","5545C0DE960643A3B113135F52497835","0198be91-c627-718f-ad0a-068446c3f464","0198be8b-78cf-72d2-ba2b-1e62c78022e0","{""num_scrambled_semantic"":""8"",""num_scrambled_causal"":""4"",""num_scrambled_schematic"":""4"",""participantId"":""5545C0DE960643A3B113135F52497835"",""assignmentId"":""0198be91-c627-718f-ad0a-068446c3f464"",""projectId"":""0198be8b-78cf-72d2-ba2b-1e62c78022e0""}","https://test12345.live/?num_scrambled_semantic=8&num_scrambled_causal=4&num_scrambled_schematic=4&participantId=5545C0DE960643A3B113135F52497835&assignmentId=0198be91-c627-718f-ad0a-068446c3f464&projectId=0198be8b-78cf-72d2-ba2b-1e62c78022e0","5545C0DE960643A3B113135F52497835-2025-08-18-19-35-59","","null","","images/causal_sequence/saving_a_cat_causal/saving_a_cat_causal_0.png","null","",""
"","","","","","image-button-response","89","488588","0.0-14.0-1.0-0.0","5545C0DE960643A3B113135F52497835","5545C0DE960643A3B113135F52497835","0198be91-c627-718f-ad0a-068446c3f464","0198be8b-78cf-72d2-ba2b-1e62c78022e0","{""num_scrambled_semantic"":""8"",""num_scrambled_causal"":""4"",""num_scrambled_schematic"":""4"",""participantId"":""5545C0DE960643A3B113135F52497835"",""assignmentId"":""0198be91-c627-718f-ad0a-068446c3f464"",""projectId"":""0198be8b-78cf-72d2-ba2b-1e62c78022e0""}","https://test12345.live/?num_scrambled_semantic=8&num_scrambled_causal=4&num_scrambled_schematic=4&participantId=5545C0DE960643A3B113135F52497835&assignmentId=0198be91-c627-718f-ad0a-068446c3f464&projectId=0198be8b-78cf-72d2-ba2b-1e62c78022e0","5545C0DE960643A3B113135F52497835-2025-08-18-19-35-59","","null","","images/causal_sequence/saving_a_cat_causal/saving_a_cat_causal_2.png","null","",""
"","","","","","image-button-response","90","490496","0.0-14.0-1.0-1.0","5545C0DE960643A3B113135F52497835","5545C0DE960643A3B113135F52497835","0198be91-c627-718f-ad0a-068446c3f464","0198be8b-78cf-72d2-ba2b-1e62c78022e0","{""num_scrambled_semantic"":""8"",""num_scrambled_causal"":""4"",""num_scrambled_schematic"":""4"",""participantId"":""5545C0DE960643A3B113135F52497835"",""assignmentId"":""0198be91-c627-718f-ad0a-068446c3f464"",""projectId"":""0198be8b-78cf-72d2-ba2b-1e62c78022e0""}","https://test12345.live/?num_scrambled_semantic=8&num_scrambled_causal=4&num_scrambled_schematic=4&participantId=5545C0DE960643A3B113135F52497835&assignmentId=0198be91-c627-718f-ad0a-068446c3f464&projectId=0198be8b-78cf-72d2-ba2b-1e62c78022e0","5545C0DE960643A3B113135F52497835-2025-08-18-19-35-59","","1907","","images/causal_sequence/saving_a_cat_causal/saving_a_cat_causal_2.png","1","",""
"","","","","","image-button-response","91","492309","0.0-14.0-1.0-2.0","5545C0DE960643A3B113135F52497835","5545C0DE960643A3B113135F52497835","0198be91-c627-718f-ad0a-068446c3f464","0198be8b-78cf-72d2-ba2b-1e62c78022e0","{""num_scrambled_semantic"":""8"",""num_scrambled_causal"":""4"",""num_scrambled_schematic"":""4"",""participantId"":""5545C0DE960643A3B113135F52497835"",""assignmentId"":""0198be91-c627-718f-ad0a-068446c3f464"",""projectId"":""0198be8b-78cf-72d2-ba2b-1e62c78022e0""}","https://test12345.live/?num_scrambled_semantic=8&num_scrambled_causal=4&num_scrambled_schematic=4&participantId=5545C0DE960643A3B113135F52497835&assignmentId=0198be91-c627-718f-ad0a-068446c3f464&projectId=0198be8b-78cf-72d2-ba2b-1e62c78022e0","5545C0DE960643A3B113135F52497835-2025-08-18-19-35-59","","null","","[]","null","",""
"","","","","","image-button-response","92","496814","0.0-14.0-1.0-0.1","5545C0DE960643A3B113135F52497835","5545C0DE960643A3B113135F52497835","0198be91-c627-718f-ad0a-068446c3f464","0198be8b-78cf-72d2-ba2b-1e62c78022e0","{""num_scrambled_semantic"":""8"",""num_scrambled_causal"":""4"",""num_scrambled_schematic"":""4"",""participantId"":""5545C0DE960643A3B113135F52497835"",""assignmentId"":""0198be91-c627-718f-ad0a-068446c3f464"",""projectId"":""0198be8b-78cf-72d2-ba2b-1e62c78022e0""}","https://test12345.live/?num_scrambled_semantic=8&num_scrambled_causal=4&num_scrambled_schematic=4&participantId=5545C0DE960643A3B113135F52497835&assignmentId=0198be91-c627-718f-ad0a-068446c3f464&projectId=0198be8b-78cf-72d2-ba2b-1e62c78022e0","5545C0DE960643A3B113135F52497835-2025-08-18-19-35-59","","null","","images/causal_sequence/saving_a_cat_causal/saving_a_cat_causal_1.png","null","",""
"","","","","","image-button-response","93","497549","0.0-14.0-1.0-1.1","5545C0DE960643A3B113135F52497835","5545C0DE960643A3B113135F52497835","0198be91-c627-718f-ad0a-068446c3f464","0198be8b-78cf-72d2-ba2b-1e62c78022e0","{""num_scrambled_semantic"":""8"",""num_scrambled_causal"":""4"",""num_scrambled_schematic"":""4"",""participantId"":""5545C0DE960643A3B113135F52497835"",""assignmentId"":""0198be91-c627-718f-ad0a-068446c3f464"",""projectId"":""0198be8b-78cf-72d2-ba2b-1e62c78022e0""}","https://test12345.live/?num_scrambled_semantic=8&num_scrambled_causal=4&num_scrambled_schematic=4&participantId=5545C0DE960643A3B113135F52497835&assignmentId=0198be91-c627-718f-ad0a-068446c3f464&projectId=0198be8b-78cf-72d2-ba2b-1e62c78022e0","5545C0DE960643A3B113135F52497835-2025-08-18-19-35-59","","734","","images/causal_sequence/saving_a_cat_causal/saving_a_cat_causal_1.png","0","",""
"","","","","","image-button-response","94","499361","0.0-14.0-1.0-2.1","5545C0DE960643A3B113135F52497835","5545C0DE960643A3B113135F52497835","0198be91-c627-718f-ad0a-068446c3f464","0198be8b-78cf-72d2-ba2b-1e62c78022e0","{""num_scrambled_semantic"":""8"",""num_scrambled_causal"":""4"",""num_scrambled_schematic"":""4"",""participantId"":""5545C0DE960643A3B113135F52497835"",""assignmentId"":""0198be91-c627-718f-ad0a-068446c3f464"",""projectId"":""0198be8b-78cf-72d2-ba2b-1e62c78022e0""}","https://test12345.live/?num_scrambled_semantic=8&num_scrambled_causal=4&num_scrambled_schematic=4&participantId=5545C0DE960643A3B113135F52497835&assignmentId=0198be91-c627-718f-ad0a-068446c3f464&projectId=0198be8b-78cf-72d2-ba2b-1e62c78022e0","5545C0DE960643A3B113135F52497835-2025-08-18-19-35-59","","null","","[]","null","",""
"","","","","","image-button-response","95","503862","0.0-14.0-1.0-0.2","5545C0DE960643A3B113135F52497835","5545C0DE960643A3B113135F52497835","0198be91-c627-718f-ad0a-068446c3f464","0198be8b-78cf-72d2-ba2b-1e62c78022e0","{""num_scrambled_semantic"":""8"",""num_scrambled_causal"":""4"",""num_scrambled_schematic"":""4"",""participantId"":""5545C0DE960643A3B113135F52497835"",""assignmentId"":""0198be91-c627-718f-ad0a-068446c3f464"",""projectId"":""0198be8b-78cf-72d2-ba2b-1e62c78022e0""}","https://test12345.live/?num_scrambled_semantic=8&num_scrambled_causal=4&num_scrambled_schematic=4&participantId=5545C0DE960643A3B113135F52497835&assignmentId=0198be91-c627-718f-ad0a-068446c3f464&projectId=0198be8b-78cf-72d2-ba2b-1e62c78022e0","5545C0DE960643A3B113135F52497835-2025-08-18-19-35-59","","null","","images/causal_sequence/saving_a_cat_causal/saving_a_cat_causal_3.png","null","",""
"","","","","","image-button-response","96","504657","0.0-14.0-1.0-1.2","5545C0DE960643A3B113135F52497835","5545C0DE960643A3B113135F52497835","0198be91-c627-718f-ad0a-068446c3f464","0198be8b-78cf-72d2-ba2b-1e62c78022e0","{""num_scrambled_semantic"":""8"",""num_scrambled_causal"":""4"",""num_scrambled_schematic"":""4"",""participantId"":""5545C0DE960643A3B113135F52497835"",""assignmentId"":""0198be91-c627-718f-ad0a-068446c3f464"",""projectId"":""0198be8b-78cf-72d2-ba2b-1e62c78022e0""}","https://test12345.live/?num_scrambled_semantic=8&num_scrambled_causal=4&num_scrambled_schematic=4&participantId=5545C0DE960643A3B113135F52497835&assignmentId=0198be91-c627-718f-ad0a-068446c3f464&projectId=0198be8b-78cf-72d2-ba2b-1e62c78022e0","5545C0DE960643A3B113135F52497835-2025-08-18-19-35-59","","795","","images/causal_sequence/saving_a_cat_causal/saving_a_cat_causal_3.png","1","",""
"","","","","","image-button-response","97","506459","0.0-14.0-1.0-2.2","5545C0DE960643A3B113135F52497835","5545C0DE960643A3B113135F52497835","0198be91-c627-718f-ad0a-068446c3f464","0198be8b-78cf-72d2-ba2b-1e62c78022e0","{""num_scrambled_semantic"":""8"",""num_scrambled_causal"":""4"",""num_scrambled_schematic"":""4"",""participantId"":""5545C0DE960643A3B113135F52497835"",""assignmentId"":""0198be91-c627-718f-ad0a-068446c3f464"",""projectId"":""0198be8b-78cf-72d2-ba2b-1e62c78022e0""}","https://test12345.live/?num_scrambled_semantic=8&num_scrambled_causal=4&num_scrambled_schematic=4&participantId=5545C0DE960643A3B113135F52497835&assignmentId=0198be91-c627-718f-ad0a-068446c3f464&projectId=0198be8b-78cf-72d2-ba2b-1e62c78022e0","5545C0DE960643A3B113135F52497835-2025-08-18-19-35-59","","null","","[]","null","",""
"","","","","","image-button-response","98","510964","0.0-14.0-1.0-0.3","5545C0DE960643A3B113135F52497835","5545C0DE960643A3B113135F52497835","0198be91-c627-718f-ad0a-068446c3f464","0198be8b-78cf-72d2-ba2b-1e62c78022e0","{""num_scrambled_semantic"":""8"",""num_scrambled_causal"":""4"",""num_scrambled_schematic"":""4"",""participantId"":""5545C0DE960643A3B113135F52497835"",""assignmentId"":""0198be91-c627-718f-ad0a-068446c3f464"",""projectId"":""0198be8b-78cf-72d2-ba2b-1e62c78022e0""}","https://test12345.live/?num_scrambled_semantic=8&num_scrambled_causal=4&num_scrambled_schematic=4&participantId=5545C0DE960643A3B113135F52497835&assignmentId=0198be91-c627-718f-ad0a-068446c3f464&projectId=0198be8b-78cf-72d2-ba2b-1e62c78022e0","5545C0DE960643A3B113135F52497835-2025-08-18-19-35-59","","null","","images/causal_sequence/saving_a_cat_causal/saving_a_cat_causal_9.png","null","",""
"","","","","","image-button-response","99","511899","0.0-14.0-1.0-1.3","5545C0DE960643A3B113135F52497835","5545C0DE960643A3B113135F52497835","0198be91-c627-718f-ad0a-068446c3f464","0198be8b-78cf-72d2-ba2b-1e62c78022e0","{""num_scrambled_semantic"":""8"",""num_scrambled_causal"":""4"",""num_scrambled_schematic"":""4"",""participantId"":""5545C0DE960643A3B113135F52497835"",""assignmentId"":""0198be91-c627-718f-ad0a-068446c3f464"",""projectId"":""0198be8b-78cf-72d2-ba2b-1e62c78022e0""}","https://test12345.live/?num_scrambled_semantic=8&num_scrambled_causal=4&num_scrambled_schematic=4&participantId=5545C0DE960643A3B113135F52497835&assignmentId=0198be91-c627-718f-ad0a-068446c3f464&projectId=0198be8b-78cf-72d2-ba2b-1e62c78022e0","5545C0DE960643A3B113135F52497835-2025-08-18-19-35-59","","934","","images/causal_sequence/saving_a_cat_causal/saving_a_cat_causal_9.png","0","",""
"","","","","","image-button-response","100","513701","0.0-14.0-1.0-2.3","5545C0DE960643A3B113135F52497835","5545C0DE960643A3B113135F52497835","0198be91-c627-718f-ad0a-068446c3f464","0198be8b-78cf-72d2-ba2b-1e62c78022e0","{""num_scrambled_semantic"":""8"",""num_scrambled_causal"":""4"",""num_scrambled_schematic"":""4"",""participantId"":""5545C0DE960643A3B113135F52497835"",""assignmentId"":""0198be91-c627-718f-ad0a-068446c3f464"",""projectId"":""0198be8b-78cf-72d2-ba2b-1e62c78022e0""}","https://test12345.live/?num_scrambled_semantic=8&num_scrambled_causal=4&num_scrambled_schematic=4&participantId=5545C0DE960643A3B113135F52497835&assignmentId=0198be91-c627-718f-ad0a-068446c3f464&projectId=0198be8b-78cf-72d2-ba2b-1e62c78022e0","5545C0DE960643A3B113135F52497835-2025-08-18-19-35-59","","null","","[]","null","",""
"","","","","","image-button-response","101","518207","0.0-14.0-1.0-0.4","5545C0DE960643A3B113135F52497835","5545C0DE960643A3B113135F52497835","0198be91-c627-718f-ad0a-068446c3f464","0198be8b-78cf-72d2-ba2b-1e62c78022e0","{""num_scrambled_semantic"":""8"",""num_scrambled_causal"":""4"",""num_scrambled_schematic"":""4"",""participantId"":""5545C0DE960643A3B113135F52497835"",""assignmentId"":""0198be91-c627-718f-ad0a-068446c3f464"",""projectId"":""0198be8b-78cf-72d2-ba2b-1e62c78022e0""}","https://test12345.live/?num_scrambled_semantic=8&num_scrambled_causal=4&num_scrambled_schematic=4&participantId=5545C0DE960643A3B113135F52497835&assignmentId=0198be91-c627-718f-ad0a-068446c3f464&projectId=0198be8b-78cf-72d2-ba2b-1e62c78022e0","5545C0DE960643A3B113135F52497835-2025-08-18-19-35-59","","null","","images/causal_sequence/saving_a_cat_causal/saving_a_cat_causal_ten.png","null","",""
"","","","","","image-button-response","102","519394","0.0-14.0-1.0-1.4","5545C0DE960643A3B113135F52497835","5545C0DE960643A3B113135F52497835","0198be91-c627-718f-ad0a-068446c3f464","0198be8b-78cf-72d2-ba2b-1e62c78022e0","{""num_scrambled_semantic"":""8"",""num_scrambled_causal"":""4"",""num_scrambled_schematic"":""4"",""participantId"":""5545C0DE960643A3B113135F52497835"",""assignmentId"":""0198be91-c627-718f-ad0a-068446c3f464"",""projectId"":""0198be8b-78cf-72d2-ba2b-1e62c78022e0""}","https://test12345.live/?num_scrambled_semantic=8&num_scrambled_causal=4&num_scrambled_schematic=4&participantId=5545C0DE960643A3B113135F52497835&assignmentId=0198be91-c627-718f-ad0a-068446c3f464&projectId=0198be8b-78cf-72d2-ba2b-1e62c78022e0","5545C0DE960643A3B113135F52497835-2025-08-18-19-35-59","","1186","","images/causal_sequence/saving_a_cat_causal/saving_a_cat_causal_ten.png","0","",""
"","","","","","image-button-response","103","521199","0.0-14.0-1.0-2.4","5545C0DE960643A3B113135F52497835","5545C0DE960643A3B113135F52497835","0198be91-c627-718f-ad0a-068446c3f464","0198be8b-78cf-72d2-ba2b-1e62c78022e0","{""num_scrambled_semantic"":""8"",""num_scrambled_causal"":""4"",""num_scrambled_schematic"":""4"",""participantId"":""5545C0DE960643A3B113135F52497835"",""assignmentId"":""0198be91-c627-718f-ad0a-068446c3f464"",""projectId"":""0198be8b-78cf-72d2-ba2b-1e62c78022e0""}","https://test12345.live/?num_scrambled_semantic=8&num_scrambled_causal=4&num_scrambled_schematic=4&participantId=5545C0DE960643A3B113135F52497835&assignmentId=0198be91-c627-718f-ad0a-068446c3f464&projectId=0198be8b-78cf-72d2-ba2b-1e62c78022e0","5545C0DE960643A3B113135F52497835-2025-08-18-19-35-59","","null","","[]","null","",""
"","","","","","image-button-response","104","525701","0.0-14.0-1.0-0.5","5545C0DE960643A3B113135F52497835","5545C0DE960643A3B113135F52497835","0198be91-c627-718f-ad0a-068446c3f464","0198be8b-78cf-72d2-ba2b-1e62c78022e0","{""num_scrambled_semantic"":""8"",""num_scrambled_causal"":""4"",""num_scrambled_schematic"":""4"",""participantId"":""5545C0DE960643A3B113135F52497835"",""assignmentId"":""0198be91-c627-718f-ad0a-068446c3f464"",""projectId"":""0198be8b-78cf-72d2-ba2b-1e62c78022e0""}","https://test12345.live/?num_scrambled_semantic=8&num_scrambled_causal=4&num_scrambled_schematic=4&participantId=5545C0DE960643A3B113135F52497835&assignmentId=0198be91-c627-718f-ad0a-068446c3f464&projectId=0198be8b-78cf-72d2-ba2b-1e62c78022e0","5545C0DE960643A3B113135F52497835-2025-08-18-19-35-59","","null","","images/causal_sequence/saving_a_cat_causal/saving_a_cat_causal_5.png","null","",""
"","","","","","image-button-response","105","526347","0.0-14.0-1.0-1.5","5545C0DE960643A3B113135F52497835","5545C0DE960643A3B113135F52497835","0198be91-c627-718f-ad0a-068446c3f464","0198be8b-78cf-72d2-ba2b-1e62c78022e0","{""num_scrambled_semantic"":""8"",""num_scrambled_causal"":""4"",""num_scrambled_schematic"":""4"",""participantId"":""5545C0DE960643A3B113135F52497835"",""assignmentId"":""0198be91-c627-718f-ad0a-068446c3f464"",""projectId"":""0198be8b-78cf-72d2-ba2b-1e62c78022e0""}","https://test12345.live/?num_scrambled_semantic=8&num_scrambled_causal=4&num_scrambled_schematic=4&participantId=5545C0DE960643A3B113135F52497835&assignmentId=0198be91-c627-718f-ad0a-068446c3f464&projectId=0198be8b-78cf-72d2-ba2b-1e62c78022e0","5545C0DE960643A3B113135F52497835-2025-08-18-19-35-59","","645","","images/causal_sequence/saving_a_cat_causal/saving_a_cat_causal_5.png","0","",""
"","","","","","image-button-response","106","528154","0.0-14.0-1.0-2.5","5545C0DE960643A3B113135F52497835","5545C0DE960643A3B113135F52497835","0198be91-c627-718f-ad0a-068446c3f464","0198be8b-78cf-72d2-ba2b-1e62c78022e0","{""num_scrambled_semantic"":""8"",""num_scrambled_causal"":""4"",""num_scrambled_schematic"":""4"",""participantId"":""5545C0DE960643A3B113135F52497835"",""assignmentId"":""0198be91-c627-718f-ad0a-068446c3f464"",""projectId"":""0198be8b-78cf-72d2-ba2b-1e62c78022e0""}","https://test12345.live/?num_scrambled_semantic=8&num_scrambled_causal=4&num_scrambled_schematic=4&participantId=5545C0DE960643A3B113135F52497835&assignmentId=0198be91-c627-718f-ad0a-068446c3f464&projectId=0198be8b-78cf-72d2-ba2b-1e62c78022e0","5545C0DE960643A3B113135F52497835-2025-08-18-19-35-59","","null","","[]","null","",""
"","","","","","image-button-response","107","532669","0.0-14.0-1.0-0.6","5545C0DE960643A3B113135F52497835","5545C0DE960643A3B113135F52497835","0198be91-c627-718f-ad0a-068446c3f464","0198be8b-78cf-72d2-ba2b-1e62c78022e0","{""num_scrambled_semantic"":""8"",""num_scrambled_causal"":""4"",""num_scrambled_schematic"":""4"",""participantId"":""5545C0DE960643A3B113135F52497835"",""assignmentId"":""0198be91-c627-718f-ad0a-068446c3f464"",""projectId"":""0198be8b-78cf-72d2-ba2b-1e62c78022e0""}","https://test12345.live/?num_scrambled_semantic=8&num_scrambled_causal=4&num_scrambled_schematic=4&participantId=5545C0DE960643A3B113135F52497835&assignmentId=0198be91-c627-718f-ad0a-068446c3f464&projectId=0198be8b-78cf-72d2-ba2b-1e62c78022e0","5545C0DE960643A3B113135F52497835-2025-08-18-19-35-59","","null","","images/causal_sequence/saving_a_cat_causal/saving_a_cat_causal_4.png","null","",""
"","","","","","image-button-response","108","533089","0.0-14.0-1.0-1.6","5545C0DE960643A3B113135F52497835","5545C0DE960643A3B113135F52497835","0198be91-c627-718f-ad0a-068446c3f464","0198be8b-78cf-72d2-ba2b-1e62c78022e0","{""num_scrambled_semantic"":""8"",""num_scrambled_causal"":""4"",""num_scrambled_schematic"":""4"",""participantId"":""5545C0DE960643A3B113135F52497835"",""assignmentId"":""0198be91-c627-718f-ad0a-068446c3f464"",""projectId"":""0198be8b-78cf-72d2-ba2b-1e62c78022e0""}","https://test12345.live/?num_scrambled_semantic=8&num_scrambled_causal=4&num_scrambled_schematic=4&participantId=5545C0DE960643A3B113135F52497835&assignmentId=0198be91-c627-718f-ad0a-068446c3f464&projectId=0198be8b-78cf-72d2-ba2b-1e62c78022e0","5545C0DE960643A3B113135F52497835-2025-08-18-19-35-59","","419","","images/causal_sequence/saving_a_cat_causal/saving_a_cat_causal_4.png","0","",""
"","","","","","image-button-response","109","534899","0.0-14.0-1.0-2.6","5545C0DE960643A3B113135F52497835","5545C0DE960643A3B113135F52497835","0198be91-c627-718f-ad0a-068446c3f464","0198be8b-78cf-72d2-ba2b-1e62c78022e0","{""num_scrambled_semantic"":""8"",""num_scrambled_causal"":""4"",""num_scrambled_schematic"":""4"",""participantId"":""5545C0DE960643A3B113135F52497835"",""assignmentId"":""0198be91-c627-718f-ad0a-068446c3f464"",""projectId"":""0198be8b-78cf-72d2-ba2b-1e62c78022e0""}","https://test12345.live/?num_scrambled_semantic=8&num_scrambled_causal=4&num_scrambled_schematic=4&participantId=5545C0DE960643A3B113135F52497835&assignmentId=0198be91-c627-718f-ad0a-068446c3f464&projectId=0198be8b-78cf-72d2-ba2b-1e62c78022e0","5545C0DE960643A3B113135F52497835-2025-08-18-19-35-59","","null","","[]","null","",""
"","","","","","image-button-response","110","539402","0.0-14.0-1.0-0.7","5545C0DE960643A3B113135F52497835","5545C0DE960643A3B113135F52497835","0198be91-c627-718f-ad0a-068446c3f464","0198be8b-78cf-72d2-ba2b-1e62c78022e0","{""num_scrambled_semantic"":""8"",""num_scrambled_causal"":""4"",""num_scrambled_schematic"":""4"",""participantId"":""5545C0DE960643A3B113135F52497835"",""assignmentId"":""0198be91-c627-718f-ad0a-068446c3f464"",""projectId"":""0198be8b-78cf-72d2-ba2b-1e62c78022e0""}","https://test12345.live/?num_scrambled_semantic=8&num_scrambled_causal=4&num_scrambled_schematic=4&participantId=5545C0DE960643A3B113135F52497835&assignmentId=0198be91-c627-718f-ad0a-068446c3f464&projectId=0198be8b-78cf-72d2-ba2b-1e62c78022e0","5545C0DE960643A3B113135F52497835-2025-08-18-19-35-59","","null","","images/causal_sequence/saving_a_cat_causal/saving_a_cat_causal_7.png","null","",""
"","","","","","image-button-response","111","540645","0.0-14.0-1.0-1.7","5545C0DE960643A3B113135F52497835","5545C0DE960643A3B113135F52497835","0198be91-c627-718f-ad0a-068446c3f464","0198be8b-78cf-72d2-ba2b-1e62c78022e0","{""num_scrambled_semantic"":""8"",""num_scrambled_causal"":""4"",""num_scrambled_schematic"":""4"",""participantId"":""5545C0DE960643A3B113135F52497835"",""assignmentId"":""0198be91-c627-718f-ad0a-068446c3f464"",""projectId"":""0198be8b-78cf-72d2-ba2b-1e62c78022e0""}","https://test12345.live/?num_scrambled_semantic=8&num_scrambled_causal=4&num_scrambled_schematic=4&participantId=5545C0DE960643A3B113135F52497835&assignmentId=0198be91-c627-718f-ad0a-068446c3f464&projectId=0198be8b-78cf-72d2-ba2b-1e62c78022e0","5545C0DE960643A3B113135F52497835-2025-08-18-19-35-59","","1242","","images/causal_sequence/saving_a_cat_causal/saving_a_cat_causal_7.png","0","",""
"","","","","","image-button-response","112","542455","0.0-14.0-1.0-2.7","5545C0DE960643A3B113135F52497835","5545C0DE960643A3B113135F52497835","0198be91-c627-718f-ad0a-068446c3f464","0198be8b-78cf-72d2-ba2b-1e62c78022e0","{""num_scrambled_semantic"":""8"",""num_scrambled_causal"":""4"",""num_scrambled_schematic"":""4"",""participantId"":""5545C0DE960643A3B113135F52497835"",""assignmentId"":""0198be91-c627-718f-ad0a-068446c3f464"",""projectId"":""0198be8b-78cf-72d2-ba2b-1e62c78022e0""}","https://test12345.live/?num_scrambled_semantic=8&num_scrambled_causal=4&num_scrambled_schematic=4&participantId=5545C0DE960643A3B113135F52497835&assignmentId=0198be91-c627-718f-ad0a-068446c3f464&projectId=0198be8b-78cf-72d2-ba2b-1e62c78022e0","5545C0DE960643A3B113135F52497835-2025-08-18-19-35-59","","null","","[]","null","",""
"","","","","","image-button-response","113","546959","0.0-14.0-1.0-0.8","5545C0DE960643A3B113135F52497835","5545C0DE960643A3B113135F52497835","0198be91-c627-718f-ad0a-068446c3f464","0198be8b-78cf-72d2-ba2b-1e62c78022e0","{""num_scrambled_semantic"":""8"",""num_scrambled_causal"":""4"",""num_scrambled_schematic"":""4"",""participantId"":""5545C0DE960643A3B113135F52497835"",""assignmentId"":""0198be91-c627-718f-ad0a-068446c3f464"",""projectId"":""0198be8b-78cf-72d2-ba2b-1e62c78022e0""}","https://test12345.live/?num_scrambled_semantic=8&num_scrambled_causal=4&num_scrambled_schematic=4&participantId=5545C0DE960643A3B113135F52497835&assignmentId=0198be91-c627-718f-ad0a-068446c3f464&projectId=0198be8b-78cf-72d2-ba2b-1e62c78022e0","5545C0DE960643A3B113135F52497835-2025-08-18-19-35-59","","null","","images/causal_sequence/saving_a_cat_causal/saving_a_cat_causal_6.png","null","",""
