"success","timeout","failed_images","failed_audio","failed_video","trial_type","trial_index","time_elapsed","internal_node_id","subject","subject_id","study_id","session_id","urlvar","current_url","audio_id","view_history","rt","device_id","stimulus","response","estimated_stimulus_onset","seq_name"
"true","false","[]","[]","[]","preload","0","2437","0.0-0.0","566DE7EF91D74926BD631D55854ED087","566DE7EF91D74926BD631D55854ED087","dcae9e7c-86eb-4214-a392-2fdd0a3e7440","5e631737-0fa4-44a6-b227-7ba1d7345015","{""num_scrambled_semantic"":""8"",""num_scrambled_causal"":""4"",""num_scrambled_schematic"":""4"",""participantId"":""566DE7EF91D74926BD631D55854ED087"",""assignmentId"":""dcae9e7c-86eb-4214-a392-2fdd0a3e7440"",""projectId"":""5e631737-0fa4-44a6-b227-7ba1d7345015""}","https://test12345.live/?num_scrambled_semantic=8&num_scrambled_causal=4&num_scrambled_schematic=4&participantId=566DE7EF91D74926BD631D55854ED087&assignmentId=dcae9e7c-86eb-4214-a392-2fdd0a3e7440&projectId=5e631737-0fa4-44a6-b227-7ba1d7345015","566DE7EF91D74926BD631D55854ED087-2025-05-27-19-11-52","","","","","","",""
"","","","","","instructions","1","436158","0.0-1.0","566DE7EF91D74926BD631D55854ED087","566DE7EF91D74926BD631D55854ED087","dcae9e7c-86eb-4214-a392-2fdd0a3e7440","5e631737-0fa4-44a6-b227-7ba1d7345015","{""num_scrambled_semantic"":""8"",""num_scrambled_causal"":""4"",""num_scrambled_schematic"":""4"",""participantId"":""566DE7EF91D74926BD631D55854ED087"",""assignmentId"":""dcae9e7c-86eb-4214-a392-2fdd0a3e7440"",""projectId"":""5e631737-0fa4-44a6-b227-7ba1d7345015""}","https://test12345.live/?num_scrambled_semantic=8&num_scrambled_causal=4&num_scrambled_schematic=4&participantId=566DE7EF91D74926BD631D55854ED087&assignmentId=dcae9e7c-86eb-4214-a392-2fdd0a3e7440&projectId=5e631737-0fa4-44a6-b227-7ba1d7345015","566DE7EF91D74926BD631D55854ED087-2025-05-27-19-11-52","[{""page_index"":0,""viewing_time"":433720}]","433720","","","","",""
"","","","","","instructions","2","1980854","0.0-2.0","566DE7EF91D74926BD631D55854ED087","566DE7EF91D74926BD631D55854ED087","dcae9e7c-86eb-4214-a392-2fdd0a3e7440","5e631737-0fa4-44a6-b227-7ba1d7345015","{""num_scrambled_semantic"":""8"",""num_scrambled_causal"":""4"",""num_scrambled_schematic"":""4"",""participantId"":""566DE7EF91D74926BD631D55854ED087"",""assignmentId"":""dcae9e7c-86eb-4214-a392-2fdd0a3e7440"",""projectId"":""5e631737-0fa4-44a6-b227-7ba1d7345015""}","https://test12345.live/?num_scrambled_semantic=8&num_scrambled_causal=4&num_scrambled_schematic=4&participantId=566DE7EF91D74926BD631D55854ED087&assignmentId=dcae9e7c-86eb-4214-a392-2fdd0a3e7440&projectId=5e631737-0fa4-44a6-b227-7ba1d7345015","566DE7EF91D74926BD631D55854ED087-2025-05-27-19-11-52","[{""page_index"":0,""viewing_time"":1544696}]","1544696","","","","",""
"true","","","","","fullscreen","3","1982932","0.0-3.0","566DE7EF91D74926BD631D55854ED087","566DE7EF91D74926BD631D55854ED087","dcae9e7c-86eb-4214-a392-2fdd0a3e7440","5e631737-0fa4-44a6-b227-7ba1d7345015","{""num_scrambled_semantic"":""8"",""num_scrambled_causal"":""4"",""num_scrambled_schematic"":""4"",""participantId"":""566DE7EF91D74926BD631D55854ED087"",""assignmentId"":""dcae9e7c-86eb-4214-a392-2fdd0a3e7440"",""projectId"":""5e631737-0fa4-44a6-b227-7ba1d7345015""}","https://test12345.live/?num_scrambled_semantic=8&num_scrambled_causal=4&num_scrambled_schematic=4&participantId=566DE7EF91D74926BD631D55854ED087&assignmentId=dcae9e7c-86eb-4214-a392-2fdd0a3e7440&projectId=5e631737-0fa4-44a6-b227-7ba1d7345015","566DE7EF91D74926BD631D55854ED087-2025-05-27-19-11-52","","1071","","","","",""
"","","","","","initialize-microphone","4","1995627","0.0-4.0-0.0","566DE7EF91D74926BD631D55854ED087","566DE7EF91D74926BD631D55854ED087","dcae9e7c-86eb-4214-a392-2fdd0a3e7440","5e631737-0fa4-44a6-b227-7ba1d7345015","{""num_scrambled_semantic"":""8"",""num_scrambled_causal"":""4"",""num_scrambled_schematic"":""4"",""participantId"":""566DE7EF91D74926BD631D55854ED087"",""assignmentId"":""dcae9e7c-86eb-4214-a392-2fdd0a3e7440"",""projectId"":""5e631737-0fa4-44a6-b227-7ba1d7345015""}","https://test12345.live/?num_scrambled_semantic=8&num_scrambled_causal=4&num_scrambled_schematic=4&participantId=566DE7EF91D74926BD631D55854ED087&assignmentId=dcae9e7c-86eb-4214-a392-2fdd0a3e7440&projectId=5e631737-0fa4-44a6-b227-7ba1d7345015","566DE7EF91D74926BD631D55854ED087-2025-05-27-19-11-52","","","6b9bcd2fd885deca0527d9f8b3c1e0cdfa4f5d2b764429688b570849912f11ac","","","",""
"","","","","","html-audio-response","5","2038881","0.0-4.0-1.0","566DE7EF91D74926BD631D55854ED087","566DE7EF91D74926BD631D55854ED087","dcae9e7c-86eb-4214-a392-2fdd0a3e7440","5e631737-0fa4-44a6-b227-7ba1d7345015","{""num_scrambled_semantic"":""8"",""num_scrambled_causal"":""4"",""num_scrambled_schematic"":""4"",""participantId"":""566DE7EF91D74926BD631D55854ED087"",""assignmentId"":""dcae9e7c-86eb-4214-a392-2fdd0a3e7440"",""projectId"":""5e631737-0fa4-44a6-b227-7ba1d7345015""}","https://test12345.live/?num_scrambled_semantic=8&num_scrambled_causal=4&num_scrambled_schematic=4&participantId=566DE7EF91D74926BD631D55854ED087&assignmentId=dcae9e7c-86eb-4214-a392-2fdd0a3e7440&projectId=5e631737-0fa4-44a6-b227-7ba1d7345015","566DE7EF91D74926BD631D55854ED087-2025-05-27-19-11-52","","37289","","<span style=""color: red; font-size: 24px""> NOW RECORDING</span>
        <p>Please test Microphone</p>","","3",""
"","","","","","html-button-response","6","2040527","0.0-4.0-2.0","566DE7EF91D74926BD631D55854ED087","566DE7EF91D74926BD631D55854ED087","dcae9e7c-86eb-4214-a392-2fdd0a3e7440","5e631737-0fa4-44a6-b227-7ba1d7345015","{""num_scrambled_semantic"":""8"",""num_scrambled_causal"":""4"",""num_scrambled_schematic"":""4"",""participantId"":""566DE7EF91D74926BD631D55854ED087"",""assignmentId"":""dcae9e7c-86eb-4214-a392-2fdd0a3e7440"",""projectId"":""5e631737-0fa4-44a6-b227-7ba1d7345015""}","https://test12345.live/?num_scrambled_semantic=8&num_scrambled_causal=4&num_scrambled_schematic=4&participantId=566DE7EF91D74926BD631D55854ED087&assignmentId=dcae9e7c-86eb-4214-a392-2fdd0a3e7440&projectId=5e631737-0fa4-44a6-b227-7ba1d7345015","566DE7EF91D74926BD631D55854ED087-2025-05-27-19-11-52","","1644","","<p style=""font-size:48px; color:red;"">Is Microphone OK?</p>","0","",""
"","","","","","initialize-microphone","7","2042435","0.0-4.1-0.1","566DE7EF91D74926BD631D55854ED087","566DE7EF91D74926BD631D55854ED087","dcae9e7c-86eb-4214-a392-2fdd0a3e7440","5e631737-0fa4-44a6-b227-7ba1d7345015","{""num_scrambled_semantic"":""8"",""num_scrambled_causal"":""4"",""num_scrambled_schematic"":""4"",""participantId"":""566DE7EF91D74926BD631D55854ED087"",""assignmentId"":""dcae9e7c-86eb-4214-a392-2fdd0a3e7440"",""projectId"":""5e631737-0fa4-44a6-b227-7ba1d7345015""}","https://test12345.live/?num_scrambled_semantic=8&num_scrambled_causal=4&num_scrambled_schematic=4&participantId=566DE7EF91D74926BD631D55854ED087&assignmentId=dcae9e7c-86eb-4214-a392-2fdd0a3e7440&projectId=5e631737-0fa4-44a6-b227-7ba1d7345015","566DE7EF91D74926BD631D55854ED087-2025-05-27-19-11-52","","","6b9bcd2fd885deca0527d9f8b3c1e0cdfa4f5d2b764429688b570849912f11ac","","","",""
"","","","","","html-audio-response","8","2050142","0.0-4.1-1.1","566DE7EF91D74926BD631D55854ED087","566DE7EF91D74926BD631D55854ED087","dcae9e7c-86eb-4214-a392-2fdd0a3e7440","5e631737-0fa4-44a6-b227-7ba1d7345015","{""num_scrambled_semantic"":""8"",""num_scrambled_causal"":""4"",""num_scrambled_schematic"":""4"",""participantId"":""566DE7EF91D74926BD631D55854ED087"",""assignmentId"":""dcae9e7c-86eb-4214-a392-2fdd0a3e7440"",""projectId"":""5e631737-0fa4-44a6-b227-7ba1d7345015""}","https://test12345.live/?num_scrambled_semantic=8&num_scrambled_causal=4&num_scrambled_schematic=4&participantId=566DE7EF91D74926BD631D55854ED087&assignmentId=dcae9e7c-86eb-4214-a392-2fdd0a3e7440&projectId=5e631737-0fa4-44a6-b227-7ba1d7345015","566DE7EF91D74926BD631D55854ED087-2025-05-27-19-11-52","","2807","","<span style=""color: red; font-size: 24px""> NOW RECORDING</span>
        <p>Please test Microphone</p>","","5",""
"","","","","","html-button-response","9","2051030","0.0-4.1-2.1","566DE7EF91D74926BD631D55854ED087","566DE7EF91D74926BD631D55854ED087","dcae9e7c-86eb-4214-a392-2fdd0a3e7440","5e631737-0fa4-44a6-b227-7ba1d7345015","{""num_scrambled_semantic"":""8"",""num_scrambled_causal"":""4"",""num_scrambled_schematic"":""4"",""participantId"":""566DE7EF91D74926BD631D55854ED087"",""assignmentId"":""dcae9e7c-86eb-4214-a392-2fdd0a3e7440"",""projectId"":""5e631737-0fa4-44a6-b227-7ba1d7345015""}","https://test12345.live/?num_scrambled_semantic=8&num_scrambled_causal=4&num_scrambled_schematic=4&participantId=566DE7EF91D74926BD631D55854ED087&assignmentId=dcae9e7c-86eb-4214-a392-2fdd0a3e7440&projectId=5e631737-0fa4-44a6-b227-7ba1d7345015","566DE7EF91D74926BD631D55854ED087-2025-05-27-19-11-52","","887","","<p style=""font-size:48px; color:red;"">Is Microphone OK?</p>","1","",""
"","","","","","instructions","10","2197342","0.0-5.0","566DE7EF91D74926BD631D55854ED087","566DE7EF91D74926BD631D55854ED087","dcae9e7c-86eb-4214-a392-2fdd0a3e7440","5e631737-0fa4-44a6-b227-7ba1d7345015","{""num_scrambled_semantic"":""8"",""num_scrambled_causal"":""4"",""num_scrambled_schematic"":""4"",""participantId"":""566DE7EF91D74926BD631D55854ED087"",""assignmentId"":""dcae9e7c-86eb-4214-a392-2fdd0a3e7440"",""projectId"":""5e631737-0fa4-44a6-b227-7ba1d7345015""}","https://test12345.live/?num_scrambled_semantic=8&num_scrambled_causal=4&num_scrambled_schematic=4&participantId=566DE7EF91D74926BD631D55854ED087&assignmentId=dcae9e7c-86eb-4214-a392-2fdd0a3e7440&projectId=5e631737-0fa4-44a6-b227-7ba1d7345015","566DE7EF91D74926BD631D55854ED087-2025-05-27-19-11-52","[{""page_index"":0,""viewing_time"":3544},{""page_index"":1,""viewing_time"":142768}]","146312","","","","",""
"","","","","","image-button-response","11","2203360","0.0-6.0-0.0","566DE7EF91D74926BD631D55854ED087","566DE7EF91D74926BD631D55854ED087","dcae9e7c-86eb-4214-a392-2fdd0a3e7440","5e631737-0fa4-44a6-b227-7ba1d7345015","{""num_scrambled_semantic"":""8"",""num_scrambled_causal"":""4"",""num_scrambled_schematic"":""4"",""participantId"":""566DE7EF91D74926BD631D55854ED087"",""assignmentId"":""dcae9e7c-86eb-4214-a392-2fdd0a3e7440"",""projectId"":""5e631737-0fa4-44a6-b227-7ba1d7345015""}","https://test12345.live/?num_scrambled_semantic=8&num_scrambled_causal=4&num_scrambled_schematic=4&participantId=566DE7EF91D74926BD631D55854ED087&assignmentId=dcae9e7c-86eb-4214-a392-2fdd0a3e7440&projectId=5e631737-0fa4-44a6-b227-7ba1d7345015","566DE7EF91D74926BD631D55854ED087-2025-05-27-19-11-52","","null","","images/instructions/movie_0.png","null","",""
"","","","","","image-button-response","12","2207875","0.0-6.0-1.0-0.0","566DE7EF91D74926BD631D55854ED087","566DE7EF91D74926BD631D55854ED087","dcae9e7c-86eb-4214-a392-2fdd0a3e7440","5e631737-0fa4-44a6-b227-7ba1d7345015","{""num_scrambled_semantic"":""8"",""num_scrambled_causal"":""4"",""num_scrambled_schematic"":""4"",""participantId"":""566DE7EF91D74926BD631D55854ED087"",""assignmentId"":""dcae9e7c-86eb-4214-a392-2fdd0a3e7440"",""projectId"":""5e631737-0fa4-44a6-b227-7ba1d7345015""}","https://test12345.live/?num_scrambled_semantic=8&num_scrambled_causal=4&num_scrambled_schematic=4&participantId=566DE7EF91D74926BD631D55854ED087&assignmentId=dcae9e7c-86eb-4214-a392-2fdd0a3e7440&projectId=5e631737-0fa4-44a6-b227-7ba1d7345015","566DE7EF91D74926BD631D55854ED087-2025-05-27-19-11-52","","null","","images/instructions/movie_1.png","null","",""
"","","","","","image-button-response","13","2210670","0.0-6.0-1.0-1.0","566DE7EF91D74926BD631D55854ED087","566DE7EF91D74926BD631D55854ED087","dcae9e7c-86eb-4214-a392-2fdd0a3e7440","5e631737-0fa4-44a6-b227-7ba1d7345015","{""num_scrambled_semantic"":""8"",""num_scrambled_causal"":""4"",""num_scrambled_schematic"":""4"",""participantId"":""566DE7EF91D74926BD631D55854ED087"",""assignmentId"":""dcae9e7c-86eb-4214-a392-2fdd0a3e7440"",""projectId"":""5e631737-0fa4-44a6-b227-7ba1d7345015""}","https://test12345.live/?num_scrambled_semantic=8&num_scrambled_causal=4&num_scrambled_schematic=4&participantId=566DE7EF91D74926BD631D55854ED087&assignmentId=dcae9e7c-86eb-4214-a392-2fdd0a3e7440&projectId=5e631737-0fa4-44a6-b227-7ba1d7345015","566DE7EF91D74926BD631D55854ED087-2025-05-27-19-11-52","","2794","","images/instructions/movie_1.png","0","",""
"","","","","","image-button-response","14","2212473","0.0-6.0-1.0-2.0","566DE7EF91D74926BD631D55854ED087","566DE7EF91D74926BD631D55854ED087","dcae9e7c-86eb-4214-a392-2fdd0a3e7440","5e631737-0fa4-44a6-b227-7ba1d7345015","{""num_scrambled_semantic"":""8"",""num_scrambled_causal"":""4"",""num_scrambled_schematic"":""4"",""participantId"":""566DE7EF91D74926BD631D55854ED087"",""assignmentId"":""dcae9e7c-86eb-4214-a392-2fdd0a3e7440"",""projectId"":""5e631737-0fa4-44a6-b227-7ba1d7345015""}","https://test12345.live/?num_scrambled_semantic=8&num_scrambled_causal=4&num_scrambled_schematic=4&participantId=566DE7EF91D74926BD631D55854ED087&assignmentId=dcae9e7c-86eb-4214-a392-2fdd0a3e7440&projectId=5e631737-0fa4-44a6-b227-7ba1d7345015","566DE7EF91D74926BD631D55854ED087-2025-05-27-19-11-52","","null","","[]","null","",""
"","","","","","image-button-response","15","2216983","0.0-6.0-1.0-0.1","566DE7EF91D74926BD631D55854ED087","566DE7EF91D74926BD631D55854ED087","dcae9e7c-86eb-4214-a392-2fdd0a3e7440","5e631737-0fa4-44a6-b227-7ba1d7345015","{""num_scrambled_semantic"":""8"",""num_scrambled_causal"":""4"",""num_scrambled_schematic"":""4"",""participantId"":""566DE7EF91D74926BD631D55854ED087"",""assignmentId"":""dcae9e7c-86eb-4214-a392-2fdd0a3e7440"",""projectId"":""5e631737-0fa4-44a6-b227-7ba1d7345015""}","https://test12345.live/?num_scrambled_semantic=8&num_scrambled_causal=4&num_scrambled_schematic=4&participantId=566DE7EF91D74926BD631D55854ED087&assignmentId=dcae9e7c-86eb-4214-a392-2fdd0a3e7440&projectId=5e631737-0fa4-44a6-b227-7ba1d7345015","566DE7EF91D74926BD631D55854ED087-2025-05-27-19-11-52","","null","","images/instructions/movie_2.png","null","",""
"","","","","","image-button-response","16","2220985","0.0-6.0-1.0-1.1","566DE7EF91D74926BD631D55854ED087","566DE7EF91D74926BD631D55854ED087","dcae9e7c-86eb-4214-a392-2fdd0a3e7440","5e631737-0fa4-44a6-b227-7ba1d7345015","{""num_scrambled_semantic"":""8"",""num_scrambled_causal"":""4"",""num_scrambled_schematic"":""4"",""participantId"":""566DE7EF91D74926BD631D55854ED087"",""assignmentId"":""dcae9e7c-86eb-4214-a392-2fdd0a3e7440"",""projectId"":""5e631737-0fa4-44a6-b227-7ba1d7345015""}","https://test12345.live/?num_scrambled_semantic=8&num_scrambled_causal=4&num_scrambled_schematic=4&participantId=566DE7EF91D74926BD631D55854ED087&assignmentId=dcae9e7c-86eb-4214-a392-2fdd0a3e7440&projectId=5e631737-0fa4-44a6-b227-7ba1d7345015","566DE7EF91D74926BD631D55854ED087-2025-05-27-19-11-52","","null","","images/instructions/movie_2.png","null","",""
"","","","","","image-button-response","17","2222796","0.0-6.0-1.0-2.1","566DE7EF91D74926BD631D55854ED087","566DE7EF91D74926BD631D55854ED087","dcae9e7c-86eb-4214-a392-2fdd0a3e7440","5e631737-0fa4-44a6-b227-7ba1d7345015","{""num_scrambled_semantic"":""8"",""num_scrambled_causal"":""4"",""num_scrambled_schematic"":""4"",""participantId"":""566DE7EF91D74926BD631D55854ED087"",""assignmentId"":""dcae9e7c-86eb-4214-a392-2fdd0a3e7440"",""projectId"":""5e631737-0fa4-44a6-b227-7ba1d7345015""}","https://test12345.live/?num_scrambled_semantic=8&num_scrambled_causal=4&num_scrambled_schematic=4&participantId=566DE7EF91D74926BD631D55854ED087&assignmentId=dcae9e7c-86eb-4214-a392-2fdd0a3e7440&projectId=5e631737-0fa4-44a6-b227-7ba1d7345015","566DE7EF91D74926BD631D55854ED087-2025-05-27-19-11-52","","null","","[]","null","",""
"","","","","","image-button-response","18","2227300","0.0-6.0-1.0-0.2","566DE7EF91D74926BD631D55854ED087","566DE7EF91D74926BD631D55854ED087","dcae9e7c-86eb-4214-a392-2fdd0a3e7440","5e631737-0fa4-44a6-b227-7ba1d7345015","{""num_scrambled_semantic"":""8"",""num_scrambled_causal"":""4"",""num_scrambled_schematic"":""4"",""participantId"":""566DE7EF91D74926BD631D55854ED087"",""assignmentId"":""dcae9e7c-86eb-4214-a392-2fdd0a3e7440"",""projectId"":""5e631737-0fa4-44a6-b227-7ba1d7345015""}","https://test12345.live/?num_scrambled_semantic=8&num_scrambled_causal=4&num_scrambled_schematic=4&participantId=566DE7EF91D74926BD631D55854ED087&assignmentId=dcae9e7c-86eb-4214-a392-2fdd0a3e7440&projectId=5e631737-0fa4-44a6-b227-7ba1d7345015","566DE7EF91D74926BD631D55854ED087-2025-05-27-19-11-52","","null","","images/instructions/movie_3.png","null","",""
"","","","","","image-button-response","19","2228326","0.0-6.0-1.0-1.2","566DE7EF91D74926BD631D55854ED087","566DE7EF91D74926BD631D55854ED087","dcae9e7c-86eb-4214-a392-2fdd0a3e7440","5e631737-0fa4-44a6-b227-7ba1d7345015","{""num_scrambled_semantic"":""8"",""num_scrambled_causal"":""4"",""num_scrambled_schematic"":""4"",""participantId"":""566DE7EF91D74926BD631D55854ED087"",""assignmentId"":""dcae9e7c-86eb-4214-a392-2fdd0a3e7440"",""projectId"":""5e631737-0fa4-44a6-b227-7ba1d7345015""}","https://test12345.live/?num_scrambled_semantic=8&num_scrambled_causal=4&num_scrambled_schematic=4&participantId=566DE7EF91D74926BD631D55854ED087&assignmentId=dcae9e7c-86eb-4214-a392-2fdd0a3e7440&projectId=5e631737-0fa4-44a6-b227-7ba1d7345015","566DE7EF91D74926BD631D55854ED087-2025-05-27-19-11-52","","1026","","images/instructions/movie_3.png","0","",""
"","","","","","image-button-response","20","2230132","0.0-6.0-1.0-2.2","566DE7EF91D74926BD631D55854ED087","566DE7EF91D74926BD631D55854ED087","dcae9e7c-86eb-4214-a392-2fdd0a3e7440","5e631737-0fa4-44a6-b227-7ba1d7345015","{""num_scrambled_semantic"":""8"",""num_scrambled_causal"":""4"",""num_scrambled_schematic"":""4"",""participantId"":""566DE7EF91D74926BD631D55854ED087"",""assignmentId"":""dcae9e7c-86eb-4214-a392-2fdd0a3e7440"",""projectId"":""5e631737-0fa4-44a6-b227-7ba1d7345015""}","https://test12345.live/?num_scrambled_semantic=8&num_scrambled_causal=4&num_scrambled_schematic=4&participantId=566DE7EF91D74926BD631D55854ED087&assignmentId=dcae9e7c-86eb-4214-a392-2fdd0a3e7440&projectId=5e631737-0fa4-44a6-b227-7ba1d7345015","566DE7EF91D74926BD631D55854ED087-2025-05-27-19-11-52","","null","","[]","null","",""
"","","","","","image-button-response","21","2234636","0.0-6.0-1.0-0.3","566DE7EF91D74926BD631D55854ED087","566DE7EF91D74926BD631D55854ED087","dcae9e7c-86eb-4214-a392-2fdd0a3e7440","5e631737-0fa4-44a6-b227-7ba1d7345015","{""num_scrambled_semantic"":""8"",""num_scrambled_causal"":""4"",""num_scrambled_schematic"":""4"",""participantId"":""566DE7EF91D74926BD631D55854ED087"",""assignmentId"":""dcae9e7c-86eb-4214-a392-2fdd0a3e7440"",""projectId"":""5e631737-0fa4-44a6-b227-7ba1d7345015""}","https://test12345.live/?num_scrambled_semantic=8&num_scrambled_causal=4&num_scrambled_schematic=4&participantId=566DE7EF91D74926BD631D55854ED087&assignmentId=dcae9e7c-86eb-4214-a392-2fdd0a3e7440&projectId=5e631737-0fa4-44a6-b227-7ba1d7345015","566DE7EF91D74926BD631D55854ED087-2025-05-27-19-11-52","","null","","images/instructions/movie_4.png","null","",""
"","","","","","image-button-response","22","2235455","0.0-6.0-1.0-1.3","566DE7EF91D74926BD631D55854ED087","566DE7EF91D74926BD631D55854ED087","dcae9e7c-86eb-4214-a392-2fdd0a3e7440","5e631737-0fa4-44a6-b227-7ba1d7345015","{""num_scrambled_semantic"":""8"",""num_scrambled_causal"":""4"",""num_scrambled_schematic"":""4"",""participantId"":""566DE7EF91D74926BD631D55854ED087"",""assignmentId"":""dcae9e7c-86eb-4214-a392-2fdd0a3e7440"",""projectId"":""5e631737-0fa4-44a6-b227-7ba1d7345015""}","https://test12345.live/?num_scrambled_semantic=8&num_scrambled_causal=4&num_scrambled_schematic=4&participantId=566DE7EF91D74926BD631D55854ED087&assignmentId=dcae9e7c-86eb-4214-a392-2fdd0a3e7440&projectId=5e631737-0fa4-44a6-b227-7ba1d7345015","566DE7EF91D74926BD631D55854ED087-2025-05-27-19-11-52","","817","","images/instructions/movie_4.png","0","",""
"","","","","","image-button-response","23","2237269","0.0-6.0-1.0-2.3","566DE7EF91D74926BD631D55854ED087","566DE7EF91D74926BD631D55854ED087","dcae9e7c-86eb-4214-a392-2fdd0a3e7440","5e631737-0fa4-44a6-b227-7ba1d7345015","{""num_scrambled_semantic"":""8"",""num_scrambled_causal"":""4"",""num_scrambled_schematic"":""4"",""participantId"":""566DE7EF91D74926BD631D55854ED087"",""assignmentId"":""dcae9e7c-86eb-4214-a392-2fdd0a3e7440"",""projectId"":""5e631737-0fa4-44a6-b227-7ba1d7345015""}","https://test12345.live/?num_scrambled_semantic=8&num_scrambled_causal=4&num_scrambled_schematic=4&participantId=566DE7EF91D74926BD631D55854ED087&assignmentId=dcae9e7c-86eb-4214-a392-2fdd0a3e7440&projectId=5e631737-0fa4-44a6-b227-7ba1d7345015","566DE7EF91D74926BD631D55854ED087-2025-05-27-19-11-52","","null","","[]","null","",""
"","","","","","instructions","24","2247151","0.0-7.0","566DE7EF91D74926BD631D55854ED087","566DE7EF91D74926BD631D55854ED087","dcae9e7c-86eb-4214-a392-2fdd0a3e7440","5e631737-0fa4-44a6-b227-7ba1d7345015","{""num_scrambled_semantic"":""8"",""num_scrambled_causal"":""4"",""num_scrambled_schematic"":""4"",""participantId"":""566DE7EF91D74926BD631D55854ED087"",""assignmentId"":""dcae9e7c-86eb-4214-a392-2fdd0a3e7440"",""projectId"":""5e631737-0fa4-44a6-b227-7ba1d7345015""}","https://test12345.live/?num_scrambled_semantic=8&num_scrambled_causal=4&num_scrambled_schematic=4&participantId=566DE7EF91D74926BD631D55854ED087&assignmentId=dcae9e7c-86eb-4214-a392-2fdd0a3e7440&projectId=5e631737-0fa4-44a6-b227-7ba1d7345015","566DE7EF91D74926BD631D55854ED087-2025-05-27-19-11-52","[{""page_index"":0,""viewing_time"":9033},{""page_index"":1,""viewing_time"":848}]","9881","","","","",""
"","","","","","html-audio-response","25","2286143","0.0-8.0","566DE7EF91D74926BD631D55854ED087","566DE7EF91D74926BD631D55854ED087","dcae9e7c-86eb-4214-a392-2fdd0a3e7440","5e631737-0fa4-44a6-b227-7ba1d7345015","{""num_scrambled_semantic"":""8"",""num_scrambled_causal"":""4"",""num_scrambled_schematic"":""4"",""participantId"":""566DE7EF91D74926BD631D55854ED087"",""assignmentId"":""dcae9e7c-86eb-4214-a392-2fdd0a3e7440"",""projectId"":""5e631737-0fa4-44a6-b227-7ba1d7345015""}","https://test12345.live/?num_scrambled_semantic=8&num_scrambled_causal=4&num_scrambled_schematic=4&participantId=566DE7EF91D74926BD631D55854ED087&assignmentId=dcae9e7c-86eb-4214-a392-2fdd0a3e7440&projectId=5e631737-0fa4-44a6-b227-7ba1d7345015","566DE7EF91D74926BD631D55854ED087-2025-05-27-19-11-52","","26066","","[""<span style=\""color: red; font-size: 24px\""> NOW RECORDING</span><p>Please say out loud all the images you saw in the exact order you saw them. Try to recall as many images as you can, but remember: getting the order right is more important than the number of images you recall.</p>""]","","2",""
"","","","","","instructions","26","2287247","0.0-9.0","566DE7EF91D74926BD631D55854ED087","566DE7EF91D74926BD631D55854ED087","dcae9e7c-86eb-4214-a392-2fdd0a3e7440","5e631737-0fa4-44a6-b227-7ba1d7345015","{""num_scrambled_semantic"":""8"",""num_scrambled_causal"":""4"",""num_scrambled_schematic"":""4"",""participantId"":""566DE7EF91D74926BD631D55854ED087"",""assignmentId"":""dcae9e7c-86eb-4214-a392-2fdd0a3e7440"",""projectId"":""5e631737-0fa4-44a6-b227-7ba1d7345015""}","https://test12345.live/?num_scrambled_semantic=8&num_scrambled_causal=4&num_scrambled_schematic=4&participantId=566DE7EF91D74926BD631D55854ED087&assignmentId=dcae9e7c-86eb-4214-a392-2fdd0a3e7440&projectId=5e631737-0fa4-44a6-b227-7ba1d7345015","566DE7EF91D74926BD631D55854ED087-2025-05-27-19-11-52","[{""page_index"":0,""viewing_time"":1099}]","1099","","","","",""
"","","","","","image-button-response","27","2293255","0.0-10.0-0.0","566DE7EF91D74926BD631D55854ED087","566DE7EF91D74926BD631D55854ED087","dcae9e7c-86eb-4214-a392-2fdd0a3e7440","5e631737-0fa4-44a6-b227-7ba1d7345015","{""num_scrambled_semantic"":""8"",""num_scrambled_causal"":""4"",""num_scrambled_schematic"":""4"",""participantId"":""566DE7EF91D74926BD631D55854ED087"",""assignmentId"":""dcae9e7c-86eb-4214-a392-2fdd0a3e7440"",""projectId"":""5e631737-0fa4-44a6-b227-7ba1d7345015""}","https://test12345.live/?num_scrambled_semantic=8&num_scrambled_causal=4&num_scrambled_schematic=4&participantId=566DE7EF91D74926BD631D55854ED087&assignmentId=dcae9e7c-86eb-4214-a392-2fdd0a3e7440&projectId=5e631737-0fa4-44a6-b227-7ba1d7345015","566DE7EF91D74926BD631D55854ED087-2025-05-27-19-11-52","","null","","images/semantic_sequence/housework_semantic/housework_semantic_0.png","null","",""
"","","","","","image-button-response","28","2297764","0.0-10.0-1.0-0.0","566DE7EF91D74926BD631D55854ED087","566DE7EF91D74926BD631D55854ED087","dcae9e7c-86eb-4214-a392-2fdd0a3e7440","5e631737-0fa4-44a6-b227-7ba1d7345015","{""num_scrambled_semantic"":""8"",""num_scrambled_causal"":""4"",""num_scrambled_schematic"":""4"",""participantId"":""566DE7EF91D74926BD631D55854ED087"",""assignmentId"":""dcae9e7c-86eb-4214-a392-2fdd0a3e7440"",""projectId"":""5e631737-0fa4-44a6-b227-7ba1d7345015""}","https://test12345.live/?num_scrambled_semantic=8&num_scrambled_causal=4&num_scrambled_schematic=4&participantId=566DE7EF91D74926BD631D55854ED087&assignmentId=dcae9e7c-86eb-4214-a392-2fdd0a3e7440&projectId=5e631737-0fa4-44a6-b227-7ba1d7345015","566DE7EF91D74926BD631D55854ED087-2025-05-27-19-11-52","","null","","images/semantic_sequence/housework_semantic/housework_semantic_8.png","null","",""
"","","","","","image-button-response","29","2301765","0.0-10.0-1.0-1.0","566DE7EF91D74926BD631D55854ED087","566DE7EF91D74926BD631D55854ED087","dcae9e7c-86eb-4214-a392-2fdd0a3e7440","5e631737-0fa4-44a6-b227-7ba1d7345015","{""num_scrambled_semantic"":""8"",""num_scrambled_causal"":""4"",""num_scrambled_schematic"":""4"",""participantId"":""566DE7EF91D74926BD631D55854ED087"",""assignmentId"":""dcae9e7c-86eb-4214-a392-2fdd0a3e7440"",""projectId"":""5e631737-0fa4-44a6-b227-7ba1d7345015""}","https://test12345.live/?num_scrambled_semantic=8&num_scrambled_causal=4&num_scrambled_schematic=4&participantId=566DE7EF91D74926BD631D55854ED087&assignmentId=dcae9e7c-86eb-4214-a392-2fdd0a3e7440&projectId=5e631737-0fa4-44a6-b227-7ba1d7345015","566DE7EF91D74926BD631D55854ED087-2025-05-27-19-11-52","","null","","images/semantic_sequence/housework_semantic/housework_semantic_8.png","null","",""
"","","","","","image-button-response","30","2303581","0.0-10.0-1.0-2.0","566DE7EF91D74926BD631D55854ED087","566DE7EF91D74926BD631D55854ED087","dcae9e7c-86eb-4214-a392-2fdd0a3e7440","5e631737-0fa4-44a6-b227-7ba1d7345015","{""num_scrambled_semantic"":""8"",""num_scrambled_causal"":""4"",""num_scrambled_schematic"":""4"",""participantId"":""566DE7EF91D74926BD631D55854ED087"",""assignmentId"":""dcae9e7c-86eb-4214-a392-2fdd0a3e7440"",""projectId"":""5e631737-0fa4-44a6-b227-7ba1d7345015""}","https://test12345.live/?num_scrambled_semantic=8&num_scrambled_causal=4&num_scrambled_schematic=4&participantId=566DE7EF91D74926BD631D55854ED087&assignmentId=dcae9e7c-86eb-4214-a392-2fdd0a3e7440&projectId=5e631737-0fa4-44a6-b227-7ba1d7345015","566DE7EF91D74926BD631D55854ED087-2025-05-27-19-11-52","","null","","[]","null","",""
"","","","","","image-button-response","31","2308084","0.0-10.0-1.0-0.1","566DE7EF91D74926BD631D55854ED087","566DE7EF91D74926BD631D55854ED087","dcae9e7c-86eb-4214-a392-2fdd0a3e7440","5e631737-0fa4-44a6-b227-7ba1d7345015","{""num_scrambled_semantic"":""8"",""num_scrambled_causal"":""4"",""num_scrambled_schematic"":""4"",""participantId"":""566DE7EF91D74926BD631D55854ED087"",""assignmentId"":""dcae9e7c-86eb-4214-a392-2fdd0a3e7440"",""projectId"":""5e631737-0fa4-44a6-b227-7ba1d7345015""}","https://test12345.live/?num_scrambled_semantic=8&num_scrambled_causal=4&num_scrambled_schematic=4&participantId=566DE7EF91D74926BD631D55854ED087&assignmentId=dcae9e7c-86eb-4214-a392-2fdd0a3e7440&projectId=5e631737-0fa4-44a6-b227-7ba1d7345015","566DE7EF91D74926BD631D55854ED087-2025-05-27-19-11-52","","null","","images/semantic_sequence/housework_semantic/housework_semantic_6.png","null","",""
"","","","","","image-button-response","32","2309334","0.0-10.0-1.0-1.1","566DE7EF91D74926BD631D55854ED087","566DE7EF91D74926BD631D55854ED087","dcae9e7c-86eb-4214-a392-2fdd0a3e7440","5e631737-0fa4-44a6-b227-7ba1d7345015","{""num_scrambled_semantic"":""8"",""num_scrambled_causal"":""4"",""num_scrambled_schematic"":""4"",""participantId"":""566DE7EF91D74926BD631D55854ED087"",""assignmentId"":""dcae9e7c-86eb-4214-a392-2fdd0a3e7440"",""projectId"":""5e631737-0fa4-44a6-b227-7ba1d7345015""}","https://test12345.live/?num_scrambled_semantic=8&num_scrambled_causal=4&num_scrambled_schematic=4&participantId=566DE7EF91D74926BD631D55854ED087&assignmentId=dcae9e7c-86eb-4214-a392-2fdd0a3e7440&projectId=5e631737-0fa4-44a6-b227-7ba1d7345015","566DE7EF91D74926BD631D55854ED087-2025-05-27-19-11-52","","1250","","images/semantic_sequence/housework_semantic/housework_semantic_6.png","0","",""
"","","","","","image-button-response","33","2311146","0.0-10.0-1.0-2.1","566DE7EF91D74926BD631D55854ED087","566DE7EF91D74926BD631D55854ED087","dcae9e7c-86eb-4214-a392-2fdd0a3e7440","5e631737-0fa4-44a6-b227-7ba1d7345015","{""num_scrambled_semantic"":""8"",""num_scrambled_causal"":""4"",""num_scrambled_schematic"":""4"",""participantId"":""566DE7EF91D74926BD631D55854ED087"",""assignmentId"":""dcae9e7c-86eb-4214-a392-2fdd0a3e7440"",""projectId"":""5e631737-0fa4-44a6-b227-7ba1d7345015""}","https://test12345.live/?num_scrambled_semantic=8&num_scrambled_causal=4&num_scrambled_schematic=4&participantId=566DE7EF91D74926BD631D55854ED087&assignmentId=dcae9e7c-86eb-4214-a392-2fdd0a3e7440&projectId=5e631737-0fa4-44a6-b227-7ba1d7345015","566DE7EF91D74926BD631D55854ED087-2025-05-27-19-11-52","","null","","[]","null","",""
"","","","","","image-button-response","34","2315659","0.0-10.0-1.0-0.2","566DE7EF91D74926BD631D55854ED087","566DE7EF91D74926BD631D55854ED087","dcae9e7c-86eb-4214-a392-2fdd0a3e7440","5e631737-0fa4-44a6-b227-7ba1d7345015","{""num_scrambled_semantic"":""8"",""num_scrambled_causal"":""4"",""num_scrambled_schematic"":""4"",""participantId"":""566DE7EF91D74926BD631D55854ED087"",""assignmentId"":""dcae9e7c-86eb-4214-a392-2fdd0a3e7440"",""projectId"":""5e631737-0fa4-44a6-b227-7ba1d7345015""}","https://test12345.live/?num_scrambled_semantic=8&num_scrambled_causal=4&num_scrambled_schematic=4&participantId=566DE7EF91D74926BD631D55854ED087&assignmentId=dcae9e7c-86eb-4214-a392-2fdd0a3e7440&projectId=5e631737-0fa4-44a6-b227-7ba1d7345015","566DE7EF91D74926BD631D55854ED087-2025-05-27-19-11-52","","null","","images/semantic_sequence/housework_semantic/housework_semantic_3.png","null","",""
"","","","","","image-button-response","35","2316790","0.0-10.0-1.0-1.2","566DE7EF91D74926BD631D55854ED087","566DE7EF91D74926BD631D55854ED087","dcae9e7c-86eb-4214-a392-2fdd0a3e7440","5e631737-0fa4-44a6-b227-7ba1d7345015","{""num_scrambled_semantic"":""8"",""num_scrambled_causal"":""4"",""num_scrambled_schematic"":""4"",""participantId"":""566DE7EF91D74926BD631D55854ED087"",""assignmentId"":""dcae9e7c-86eb-4214-a392-2fdd0a3e7440"",""projectId"":""5e631737-0fa4-44a6-b227-7ba1d7345015""}","https://test12345.live/?num_scrambled_semantic=8&num_scrambled_causal=4&num_scrambled_schematic=4&participantId=566DE7EF91D74926BD631D55854ED087&assignmentId=dcae9e7c-86eb-4214-a392-2fdd0a3e7440&projectId=5e631737-0fa4-44a6-b227-7ba1d7345015","566DE7EF91D74926BD631D55854ED087-2025-05-27-19-11-52","","1131","","images/semantic_sequence/housework_semantic/housework_semantic_3.png","0","",""
"","","","","","image-button-response","36","2318600","0.0-10.0-1.0-2.2","566DE7EF91D74926BD631D55854ED087","566DE7EF91D74926BD631D55854ED087","dcae9e7c-86eb-4214-a392-2fdd0a3e7440","5e631737-0fa4-44a6-b227-7ba1d7345015","{""num_scrambled_semantic"":""8"",""num_scrambled_causal"":""4"",""num_scrambled_schematic"":""4"",""participantId"":""566DE7EF91D74926BD631D55854ED087"",""assignmentId"":""dcae9e7c-86eb-4214-a392-2fdd0a3e7440"",""projectId"":""5e631737-0fa4-44a6-b227-7ba1d7345015""}","https://test12345.live/?num_scrambled_semantic=8&num_scrambled_causal=4&num_scrambled_schematic=4&participantId=566DE7EF91D74926BD631D55854ED087&assignmentId=dcae9e7c-86eb-4214-a392-2fdd0a3e7440&projectId=5e631737-0fa4-44a6-b227-7ba1d7345015","566DE7EF91D74926BD631D55854ED087-2025-05-27-19-11-52","","null","","[]","null","",""
"","","","","","image-button-response","37","2323104","0.0-10.0-1.0-0.3","566DE7EF91D74926BD631D55854ED087","566DE7EF91D74926BD631D55854ED087","dcae9e7c-86eb-4214-a392-2fdd0a3e7440","5e631737-0fa4-44a6-b227-7ba1d7345015","{""num_scrambled_semantic"":""8"",""num_scrambled_causal"":""4"",""num_scrambled_schematic"":""4"",""participantId"":""566DE7EF91D74926BD631D55854ED087"",""assignmentId"":""dcae9e7c-86eb-4214-a392-2fdd0a3e7440"",""projectId"":""5e631737-0fa4-44a6-b227-7ba1d7345015""}","https://test12345.live/?num_scrambled_semantic=8&num_scrambled_causal=4&num_scrambled_schematic=4&participantId=566DE7EF91D74926BD631D55854ED087&assignmentId=dcae9e7c-86eb-4214-a392-2fdd0a3e7440&projectId=5e631737-0fa4-44a6-b227-7ba1d7345015","566DE7EF91D74926BD631D55854ED087-2025-05-27-19-11-52","","null","","images/semantic_sequence/housework_semantic/housework_semantic_9.png","null","",""
"","","","","","image-button-response","38","2323583","0.0-10.0-1.0-1.3","566DE7EF91D74926BD631D55854ED087","566DE7EF91D74926BD631D55854ED087","dcae9e7c-86eb-4214-a392-2fdd0a3e7440","5e631737-0fa4-44a6-b227-7ba1d7345015","{""num_scrambled_semantic"":""8"",""num_scrambled_causal"":""4"",""num_scrambled_schematic"":""4"",""participantId"":""566DE7EF91D74926BD631D55854ED087"",""assignmentId"":""dcae9e7c-86eb-4214-a392-2fdd0a3e7440"",""projectId"":""5e631737-0fa4-44a6-b227-7ba1d7345015""}","https://test12345.live/?num_scrambled_semantic=8&num_scrambled_causal=4&num_scrambled_schematic=4&participantId=566DE7EF91D74926BD631D55854ED087&assignmentId=dcae9e7c-86eb-4214-a392-2fdd0a3e7440&projectId=5e631737-0fa4-44a6-b227-7ba1d7345015","566DE7EF91D74926BD631D55854ED087-2025-05-27-19-11-52","","478","","images/semantic_sequence/housework_semantic/housework_semantic_9.png","0","",""
"","","","","","image-button-response","39","2325386","0.0-10.0-1.0-2.3","566DE7EF91D74926BD631D55854ED087","566DE7EF91D74926BD631D55854ED087","dcae9e7c-86eb-4214-a392-2fdd0a3e7440","5e631737-0fa4-44a6-b227-7ba1d7345015","{""num_scrambled_semantic"":""8"",""num_scrambled_causal"":""4"",""num_scrambled_schematic"":""4"",""participantId"":""566DE7EF91D74926BD631D55854ED087"",""assignmentId"":""dcae9e7c-86eb-4214-a392-2fdd0a3e7440"",""projectId"":""5e631737-0fa4-44a6-b227-7ba1d7345015""}","https://test12345.live/?num_scrambled_semantic=8&num_scrambled_causal=4&num_scrambled_schematic=4&participantId=566DE7EF91D74926BD631D55854ED087&assignmentId=dcae9e7c-86eb-4214-a392-2fdd0a3e7440&projectId=5e631737-0fa4-44a6-b227-7ba1d7345015","566DE7EF91D74926BD631D55854ED087-2025-05-27-19-11-52","","null","","[]","null","",""
"","","","","","image-button-response","40","2329902","0.0-10.0-1.0-0.4","566DE7EF91D74926BD631D55854ED087","566DE7EF91D74926BD631D55854ED087","dcae9e7c-86eb-4214-a392-2fdd0a3e7440","5e631737-0fa4-44a6-b227-7ba1d7345015","{""num_scrambled_semantic"":""8"",""num_scrambled_causal"":""4"",""num_scrambled_schematic"":""4"",""participantId"":""566DE7EF91D74926BD631D55854ED087"",""assignmentId"":""dcae9e7c-86eb-4214-a392-2fdd0a3e7440"",""projectId"":""5e631737-0fa4-44a6-b227-7ba1d7345015""}","https://test12345.live/?num_scrambled_semantic=8&num_scrambled_causal=4&num_scrambled_schematic=4&participantId=566DE7EF91D74926BD631D55854ED087&assignmentId=dcae9e7c-86eb-4214-a392-2fdd0a3e7440&projectId=5e631737-0fa4-44a6-b227-7ba1d7345015","566DE7EF91D74926BD631D55854ED087-2025-05-27-19-11-52","","null","","images/semantic_sequence/housework_semantic/housework_semantic_1.png","null","",""
"","","","","","image-button-response","41","2331103","0.0-10.0-1.0-1.4","566DE7EF91D74926BD631D55854ED087","566DE7EF91D74926BD631D55854ED087","dcae9e7c-86eb-4214-a392-2fdd0a3e7440","5e631737-0fa4-44a6-b227-7ba1d7345015","{""num_scrambled_semantic"":""8"",""num_scrambled_causal"":""4"",""num_scrambled_schematic"":""4"",""participantId"":""566DE7EF91D74926BD631D55854ED087"",""assignmentId"":""dcae9e7c-86eb-4214-a392-2fdd0a3e7440"",""projectId"":""5e631737-0fa4-44a6-b227-7ba1d7345015""}","https://test12345.live/?num_scrambled_semantic=8&num_scrambled_causal=4&num_scrambled_schematic=4&participantId=566DE7EF91D74926BD631D55854ED087&assignmentId=dcae9e7c-86eb-4214-a392-2fdd0a3e7440&projectId=5e631737-0fa4-44a6-b227-7ba1d7345015","566DE7EF91D74926BD631D55854ED087-2025-05-27-19-11-52","","1200","","images/semantic_sequence/housework_semantic/housework_semantic_1.png","0","",""
"","","","","","image-button-response","42","2332916","0.0-10.0-1.0-2.4","566DE7EF91D74926BD631D55854ED087","566DE7EF91D74926BD631D55854ED087","dcae9e7c-86eb-4214-a392-2fdd0a3e7440","5e631737-0fa4-44a6-b227-7ba1d7345015","{""num_scrambled_semantic"":""8"",""num_scrambled_causal"":""4"",""num_scrambled_schematic"":""4"",""participantId"":""566DE7EF91D74926BD631D55854ED087"",""assignmentId"":""dcae9e7c-86eb-4214-a392-2fdd0a3e7440"",""projectId"":""5e631737-0fa4-44a6-b227-7ba1d7345015""}","https://test12345.live/?num_scrambled_semantic=8&num_scrambled_causal=4&num_scrambled_schematic=4&participantId=566DE7EF91D74926BD631D55854ED087&assignmentId=dcae9e7c-86eb-4214-a392-2fdd0a3e7440&projectId=5e631737-0fa4-44a6-b227-7ba1d7345015","566DE7EF91D74926BD631D55854ED087-2025-05-27-19-11-52","","null","","[]","null","",""
"","","","","","image-button-response","43","2337420","0.0-10.0-1.0-0.5","566DE7EF91D74926BD631D55854ED087","566DE7EF91D74926BD631D55854ED087","dcae9e7c-86eb-4214-a392-2fdd0a3e7440","5e631737-0fa4-44a6-b227-7ba1d7345015","{""num_scrambled_semantic"":""8"",""num_scrambled_causal"":""4"",""num_scrambled_schematic"":""4"",""participantId"":""566DE7EF91D74926BD631D55854ED087"",""assignmentId"":""dcae9e7c-86eb-4214-a392-2fdd0a3e7440"",""projectId"":""5e631737-0fa4-44a6-b227-7ba1d7345015""}","https://test12345.live/?num_scrambled_semantic=8&num_scrambled_causal=4&num_scrambled_schematic=4&participantId=566DE7EF91D74926BD631D55854ED087&assignmentId=dcae9e7c-86eb-4214-a392-2fdd0a3e7440&projectId=5e631737-0fa4-44a6-b227-7ba1d7345015","566DE7EF91D74926BD631D55854ED087-2025-05-27-19-11-52","","null","","images/semantic_sequence/housework_semantic/housework_semantic_5.png","null","",""
"","","","","","image-button-response","44","2338062","0.0-10.0-1.0-1.5","566DE7EF91D74926BD631D55854ED087","566DE7EF91D74926BD631D55854ED087","dcae9e7c-86eb-4214-a392-2fdd0a3e7440","5e631737-0fa4-44a6-b227-7ba1d7345015","{""num_scrambled_semantic"":""8"",""num_scrambled_causal"":""4"",""num_scrambled_schematic"":""4"",""participantId"":""566DE7EF91D74926BD631D55854ED087"",""assignmentId"":""dcae9e7c-86eb-4214-a392-2fdd0a3e7440"",""projectId"":""5e631737-0fa4-44a6-b227-7ba1d7345015""}","https://test12345.live/?num_scrambled_semantic=8&num_scrambled_causal=4&num_scrambled_schematic=4&participantId=566DE7EF91D74926BD631D55854ED087&assignmentId=dcae9e7c-86eb-4214-a392-2fdd0a3e7440&projectId=5e631737-0fa4-44a6-b227-7ba1d7345015","566DE7EF91D74926BD631D55854ED087-2025-05-27-19-11-52","","642","","images/semantic_sequence/housework_semantic/housework_semantic_5.png","0","",""
"","","","","","image-button-response","45","2339868","0.0-10.0-1.0-2.5","566DE7EF91D74926BD631D55854ED087","566DE7EF91D74926BD631D55854ED087","dcae9e7c-86eb-4214-a392-2fdd0a3e7440","5e631737-0fa4-44a6-b227-7ba1d7345015","{""num_scrambled_semantic"":""8"",""num_scrambled_causal"":""4"",""num_scrambled_schematic"":""4"",""participantId"":""566DE7EF91D74926BD631D55854ED087"",""assignmentId"":""dcae9e7c-86eb-4214-a392-2fdd0a3e7440"",""projectId"":""5e631737-0fa4-44a6-b227-7ba1d7345015""}","https://test12345.live/?num_scrambled_semantic=8&num_scrambled_causal=4&num_scrambled_schematic=4&participantId=566DE7EF91D74926BD631D55854ED087&assignmentId=dcae9e7c-86eb-4214-a392-2fdd0a3e7440&projectId=5e631737-0fa4-44a6-b227-7ba1d7345015","566DE7EF91D74926BD631D55854ED087-2025-05-27-19-11-52","","null","","[]","null","",""
"","","","","","image-button-response","46","2344374","0.0-10.0-1.0-0.6","566DE7EF91D74926BD631D55854ED087","566DE7EF91D74926BD631D55854ED087","dcae9e7c-86eb-4214-a392-2fdd0a3e7440","5e631737-0fa4-44a6-b227-7ba1d7345015","{""num_scrambled_semantic"":""8"",""num_scrambled_causal"":""4"",""num_scrambled_schematic"":""4"",""participantId"":""566DE7EF91D74926BD631D55854ED087"",""assignmentId"":""dcae9e7c-86eb-4214-a392-2fdd0a3e7440"",""projectId"":""5e631737-0fa4-44a6-b227-7ba1d7345015""}","https://test12345.live/?num_scrambled_semantic=8&num_scrambled_causal=4&num_scrambled_schematic=4&participantId=566DE7EF91D74926BD631D55854ED087&assignmentId=dcae9e7c-86eb-4214-a392-2fdd0a3e7440&projectId=5e631737-0fa4-44a6-b227-7ba1d7345015","566DE7EF91D74926BD631D55854ED087-2025-05-27-19-11-52","","null","","images/semantic_sequence/housework_semantic/housework_semantic_7.png","null","",""
"","","","","","image-button-response","47","2346678","0.0-10.0-1.0-1.6","566DE7EF91D74926BD631D55854ED087","566DE7EF91D74926BD631D55854ED087","dcae9e7c-86eb-4214-a392-2fdd0a3e7440","5e631737-0fa4-44a6-b227-7ba1d7345015","{""num_scrambled_semantic"":""8"",""num_scrambled_causal"":""4"",""num_scrambled_schematic"":""4"",""participantId"":""566DE7EF91D74926BD631D55854ED087"",""assignmentId"":""dcae9e7c-86eb-4214-a392-2fdd0a3e7440"",""projectId"":""5e631737-0fa4-44a6-b227-7ba1d7345015""}","https://test12345.live/?num_scrambled_semantic=8&num_scrambled_causal=4&num_scrambled_schematic=4&participantId=566DE7EF91D74926BD631D55854ED087&assignmentId=dcae9e7c-86eb-4214-a392-2fdd0a3e7440&projectId=5e631737-0fa4-44a6-b227-7ba1d7345015","566DE7EF91D74926BD631D55854ED087-2025-05-27-19-11-52","","2303","","images/semantic_sequence/housework_semantic/housework_semantic_7.png","0","",""
"","","","","","image-button-response","48","2348490","0.0-10.0-1.0-2.6","566DE7EF91D74926BD631D55854ED087","566DE7EF91D74926BD631D55854ED087","dcae9e7c-86eb-4214-a392-2fdd0a3e7440","5e631737-0fa4-44a6-b227-7ba1d7345015","{""num_scrambled_semantic"":""8"",""num_scrambled_causal"":""4"",""num_scrambled_schematic"":""4"",""participantId"":""566DE7EF91D74926BD631D55854ED087"",""assignmentId"":""dcae9e7c-86eb-4214-a392-2fdd0a3e7440"",""projectId"":""5e631737-0fa4-44a6-b227-7ba1d7345015""}","https://test12345.live/?num_scrambled_semantic=8&num_scrambled_causal=4&num_scrambled_schematic=4&participantId=566DE7EF91D74926BD631D55854ED087&assignmentId=dcae9e7c-86eb-4214-a392-2fdd0a3e7440&projectId=5e631737-0fa4-44a6-b227-7ba1d7345015","566DE7EF91D74926BD631D55854ED087-2025-05-27-19-11-52","","null","","[]","null","",""
"","","","","","image-button-response","49","2353002","0.0-10.0-1.0-0.7","566DE7EF91D74926BD631D55854ED087","566DE7EF91D74926BD631D55854ED087","dcae9e7c-86eb-4214-a392-2fdd0a3e7440","5e631737-0fa4-44a6-b227-7ba1d7345015","{""num_scrambled_semantic"":""8"",""num_scrambled_causal"":""4"",""num_scrambled_schematic"":""4"",""participantId"":""566DE7EF91D74926BD631D55854ED087"",""assignmentId"":""dcae9e7c-86eb-4214-a392-2fdd0a3e7440"",""projectId"":""5e631737-0fa4-44a6-b227-7ba1d7345015""}","https://test12345.live/?num_scrambled_semantic=8&num_scrambled_causal=4&num_scrambled_schematic=4&participantId=566DE7EF91D74926BD631D55854ED087&assignmentId=dcae9e7c-86eb-4214-a392-2fdd0a3e7440&projectId=5e631737-0fa4-44a6-b227-7ba1d7345015","566DE7EF91D74926BD631D55854ED087-2025-05-27-19-11-52","","null","","images/semantic_sequence/housework_semantic/housework_semantic_ten.png","null","",""
"","","","","","image-button-response","50","2353943","0.0-10.0-1.0-1.7","566DE7EF91D74926BD631D55854ED087","566DE7EF91D74926BD631D55854ED087","dcae9e7c-86eb-4214-a392-2fdd0a3e7440","5e631737-0fa4-44a6-b227-7ba1d7345015","{""num_scrambled_semantic"":""8"",""num_scrambled_causal"":""4"",""num_scrambled_schematic"":""4"",""participantId"":""566DE7EF91D74926BD631D55854ED087"",""assignmentId"":""dcae9e7c-86eb-4214-a392-2fdd0a3e7440"",""projectId"":""5e631737-0fa4-44a6-b227-7ba1d7345015""}","https://test12345.live/?num_scrambled_semantic=8&num_scrambled_causal=4&num_scrambled_schematic=4&participantId=566DE7EF91D74926BD631D55854ED087&assignmentId=dcae9e7c-86eb-4214-a392-2fdd0a3e7440&projectId=5e631737-0fa4-44a6-b227-7ba1d7345015","566DE7EF91D74926BD631D55854ED087-2025-05-27-19-11-52","","940","","images/semantic_sequence/housework_semantic/housework_semantic_ten.png","0","",""
"","","","","","image-button-response","51","2355759","0.0-10.0-1.0-2.7","566DE7EF91D74926BD631D55854ED087","566DE7EF91D74926BD631D55854ED087","dcae9e7c-86eb-4214-a392-2fdd0a3e7440","5e631737-0fa4-44a6-b227-7ba1d7345015","{""num_scrambled_semantic"":""8"",""num_scrambled_causal"":""4"",""num_scrambled_schematic"":""4"",""participantId"":""566DE7EF91D74926BD631D55854ED087"",""assignmentId"":""dcae9e7c-86eb-4214-a392-2fdd0a3e7440"",""projectId"":""5e631737-0fa4-44a6-b227-7ba1d7345015""}","https://test12345.live/?num_scrambled_semantic=8&num_scrambled_causal=4&num_scrambled_schematic=4&participantId=566DE7EF91D74926BD631D55854ED087&assignmentId=dcae9e7c-86eb-4214-a392-2fdd0a3e7440&projectId=5e631737-0fa4-44a6-b227-7ba1d7345015","566DE7EF91D74926BD631D55854ED087-2025-05-27-19-11-52","","null","","[]","null","",""
"","","","","","image-button-response","52","2360262","0.0-10.0-1.0-0.8","566DE7EF91D74926BD631D55854ED087","566DE7EF91D74926BD631D55854ED087","dcae9e7c-86eb-4214-a392-2fdd0a3e7440","5e631737-0fa4-44a6-b227-7ba1d7345015","{""num_scrambled_semantic"":""8"",""num_scrambled_causal"":""4"",""num_scrambled_schematic"":""4"",""participantId"":""566DE7EF91D74926BD631D55854ED087"",""assignmentId"":""dcae9e7c-86eb-4214-a392-2fdd0a3e7440"",""projectId"":""5e631737-0fa4-44a6-b227-7ba1d7345015""}","https://test12345.live/?num_scrambled_semantic=8&num_scrambled_causal=4&num_scrambled_schematic=4&participantId=566DE7EF91D74926BD631D55854ED087&assignmentId=dcae9e7c-86eb-4214-a392-2fdd0a3e7440&projectId=5e631737-0fa4-44a6-b227-7ba1d7345015","566DE7EF91D74926BD631D55854ED087-2025-05-27-19-11-52","","null","","images/semantic_sequence/housework_semantic/housework_semantic_2.png","null","",""
"","","","","","image-button-response","53","2360734","0.0-10.0-1.0-1.8","566DE7EF91D74926BD631D55854ED087","566DE7EF91D74926BD631D55854ED087","dcae9e7c-86eb-4214-a392-2fdd0a3e7440","5e631737-0fa4-44a6-b227-7ba1d7345015","{""num_scrambled_semantic"":""8"",""num_scrambled_causal"":""4"",""num_scrambled_schematic"":""4"",""participantId"":""566DE7EF91D74926BD631D55854ED087"",""assignmentId"":""dcae9e7c-86eb-4214-a392-2fdd0a3e7440"",""projectId"":""5e631737-0fa4-44a6-b227-7ba1d7345015""}","https://test12345.live/?num_scrambled_semantic=8&num_scrambled_causal=4&num_scrambled_schematic=4&participantId=566DE7EF91D74926BD631D55854ED087&assignmentId=dcae9e7c-86eb-4214-a392-2fdd0a3e7440&projectId=5e631737-0fa4-44a6-b227-7ba1d7345015","566DE7EF91D74926BD631D55854ED087-2025-05-27-19-11-52","","472","","images/semantic_sequence/housework_semantic/housework_semantic_2.png","0","",""
"","","","","","image-button-response","54","2362551","0.0-10.0-1.0-2.8","566DE7EF91D74926BD631D55854ED087","566DE7EF91D74926BD631D55854ED087","dcae9e7c-86eb-4214-a392-2fdd0a3e7440","5e631737-0fa4-44a6-b227-7ba1d7345015","{""num_scrambled_semantic"":""8"",""num_scrambled_causal"":""4"",""num_scrambled_schematic"":""4"",""participantId"":""566DE7EF91D74926BD631D55854ED087"",""assignmentId"":""dcae9e7c-86eb-4214-a392-2fdd0a3e7440"",""projectId"":""5e631737-0fa4-44a6-b227-7ba1d7345015""}","https://test12345.live/?num_scrambled_semantic=8&num_scrambled_causal=4&num_scrambled_schematic=4&participantId=566DE7EF91D74926BD631D55854ED087&assignmentId=dcae9e7c-86eb-4214-a392-2fdd0a3e7440&projectId=5e631737-0fa4-44a6-b227-7ba1d7345015","566DE7EF91D74926BD631D55854ED087-2025-05-27-19-11-52","","null","","[]","null","",""
"","","","","","image-button-response","55","2367053","0.0-10.0-1.0-0.9","566DE7EF91D74926BD631D55854ED087","566DE7EF91D74926BD631D55854ED087","dcae9e7c-86eb-4214-a392-2fdd0a3e7440","5e631737-0fa4-44a6-b227-7ba1d7345015","{""num_scrambled_semantic"":""8"",""num_scrambled_causal"":""4"",""num_scrambled_schematic"":""4"",""participantId"":""566DE7EF91D74926BD631D55854ED087"",""assignmentId"":""dcae9e7c-86eb-4214-a392-2fdd0a3e7440"",""projectId"":""5e631737-0fa4-44a6-b227-7ba1d7345015""}","https://test12345.live/?num_scrambled_semantic=8&num_scrambled_causal=4&num_scrambled_schematic=4&participantId=566DE7EF91D74926BD631D55854ED087&assignmentId=dcae9e7c-86eb-4214-a392-2fdd0a3e7440&projectId=5e631737-0fa4-44a6-b227-7ba1d7345015","566DE7EF91D74926BD631D55854ED087-2025-05-27-19-11-52","","null","","images/semantic_sequence/housework_semantic/housework_semantic_4.png","null","",""
"","","","","","image-button-response","56","2368079","0.0-10.0-1.0-1.9","566DE7EF91D74926BD631D55854ED087","566DE7EF91D74926BD631D55854ED087","dcae9e7c-86eb-4214-a392-2fdd0a3e7440","5e631737-0fa4-44a6-b227-7ba1d7345015","{""num_scrambled_semantic"":""8"",""num_scrambled_causal"":""4"",""num_scrambled_schematic"":""4"",""participantId"":""566DE7EF91D74926BD631D55854ED087"",""assignmentId"":""dcae9e7c-86eb-4214-a392-2fdd0a3e7440"",""projectId"":""5e631737-0fa4-44a6-b227-7ba1d7345015""}","https://test12345.live/?num_scrambled_semantic=8&num_scrambled_causal=4&num_scrambled_schematic=4&participantId=566DE7EF91D74926BD631D55854ED087&assignmentId=dcae9e7c-86eb-4214-a392-2fdd0a3e7440&projectId=5e631737-0fa4-44a6-b227-7ba1d7345015","566DE7EF91D74926BD631D55854ED087-2025-05-27-19-11-52","","1025","","images/semantic_sequence/housework_semantic/housework_semantic_4.png","0","",""
"","","","","","image-button-response","57","2369880","0.0-10.0-1.0-2.9","566DE7EF91D74926BD631D55854ED087","566DE7EF91D74926BD631D55854ED087","dcae9e7c-86eb-4214-a392-2fdd0a3e7440","5e631737-0fa4-44a6-b227-7ba1d7345015","{""num_scrambled_semantic"":""8"",""num_scrambled_causal"":""4"",""num_scrambled_schematic"":""4"",""participantId"":""566DE7EF91D74926BD631D55854ED087"",""assignmentId"":""dcae9e7c-86eb-4214-a392-2fdd0a3e7440"",""projectId"":""5e631737-0fa4-44a6-b227-7ba1d7345015""}","https://test12345.live/?num_scrambled_semantic=8&num_scrambled_causal=4&num_scrambled_schematic=4&participantId=566DE7EF91D74926BD631D55854ED087&assignmentId=dcae9e7c-86eb-4214-a392-2fdd0a3e7440&projectId=5e631737-0fa4-44a6-b227-7ba1d7345015","566DE7EF91D74926BD631D55854ED087-2025-05-27-19-11-52","","null","","[]","null","",""
"","","","","","html-audio-response","58","2409358","0.0-11.0","566DE7EF91D74926BD631D55854ED087","566DE7EF91D74926BD631D55854ED087","dcae9e7c-86eb-4214-a392-2fdd0a3e7440","5e631737-0fa4-44a6-b227-7ba1d7345015","{""num_scrambled_semantic"":""8"",""num_scrambled_causal"":""4"",""num_scrambled_schematic"":""4"",""participantId"":""566DE7EF91D74926BD631D55854ED087"",""assignmentId"":""dcae9e7c-86eb-4214-a392-2fdd0a3e7440"",""projectId"":""5e631737-0fa4-44a6-b227-7ba1d7345015""}","https://test12345.live/?num_scrambled_semantic=8&num_scrambled_causal=4&num_scrambled_schematic=4&participantId=566DE7EF91D74926BD631D55854ED087&assignmentId=dcae9e7c-86eb-4214-a392-2fdd0a3e7440&projectId=5e631737-0fa4-44a6-b227-7ba1d7345015","566DE7EF91D74926BD631D55854ED087-2025-05-27-19-11-52","","38803","","[""<span style=\""color: red; font-size: 24px\""> NOW RECORDING</span><p>Please say out loud all the images you saw, in the exact order you saw them. Try to recall as many images as you can, but remember: getting the order right is more important than the number of images you recall.</p>""]","","7","housework_semantic"
"","","","","","image-button-response","59","2415376","0.0-12.0-0.0","566DE7EF91D74926BD631D55854ED087","566DE7EF91D74926BD631D55854ED087","dcae9e7c-86eb-4214-a392-2fdd0a3e7440","5e631737-0fa4-44a6-b227-7ba1d7345015","{""num_scrambled_semantic"":""8"",""num_scrambled_causal"":""4"",""num_scrambled_schematic"":""4"",""participantId"":""566DE7EF91D74926BD631D55854ED087"",""assignmentId"":""dcae9e7c-86eb-4214-a392-2fdd0a3e7440"",""projectId"":""5e631737-0fa4-44a6-b227-7ba1d7345015""}","https://test12345.live/?num_scrambled_semantic=8&num_scrambled_causal=4&num_scrambled_schematic=4&participantId=566DE7EF91D74926BD631D55854ED087&assignmentId=dcae9e7c-86eb-4214-a392-2fdd0a3e7440&projectId=5e631737-0fa4-44a6-b227-7ba1d7345015","566DE7EF91D74926BD631D55854ED087-2025-05-27-19-11-52","","null","","images/semantic_sequence/self_care_activities_semantic/self_care_activities_semantic_0.png","null","",""
"","","","","","image-button-response","60","2419891","0.0-12.0-1.0-0.0","566DE7EF91D74926BD631D55854ED087","566DE7EF91D74926BD631D55854ED087","dcae9e7c-86eb-4214-a392-2fdd0a3e7440","5e631737-0fa4-44a6-b227-7ba1d7345015","{""num_scrambled_semantic"":""8"",""num_scrambled_causal"":""4"",""num_scrambled_schematic"":""4"",""participantId"":""566DE7EF91D74926BD631D55854ED087"",""assignmentId"":""dcae9e7c-86eb-4214-a392-2fdd0a3e7440"",""projectId"":""5e631737-0fa4-44a6-b227-7ba1d7345015""}","https://test12345.live/?num_scrambled_semantic=8&num_scrambled_causal=4&num_scrambled_schematic=4&participantId=566DE7EF91D74926BD631D55854ED087&assignmentId=dcae9e7c-86eb-4214-a392-2fdd0a3e7440&projectId=5e631737-0fa4-44a6-b227-7ba1d7345015","566DE7EF91D74926BD631D55854ED087-2025-05-27-19-11-52","","null","","images/semantic_sequence/self_care_activities_semantic/self_care_activities_semantic_8.png","null","",""
"","","","","","image-button-response","61","2421111","0.0-12.0-1.0-1.0","566DE7EF91D74926BD631D55854ED087","566DE7EF91D74926BD631D55854ED087","dcae9e7c-86eb-4214-a392-2fdd0a3e7440","5e631737-0fa4-44a6-b227-7ba1d7345015","{""num_scrambled_semantic"":""8"",""num_scrambled_causal"":""4"",""num_scrambled_schematic"":""4"",""participantId"":""566DE7EF91D74926BD631D55854ED087"",""assignmentId"":""dcae9e7c-86eb-4214-a392-2fdd0a3e7440"",""projectId"":""5e631737-0fa4-44a6-b227-7ba1d7345015""}","https://test12345.live/?num_scrambled_semantic=8&num_scrambled_causal=4&num_scrambled_schematic=4&participantId=566DE7EF91D74926BD631D55854ED087&assignmentId=dcae9e7c-86eb-4214-a392-2fdd0a3e7440&projectId=5e631737-0fa4-44a6-b227-7ba1d7345015","566DE7EF91D74926BD631D55854ED087-2025-05-27-19-11-52","","1219","","images/semantic_sequence/self_care_activities_semantic/self_care_activities_semantic_8.png","0","",""
"","","","","","image-button-response","62","2422912","0.0-12.0-1.0-2.0","566DE7EF91D74926BD631D55854ED087","566DE7EF91D74926BD631D55854ED087","dcae9e7c-86eb-4214-a392-2fdd0a3e7440","5e631737-0fa4-44a6-b227-7ba1d7345015","{""num_scrambled_semantic"":""8"",""num_scrambled_causal"":""4"",""num_scrambled_schematic"":""4"",""participantId"":""566DE7EF91D74926BD631D55854ED087"",""assignmentId"":""dcae9e7c-86eb-4214-a392-2fdd0a3e7440"",""projectId"":""5e631737-0fa4-44a6-b227-7ba1d7345015""}","https://test12345.live/?num_scrambled_semantic=8&num_scrambled_causal=4&num_scrambled_schematic=4&participantId=566DE7EF91D74926BD631D55854ED087&assignmentId=dcae9e7c-86eb-4214-a392-2fdd0a3e7440&projectId=5e631737-0fa4-44a6-b227-7ba1d7345015","566DE7EF91D74926BD631D55854ED087-2025-05-27-19-11-52","","null","","[]","null","",""
"","","","","","image-button-response","63","2427415","0.0-12.0-1.0-0.1","566DE7EF91D74926BD631D55854ED087","566DE7EF91D74926BD631D55854ED087","dcae9e7c-86eb-4214-a392-2fdd0a3e7440","5e631737-0fa4-44a6-b227-7ba1d7345015","{""num_scrambled_semantic"":""8"",""num_scrambled_causal"":""4"",""num_scrambled_schematic"":""4"",""participantId"":""566DE7EF91D74926BD631D55854ED087"",""assignmentId"":""dcae9e7c-86eb-4214-a392-2fdd0a3e7440"",""projectId"":""5e631737-0fa4-44a6-b227-7ba1d7345015""}","https://test12345.live/?num_scrambled_semantic=8&num_scrambled_causal=4&num_scrambled_schematic=4&participantId=566DE7EF91D74926BD631D55854ED087&assignmentId=dcae9e7c-86eb-4214-a392-2fdd0a3e7440&projectId=5e631737-0fa4-44a6-b227-7ba1d7345015","566DE7EF91D74926BD631D55854ED087-2025-05-27-19-11-52","","null","","images/semantic_sequence/self_care_activities_semantic/self_care_activities_semantic_7.png","null","",""
"","","","","","image-button-response","64","2428311","0.0-12.0-1.0-1.1","566DE7EF91D74926BD631D55854ED087","566DE7EF91D74926BD631D55854ED087","dcae9e7c-86eb-4214-a392-2fdd0a3e7440","5e631737-0fa4-44a6-b227-7ba1d7345015","{""num_scrambled_semantic"":""8"",""num_scrambled_causal"":""4"",""num_scrambled_schematic"":""4"",""participantId"":""566DE7EF91D74926BD631D55854ED087"",""assignmentId"":""dcae9e7c-86eb-4214-a392-2fdd0a3e7440"",""projectId"":""5e631737-0fa4-44a6-b227-7ba1d7345015""}","https://test12345.live/?num_scrambled_semantic=8&num_scrambled_causal=4&num_scrambled_schematic=4&participantId=566DE7EF91D74926BD631D55854ED087&assignmentId=dcae9e7c-86eb-4214-a392-2fdd0a3e7440&projectId=5e631737-0fa4-44a6-b227-7ba1d7345015","566DE7EF91D74926BD631D55854ED087-2025-05-27-19-11-52","","894","","images/semantic_sequence/self_care_activities_semantic/self_care_activities_semantic_7.png","0","",""
"","","","","","image-button-response","65","2430125","0.0-12.0-1.0-2.1","566DE7EF91D74926BD631D55854ED087","566DE7EF91D74926BD631D55854ED087","dcae9e7c-86eb-4214-a392-2fdd0a3e7440","5e631737-0fa4-44a6-b227-7ba1d7345015","{""num_scrambled_semantic"":""8"",""num_scrambled_causal"":""4"",""num_scrambled_schematic"":""4"",""participantId"":""566DE7EF91D74926BD631D55854ED087"",""assignmentId"":""dcae9e7c-86eb-4214-a392-2fdd0a3e7440"",""projectId"":""5e631737-0fa4-44a6-b227-7ba1d7345015""}","https://test12345.live/?num_scrambled_semantic=8&num_scrambled_causal=4&num_scrambled_schematic=4&participantId=566DE7EF91D74926BD631D55854ED087&assignmentId=dcae9e7c-86eb-4214-a392-2fdd0a3e7440&projectId=5e631737-0fa4-44a6-b227-7ba1d7345015","566DE7EF91D74926BD631D55854ED087-2025-05-27-19-11-52","","null","","[]","null","",""
"","","","","","image-button-response","66","2434636","0.0-12.0-1.0-0.2","566DE7EF91D74926BD631D55854ED087","566DE7EF91D74926BD631D55854ED087","dcae9e7c-86eb-4214-a392-2fdd0a3e7440","5e631737-0fa4-44a6-b227-7ba1d7345015","{""num_scrambled_semantic"":""8"",""num_scrambled_causal"":""4"",""num_scrambled_schematic"":""4"",""participantId"":""566DE7EF91D74926BD631D55854ED087"",""assignmentId"":""dcae9e7c-86eb-4214-a392-2fdd0a3e7440"",""projectId"":""5e631737-0fa4-44a6-b227-7ba1d7345015""}","https://test12345.live/?num_scrambled_semantic=8&num_scrambled_causal=4&num_scrambled_schematic=4&participantId=566DE7EF91D74926BD631D55854ED087&assignmentId=dcae9e7c-86eb-4214-a392-2fdd0a3e7440&projectId=5e631737-0fa4-44a6-b227-7ba1d7345015","566DE7EF91D74926BD631D55854ED087-2025-05-27-19-11-52","","null","","images/semantic_sequence/self_care_activities_semantic/self_care_activities_semantic_1.png","null","",""
"","","","","","image-button-response","67","2435623","0.0-12.0-1.0-1.2","566DE7EF91D74926BD631D55854ED087","566DE7EF91D74926BD631D55854ED087","dcae9e7c-86eb-4214-a392-2fdd0a3e7440","5e631737-0fa4-44a6-b227-7ba1d7345015","{""num_scrambled_semantic"":""8"",""num_scrambled_causal"":""4"",""num_scrambled_schematic"":""4"",""participantId"":""566DE7EF91D74926BD631D55854ED087"",""assignmentId"":""dcae9e7c-86eb-4214-a392-2fdd0a3e7440"",""projectId"":""5e631737-0fa4-44a6-b227-7ba1d7345015""}","https://test12345.live/?num_scrambled_semantic=8&num_scrambled_causal=4&num_scrambled_schematic=4&participantId=566DE7EF91D74926BD631D55854ED087&assignmentId=dcae9e7c-86eb-4214-a392-2fdd0a3e7440&projectId=5e631737-0fa4-44a6-b227-7ba1d7345015","566DE7EF91D74926BD631D55854ED087-2025-05-27-19-11-52","","986","","images/semantic_sequence/self_care_activities_semantic/self_care_activities_semantic_1.png","0","",""
"","","","","","image-button-response","68","2437424","0.0-12.0-1.0-2.2","566DE7EF91D74926BD631D55854ED087","566DE7EF91D74926BD631D55854ED087","dcae9e7c-86eb-4214-a392-2fdd0a3e7440","5e631737-0fa4-44a6-b227-7ba1d7345015","{""num_scrambled_semantic"":""8"",""num_scrambled_causal"":""4"",""num_scrambled_schematic"":""4"",""participantId"":""566DE7EF91D74926BD631D55854ED087"",""assignmentId"":""dcae9e7c-86eb-4214-a392-2fdd0a3e7440"",""projectId"":""5e631737-0fa4-44a6-b227-7ba1d7345015""}","https://test12345.live/?num_scrambled_semantic=8&num_scrambled_causal=4&num_scrambled_schematic=4&participantId=566DE7EF91D74926BD631D55854ED087&assignmentId=dcae9e7c-86eb-4214-a392-2fdd0a3e7440&projectId=5e631737-0fa4-44a6-b227-7ba1d7345015","566DE7EF91D74926BD631D55854ED087-2025-05-27-19-11-52","","null","","[]","null","",""
"","","","","","image-button-response","69","2441926","0.0-12.0-1.0-0.3","566DE7EF91D74926BD631D55854ED087","566DE7EF91D74926BD631D55854ED087","dcae9e7c-86eb-4214-a392-2fdd0a3e7440","5e631737-0fa4-44a6-b227-7ba1d7345015","{""num_scrambled_semantic"":""8"",""num_scrambled_causal"":""4"",""num_scrambled_schematic"":""4"",""participantId"":""566DE7EF91D74926BD631D55854ED087"",""assignmentId"":""dcae9e7c-86eb-4214-a392-2fdd0a3e7440"",""projectId"":""5e631737-0fa4-44a6-b227-7ba1d7345015""}","https://test12345.live/?num_scrambled_semantic=8&num_scrambled_causal=4&num_scrambled_schematic=4&participantId=566DE7EF91D74926BD631D55854ED087&assignmentId=dcae9e7c-86eb-4214-a392-2fdd0a3e7440&projectId=5e631737-0fa4-44a6-b227-7ba1d7345015","566DE7EF91D74926BD631D55854ED087-2025-05-27-19-11-52","","null","","images/semantic_sequence/self_care_activities_semantic/self_care_activities_semantic_2.png","null","",""
"","","","","","image-button-response","70","2443943","0.0-12.0-1.0-1.3","566DE7EF91D74926BD631D55854ED087","566DE7EF91D74926BD631D55854ED087","dcae9e7c-86eb-4214-a392-2fdd0a3e7440","5e631737-0fa4-44a6-b227-7ba1d7345015","{""num_scrambled_semantic"":""8"",""num_scrambled_causal"":""4"",""num_scrambled_schematic"":""4"",""participantId"":""566DE7EF91D74926BD631D55854ED087"",""assignmentId"":""dcae9e7c-86eb-4214-a392-2fdd0a3e7440"",""projectId"":""5e631737-0fa4-44a6-b227-7ba1d7345015""}","https://test12345.live/?num_scrambled_semantic=8&num_scrambled_causal=4&num_scrambled_schematic=4&participantId=566DE7EF91D74926BD631D55854ED087&assignmentId=dcae9e7c-86eb-4214-a392-2fdd0a3e7440&projectId=5e631737-0fa4-44a6-b227-7ba1d7345015","566DE7EF91D74926BD631D55854ED087-2025-05-27-19-11-52","","2016","","images/semantic_sequence/self_care_activities_semantic/self_care_activities_semantic_2.png","0","",""
"","","","","","image-button-response","71","2445743","0.0-12.0-1.0-2.3","566DE7EF91D74926BD631D55854ED087","566DE7EF91D74926BD631D55854ED087","dcae9e7c-86eb-4214-a392-2fdd0a3e7440","5e631737-0fa4-44a6-b227-7ba1d7345015","{""num_scrambled_semantic"":""8"",""num_scrambled_causal"":""4"",""num_scrambled_schematic"":""4"",""participantId"":""566DE7EF91D74926BD631D55854ED087"",""assignmentId"":""dcae9e7c-86eb-4214-a392-2fdd0a3e7440"",""projectId"":""5e631737-0fa4-44a6-b227-7ba1d7345015""}","https://test12345.live/?num_scrambled_semantic=8&num_scrambled_causal=4&num_scrambled_schematic=4&participantId=566DE7EF91D74926BD631D55854ED087&assignmentId=dcae9e7c-86eb-4214-a392-2fdd0a3e7440&projectId=5e631737-0fa4-44a6-b227-7ba1d7345015","566DE7EF91D74926BD631D55854ED087-2025-05-27-19-11-52","","null","","[]","null","",""
"","","","","","image-button-response","72","2450245","0.0-12.0-1.0-0.4","566DE7EF91D74926BD631D55854ED087","566DE7EF91D74926BD631D55854ED087","dcae9e7c-86eb-4214-a392-2fdd0a3e7440","5e631737-0fa4-44a6-b227-7ba1d7345015","{""num_scrambled_semantic"":""8"",""num_scrambled_causal"":""4"",""num_scrambled_schematic"":""4"",""participantId"":""566DE7EF91D74926BD631D55854ED087"",""assignmentId"":""dcae9e7c-86eb-4214-a392-2fdd0a3e7440"",""projectId"":""5e631737-0fa4-44a6-b227-7ba1d7345015""}","https://test12345.live/?num_scrambled_semantic=8&num_scrambled_causal=4&num_scrambled_schematic=4&participantId=566DE7EF91D74926BD631D55854ED087&assignmentId=dcae9e7c-86eb-4214-a392-2fdd0a3e7440&projectId=5e631737-0fa4-44a6-b227-7ba1d7345015","566DE7EF91D74926BD631D55854ED087-2025-05-27-19-11-52","","null","","images/semantic_sequence/self_care_activities_semantic/self_care_activities_semantic_4.png","null","",""
"","","","","","image-button-response","73","2451943","0.0-12.0-1.0-1.4","566DE7EF91D74926BD631D55854ED087","566DE7EF91D74926BD631D55854ED087","dcae9e7c-86eb-4214-a392-2fdd0a3e7440","5e631737-0fa4-44a6-b227-7ba1d7345015","{""num_scrambled_semantic"":""8"",""num_scrambled_causal"":""4"",""num_scrambled_schematic"":""4"",""participantId"":""566DE7EF91D74926BD631D55854ED087"",""assignmentId"":""dcae9e7c-86eb-4214-a392-2fdd0a3e7440"",""projectId"":""5e631737-0fa4-44a6-b227-7ba1d7345015""}","https://test12345.live/?num_scrambled_semantic=8&num_scrambled_causal=4&num_scrambled_schematic=4&participantId=566DE7EF91D74926BD631D55854ED087&assignmentId=dcae9e7c-86eb-4214-a392-2fdd0a3e7440&projectId=5e631737-0fa4-44a6-b227-7ba1d7345015","566DE7EF91D74926BD631D55854ED087-2025-05-27-19-11-52","","1697","","images/semantic_sequence/self_care_activities_semantic/self_care_activities_semantic_4.png","0","",""
"","","","","","image-button-response","74","2453744","0.0-12.0-1.0-2.4","566DE7EF91D74926BD631D55854ED087","566DE7EF91D74926BD631D55854ED087","dcae9e7c-86eb-4214-a392-2fdd0a3e7440","5e631737-0fa4-44a6-b227-7ba1d7345015","{""num_scrambled_semantic"":""8"",""num_scrambled_causal"":""4"",""num_scrambled_schematic"":""4"",""participantId"":""566DE7EF91D74926BD631D55854ED087"",""assignmentId"":""dcae9e7c-86eb-4214-a392-2fdd0a3e7440"",""projectId"":""5e631737-0fa4-44a6-b227-7ba1d7345015""}","https://test12345.live/?num_scrambled_semantic=8&num_scrambled_causal=4&num_scrambled_schematic=4&participantId=566DE7EF91D74926BD631D55854ED087&assignmentId=dcae9e7c-86eb-4214-a392-2fdd0a3e7440&projectId=5e631737-0fa4-44a6-b227-7ba1d7345015","566DE7EF91D74926BD631D55854ED087-2025-05-27-19-11-52","","null","","[]","null","",""
"","","","","","image-button-response","75","2458252","0.0-12.0-1.0-0.5","566DE7EF91D74926BD631D55854ED087","566DE7EF91D74926BD631D55854ED087","dcae9e7c-86eb-4214-a392-2fdd0a3e7440","5e631737-0fa4-44a6-b227-7ba1d7345015","{""num_scrambled_semantic"":""8"",""num_scrambled_causal"":""4"",""num_scrambled_schematic"":""4"",""participantId"":""566DE7EF91D74926BD631D55854ED087"",""assignmentId"":""dcae9e7c-86eb-4214-a392-2fdd0a3e7440"",""projectId"":""5e631737-0fa4-44a6-b227-7ba1d7345015""}","https://test12345.live/?num_scrambled_semantic=8&num_scrambled_causal=4&num_scrambled_schematic=4&participantId=566DE7EF91D74926BD631D55854ED087&assignmentId=dcae9e7c-86eb-4214-a392-2fdd0a3e7440&projectId=5e631737-0fa4-44a6-b227-7ba1d7345015","566DE7EF91D74926BD631D55854ED087-2025-05-27-19-11-52","","null","","images/semantic_sequence/self_care_activities_semantic/self_care_activities_semantic_9.png","null","",""
"","","","","","image-button-response","76","2460063","0.0-12.0-1.0-1.5","566DE7EF91D74926BD631D55854ED087","566DE7EF91D74926BD631D55854ED087","dcae9e7c-86eb-4214-a392-2fdd0a3e7440","5e631737-0fa4-44a6-b227-7ba1d7345015","{""num_scrambled_semantic"":""8"",""num_scrambled_causal"":""4"",""num_scrambled_schematic"":""4"",""participantId"":""566DE7EF91D74926BD631D55854ED087"",""assignmentId"":""dcae9e7c-86eb-4214-a392-2fdd0a3e7440"",""projectId"":""5e631737-0fa4-44a6-b227-7ba1d7345015""}","https://test12345.live/?num_scrambled_semantic=8&num_scrambled_causal=4&num_scrambled_schematic=4&participantId=566DE7EF91D74926BD631D55854ED087&assignmentId=dcae9e7c-86eb-4214-a392-2fdd0a3e7440&projectId=5e631737-0fa4-44a6-b227-7ba1d7345015","566DE7EF91D74926BD631D55854ED087-2025-05-27-19-11-52","","1809","","images/semantic_sequence/self_care_activities_semantic/self_care_activities_semantic_9.png","0","",""
"","","","","","image-button-response","77","2461874","0.0-12.0-1.0-2.5","566DE7EF91D74926BD631D55854ED087","566DE7EF91D74926BD631D55854ED087","dcae9e7c-86eb-4214-a392-2fdd0a3e7440","5e631737-0fa4-44a6-b227-7ba1d7345015","{""num_scrambled_semantic"":""8"",""num_scrambled_causal"":""4"",""num_scrambled_schematic"":""4"",""participantId"":""566DE7EF91D74926BD631D55854ED087"",""assignmentId"":""dcae9e7c-86eb-4214-a392-2fdd0a3e7440"",""projectId"":""5e631737-0fa4-44a6-b227-7ba1d7345015""}","https://test12345.live/?num_scrambled_semantic=8&num_scrambled_causal=4&num_scrambled_schematic=4&participantId=566DE7EF91D74926BD631D55854ED087&assignmentId=dcae9e7c-86eb-4214-a392-2fdd0a3e7440&projectId=5e631737-0fa4-44a6-b227-7ba1d7345015","566DE7EF91D74926BD631D55854ED087-2025-05-27-19-11-52","","null","","[]","null","",""
"","","","","","image-button-response","78","2466376","0.0-12.0-1.0-0.6","566DE7EF91D74926BD631D55854ED087","566DE7EF91D74926BD631D55854ED087","dcae9e7c-86eb-4214-a392-2fdd0a3e7440","5e631737-0fa4-44a6-b227-7ba1d7345015","{""num_scrambled_semantic"":""8"",""num_scrambled_causal"":""4"",""num_scrambled_schematic"":""4"",""participantId"":""566DE7EF91D74926BD631D55854ED087"",""assignmentId"":""dcae9e7c-86eb-4214-a392-2fdd0a3e7440"",""projectId"":""5e631737-0fa4-44a6-b227-7ba1d7345015""}","https://test12345.live/?num_scrambled_semantic=8&num_scrambled_causal=4&num_scrambled_schematic=4&participantId=566DE7EF91D74926BD631D55854ED087&assignmentId=dcae9e7c-86eb-4214-a392-2fdd0a3e7440&projectId=5e631737-0fa4-44a6-b227-7ba1d7345015","566DE7EF91D74926BD631D55854ED087-2025-05-27-19-11-52","","null","","images/semantic_sequence/self_care_activities_semantic/self_care_activities_semantic_5.png","null","",""
"","","","","","image-button-response","79","2468007","0.0-12.0-1.0-1.6","566DE7EF91D74926BD631D55854ED087","566DE7EF91D74926BD631D55854ED087","dcae9e7c-86eb-4214-a392-2fdd0a3e7440","5e631737-0fa4-44a6-b227-7ba1d7345015","{""num_scrambled_semantic"":""8"",""num_scrambled_causal"":""4"",""num_scrambled_schematic"":""4"",""participantId"":""566DE7EF91D74926BD631D55854ED087"",""assignmentId"":""dcae9e7c-86eb-4214-a392-2fdd0a3e7440"",""projectId"":""5e631737-0fa4-44a6-b227-7ba1d7345015""}","https://test12345.live/?num_scrambled_semantic=8&num_scrambled_causal=4&num_scrambled_schematic=4&participantId=566DE7EF91D74926BD631D55854ED087&assignmentId=dcae9e7c-86eb-4214-a392-2fdd0a3e7440&projectId=5e631737-0fa4-44a6-b227-7ba1d7345015","566DE7EF91D74926BD631D55854ED087-2025-05-27-19-11-52","","1629","","images/semantic_sequence/self_care_activities_semantic/self_care_activities_semantic_5.png","0","",""
"","","","","","image-button-response","80","2469822","0.0-12.0-1.0-2.6","566DE7EF91D74926BD631D55854ED087","566DE7EF91D74926BD631D55854ED087","dcae9e7c-86eb-4214-a392-2fdd0a3e7440","5e631737-0fa4-44a6-b227-7ba1d7345015","{""num_scrambled_semantic"":""8"",""num_scrambled_causal"":""4"",""num_scrambled_schematic"":""4"",""participantId"":""566DE7EF91D74926BD631D55854ED087"",""assignmentId"":""dcae9e7c-86eb-4214-a392-2fdd0a3e7440"",""projectId"":""5e631737-0fa4-44a6-b227-7ba1d7345015""}","https://test12345.live/?num_scrambled_semantic=8&num_scrambled_causal=4&num_scrambled_schematic=4&participantId=566DE7EF91D74926BD631D55854ED087&assignmentId=dcae9e7c-86eb-4214-a392-2fdd0a3e7440&projectId=5e631737-0fa4-44a6-b227-7ba1d7345015","566DE7EF91D74926BD631D55854ED087-2025-05-27-19-11-52","","null","","[]","null","",""
"","","","","","image-button-response","81","2474331","0.0-12.0-1.0-0.7","566DE7EF91D74926BD631D55854ED087","566DE7EF91D74926BD631D55854ED087","dcae9e7c-86eb-4214-a392-2fdd0a3e7440","5e631737-0fa4-44a6-b227-7ba1d7345015","{""num_scrambled_semantic"":""8"",""num_scrambled_causal"":""4"",""num_scrambled_schematic"":""4"",""participantId"":""566DE7EF91D74926BD631D55854ED087"",""assignmentId"":""dcae9e7c-86eb-4214-a392-2fdd0a3e7440"",""projectId"":""5e631737-0fa4-44a6-b227-7ba1d7345015""}","https://test12345.live/?num_scrambled_semantic=8&num_scrambled_causal=4&num_scrambled_schematic=4&participantId=566DE7EF91D74926BD631D55854ED087&assignmentId=dcae9e7c-86eb-4214-a392-2fdd0a3e7440&projectId=5e631737-0fa4-44a6-b227-7ba1d7345015","566DE7EF91D74926BD631D55854ED087-2025-05-27-19-11-52","","null","","images/semantic_sequence/self_care_activities_semantic/self_care_activities_semantic_ten.png","null","",""
"","","","","","image-button-response","82","2476375","0.0-12.0-1.0-1.7","566DE7EF91D74926BD631D55854ED087","566DE7EF91D74926BD631D55854ED087","dcae9e7c-86eb-4214-a392-2fdd0a3e7440","5e631737-0fa4-44a6-b227-7ba1d7345015","{""num_scrambled_semantic"":""8"",""num_scrambled_causal"":""4"",""num_scrambled_schematic"":""4"",""participantId"":""566DE7EF91D74926BD631D55854ED087"",""assignmentId"":""dcae9e7c-86eb-4214-a392-2fdd0a3e7440"",""projectId"":""5e631737-0fa4-44a6-b227-7ba1d7345015""}","https://test12345.live/?num_scrambled_semantic=8&num_scrambled_causal=4&num_scrambled_schematic=4&participantId=566DE7EF91D74926BD631D55854ED087&assignmentId=dcae9e7c-86eb-4214-a392-2fdd0a3e7440&projectId=5e631737-0fa4-44a6-b227-7ba1d7345015","566DE7EF91D74926BD631D55854ED087-2025-05-27-19-11-52","","2043","","images/semantic_sequence/self_care_activities_semantic/self_care_activities_semantic_ten.png","0","",""
"","","","","","image-button-response","83","2478184","0.0-12.0-1.0-2.7","566DE7EF91D74926BD631D55854ED087","566DE7EF91D74926BD631D55854ED087","dcae9e7c-86eb-4214-a392-2fdd0a3e7440","5e631737-0fa4-44a6-b227-7ba1d7345015","{""num_scrambled_semantic"":""8"",""num_scrambled_causal"":""4"",""num_scrambled_schematic"":""4"",""participantId"":""566DE7EF91D74926BD631D55854ED087"",""assignmentId"":""dcae9e7c-86eb-4214-a392-2fdd0a3e7440"",""projectId"":""5e631737-0fa4-44a6-b227-7ba1d7345015""}","https://test12345.live/?num_scrambled_semantic=8&num_scrambled_causal=4&num_scrambled_schematic=4&participantId=566DE7EF91D74926BD631D55854ED087&assignmentId=dcae9e7c-86eb-4214-a392-2fdd0a3e7440&projectId=5e631737-0fa4-44a6-b227-7ba1d7345015","566DE7EF91D74926BD631D55854ED087-2025-05-27-19-11-52","","null","","[]","null","",""
"","","","","","image-button-response","84","2482698","0.0-12.0-1.0-0.8","566DE7EF91D74926BD631D55854ED087","566DE7EF91D74926BD631D55854ED087","dcae9e7c-86eb-4214-a392-2fdd0a3e7440","5e631737-0fa4-44a6-b227-7ba1d7345015","{""num_scrambled_semantic"":""8"",""num_scrambled_causal"":""4"",""num_scrambled_schematic"":""4"",""participantId"":""566DE7EF91D74926BD631D55854ED087"",""assignmentId"":""dcae9e7c-86eb-4214-a392-2fdd0a3e7440"",""projectId"":""5e631737-0fa4-44a6-b227-7ba1d7345015""}","https://test12345.live/?num_scrambled_semantic=8&num_scrambled_causal=4&num_scrambled_schematic=4&participantId=566DE7EF91D74926BD631D55854ED087&assignmentId=dcae9e7c-86eb-4214-a392-2fdd0a3e7440&projectId=5e631737-0fa4-44a6-b227-7ba1d7345015","566DE7EF91D74926BD631D55854ED087-2025-05-27-19-11-52","","null","","images/semantic_sequence/self_care_activities_semantic/self_care_activities_semantic_3.png","null","",""
"","","","","","image-button-response","85","2483631","0.0-12.0-1.0-1.8","566DE7EF91D74926BD631D55854ED087","566DE7EF91D74926BD631D55854ED087","dcae9e7c-86eb-4214-a392-2fdd0a3e7440","5e631737-0fa4-44a6-b227-7ba1d7345015","{""num_scrambled_semantic"":""8"",""num_scrambled_causal"":""4"",""num_scrambled_schematic"":""4"",""participantId"":""566DE7EF91D74926BD631D55854ED087"",""assignmentId"":""dcae9e7c-86eb-4214-a392-2fdd0a3e7440"",""projectId"":""5e631737-0fa4-44a6-b227-7ba1d7345015""}","https://test12345.live/?num_scrambled_semantic=8&num_scrambled_causal=4&num_scrambled_schematic=4&participantId=566DE7EF91D74926BD631D55854ED087&assignmentId=dcae9e7c-86eb-4214-a392-2fdd0a3e7440&projectId=5e631737-0fa4-44a6-b227-7ba1d7345015","566DE7EF91D74926BD631D55854ED087-2025-05-27-19-11-52","","932","","images/semantic_sequence/self_care_activities_semantic/self_care_activities_semantic_3.png","0","",""
"","","","","","image-button-response","86","2485432","0.0-12.0-1.0-2.8","566DE7EF91D74926BD631D55854ED087","566DE7EF91D74926BD631D55854ED087","dcae9e7c-86eb-4214-a392-2fdd0a3e7440","5e631737-0fa4-44a6-b227-7ba1d7345015","{""num_scrambled_semantic"":""8"",""num_scrambled_causal"":""4"",""num_scrambled_schematic"":""4"",""participantId"":""566DE7EF91D74926BD631D55854ED087"",""assignmentId"":""dcae9e7c-86eb-4214-a392-2fdd0a3e7440"",""projectId"":""5e631737-0fa4-44a6-b227-7ba1d7345015""}","https://test12345.live/?num_scrambled_semantic=8&num_scrambled_causal=4&num_scrambled_schematic=4&participantId=566DE7EF91D74926BD631D55854ED087&assignmentId=dcae9e7c-86eb-4214-a392-2fdd0a3e7440&projectId=5e631737-0fa4-44a6-b227-7ba1d7345015","566DE7EF91D74926BD631D55854ED087-2025-05-27-19-11-52","","null","","[]","null","",""
"","","","","","image-button-response","87","2489945","0.0-12.0-1.0-0.9","566DE7EF91D74926BD631D55854ED087","566DE7EF91D74926BD631D55854ED087","dcae9e7c-86eb-4214-a392-2fdd0a3e7440","5e631737-0fa4-44a6-b227-7ba1d7345015","{""num_scrambled_semantic"":""8"",""num_scrambled_causal"":""4"",""num_scrambled_schematic"":""4"",""participantId"":""566DE7EF91D74926BD631D55854ED087"",""assignmentId"":""dcae9e7c-86eb-4214-a392-2fdd0a3e7440"",""projectId"":""5e631737-0fa4-44a6-b227-7ba1d7345015""}","https://test12345.live/?num_scrambled_semantic=8&num_scrambled_causal=4&num_scrambled_schematic=4&participantId=566DE7EF91D74926BD631D55854ED087&assignmentId=dcae9e7c-86eb-4214-a392-2fdd0a3e7440&projectId=5e631737-0fa4-44a6-b227-7ba1d7345015","566DE7EF91D74926BD631D55854ED087-2025-05-27-19-11-52","","null","","images/semantic_sequence/self_care_activities_semantic/self_care_activities_semantic_6.png","null","",""
"","","","","","image-button-response","88","2491255","0.0-12.0-1.0-1.9","566DE7EF91D74926BD631D55854ED087","566DE7EF91D74926BD631D55854ED087","dcae9e7c-86eb-4214-a392-2fdd0a3e7440","5e631737-0fa4-44a6-b227-7ba1d7345015","{""num_scrambled_semantic"":""8"",""num_scrambled_causal"":""4"",""num_scrambled_schematic"":""4"",""participantId"":""566DE7EF91D74926BD631D55854ED087"",""assignmentId"":""dcae9e7c-86eb-4214-a392-2fdd0a3e7440"",""projectId"":""5e631737-0fa4-44a6-b227-7ba1d7345015""}","https://test12345.live/?num_scrambled_semantic=8&num_scrambled_causal=4&num_scrambled_schematic=4&participantId=566DE7EF91D74926BD631D55854ED087&assignmentId=dcae9e7c-86eb-4214-a392-2fdd0a3e7440&projectId=5e631737-0fa4-44a6-b227-7ba1d7345015","566DE7EF91D74926BD631D55854ED087-2025-05-27-19-11-52","","1309","","images/semantic_sequence/self_care_activities_semantic/self_care_activities_semantic_6.png","1","",""
"","","","","","image-button-response","89","2493059","0.0-12.0-1.0-2.9","566DE7EF91D74926BD631D55854ED087","566DE7EF91D74926BD631D55854ED087","dcae9e7c-86eb-4214-a392-2fdd0a3e7440","5e631737-0fa4-44a6-b227-7ba1d7345015","{""num_scrambled_semantic"":""8"",""num_scrambled_causal"":""4"",""num_scrambled_schematic"":""4"",""participantId"":""566DE7EF91D74926BD631D55854ED087"",""assignmentId"":""dcae9e7c-86eb-4214-a392-2fdd0a3e7440"",""projectId"":""5e631737-0fa4-44a6-b227-7ba1d7345015""}","https://test12345.live/?num_scrambled_semantic=8&num_scrambled_causal=4&num_scrambled_schematic=4&participantId=566DE7EF91D74926BD631D55854ED087&assignmentId=dcae9e7c-86eb-4214-a392-2fdd0a3e7440&projectId=5e631737-0fa4-44a6-b227-7ba1d7345015","566DE7EF91D74926BD631D55854ED087-2025-05-27-19-11-52","","null","","[]","null","",""
"","","","","","html-audio-response","90","2540511","0.0-13.0","566DE7EF91D74926BD631D55854ED087","566DE7EF91D74926BD631D55854ED087","dcae9e7c-86eb-4214-a392-2fdd0a3e7440","5e631737-0fa4-44a6-b227-7ba1d7345015","{""num_scrambled_semantic"":""8"",""num_scrambled_causal"":""4"",""num_scrambled_schematic"":""4"",""participantId"":""566DE7EF91D74926BD631D55854ED087"",""assignmentId"":""dcae9e7c-86eb-4214-a392-2fdd0a3e7440"",""projectId"":""5e631737-0fa4-44a6-b227-7ba1d7345015""}","https://test12345.live/?num_scrambled_semantic=8&num_scrambled_causal=4&num_scrambled_schematic=4&participantId=566DE7EF91D74926BD631D55854ED087&assignmentId=dcae9e7c-86eb-4214-a392-2fdd0a3e7440&projectId=5e631737-0fa4-44a6-b227-7ba1d7345015","566DE7EF91D74926BD631D55854ED087-2025-05-27-19-11-52","","31883","","[""<span style=\""color: red; font-size: 24px\""> NOW RECORDING</span><p>Please say out loud all the images you saw, in the exact order you saw them. Try to recall as many images as you can, but remember: getting the order right is more important than the number of images you recall.</p>""]","","2","self_care_activities_semantic"
"","","","","","image-button-response","91","2546518","0.0-14.0-0.0","566DE7EF91D74926BD631D55854ED087","566DE7EF91D74926BD631D55854ED087","dcae9e7c-86eb-4214-a392-2fdd0a3e7440","5e631737-0fa4-44a6-b227-7ba1d7345015","{""num_scrambled_semantic"":""8"",""num_scrambled_causal"":""4"",""num_scrambled_schematic"":""4"",""participantId"":""566DE7EF91D74926BD631D55854ED087"",""assignmentId"":""dcae9e7c-86eb-4214-a392-2fdd0a3e7440"",""projectId"":""5e631737-0fa4-44a6-b227-7ba1d7345015""}","https://test12345.live/?num_scrambled_semantic=8&num_scrambled_causal=4&num_scrambled_schematic=4&participantId=566DE7EF91D74926BD631D55854ED087&assignmentId=dcae9e7c-86eb-4214-a392-2fdd0a3e7440&projectId=5e631737-0fa4-44a6-b227-7ba1d7345015","566DE7EF91D74926BD631D55854ED087-2025-05-27-19-11-52","","null","","images/schematic_sequence/dinner_party_scheme/dinner_party_scheme_0.png","null","",""
"","","","","","image-button-response","92","2551034","0.0-14.0-1.0-0.0","566DE7EF91D74926BD631D55854ED087","566DE7EF91D74926BD631D55854ED087","dcae9e7c-86eb-4214-a392-2fdd0a3e7440","5e631737-0fa4-44a6-b227-7ba1d7345015","{""num_scrambled_semantic"":""8"",""num_scrambled_causal"":""4"",""num_scrambled_schematic"":""4"",""participantId"":""566DE7EF91D74926BD631D55854ED087"",""assignmentId"":""dcae9e7c-86eb-4214-a392-2fdd0a3e7440"",""projectId"":""5e631737-0fa4-44a6-b227-7ba1d7345015""}","https://test12345.live/?num_scrambled_semantic=8&num_scrambled_causal=4&num_scrambled_schematic=4&participantId=566DE7EF91D74926BD631D55854ED087&assignmentId=dcae9e7c-86eb-4214-a392-2fdd0a3e7440&projectId=5e631737-0fa4-44a6-b227-7ba1d7345015","566DE7EF91D74926BD631D55854ED087-2025-05-27-19-11-52","","null","","images/schematic_sequence/dinner_party_scheme/dinner_party_scheme_1.png","null","",""
"","","","","","image-button-response","93","2553806","0.0-14.0-1.0-1.0","566DE7EF91D74926BD631D55854ED087","566DE7EF91D74926BD631D55854ED087","dcae9e7c-86eb-4214-a392-2fdd0a3e7440","5e631737-0fa4-44a6-b227-7ba1d7345015","{""num_scrambled_semantic"":""8"",""num_scrambled_causal"":""4"",""num_scrambled_schematic"":""4"",""participantId"":""566DE7EF91D74926BD631D55854ED087"",""assignmentId"":""dcae9e7c-86eb-4214-a392-2fdd0a3e7440"",""projectId"":""5e631737-0fa4-44a6-b227-7ba1d7345015""}","https://test12345.live/?num_scrambled_semantic=8&num_scrambled_causal=4&num_scrambled_schematic=4&participantId=566DE7EF91D74926BD631D55854ED087&assignmentId=dcae9e7c-86eb-4214-a392-2fdd0a3e7440&projectId=5e631737-0fa4-44a6-b227-7ba1d7345015","566DE7EF91D74926BD631D55854ED087-2025-05-27-19-11-52","","2772","","images/schematic_sequence/dinner_party_scheme/dinner_party_scheme_1.png","0","",""
"","","","","","image-button-response","94","2555611","0.0-14.0-1.0-2.0","566DE7EF91D74926BD631D55854ED087","566DE7EF91D74926BD631D55854ED087","dcae9e7c-86eb-4214-a392-2fdd0a3e7440","5e631737-0fa4-44a6-b227-7ba1d7345015","{""num_scrambled_semantic"":""8"",""num_scrambled_causal"":""4"",""num_scrambled_schematic"":""4"",""participantId"":""566DE7EF91D74926BD631D55854ED087"",""assignmentId"":""dcae9e7c-86eb-4214-a392-2fdd0a3e7440"",""projectId"":""5e631737-0fa4-44a6-b227-7ba1d7345015""}","https://test12345.live/?num_scrambled_semantic=8&num_scrambled_causal=4&num_scrambled_schematic=4&participantId=566DE7EF91D74926BD631D55854ED087&assignmentId=dcae9e7c-86eb-4214-a392-2fdd0a3e7440&projectId=5e631737-0fa4-44a6-b227-7ba1d7345015","566DE7EF91D74926BD631D55854ED087-2025-05-27-19-11-52","","null","","[]","null","",""
"","","","","","image-button-response","95","2560120","0.0-14.0-1.0-0.1","566DE7EF91D74926BD631D55854ED087","566DE7EF91D74926BD631D55854ED087","dcae9e7c-86eb-4214-a392-2fdd0a3e7440","5e631737-0fa4-44a6-b227-7ba1d7345015","{""num_scrambled_semantic"":""8"",""num_scrambled_causal"":""4"",""num_scrambled_schematic"":""4"",""participantId"":""566DE7EF91D74926BD631D55854ED087"",""assignmentId"":""dcae9e7c-86eb-4214-a392-2fdd0a3e7440"",""projectId"":""5e631737-0fa4-44a6-b227-7ba1d7345015""}","https://test12345.live/?num_scrambled_semantic=8&num_scrambled_causal=4&num_scrambled_schematic=4&participantId=566DE7EF91D74926BD631D55854ED087&assignmentId=dcae9e7c-86eb-4214-a392-2fdd0a3e7440&projectId=5e631737-0fa4-44a6-b227-7ba1d7345015","566DE7EF91D74926BD631D55854ED087-2025-05-27-19-11-52","","null","","images/schematic_sequence/dinner_party_scheme/dinner_party_scheme_2.png","null","",""
"","","","","","image-button-response","96","2563431","0.0-14.0-1.0-1.1","566DE7EF91D74926BD631D55854ED087","566DE7EF91D74926BD631D55854ED087","dcae9e7c-86eb-4214-a392-2fdd0a3e7440","5e631737-0fa4-44a6-b227-7ba1d7345015","{""num_scrambled_semantic"":""8"",""num_scrambled_causal"":""4"",""num_scrambled_schematic"":""4"",""participantId"":""566DE7EF91D74926BD631D55854ED087"",""assignmentId"":""dcae9e7c-86eb-4214-a392-2fdd0a3e7440"",""projectId"":""5e631737-0fa4-44a6-b227-7ba1d7345015""}","https://test12345.live/?num_scrambled_semantic=8&num_scrambled_causal=4&num_scrambled_schematic=4&participantId=566DE7EF91D74926BD631D55854ED087&assignmentId=dcae9e7c-86eb-4214-a392-2fdd0a3e7440&projectId=5e631737-0fa4-44a6-b227-7ba1d7345015","566DE7EF91D74926BD631D55854ED087-2025-05-27-19-11-52","","3310","","images/schematic_sequence/dinner_party_scheme/dinner_party_scheme_2.png","1","",""
"","","","","","image-button-response","97","2565232","0.0-14.0-1.0-2.1","566DE7EF91D74926BD631D55854ED087","566DE7EF91D74926BD631D55854ED087","dcae9e7c-86eb-4214-a392-2fdd0a3e7440","5e631737-0fa4-44a6-b227-7ba1d7345015","{""num_scrambled_semantic"":""8"",""num_scrambled_causal"":""4"",""num_scrambled_schematic"":""4"",""participantId"":""566DE7EF91D74926BD631D55854ED087"",""assignmentId"":""dcae9e7c-86eb-4214-a392-2fdd0a3e7440"",""projectId"":""5e631737-0fa4-44a6-b227-7ba1d7345015""}","https://test12345.live/?num_scrambled_semantic=8&num_scrambled_causal=4&num_scrambled_schematic=4&participantId=566DE7EF91D74926BD631D55854ED087&assignmentId=dcae9e7c-86eb-4214-a392-2fdd0a3e7440&projectId=5e631737-0fa4-44a6-b227-7ba1d7345015","566DE7EF91D74926BD631D55854ED087-2025-05-27-19-11-52","","null","","[]","null","",""
"","","","","","image-button-response","98","2569741","0.0-14.0-1.0-0.2","566DE7EF91D74926BD631D55854ED087","566DE7EF91D74926BD631D55854ED087","dcae9e7c-86eb-4214-a392-2fdd0a3e7440","5e631737-0fa4-44a6-b227-7ba1d7345015","{""num_scrambled_semantic"":""8"",""num_scrambled_causal"":""4"",""num_scrambled_schematic"":""4"",""participantId"":""566DE7EF91D74926BD631D55854ED087"",""assignmentId"":""dcae9e7c-86eb-4214-a392-2fdd0a3e7440"",""projectId"":""5e631737-0fa4-44a6-b227-7ba1d7345015""}","https://test12345.live/?num_scrambled_semantic=8&num_scrambled_causal=4&num_scrambled_schematic=4&participantId=566DE7EF91D74926BD631D55854ED087&assignmentId=dcae9e7c-86eb-4214-a392-2fdd0a3e7440&projectId=5e631737-0fa4-44a6-b227-7ba1d7345015","566DE7EF91D74926BD631D55854ED087-2025-05-27-19-11-52","","null","","images/schematic_sequence/dinner_party_scheme/dinner_party_scheme_3.png","null","",""
"","","","","","image-button-response","99","2571591","0.0-14.0-1.0-1.2","566DE7EF91D74926BD631D55854ED087","566DE7EF91D74926BD631D55854ED087","dcae9e7c-86eb-4214-a392-2fdd0a3e7440","5e631737-0fa4-44a6-b227-7ba1d7345015","{""num_scrambled_semantic"":""8"",""num_scrambled_causal"":""4"",""num_scrambled_schematic"":""4"",""participantId"":""566DE7EF91D74926BD631D55854ED087"",""assignmentId"":""dcae9e7c-86eb-4214-a392-2fdd0a3e7440"",""projectId"":""5e631737-0fa4-44a6-b227-7ba1d7345015""}","https://test12345.live/?num_scrambled_semantic=8&num_scrambled_causal=4&num_scrambled_schematic=4&participantId=566DE7EF91D74926BD631D55854ED087&assignmentId=dcae9e7c-86eb-4214-a392-2fdd0a3e7440&projectId=5e631737-0fa4-44a6-b227-7ba1d7345015","566DE7EF91D74926BD631D55854ED087-2025-05-27-19-11-52","","1849","","images/schematic_sequence/dinner_party_scheme/dinner_party_scheme_3.png","0","",""
"","","","","","image-button-response","100","2573403","0.0-14.0-1.0-2.2","566DE7EF91D74926BD631D55854ED087","566DE7EF91D74926BD631D55854ED087","dcae9e7c-86eb-4214-a392-2fdd0a3e7440","5e631737-0fa4-44a6-b227-7ba1d7345015","{""num_scrambled_semantic"":""8"",""num_scrambled_causal"":""4"",""num_scrambled_schematic"":""4"",""participantId"":""566DE7EF91D74926BD631D55854ED087"",""assignmentId"":""dcae9e7c-86eb-4214-a392-2fdd0a3e7440"",""projectId"":""5e631737-0fa4-44a6-b227-7ba1d7345015""}","https://test12345.live/?num_scrambled_semantic=8&num_scrambled_causal=4&num_scrambled_schematic=4&participantId=566DE7EF91D74926BD631D55854ED087&assignmentId=dcae9e7c-86eb-4214-a392-2fdd0a3e7440&projectId=5e631737-0fa4-44a6-b227-7ba1d7345015","566DE7EF91D74926BD631D55854ED087-2025-05-27-19-11-52","","null","","[]","null","",""
"","","","","","image-button-response","101","2577916","0.0-14.0-1.0-0.3","566DE7EF91D74926BD631D55854ED087","566DE7EF91D74926BD631D55854ED087","dcae9e7c-86eb-4214-a392-2fdd0a3e7440","5e631737-0fa4-44a6-b227-7ba1d7345015","{""num_scrambled_semantic"":""8"",""num_scrambled_causal"":""4"",""num_scrambled_schematic"":""4"",""participantId"":""566DE7EF91D74926BD631D55854ED087"",""assignmentId"":""dcae9e7c-86eb-4214-a392-2fdd0a3e7440"",""projectId"":""5e631737-0fa4-44a6-b227-7ba1d7345015""}","https://test12345.live/?num_scrambled_semantic=8&num_scrambled_causal=4&num_scrambled_schematic=4&participantId=566DE7EF91D74926BD631D55854ED087&assignmentId=dcae9e7c-86eb-4214-a392-2fdd0a3e7440&projectId=5e631737-0fa4-44a6-b227-7ba1d7345015","566DE7EF91D74926BD631D55854ED087-2025-05-27-19-11-52","","null","","images/schematic_sequence/dinner_party_scheme/dinner_party_scheme_4.png","null","",""
"","","","","","image-button-response","102","2579263","0.0-14.0-1.0-1.3","566DE7EF91D74926BD631D55854ED087","566DE7EF91D74926BD631D55854ED087","dcae9e7c-86eb-4214-a392-2fdd0a3e7440","5e631737-0fa4-44a6-b227-7ba1d7345015","{""num_scrambled_semantic"":""8"",""num_scrambled_causal"":""4"",""num_scrambled_schematic"":""4"",""participantId"":""566DE7EF91D74926BD631D55854ED087"",""assignmentId"":""dcae9e7c-86eb-4214-a392-2fdd0a3e7440"",""projectId"":""5e631737-0fa4-44a6-b227-7ba1d7345015""}","https://test12345.live/?num_scrambled_semantic=8&num_scrambled_causal=4&num_scrambled_schematic=4&participantId=566DE7EF91D74926BD631D55854ED087&assignmentId=dcae9e7c-86eb-4214-a392-2fdd0a3e7440&projectId=5e631737-0fa4-44a6-b227-7ba1d7345015","566DE7EF91D74926BD631D55854ED087-2025-05-27-19-11-52","","1345","","images/schematic_sequence/dinner_party_scheme/dinner_party_scheme_4.png","0","",""
"","","","","","image-button-response","103","2581074","0.0-14.0-1.0-2.3","566DE7EF91D74926BD631D55854ED087","566DE7EF91D74926BD631D55854ED087","dcae9e7c-86eb-4214-a392-2fdd0a3e7440","5e631737-0fa4-44a6-b227-7ba1d7345015","{""num_scrambled_semantic"":""8"",""num_scrambled_causal"":""4"",""num_scrambled_schematic"":""4"",""participantId"":""566DE7EF91D74926BD631D55854ED087"",""assignmentId"":""dcae9e7c-86eb-4214-a392-2fdd0a3e7440"",""projectId"":""5e631737-0fa4-44a6-b227-7ba1d7345015""}","https://test12345.live/?num_scrambled_semantic=8&num_scrambled_causal=4&num_scrambled_schematic=4&participantId=566DE7EF91D74926BD631D55854ED087&assignmentId=dcae9e7c-86eb-4214-a392-2fdd0a3e7440&projectId=5e631737-0fa4-44a6-b227-7ba1d7345015","566DE7EF91D74926BD631D55854ED087-2025-05-27-19-11-52","","null","","[]","null","",""
"","","","","","image-button-response","104","2585585","0.0-14.0-1.0-0.4","566DE7EF91D74926BD631D55854ED087","566DE7EF91D74926BD631D55854ED087","dcae9e7c-86eb-4214-a392-2fdd0a3e7440","5e631737-0fa4-44a6-b227-7ba1d7345015","{""num_scrambled_semantic"":""8"",""num_scrambled_causal"":""4"",""num_scrambled_schematic"":""4"",""participantId"":""566DE7EF91D74926BD631D55854ED087"",""assignmentId"":""dcae9e7c-86eb-4214-a392-2fdd0a3e7440"",""projectId"":""5e631737-0fa4-44a6-b227-7ba1d7345015""}","https://test12345.live/?num_scrambled_semantic=8&num_scrambled_causal=4&num_scrambled_schematic=4&participantId=566DE7EF91D74926BD631D55854ED087&assignmentId=dcae9e7c-86eb-4214-a392-2fdd0a3e7440&projectId=5e631737-0fa4-44a6-b227-7ba1d7345015","566DE7EF91D74926BD631D55854ED087-2025-05-27-19-11-52","","null","","images/schematic_sequence/dinner_party_scheme/dinner_party_scheme_5.png","null","",""
"","","","","","image-button-response","105","2587279","0.0-14.0-1.0-1.4","566DE7EF91D74926BD631D55854ED087","566DE7EF91D74926BD631D55854ED087","dcae9e7c-86eb-4214-a392-2fdd0a3e7440","5e631737-0fa4-44a6-b227-7ba1d7345015","{""num_scrambled_semantic"":""8"",""num_scrambled_causal"":""4"",""num_scrambled_schematic"":""4"",""participantId"":""566DE7EF91D74926BD631D55854ED087"",""assignmentId"":""dcae9e7c-86eb-4214-a392-2fdd0a3e7440"",""projectId"":""5e631737-0fa4-44a6-b227-7ba1d7345015""}","https://test12345.live/?num_scrambled_semantic=8&num_scrambled_causal=4&num_scrambled_schematic=4&participantId=566DE7EF91D74926BD631D55854ED087&assignmentId=dcae9e7c-86eb-4214-a392-2fdd0a3e7440&projectId=5e631737-0fa4-44a6-b227-7ba1d7345015","566DE7EF91D74926BD631D55854ED087-2025-05-27-19-11-52","","1692","","images/schematic_sequence/dinner_party_scheme/dinner_party_scheme_5.png","0","",""
"","","","","","image-button-response","106","2589084","0.0-14.0-1.0-2.4","566DE7EF91D74926BD631D55854ED087","566DE7EF91D74926BD631D55854ED087","dcae9e7c-86eb-4214-a392-2fdd0a3e7440","5e631737-0fa4-44a6-b227-7ba1d7345015","{""num_scrambled_semantic"":""8"",""num_scrambled_causal"":""4"",""num_scrambled_schematic"":""4"",""participantId"":""566DE7EF91D74926BD631D55854ED087"",""assignmentId"":""dcae9e7c-86eb-4214-a392-2fdd0a3e7440"",""projectId"":""5e631737-0fa4-44a6-b227-7ba1d7345015""}","https://test12345.live/?num_scrambled_semantic=8&num_scrambled_causal=4&num_scrambled_schematic=4&participantId=566DE7EF91D74926BD631D55854ED087&assignmentId=dcae9e7c-86eb-4214-a392-2fdd0a3e7440&projectId=5e631737-0fa4-44a6-b227-7ba1d7345015","566DE7EF91D74926BD631D55854ED087-2025-05-27-19-11-52","","null","","[]","null","",""
"","","","","","image-button-response","107","2593585","0.0-14.0-1.0-0.5","566DE7EF91D74926BD631D55854ED087","566DE7EF91D74926BD631D55854ED087","dcae9e7c-86eb-4214-a392-2fdd0a3e7440","5e631737-0fa4-44a6-b227-7ba1d7345015","{""num_scrambled_semantic"":""8"",""num_scrambled_causal"":""4"",""num_scrambled_schematic"":""4"",""participantId"":""566DE7EF91D74926BD631D55854ED087"",""assignmentId"":""dcae9e7c-86eb-4214-a392-2fdd0a3e7440"",""projectId"":""5e631737-0fa4-44a6-b227-7ba1d7345015""}","https://test12345.live/?num_scrambled_semantic=8&num_scrambled_causal=4&num_scrambled_schematic=4&participantId=566DE7EF91D74926BD631D55854ED087&assignmentId=dcae9e7c-86eb-4214-a392-2fdd0a3e7440&projectId=5e631737-0fa4-44a6-b227-7ba1d7345015","566DE7EF91D74926BD631D55854ED087-2025-05-27-19-11-52","","null","","images/schematic_sequence/dinner_party_scheme/dinner_party_scheme_6.png","null","",""
"","","","","","image-button-response","108","2594903","0.0-14.0-1.0-1.5","566DE7EF91D74926BD631D55854ED087","566DE7EF91D74926BD631D55854ED087","dcae9e7c-86eb-4214-a392-2fdd0a3e7440","5e631737-0fa4-44a6-b227-7ba1d7345015","{""num_scrambled_semantic"":""8"",""num_scrambled_causal"":""4"",""num_scrambled_schematic"":""4"",""participantId"":""566DE7EF91D74926BD631D55854ED087"",""assignmentId"":""dcae9e7c-86eb-4214-a392-2fdd0a3e7440"",""projectId"":""5e631737-0fa4-44a6-b227-7ba1d7345015""}","https://test12345.live/?num_scrambled_semantic=8&num_scrambled_causal=4&num_scrambled_schematic=4&participantId=566DE7EF91D74926BD631D55854ED087&assignmentId=dcae9e7c-86eb-4214-a392-2fdd0a3e7440&projectId=5e631737-0fa4-44a6-b227-7ba1d7345015","566DE7EF91D74926BD631D55854ED087-2025-05-27-19-11-52","","1316","","images/schematic_sequence/dinner_party_scheme/dinner_party_scheme_6.png","0","",""
"","","","","","image-button-response","109","2596713","0.0-14.0-1.0-2.5","566DE7EF91D74926BD631D55854ED087","566DE7EF91D74926BD631D55854ED087","dcae9e7c-86eb-4214-a392-2fdd0a3e7440","5e631737-0fa4-44a6-b227-7ba1d7345015","{""num_scrambled_semantic"":""8"",""num_scrambled_causal"":""4"",""num_scrambled_schematic"":""4"",""participantId"":""566DE7EF91D74926BD631D55854ED087"",""assignmentId"":""dcae9e7c-86eb-4214-a392-2fdd0a3e7440"",""projectId"":""5e631737-0fa4-44a6-b227-7ba1d7345015""}","https://test12345.live/?num_scrambled_semantic=8&num_scrambled_causal=4&num_scrambled_schematic=4&participantId=566DE7EF91D74926BD631D55854ED087&assignmentId=dcae9e7c-86eb-4214-a392-2fdd0a3e7440&projectId=5e631737-0fa4-44a6-b227-7ba1d7345015","566DE7EF91D74926BD631D55854ED087-2025-05-27-19-11-52","","null","","[]","null","",""
"","","","","","image-button-response","110","2601217","0.0-14.0-1.0-0.6","566DE7EF91D74926BD631D55854ED087","566DE7EF91D74926BD631D55854ED087","dcae9e7c-86eb-4214-a392-2fdd0a3e7440","5e631737-0fa4-44a6-b227-7ba1d7345015","{""num_scrambled_semantic"":""8"",""num_scrambled_causal"":""4"",""num_scrambled_schematic"":""4"",""participantId"":""566DE7EF91D74926BD631D55854ED087"",""assignmentId"":""dcae9e7c-86eb-4214-a392-2fdd0a3e7440"",""projectId"":""5e631737-0fa4-44a6-b227-7ba1d7345015""}","https://test12345.live/?num_scrambled_semantic=8&num_scrambled_causal=4&num_scrambled_schematic=4&participantId=566DE7EF91D74926BD631D55854ED087&assignmentId=dcae9e7c-86eb-4214-a392-2fdd0a3e7440&projectId=5e631737-0fa4-44a6-b227-7ba1d7345015","566DE7EF91D74926BD631D55854ED087-2025-05-27-19-11-52","","null","","images/schematic_sequence/dinner_party_scheme/dinner_party_scheme_7.png","null","",""
"","","","","","image-button-response","111","2601719","0.0-14.0-1.0-1.6","566DE7EF91D74926BD631D55854ED087","566DE7EF91D74926BD631D55854ED087","dcae9e7c-86eb-4214-a392-2fdd0a3e7440","5e631737-0fa4-44a6-b227-7ba1d7345015","{""num_scrambled_semantic"":""8"",""num_scrambled_causal"":""4"",""num_scrambled_schematic"":""4"",""participantId"":""566DE7EF91D74926BD631D55854ED087"",""assignmentId"":""dcae9e7c-86eb-4214-a392-2fdd0a3e7440"",""projectId"":""5e631737-0fa4-44a6-b227-7ba1d7345015""}","https://test12345.live/?num_scrambled_semantic=8&num_scrambled_causal=4&num_scrambled_schematic=4&participantId=566DE7EF91D74926BD631D55854ED087&assignmentId=dcae9e7c-86eb-4214-a392-2fdd0a3e7440&projectId=5e631737-0fa4-44a6-b227-7ba1d7345015","566DE7EF91D74926BD631D55854ED087-2025-05-27-19-11-52","","500","","images/schematic_sequence/dinner_party_scheme/dinner_party_scheme_7.png","0","",""
"","","","","","image-button-response","112","2603522","0.0-14.0-1.0-2.6","566DE7EF91D74926BD631D55854ED087","566DE7EF91D74926BD631D55854ED087","dcae9e7c-86eb-4214-a392-2fdd0a3e7440","5e631737-0fa4-44a6-b227-7ba1d7345015","{""num_scrambled_semantic"":""8"",""num_scrambled_causal"":""4"",""num_scrambled_schematic"":""4"",""participantId"":""566DE7EF91D74926BD631D55854ED087"",""assignmentId"":""dcae9e7c-86eb-4214-a392-2fdd0a3e7440"",""projectId"":""5e631737-0fa4-44a6-b227-7ba1d7345015""}","https://test12345.live/?num_scrambled_semantic=8&num_scrambled_causal=4&num_scrambled_schematic=4&participantId=566DE7EF91D74926BD631D55854ED087&assignmentId=dcae9e7c-86eb-4214-a392-2fdd0a3e7440&projectId=5e631737-0fa4-44a6-b227-7ba1d7345015","566DE7EF91D74926BD631D55854ED087-2025-05-27-19-11-52","","null","","[]","null","",""
"","","","","","image-button-response","113","2608025","0.0-14.0-1.0-0.7","566DE7EF91D74926BD631D55854ED087","566DE7EF91D74926BD631D55854ED087","dcae9e7c-86eb-4214-a392-2fdd0a3e7440","5e631737-0fa4-44a6-b227-7ba1d7345015","{""num_scrambled_semantic"":""8"",""num_scrambled_causal"":""4"",""num_scrambled_schematic"":""4"",""participantId"":""566DE7EF91D74926BD631D55854ED087"",""assignmentId"":""dcae9e7c-86eb-4214-a392-2fdd0a3e7440"",""projectId"":""5e631737-0fa4-44a6-b227-7ba1d7345015""}","https://test12345.live/?num_scrambled_semantic=8&num_scrambled_causal=4&num_scrambled_schematic=4&participantId=566DE7EF91D74926BD631D55854ED087&assignmentId=dcae9e7c-86eb-4214-a392-2fdd0a3e7440&projectId=5e631737-0fa4-44a6-b227-7ba1d7345015","566DE7EF91D74926BD631D55854ED087-2025-05-27-19-11-52","","null","","images/schematic_sequence/dinner_party_scheme/dinner_party_scheme_8.png","null","",""
