"success","timeout","failed_images","failed_audio","failed_video","trial_type","trial_index","time_elapsed","internal_node_id","subject","subject_id","study_id","session_id","urlvar","current_url","audio_id","view_history","rt","device_id","stimulus","response","estimated_stimulus_onset","seq_name"
"true","false","[]","[]","[]","preload","0","4315","0.0-0.0","57F46DBA90A14924A2E2C2CB600A683C","57F46DBA90A14924A2E2C2CB600A683C","0198ee6a-36fa-7ebd-b864-4d3ae0b1b6ae","0198ee3c-27ac-7803-a9ea-f3b4ad4ad678","{""num_scrambled_semantic"":""8"",""num_scrambled_causal"":""4"",""num_scrambled_schematic"":""4"",""participantId"":""57F46DBA90A14924A2E2C2CB600A683C"",""assignmentId"":""0198ee6a-36fa-7ebd-b864-4d3ae0b1b6ae"",""projectId"":""0198ee3c-27ac-7803-a9ea-f3b4ad4ad678""}","https://test12345.live/?num_scrambled_semantic=8&num_scrambled_causal=4&num_scrambled_schematic=4&participantId=57F46DBA90A14924A2E2C2CB600A683C&assignmentId=0198ee6a-36fa-7ebd-b864-4d3ae0b1b6ae&projectId=0198ee3c-27ac-7803-a9ea-f3b4ad4ad678","57F46DBA90A14924A2E2C2CB600A683C-2025-08-28-02-52-44","","","","","","",""
"","","","","","instructions","1","16186","0.0-1.0","57F46DBA90A14924A2E2C2CB600A683C","57F46DBA90A14924A2E2C2CB600A683C","0198ee6a-36fa-7ebd-b864-4d3ae0b1b6ae","0198ee3c-27ac-7803-a9ea-f3b4ad4ad678","{""num_scrambled_semantic"":""8"",""num_scrambled_causal"":""4"",""num_scrambled_schematic"":""4"",""participantId"":""57F46DBA90A14924A2E2C2CB600A683C"",""assignmentId"":""0198ee6a-36fa-7ebd-b864-4d3ae0b1b6ae"",""projectId"":""0198ee3c-27ac-7803-a9ea-f3b4ad4ad678""}","https://test12345.live/?num_scrambled_semantic=8&num_scrambled_causal=4&num_scrambled_schematic=4&participantId=57F46DBA90A14924A2E2C2CB600A683C&assignmentId=0198ee6a-36fa-7ebd-b864-4d3ae0b1b6ae&projectId=0198ee3c-27ac-7803-a9ea-f3b4ad4ad678","57F46DBA90A14924A2E2C2CB600A683C-2025-08-28-02-52-44","[{""page_index"":0,""viewing_time"":11869}]","11870","","","","",""
"","","","","","instructions","2","19753","0.0-2.0","57F46DBA90A14924A2E2C2CB600A683C","57F46DBA90A14924A2E2C2CB600A683C","0198ee6a-36fa-7ebd-b864-4d3ae0b1b6ae","0198ee3c-27ac-7803-a9ea-f3b4ad4ad678","{""num_scrambled_semantic"":""8"",""num_scrambled_causal"":""4"",""num_scrambled_schematic"":""4"",""participantId"":""57F46DBA90A14924A2E2C2CB600A683C"",""assignmentId"":""0198ee6a-36fa-7ebd-b864-4d3ae0b1b6ae"",""projectId"":""0198ee3c-27ac-7803-a9ea-f3b4ad4ad678""}","https://test12345.live/?num_scrambled_semantic=8&num_scrambled_causal=4&num_scrambled_schematic=4&participantId=57F46DBA90A14924A2E2C2CB600A683C&assignmentId=0198ee6a-36fa-7ebd-b864-4d3ae0b1b6ae&projectId=0198ee3c-27ac-7803-a9ea-f3b4ad4ad678","57F46DBA90A14924A2E2C2CB600A683C-2025-08-28-02-52-44","[{""page_index"":0,""viewing_time"":3567}]","3567","","","","",""
"true","","","","","fullscreen","3","22477","0.0-3.0","57F46DBA90A14924A2E2C2CB600A683C","57F46DBA90A14924A2E2C2CB600A683C","0198ee6a-36fa-7ebd-b864-4d3ae0b1b6ae","0198ee3c-27ac-7803-a9ea-f3b4ad4ad678","{""num_scrambled_semantic"":""8"",""num_scrambled_causal"":""4"",""num_scrambled_schematic"":""4"",""participantId"":""57F46DBA90A14924A2E2C2CB600A683C"",""assignmentId"":""0198ee6a-36fa-7ebd-b864-4d3ae0b1b6ae"",""projectId"":""0198ee3c-27ac-7803-a9ea-f3b4ad4ad678""}","https://test12345.live/?num_scrambled_semantic=8&num_scrambled_causal=4&num_scrambled_schematic=4&participantId=57F46DBA90A14924A2E2C2CB600A683C&assignmentId=0198ee6a-36fa-7ebd-b864-4d3ae0b1b6ae&projectId=0198ee3c-27ac-7803-a9ea-f3b4ad4ad678","57F46DBA90A14924A2E2C2CB600A683C-2025-08-28-02-52-44","","1712","","","","",""
"","","","","","initialize-microphone","4","31955","0.0-4.0-0.0","57F46DBA90A14924A2E2C2CB600A683C","57F46DBA90A14924A2E2C2CB600A683C","0198ee6a-36fa-7ebd-b864-4d3ae0b1b6ae","0198ee3c-27ac-7803-a9ea-f3b4ad4ad678","{""num_scrambled_semantic"":""8"",""num_scrambled_causal"":""4"",""num_scrambled_schematic"":""4"",""participantId"":""57F46DBA90A14924A2E2C2CB600A683C"",""assignmentId"":""0198ee6a-36fa-7ebd-b864-4d3ae0b1b6ae"",""projectId"":""0198ee3c-27ac-7803-a9ea-f3b4ad4ad678""}","https://test12345.live/?num_scrambled_semantic=8&num_scrambled_causal=4&num_scrambled_schematic=4&participantId=57F46DBA90A14924A2E2C2CB600A683C&assignmentId=0198ee6a-36fa-7ebd-b864-4d3ae0b1b6ae&projectId=0198ee3c-27ac-7803-a9ea-f3b4ad4ad678","57F46DBA90A14924A2E2C2CB600A683C-2025-08-28-02-52-44","","","5b9e5b4ab01f0e323af4362df914ff53646b3fd24b5d9f44fe0862434ccb32c7","","","",""
"","","","","","html-audio-response","5","44122","0.0-4.0-1.0","57F46DBA90A14924A2E2C2CB600A683C","57F46DBA90A14924A2E2C2CB600A683C","0198ee6a-36fa-7ebd-b864-4d3ae0b1b6ae","0198ee3c-27ac-7803-a9ea-f3b4ad4ad678","{""num_scrambled_semantic"":""8"",""num_scrambled_causal"":""4"",""num_scrambled_schematic"":""4"",""participantId"":""57F46DBA90A14924A2E2C2CB600A683C"",""assignmentId"":""0198ee6a-36fa-7ebd-b864-4d3ae0b1b6ae"",""projectId"":""0198ee3c-27ac-7803-a9ea-f3b4ad4ad678""}","https://test12345.live/?num_scrambled_semantic=8&num_scrambled_causal=4&num_scrambled_schematic=4&participantId=57F46DBA90A14924A2E2C2CB600A683C&assignmentId=0198ee6a-36fa-7ebd-b864-4d3ae0b1b6ae&projectId=0198ee3c-27ac-7803-a9ea-f3b4ad4ad678","57F46DBA90A14924A2E2C2CB600A683C-2025-08-28-02-52-44","","6903","","<span style=""color: red; font-size: 24px""> NOW RECORDING</span>
        <p>Please test Microphone</p>","","3",""
"","","","","","html-button-response","6","47090","0.0-4.0-2.0","57F46DBA90A14924A2E2C2CB600A683C","57F46DBA90A14924A2E2C2CB600A683C","0198ee6a-36fa-7ebd-b864-4d3ae0b1b6ae","0198ee3c-27ac-7803-a9ea-f3b4ad4ad678","{""num_scrambled_semantic"":""8"",""num_scrambled_causal"":""4"",""num_scrambled_schematic"":""4"",""participantId"":""57F46DBA90A14924A2E2C2CB600A683C"",""assignmentId"":""0198ee6a-36fa-7ebd-b864-4d3ae0b1b6ae"",""projectId"":""0198ee3c-27ac-7803-a9ea-f3b4ad4ad678""}","https://test12345.live/?num_scrambled_semantic=8&num_scrambled_causal=4&num_scrambled_schematic=4&participantId=57F46DBA90A14924A2E2C2CB600A683C&assignmentId=0198ee6a-36fa-7ebd-b864-4d3ae0b1b6ae&projectId=0198ee3c-27ac-7803-a9ea-f3b4ad4ad678","57F46DBA90A14924A2E2C2CB600A683C-2025-08-28-02-52-44","","2967","","<p style=""font-size:48px; color:red;"">Is Microphone OK?</p>","1","",""
"","","","","","instructions","7","70690","0.0-5.0","57F46DBA90A14924A2E2C2CB600A683C","57F46DBA90A14924A2E2C2CB600A683C","0198ee6a-36fa-7ebd-b864-4d3ae0b1b6ae","0198ee3c-27ac-7803-a9ea-f3b4ad4ad678","{""num_scrambled_semantic"":""8"",""num_scrambled_causal"":""4"",""num_scrambled_schematic"":""4"",""participantId"":""57F46DBA90A14924A2E2C2CB600A683C"",""assignmentId"":""0198ee6a-36fa-7ebd-b864-4d3ae0b1b6ae"",""projectId"":""0198ee3c-27ac-7803-a9ea-f3b4ad4ad678""}","https://test12345.live/?num_scrambled_semantic=8&num_scrambled_causal=4&num_scrambled_schematic=4&participantId=57F46DBA90A14924A2E2C2CB600A683C&assignmentId=0198ee6a-36fa-7ebd-b864-4d3ae0b1b6ae&projectId=0198ee3c-27ac-7803-a9ea-f3b4ad4ad678","57F46DBA90A14924A2E2C2CB600A683C-2025-08-28-02-52-44","[{""page_index"":0,""viewing_time"":14399},{""page_index"":1,""viewing_time"":9200}]","23600","","","","",""
"","","","","","image-button-response","8","76692","0.0-6.0-0.0","57F46DBA90A14924A2E2C2CB600A683C","57F46DBA90A14924A2E2C2CB600A683C","0198ee6a-36fa-7ebd-b864-4d3ae0b1b6ae","0198ee3c-27ac-7803-a9ea-f3b4ad4ad678","{""num_scrambled_semantic"":""8"",""num_scrambled_causal"":""4"",""num_scrambled_schematic"":""4"",""participantId"":""57F46DBA90A14924A2E2C2CB600A683C"",""assignmentId"":""0198ee6a-36fa-7ebd-b864-4d3ae0b1b6ae"",""projectId"":""0198ee3c-27ac-7803-a9ea-f3b4ad4ad678""}","https://test12345.live/?num_scrambled_semantic=8&num_scrambled_causal=4&num_scrambled_schematic=4&participantId=57F46DBA90A14924A2E2C2CB600A683C&assignmentId=0198ee6a-36fa-7ebd-b864-4d3ae0b1b6ae&projectId=0198ee3c-27ac-7803-a9ea-f3b4ad4ad678","57F46DBA90A14924A2E2C2CB600A683C-2025-08-28-02-52-44","","null","","images/instructions/movie_0.png","null","",""
"","","","","","image-button-response","9","81203","0.0-6.0-1.0-0.0","57F46DBA90A14924A2E2C2CB600A683C","57F46DBA90A14924A2E2C2CB600A683C","0198ee6a-36fa-7ebd-b864-4d3ae0b1b6ae","0198ee3c-27ac-7803-a9ea-f3b4ad4ad678","{""num_scrambled_semantic"":""8"",""num_scrambled_causal"":""4"",""num_scrambled_schematic"":""4"",""participantId"":""57F46DBA90A14924A2E2C2CB600A683C"",""assignmentId"":""0198ee6a-36fa-7ebd-b864-4d3ae0b1b6ae"",""projectId"":""0198ee3c-27ac-7803-a9ea-f3b4ad4ad678""}","https://test12345.live/?num_scrambled_semantic=8&num_scrambled_causal=4&num_scrambled_schematic=4&participantId=57F46DBA90A14924A2E2C2CB600A683C&assignmentId=0198ee6a-36fa-7ebd-b864-4d3ae0b1b6ae&projectId=0198ee3c-27ac-7803-a9ea-f3b4ad4ad678","57F46DBA90A14924A2E2C2CB600A683C-2025-08-28-02-52-44","","null","","images/instructions/movie_1.png","null","",""
"","","","","","image-button-response","10","85206","0.0-6.0-1.0-1.0","57F46DBA90A14924A2E2C2CB600A683C","57F46DBA90A14924A2E2C2CB600A683C","0198ee6a-36fa-7ebd-b864-4d3ae0b1b6ae","0198ee3c-27ac-7803-a9ea-f3b4ad4ad678","{""num_scrambled_semantic"":""8"",""num_scrambled_causal"":""4"",""num_scrambled_schematic"":""4"",""participantId"":""57F46DBA90A14924A2E2C2CB600A683C"",""assignmentId"":""0198ee6a-36fa-7ebd-b864-4d3ae0b1b6ae"",""projectId"":""0198ee3c-27ac-7803-a9ea-f3b4ad4ad678""}","https://test12345.live/?num_scrambled_semantic=8&num_scrambled_causal=4&num_scrambled_schematic=4&participantId=57F46DBA90A14924A2E2C2CB600A683C&assignmentId=0198ee6a-36fa-7ebd-b864-4d3ae0b1b6ae&projectId=0198ee3c-27ac-7803-a9ea-f3b4ad4ad678","57F46DBA90A14924A2E2C2CB600A683C-2025-08-28-02-52-44","","null","","images/instructions/movie_1.png","null","",""
"","","","","","image-button-response","11","87013","0.0-6.0-1.0-2.0","57F46DBA90A14924A2E2C2CB600A683C","57F46DBA90A14924A2E2C2CB600A683C","0198ee6a-36fa-7ebd-b864-4d3ae0b1b6ae","0198ee3c-27ac-7803-a9ea-f3b4ad4ad678","{""num_scrambled_semantic"":""8"",""num_scrambled_causal"":""4"",""num_scrambled_schematic"":""4"",""participantId"":""57F46DBA90A14924A2E2C2CB600A683C"",""assignmentId"":""0198ee6a-36fa-7ebd-b864-4d3ae0b1b6ae"",""projectId"":""0198ee3c-27ac-7803-a9ea-f3b4ad4ad678""}","https://test12345.live/?num_scrambled_semantic=8&num_scrambled_causal=4&num_scrambled_schematic=4&participantId=57F46DBA90A14924A2E2C2CB600A683C&assignmentId=0198ee6a-36fa-7ebd-b864-4d3ae0b1b6ae&projectId=0198ee3c-27ac-7803-a9ea-f3b4ad4ad678","57F46DBA90A14924A2E2C2CB600A683C-2025-08-28-02-52-44","","null","","[]","null","",""
"","","","","","image-button-response","12","91521","0.0-6.0-1.0-0.1","57F46DBA90A14924A2E2C2CB600A683C","57F46DBA90A14924A2E2C2CB600A683C","0198ee6a-36fa-7ebd-b864-4d3ae0b1b6ae","0198ee3c-27ac-7803-a9ea-f3b4ad4ad678","{""num_scrambled_semantic"":""8"",""num_scrambled_causal"":""4"",""num_scrambled_schematic"":""4"",""participantId"":""57F46DBA90A14924A2E2C2CB600A683C"",""assignmentId"":""0198ee6a-36fa-7ebd-b864-4d3ae0b1b6ae"",""projectId"":""0198ee3c-27ac-7803-a9ea-f3b4ad4ad678""}","https://test12345.live/?num_scrambled_semantic=8&num_scrambled_causal=4&num_scrambled_schematic=4&participantId=57F46DBA90A14924A2E2C2CB600A683C&assignmentId=0198ee6a-36fa-7ebd-b864-4d3ae0b1b6ae&projectId=0198ee3c-27ac-7803-a9ea-f3b4ad4ad678","57F46DBA90A14924A2E2C2CB600A683C-2025-08-28-02-52-44","","null","","images/instructions/movie_2.png","null","",""
"","","","","","image-button-response","13","92603","0.0-6.0-1.0-1.1","57F46DBA90A14924A2E2C2CB600A683C","57F46DBA90A14924A2E2C2CB600A683C","0198ee6a-36fa-7ebd-b864-4d3ae0b1b6ae","0198ee3c-27ac-7803-a9ea-f3b4ad4ad678","{""num_scrambled_semantic"":""8"",""num_scrambled_causal"":""4"",""num_scrambled_schematic"":""4"",""participantId"":""57F46DBA90A14924A2E2C2CB600A683C"",""assignmentId"":""0198ee6a-36fa-7ebd-b864-4d3ae0b1b6ae"",""projectId"":""0198ee3c-27ac-7803-a9ea-f3b4ad4ad678""}","https://test12345.live/?num_scrambled_semantic=8&num_scrambled_causal=4&num_scrambled_schematic=4&participantId=57F46DBA90A14924A2E2C2CB600A683C&assignmentId=0198ee6a-36fa-7ebd-b864-4d3ae0b1b6ae&projectId=0198ee3c-27ac-7803-a9ea-f3b4ad4ad678","57F46DBA90A14924A2E2C2CB600A683C-2025-08-28-02-52-44","","1081","","images/instructions/movie_2.png","0","",""
"","","","","","image-button-response","14","94413","0.0-6.0-1.0-2.1","57F46DBA90A14924A2E2C2CB600A683C","57F46DBA90A14924A2E2C2CB600A683C","0198ee6a-36fa-7ebd-b864-4d3ae0b1b6ae","0198ee3c-27ac-7803-a9ea-f3b4ad4ad678","{""num_scrambled_semantic"":""8"",""num_scrambled_causal"":""4"",""num_scrambled_schematic"":""4"",""participantId"":""57F46DBA90A14924A2E2C2CB600A683C"",""assignmentId"":""0198ee6a-36fa-7ebd-b864-4d3ae0b1b6ae"",""projectId"":""0198ee3c-27ac-7803-a9ea-f3b4ad4ad678""}","https://test12345.live/?num_scrambled_semantic=8&num_scrambled_causal=4&num_scrambled_schematic=4&participantId=57F46DBA90A14924A2E2C2CB600A683C&assignmentId=0198ee6a-36fa-7ebd-b864-4d3ae0b1b6ae&projectId=0198ee3c-27ac-7803-a9ea-f3b4ad4ad678","57F46DBA90A14924A2E2C2CB600A683C-2025-08-28-02-52-44","","null","","[]","null","",""
"","","","","","image-button-response","15","98927","0.0-6.0-1.0-0.2","57F46DBA90A14924A2E2C2CB600A683C","57F46DBA90A14924A2E2C2CB600A683C","0198ee6a-36fa-7ebd-b864-4d3ae0b1b6ae","0198ee3c-27ac-7803-a9ea-f3b4ad4ad678","{""num_scrambled_semantic"":""8"",""num_scrambled_causal"":""4"",""num_scrambled_schematic"":""4"",""participantId"":""57F46DBA90A14924A2E2C2CB600A683C"",""assignmentId"":""0198ee6a-36fa-7ebd-b864-4d3ae0b1b6ae"",""projectId"":""0198ee3c-27ac-7803-a9ea-f3b4ad4ad678""}","https://test12345.live/?num_scrambled_semantic=8&num_scrambled_causal=4&num_scrambled_schematic=4&participantId=57F46DBA90A14924A2E2C2CB600A683C&assignmentId=0198ee6a-36fa-7ebd-b864-4d3ae0b1b6ae&projectId=0198ee3c-27ac-7803-a9ea-f3b4ad4ad678","57F46DBA90A14924A2E2C2CB600A683C-2025-08-28-02-52-44","","null","","images/instructions/movie_3.png","null","",""
"","","","","","image-button-response","16","99923","0.0-6.0-1.0-1.2","57F46DBA90A14924A2E2C2CB600A683C","57F46DBA90A14924A2E2C2CB600A683C","0198ee6a-36fa-7ebd-b864-4d3ae0b1b6ae","0198ee3c-27ac-7803-a9ea-f3b4ad4ad678","{""num_scrambled_semantic"":""8"",""num_scrambled_causal"":""4"",""num_scrambled_schematic"":""4"",""participantId"":""57F46DBA90A14924A2E2C2CB600A683C"",""assignmentId"":""0198ee6a-36fa-7ebd-b864-4d3ae0b1b6ae"",""projectId"":""0198ee3c-27ac-7803-a9ea-f3b4ad4ad678""}","https://test12345.live/?num_scrambled_semantic=8&num_scrambled_causal=4&num_scrambled_schematic=4&participantId=57F46DBA90A14924A2E2C2CB600A683C&assignmentId=0198ee6a-36fa-7ebd-b864-4d3ae0b1b6ae&projectId=0198ee3c-27ac-7803-a9ea-f3b4ad4ad678","57F46DBA90A14924A2E2C2CB600A683C-2025-08-28-02-52-44","","995","","images/instructions/movie_3.png","0","",""
"","","","","","image-button-response","17","101740","0.0-6.0-1.0-2.2","57F46DBA90A14924A2E2C2CB600A683C","57F46DBA90A14924A2E2C2CB600A683C","0198ee6a-36fa-7ebd-b864-4d3ae0b1b6ae","0198ee3c-27ac-7803-a9ea-f3b4ad4ad678","{""num_scrambled_semantic"":""8"",""num_scrambled_causal"":""4"",""num_scrambled_schematic"":""4"",""participantId"":""57F46DBA90A14924A2E2C2CB600A683C"",""assignmentId"":""0198ee6a-36fa-7ebd-b864-4d3ae0b1b6ae"",""projectId"":""0198ee3c-27ac-7803-a9ea-f3b4ad4ad678""}","https://test12345.live/?num_scrambled_semantic=8&num_scrambled_causal=4&num_scrambled_schematic=4&participantId=57F46DBA90A14924A2E2C2CB600A683C&assignmentId=0198ee6a-36fa-7ebd-b864-4d3ae0b1b6ae&projectId=0198ee3c-27ac-7803-a9ea-f3b4ad4ad678","57F46DBA90A14924A2E2C2CB600A683C-2025-08-28-02-52-44","","null","","[]","null","",""
"","","","","","image-button-response","18","106255","0.0-6.0-1.0-0.3","57F46DBA90A14924A2E2C2CB600A683C","57F46DBA90A14924A2E2C2CB600A683C","0198ee6a-36fa-7ebd-b864-4d3ae0b1b6ae","0198ee3c-27ac-7803-a9ea-f3b4ad4ad678","{""num_scrambled_semantic"":""8"",""num_scrambled_causal"":""4"",""num_scrambled_schematic"":""4"",""participantId"":""57F46DBA90A14924A2E2C2CB600A683C"",""assignmentId"":""0198ee6a-36fa-7ebd-b864-4d3ae0b1b6ae"",""projectId"":""0198ee3c-27ac-7803-a9ea-f3b4ad4ad678""}","https://test12345.live/?num_scrambled_semantic=8&num_scrambled_causal=4&num_scrambled_schematic=4&participantId=57F46DBA90A14924A2E2C2CB600A683C&assignmentId=0198ee6a-36fa-7ebd-b864-4d3ae0b1b6ae&projectId=0198ee3c-27ac-7803-a9ea-f3b4ad4ad678","57F46DBA90A14924A2E2C2CB600A683C-2025-08-28-02-52-44","","null","","images/instructions/movie_4.png","null","",""
"","","","","","image-button-response","19","107315","0.0-6.0-1.0-1.3","57F46DBA90A14924A2E2C2CB600A683C","57F46DBA90A14924A2E2C2CB600A683C","0198ee6a-36fa-7ebd-b864-4d3ae0b1b6ae","0198ee3c-27ac-7803-a9ea-f3b4ad4ad678","{""num_scrambled_semantic"":""8"",""num_scrambled_causal"":""4"",""num_scrambled_schematic"":""4"",""participantId"":""57F46DBA90A14924A2E2C2CB600A683C"",""assignmentId"":""0198ee6a-36fa-7ebd-b864-4d3ae0b1b6ae"",""projectId"":""0198ee3c-27ac-7803-a9ea-f3b4ad4ad678""}","https://test12345.live/?num_scrambled_semantic=8&num_scrambled_causal=4&num_scrambled_schematic=4&participantId=57F46DBA90A14924A2E2C2CB600A683C&assignmentId=0198ee6a-36fa-7ebd-b864-4d3ae0b1b6ae&projectId=0198ee3c-27ac-7803-a9ea-f3b4ad4ad678","57F46DBA90A14924A2E2C2CB600A683C-2025-08-28-02-52-44","","1059","","images/instructions/movie_4.png","0","",""
"","","","","","image-button-response","20","109130","0.0-6.0-1.0-2.3","57F46DBA90A14924A2E2C2CB600A683C","57F46DBA90A14924A2E2C2CB600A683C","0198ee6a-36fa-7ebd-b864-4d3ae0b1b6ae","0198ee3c-27ac-7803-a9ea-f3b4ad4ad678","{""num_scrambled_semantic"":""8"",""num_scrambled_causal"":""4"",""num_scrambled_schematic"":""4"",""participantId"":""57F46DBA90A14924A2E2C2CB600A683C"",""assignmentId"":""0198ee6a-36fa-7ebd-b864-4d3ae0b1b6ae"",""projectId"":""0198ee3c-27ac-7803-a9ea-f3b4ad4ad678""}","https://test12345.live/?num_scrambled_semantic=8&num_scrambled_causal=4&num_scrambled_schematic=4&participantId=57F46DBA90A14924A2E2C2CB600A683C&assignmentId=0198ee6a-36fa-7ebd-b864-4d3ae0b1b6ae&projectId=0198ee3c-27ac-7803-a9ea-f3b4ad4ad678","57F46DBA90A14924A2E2C2CB600A683C-2025-08-28-02-52-44","","null","","[]","null","",""
"","","","","","instructions","21","118835","0.0-7.0","57F46DBA90A14924A2E2C2CB600A683C","57F46DBA90A14924A2E2C2CB600A683C","0198ee6a-36fa-7ebd-b864-4d3ae0b1b6ae","0198ee3c-27ac-7803-a9ea-f3b4ad4ad678","{""num_scrambled_semantic"":""8"",""num_scrambled_causal"":""4"",""num_scrambled_schematic"":""4"",""participantId"":""57F46DBA90A14924A2E2C2CB600A683C"",""assignmentId"":""0198ee6a-36fa-7ebd-b864-4d3ae0b1b6ae"",""projectId"":""0198ee3c-27ac-7803-a9ea-f3b4ad4ad678""}","https://test12345.live/?num_scrambled_semantic=8&num_scrambled_causal=4&num_scrambled_schematic=4&participantId=57F46DBA90A14924A2E2C2CB600A683C&assignmentId=0198ee6a-36fa-7ebd-b864-4d3ae0b1b6ae&projectId=0198ee3c-27ac-7803-a9ea-f3b4ad4ad678","57F46DBA90A14924A2E2C2CB600A683C-2025-08-28-02-52-44","[{""page_index"":0,""viewing_time"":9704}]","9705","","","","",""
"","","","","","html-audio-response","22","130172","0.0-8.0","57F46DBA90A14924A2E2C2CB600A683C","57F46DBA90A14924A2E2C2CB600A683C","0198ee6a-36fa-7ebd-b864-4d3ae0b1b6ae","0198ee3c-27ac-7803-a9ea-f3b4ad4ad678","{""num_scrambled_semantic"":""8"",""num_scrambled_causal"":""4"",""num_scrambled_schematic"":""4"",""participantId"":""57F46DBA90A14924A2E2C2CB600A683C"",""assignmentId"":""0198ee6a-36fa-7ebd-b864-4d3ae0b1b6ae"",""projectId"":""0198ee3c-27ac-7803-a9ea-f3b4ad4ad678""}","https://test12345.live/?num_scrambled_semantic=8&num_scrambled_causal=4&num_scrambled_schematic=4&participantId=57F46DBA90A14924A2E2C2CB600A683C&assignmentId=0198ee6a-36fa-7ebd-b864-4d3ae0b1b6ae&projectId=0198ee3c-27ac-7803-a9ea-f3b4ad4ad678","57F46DBA90A14924A2E2C2CB600A683C-2025-08-28-02-52-44","","9583","","[""<span style=\""color: red; font-size: 24px\""> NOW RECORDING</span><p>Please say out loud all the images you saw, in the order of the story they create. Try to recall the sequence of events as they appeared in the story, not necessarily the order they were presented on the screen.</p>""]","","1",""
"","","","","","instructions","23","133172","0.0-9.0","57F46DBA90A14924A2E2C2CB600A683C","57F46DBA90A14924A2E2C2CB600A683C","0198ee6a-36fa-7ebd-b864-4d3ae0b1b6ae","0198ee3c-27ac-7803-a9ea-f3b4ad4ad678","{""num_scrambled_semantic"":""8"",""num_scrambled_causal"":""4"",""num_scrambled_schematic"":""4"",""participantId"":""57F46DBA90A14924A2E2C2CB600A683C"",""assignmentId"":""0198ee6a-36fa-7ebd-b864-4d3ae0b1b6ae"",""projectId"":""0198ee3c-27ac-7803-a9ea-f3b4ad4ad678""}","https://test12345.live/?num_scrambled_semantic=8&num_scrambled_causal=4&num_scrambled_schematic=4&participantId=57F46DBA90A14924A2E2C2CB600A683C&assignmentId=0198ee6a-36fa-7ebd-b864-4d3ae0b1b6ae&projectId=0198ee3c-27ac-7803-a9ea-f3b4ad4ad678","57F46DBA90A14924A2E2C2CB600A683C-2025-08-28-02-52-44","[{""page_index"":0,""viewing_time"":2998}]","2998","","","","",""
"","","","","","image-button-response","24","139174","0.0-10.0-0.0","57F46DBA90A14924A2E2C2CB600A683C","57F46DBA90A14924A2E2C2CB600A683C","0198ee6a-36fa-7ebd-b864-4d3ae0b1b6ae","0198ee3c-27ac-7803-a9ea-f3b4ad4ad678","{""num_scrambled_semantic"":""8"",""num_scrambled_causal"":""4"",""num_scrambled_schematic"":""4"",""participantId"":""57F46DBA90A14924A2E2C2CB600A683C"",""assignmentId"":""0198ee6a-36fa-7ebd-b864-4d3ae0b1b6ae"",""projectId"":""0198ee3c-27ac-7803-a9ea-f3b4ad4ad678""}","https://test12345.live/?num_scrambled_semantic=8&num_scrambled_causal=4&num_scrambled_schematic=4&participantId=57F46DBA90A14924A2E2C2CB600A683C&assignmentId=0198ee6a-36fa-7ebd-b864-4d3ae0b1b6ae&projectId=0198ee3c-27ac-7803-a9ea-f3b4ad4ad678","57F46DBA90A14924A2E2C2CB600A683C-2025-08-28-02-52-44","","null","","images/semantic_sequence/visiting_cities_semantic/visiting_cities_semantic_0.png","null","",""
"","","","","","image-button-response","25","143687","0.0-10.0-1.0-0.0","57F46DBA90A14924A2E2C2CB600A683C","57F46DBA90A14924A2E2C2CB600A683C","0198ee6a-36fa-7ebd-b864-4d3ae0b1b6ae","0198ee3c-27ac-7803-a9ea-f3b4ad4ad678","{""num_scrambled_semantic"":""8"",""num_scrambled_causal"":""4"",""num_scrambled_schematic"":""4"",""participantId"":""57F46DBA90A14924A2E2C2CB600A683C"",""assignmentId"":""0198ee6a-36fa-7ebd-b864-4d3ae0b1b6ae"",""projectId"":""0198ee3c-27ac-7803-a9ea-f3b4ad4ad678""}","https://test12345.live/?num_scrambled_semantic=8&num_scrambled_causal=4&num_scrambled_schematic=4&participantId=57F46DBA90A14924A2E2C2CB600A683C&assignmentId=0198ee6a-36fa-7ebd-b864-4d3ae0b1b6ae&projectId=0198ee3c-27ac-7803-a9ea-f3b4ad4ad678","57F46DBA90A14924A2E2C2CB600A683C-2025-08-28-02-52-44","","null","","images/semantic_sequence/visiting_cities_semantic/visiting_cities_semantic_5.png","null","",""
"","","","","","image-button-response","26","145780","0.0-10.0-1.0-1.0","57F46DBA90A14924A2E2C2CB600A683C","57F46DBA90A14924A2E2C2CB600A683C","0198ee6a-36fa-7ebd-b864-4d3ae0b1b6ae","0198ee3c-27ac-7803-a9ea-f3b4ad4ad678","{""num_scrambled_semantic"":""8"",""num_scrambled_causal"":""4"",""num_scrambled_schematic"":""4"",""participantId"":""57F46DBA90A14924A2E2C2CB600A683C"",""assignmentId"":""0198ee6a-36fa-7ebd-b864-4d3ae0b1b6ae"",""projectId"":""0198ee3c-27ac-7803-a9ea-f3b4ad4ad678""}","https://test12345.live/?num_scrambled_semantic=8&num_scrambled_causal=4&num_scrambled_schematic=4&participantId=57F46DBA90A14924A2E2C2CB600A683C&assignmentId=0198ee6a-36fa-7ebd-b864-4d3ae0b1b6ae&projectId=0198ee3c-27ac-7803-a9ea-f3b4ad4ad678","57F46DBA90A14924A2E2C2CB600A683C-2025-08-28-02-52-44","","2092","","images/semantic_sequence/visiting_cities_semantic/visiting_cities_semantic_5.png","1","",""
"","","","","","image-button-response","27","147591","0.0-10.0-1.0-2.0","57F46DBA90A14924A2E2C2CB600A683C","57F46DBA90A14924A2E2C2CB600A683C","0198ee6a-36fa-7ebd-b864-4d3ae0b1b6ae","0198ee3c-27ac-7803-a9ea-f3b4ad4ad678","{""num_scrambled_semantic"":""8"",""num_scrambled_causal"":""4"",""num_scrambled_schematic"":""4"",""participantId"":""57F46DBA90A14924A2E2C2CB600A683C"",""assignmentId"":""0198ee6a-36fa-7ebd-b864-4d3ae0b1b6ae"",""projectId"":""0198ee3c-27ac-7803-a9ea-f3b4ad4ad678""}","https://test12345.live/?num_scrambled_semantic=8&num_scrambled_causal=4&num_scrambled_schematic=4&participantId=57F46DBA90A14924A2E2C2CB600A683C&assignmentId=0198ee6a-36fa-7ebd-b864-4d3ae0b1b6ae&projectId=0198ee3c-27ac-7803-a9ea-f3b4ad4ad678","57F46DBA90A14924A2E2C2CB600A683C-2025-08-28-02-52-44","","null","","[]","null","",""
"","","","","","image-button-response","28","152106","0.0-10.0-1.0-0.1","57F46DBA90A14924A2E2C2CB600A683C","57F46DBA90A14924A2E2C2CB600A683C","0198ee6a-36fa-7ebd-b864-4d3ae0b1b6ae","0198ee3c-27ac-7803-a9ea-f3b4ad4ad678","{""num_scrambled_semantic"":""8"",""num_scrambled_causal"":""4"",""num_scrambled_schematic"":""4"",""participantId"":""57F46DBA90A14924A2E2C2CB600A683C"",""assignmentId"":""0198ee6a-36fa-7ebd-b864-4d3ae0b1b6ae"",""projectId"":""0198ee3c-27ac-7803-a9ea-f3b4ad4ad678""}","https://test12345.live/?num_scrambled_semantic=8&num_scrambled_causal=4&num_scrambled_schematic=4&participantId=57F46DBA90A14924A2E2C2CB600A683C&assignmentId=0198ee6a-36fa-7ebd-b864-4d3ae0b1b6ae&projectId=0198ee3c-27ac-7803-a9ea-f3b4ad4ad678","57F46DBA90A14924A2E2C2CB600A683C-2025-08-28-02-52-44","","null","","images/semantic_sequence/visiting_cities_semantic/visiting_cities_semantic_4.png","null","",""
"","","","","","image-button-response","29","153892","0.0-10.0-1.0-1.1","57F46DBA90A14924A2E2C2CB600A683C","57F46DBA90A14924A2E2C2CB600A683C","0198ee6a-36fa-7ebd-b864-4d3ae0b1b6ae","0198ee3c-27ac-7803-a9ea-f3b4ad4ad678","{""num_scrambled_semantic"":""8"",""num_scrambled_causal"":""4"",""num_scrambled_schematic"":""4"",""participantId"":""57F46DBA90A14924A2E2C2CB600A683C"",""assignmentId"":""0198ee6a-36fa-7ebd-b864-4d3ae0b1b6ae"",""projectId"":""0198ee3c-27ac-7803-a9ea-f3b4ad4ad678""}","https://test12345.live/?num_scrambled_semantic=8&num_scrambled_causal=4&num_scrambled_schematic=4&participantId=57F46DBA90A14924A2E2C2CB600A683C&assignmentId=0198ee6a-36fa-7ebd-b864-4d3ae0b1b6ae&projectId=0198ee3c-27ac-7803-a9ea-f3b4ad4ad678","57F46DBA90A14924A2E2C2CB600A683C-2025-08-28-02-52-44","","1785","","images/semantic_sequence/visiting_cities_semantic/visiting_cities_semantic_4.png","1","",""
"","","","","","image-button-response","30","155701","0.0-10.0-1.0-2.1","57F46DBA90A14924A2E2C2CB600A683C","57F46DBA90A14924A2E2C2CB600A683C","0198ee6a-36fa-7ebd-b864-4d3ae0b1b6ae","0198ee3c-27ac-7803-a9ea-f3b4ad4ad678","{""num_scrambled_semantic"":""8"",""num_scrambled_causal"":""4"",""num_scrambled_schematic"":""4"",""participantId"":""57F46DBA90A14924A2E2C2CB600A683C"",""assignmentId"":""0198ee6a-36fa-7ebd-b864-4d3ae0b1b6ae"",""projectId"":""0198ee3c-27ac-7803-a9ea-f3b4ad4ad678""}","https://test12345.live/?num_scrambled_semantic=8&num_scrambled_causal=4&num_scrambled_schematic=4&participantId=57F46DBA90A14924A2E2C2CB600A683C&assignmentId=0198ee6a-36fa-7ebd-b864-4d3ae0b1b6ae&projectId=0198ee3c-27ac-7803-a9ea-f3b4ad4ad678","57F46DBA90A14924A2E2C2CB600A683C-2025-08-28-02-52-44","","null","","[]","null","",""
"","","","","","image-button-response","31","160204","0.0-10.0-1.0-0.2","57F46DBA90A14924A2E2C2CB600A683C","57F46DBA90A14924A2E2C2CB600A683C","0198ee6a-36fa-7ebd-b864-4d3ae0b1b6ae","0198ee3c-27ac-7803-a9ea-f3b4ad4ad678","{""num_scrambled_semantic"":""8"",""num_scrambled_causal"":""4"",""num_scrambled_schematic"":""4"",""participantId"":""57F46DBA90A14924A2E2C2CB600A683C"",""assignmentId"":""0198ee6a-36fa-7ebd-b864-4d3ae0b1b6ae"",""projectId"":""0198ee3c-27ac-7803-a9ea-f3b4ad4ad678""}","https://test12345.live/?num_scrambled_semantic=8&num_scrambled_causal=4&num_scrambled_schematic=4&participantId=57F46DBA90A14924A2E2C2CB600A683C&assignmentId=0198ee6a-36fa-7ebd-b864-4d3ae0b1b6ae&projectId=0198ee3c-27ac-7803-a9ea-f3b4ad4ad678","57F46DBA90A14924A2E2C2CB600A683C-2025-08-28-02-52-44","","null","","images/semantic_sequence/visiting_cities_semantic/visiting_cities_semantic_8.png","null","",""
"","","","","","image-button-response","32","161268","0.0-10.0-1.0-1.2","57F46DBA90A14924A2E2C2CB600A683C","57F46DBA90A14924A2E2C2CB600A683C","0198ee6a-36fa-7ebd-b864-4d3ae0b1b6ae","0198ee3c-27ac-7803-a9ea-f3b4ad4ad678","{""num_scrambled_semantic"":""8"",""num_scrambled_causal"":""4"",""num_scrambled_schematic"":""4"",""participantId"":""57F46DBA90A14924A2E2C2CB600A683C"",""assignmentId"":""0198ee6a-36fa-7ebd-b864-4d3ae0b1b6ae"",""projectId"":""0198ee3c-27ac-7803-a9ea-f3b4ad4ad678""}","https://test12345.live/?num_scrambled_semantic=8&num_scrambled_causal=4&num_scrambled_schematic=4&participantId=57F46DBA90A14924A2E2C2CB600A683C&assignmentId=0198ee6a-36fa-7ebd-b864-4d3ae0b1b6ae&projectId=0198ee3c-27ac-7803-a9ea-f3b4ad4ad678","57F46DBA90A14924A2E2C2CB600A683C-2025-08-28-02-52-44","","1064","","images/semantic_sequence/visiting_cities_semantic/visiting_cities_semantic_8.png","0","",""
"","","","","","image-button-response","33","163081","0.0-10.0-1.0-2.2","57F46DBA90A14924A2E2C2CB600A683C","57F46DBA90A14924A2E2C2CB600A683C","0198ee6a-36fa-7ebd-b864-4d3ae0b1b6ae","0198ee3c-27ac-7803-a9ea-f3b4ad4ad678","{""num_scrambled_semantic"":""8"",""num_scrambled_causal"":""4"",""num_scrambled_schematic"":""4"",""participantId"":""57F46DBA90A14924A2E2C2CB600A683C"",""assignmentId"":""0198ee6a-36fa-7ebd-b864-4d3ae0b1b6ae"",""projectId"":""0198ee3c-27ac-7803-a9ea-f3b4ad4ad678""}","https://test12345.live/?num_scrambled_semantic=8&num_scrambled_causal=4&num_scrambled_schematic=4&participantId=57F46DBA90A14924A2E2C2CB600A683C&assignmentId=0198ee6a-36fa-7ebd-b864-4d3ae0b1b6ae&projectId=0198ee3c-27ac-7803-a9ea-f3b4ad4ad678","57F46DBA90A14924A2E2C2CB600A683C-2025-08-28-02-52-44","","null","","[]","null","",""
"","","","","","image-button-response","34","167583","0.0-10.0-1.0-0.3","57F46DBA90A14924A2E2C2CB600A683C","57F46DBA90A14924A2E2C2CB600A683C","0198ee6a-36fa-7ebd-b864-4d3ae0b1b6ae","0198ee3c-27ac-7803-a9ea-f3b4ad4ad678","{""num_scrambled_semantic"":""8"",""num_scrambled_causal"":""4"",""num_scrambled_schematic"":""4"",""participantId"":""57F46DBA90A14924A2E2C2CB600A683C"",""assignmentId"":""0198ee6a-36fa-7ebd-b864-4d3ae0b1b6ae"",""projectId"":""0198ee3c-27ac-7803-a9ea-f3b4ad4ad678""}","https://test12345.live/?num_scrambled_semantic=8&num_scrambled_causal=4&num_scrambled_schematic=4&participantId=57F46DBA90A14924A2E2C2CB600A683C&assignmentId=0198ee6a-36fa-7ebd-b864-4d3ae0b1b6ae&projectId=0198ee3c-27ac-7803-a9ea-f3b4ad4ad678","57F46DBA90A14924A2E2C2CB600A683C-2025-08-28-02-52-44","","null","","images/semantic_sequence/visiting_cities_semantic/visiting_cities_semantic_2.png","null","",""
"","","","","","image-button-response","35","169733","0.0-10.0-1.0-1.3","57F46DBA90A14924A2E2C2CB600A683C","57F46DBA90A14924A2E2C2CB600A683C","0198ee6a-36fa-7ebd-b864-4d3ae0b1b6ae","0198ee3c-27ac-7803-a9ea-f3b4ad4ad678","{""num_scrambled_semantic"":""8"",""num_scrambled_causal"":""4"",""num_scrambled_schematic"":""4"",""participantId"":""57F46DBA90A14924A2E2C2CB600A683C"",""assignmentId"":""0198ee6a-36fa-7ebd-b864-4d3ae0b1b6ae"",""projectId"":""0198ee3c-27ac-7803-a9ea-f3b4ad4ad678""}","https://test12345.live/?num_scrambled_semantic=8&num_scrambled_causal=4&num_scrambled_schematic=4&participantId=57F46DBA90A14924A2E2C2CB600A683C&assignmentId=0198ee6a-36fa-7ebd-b864-4d3ae0b1b6ae&projectId=0198ee3c-27ac-7803-a9ea-f3b4ad4ad678","57F46DBA90A14924A2E2C2CB600A683C-2025-08-28-02-52-44","","2149","","images/semantic_sequence/visiting_cities_semantic/visiting_cities_semantic_2.png","1","",""
"","","","","","image-button-response","36","171547","0.0-10.0-1.0-2.3","57F46DBA90A14924A2E2C2CB600A683C","57F46DBA90A14924A2E2C2CB600A683C","0198ee6a-36fa-7ebd-b864-4d3ae0b1b6ae","0198ee3c-27ac-7803-a9ea-f3b4ad4ad678","{""num_scrambled_semantic"":""8"",""num_scrambled_causal"":""4"",""num_scrambled_schematic"":""4"",""participantId"":""57F46DBA90A14924A2E2C2CB600A683C"",""assignmentId"":""0198ee6a-36fa-7ebd-b864-4d3ae0b1b6ae"",""projectId"":""0198ee3c-27ac-7803-a9ea-f3b4ad4ad678""}","https://test12345.live/?num_scrambled_semantic=8&num_scrambled_causal=4&num_scrambled_schematic=4&participantId=57F46DBA90A14924A2E2C2CB600A683C&assignmentId=0198ee6a-36fa-7ebd-b864-4d3ae0b1b6ae&projectId=0198ee3c-27ac-7803-a9ea-f3b4ad4ad678","57F46DBA90A14924A2E2C2CB600A683C-2025-08-28-02-52-44","","null","","[]","null","",""
"","","","","","image-button-response","37","176054","0.0-10.0-1.0-0.4","57F46DBA90A14924A2E2C2CB600A683C","57F46DBA90A14924A2E2C2CB600A683C","0198ee6a-36fa-7ebd-b864-4d3ae0b1b6ae","0198ee3c-27ac-7803-a9ea-f3b4ad4ad678","{""num_scrambled_semantic"":""8"",""num_scrambled_causal"":""4"",""num_scrambled_schematic"":""4"",""participantId"":""57F46DBA90A14924A2E2C2CB600A683C"",""assignmentId"":""0198ee6a-36fa-7ebd-b864-4d3ae0b1b6ae"",""projectId"":""0198ee3c-27ac-7803-a9ea-f3b4ad4ad678""}","https://test12345.live/?num_scrambled_semantic=8&num_scrambled_causal=4&num_scrambled_schematic=4&participantId=57F46DBA90A14924A2E2C2CB600A683C&assignmentId=0198ee6a-36fa-7ebd-b864-4d3ae0b1b6ae&projectId=0198ee3c-27ac-7803-a9ea-f3b4ad4ad678","57F46DBA90A14924A2E2C2CB600A683C-2025-08-28-02-52-44","","null","","images/semantic_sequence/visiting_cities_semantic/visiting_cities_semantic_1.png","null","",""
"","","","","","image-button-response","38","177557","0.0-10.0-1.0-1.4","57F46DBA90A14924A2E2C2CB600A683C","57F46DBA90A14924A2E2C2CB600A683C","0198ee6a-36fa-7ebd-b864-4d3ae0b1b6ae","0198ee3c-27ac-7803-a9ea-f3b4ad4ad678","{""num_scrambled_semantic"":""8"",""num_scrambled_causal"":""4"",""num_scrambled_schematic"":""4"",""participantId"":""57F46DBA90A14924A2E2C2CB600A683C"",""assignmentId"":""0198ee6a-36fa-7ebd-b864-4d3ae0b1b6ae"",""projectId"":""0198ee3c-27ac-7803-a9ea-f3b4ad4ad678""}","https://test12345.live/?num_scrambled_semantic=8&num_scrambled_causal=4&num_scrambled_schematic=4&participantId=57F46DBA90A14924A2E2C2CB600A683C&assignmentId=0198ee6a-36fa-7ebd-b864-4d3ae0b1b6ae&projectId=0198ee3c-27ac-7803-a9ea-f3b4ad4ad678","57F46DBA90A14924A2E2C2CB600A683C-2025-08-28-02-52-44","","1502","","images/semantic_sequence/visiting_cities_semantic/visiting_cities_semantic_1.png","0","",""
"","","","","","image-button-response","39","179367","0.0-10.0-1.0-2.4","57F46DBA90A14924A2E2C2CB600A683C","57F46DBA90A14924A2E2C2CB600A683C","0198ee6a-36fa-7ebd-b864-4d3ae0b1b6ae","0198ee3c-27ac-7803-a9ea-f3b4ad4ad678","{""num_scrambled_semantic"":""8"",""num_scrambled_causal"":""4"",""num_scrambled_schematic"":""4"",""participantId"":""57F46DBA90A14924A2E2C2CB600A683C"",""assignmentId"":""0198ee6a-36fa-7ebd-b864-4d3ae0b1b6ae"",""projectId"":""0198ee3c-27ac-7803-a9ea-f3b4ad4ad678""}","https://test12345.live/?num_scrambled_semantic=8&num_scrambled_causal=4&num_scrambled_schematic=4&participantId=57F46DBA90A14924A2E2C2CB600A683C&assignmentId=0198ee6a-36fa-7ebd-b864-4d3ae0b1b6ae&projectId=0198ee3c-27ac-7803-a9ea-f3b4ad4ad678","57F46DBA90A14924A2E2C2CB600A683C-2025-08-28-02-52-44","","null","","[]","null","",""
"","","","","","image-button-response","40","183876","0.0-10.0-1.0-0.5","57F46DBA90A14924A2E2C2CB600A683C","57F46DBA90A14924A2E2C2CB600A683C","0198ee6a-36fa-7ebd-b864-4d3ae0b1b6ae","0198ee3c-27ac-7803-a9ea-f3b4ad4ad678","{""num_scrambled_semantic"":""8"",""num_scrambled_causal"":""4"",""num_scrambled_schematic"":""4"",""participantId"":""57F46DBA90A14924A2E2C2CB600A683C"",""assignmentId"":""0198ee6a-36fa-7ebd-b864-4d3ae0b1b6ae"",""projectId"":""0198ee3c-27ac-7803-a9ea-f3b4ad4ad678""}","https://test12345.live/?num_scrambled_semantic=8&num_scrambled_causal=4&num_scrambled_schematic=4&participantId=57F46DBA90A14924A2E2C2CB600A683C&assignmentId=0198ee6a-36fa-7ebd-b864-4d3ae0b1b6ae&projectId=0198ee3c-27ac-7803-a9ea-f3b4ad4ad678","57F46DBA90A14924A2E2C2CB600A683C-2025-08-28-02-52-44","","null","","images/semantic_sequence/visiting_cities_semantic/visiting_cities_semantic_6.png","null","",""
"","","","","","image-button-response","41","184869","0.0-10.0-1.0-1.5","57F46DBA90A14924A2E2C2CB600A683C","57F46DBA90A14924A2E2C2CB600A683C","0198ee6a-36fa-7ebd-b864-4d3ae0b1b6ae","0198ee3c-27ac-7803-a9ea-f3b4ad4ad678","{""num_scrambled_semantic"":""8"",""num_scrambled_causal"":""4"",""num_scrambled_schematic"":""4"",""participantId"":""57F46DBA90A14924A2E2C2CB600A683C"",""assignmentId"":""0198ee6a-36fa-7ebd-b864-4d3ae0b1b6ae"",""projectId"":""0198ee3c-27ac-7803-a9ea-f3b4ad4ad678""}","https://test12345.live/?num_scrambled_semantic=8&num_scrambled_causal=4&num_scrambled_schematic=4&participantId=57F46DBA90A14924A2E2C2CB600A683C&assignmentId=0198ee6a-36fa-7ebd-b864-4d3ae0b1b6ae&projectId=0198ee3c-27ac-7803-a9ea-f3b4ad4ad678","57F46DBA90A14924A2E2C2CB600A683C-2025-08-28-02-52-44","","992","","images/semantic_sequence/visiting_cities_semantic/visiting_cities_semantic_6.png","1","",""
"","","","","","image-button-response","42","186683","0.0-10.0-1.0-2.5","57F46DBA90A14924A2E2C2CB600A683C","57F46DBA90A14924A2E2C2CB600A683C","0198ee6a-36fa-7ebd-b864-4d3ae0b1b6ae","0198ee3c-27ac-7803-a9ea-f3b4ad4ad678","{""num_scrambled_semantic"":""8"",""num_scrambled_causal"":""4"",""num_scrambled_schematic"":""4"",""participantId"":""57F46DBA90A14924A2E2C2CB600A683C"",""assignmentId"":""0198ee6a-36fa-7ebd-b864-4d3ae0b1b6ae"",""projectId"":""0198ee3c-27ac-7803-a9ea-f3b4ad4ad678""}","https://test12345.live/?num_scrambled_semantic=8&num_scrambled_causal=4&num_scrambled_schematic=4&participantId=57F46DBA90A14924A2E2C2CB600A683C&assignmentId=0198ee6a-36fa-7ebd-b864-4d3ae0b1b6ae&projectId=0198ee3c-27ac-7803-a9ea-f3b4ad4ad678","57F46DBA90A14924A2E2C2CB600A683C-2025-08-28-02-52-44","","null","","[]","null","",""
"","","","","","image-button-response","43","191188","0.0-10.0-1.0-0.6","57F46DBA90A14924A2E2C2CB600A683C","57F46DBA90A14924A2E2C2CB600A683C","0198ee6a-36fa-7ebd-b864-4d3ae0b1b6ae","0198ee3c-27ac-7803-a9ea-f3b4ad4ad678","{""num_scrambled_semantic"":""8"",""num_scrambled_causal"":""4"",""num_scrambled_schematic"":""4"",""participantId"":""57F46DBA90A14924A2E2C2CB600A683C"",""assignmentId"":""0198ee6a-36fa-7ebd-b864-4d3ae0b1b6ae"",""projectId"":""0198ee3c-27ac-7803-a9ea-f3b4ad4ad678""}","https://test12345.live/?num_scrambled_semantic=8&num_scrambled_causal=4&num_scrambled_schematic=4&participantId=57F46DBA90A14924A2E2C2CB600A683C&assignmentId=0198ee6a-36fa-7ebd-b864-4d3ae0b1b6ae&projectId=0198ee3c-27ac-7803-a9ea-f3b4ad4ad678","57F46DBA90A14924A2E2C2CB600A683C-2025-08-28-02-52-44","","null","","images/semantic_sequence/visiting_cities_semantic/visiting_cities_semantic_9.png","null","",""
"","","","","","image-button-response","44","193350","0.0-10.0-1.0-1.6","57F46DBA90A14924A2E2C2CB600A683C","57F46DBA90A14924A2E2C2CB600A683C","0198ee6a-36fa-7ebd-b864-4d3ae0b1b6ae","0198ee3c-27ac-7803-a9ea-f3b4ad4ad678","{""num_scrambled_semantic"":""8"",""num_scrambled_causal"":""4"",""num_scrambled_schematic"":""4"",""participantId"":""57F46DBA90A14924A2E2C2CB600A683C"",""assignmentId"":""0198ee6a-36fa-7ebd-b864-4d3ae0b1b6ae"",""projectId"":""0198ee3c-27ac-7803-a9ea-f3b4ad4ad678""}","https://test12345.live/?num_scrambled_semantic=8&num_scrambled_causal=4&num_scrambled_schematic=4&participantId=57F46DBA90A14924A2E2C2CB600A683C&assignmentId=0198ee6a-36fa-7ebd-b864-4d3ae0b1b6ae&projectId=0198ee3c-27ac-7803-a9ea-f3b4ad4ad678","57F46DBA90A14924A2E2C2CB600A683C-2025-08-28-02-52-44","","2161","","images/semantic_sequence/visiting_cities_semantic/visiting_cities_semantic_9.png","0","",""
"","","","","","image-button-response","45","195158","0.0-10.0-1.0-2.6","57F46DBA90A14924A2E2C2CB600A683C","57F46DBA90A14924A2E2C2CB600A683C","0198ee6a-36fa-7ebd-b864-4d3ae0b1b6ae","0198ee3c-27ac-7803-a9ea-f3b4ad4ad678","{""num_scrambled_semantic"":""8"",""num_scrambled_causal"":""4"",""num_scrambled_schematic"":""4"",""participantId"":""57F46DBA90A14924A2E2C2CB600A683C"",""assignmentId"":""0198ee6a-36fa-7ebd-b864-4d3ae0b1b6ae"",""projectId"":""0198ee3c-27ac-7803-a9ea-f3b4ad4ad678""}","https://test12345.live/?num_scrambled_semantic=8&num_scrambled_causal=4&num_scrambled_schematic=4&participantId=57F46DBA90A14924A2E2C2CB600A683C&assignmentId=0198ee6a-36fa-7ebd-b864-4d3ae0b1b6ae&projectId=0198ee3c-27ac-7803-a9ea-f3b4ad4ad678","57F46DBA90A14924A2E2C2CB600A683C-2025-08-28-02-52-44","","null","","[]","null","",""
"","","","","","image-button-response","46","199671","0.0-10.0-1.0-0.7","57F46DBA90A14924A2E2C2CB600A683C","57F46DBA90A14924A2E2C2CB600A683C","0198ee6a-36fa-7ebd-b864-4d3ae0b1b6ae","0198ee3c-27ac-7803-a9ea-f3b4ad4ad678","{""num_scrambled_semantic"":""8"",""num_scrambled_causal"":""4"",""num_scrambled_schematic"":""4"",""participantId"":""57F46DBA90A14924A2E2C2CB600A683C"",""assignmentId"":""0198ee6a-36fa-7ebd-b864-4d3ae0b1b6ae"",""projectId"":""0198ee3c-27ac-7803-a9ea-f3b4ad4ad678""}","https://test12345.live/?num_scrambled_semantic=8&num_scrambled_causal=4&num_scrambled_schematic=4&participantId=57F46DBA90A14924A2E2C2CB600A683C&assignmentId=0198ee6a-36fa-7ebd-b864-4d3ae0b1b6ae&projectId=0198ee3c-27ac-7803-a9ea-f3b4ad4ad678","57F46DBA90A14924A2E2C2CB600A683C-2025-08-28-02-52-44","","null","","images/semantic_sequence/visiting_cities_semantic/visiting_cities_semantic_3.png","null","",""
"","","","","","image-button-response","47","200925","0.0-10.0-1.0-1.7","57F46DBA90A14924A2E2C2CB600A683C","57F46DBA90A14924A2E2C2CB600A683C","0198ee6a-36fa-7ebd-b864-4d3ae0b1b6ae","0198ee3c-27ac-7803-a9ea-f3b4ad4ad678","{""num_scrambled_semantic"":""8"",""num_scrambled_causal"":""4"",""num_scrambled_schematic"":""4"",""participantId"":""57F46DBA90A14924A2E2C2CB600A683C"",""assignmentId"":""0198ee6a-36fa-7ebd-b864-4d3ae0b1b6ae"",""projectId"":""0198ee3c-27ac-7803-a9ea-f3b4ad4ad678""}","https://test12345.live/?num_scrambled_semantic=8&num_scrambled_causal=4&num_scrambled_schematic=4&participantId=57F46DBA90A14924A2E2C2CB600A683C&assignmentId=0198ee6a-36fa-7ebd-b864-4d3ae0b1b6ae&projectId=0198ee3c-27ac-7803-a9ea-f3b4ad4ad678","57F46DBA90A14924A2E2C2CB600A683C-2025-08-28-02-52-44","","1254","","images/semantic_sequence/visiting_cities_semantic/visiting_cities_semantic_3.png","1","",""
"","","","","","image-button-response","48","202739","0.0-10.0-1.0-2.7","57F46DBA90A14924A2E2C2CB600A683C","57F46DBA90A14924A2E2C2CB600A683C","0198ee6a-36fa-7ebd-b864-4d3ae0b1b6ae","0198ee3c-27ac-7803-a9ea-f3b4ad4ad678","{""num_scrambled_semantic"":""8"",""num_scrambled_causal"":""4"",""num_scrambled_schematic"":""4"",""participantId"":""57F46DBA90A14924A2E2C2CB600A683C"",""assignmentId"":""0198ee6a-36fa-7ebd-b864-4d3ae0b1b6ae"",""projectId"":""0198ee3c-27ac-7803-a9ea-f3b4ad4ad678""}","https://test12345.live/?num_scrambled_semantic=8&num_scrambled_causal=4&num_scrambled_schematic=4&participantId=57F46DBA90A14924A2E2C2CB600A683C&assignmentId=0198ee6a-36fa-7ebd-b864-4d3ae0b1b6ae&projectId=0198ee3c-27ac-7803-a9ea-f3b4ad4ad678","57F46DBA90A14924A2E2C2CB600A683C-2025-08-28-02-52-44","","null","","[]","null","",""
"","","","","","image-button-response","49","207242","0.0-10.0-1.0-0.8","57F46DBA90A14924A2E2C2CB600A683C","57F46DBA90A14924A2E2C2CB600A683C","0198ee6a-36fa-7ebd-b864-4d3ae0b1b6ae","0198ee3c-27ac-7803-a9ea-f3b4ad4ad678","{""num_scrambled_semantic"":""8"",""num_scrambled_causal"":""4"",""num_scrambled_schematic"":""4"",""participantId"":""57F46DBA90A14924A2E2C2CB600A683C"",""assignmentId"":""0198ee6a-36fa-7ebd-b864-4d3ae0b1b6ae"",""projectId"":""0198ee3c-27ac-7803-a9ea-f3b4ad4ad678""}","https://test12345.live/?num_scrambled_semantic=8&num_scrambled_causal=4&num_scrambled_schematic=4&participantId=57F46DBA90A14924A2E2C2CB600A683C&assignmentId=0198ee6a-36fa-7ebd-b864-4d3ae0b1b6ae&projectId=0198ee3c-27ac-7803-a9ea-f3b4ad4ad678","57F46DBA90A14924A2E2C2CB600A683C-2025-08-28-02-52-44","","null","","images/semantic_sequence/visiting_cities_semantic/visiting_cities_semantic_7.png","null","",""
"","","","","","image-button-response","50","208078","0.0-10.0-1.0-1.8","57F46DBA90A14924A2E2C2CB600A683C","57F46DBA90A14924A2E2C2CB600A683C","0198ee6a-36fa-7ebd-b864-4d3ae0b1b6ae","0198ee3c-27ac-7803-a9ea-f3b4ad4ad678","{""num_scrambled_semantic"":""8"",""num_scrambled_causal"":""4"",""num_scrambled_schematic"":""4"",""participantId"":""57F46DBA90A14924A2E2C2CB600A683C"",""assignmentId"":""0198ee6a-36fa-7ebd-b864-4d3ae0b1b6ae"",""projectId"":""0198ee3c-27ac-7803-a9ea-f3b4ad4ad678""}","https://test12345.live/?num_scrambled_semantic=8&num_scrambled_causal=4&num_scrambled_schematic=4&participantId=57F46DBA90A14924A2E2C2CB600A683C&assignmentId=0198ee6a-36fa-7ebd-b864-4d3ae0b1b6ae&projectId=0198ee3c-27ac-7803-a9ea-f3b4ad4ad678","57F46DBA90A14924A2E2C2CB600A683C-2025-08-28-02-52-44","","834","","images/semantic_sequence/visiting_cities_semantic/visiting_cities_semantic_7.png","0","",""
"","","","","","image-button-response","51","209880","0.0-10.0-1.0-2.8","57F46DBA90A14924A2E2C2CB600A683C","57F46DBA90A14924A2E2C2CB600A683C","0198ee6a-36fa-7ebd-b864-4d3ae0b1b6ae","0198ee3c-27ac-7803-a9ea-f3b4ad4ad678","{""num_scrambled_semantic"":""8"",""num_scrambled_causal"":""4"",""num_scrambled_schematic"":""4"",""participantId"":""57F46DBA90A14924A2E2C2CB600A683C"",""assignmentId"":""0198ee6a-36fa-7ebd-b864-4d3ae0b1b6ae"",""projectId"":""0198ee3c-27ac-7803-a9ea-f3b4ad4ad678""}","https://test12345.live/?num_scrambled_semantic=8&num_scrambled_causal=4&num_scrambled_schematic=4&participantId=57F46DBA90A14924A2E2C2CB600A683C&assignmentId=0198ee6a-36fa-7ebd-b864-4d3ae0b1b6ae&projectId=0198ee3c-27ac-7803-a9ea-f3b4ad4ad678","57F46DBA90A14924A2E2C2CB600A683C-2025-08-28-02-52-44","","null","","[]","null","",""
"","","","","","image-button-response","52","214394","0.0-10.0-1.0-0.9","57F46DBA90A14924A2E2C2CB600A683C","57F46DBA90A14924A2E2C2CB600A683C","0198ee6a-36fa-7ebd-b864-4d3ae0b1b6ae","0198ee3c-27ac-7803-a9ea-f3b4ad4ad678","{""num_scrambled_semantic"":""8"",""num_scrambled_causal"":""4"",""num_scrambled_schematic"":""4"",""participantId"":""57F46DBA90A14924A2E2C2CB600A683C"",""assignmentId"":""0198ee6a-36fa-7ebd-b864-4d3ae0b1b6ae"",""projectId"":""0198ee3c-27ac-7803-a9ea-f3b4ad4ad678""}","https://test12345.live/?num_scrambled_semantic=8&num_scrambled_causal=4&num_scrambled_schematic=4&participantId=57F46DBA90A14924A2E2C2CB600A683C&assignmentId=0198ee6a-36fa-7ebd-b864-4d3ae0b1b6ae&projectId=0198ee3c-27ac-7803-a9ea-f3b4ad4ad678","57F46DBA90A14924A2E2C2CB600A683C-2025-08-28-02-52-44","","null","","images/semantic_sequence/visiting_cities_semantic/visiting_cities_semantic_ten.png","null","",""
"","","","","","image-button-response","53","215222","0.0-10.0-1.0-1.9","57F46DBA90A14924A2E2C2CB600A683C","57F46DBA90A14924A2E2C2CB600A683C","0198ee6a-36fa-7ebd-b864-4d3ae0b1b6ae","0198ee3c-27ac-7803-a9ea-f3b4ad4ad678","{""num_scrambled_semantic"":""8"",""num_scrambled_causal"":""4"",""num_scrambled_schematic"":""4"",""participantId"":""57F46DBA90A14924A2E2C2CB600A683C"",""assignmentId"":""0198ee6a-36fa-7ebd-b864-4d3ae0b1b6ae"",""projectId"":""0198ee3c-27ac-7803-a9ea-f3b4ad4ad678""}","https://test12345.live/?num_scrambled_semantic=8&num_scrambled_causal=4&num_scrambled_schematic=4&participantId=57F46DBA90A14924A2E2C2CB600A683C&assignmentId=0198ee6a-36fa-7ebd-b864-4d3ae0b1b6ae&projectId=0198ee3c-27ac-7803-a9ea-f3b4ad4ad678","57F46DBA90A14924A2E2C2CB600A683C-2025-08-28-02-52-44","","827","","images/semantic_sequence/visiting_cities_semantic/visiting_cities_semantic_ten.png","0","",""
"","","","","","image-button-response","54","217030","0.0-10.0-1.0-2.9","57F46DBA90A14924A2E2C2CB600A683C","57F46DBA90A14924A2E2C2CB600A683C","0198ee6a-36fa-7ebd-b864-4d3ae0b1b6ae","0198ee3c-27ac-7803-a9ea-f3b4ad4ad678","{""num_scrambled_semantic"":""8"",""num_scrambled_causal"":""4"",""num_scrambled_schematic"":""4"",""participantId"":""57F46DBA90A14924A2E2C2CB600A683C"",""assignmentId"":""0198ee6a-36fa-7ebd-b864-4d3ae0b1b6ae"",""projectId"":""0198ee3c-27ac-7803-a9ea-f3b4ad4ad678""}","https://test12345.live/?num_scrambled_semantic=8&num_scrambled_causal=4&num_scrambled_schematic=4&participantId=57F46DBA90A14924A2E2C2CB600A683C&assignmentId=0198ee6a-36fa-7ebd-b864-4d3ae0b1b6ae&projectId=0198ee3c-27ac-7803-a9ea-f3b4ad4ad678","57F46DBA90A14924A2E2C2CB600A683C-2025-08-28-02-52-44","","null","","[]","null","",""
"","","","","","html-audio-response","55","250015","0.0-11.0","57F46DBA90A14924A2E2C2CB600A683C","57F46DBA90A14924A2E2C2CB600A683C","0198ee6a-36fa-7ebd-b864-4d3ae0b1b6ae","0198ee3c-27ac-7803-a9ea-f3b4ad4ad678","{""num_scrambled_semantic"":""8"",""num_scrambled_causal"":""4"",""num_scrambled_schematic"":""4"",""participantId"":""57F46DBA90A14924A2E2C2CB600A683C"",""assignmentId"":""0198ee6a-36fa-7ebd-b864-4d3ae0b1b6ae"",""projectId"":""0198ee3c-27ac-7803-a9ea-f3b4ad4ad678""}","https://test12345.live/?num_scrambled_semantic=8&num_scrambled_causal=4&num_scrambled_schematic=4&participantId=57F46DBA90A14924A2E2C2CB600A683C&assignmentId=0198ee6a-36fa-7ebd-b864-4d3ae0b1b6ae&projectId=0198ee3c-27ac-7803-a9ea-f3b4ad4ad678","57F46DBA90A14924A2E2C2CB600A683C-2025-08-28-02-52-44","","17630","","[""<span style=\""color: red; font-size: 24px\""> NOW RECORDING</span><p>Please say out loud all the images you saw, in the order of the story they create. Try to recall the sequence of events as they appeared in the story, not necessarily the order they were presented on the screen.</p>""]","","1","visiting_cities_semantic"
"","","","","","image-button-response","56","256025","0.0-12.0-0.0","57F46DBA90A14924A2E2C2CB600A683C","57F46DBA90A14924A2E2C2CB600A683C","0198ee6a-36fa-7ebd-b864-4d3ae0b1b6ae","0198ee3c-27ac-7803-a9ea-f3b4ad4ad678","{""num_scrambled_semantic"":""8"",""num_scrambled_causal"":""4"",""num_scrambled_schematic"":""4"",""participantId"":""57F46DBA90A14924A2E2C2CB600A683C"",""assignmentId"":""0198ee6a-36fa-7ebd-b864-4d3ae0b1b6ae"",""projectId"":""0198ee3c-27ac-7803-a9ea-f3b4ad4ad678""}","https://test12345.live/?num_scrambled_semantic=8&num_scrambled_causal=4&num_scrambled_schematic=4&participantId=57F46DBA90A14924A2E2C2CB600A683C&assignmentId=0198ee6a-36fa-7ebd-b864-4d3ae0b1b6ae&projectId=0198ee3c-27ac-7803-a9ea-f3b4ad4ad678","57F46DBA90A14924A2E2C2CB600A683C-2025-08-28-02-52-44","","null","","images/semantic_sequence/creative_activities_semantic/creative_activities_semantic_0.png","null","",""
"","","","","","image-button-response","57","260526","0.0-12.0-1.0-0.0","57F46DBA90A14924A2E2C2CB600A683C","57F46DBA90A14924A2E2C2CB600A683C","0198ee6a-36fa-7ebd-b864-4d3ae0b1b6ae","0198ee3c-27ac-7803-a9ea-f3b4ad4ad678","{""num_scrambled_semantic"":""8"",""num_scrambled_causal"":""4"",""num_scrambled_schematic"":""4"",""participantId"":""57F46DBA90A14924A2E2C2CB600A683C"",""assignmentId"":""0198ee6a-36fa-7ebd-b864-4d3ae0b1b6ae"",""projectId"":""0198ee3c-27ac-7803-a9ea-f3b4ad4ad678""}","https://test12345.live/?num_scrambled_semantic=8&num_scrambled_causal=4&num_scrambled_schematic=4&participantId=57F46DBA90A14924A2E2C2CB600A683C&assignmentId=0198ee6a-36fa-7ebd-b864-4d3ae0b1b6ae&projectId=0198ee3c-27ac-7803-a9ea-f3b4ad4ad678","57F46DBA90A14924A2E2C2CB600A683C-2025-08-28-02-52-44","","null","","images/semantic_sequence/creative_activities_semantic/creative_activities_semantic_1.png","null","",""
"","","","","","image-button-response","58","261312","0.0-12.0-1.0-1.0","57F46DBA90A14924A2E2C2CB600A683C","57F46DBA90A14924A2E2C2CB600A683C","0198ee6a-36fa-7ebd-b864-4d3ae0b1b6ae","0198ee3c-27ac-7803-a9ea-f3b4ad4ad678","{""num_scrambled_semantic"":""8"",""num_scrambled_causal"":""4"",""num_scrambled_schematic"":""4"",""participantId"":""57F46DBA90A14924A2E2C2CB600A683C"",""assignmentId"":""0198ee6a-36fa-7ebd-b864-4d3ae0b1b6ae"",""projectId"":""0198ee3c-27ac-7803-a9ea-f3b4ad4ad678""}","https://test12345.live/?num_scrambled_semantic=8&num_scrambled_causal=4&num_scrambled_schematic=4&participantId=57F46DBA90A14924A2E2C2CB600A683C&assignmentId=0198ee6a-36fa-7ebd-b864-4d3ae0b1b6ae&projectId=0198ee3c-27ac-7803-a9ea-f3b4ad4ad678","57F46DBA90A14924A2E2C2CB600A683C-2025-08-28-02-52-44","","786","","images/semantic_sequence/creative_activities_semantic/creative_activities_semantic_1.png","0","",""
"","","","","","image-button-response","59","263119","0.0-12.0-1.0-2.0","57F46DBA90A14924A2E2C2CB600A683C","57F46DBA90A14924A2E2C2CB600A683C","0198ee6a-36fa-7ebd-b864-4d3ae0b1b6ae","0198ee3c-27ac-7803-a9ea-f3b4ad4ad678","{""num_scrambled_semantic"":""8"",""num_scrambled_causal"":""4"",""num_scrambled_schematic"":""4"",""participantId"":""57F46DBA90A14924A2E2C2CB600A683C"",""assignmentId"":""0198ee6a-36fa-7ebd-b864-4d3ae0b1b6ae"",""projectId"":""0198ee3c-27ac-7803-a9ea-f3b4ad4ad678""}","https://test12345.live/?num_scrambled_semantic=8&num_scrambled_causal=4&num_scrambled_schematic=4&participantId=57F46DBA90A14924A2E2C2CB600A683C&assignmentId=0198ee6a-36fa-7ebd-b864-4d3ae0b1b6ae&projectId=0198ee3c-27ac-7803-a9ea-f3b4ad4ad678","57F46DBA90A14924A2E2C2CB600A683C-2025-08-28-02-52-44","","null","","[]","null","",""
"","","","","","image-button-response","60","267633","0.0-12.0-1.0-0.1","57F46DBA90A14924A2E2C2CB600A683C","57F46DBA90A14924A2E2C2CB600A683C","0198ee6a-36fa-7ebd-b864-4d3ae0b1b6ae","0198ee3c-27ac-7803-a9ea-f3b4ad4ad678","{""num_scrambled_semantic"":""8"",""num_scrambled_causal"":""4"",""num_scrambled_schematic"":""4"",""participantId"":""57F46DBA90A14924A2E2C2CB600A683C"",""assignmentId"":""0198ee6a-36fa-7ebd-b864-4d3ae0b1b6ae"",""projectId"":""0198ee3c-27ac-7803-a9ea-f3b4ad4ad678""}","https://test12345.live/?num_scrambled_semantic=8&num_scrambled_causal=4&num_scrambled_schematic=4&participantId=57F46DBA90A14924A2E2C2CB600A683C&assignmentId=0198ee6a-36fa-7ebd-b864-4d3ae0b1b6ae&projectId=0198ee3c-27ac-7803-a9ea-f3b4ad4ad678","57F46DBA90A14924A2E2C2CB600A683C-2025-08-28-02-52-44","","null","","images/semantic_sequence/creative_activities_semantic/creative_activities_semantic_7.png","null","",""
"","","","","","image-button-response","61","268800","0.0-12.0-1.0-1.1","57F46DBA90A14924A2E2C2CB600A683C","57F46DBA90A14924A2E2C2CB600A683C","0198ee6a-36fa-7ebd-b864-4d3ae0b1b6ae","0198ee3c-27ac-7803-a9ea-f3b4ad4ad678","{""num_scrambled_semantic"":""8"",""num_scrambled_causal"":""4"",""num_scrambled_schematic"":""4"",""participantId"":""57F46DBA90A14924A2E2C2CB600A683C"",""assignmentId"":""0198ee6a-36fa-7ebd-b864-4d3ae0b1b6ae"",""projectId"":""0198ee3c-27ac-7803-a9ea-f3b4ad4ad678""}","https://test12345.live/?num_scrambled_semantic=8&num_scrambled_causal=4&num_scrambled_schematic=4&participantId=57F46DBA90A14924A2E2C2CB600A683C&assignmentId=0198ee6a-36fa-7ebd-b864-4d3ae0b1b6ae&projectId=0198ee3c-27ac-7803-a9ea-f3b4ad4ad678","57F46DBA90A14924A2E2C2CB600A683C-2025-08-28-02-52-44","","1166","","images/semantic_sequence/creative_activities_semantic/creative_activities_semantic_7.png","0","",""
"","","","","","image-button-response","62","270611","0.0-12.0-1.0-2.1","57F46DBA90A14924A2E2C2CB600A683C","57F46DBA90A14924A2E2C2CB600A683C","0198ee6a-36fa-7ebd-b864-4d3ae0b1b6ae","0198ee3c-27ac-7803-a9ea-f3b4ad4ad678","{""num_scrambled_semantic"":""8"",""num_scrambled_causal"":""4"",""num_scrambled_schematic"":""4"",""participantId"":""57F46DBA90A14924A2E2C2CB600A683C"",""assignmentId"":""0198ee6a-36fa-7ebd-b864-4d3ae0b1b6ae"",""projectId"":""0198ee3c-27ac-7803-a9ea-f3b4ad4ad678""}","https://test12345.live/?num_scrambled_semantic=8&num_scrambled_causal=4&num_scrambled_schematic=4&participantId=57F46DBA90A14924A2E2C2CB600A683C&assignmentId=0198ee6a-36fa-7ebd-b864-4d3ae0b1b6ae&projectId=0198ee3c-27ac-7803-a9ea-f3b4ad4ad678","57F46DBA90A14924A2E2C2CB600A683C-2025-08-28-02-52-44","","null","","[]","null","",""
"","","","","","image-button-response","63","275111","0.0-12.0-1.0-0.2","57F46DBA90A14924A2E2C2CB600A683C","57F46DBA90A14924A2E2C2CB600A683C","0198ee6a-36fa-7ebd-b864-4d3ae0b1b6ae","0198ee3c-27ac-7803-a9ea-f3b4ad4ad678","{""num_scrambled_semantic"":""8"",""num_scrambled_causal"":""4"",""num_scrambled_schematic"":""4"",""participantId"":""57F46DBA90A14924A2E2C2CB600A683C"",""assignmentId"":""0198ee6a-36fa-7ebd-b864-4d3ae0b1b6ae"",""projectId"":""0198ee3c-27ac-7803-a9ea-f3b4ad4ad678""}","https://test12345.live/?num_scrambled_semantic=8&num_scrambled_causal=4&num_scrambled_schematic=4&participantId=57F46DBA90A14924A2E2C2CB600A683C&assignmentId=0198ee6a-36fa-7ebd-b864-4d3ae0b1b6ae&projectId=0198ee3c-27ac-7803-a9ea-f3b4ad4ad678","57F46DBA90A14924A2E2C2CB600A683C-2025-08-28-02-52-44","","null","","images/semantic_sequence/creative_activities_semantic/creative_activities_semantic_3.png","null","",""
"","","","","","image-button-response","64","276623","0.0-12.0-1.0-1.2","57F46DBA90A14924A2E2C2CB600A683C","57F46DBA90A14924A2E2C2CB600A683C","0198ee6a-36fa-7ebd-b864-4d3ae0b1b6ae","0198ee3c-27ac-7803-a9ea-f3b4ad4ad678","{""num_scrambled_semantic"":""8"",""num_scrambled_causal"":""4"",""num_scrambled_schematic"":""4"",""participantId"":""57F46DBA90A14924A2E2C2CB600A683C"",""assignmentId"":""0198ee6a-36fa-7ebd-b864-4d3ae0b1b6ae"",""projectId"":""0198ee3c-27ac-7803-a9ea-f3b4ad4ad678""}","https://test12345.live/?num_scrambled_semantic=8&num_scrambled_causal=4&num_scrambled_schematic=4&participantId=57F46DBA90A14924A2E2C2CB600A683C&assignmentId=0198ee6a-36fa-7ebd-b864-4d3ae0b1b6ae&projectId=0198ee3c-27ac-7803-a9ea-f3b4ad4ad678","57F46DBA90A14924A2E2C2CB600A683C-2025-08-28-02-52-44","","1511","","images/semantic_sequence/creative_activities_semantic/creative_activities_semantic_3.png","0","",""
"","","","","","image-button-response","65","278426","0.0-12.0-1.0-2.2","57F46DBA90A14924A2E2C2CB600A683C","57F46DBA90A14924A2E2C2CB600A683C","0198ee6a-36fa-7ebd-b864-4d3ae0b1b6ae","0198ee3c-27ac-7803-a9ea-f3b4ad4ad678","{""num_scrambled_semantic"":""8"",""num_scrambled_causal"":""4"",""num_scrambled_schematic"":""4"",""participantId"":""57F46DBA90A14924A2E2C2CB600A683C"",""assignmentId"":""0198ee6a-36fa-7ebd-b864-4d3ae0b1b6ae"",""projectId"":""0198ee3c-27ac-7803-a9ea-f3b4ad4ad678""}","https://test12345.live/?num_scrambled_semantic=8&num_scrambled_causal=4&num_scrambled_schematic=4&participantId=57F46DBA90A14924A2E2C2CB600A683C&assignmentId=0198ee6a-36fa-7ebd-b864-4d3ae0b1b6ae&projectId=0198ee3c-27ac-7803-a9ea-f3b4ad4ad678","57F46DBA90A14924A2E2C2CB600A683C-2025-08-28-02-52-44","","null","","[]","null","",""
"","","","","","image-button-response","66","282938","0.0-12.0-1.0-0.3","57F46DBA90A14924A2E2C2CB600A683C","57F46DBA90A14924A2E2C2CB600A683C","0198ee6a-36fa-7ebd-b864-4d3ae0b1b6ae","0198ee3c-27ac-7803-a9ea-f3b4ad4ad678","{""num_scrambled_semantic"":""8"",""num_scrambled_causal"":""4"",""num_scrambled_schematic"":""4"",""participantId"":""57F46DBA90A14924A2E2C2CB600A683C"",""assignmentId"":""0198ee6a-36fa-7ebd-b864-4d3ae0b1b6ae"",""projectId"":""0198ee3c-27ac-7803-a9ea-f3b4ad4ad678""}","https://test12345.live/?num_scrambled_semantic=8&num_scrambled_causal=4&num_scrambled_schematic=4&participantId=57F46DBA90A14924A2E2C2CB600A683C&assignmentId=0198ee6a-36fa-7ebd-b864-4d3ae0b1b6ae&projectId=0198ee3c-27ac-7803-a9ea-f3b4ad4ad678","57F46DBA90A14924A2E2C2CB600A683C-2025-08-28-02-52-44","","null","","images/semantic_sequence/creative_activities_semantic/creative_activities_semantic_9.png","null","",""
"","","","","","image-button-response","67","284359","0.0-12.0-1.0-1.3","57F46DBA90A14924A2E2C2CB600A683C","57F46DBA90A14924A2E2C2CB600A683C","0198ee6a-36fa-7ebd-b864-4d3ae0b1b6ae","0198ee3c-27ac-7803-a9ea-f3b4ad4ad678","{""num_scrambled_semantic"":""8"",""num_scrambled_causal"":""4"",""num_scrambled_schematic"":""4"",""participantId"":""57F46DBA90A14924A2E2C2CB600A683C"",""assignmentId"":""0198ee6a-36fa-7ebd-b864-4d3ae0b1b6ae"",""projectId"":""0198ee3c-27ac-7803-a9ea-f3b4ad4ad678""}","https://test12345.live/?num_scrambled_semantic=8&num_scrambled_causal=4&num_scrambled_schematic=4&participantId=57F46DBA90A14924A2E2C2CB600A683C&assignmentId=0198ee6a-36fa-7ebd-b864-4d3ae0b1b6ae&projectId=0198ee3c-27ac-7803-a9ea-f3b4ad4ad678","57F46DBA90A14924A2E2C2CB600A683C-2025-08-28-02-52-44","","1420","","images/semantic_sequence/creative_activities_semantic/creative_activities_semantic_9.png","0","",""
"","","","","","image-button-response","68","286169","0.0-12.0-1.0-2.3","57F46DBA90A14924A2E2C2CB600A683C","57F46DBA90A14924A2E2C2CB600A683C","0198ee6a-36fa-7ebd-b864-4d3ae0b1b6ae","0198ee3c-27ac-7803-a9ea-f3b4ad4ad678","{""num_scrambled_semantic"":""8"",""num_scrambled_causal"":""4"",""num_scrambled_schematic"":""4"",""participantId"":""57F46DBA90A14924A2E2C2CB600A683C"",""assignmentId"":""0198ee6a-36fa-7ebd-b864-4d3ae0b1b6ae"",""projectId"":""0198ee3c-27ac-7803-a9ea-f3b4ad4ad678""}","https://test12345.live/?num_scrambled_semantic=8&num_scrambled_causal=4&num_scrambled_schematic=4&participantId=57F46DBA90A14924A2E2C2CB600A683C&assignmentId=0198ee6a-36fa-7ebd-b864-4d3ae0b1b6ae&projectId=0198ee3c-27ac-7803-a9ea-f3b4ad4ad678","57F46DBA90A14924A2E2C2CB600A683C-2025-08-28-02-52-44","","null","","[]","null","",""
"","","","","","image-button-response","69","290682","0.0-12.0-1.0-0.4","57F46DBA90A14924A2E2C2CB600A683C","57F46DBA90A14924A2E2C2CB600A683C","0198ee6a-36fa-7ebd-b864-4d3ae0b1b6ae","0198ee3c-27ac-7803-a9ea-f3b4ad4ad678","{""num_scrambled_semantic"":""8"",""num_scrambled_causal"":""4"",""num_scrambled_schematic"":""4"",""participantId"":""57F46DBA90A14924A2E2C2CB600A683C"",""assignmentId"":""0198ee6a-36fa-7ebd-b864-4d3ae0b1b6ae"",""projectId"":""0198ee3c-27ac-7803-a9ea-f3b4ad4ad678""}","https://test12345.live/?num_scrambled_semantic=8&num_scrambled_causal=4&num_scrambled_schematic=4&participantId=57F46DBA90A14924A2E2C2CB600A683C&assignmentId=0198ee6a-36fa-7ebd-b864-4d3ae0b1b6ae&projectId=0198ee3c-27ac-7803-a9ea-f3b4ad4ad678","57F46DBA90A14924A2E2C2CB600A683C-2025-08-28-02-52-44","","null","","images/semantic_sequence/creative_activities_semantic/creative_activities_semantic_2.png","null","",""
"","","","","","image-button-response","70","292160","0.0-12.0-1.0-1.4","57F46DBA90A14924A2E2C2CB600A683C","57F46DBA90A14924A2E2C2CB600A683C","0198ee6a-36fa-7ebd-b864-4d3ae0b1b6ae","0198ee3c-27ac-7803-a9ea-f3b4ad4ad678","{""num_scrambled_semantic"":""8"",""num_scrambled_causal"":""4"",""num_scrambled_schematic"":""4"",""participantId"":""57F46DBA90A14924A2E2C2CB600A683C"",""assignmentId"":""0198ee6a-36fa-7ebd-b864-4d3ae0b1b6ae"",""projectId"":""0198ee3c-27ac-7803-a9ea-f3b4ad4ad678""}","https://test12345.live/?num_scrambled_semantic=8&num_scrambled_causal=4&num_scrambled_schematic=4&participantId=57F46DBA90A14924A2E2C2CB600A683C&assignmentId=0198ee6a-36fa-7ebd-b864-4d3ae0b1b6ae&projectId=0198ee3c-27ac-7803-a9ea-f3b4ad4ad678","57F46DBA90A14924A2E2C2CB600A683C-2025-08-28-02-52-44","","1477","","images/semantic_sequence/creative_activities_semantic/creative_activities_semantic_2.png","0","",""
"","","","","","image-button-response","71","293972","0.0-12.0-1.0-2.4","57F46DBA90A14924A2E2C2CB600A683C","57F46DBA90A14924A2E2C2CB600A683C","0198ee6a-36fa-7ebd-b864-4d3ae0b1b6ae","0198ee3c-27ac-7803-a9ea-f3b4ad4ad678","{""num_scrambled_semantic"":""8"",""num_scrambled_causal"":""4"",""num_scrambled_schematic"":""4"",""participantId"":""57F46DBA90A14924A2E2C2CB600A683C"",""assignmentId"":""0198ee6a-36fa-7ebd-b864-4d3ae0b1b6ae"",""projectId"":""0198ee3c-27ac-7803-a9ea-f3b4ad4ad678""}","https://test12345.live/?num_scrambled_semantic=8&num_scrambled_causal=4&num_scrambled_schematic=4&participantId=57F46DBA90A14924A2E2C2CB600A683C&assignmentId=0198ee6a-36fa-7ebd-b864-4d3ae0b1b6ae&projectId=0198ee3c-27ac-7803-a9ea-f3b4ad4ad678","57F46DBA90A14924A2E2C2CB600A683C-2025-08-28-02-52-44","","null","","[]","null","",""
"","","","","","image-button-response","72","298480","0.0-12.0-1.0-0.5","57F46DBA90A14924A2E2C2CB600A683C","57F46DBA90A14924A2E2C2CB600A683C","0198ee6a-36fa-7ebd-b864-4d3ae0b1b6ae","0198ee3c-27ac-7803-a9ea-f3b4ad4ad678","{""num_scrambled_semantic"":""8"",""num_scrambled_causal"":""4"",""num_scrambled_schematic"":""4"",""participantId"":""57F46DBA90A14924A2E2C2CB600A683C"",""assignmentId"":""0198ee6a-36fa-7ebd-b864-4d3ae0b1b6ae"",""projectId"":""0198ee3c-27ac-7803-a9ea-f3b4ad4ad678""}","https://test12345.live/?num_scrambled_semantic=8&num_scrambled_causal=4&num_scrambled_schematic=4&participantId=57F46DBA90A14924A2E2C2CB600A683C&assignmentId=0198ee6a-36fa-7ebd-b864-4d3ae0b1b6ae&projectId=0198ee3c-27ac-7803-a9ea-f3b4ad4ad678","57F46DBA90A14924A2E2C2CB600A683C-2025-08-28-02-52-44","","null","","images/semantic_sequence/creative_activities_semantic/creative_activities_semantic_4.png","null","",""
"","","","","","image-button-response","73","299448","0.0-12.0-1.0-1.5","57F46DBA90A14924A2E2C2CB600A683C","57F46DBA90A14924A2E2C2CB600A683C","0198ee6a-36fa-7ebd-b864-4d3ae0b1b6ae","0198ee3c-27ac-7803-a9ea-f3b4ad4ad678","{""num_scrambled_semantic"":""8"",""num_scrambled_causal"":""4"",""num_scrambled_schematic"":""4"",""participantId"":""57F46DBA90A14924A2E2C2CB600A683C"",""assignmentId"":""0198ee6a-36fa-7ebd-b864-4d3ae0b1b6ae"",""projectId"":""0198ee3c-27ac-7803-a9ea-f3b4ad4ad678""}","https://test12345.live/?num_scrambled_semantic=8&num_scrambled_causal=4&num_scrambled_schematic=4&participantId=57F46DBA90A14924A2E2C2CB600A683C&assignmentId=0198ee6a-36fa-7ebd-b864-4d3ae0b1b6ae&projectId=0198ee3c-27ac-7803-a9ea-f3b4ad4ad678","57F46DBA90A14924A2E2C2CB600A683C-2025-08-28-02-52-44","","967","","images/semantic_sequence/creative_activities_semantic/creative_activities_semantic_4.png","0","",""
"","","","","","image-button-response","74","301261","0.0-12.0-1.0-2.5","57F46DBA90A14924A2E2C2CB600A683C","57F46DBA90A14924A2E2C2CB600A683C","0198ee6a-36fa-7ebd-b864-4d3ae0b1b6ae","0198ee3c-27ac-7803-a9ea-f3b4ad4ad678","{""num_scrambled_semantic"":""8"",""num_scrambled_causal"":""4"",""num_scrambled_schematic"":""4"",""participantId"":""57F46DBA90A14924A2E2C2CB600A683C"",""assignmentId"":""0198ee6a-36fa-7ebd-b864-4d3ae0b1b6ae"",""projectId"":""0198ee3c-27ac-7803-a9ea-f3b4ad4ad678""}","https://test12345.live/?num_scrambled_semantic=8&num_scrambled_causal=4&num_scrambled_schematic=4&participantId=57F46DBA90A14924A2E2C2CB600A683C&assignmentId=0198ee6a-36fa-7ebd-b864-4d3ae0b1b6ae&projectId=0198ee3c-27ac-7803-a9ea-f3b4ad4ad678","57F46DBA90A14924A2E2C2CB600A683C-2025-08-28-02-52-44","","null","","[]","null","",""
"","","","","","image-button-response","75","305767","0.0-12.0-1.0-0.6","57F46DBA90A14924A2E2C2CB600A683C","57F46DBA90A14924A2E2C2CB600A683C","0198ee6a-36fa-7ebd-b864-4d3ae0b1b6ae","0198ee3c-27ac-7803-a9ea-f3b4ad4ad678","{""num_scrambled_semantic"":""8"",""num_scrambled_causal"":""4"",""num_scrambled_schematic"":""4"",""participantId"":""57F46DBA90A14924A2E2C2CB600A683C"",""assignmentId"":""0198ee6a-36fa-7ebd-b864-4d3ae0b1b6ae"",""projectId"":""0198ee3c-27ac-7803-a9ea-f3b4ad4ad678""}","https://test12345.live/?num_scrambled_semantic=8&num_scrambled_causal=4&num_scrambled_schematic=4&participantId=57F46DBA90A14924A2E2C2CB600A683C&assignmentId=0198ee6a-36fa-7ebd-b864-4d3ae0b1b6ae&projectId=0198ee3c-27ac-7803-a9ea-f3b4ad4ad678","57F46DBA90A14924A2E2C2CB600A683C-2025-08-28-02-52-44","","null","","images/semantic_sequence/creative_activities_semantic/creative_activities_semantic_5.png","null","",""
"","","","","","image-button-response","76","307688","0.0-12.0-1.0-1.6","57F46DBA90A14924A2E2C2CB600A683C","57F46DBA90A14924A2E2C2CB600A683C","0198ee6a-36fa-7ebd-b864-4d3ae0b1b6ae","0198ee3c-27ac-7803-a9ea-f3b4ad4ad678","{""num_scrambled_semantic"":""8"",""num_scrambled_causal"":""4"",""num_scrambled_schematic"":""4"",""participantId"":""57F46DBA90A14924A2E2C2CB600A683C"",""assignmentId"":""0198ee6a-36fa-7ebd-b864-4d3ae0b1b6ae"",""projectId"":""0198ee3c-27ac-7803-a9ea-f3b4ad4ad678""}","https://test12345.live/?num_scrambled_semantic=8&num_scrambled_causal=4&num_scrambled_schematic=4&participantId=57F46DBA90A14924A2E2C2CB600A683C&assignmentId=0198ee6a-36fa-7ebd-b864-4d3ae0b1b6ae&projectId=0198ee3c-27ac-7803-a9ea-f3b4ad4ad678","57F46DBA90A14924A2E2C2CB600A683C-2025-08-28-02-52-44","","1920","","images/semantic_sequence/creative_activities_semantic/creative_activities_semantic_5.png","0","",""
"","","","","","image-button-response","77","309498","0.0-12.0-1.0-2.6","57F46DBA90A14924A2E2C2CB600A683C","57F46DBA90A14924A2E2C2CB600A683C","0198ee6a-36fa-7ebd-b864-4d3ae0b1b6ae","0198ee3c-27ac-7803-a9ea-f3b4ad4ad678","{""num_scrambled_semantic"":""8"",""num_scrambled_causal"":""4"",""num_scrambled_schematic"":""4"",""participantId"":""57F46DBA90A14924A2E2C2CB600A683C"",""assignmentId"":""0198ee6a-36fa-7ebd-b864-4d3ae0b1b6ae"",""projectId"":""0198ee3c-27ac-7803-a9ea-f3b4ad4ad678""}","https://test12345.live/?num_scrambled_semantic=8&num_scrambled_causal=4&num_scrambled_schematic=4&participantId=57F46DBA90A14924A2E2C2CB600A683C&assignmentId=0198ee6a-36fa-7ebd-b864-4d3ae0b1b6ae&projectId=0198ee3c-27ac-7803-a9ea-f3b4ad4ad678","57F46DBA90A14924A2E2C2CB600A683C-2025-08-28-02-52-44","","null","","[]","null","",""
"","","","","","image-button-response","78","314010","0.0-12.0-1.0-0.7","57F46DBA90A14924A2E2C2CB600A683C","57F46DBA90A14924A2E2C2CB600A683C","0198ee6a-36fa-7ebd-b864-4d3ae0b1b6ae","0198ee3c-27ac-7803-a9ea-f3b4ad4ad678","{""num_scrambled_semantic"":""8"",""num_scrambled_causal"":""4"",""num_scrambled_schematic"":""4"",""participantId"":""57F46DBA90A14924A2E2C2CB600A683C"",""assignmentId"":""0198ee6a-36fa-7ebd-b864-4d3ae0b1b6ae"",""projectId"":""0198ee3c-27ac-7803-a9ea-f3b4ad4ad678""}","https://test12345.live/?num_scrambled_semantic=8&num_scrambled_causal=4&num_scrambled_schematic=4&participantId=57F46DBA90A14924A2E2C2CB600A683C&assignmentId=0198ee6a-36fa-7ebd-b864-4d3ae0b1b6ae&projectId=0198ee3c-27ac-7803-a9ea-f3b4ad4ad678","57F46DBA90A14924A2E2C2CB600A683C-2025-08-28-02-52-44","","null","","images/semantic_sequence/creative_activities_semantic/creative_activities_semantic_8.png","null","",""
"","","","","","image-button-response","79","316168","0.0-12.0-1.0-1.7","57F46DBA90A14924A2E2C2CB600A683C","57F46DBA90A14924A2E2C2CB600A683C","0198ee6a-36fa-7ebd-b864-4d3ae0b1b6ae","0198ee3c-27ac-7803-a9ea-f3b4ad4ad678","{""num_scrambled_semantic"":""8"",""num_scrambled_causal"":""4"",""num_scrambled_schematic"":""4"",""participantId"":""57F46DBA90A14924A2E2C2CB600A683C"",""assignmentId"":""0198ee6a-36fa-7ebd-b864-4d3ae0b1b6ae"",""projectId"":""0198ee3c-27ac-7803-a9ea-f3b4ad4ad678""}","https://test12345.live/?num_scrambled_semantic=8&num_scrambled_causal=4&num_scrambled_schematic=4&participantId=57F46DBA90A14924A2E2C2CB600A683C&assignmentId=0198ee6a-36fa-7ebd-b864-4d3ae0b1b6ae&projectId=0198ee3c-27ac-7803-a9ea-f3b4ad4ad678","57F46DBA90A14924A2E2C2CB600A683C-2025-08-28-02-52-44","","2158","","images/semantic_sequence/creative_activities_semantic/creative_activities_semantic_8.png","0","",""
"","","","","","image-button-response","80","317976","0.0-12.0-1.0-2.7","57F46DBA90A14924A2E2C2CB600A683C","57F46DBA90A14924A2E2C2CB600A683C","0198ee6a-36fa-7ebd-b864-4d3ae0b1b6ae","0198ee3c-27ac-7803-a9ea-f3b4ad4ad678","{""num_scrambled_semantic"":""8"",""num_scrambled_causal"":""4"",""num_scrambled_schematic"":""4"",""participantId"":""57F46DBA90A14924A2E2C2CB600A683C"",""assignmentId"":""0198ee6a-36fa-7ebd-b864-4d3ae0b1b6ae"",""projectId"":""0198ee3c-27ac-7803-a9ea-f3b4ad4ad678""}","https://test12345.live/?num_scrambled_semantic=8&num_scrambled_causal=4&num_scrambled_schematic=4&participantId=57F46DBA90A14924A2E2C2CB600A683C&assignmentId=0198ee6a-36fa-7ebd-b864-4d3ae0b1b6ae&projectId=0198ee3c-27ac-7803-a9ea-f3b4ad4ad678","57F46DBA90A14924A2E2C2CB600A683C-2025-08-28-02-52-44","","null","","[]","null","",""
"","","","","","image-button-response","81","322486","0.0-12.0-1.0-0.8","57F46DBA90A14924A2E2C2CB600A683C","57F46DBA90A14924A2E2C2CB600A683C","0198ee6a-36fa-7ebd-b864-4d3ae0b1b6ae","0198ee3c-27ac-7803-a9ea-f3b4ad4ad678","{""num_scrambled_semantic"":""8"",""num_scrambled_causal"":""4"",""num_scrambled_schematic"":""4"",""participantId"":""57F46DBA90A14924A2E2C2CB600A683C"",""assignmentId"":""0198ee6a-36fa-7ebd-b864-4d3ae0b1b6ae"",""projectId"":""0198ee3c-27ac-7803-a9ea-f3b4ad4ad678""}","https://test12345.live/?num_scrambled_semantic=8&num_scrambled_causal=4&num_scrambled_schematic=4&participantId=57F46DBA90A14924A2E2C2CB600A683C&assignmentId=0198ee6a-36fa-7ebd-b864-4d3ae0b1b6ae&projectId=0198ee3c-27ac-7803-a9ea-f3b4ad4ad678","57F46DBA90A14924A2E2C2CB600A683C-2025-08-28-02-52-44","","null","","images/semantic_sequence/creative_activities_semantic/creative_activities_semantic_ten.png","null","",""
"","","","","","image-button-response","82","324489","0.0-12.0-1.0-1.8","57F46DBA90A14924A2E2C2CB600A683C","57F46DBA90A14924A2E2C2CB600A683C","0198ee6a-36fa-7ebd-b864-4d3ae0b1b6ae","0198ee3c-27ac-7803-a9ea-f3b4ad4ad678","{""num_scrambled_semantic"":""8"",""num_scrambled_causal"":""4"",""num_scrambled_schematic"":""4"",""participantId"":""57F46DBA90A14924A2E2C2CB600A683C"",""assignmentId"":""0198ee6a-36fa-7ebd-b864-4d3ae0b1b6ae"",""projectId"":""0198ee3c-27ac-7803-a9ea-f3b4ad4ad678""}","https://test12345.live/?num_scrambled_semantic=8&num_scrambled_causal=4&num_scrambled_schematic=4&participantId=57F46DBA90A14924A2E2C2CB600A683C&assignmentId=0198ee6a-36fa-7ebd-b864-4d3ae0b1b6ae&projectId=0198ee3c-27ac-7803-a9ea-f3b4ad4ad678","57F46DBA90A14924A2E2C2CB600A683C-2025-08-28-02-52-44","","2002","","images/semantic_sequence/creative_activities_semantic/creative_activities_semantic_ten.png","0","",""
"","","","","","image-button-response","83","326297","0.0-12.0-1.0-2.8","57F46DBA90A14924A2E2C2CB600A683C","57F46DBA90A14924A2E2C2CB600A683C","0198ee6a-36fa-7ebd-b864-4d3ae0b1b6ae","0198ee3c-27ac-7803-a9ea-f3b4ad4ad678","{""num_scrambled_semantic"":""8"",""num_scrambled_causal"":""4"",""num_scrambled_schematic"":""4"",""participantId"":""57F46DBA90A14924A2E2C2CB600A683C"",""assignmentId"":""0198ee6a-36fa-7ebd-b864-4d3ae0b1b6ae"",""projectId"":""0198ee3c-27ac-7803-a9ea-f3b4ad4ad678""}","https://test12345.live/?num_scrambled_semantic=8&num_scrambled_causal=4&num_scrambled_schematic=4&participantId=57F46DBA90A14924A2E2C2CB600A683C&assignmentId=0198ee6a-36fa-7ebd-b864-4d3ae0b1b6ae&projectId=0198ee3c-27ac-7803-a9ea-f3b4ad4ad678","57F46DBA90A14924A2E2C2CB600A683C-2025-08-28-02-52-44","","null","","[]","null","",""
"","","","","","image-button-response","84","330800","0.0-12.0-1.0-0.9","57F46DBA90A14924A2E2C2CB600A683C","57F46DBA90A14924A2E2C2CB600A683C","0198ee6a-36fa-7ebd-b864-4d3ae0b1b6ae","0198ee3c-27ac-7803-a9ea-f3b4ad4ad678","{""num_scrambled_semantic"":""8"",""num_scrambled_causal"":""4"",""num_scrambled_schematic"":""4"",""participantId"":""57F46DBA90A14924A2E2C2CB600A683C"",""assignmentId"":""0198ee6a-36fa-7ebd-b864-4d3ae0b1b6ae"",""projectId"":""0198ee3c-27ac-7803-a9ea-f3b4ad4ad678""}","https://test12345.live/?num_scrambled_semantic=8&num_scrambled_causal=4&num_scrambled_schematic=4&participantId=57F46DBA90A14924A2E2C2CB600A683C&assignmentId=0198ee6a-36fa-7ebd-b864-4d3ae0b1b6ae&projectId=0198ee3c-27ac-7803-a9ea-f3b4ad4ad678","57F46DBA90A14924A2E2C2CB600A683C-2025-08-28-02-52-44","","null","","images/semantic_sequence/creative_activities_semantic/creative_activities_semantic_6.png","null","",""
"","","","","","image-button-response","85","332369","0.0-12.0-1.0-1.9","57F46DBA90A14924A2E2C2CB600A683C","57F46DBA90A14924A2E2C2CB600A683C","0198ee6a-36fa-7ebd-b864-4d3ae0b1b6ae","0198ee3c-27ac-7803-a9ea-f3b4ad4ad678","{""num_scrambled_semantic"":""8"",""num_scrambled_causal"":""4"",""num_scrambled_schematic"":""4"",""participantId"":""57F46DBA90A14924A2E2C2CB600A683C"",""assignmentId"":""0198ee6a-36fa-7ebd-b864-4d3ae0b1b6ae"",""projectId"":""0198ee3c-27ac-7803-a9ea-f3b4ad4ad678""}","https://test12345.live/?num_scrambled_semantic=8&num_scrambled_causal=4&num_scrambled_schematic=4&participantId=57F46DBA90A14924A2E2C2CB600A683C&assignmentId=0198ee6a-36fa-7ebd-b864-4d3ae0b1b6ae&projectId=0198ee3c-27ac-7803-a9ea-f3b4ad4ad678","57F46DBA90A14924A2E2C2CB600A683C-2025-08-28-02-52-44","","1567","","images/semantic_sequence/creative_activities_semantic/creative_activities_semantic_6.png","0","",""
"","","","","","image-button-response","86","334181","0.0-12.0-1.0-2.9","57F46DBA90A14924A2E2C2CB600A683C","57F46DBA90A14924A2E2C2CB600A683C","0198ee6a-36fa-7ebd-b864-4d3ae0b1b6ae","0198ee3c-27ac-7803-a9ea-f3b4ad4ad678","{""num_scrambled_semantic"":""8"",""num_scrambled_causal"":""4"",""num_scrambled_schematic"":""4"",""participantId"":""57F46DBA90A14924A2E2C2CB600A683C"",""assignmentId"":""0198ee6a-36fa-7ebd-b864-4d3ae0b1b6ae"",""projectId"":""0198ee3c-27ac-7803-a9ea-f3b4ad4ad678""}","https://test12345.live/?num_scrambled_semantic=8&num_scrambled_causal=4&num_scrambled_schematic=4&participantId=57F46DBA90A14924A2E2C2CB600A683C&assignmentId=0198ee6a-36fa-7ebd-b864-4d3ae0b1b6ae&projectId=0198ee3c-27ac-7803-a9ea-f3b4ad4ad678","57F46DBA90A14924A2E2C2CB600A683C-2025-08-28-02-52-44","","null","","[]","null","",""
"","","","","","html-audio-response","87","358450","0.0-13.0","57F46DBA90A14924A2E2C2CB600A683C","57F46DBA90A14924A2E2C2CB600A683C","0198ee6a-36fa-7ebd-b864-4d3ae0b1b6ae","0198ee3c-27ac-7803-a9ea-f3b4ad4ad678","{""num_scrambled_semantic"":""8"",""num_scrambled_causal"":""4"",""num_scrambled_schematic"":""4"",""participantId"":""57F46DBA90A14924A2E2C2CB600A683C"",""assignmentId"":""0198ee6a-36fa-7ebd-b864-4d3ae0b1b6ae"",""projectId"":""0198ee3c-27ac-7803-a9ea-f3b4ad4ad678""}","https://test12345.live/?num_scrambled_semantic=8&num_scrambled_causal=4&num_scrambled_schematic=4&participantId=57F46DBA90A14924A2E2C2CB600A683C&assignmentId=0198ee6a-36fa-7ebd-b864-4d3ae0b1b6ae&projectId=0198ee3c-27ac-7803-a9ea-f3b4ad4ad678","57F46DBA90A14924A2E2C2CB600A683C-2025-08-28-02-52-44","","23114","","[""<span style=\""color: red; font-size: 24px\""> NOW RECORDING</span><p>Please say out loud all the images you saw, in the order of the story they create. Try to recall the sequence of events as they appeared in the story, not necessarily the order they were presented on the screen.</p>""]","","1","creative_activities_semantic"
"","","","","","image-button-response","88","364453","0.0-14.0-0.0","57F46DBA90A14924A2E2C2CB600A683C","57F46DBA90A14924A2E2C2CB600A683C","0198ee6a-36fa-7ebd-b864-4d3ae0b1b6ae","0198ee3c-27ac-7803-a9ea-f3b4ad4ad678","{""num_scrambled_semantic"":""8"",""num_scrambled_causal"":""4"",""num_scrambled_schematic"":""4"",""participantId"":""57F46DBA90A14924A2E2C2CB600A683C"",""assignmentId"":""0198ee6a-36fa-7ebd-b864-4d3ae0b1b6ae"",""projectId"":""0198ee3c-27ac-7803-a9ea-f3b4ad4ad678""}","https://test12345.live/?num_scrambled_semantic=8&num_scrambled_causal=4&num_scrambled_schematic=4&participantId=57F46DBA90A14924A2E2C2CB600A683C&assignmentId=0198ee6a-36fa-7ebd-b864-4d3ae0b1b6ae&projectId=0198ee3c-27ac-7803-a9ea-f3b4ad4ad678","57F46DBA90A14924A2E2C2CB600A683C-2025-08-28-02-52-44","","null","","images/semantic_sequence/physical_activity_semantic/physical_activity_semantic_0.png","null","",""
"","","","","","image-button-response","89","368961","0.0-14.0-1.0-0.0","57F46DBA90A14924A2E2C2CB600A683C","57F46DBA90A14924A2E2C2CB600A683C","0198ee6a-36fa-7ebd-b864-4d3ae0b1b6ae","0198ee3c-27ac-7803-a9ea-f3b4ad4ad678","{""num_scrambled_semantic"":""8"",""num_scrambled_causal"":""4"",""num_scrambled_schematic"":""4"",""participantId"":""57F46DBA90A14924A2E2C2CB600A683C"",""assignmentId"":""0198ee6a-36fa-7ebd-b864-4d3ae0b1b6ae"",""projectId"":""0198ee3c-27ac-7803-a9ea-f3b4ad4ad678""}","https://test12345.live/?num_scrambled_semantic=8&num_scrambled_causal=4&num_scrambled_schematic=4&participantId=57F46DBA90A14924A2E2C2CB600A683C&assignmentId=0198ee6a-36fa-7ebd-b864-4d3ae0b1b6ae&projectId=0198ee3c-27ac-7803-a9ea-f3b4ad4ad678","57F46DBA90A14924A2E2C2CB600A683C-2025-08-28-02-52-44","","null","","images/semantic_sequence/physical_activity_semantic/physical_activity_semantic_1.png","null","",""
"","","","","","image-button-response","90","370058","0.0-14.0-1.0-1.0","57F46DBA90A14924A2E2C2CB600A683C","57F46DBA90A14924A2E2C2CB600A683C","0198ee6a-36fa-7ebd-b864-4d3ae0b1b6ae","0198ee3c-27ac-7803-a9ea-f3b4ad4ad678","{""num_scrambled_semantic"":""8"",""num_scrambled_causal"":""4"",""num_scrambled_schematic"":""4"",""participantId"":""57F46DBA90A14924A2E2C2CB600A683C"",""assignmentId"":""0198ee6a-36fa-7ebd-b864-4d3ae0b1b6ae"",""projectId"":""0198ee3c-27ac-7803-a9ea-f3b4ad4ad678""}","https://test12345.live/?num_scrambled_semantic=8&num_scrambled_causal=4&num_scrambled_schematic=4&participantId=57F46DBA90A14924A2E2C2CB600A683C&assignmentId=0198ee6a-36fa-7ebd-b864-4d3ae0b1b6ae&projectId=0198ee3c-27ac-7803-a9ea-f3b4ad4ad678","57F46DBA90A14924A2E2C2CB600A683C-2025-08-28-02-52-44","","1096","","images/semantic_sequence/physical_activity_semantic/physical_activity_semantic_1.png","0","",""
"","","","","","image-button-response","91","371858","0.0-14.0-1.0-2.0","57F46DBA90A14924A2E2C2CB600A683C","57F46DBA90A14924A2E2C2CB600A683C","0198ee6a-36fa-7ebd-b864-4d3ae0b1b6ae","0198ee3c-27ac-7803-a9ea-f3b4ad4ad678","{""num_scrambled_semantic"":""8"",""num_scrambled_causal"":""4"",""num_scrambled_schematic"":""4"",""participantId"":""57F46DBA90A14924A2E2C2CB600A683C"",""assignmentId"":""0198ee6a-36fa-7ebd-b864-4d3ae0b1b6ae"",""projectId"":""0198ee3c-27ac-7803-a9ea-f3b4ad4ad678""}","https://test12345.live/?num_scrambled_semantic=8&num_scrambled_causal=4&num_scrambled_schematic=4&participantId=57F46DBA90A14924A2E2C2CB600A683C&assignmentId=0198ee6a-36fa-7ebd-b864-4d3ae0b1b6ae&projectId=0198ee3c-27ac-7803-a9ea-f3b4ad4ad678","57F46DBA90A14924A2E2C2CB600A683C-2025-08-28-02-52-44","","null","","[]","null","",""
"","","","","","image-button-response","92","376359","0.0-14.0-1.0-0.1","57F46DBA90A14924A2E2C2CB600A683C","57F46DBA90A14924A2E2C2CB600A683C","0198ee6a-36fa-7ebd-b864-4d3ae0b1b6ae","0198ee3c-27ac-7803-a9ea-f3b4ad4ad678","{""num_scrambled_semantic"":""8"",""num_scrambled_causal"":""4"",""num_scrambled_schematic"":""4"",""participantId"":""57F46DBA90A14924A2E2C2CB600A683C"",""assignmentId"":""0198ee6a-36fa-7ebd-b864-4d3ae0b1b6ae"",""projectId"":""0198ee3c-27ac-7803-a9ea-f3b4ad4ad678""}","https://test12345.live/?num_scrambled_semantic=8&num_scrambled_causal=4&num_scrambled_schematic=4&participantId=57F46DBA90A14924A2E2C2CB600A683C&assignmentId=0198ee6a-36fa-7ebd-b864-4d3ae0b1b6ae&projectId=0198ee3c-27ac-7803-a9ea-f3b4ad4ad678","57F46DBA90A14924A2E2C2CB600A683C-2025-08-28-02-52-44","","null","","images/semantic_sequence/physical_activity_semantic/physical_activity_semantic_2.png","null","",""
"","","","","","image-button-response","93","377210","0.0-14.0-1.0-1.1","57F46DBA90A14924A2E2C2CB600A683C","57F46DBA90A14924A2E2C2CB600A683C","0198ee6a-36fa-7ebd-b864-4d3ae0b1b6ae","0198ee3c-27ac-7803-a9ea-f3b4ad4ad678","{""num_scrambled_semantic"":""8"",""num_scrambled_causal"":""4"",""num_scrambled_schematic"":""4"",""participantId"":""57F46DBA90A14924A2E2C2CB600A683C"",""assignmentId"":""0198ee6a-36fa-7ebd-b864-4d3ae0b1b6ae"",""projectId"":""0198ee3c-27ac-7803-a9ea-f3b4ad4ad678""}","https://test12345.live/?num_scrambled_semantic=8&num_scrambled_causal=4&num_scrambled_schematic=4&participantId=57F46DBA90A14924A2E2C2CB600A683C&assignmentId=0198ee6a-36fa-7ebd-b864-4d3ae0b1b6ae&projectId=0198ee3c-27ac-7803-a9ea-f3b4ad4ad678","57F46DBA90A14924A2E2C2CB600A683C-2025-08-28-02-52-44","","846","","images/semantic_sequence/physical_activity_semantic/physical_activity_semantic_2.png","0","",""
"","","","","","image-button-response","94","379011","0.0-14.0-1.0-2.1","57F46DBA90A14924A2E2C2CB600A683C","57F46DBA90A14924A2E2C2CB600A683C","0198ee6a-36fa-7ebd-b864-4d3ae0b1b6ae","0198ee3c-27ac-7803-a9ea-f3b4ad4ad678","{""num_scrambled_semantic"":""8"",""num_scrambled_causal"":""4"",""num_scrambled_schematic"":""4"",""participantId"":""57F46DBA90A14924A2E2C2CB600A683C"",""assignmentId"":""0198ee6a-36fa-7ebd-b864-4d3ae0b1b6ae"",""projectId"":""0198ee3c-27ac-7803-a9ea-f3b4ad4ad678""}","https://test12345.live/?num_scrambled_semantic=8&num_scrambled_causal=4&num_scrambled_schematic=4&participantId=57F46DBA90A14924A2E2C2CB600A683C&assignmentId=0198ee6a-36fa-7ebd-b864-4d3ae0b1b6ae&projectId=0198ee3c-27ac-7803-a9ea-f3b4ad4ad678","57F46DBA90A14924A2E2C2CB600A683C-2025-08-28-02-52-44","","null","","[]","null","",""
"","","","","","image-button-response","95","383513","0.0-14.0-1.0-0.2","57F46DBA90A14924A2E2C2CB600A683C","57F46DBA90A14924A2E2C2CB600A683C","0198ee6a-36fa-7ebd-b864-4d3ae0b1b6ae","0198ee3c-27ac-7803-a9ea-f3b4ad4ad678","{""num_scrambled_semantic"":""8"",""num_scrambled_causal"":""4"",""num_scrambled_schematic"":""4"",""participantId"":""57F46DBA90A14924A2E2C2CB600A683C"",""assignmentId"":""0198ee6a-36fa-7ebd-b864-4d3ae0b1b6ae"",""projectId"":""0198ee3c-27ac-7803-a9ea-f3b4ad4ad678""}","https://test12345.live/?num_scrambled_semantic=8&num_scrambled_causal=4&num_scrambled_schematic=4&participantId=57F46DBA90A14924A2E2C2CB600A683C&assignmentId=0198ee6a-36fa-7ebd-b864-4d3ae0b1b6ae&projectId=0198ee3c-27ac-7803-a9ea-f3b4ad4ad678","57F46DBA90A14924A2E2C2CB600A683C-2025-08-28-02-52-44","","null","","images/semantic_sequence/physical_activity_semantic/physical_activity_semantic_3.png","null","",""
"","","","","","image-button-response","96","385402","0.0-14.0-1.0-1.2","57F46DBA90A14924A2E2C2CB600A683C","57F46DBA90A14924A2E2C2CB600A683C","0198ee6a-36fa-7ebd-b864-4d3ae0b1b6ae","0198ee3c-27ac-7803-a9ea-f3b4ad4ad678","{""num_scrambled_semantic"":""8"",""num_scrambled_causal"":""4"",""num_scrambled_schematic"":""4"",""participantId"":""57F46DBA90A14924A2E2C2CB600A683C"",""assignmentId"":""0198ee6a-36fa-7ebd-b864-4d3ae0b1b6ae"",""projectId"":""0198ee3c-27ac-7803-a9ea-f3b4ad4ad678""}","https://test12345.live/?num_scrambled_semantic=8&num_scrambled_causal=4&num_scrambled_schematic=4&participantId=57F46DBA90A14924A2E2C2CB600A683C&assignmentId=0198ee6a-36fa-7ebd-b864-4d3ae0b1b6ae&projectId=0198ee3c-27ac-7803-a9ea-f3b4ad4ad678","57F46DBA90A14924A2E2C2CB600A683C-2025-08-28-02-52-44","","1888","","images/semantic_sequence/physical_activity_semantic/physical_activity_semantic_3.png","0","",""
"","","","","","image-button-response","97","387203","0.0-14.0-1.0-2.2","57F46DBA90A14924A2E2C2CB600A683C","57F46DBA90A14924A2E2C2CB600A683C","0198ee6a-36fa-7ebd-b864-4d3ae0b1b6ae","0198ee3c-27ac-7803-a9ea-f3b4ad4ad678","{""num_scrambled_semantic"":""8"",""num_scrambled_causal"":""4"",""num_scrambled_schematic"":""4"",""participantId"":""57F46DBA90A14924A2E2C2CB600A683C"",""assignmentId"":""0198ee6a-36fa-7ebd-b864-4d3ae0b1b6ae"",""projectId"":""0198ee3c-27ac-7803-a9ea-f3b4ad4ad678""}","https://test12345.live/?num_scrambled_semantic=8&num_scrambled_causal=4&num_scrambled_schematic=4&participantId=57F46DBA90A14924A2E2C2CB600A683C&assignmentId=0198ee6a-36fa-7ebd-b864-4d3ae0b1b6ae&projectId=0198ee3c-27ac-7803-a9ea-f3b4ad4ad678","57F46DBA90A14924A2E2C2CB600A683C-2025-08-28-02-52-44","","null","","[]","null","",""
"","","","","","image-button-response","98","391707","0.0-14.0-1.0-0.3","57F46DBA90A14924A2E2C2CB600A683C","57F46DBA90A14924A2E2C2CB600A683C","0198ee6a-36fa-7ebd-b864-4d3ae0b1b6ae","0198ee3c-27ac-7803-a9ea-f3b4ad4ad678","{""num_scrambled_semantic"":""8"",""num_scrambled_causal"":""4"",""num_scrambled_schematic"":""4"",""participantId"":""57F46DBA90A14924A2E2C2CB600A683C"",""assignmentId"":""0198ee6a-36fa-7ebd-b864-4d3ae0b1b6ae"",""projectId"":""0198ee3c-27ac-7803-a9ea-f3b4ad4ad678""}","https://test12345.live/?num_scrambled_semantic=8&num_scrambled_causal=4&num_scrambled_schematic=4&participantId=57F46DBA90A14924A2E2C2CB600A683C&assignmentId=0198ee6a-36fa-7ebd-b864-4d3ae0b1b6ae&projectId=0198ee3c-27ac-7803-a9ea-f3b4ad4ad678","57F46DBA90A14924A2E2C2CB600A683C-2025-08-28-02-52-44","","null","","images/semantic_sequence/physical_activity_semantic/physical_activity_semantic_4.png","null","",""
"","","","","","image-button-response","99","392827","0.0-14.0-1.0-1.3","57F46DBA90A14924A2E2C2CB600A683C","57F46DBA90A14924A2E2C2CB600A683C","0198ee6a-36fa-7ebd-b864-4d3ae0b1b6ae","0198ee3c-27ac-7803-a9ea-f3b4ad4ad678","{""num_scrambled_semantic"":""8"",""num_scrambled_causal"":""4"",""num_scrambled_schematic"":""4"",""participantId"":""57F46DBA90A14924A2E2C2CB600A683C"",""assignmentId"":""0198ee6a-36fa-7ebd-b864-4d3ae0b1b6ae"",""projectId"":""0198ee3c-27ac-7803-a9ea-f3b4ad4ad678""}","https://test12345.live/?num_scrambled_semantic=8&num_scrambled_causal=4&num_scrambled_schematic=4&participantId=57F46DBA90A14924A2E2C2CB600A683C&assignmentId=0198ee6a-36fa-7ebd-b864-4d3ae0b1b6ae&projectId=0198ee3c-27ac-7803-a9ea-f3b4ad4ad678","57F46DBA90A14924A2E2C2CB600A683C-2025-08-28-02-52-44","","1120","","images/semantic_sequence/physical_activity_semantic/physical_activity_semantic_4.png","0","",""
"","","","","","image-button-response","100","394635","0.0-14.0-1.0-2.3","57F46DBA90A14924A2E2C2CB600A683C","57F46DBA90A14924A2E2C2CB600A683C","0198ee6a-36fa-7ebd-b864-4d3ae0b1b6ae","0198ee3c-27ac-7803-a9ea-f3b4ad4ad678","{""num_scrambled_semantic"":""8"",""num_scrambled_causal"":""4"",""num_scrambled_schematic"":""4"",""participantId"":""57F46DBA90A14924A2E2C2CB600A683C"",""assignmentId"":""0198ee6a-36fa-7ebd-b864-4d3ae0b1b6ae"",""projectId"":""0198ee3c-27ac-7803-a9ea-f3b4ad4ad678""}","https://test12345.live/?num_scrambled_semantic=8&num_scrambled_causal=4&num_scrambled_schematic=4&participantId=57F46DBA90A14924A2E2C2CB600A683C&assignmentId=0198ee6a-36fa-7ebd-b864-4d3ae0b1b6ae&projectId=0198ee3c-27ac-7803-a9ea-f3b4ad4ad678","57F46DBA90A14924A2E2C2CB600A683C-2025-08-28-02-52-44","","null","","[]","null","",""
"","","","","","image-button-response","101","399142","0.0-14.0-1.0-0.4","57F46DBA90A14924A2E2C2CB600A683C","57F46DBA90A14924A2E2C2CB600A683C","0198ee6a-36fa-7ebd-b864-4d3ae0b1b6ae","0198ee3c-27ac-7803-a9ea-f3b4ad4ad678","{""num_scrambled_semantic"":""8"",""num_scrambled_causal"":""4"",""num_scrambled_schematic"":""4"",""participantId"":""57F46DBA90A14924A2E2C2CB600A683C"",""assignmentId"":""0198ee6a-36fa-7ebd-b864-4d3ae0b1b6ae"",""projectId"":""0198ee3c-27ac-7803-a9ea-f3b4ad4ad678""}","https://test12345.live/?num_scrambled_semantic=8&num_scrambled_causal=4&num_scrambled_schematic=4&participantId=57F46DBA90A14924A2E2C2CB600A683C&assignmentId=0198ee6a-36fa-7ebd-b864-4d3ae0b1b6ae&projectId=0198ee3c-27ac-7803-a9ea-f3b4ad4ad678","57F46DBA90A14924A2E2C2CB600A683C-2025-08-28-02-52-44","","null","","images/semantic_sequence/physical_activity_semantic/physical_activity_semantic_5.png","null","",""
"","","","","","image-button-response","102","400035","0.0-14.0-1.0-1.4","57F46DBA90A14924A2E2C2CB600A683C","57F46DBA90A14924A2E2C2CB600A683C","0198ee6a-36fa-7ebd-b864-4d3ae0b1b6ae","0198ee3c-27ac-7803-a9ea-f3b4ad4ad678","{""num_scrambled_semantic"":""8"",""num_scrambled_causal"":""4"",""num_scrambled_schematic"":""4"",""participantId"":""57F46DBA90A14924A2E2C2CB600A683C"",""assignmentId"":""0198ee6a-36fa-7ebd-b864-4d3ae0b1b6ae"",""projectId"":""0198ee3c-27ac-7803-a9ea-f3b4ad4ad678""}","https://test12345.live/?num_scrambled_semantic=8&num_scrambled_causal=4&num_scrambled_schematic=4&participantId=57F46DBA90A14924A2E2C2CB600A683C&assignmentId=0198ee6a-36fa-7ebd-b864-4d3ae0b1b6ae&projectId=0198ee3c-27ac-7803-a9ea-f3b4ad4ad678","57F46DBA90A14924A2E2C2CB600A683C-2025-08-28-02-52-44","","892","","images/semantic_sequence/physical_activity_semantic/physical_activity_semantic_5.png","0","",""
"","","","","","image-button-response","103","401837","0.0-14.0-1.0-2.4","57F46DBA90A14924A2E2C2CB600A683C","57F46DBA90A14924A2E2C2CB600A683C","0198ee6a-36fa-7ebd-b864-4d3ae0b1b6ae","0198ee3c-27ac-7803-a9ea-f3b4ad4ad678","{""num_scrambled_semantic"":""8"",""num_scrambled_causal"":""4"",""num_scrambled_schematic"":""4"",""participantId"":""57F46DBA90A14924A2E2C2CB600A683C"",""assignmentId"":""0198ee6a-36fa-7ebd-b864-4d3ae0b1b6ae"",""projectId"":""0198ee3c-27ac-7803-a9ea-f3b4ad4ad678""}","https://test12345.live/?num_scrambled_semantic=8&num_scrambled_causal=4&num_scrambled_schematic=4&participantId=57F46DBA90A14924A2E2C2CB600A683C&assignmentId=0198ee6a-36fa-7ebd-b864-4d3ae0b1b6ae&projectId=0198ee3c-27ac-7803-a9ea-f3b4ad4ad678","57F46DBA90A14924A2E2C2CB600A683C-2025-08-28-02-52-44","","null","","[]","null","",""
"","","","","","image-button-response","104","406349","0.0-14.0-1.0-0.5","57F46DBA90A14924A2E2C2CB600A683C","57F46DBA90A14924A2E2C2CB600A683C","0198ee6a-36fa-7ebd-b864-4d3ae0b1b6ae","0198ee3c-27ac-7803-a9ea-f3b4ad4ad678","{""num_scrambled_semantic"":""8"",""num_scrambled_causal"":""4"",""num_scrambled_schematic"":""4"",""participantId"":""57F46DBA90A14924A2E2C2CB600A683C"",""assignmentId"":""0198ee6a-36fa-7ebd-b864-4d3ae0b1b6ae"",""projectId"":""0198ee3c-27ac-7803-a9ea-f3b4ad4ad678""}","https://test12345.live/?num_scrambled_semantic=8&num_scrambled_causal=4&num_scrambled_schematic=4&participantId=57F46DBA90A14924A2E2C2CB600A683C&assignmentId=0198ee6a-36fa-7ebd-b864-4d3ae0b1b6ae&projectId=0198ee3c-27ac-7803-a9ea-f3b4ad4ad678","57F46DBA90A14924A2E2C2CB600A683C-2025-08-28-02-52-44","","null","","images/semantic_sequence/physical_activity_semantic/physical_activity_semantic_6.png","null","",""
"","","","","","image-button-response","105","407267","0.0-14.0-1.0-1.5","57F46DBA90A14924A2E2C2CB600A683C","57F46DBA90A14924A2E2C2CB600A683C","0198ee6a-36fa-7ebd-b864-4d3ae0b1b6ae","0198ee3c-27ac-7803-a9ea-f3b4ad4ad678","{""num_scrambled_semantic"":""8"",""num_scrambled_causal"":""4"",""num_scrambled_schematic"":""4"",""participantId"":""57F46DBA90A14924A2E2C2CB600A683C"",""assignmentId"":""0198ee6a-36fa-7ebd-b864-4d3ae0b1b6ae"",""projectId"":""0198ee3c-27ac-7803-a9ea-f3b4ad4ad678""}","https://test12345.live/?num_scrambled_semantic=8&num_scrambled_causal=4&num_scrambled_schematic=4&participantId=57F46DBA90A14924A2E2C2CB600A683C&assignmentId=0198ee6a-36fa-7ebd-b864-4d3ae0b1b6ae&projectId=0198ee3c-27ac-7803-a9ea-f3b4ad4ad678","57F46DBA90A14924A2E2C2CB600A683C-2025-08-28-02-52-44","","917","","images/semantic_sequence/physical_activity_semantic/physical_activity_semantic_6.png","0","",""
"","","","","","image-button-response","106","409071","0.0-14.0-1.0-2.5","57F46DBA90A14924A2E2C2CB600A683C","57F46DBA90A14924A2E2C2CB600A683C","0198ee6a-36fa-7ebd-b864-4d3ae0b1b6ae","0198ee3c-27ac-7803-a9ea-f3b4ad4ad678","{""num_scrambled_semantic"":""8"",""num_scrambled_causal"":""4"",""num_scrambled_schematic"":""4"",""participantId"":""57F46DBA90A14924A2E2C2CB600A683C"",""assignmentId"":""0198ee6a-36fa-7ebd-b864-4d3ae0b1b6ae"",""projectId"":""0198ee3c-27ac-7803-a9ea-f3b4ad4ad678""}","https://test12345.live/?num_scrambled_semantic=8&num_scrambled_causal=4&num_scrambled_schematic=4&participantId=57F46DBA90A14924A2E2C2CB600A683C&assignmentId=0198ee6a-36fa-7ebd-b864-4d3ae0b1b6ae&projectId=0198ee3c-27ac-7803-a9ea-f3b4ad4ad678","57F46DBA90A14924A2E2C2CB600A683C-2025-08-28-02-52-44","","null","","[]","null","",""
"","","","","","image-button-response","107","413572","0.0-14.0-1.0-0.6","57F46DBA90A14924A2E2C2CB600A683C","57F46DBA90A14924A2E2C2CB600A683C","0198ee6a-36fa-7ebd-b864-4d3ae0b1b6ae","0198ee3c-27ac-7803-a9ea-f3b4ad4ad678","{""num_scrambled_semantic"":""8"",""num_scrambled_causal"":""4"",""num_scrambled_schematic"":""4"",""participantId"":""57F46DBA90A14924A2E2C2CB600A683C"",""assignmentId"":""0198ee6a-36fa-7ebd-b864-4d3ae0b1b6ae"",""projectId"":""0198ee3c-27ac-7803-a9ea-f3b4ad4ad678""}","https://test12345.live/?num_scrambled_semantic=8&num_scrambled_causal=4&num_scrambled_schematic=4&participantId=57F46DBA90A14924A2E2C2CB600A683C&assignmentId=0198ee6a-36fa-7ebd-b864-4d3ae0b1b6ae&projectId=0198ee3c-27ac-7803-a9ea-f3b4ad4ad678","57F46DBA90A14924A2E2C2CB600A683C-2025-08-28-02-52-44","","null","","images/semantic_sequence/physical_activity_semantic/physical_activity_semantic_7.png","null","",""
"","","","","","image-button-response","108","414459","0.0-14.0-1.0-1.6","57F46DBA90A14924A2E2C2CB600A683C","57F46DBA90A14924A2E2C2CB600A683C","0198ee6a-36fa-7ebd-b864-4d3ae0b1b6ae","0198ee3c-27ac-7803-a9ea-f3b4ad4ad678","{""num_scrambled_semantic"":""8"",""num_scrambled_causal"":""4"",""num_scrambled_schematic"":""4"",""participantId"":""57F46DBA90A14924A2E2C2CB600A683C"",""assignmentId"":""0198ee6a-36fa-7ebd-b864-4d3ae0b1b6ae"",""projectId"":""0198ee3c-27ac-7803-a9ea-f3b4ad4ad678""}","https://test12345.live/?num_scrambled_semantic=8&num_scrambled_causal=4&num_scrambled_schematic=4&participantId=57F46DBA90A14924A2E2C2CB600A683C&assignmentId=0198ee6a-36fa-7ebd-b864-4d3ae0b1b6ae&projectId=0198ee3c-27ac-7803-a9ea-f3b4ad4ad678","57F46DBA90A14924A2E2C2CB600A683C-2025-08-28-02-52-44","","886","","images/semantic_sequence/physical_activity_semantic/physical_activity_semantic_7.png","0","",""
"","","","","","image-button-response","109","416273","0.0-14.0-1.0-2.6","57F46DBA90A14924A2E2C2CB600A683C","57F46DBA90A14924A2E2C2CB600A683C","0198ee6a-36fa-7ebd-b864-4d3ae0b1b6ae","0198ee3c-27ac-7803-a9ea-f3b4ad4ad678","{""num_scrambled_semantic"":""8"",""num_scrambled_causal"":""4"",""num_scrambled_schematic"":""4"",""participantId"":""57F46DBA90A14924A2E2C2CB600A683C"",""assignmentId"":""0198ee6a-36fa-7ebd-b864-4d3ae0b1b6ae"",""projectId"":""0198ee3c-27ac-7803-a9ea-f3b4ad4ad678""}","https://test12345.live/?num_scrambled_semantic=8&num_scrambled_causal=4&num_scrambled_schematic=4&participantId=57F46DBA90A14924A2E2C2CB600A683C&assignmentId=0198ee6a-36fa-7ebd-b864-4d3ae0b1b6ae&projectId=0198ee3c-27ac-7803-a9ea-f3b4ad4ad678","57F46DBA90A14924A2E2C2CB600A683C-2025-08-28-02-52-44","","null","","[]","null","",""
"","","","","","image-button-response","110","420785","0.0-14.0-1.0-0.7","57F46DBA90A14924A2E2C2CB600A683C","57F46DBA90A14924A2E2C2CB600A683C","0198ee6a-36fa-7ebd-b864-4d3ae0b1b6ae","0198ee3c-27ac-7803-a9ea-f3b4ad4ad678","{""num_scrambled_semantic"":""8"",""num_scrambled_causal"":""4"",""num_scrambled_schematic"":""4"",""participantId"":""57F46DBA90A14924A2E2C2CB600A683C"",""assignmentId"":""0198ee6a-36fa-7ebd-b864-4d3ae0b1b6ae"",""projectId"":""0198ee3c-27ac-7803-a9ea-f3b4ad4ad678""}","https://test12345.live/?num_scrambled_semantic=8&num_scrambled_causal=4&num_scrambled_schematic=4&participantId=57F46DBA90A14924A2E2C2CB600A683C&assignmentId=0198ee6a-36fa-7ebd-b864-4d3ae0b1b6ae&projectId=0198ee3c-27ac-7803-a9ea-f3b4ad4ad678","57F46DBA90A14924A2E2C2CB600A683C-2025-08-28-02-52-44","","null","","images/semantic_sequence/physical_activity_semantic/physical_activity_semantic_8.png","null","",""
"","","","","","image-button-response","111","422348","0.0-14.0-1.0-1.7","57F46DBA90A14924A2E2C2CB600A683C","57F46DBA90A14924A2E2C2CB600A683C","0198ee6a-36fa-7ebd-b864-4d3ae0b1b6ae","0198ee3c-27ac-7803-a9ea-f3b4ad4ad678","{""num_scrambled_semantic"":""8"",""num_scrambled_causal"":""4"",""num_scrambled_schematic"":""4"",""participantId"":""57F46DBA90A14924A2E2C2CB600A683C"",""assignmentId"":""0198ee6a-36fa-7ebd-b864-4d3ae0b1b6ae"",""projectId"":""0198ee3c-27ac-7803-a9ea-f3b4ad4ad678""}","https://test12345.live/?num_scrambled_semantic=8&num_scrambled_causal=4&num_scrambled_schematic=4&participantId=57F46DBA90A14924A2E2C2CB600A683C&assignmentId=0198ee6a-36fa-7ebd-b864-4d3ae0b1b6ae&projectId=0198ee3c-27ac-7803-a9ea-f3b4ad4ad678","57F46DBA90A14924A2E2C2CB600A683C-2025-08-28-02-52-44","","1562","","images/semantic_sequence/physical_activity_semantic/physical_activity_semantic_8.png","0","",""
"","","","","","image-button-response","112","424154","0.0-14.0-1.0-2.7","57F46DBA90A14924A2E2C2CB600A683C","57F46DBA90A14924A2E2C2CB600A683C","0198ee6a-36fa-7ebd-b864-4d3ae0b1b6ae","0198ee3c-27ac-7803-a9ea-f3b4ad4ad678","{""num_scrambled_semantic"":""8"",""num_scrambled_causal"":""4"",""num_scrambled_schematic"":""4"",""participantId"":""57F46DBA90A14924A2E2C2CB600A683C"",""assignmentId"":""0198ee6a-36fa-7ebd-b864-4d3ae0b1b6ae"",""projectId"":""0198ee3c-27ac-7803-a9ea-f3b4ad4ad678""}","https://test12345.live/?num_scrambled_semantic=8&num_scrambled_causal=4&num_scrambled_schematic=4&participantId=57F46DBA90A14924A2E2C2CB600A683C&assignmentId=0198ee6a-36fa-7ebd-b864-4d3ae0b1b6ae&projectId=0198ee3c-27ac-7803-a9ea-f3b4ad4ad678","57F46DBA90A14924A2E2C2CB600A683C-2025-08-28-02-52-44","","null","","[]","null","",""
