"success","timeout","failed_images","failed_audio","failed_video","trial_type","trial_index","time_elapsed","internal_node_id","subject","subject_id","study_id","session_id","urlvar","current_url","audio_id","view_history","rt","device_id","stimulus","response","estimated_stimulus_onset","seq_name"
"true","false","[]","[]","[]","preload","0","11686","0.0-0.0","5825BEB745EF4B119E83C1DF24B5AA8D","5825BEB745EF4B119E83C1DF24B5AA8D","6fe7a502-0adf-473a-8674-ab1469137fc2","051c06f1-75cc-4548-856d-4923ddaba0dc","{""num_scrambled_semantic"":""8"",""num_scrambled_causal"":""4"",""num_scrambled_schematic"":""4"",""participantId"":""5825BEB745EF4B119E83C1DF24B5AA8D"",""assignmentId"":""6fe7a502-0adf-473a-8674-ab1469137fc2"",""projectId"":""051c06f1-75cc-4548-856d-4923ddaba0dc""}","https://test12345.live/?num_scrambled_semantic=8&num_scrambled_causal=4&num_scrambled_schematic=4&participantId=5825BEB745EF4B119E83C1DF24B5AA8D&assignmentId=6fe7a502-0adf-473a-8674-ab1469137fc2&projectId=051c06f1-75cc-4548-856d-4923ddaba0dc","5825BEB745EF4B119E83C1DF24B5AA8D-2025-05-15-18-58-39","","","","","","",""
"","","","","","instructions","1","49660","0.0-1.0","5825BEB745EF4B119E83C1DF24B5AA8D","5825BEB745EF4B119E83C1DF24B5AA8D","6fe7a502-0adf-473a-8674-ab1469137fc2","051c06f1-75cc-4548-856d-4923ddaba0dc","{""num_scrambled_semantic"":""8"",""num_scrambled_causal"":""4"",""num_scrambled_schematic"":""4"",""participantId"":""5825BEB745EF4B119E83C1DF24B5AA8D"",""assignmentId"":""6fe7a502-0adf-473a-8674-ab1469137fc2"",""projectId"":""051c06f1-75cc-4548-856d-4923ddaba0dc""}","https://test12345.live/?num_scrambled_semantic=8&num_scrambled_causal=4&num_scrambled_schematic=4&participantId=5825BEB745EF4B119E83C1DF24B5AA8D&assignmentId=6fe7a502-0adf-473a-8674-ab1469137fc2&projectId=051c06f1-75cc-4548-856d-4923ddaba0dc","5825BEB745EF4B119E83C1DF24B5AA8D-2025-05-15-18-58-39","[{""page_index"":0,""viewing_time"":37974}]","37974","","","","",""
"","","","","","instructions","2","84179","0.0-2.0","5825BEB745EF4B119E83C1DF24B5AA8D","5825BEB745EF4B119E83C1DF24B5AA8D","6fe7a502-0adf-473a-8674-ab1469137fc2","051c06f1-75cc-4548-856d-4923ddaba0dc","{""num_scrambled_semantic"":""8"",""num_scrambled_causal"":""4"",""num_scrambled_schematic"":""4"",""participantId"":""5825BEB745EF4B119E83C1DF24B5AA8D"",""assignmentId"":""6fe7a502-0adf-473a-8674-ab1469137fc2"",""projectId"":""051c06f1-75cc-4548-856d-4923ddaba0dc""}","https://test12345.live/?num_scrambled_semantic=8&num_scrambled_causal=4&num_scrambled_schematic=4&participantId=5825BEB745EF4B119E83C1DF24B5AA8D&assignmentId=6fe7a502-0adf-473a-8674-ab1469137fc2&projectId=051c06f1-75cc-4548-856d-4923ddaba0dc","5825BEB745EF4B119E83C1DF24B5AA8D-2025-05-15-18-58-39","[{""page_index"":0,""viewing_time"":34519}]","34519","","","","",""
"true","","","","","fullscreen","3","87534","0.0-3.0","5825BEB745EF4B119E83C1DF24B5AA8D","5825BEB745EF4B119E83C1DF24B5AA8D","6fe7a502-0adf-473a-8674-ab1469137fc2","051c06f1-75cc-4548-856d-4923ddaba0dc","{""num_scrambled_semantic"":""8"",""num_scrambled_causal"":""4"",""num_scrambled_schematic"":""4"",""participantId"":""5825BEB745EF4B119E83C1DF24B5AA8D"",""assignmentId"":""6fe7a502-0adf-473a-8674-ab1469137fc2"",""projectId"":""051c06f1-75cc-4548-856d-4923ddaba0dc""}","https://test12345.live/?num_scrambled_semantic=8&num_scrambled_causal=4&num_scrambled_schematic=4&participantId=5825BEB745EF4B119E83C1DF24B5AA8D&assignmentId=6fe7a502-0adf-473a-8674-ab1469137fc2&projectId=051c06f1-75cc-4548-856d-4923ddaba0dc","5825BEB745EF4B119E83C1DF24B5AA8D-2025-05-15-18-58-39","","2332","","","","",""
"","","","","","initialize-microphone","4","104341","0.0-4.0-0.0","5825BEB745EF4B119E83C1DF24B5AA8D","5825BEB745EF4B119E83C1DF24B5AA8D","6fe7a502-0adf-473a-8674-ab1469137fc2","051c06f1-75cc-4548-856d-4923ddaba0dc","{""num_scrambled_semantic"":""8"",""num_scrambled_causal"":""4"",""num_scrambled_schematic"":""4"",""participantId"":""5825BEB745EF4B119E83C1DF24B5AA8D"",""assignmentId"":""6fe7a502-0adf-473a-8674-ab1469137fc2"",""projectId"":""051c06f1-75cc-4548-856d-4923ddaba0dc""}","https://test12345.live/?num_scrambled_semantic=8&num_scrambled_causal=4&num_scrambled_schematic=4&participantId=5825BEB745EF4B119E83C1DF24B5AA8D&assignmentId=6fe7a502-0adf-473a-8674-ab1469137fc2&projectId=051c06f1-75cc-4548-856d-4923ddaba0dc","5825BEB745EF4B119E83C1DF24B5AA8D-2025-05-15-18-58-39","","","c7d53d5ae280a263764f726140e01dc08087aff5ca9dc38a9bc4202c101c26c4","","","",""
"","","","","","html-audio-response","5","115424","0.0-4.0-1.0","5825BEB745EF4B119E83C1DF24B5AA8D","5825BEB745EF4B119E83C1DF24B5AA8D","6fe7a502-0adf-473a-8674-ab1469137fc2","051c06f1-75cc-4548-856d-4923ddaba0dc","{""num_scrambled_semantic"":""8"",""num_scrambled_causal"":""4"",""num_scrambled_schematic"":""4"",""participantId"":""5825BEB745EF4B119E83C1DF24B5AA8D"",""assignmentId"":""6fe7a502-0adf-473a-8674-ab1469137fc2"",""projectId"":""051c06f1-75cc-4548-856d-4923ddaba0dc""}","https://test12345.live/?num_scrambled_semantic=8&num_scrambled_causal=4&num_scrambled_schematic=4&participantId=5825BEB745EF4B119E83C1DF24B5AA8D&assignmentId=6fe7a502-0adf-473a-8674-ab1469137fc2&projectId=051c06f1-75cc-4548-856d-4923ddaba0dc","5825BEB745EF4B119E83C1DF24B5AA8D-2025-05-15-18-58-39","","4258","","<span style=""color: red; font-size: 24px""> NOW RECORDING</span>
        <p>Please test Microphone</p>","","3",""
"","","","","","html-button-response","6","117148","0.0-4.0-2.0","5825BEB745EF4B119E83C1DF24B5AA8D","5825BEB745EF4B119E83C1DF24B5AA8D","6fe7a502-0adf-473a-8674-ab1469137fc2","051c06f1-75cc-4548-856d-4923ddaba0dc","{""num_scrambled_semantic"":""8"",""num_scrambled_causal"":""4"",""num_scrambled_schematic"":""4"",""participantId"":""5825BEB745EF4B119E83C1DF24B5AA8D"",""assignmentId"":""6fe7a502-0adf-473a-8674-ab1469137fc2"",""projectId"":""051c06f1-75cc-4548-856d-4923ddaba0dc""}","https://test12345.live/?num_scrambled_semantic=8&num_scrambled_causal=4&num_scrambled_schematic=4&participantId=5825BEB745EF4B119E83C1DF24B5AA8D&assignmentId=6fe7a502-0adf-473a-8674-ab1469137fc2&projectId=051c06f1-75cc-4548-856d-4923ddaba0dc","5825BEB745EF4B119E83C1DF24B5AA8D-2025-05-15-18-58-39","","1723","","<p style=""font-size:48px; color:red;"">Is Microphone OK?</p>","1","",""
"","","","","","instructions","7","130660","0.0-5.0","5825BEB745EF4B119E83C1DF24B5AA8D","5825BEB745EF4B119E83C1DF24B5AA8D","6fe7a502-0adf-473a-8674-ab1469137fc2","051c06f1-75cc-4548-856d-4923ddaba0dc","{""num_scrambled_semantic"":""8"",""num_scrambled_causal"":""4"",""num_scrambled_schematic"":""4"",""participantId"":""5825BEB745EF4B119E83C1DF24B5AA8D"",""assignmentId"":""6fe7a502-0adf-473a-8674-ab1469137fc2"",""projectId"":""051c06f1-75cc-4548-856d-4923ddaba0dc""}","https://test12345.live/?num_scrambled_semantic=8&num_scrambled_causal=4&num_scrambled_schematic=4&participantId=5825BEB745EF4B119E83C1DF24B5AA8D&assignmentId=6fe7a502-0adf-473a-8674-ab1469137fc2&projectId=051c06f1-75cc-4548-856d-4923ddaba0dc","5825BEB745EF4B119E83C1DF24B5AA8D-2025-05-15-18-58-39","[{""page_index"":0,""viewing_time"":6079},{""page_index"":1,""viewing_time"":7432}]","13511","","","","",""
"","","","","","image-button-response","8","136674","0.0-6.0-0.0","5825BEB745EF4B119E83C1DF24B5AA8D","5825BEB745EF4B119E83C1DF24B5AA8D","6fe7a502-0adf-473a-8674-ab1469137fc2","051c06f1-75cc-4548-856d-4923ddaba0dc","{""num_scrambled_semantic"":""8"",""num_scrambled_causal"":""4"",""num_scrambled_schematic"":""4"",""participantId"":""5825BEB745EF4B119E83C1DF24B5AA8D"",""assignmentId"":""6fe7a502-0adf-473a-8674-ab1469137fc2"",""projectId"":""051c06f1-75cc-4548-856d-4923ddaba0dc""}","https://test12345.live/?num_scrambled_semantic=8&num_scrambled_causal=4&num_scrambled_schematic=4&participantId=5825BEB745EF4B119E83C1DF24B5AA8D&assignmentId=6fe7a502-0adf-473a-8674-ab1469137fc2&projectId=051c06f1-75cc-4548-856d-4923ddaba0dc","5825BEB745EF4B119E83C1DF24B5AA8D-2025-05-15-18-58-39","","null","","images/instructions/movie_0.png","null","",""
"","","","","","image-button-response","9","141185","0.0-6.0-1.0-0.0","5825BEB745EF4B119E83C1DF24B5AA8D","5825BEB745EF4B119E83C1DF24B5AA8D","6fe7a502-0adf-473a-8674-ab1469137fc2","051c06f1-75cc-4548-856d-4923ddaba0dc","{""num_scrambled_semantic"":""8"",""num_scrambled_causal"":""4"",""num_scrambled_schematic"":""4"",""participantId"":""5825BEB745EF4B119E83C1DF24B5AA8D"",""assignmentId"":""6fe7a502-0adf-473a-8674-ab1469137fc2"",""projectId"":""051c06f1-75cc-4548-856d-4923ddaba0dc""}","https://test12345.live/?num_scrambled_semantic=8&num_scrambled_causal=4&num_scrambled_schematic=4&participantId=5825BEB745EF4B119E83C1DF24B5AA8D&assignmentId=6fe7a502-0adf-473a-8674-ab1469137fc2&projectId=051c06f1-75cc-4548-856d-4923ddaba0dc","5825BEB745EF4B119E83C1DF24B5AA8D-2025-05-15-18-58-39","","null","","images/instructions/movie_1.png","null","",""
"","","","","","image-button-response","10","145187","0.0-6.0-1.0-1.0","5825BEB745EF4B119E83C1DF24B5AA8D","5825BEB745EF4B119E83C1DF24B5AA8D","6fe7a502-0adf-473a-8674-ab1469137fc2","051c06f1-75cc-4548-856d-4923ddaba0dc","{""num_scrambled_semantic"":""8"",""num_scrambled_causal"":""4"",""num_scrambled_schematic"":""4"",""participantId"":""5825BEB745EF4B119E83C1DF24B5AA8D"",""assignmentId"":""6fe7a502-0adf-473a-8674-ab1469137fc2"",""projectId"":""051c06f1-75cc-4548-856d-4923ddaba0dc""}","https://test12345.live/?num_scrambled_semantic=8&num_scrambled_causal=4&num_scrambled_schematic=4&participantId=5825BEB745EF4B119E83C1DF24B5AA8D&assignmentId=6fe7a502-0adf-473a-8674-ab1469137fc2&projectId=051c06f1-75cc-4548-856d-4923ddaba0dc","5825BEB745EF4B119E83C1DF24B5AA8D-2025-05-15-18-58-39","","null","","images/instructions/movie_1.png","null","",""
"","","","","","image-button-response","11","147003","0.0-6.0-1.0-2.0","5825BEB745EF4B119E83C1DF24B5AA8D","5825BEB745EF4B119E83C1DF24B5AA8D","6fe7a502-0adf-473a-8674-ab1469137fc2","051c06f1-75cc-4548-856d-4923ddaba0dc","{""num_scrambled_semantic"":""8"",""num_scrambled_causal"":""4"",""num_scrambled_schematic"":""4"",""participantId"":""5825BEB745EF4B119E83C1DF24B5AA8D"",""assignmentId"":""6fe7a502-0adf-473a-8674-ab1469137fc2"",""projectId"":""051c06f1-75cc-4548-856d-4923ddaba0dc""}","https://test12345.live/?num_scrambled_semantic=8&num_scrambled_causal=4&num_scrambled_schematic=4&participantId=5825BEB745EF4B119E83C1DF24B5AA8D&assignmentId=6fe7a502-0adf-473a-8674-ab1469137fc2&projectId=051c06f1-75cc-4548-856d-4923ddaba0dc","5825BEB745EF4B119E83C1DF24B5AA8D-2025-05-15-18-58-39","","null","","[]","null","",""
"","","","","","image-button-response","12","151515","0.0-6.0-1.0-0.1","5825BEB745EF4B119E83C1DF24B5AA8D","5825BEB745EF4B119E83C1DF24B5AA8D","6fe7a502-0adf-473a-8674-ab1469137fc2","051c06f1-75cc-4548-856d-4923ddaba0dc","{""num_scrambled_semantic"":""8"",""num_scrambled_causal"":""4"",""num_scrambled_schematic"":""4"",""participantId"":""5825BEB745EF4B119E83C1DF24B5AA8D"",""assignmentId"":""6fe7a502-0adf-473a-8674-ab1469137fc2"",""projectId"":""051c06f1-75cc-4548-856d-4923ddaba0dc""}","https://test12345.live/?num_scrambled_semantic=8&num_scrambled_causal=4&num_scrambled_schematic=4&participantId=5825BEB745EF4B119E83C1DF24B5AA8D&assignmentId=6fe7a502-0adf-473a-8674-ab1469137fc2&projectId=051c06f1-75cc-4548-856d-4923ddaba0dc","5825BEB745EF4B119E83C1DF24B5AA8D-2025-05-15-18-58-39","","null","","images/instructions/movie_2.png","null","",""
"","","","","","image-button-response","13","153561","0.0-6.0-1.0-1.1","5825BEB745EF4B119E83C1DF24B5AA8D","5825BEB745EF4B119E83C1DF24B5AA8D","6fe7a502-0adf-473a-8674-ab1469137fc2","051c06f1-75cc-4548-856d-4923ddaba0dc","{""num_scrambled_semantic"":""8"",""num_scrambled_causal"":""4"",""num_scrambled_schematic"":""4"",""participantId"":""5825BEB745EF4B119E83C1DF24B5AA8D"",""assignmentId"":""6fe7a502-0adf-473a-8674-ab1469137fc2"",""projectId"":""051c06f1-75cc-4548-856d-4923ddaba0dc""}","https://test12345.live/?num_scrambled_semantic=8&num_scrambled_causal=4&num_scrambled_schematic=4&participantId=5825BEB745EF4B119E83C1DF24B5AA8D&assignmentId=6fe7a502-0adf-473a-8674-ab1469137fc2&projectId=051c06f1-75cc-4548-856d-4923ddaba0dc","5825BEB745EF4B119E83C1DF24B5AA8D-2025-05-15-18-58-39","","2045","","images/instructions/movie_2.png","0","",""
"","","","","","image-button-response","14","155362","0.0-6.0-1.0-2.1","5825BEB745EF4B119E83C1DF24B5AA8D","5825BEB745EF4B119E83C1DF24B5AA8D","6fe7a502-0adf-473a-8674-ab1469137fc2","051c06f1-75cc-4548-856d-4923ddaba0dc","{""num_scrambled_semantic"":""8"",""num_scrambled_causal"":""4"",""num_scrambled_schematic"":""4"",""participantId"":""5825BEB745EF4B119E83C1DF24B5AA8D"",""assignmentId"":""6fe7a502-0adf-473a-8674-ab1469137fc2"",""projectId"":""051c06f1-75cc-4548-856d-4923ddaba0dc""}","https://test12345.live/?num_scrambled_semantic=8&num_scrambled_causal=4&num_scrambled_schematic=4&participantId=5825BEB745EF4B119E83C1DF24B5AA8D&assignmentId=6fe7a502-0adf-473a-8674-ab1469137fc2&projectId=051c06f1-75cc-4548-856d-4923ddaba0dc","5825BEB745EF4B119E83C1DF24B5AA8D-2025-05-15-18-58-39","","null","","[]","null","",""
"","","","","","image-button-response","15","159864","0.0-6.0-1.0-0.2","5825BEB745EF4B119E83C1DF24B5AA8D","5825BEB745EF4B119E83C1DF24B5AA8D","6fe7a502-0adf-473a-8674-ab1469137fc2","051c06f1-75cc-4548-856d-4923ddaba0dc","{""num_scrambled_semantic"":""8"",""num_scrambled_causal"":""4"",""num_scrambled_schematic"":""4"",""participantId"":""5825BEB745EF4B119E83C1DF24B5AA8D"",""assignmentId"":""6fe7a502-0adf-473a-8674-ab1469137fc2"",""projectId"":""051c06f1-75cc-4548-856d-4923ddaba0dc""}","https://test12345.live/?num_scrambled_semantic=8&num_scrambled_causal=4&num_scrambled_schematic=4&participantId=5825BEB745EF4B119E83C1DF24B5AA8D&assignmentId=6fe7a502-0adf-473a-8674-ab1469137fc2&projectId=051c06f1-75cc-4548-856d-4923ddaba0dc","5825BEB745EF4B119E83C1DF24B5AA8D-2025-05-15-18-58-39","","null","","images/instructions/movie_3.png","null","",""
"","","","","","image-button-response","16","161264","0.0-6.0-1.0-1.2","5825BEB745EF4B119E83C1DF24B5AA8D","5825BEB745EF4B119E83C1DF24B5AA8D","6fe7a502-0adf-473a-8674-ab1469137fc2","051c06f1-75cc-4548-856d-4923ddaba0dc","{""num_scrambled_semantic"":""8"",""num_scrambled_causal"":""4"",""num_scrambled_schematic"":""4"",""participantId"":""5825BEB745EF4B119E83C1DF24B5AA8D"",""assignmentId"":""6fe7a502-0adf-473a-8674-ab1469137fc2"",""projectId"":""051c06f1-75cc-4548-856d-4923ddaba0dc""}","https://test12345.live/?num_scrambled_semantic=8&num_scrambled_causal=4&num_scrambled_schematic=4&participantId=5825BEB745EF4B119E83C1DF24B5AA8D&assignmentId=6fe7a502-0adf-473a-8674-ab1469137fc2&projectId=051c06f1-75cc-4548-856d-4923ddaba0dc","5825BEB745EF4B119E83C1DF24B5AA8D-2025-05-15-18-58-39","","1399","","images/instructions/movie_3.png","0","",""
"","","","","","image-button-response","17","163067","0.0-6.0-1.0-2.2","5825BEB745EF4B119E83C1DF24B5AA8D","5825BEB745EF4B119E83C1DF24B5AA8D","6fe7a502-0adf-473a-8674-ab1469137fc2","051c06f1-75cc-4548-856d-4923ddaba0dc","{""num_scrambled_semantic"":""8"",""num_scrambled_causal"":""4"",""num_scrambled_schematic"":""4"",""participantId"":""5825BEB745EF4B119E83C1DF24B5AA8D"",""assignmentId"":""6fe7a502-0adf-473a-8674-ab1469137fc2"",""projectId"":""051c06f1-75cc-4548-856d-4923ddaba0dc""}","https://test12345.live/?num_scrambled_semantic=8&num_scrambled_causal=4&num_scrambled_schematic=4&participantId=5825BEB745EF4B119E83C1DF24B5AA8D&assignmentId=6fe7a502-0adf-473a-8674-ab1469137fc2&projectId=051c06f1-75cc-4548-856d-4923ddaba0dc","5825BEB745EF4B119E83C1DF24B5AA8D-2025-05-15-18-58-39","","null","","[]","null","",""
"","","","","","image-button-response","18","167573","0.0-6.0-1.0-0.3","5825BEB745EF4B119E83C1DF24B5AA8D","5825BEB745EF4B119E83C1DF24B5AA8D","6fe7a502-0adf-473a-8674-ab1469137fc2","051c06f1-75cc-4548-856d-4923ddaba0dc","{""num_scrambled_semantic"":""8"",""num_scrambled_causal"":""4"",""num_scrambled_schematic"":""4"",""participantId"":""5825BEB745EF4B119E83C1DF24B5AA8D"",""assignmentId"":""6fe7a502-0adf-473a-8674-ab1469137fc2"",""projectId"":""051c06f1-75cc-4548-856d-4923ddaba0dc""}","https://test12345.live/?num_scrambled_semantic=8&num_scrambled_causal=4&num_scrambled_schematic=4&participantId=5825BEB745EF4B119E83C1DF24B5AA8D&assignmentId=6fe7a502-0adf-473a-8674-ab1469137fc2&projectId=051c06f1-75cc-4548-856d-4923ddaba0dc","5825BEB745EF4B119E83C1DF24B5AA8D-2025-05-15-18-58-39","","null","","images/instructions/movie_4.png","null","",""
"","","","","","image-button-response","19","168453","0.0-6.0-1.0-1.3","5825BEB745EF4B119E83C1DF24B5AA8D","5825BEB745EF4B119E83C1DF24B5AA8D","6fe7a502-0adf-473a-8674-ab1469137fc2","051c06f1-75cc-4548-856d-4923ddaba0dc","{""num_scrambled_semantic"":""8"",""num_scrambled_causal"":""4"",""num_scrambled_schematic"":""4"",""participantId"":""5825BEB745EF4B119E83C1DF24B5AA8D"",""assignmentId"":""6fe7a502-0adf-473a-8674-ab1469137fc2"",""projectId"":""051c06f1-75cc-4548-856d-4923ddaba0dc""}","https://test12345.live/?num_scrambled_semantic=8&num_scrambled_causal=4&num_scrambled_schematic=4&participantId=5825BEB745EF4B119E83C1DF24B5AA8D&assignmentId=6fe7a502-0adf-473a-8674-ab1469137fc2&projectId=051c06f1-75cc-4548-856d-4923ddaba0dc","5825BEB745EF4B119E83C1DF24B5AA8D-2025-05-15-18-58-39","","880","","images/instructions/movie_4.png","0","",""
"","","","","","image-button-response","20","170260","0.0-6.0-1.0-2.3","5825BEB745EF4B119E83C1DF24B5AA8D","5825BEB745EF4B119E83C1DF24B5AA8D","6fe7a502-0adf-473a-8674-ab1469137fc2","051c06f1-75cc-4548-856d-4923ddaba0dc","{""num_scrambled_semantic"":""8"",""num_scrambled_causal"":""4"",""num_scrambled_schematic"":""4"",""participantId"":""5825BEB745EF4B119E83C1DF24B5AA8D"",""assignmentId"":""6fe7a502-0adf-473a-8674-ab1469137fc2"",""projectId"":""051c06f1-75cc-4548-856d-4923ddaba0dc""}","https://test12345.live/?num_scrambled_semantic=8&num_scrambled_causal=4&num_scrambled_schematic=4&participantId=5825BEB745EF4B119E83C1DF24B5AA8D&assignmentId=6fe7a502-0adf-473a-8674-ab1469137fc2&projectId=051c06f1-75cc-4548-856d-4923ddaba0dc","5825BEB745EF4B119E83C1DF24B5AA8D-2025-05-15-18-58-39","","null","","[]","null","",""
"","","","","","instructions","21","177643","0.0-7.0","5825BEB745EF4B119E83C1DF24B5AA8D","5825BEB745EF4B119E83C1DF24B5AA8D","6fe7a502-0adf-473a-8674-ab1469137fc2","051c06f1-75cc-4548-856d-4923ddaba0dc","{""num_scrambled_semantic"":""8"",""num_scrambled_causal"":""4"",""num_scrambled_schematic"":""4"",""participantId"":""5825BEB745EF4B119E83C1DF24B5AA8D"",""assignmentId"":""6fe7a502-0adf-473a-8674-ab1469137fc2"",""projectId"":""051c06f1-75cc-4548-856d-4923ddaba0dc""}","https://test12345.live/?num_scrambled_semantic=8&num_scrambled_causal=4&num_scrambled_schematic=4&participantId=5825BEB745EF4B119E83C1DF24B5AA8D&assignmentId=6fe7a502-0adf-473a-8674-ab1469137fc2&projectId=051c06f1-75cc-4548-856d-4923ddaba0dc","5825BEB745EF4B119E83C1DF24B5AA8D-2025-05-15-18-58-39","[{""page_index"":0,""viewing_time"":6187},{""page_index"":1,""viewing_time"":1196}]","7384","","","","",""
"","","","","","html-audio-response","22","229377","0.0-8.0","5825BEB745EF4B119E83C1DF24B5AA8D","5825BEB745EF4B119E83C1DF24B5AA8D","6fe7a502-0adf-473a-8674-ab1469137fc2","051c06f1-75cc-4548-856d-4923ddaba0dc","{""num_scrambled_semantic"":""8"",""num_scrambled_causal"":""4"",""num_scrambled_schematic"":""4"",""participantId"":""5825BEB745EF4B119E83C1DF24B5AA8D"",""assignmentId"":""6fe7a502-0adf-473a-8674-ab1469137fc2"",""projectId"":""051c06f1-75cc-4548-856d-4923ddaba0dc""}","https://test12345.live/?num_scrambled_semantic=8&num_scrambled_causal=4&num_scrambled_schematic=4&participantId=5825BEB745EF4B119E83C1DF24B5AA8D&assignmentId=6fe7a502-0adf-473a-8674-ab1469137fc2&projectId=051c06f1-75cc-4548-856d-4923ddaba0dc","5825BEB745EF4B119E83C1DF24B5AA8D-2025-05-15-18-58-39","","21720","","[""<span style=\""color: red; font-size: 24px\""> NOW RECORDING</span><p>Please say out loud all the images you saw, as many as you can remember. The images can be said in any order.</p>""]","","1",""
"","","","","","instructions","23","231316","0.0-9.0","5825BEB745EF4B119E83C1DF24B5AA8D","5825BEB745EF4B119E83C1DF24B5AA8D","6fe7a502-0adf-473a-8674-ab1469137fc2","051c06f1-75cc-4548-856d-4923ddaba0dc","{""num_scrambled_semantic"":""8"",""num_scrambled_causal"":""4"",""num_scrambled_schematic"":""4"",""participantId"":""5825BEB745EF4B119E83C1DF24B5AA8D"",""assignmentId"":""6fe7a502-0adf-473a-8674-ab1469137fc2"",""projectId"":""051c06f1-75cc-4548-856d-4923ddaba0dc""}","https://test12345.live/?num_scrambled_semantic=8&num_scrambled_causal=4&num_scrambled_schematic=4&participantId=5825BEB745EF4B119E83C1DF24B5AA8D&assignmentId=6fe7a502-0adf-473a-8674-ab1469137fc2&projectId=051c06f1-75cc-4548-856d-4923ddaba0dc","5825BEB745EF4B119E83C1DF24B5AA8D-2025-05-15-18-58-39","[{""page_index"":0,""viewing_time"":1936}]","1936","","","","",""
"","","","","","image-button-response","24","237329","0.0-10.0-0.0","5825BEB745EF4B119E83C1DF24B5AA8D","5825BEB745EF4B119E83C1DF24B5AA8D","6fe7a502-0adf-473a-8674-ab1469137fc2","051c06f1-75cc-4548-856d-4923ddaba0dc","{""num_scrambled_semantic"":""8"",""num_scrambled_causal"":""4"",""num_scrambled_schematic"":""4"",""participantId"":""5825BEB745EF4B119E83C1DF24B5AA8D"",""assignmentId"":""6fe7a502-0adf-473a-8674-ab1469137fc2"",""projectId"":""051c06f1-75cc-4548-856d-4923ddaba0dc""}","https://test12345.live/?num_scrambled_semantic=8&num_scrambled_causal=4&num_scrambled_schematic=4&participantId=5825BEB745EF4B119E83C1DF24B5AA8D&assignmentId=6fe7a502-0adf-473a-8674-ab1469137fc2&projectId=051c06f1-75cc-4548-856d-4923ddaba0dc","5825BEB745EF4B119E83C1DF24B5AA8D-2025-05-15-18-58-39","","null","","images/semantic_sequence/cat_care_semantic/cat_care_semantic_0.png","null","",""
"","","","","","image-button-response","25","241836","0.0-10.0-1.0-0.0","5825BEB745EF4B119E83C1DF24B5AA8D","5825BEB745EF4B119E83C1DF24B5AA8D","6fe7a502-0adf-473a-8674-ab1469137fc2","051c06f1-75cc-4548-856d-4923ddaba0dc","{""num_scrambled_semantic"":""8"",""num_scrambled_causal"":""4"",""num_scrambled_schematic"":""4"",""participantId"":""5825BEB745EF4B119E83C1DF24B5AA8D"",""assignmentId"":""6fe7a502-0adf-473a-8674-ab1469137fc2"",""projectId"":""051c06f1-75cc-4548-856d-4923ddaba0dc""}","https://test12345.live/?num_scrambled_semantic=8&num_scrambled_causal=4&num_scrambled_schematic=4&participantId=5825BEB745EF4B119E83C1DF24B5AA8D&assignmentId=6fe7a502-0adf-473a-8674-ab1469137fc2&projectId=051c06f1-75cc-4548-856d-4923ddaba0dc","5825BEB745EF4B119E83C1DF24B5AA8D-2025-05-15-18-58-39","","null","","images/semantic_sequence/cat_care_semantic/cat_care_semantic_4.png","null","",""
"","","","","","image-button-response","26","243847","0.0-10.0-1.0-1.0","5825BEB745EF4B119E83C1DF24B5AA8D","5825BEB745EF4B119E83C1DF24B5AA8D","6fe7a502-0adf-473a-8674-ab1469137fc2","051c06f1-75cc-4548-856d-4923ddaba0dc","{""num_scrambled_semantic"":""8"",""num_scrambled_causal"":""4"",""num_scrambled_schematic"":""4"",""participantId"":""5825BEB745EF4B119E83C1DF24B5AA8D"",""assignmentId"":""6fe7a502-0adf-473a-8674-ab1469137fc2"",""projectId"":""051c06f1-75cc-4548-856d-4923ddaba0dc""}","https://test12345.live/?num_scrambled_semantic=8&num_scrambled_causal=4&num_scrambled_schematic=4&participantId=5825BEB745EF4B119E83C1DF24B5AA8D&assignmentId=6fe7a502-0adf-473a-8674-ab1469137fc2&projectId=051c06f1-75cc-4548-856d-4923ddaba0dc","5825BEB745EF4B119E83C1DF24B5AA8D-2025-05-15-18-58-39","","2011","","images/semantic_sequence/cat_care_semantic/cat_care_semantic_4.png","0","",""
"","","","","","image-button-response","27","245648","0.0-10.0-1.0-2.0","5825BEB745EF4B119E83C1DF24B5AA8D","5825BEB745EF4B119E83C1DF24B5AA8D","6fe7a502-0adf-473a-8674-ab1469137fc2","051c06f1-75cc-4548-856d-4923ddaba0dc","{""num_scrambled_semantic"":""8"",""num_scrambled_causal"":""4"",""num_scrambled_schematic"":""4"",""participantId"":""5825BEB745EF4B119E83C1DF24B5AA8D"",""assignmentId"":""6fe7a502-0adf-473a-8674-ab1469137fc2"",""projectId"":""051c06f1-75cc-4548-856d-4923ddaba0dc""}","https://test12345.live/?num_scrambled_semantic=8&num_scrambled_causal=4&num_scrambled_schematic=4&participantId=5825BEB745EF4B119E83C1DF24B5AA8D&assignmentId=6fe7a502-0adf-473a-8674-ab1469137fc2&projectId=051c06f1-75cc-4548-856d-4923ddaba0dc","5825BEB745EF4B119E83C1DF24B5AA8D-2025-05-15-18-58-39","","null","","[]","null","",""
"","","","","","image-button-response","28","250152","0.0-10.0-1.0-0.1","5825BEB745EF4B119E83C1DF24B5AA8D","5825BEB745EF4B119E83C1DF24B5AA8D","6fe7a502-0adf-473a-8674-ab1469137fc2","051c06f1-75cc-4548-856d-4923ddaba0dc","{""num_scrambled_semantic"":""8"",""num_scrambled_causal"":""4"",""num_scrambled_schematic"":""4"",""participantId"":""5825BEB745EF4B119E83C1DF24B5AA8D"",""assignmentId"":""6fe7a502-0adf-473a-8674-ab1469137fc2"",""projectId"":""051c06f1-75cc-4548-856d-4923ddaba0dc""}","https://test12345.live/?num_scrambled_semantic=8&num_scrambled_causal=4&num_scrambled_schematic=4&participantId=5825BEB745EF4B119E83C1DF24B5AA8D&assignmentId=6fe7a502-0adf-473a-8674-ab1469137fc2&projectId=051c06f1-75cc-4548-856d-4923ddaba0dc","5825BEB745EF4B119E83C1DF24B5AA8D-2025-05-15-18-58-39","","null","","images/semantic_sequence/cat_care_semantic/cat_care_semantic_2.png","null","",""
"","","","","","image-button-response","29","251623","0.0-10.0-1.0-1.1","5825BEB745EF4B119E83C1DF24B5AA8D","5825BEB745EF4B119E83C1DF24B5AA8D","6fe7a502-0adf-473a-8674-ab1469137fc2","051c06f1-75cc-4548-856d-4923ddaba0dc","{""num_scrambled_semantic"":""8"",""num_scrambled_causal"":""4"",""num_scrambled_schematic"":""4"",""participantId"":""5825BEB745EF4B119E83C1DF24B5AA8D"",""assignmentId"":""6fe7a502-0adf-473a-8674-ab1469137fc2"",""projectId"":""051c06f1-75cc-4548-856d-4923ddaba0dc""}","https://test12345.live/?num_scrambled_semantic=8&num_scrambled_causal=4&num_scrambled_schematic=4&participantId=5825BEB745EF4B119E83C1DF24B5AA8D&assignmentId=6fe7a502-0adf-473a-8674-ab1469137fc2&projectId=051c06f1-75cc-4548-856d-4923ddaba0dc","5825BEB745EF4B119E83C1DF24B5AA8D-2025-05-15-18-58-39","","1470","","images/semantic_sequence/cat_care_semantic/cat_care_semantic_2.png","0","",""
"","","","","","image-button-response","30","253426","0.0-10.0-1.0-2.1","5825BEB745EF4B119E83C1DF24B5AA8D","5825BEB745EF4B119E83C1DF24B5AA8D","6fe7a502-0adf-473a-8674-ab1469137fc2","051c06f1-75cc-4548-856d-4923ddaba0dc","{""num_scrambled_semantic"":""8"",""num_scrambled_causal"":""4"",""num_scrambled_schematic"":""4"",""participantId"":""5825BEB745EF4B119E83C1DF24B5AA8D"",""assignmentId"":""6fe7a502-0adf-473a-8674-ab1469137fc2"",""projectId"":""051c06f1-75cc-4548-856d-4923ddaba0dc""}","https://test12345.live/?num_scrambled_semantic=8&num_scrambled_causal=4&num_scrambled_schematic=4&participantId=5825BEB745EF4B119E83C1DF24B5AA8D&assignmentId=6fe7a502-0adf-473a-8674-ab1469137fc2&projectId=051c06f1-75cc-4548-856d-4923ddaba0dc","5825BEB745EF4B119E83C1DF24B5AA8D-2025-05-15-18-58-39","","null","","[]","null","",""
"","","","","","image-button-response","31","257928","0.0-10.0-1.0-0.2","5825BEB745EF4B119E83C1DF24B5AA8D","5825BEB745EF4B119E83C1DF24B5AA8D","6fe7a502-0adf-473a-8674-ab1469137fc2","051c06f1-75cc-4548-856d-4923ddaba0dc","{""num_scrambled_semantic"":""8"",""num_scrambled_causal"":""4"",""num_scrambled_schematic"":""4"",""participantId"":""5825BEB745EF4B119E83C1DF24B5AA8D"",""assignmentId"":""6fe7a502-0adf-473a-8674-ab1469137fc2"",""projectId"":""051c06f1-75cc-4548-856d-4923ddaba0dc""}","https://test12345.live/?num_scrambled_semantic=8&num_scrambled_causal=4&num_scrambled_schematic=4&participantId=5825BEB745EF4B119E83C1DF24B5AA8D&assignmentId=6fe7a502-0adf-473a-8674-ab1469137fc2&projectId=051c06f1-75cc-4548-856d-4923ddaba0dc","5825BEB745EF4B119E83C1DF24B5AA8D-2025-05-15-18-58-39","","null","","images/semantic_sequence/cat_care_semantic/cat_care_semantic_7.png","null","",""
"","","","","","image-button-response","32","259022","0.0-10.0-1.0-1.2","5825BEB745EF4B119E83C1DF24B5AA8D","5825BEB745EF4B119E83C1DF24B5AA8D","6fe7a502-0adf-473a-8674-ab1469137fc2","051c06f1-75cc-4548-856d-4923ddaba0dc","{""num_scrambled_semantic"":""8"",""num_scrambled_causal"":""4"",""num_scrambled_schematic"":""4"",""participantId"":""5825BEB745EF4B119E83C1DF24B5AA8D"",""assignmentId"":""6fe7a502-0adf-473a-8674-ab1469137fc2"",""projectId"":""051c06f1-75cc-4548-856d-4923ddaba0dc""}","https://test12345.live/?num_scrambled_semantic=8&num_scrambled_causal=4&num_scrambled_schematic=4&participantId=5825BEB745EF4B119E83C1DF24B5AA8D&assignmentId=6fe7a502-0adf-473a-8674-ab1469137fc2&projectId=051c06f1-75cc-4548-856d-4923ddaba0dc","5825BEB745EF4B119E83C1DF24B5AA8D-2025-05-15-18-58-39","","1094","","images/semantic_sequence/cat_care_semantic/cat_care_semantic_7.png","0","",""
"","","","","","image-button-response","33","260823","0.0-10.0-1.0-2.2","5825BEB745EF4B119E83C1DF24B5AA8D","5825BEB745EF4B119E83C1DF24B5AA8D","6fe7a502-0adf-473a-8674-ab1469137fc2","051c06f1-75cc-4548-856d-4923ddaba0dc","{""num_scrambled_semantic"":""8"",""num_scrambled_causal"":""4"",""num_scrambled_schematic"":""4"",""participantId"":""5825BEB745EF4B119E83C1DF24B5AA8D"",""assignmentId"":""6fe7a502-0adf-473a-8674-ab1469137fc2"",""projectId"":""051c06f1-75cc-4548-856d-4923ddaba0dc""}","https://test12345.live/?num_scrambled_semantic=8&num_scrambled_causal=4&num_scrambled_schematic=4&participantId=5825BEB745EF4B119E83C1DF24B5AA8D&assignmentId=6fe7a502-0adf-473a-8674-ab1469137fc2&projectId=051c06f1-75cc-4548-856d-4923ddaba0dc","5825BEB745EF4B119E83C1DF24B5AA8D-2025-05-15-18-58-39","","null","","[]","null","",""
"","","","","","image-button-response","34","265328","0.0-10.0-1.0-0.3","5825BEB745EF4B119E83C1DF24B5AA8D","5825BEB745EF4B119E83C1DF24B5AA8D","6fe7a502-0adf-473a-8674-ab1469137fc2","051c06f1-75cc-4548-856d-4923ddaba0dc","{""num_scrambled_semantic"":""8"",""num_scrambled_causal"":""4"",""num_scrambled_schematic"":""4"",""participantId"":""5825BEB745EF4B119E83C1DF24B5AA8D"",""assignmentId"":""6fe7a502-0adf-473a-8674-ab1469137fc2"",""projectId"":""051c06f1-75cc-4548-856d-4923ddaba0dc""}","https://test12345.live/?num_scrambled_semantic=8&num_scrambled_causal=4&num_scrambled_schematic=4&participantId=5825BEB745EF4B119E83C1DF24B5AA8D&assignmentId=6fe7a502-0adf-473a-8674-ab1469137fc2&projectId=051c06f1-75cc-4548-856d-4923ddaba0dc","5825BEB745EF4B119E83C1DF24B5AA8D-2025-05-15-18-58-39","","null","","images/semantic_sequence/cat_care_semantic/cat_care_semantic_1.png","null","",""
"","","","","","image-button-response","35","266387","0.0-10.0-1.0-1.3","5825BEB745EF4B119E83C1DF24B5AA8D","5825BEB745EF4B119E83C1DF24B5AA8D","6fe7a502-0adf-473a-8674-ab1469137fc2","051c06f1-75cc-4548-856d-4923ddaba0dc","{""num_scrambled_semantic"":""8"",""num_scrambled_causal"":""4"",""num_scrambled_schematic"":""4"",""participantId"":""5825BEB745EF4B119E83C1DF24B5AA8D"",""assignmentId"":""6fe7a502-0adf-473a-8674-ab1469137fc2"",""projectId"":""051c06f1-75cc-4548-856d-4923ddaba0dc""}","https://test12345.live/?num_scrambled_semantic=8&num_scrambled_causal=4&num_scrambled_schematic=4&participantId=5825BEB745EF4B119E83C1DF24B5AA8D&assignmentId=6fe7a502-0adf-473a-8674-ab1469137fc2&projectId=051c06f1-75cc-4548-856d-4923ddaba0dc","5825BEB745EF4B119E83C1DF24B5AA8D-2025-05-15-18-58-39","","1059","","images/semantic_sequence/cat_care_semantic/cat_care_semantic_1.png","0","",""
"","","","","","image-button-response","36","268196","0.0-10.0-1.0-2.3","5825BEB745EF4B119E83C1DF24B5AA8D","5825BEB745EF4B119E83C1DF24B5AA8D","6fe7a502-0adf-473a-8674-ab1469137fc2","051c06f1-75cc-4548-856d-4923ddaba0dc","{""num_scrambled_semantic"":""8"",""num_scrambled_causal"":""4"",""num_scrambled_schematic"":""4"",""participantId"":""5825BEB745EF4B119E83C1DF24B5AA8D"",""assignmentId"":""6fe7a502-0adf-473a-8674-ab1469137fc2"",""projectId"":""051c06f1-75cc-4548-856d-4923ddaba0dc""}","https://test12345.live/?num_scrambled_semantic=8&num_scrambled_causal=4&num_scrambled_schematic=4&participantId=5825BEB745EF4B119E83C1DF24B5AA8D&assignmentId=6fe7a502-0adf-473a-8674-ab1469137fc2&projectId=051c06f1-75cc-4548-856d-4923ddaba0dc","5825BEB745EF4B119E83C1DF24B5AA8D-2025-05-15-18-58-39","","null","","[]","null","",""
"","","","","","image-button-response","37","272711","0.0-10.0-1.0-0.4","5825BEB745EF4B119E83C1DF24B5AA8D","5825BEB745EF4B119E83C1DF24B5AA8D","6fe7a502-0adf-473a-8674-ab1469137fc2","051c06f1-75cc-4548-856d-4923ddaba0dc","{""num_scrambled_semantic"":""8"",""num_scrambled_causal"":""4"",""num_scrambled_schematic"":""4"",""participantId"":""5825BEB745EF4B119E83C1DF24B5AA8D"",""assignmentId"":""6fe7a502-0adf-473a-8674-ab1469137fc2"",""projectId"":""051c06f1-75cc-4548-856d-4923ddaba0dc""}","https://test12345.live/?num_scrambled_semantic=8&num_scrambled_causal=4&num_scrambled_schematic=4&participantId=5825BEB745EF4B119E83C1DF24B5AA8D&assignmentId=6fe7a502-0adf-473a-8674-ab1469137fc2&projectId=051c06f1-75cc-4548-856d-4923ddaba0dc","5825BEB745EF4B119E83C1DF24B5AA8D-2025-05-15-18-58-39","","null","","images/semantic_sequence/cat_care_semantic/cat_care_semantic_5.png","null","",""
"","","","","","image-button-response","38","274249","0.0-10.0-1.0-1.4","5825BEB745EF4B119E83C1DF24B5AA8D","5825BEB745EF4B119E83C1DF24B5AA8D","6fe7a502-0adf-473a-8674-ab1469137fc2","051c06f1-75cc-4548-856d-4923ddaba0dc","{""num_scrambled_semantic"":""8"",""num_scrambled_causal"":""4"",""num_scrambled_schematic"":""4"",""participantId"":""5825BEB745EF4B119E83C1DF24B5AA8D"",""assignmentId"":""6fe7a502-0adf-473a-8674-ab1469137fc2"",""projectId"":""051c06f1-75cc-4548-856d-4923ddaba0dc""}","https://test12345.live/?num_scrambled_semantic=8&num_scrambled_causal=4&num_scrambled_schematic=4&participantId=5825BEB745EF4B119E83C1DF24B5AA8D&assignmentId=6fe7a502-0adf-473a-8674-ab1469137fc2&projectId=051c06f1-75cc-4548-856d-4923ddaba0dc","5825BEB745EF4B119E83C1DF24B5AA8D-2025-05-15-18-58-39","","1538","","images/semantic_sequence/cat_care_semantic/cat_care_semantic_5.png","0","",""
"","","","","","image-button-response","39","276056","0.0-10.0-1.0-2.4","5825BEB745EF4B119E83C1DF24B5AA8D","5825BEB745EF4B119E83C1DF24B5AA8D","6fe7a502-0adf-473a-8674-ab1469137fc2","051c06f1-75cc-4548-856d-4923ddaba0dc","{""num_scrambled_semantic"":""8"",""num_scrambled_causal"":""4"",""num_scrambled_schematic"":""4"",""participantId"":""5825BEB745EF4B119E83C1DF24B5AA8D"",""assignmentId"":""6fe7a502-0adf-473a-8674-ab1469137fc2"",""projectId"":""051c06f1-75cc-4548-856d-4923ddaba0dc""}","https://test12345.live/?num_scrambled_semantic=8&num_scrambled_causal=4&num_scrambled_schematic=4&participantId=5825BEB745EF4B119E83C1DF24B5AA8D&assignmentId=6fe7a502-0adf-473a-8674-ab1469137fc2&projectId=051c06f1-75cc-4548-856d-4923ddaba0dc","5825BEB745EF4B119E83C1DF24B5AA8D-2025-05-15-18-58-39","","null","","[]","null","",""
"","","","","","image-button-response","40","280562","0.0-10.0-1.0-0.5","5825BEB745EF4B119E83C1DF24B5AA8D","5825BEB745EF4B119E83C1DF24B5AA8D","6fe7a502-0adf-473a-8674-ab1469137fc2","051c06f1-75cc-4548-856d-4923ddaba0dc","{""num_scrambled_semantic"":""8"",""num_scrambled_causal"":""4"",""num_scrambled_schematic"":""4"",""participantId"":""5825BEB745EF4B119E83C1DF24B5AA8D"",""assignmentId"":""6fe7a502-0adf-473a-8674-ab1469137fc2"",""projectId"":""051c06f1-75cc-4548-856d-4923ddaba0dc""}","https://test12345.live/?num_scrambled_semantic=8&num_scrambled_causal=4&num_scrambled_schematic=4&participantId=5825BEB745EF4B119E83C1DF24B5AA8D&assignmentId=6fe7a502-0adf-473a-8674-ab1469137fc2&projectId=051c06f1-75cc-4548-856d-4923ddaba0dc","5825BEB745EF4B119E83C1DF24B5AA8D-2025-05-15-18-58-39","","null","","images/semantic_sequence/cat_care_semantic/cat_care_semantic_9.png","null","",""
"","","","","","image-button-response","41","281712","0.0-10.0-1.0-1.5","5825BEB745EF4B119E83C1DF24B5AA8D","5825BEB745EF4B119E83C1DF24B5AA8D","6fe7a502-0adf-473a-8674-ab1469137fc2","051c06f1-75cc-4548-856d-4923ddaba0dc","{""num_scrambled_semantic"":""8"",""num_scrambled_causal"":""4"",""num_scrambled_schematic"":""4"",""participantId"":""5825BEB745EF4B119E83C1DF24B5AA8D"",""assignmentId"":""6fe7a502-0adf-473a-8674-ab1469137fc2"",""projectId"":""051c06f1-75cc-4548-856d-4923ddaba0dc""}","https://test12345.live/?num_scrambled_semantic=8&num_scrambled_causal=4&num_scrambled_schematic=4&participantId=5825BEB745EF4B119E83C1DF24B5AA8D&assignmentId=6fe7a502-0adf-473a-8674-ab1469137fc2&projectId=051c06f1-75cc-4548-856d-4923ddaba0dc","5825BEB745EF4B119E83C1DF24B5AA8D-2025-05-15-18-58-39","","1150","","images/semantic_sequence/cat_care_semantic/cat_care_semantic_9.png","0","",""
"","","","","","image-button-response","42","283527","0.0-10.0-1.0-2.5","5825BEB745EF4B119E83C1DF24B5AA8D","5825BEB745EF4B119E83C1DF24B5AA8D","6fe7a502-0adf-473a-8674-ab1469137fc2","051c06f1-75cc-4548-856d-4923ddaba0dc","{""num_scrambled_semantic"":""8"",""num_scrambled_causal"":""4"",""num_scrambled_schematic"":""4"",""participantId"":""5825BEB745EF4B119E83C1DF24B5AA8D"",""assignmentId"":""6fe7a502-0adf-473a-8674-ab1469137fc2"",""projectId"":""051c06f1-75cc-4548-856d-4923ddaba0dc""}","https://test12345.live/?num_scrambled_semantic=8&num_scrambled_causal=4&num_scrambled_schematic=4&participantId=5825BEB745EF4B119E83C1DF24B5AA8D&assignmentId=6fe7a502-0adf-473a-8674-ab1469137fc2&projectId=051c06f1-75cc-4548-856d-4923ddaba0dc","5825BEB745EF4B119E83C1DF24B5AA8D-2025-05-15-18-58-39","","null","","[]","null","",""
"","","","","","image-button-response","43","288035","0.0-10.0-1.0-0.6","5825BEB745EF4B119E83C1DF24B5AA8D","5825BEB745EF4B119E83C1DF24B5AA8D","6fe7a502-0adf-473a-8674-ab1469137fc2","051c06f1-75cc-4548-856d-4923ddaba0dc","{""num_scrambled_semantic"":""8"",""num_scrambled_causal"":""4"",""num_scrambled_schematic"":""4"",""participantId"":""5825BEB745EF4B119E83C1DF24B5AA8D"",""assignmentId"":""6fe7a502-0adf-473a-8674-ab1469137fc2"",""projectId"":""051c06f1-75cc-4548-856d-4923ddaba0dc""}","https://test12345.live/?num_scrambled_semantic=8&num_scrambled_causal=4&num_scrambled_schematic=4&participantId=5825BEB745EF4B119E83C1DF24B5AA8D&assignmentId=6fe7a502-0adf-473a-8674-ab1469137fc2&projectId=051c06f1-75cc-4548-856d-4923ddaba0dc","5825BEB745EF4B119E83C1DF24B5AA8D-2025-05-15-18-58-39","","null","","images/semantic_sequence/cat_care_semantic/cat_care_semantic_3.png","null","",""
"","","","","","image-button-response","44","288972","0.0-10.0-1.0-1.6","5825BEB745EF4B119E83C1DF24B5AA8D","5825BEB745EF4B119E83C1DF24B5AA8D","6fe7a502-0adf-473a-8674-ab1469137fc2","051c06f1-75cc-4548-856d-4923ddaba0dc","{""num_scrambled_semantic"":""8"",""num_scrambled_causal"":""4"",""num_scrambled_schematic"":""4"",""participantId"":""5825BEB745EF4B119E83C1DF24B5AA8D"",""assignmentId"":""6fe7a502-0adf-473a-8674-ab1469137fc2"",""projectId"":""051c06f1-75cc-4548-856d-4923ddaba0dc""}","https://test12345.live/?num_scrambled_semantic=8&num_scrambled_causal=4&num_scrambled_schematic=4&participantId=5825BEB745EF4B119E83C1DF24B5AA8D&assignmentId=6fe7a502-0adf-473a-8674-ab1469137fc2&projectId=051c06f1-75cc-4548-856d-4923ddaba0dc","5825BEB745EF4B119E83C1DF24B5AA8D-2025-05-15-18-58-39","","937","","images/semantic_sequence/cat_care_semantic/cat_care_semantic_3.png","0","",""
"","","","","","image-button-response","45","290773","0.0-10.0-1.0-2.6","5825BEB745EF4B119E83C1DF24B5AA8D","5825BEB745EF4B119E83C1DF24B5AA8D","6fe7a502-0adf-473a-8674-ab1469137fc2","051c06f1-75cc-4548-856d-4923ddaba0dc","{""num_scrambled_semantic"":""8"",""num_scrambled_causal"":""4"",""num_scrambled_schematic"":""4"",""participantId"":""5825BEB745EF4B119E83C1DF24B5AA8D"",""assignmentId"":""6fe7a502-0adf-473a-8674-ab1469137fc2"",""projectId"":""051c06f1-75cc-4548-856d-4923ddaba0dc""}","https://test12345.live/?num_scrambled_semantic=8&num_scrambled_causal=4&num_scrambled_schematic=4&participantId=5825BEB745EF4B119E83C1DF24B5AA8D&assignmentId=6fe7a502-0adf-473a-8674-ab1469137fc2&projectId=051c06f1-75cc-4548-856d-4923ddaba0dc","5825BEB745EF4B119E83C1DF24B5AA8D-2025-05-15-18-58-39","","null","","[]","null","",""
"","","","","","image-button-response","46","295274","0.0-10.0-1.0-0.7","5825BEB745EF4B119E83C1DF24B5AA8D","5825BEB745EF4B119E83C1DF24B5AA8D","6fe7a502-0adf-473a-8674-ab1469137fc2","051c06f1-75cc-4548-856d-4923ddaba0dc","{""num_scrambled_semantic"":""8"",""num_scrambled_causal"":""4"",""num_scrambled_schematic"":""4"",""participantId"":""5825BEB745EF4B119E83C1DF24B5AA8D"",""assignmentId"":""6fe7a502-0adf-473a-8674-ab1469137fc2"",""projectId"":""051c06f1-75cc-4548-856d-4923ddaba0dc""}","https://test12345.live/?num_scrambled_semantic=8&num_scrambled_causal=4&num_scrambled_schematic=4&participantId=5825BEB745EF4B119E83C1DF24B5AA8D&assignmentId=6fe7a502-0adf-473a-8674-ab1469137fc2&projectId=051c06f1-75cc-4548-856d-4923ddaba0dc","5825BEB745EF4B119E83C1DF24B5AA8D-2025-05-15-18-58-39","","null","","images/semantic_sequence/cat_care_semantic/cat_care_semantic_6.png","null","",""
"","","","","","image-button-response","47","296038","0.0-10.0-1.0-1.7","5825BEB745EF4B119E83C1DF24B5AA8D","5825BEB745EF4B119E83C1DF24B5AA8D","6fe7a502-0adf-473a-8674-ab1469137fc2","051c06f1-75cc-4548-856d-4923ddaba0dc","{""num_scrambled_semantic"":""8"",""num_scrambled_causal"":""4"",""num_scrambled_schematic"":""4"",""participantId"":""5825BEB745EF4B119E83C1DF24B5AA8D"",""assignmentId"":""6fe7a502-0adf-473a-8674-ab1469137fc2"",""projectId"":""051c06f1-75cc-4548-856d-4923ddaba0dc""}","https://test12345.live/?num_scrambled_semantic=8&num_scrambled_causal=4&num_scrambled_schematic=4&participantId=5825BEB745EF4B119E83C1DF24B5AA8D&assignmentId=6fe7a502-0adf-473a-8674-ab1469137fc2&projectId=051c06f1-75cc-4548-856d-4923ddaba0dc","5825BEB745EF4B119E83C1DF24B5AA8D-2025-05-15-18-58-39","","763","","images/semantic_sequence/cat_care_semantic/cat_care_semantic_6.png","0","",""
"","","","","","image-button-response","48","297849","0.0-10.0-1.0-2.7","5825BEB745EF4B119E83C1DF24B5AA8D","5825BEB745EF4B119E83C1DF24B5AA8D","6fe7a502-0adf-473a-8674-ab1469137fc2","051c06f1-75cc-4548-856d-4923ddaba0dc","{""num_scrambled_semantic"":""8"",""num_scrambled_causal"":""4"",""num_scrambled_schematic"":""4"",""participantId"":""5825BEB745EF4B119E83C1DF24B5AA8D"",""assignmentId"":""6fe7a502-0adf-473a-8674-ab1469137fc2"",""projectId"":""051c06f1-75cc-4548-856d-4923ddaba0dc""}","https://test12345.live/?num_scrambled_semantic=8&num_scrambled_causal=4&num_scrambled_schematic=4&participantId=5825BEB745EF4B119E83C1DF24B5AA8D&assignmentId=6fe7a502-0adf-473a-8674-ab1469137fc2&projectId=051c06f1-75cc-4548-856d-4923ddaba0dc","5825BEB745EF4B119E83C1DF24B5AA8D-2025-05-15-18-58-39","","null","","[]","null","",""
"","","","","","image-button-response","49","302361","0.0-10.0-1.0-0.8","5825BEB745EF4B119E83C1DF24B5AA8D","5825BEB745EF4B119E83C1DF24B5AA8D","6fe7a502-0adf-473a-8674-ab1469137fc2","051c06f1-75cc-4548-856d-4923ddaba0dc","{""num_scrambled_semantic"":""8"",""num_scrambled_causal"":""4"",""num_scrambled_schematic"":""4"",""participantId"":""5825BEB745EF4B119E83C1DF24B5AA8D"",""assignmentId"":""6fe7a502-0adf-473a-8674-ab1469137fc2"",""projectId"":""051c06f1-75cc-4548-856d-4923ddaba0dc""}","https://test12345.live/?num_scrambled_semantic=8&num_scrambled_causal=4&num_scrambled_schematic=4&participantId=5825BEB745EF4B119E83C1DF24B5AA8D&assignmentId=6fe7a502-0adf-473a-8674-ab1469137fc2&projectId=051c06f1-75cc-4548-856d-4923ddaba0dc","5825BEB745EF4B119E83C1DF24B5AA8D-2025-05-15-18-58-39","","null","","images/semantic_sequence/cat_care_semantic/cat_care_semantic_8.png","null","",""
"","","","","","image-button-response","50","304802","0.0-10.0-1.0-1.8","5825BEB745EF4B119E83C1DF24B5AA8D","5825BEB745EF4B119E83C1DF24B5AA8D","6fe7a502-0adf-473a-8674-ab1469137fc2","051c06f1-75cc-4548-856d-4923ddaba0dc","{""num_scrambled_semantic"":""8"",""num_scrambled_causal"":""4"",""num_scrambled_schematic"":""4"",""participantId"":""5825BEB745EF4B119E83C1DF24B5AA8D"",""assignmentId"":""6fe7a502-0adf-473a-8674-ab1469137fc2"",""projectId"":""051c06f1-75cc-4548-856d-4923ddaba0dc""}","https://test12345.live/?num_scrambled_semantic=8&num_scrambled_causal=4&num_scrambled_schematic=4&participantId=5825BEB745EF4B119E83C1DF24B5AA8D&assignmentId=6fe7a502-0adf-473a-8674-ab1469137fc2&projectId=051c06f1-75cc-4548-856d-4923ddaba0dc","5825BEB745EF4B119E83C1DF24B5AA8D-2025-05-15-18-58-39","","2441","","images/semantic_sequence/cat_care_semantic/cat_care_semantic_8.png","0","",""
"","","","","","image-button-response","51","306603","0.0-10.0-1.0-2.8","5825BEB745EF4B119E83C1DF24B5AA8D","5825BEB745EF4B119E83C1DF24B5AA8D","6fe7a502-0adf-473a-8674-ab1469137fc2","051c06f1-75cc-4548-856d-4923ddaba0dc","{""num_scrambled_semantic"":""8"",""num_scrambled_causal"":""4"",""num_scrambled_schematic"":""4"",""participantId"":""5825BEB745EF4B119E83C1DF24B5AA8D"",""assignmentId"":""6fe7a502-0adf-473a-8674-ab1469137fc2"",""projectId"":""051c06f1-75cc-4548-856d-4923ddaba0dc""}","https://test12345.live/?num_scrambled_semantic=8&num_scrambled_causal=4&num_scrambled_schematic=4&participantId=5825BEB745EF4B119E83C1DF24B5AA8D&assignmentId=6fe7a502-0adf-473a-8674-ab1469137fc2&projectId=051c06f1-75cc-4548-856d-4923ddaba0dc","5825BEB745EF4B119E83C1DF24B5AA8D-2025-05-15-18-58-39","","null","","[]","null","",""
"","","","","","image-button-response","52","311104","0.0-10.0-1.0-0.9","5825BEB745EF4B119E83C1DF24B5AA8D","5825BEB745EF4B119E83C1DF24B5AA8D","6fe7a502-0adf-473a-8674-ab1469137fc2","051c06f1-75cc-4548-856d-4923ddaba0dc","{""num_scrambled_semantic"":""8"",""num_scrambled_causal"":""4"",""num_scrambled_schematic"":""4"",""participantId"":""5825BEB745EF4B119E83C1DF24B5AA8D"",""assignmentId"":""6fe7a502-0adf-473a-8674-ab1469137fc2"",""projectId"":""051c06f1-75cc-4548-856d-4923ddaba0dc""}","https://test12345.live/?num_scrambled_semantic=8&num_scrambled_causal=4&num_scrambled_schematic=4&participantId=5825BEB745EF4B119E83C1DF24B5AA8D&assignmentId=6fe7a502-0adf-473a-8674-ab1469137fc2&projectId=051c06f1-75cc-4548-856d-4923ddaba0dc","5825BEB745EF4B119E83C1DF24B5AA8D-2025-05-15-18-58-39","","null","","images/semantic_sequence/cat_care_semantic/cat_care_semantic_ten.png","null","",""
"","","","","","image-button-response","53","312053","0.0-10.0-1.0-1.9","5825BEB745EF4B119E83C1DF24B5AA8D","5825BEB745EF4B119E83C1DF24B5AA8D","6fe7a502-0adf-473a-8674-ab1469137fc2","051c06f1-75cc-4548-856d-4923ddaba0dc","{""num_scrambled_semantic"":""8"",""num_scrambled_causal"":""4"",""num_scrambled_schematic"":""4"",""participantId"":""5825BEB745EF4B119E83C1DF24B5AA8D"",""assignmentId"":""6fe7a502-0adf-473a-8674-ab1469137fc2"",""projectId"":""051c06f1-75cc-4548-856d-4923ddaba0dc""}","https://test12345.live/?num_scrambled_semantic=8&num_scrambled_causal=4&num_scrambled_schematic=4&participantId=5825BEB745EF4B119E83C1DF24B5AA8D&assignmentId=6fe7a502-0adf-473a-8674-ab1469137fc2&projectId=051c06f1-75cc-4548-856d-4923ddaba0dc","5825BEB745EF4B119E83C1DF24B5AA8D-2025-05-15-18-58-39","","948","","images/semantic_sequence/cat_care_semantic/cat_care_semantic_ten.png","0","",""
"","","","","","image-button-response","54","313861","0.0-10.0-1.0-2.9","5825BEB745EF4B119E83C1DF24B5AA8D","5825BEB745EF4B119E83C1DF24B5AA8D","6fe7a502-0adf-473a-8674-ab1469137fc2","051c06f1-75cc-4548-856d-4923ddaba0dc","{""num_scrambled_semantic"":""8"",""num_scrambled_causal"":""4"",""num_scrambled_schematic"":""4"",""participantId"":""5825BEB745EF4B119E83C1DF24B5AA8D"",""assignmentId"":""6fe7a502-0adf-473a-8674-ab1469137fc2"",""projectId"":""051c06f1-75cc-4548-856d-4923ddaba0dc""}","https://test12345.live/?num_scrambled_semantic=8&num_scrambled_causal=4&num_scrambled_schematic=4&participantId=5825BEB745EF4B119E83C1DF24B5AA8D&assignmentId=6fe7a502-0adf-473a-8674-ab1469137fc2&projectId=051c06f1-75cc-4548-856d-4923ddaba0dc","5825BEB745EF4B119E83C1DF24B5AA8D-2025-05-15-18-58-39","","null","","[]","null","",""
"","","","","","html-audio-response","55","358281","0.0-11.0","5825BEB745EF4B119E83C1DF24B5AA8D","5825BEB745EF4B119E83C1DF24B5AA8D","6fe7a502-0adf-473a-8674-ab1469137fc2","051c06f1-75cc-4548-856d-4923ddaba0dc","{""num_scrambled_semantic"":""8"",""num_scrambled_causal"":""4"",""num_scrambled_schematic"":""4"",""participantId"":""5825BEB745EF4B119E83C1DF24B5AA8D"",""assignmentId"":""6fe7a502-0adf-473a-8674-ab1469137fc2"",""projectId"":""051c06f1-75cc-4548-856d-4923ddaba0dc""}","https://test12345.live/?num_scrambled_semantic=8&num_scrambled_causal=4&num_scrambled_schematic=4&participantId=5825BEB745EF4B119E83C1DF24B5AA8D&assignmentId=6fe7a502-0adf-473a-8674-ab1469137fc2&projectId=051c06f1-75cc-4548-856d-4923ddaba0dc","5825BEB745EF4B119E83C1DF24B5AA8D-2025-05-15-18-58-39","","34973","","[""<span style=\""color: red; font-size: 24px\""> NOW RECORDING</span><p>Please say out loud all the images you saw, as many as you can remember. The images can be said in any order.</p>""]","","1","cat_care_semantic"
"","","","","","image-button-response","56","364300","0.0-12.0-0.0","5825BEB745EF4B119E83C1DF24B5AA8D","5825BEB745EF4B119E83C1DF24B5AA8D","6fe7a502-0adf-473a-8674-ab1469137fc2","051c06f1-75cc-4548-856d-4923ddaba0dc","{""num_scrambled_semantic"":""8"",""num_scrambled_causal"":""4"",""num_scrambled_schematic"":""4"",""participantId"":""5825BEB745EF4B119E83C1DF24B5AA8D"",""assignmentId"":""6fe7a502-0adf-473a-8674-ab1469137fc2"",""projectId"":""051c06f1-75cc-4548-856d-4923ddaba0dc""}","https://test12345.live/?num_scrambled_semantic=8&num_scrambled_causal=4&num_scrambled_schematic=4&participantId=5825BEB745EF4B119E83C1DF24B5AA8D&assignmentId=6fe7a502-0adf-473a-8674-ab1469137fc2&projectId=051c06f1-75cc-4548-856d-4923ddaba0dc","5825BEB745EF4B119E83C1DF24B5AA8D-2025-05-15-18-58-39","","null","","images/schematic_sequence/hotel_scheme/hotel_scheme_0.png","null","",""
"","","","","","image-button-response","57","368809","0.0-12.0-1.0-0.0","5825BEB745EF4B119E83C1DF24B5AA8D","5825BEB745EF4B119E83C1DF24B5AA8D","6fe7a502-0adf-473a-8674-ab1469137fc2","051c06f1-75cc-4548-856d-4923ddaba0dc","{""num_scrambled_semantic"":""8"",""num_scrambled_causal"":""4"",""num_scrambled_schematic"":""4"",""participantId"":""5825BEB745EF4B119E83C1DF24B5AA8D"",""assignmentId"":""6fe7a502-0adf-473a-8674-ab1469137fc2"",""projectId"":""051c06f1-75cc-4548-856d-4923ddaba0dc""}","https://test12345.live/?num_scrambled_semantic=8&num_scrambled_causal=4&num_scrambled_schematic=4&participantId=5825BEB745EF4B119E83C1DF24B5AA8D&assignmentId=6fe7a502-0adf-473a-8674-ab1469137fc2&projectId=051c06f1-75cc-4548-856d-4923ddaba0dc","5825BEB745EF4B119E83C1DF24B5AA8D-2025-05-15-18-58-39","","null","","images/schematic_sequence/hotel_scheme/hotel_scheme_9.png","null","",""
"","","","","","image-button-response","58","370751","0.0-12.0-1.0-1.0","5825BEB745EF4B119E83C1DF24B5AA8D","5825BEB745EF4B119E83C1DF24B5AA8D","6fe7a502-0adf-473a-8674-ab1469137fc2","051c06f1-75cc-4548-856d-4923ddaba0dc","{""num_scrambled_semantic"":""8"",""num_scrambled_causal"":""4"",""num_scrambled_schematic"":""4"",""participantId"":""5825BEB745EF4B119E83C1DF24B5AA8D"",""assignmentId"":""6fe7a502-0adf-473a-8674-ab1469137fc2"",""projectId"":""051c06f1-75cc-4548-856d-4923ddaba0dc""}","https://test12345.live/?num_scrambled_semantic=8&num_scrambled_causal=4&num_scrambled_schematic=4&participantId=5825BEB745EF4B119E83C1DF24B5AA8D&assignmentId=6fe7a502-0adf-473a-8674-ab1469137fc2&projectId=051c06f1-75cc-4548-856d-4923ddaba0dc","5825BEB745EF4B119E83C1DF24B5AA8D-2025-05-15-18-58-39","","1941","","images/schematic_sequence/hotel_scheme/hotel_scheme_9.png","0","",""
"","","","","","image-button-response","59","372560","0.0-12.0-1.0-2.0","5825BEB745EF4B119E83C1DF24B5AA8D","5825BEB745EF4B119E83C1DF24B5AA8D","6fe7a502-0adf-473a-8674-ab1469137fc2","051c06f1-75cc-4548-856d-4923ddaba0dc","{""num_scrambled_semantic"":""8"",""num_scrambled_causal"":""4"",""num_scrambled_schematic"":""4"",""participantId"":""5825BEB745EF4B119E83C1DF24B5AA8D"",""assignmentId"":""6fe7a502-0adf-473a-8674-ab1469137fc2"",""projectId"":""051c06f1-75cc-4548-856d-4923ddaba0dc""}","https://test12345.live/?num_scrambled_semantic=8&num_scrambled_causal=4&num_scrambled_schematic=4&participantId=5825BEB745EF4B119E83C1DF24B5AA8D&assignmentId=6fe7a502-0adf-473a-8674-ab1469137fc2&projectId=051c06f1-75cc-4548-856d-4923ddaba0dc","5825BEB745EF4B119E83C1DF24B5AA8D-2025-05-15-18-58-39","","null","","[]","null","",""
"","","","","","image-button-response","60","377061","0.0-12.0-1.0-0.1","5825BEB745EF4B119E83C1DF24B5AA8D","5825BEB745EF4B119E83C1DF24B5AA8D","6fe7a502-0adf-473a-8674-ab1469137fc2","051c06f1-75cc-4548-856d-4923ddaba0dc","{""num_scrambled_semantic"":""8"",""num_scrambled_causal"":""4"",""num_scrambled_schematic"":""4"",""participantId"":""5825BEB745EF4B119E83C1DF24B5AA8D"",""assignmentId"":""6fe7a502-0adf-473a-8674-ab1469137fc2"",""projectId"":""051c06f1-75cc-4548-856d-4923ddaba0dc""}","https://test12345.live/?num_scrambled_semantic=8&num_scrambled_causal=4&num_scrambled_schematic=4&participantId=5825BEB745EF4B119E83C1DF24B5AA8D&assignmentId=6fe7a502-0adf-473a-8674-ab1469137fc2&projectId=051c06f1-75cc-4548-856d-4923ddaba0dc","5825BEB745EF4B119E83C1DF24B5AA8D-2025-05-15-18-58-39","","null","","images/schematic_sequence/hotel_scheme/hotel_scheme_ten.png","null","",""
"","","","","","image-button-response","61","377967","0.0-12.0-1.0-1.1","5825BEB745EF4B119E83C1DF24B5AA8D","5825BEB745EF4B119E83C1DF24B5AA8D","6fe7a502-0adf-473a-8674-ab1469137fc2","051c06f1-75cc-4548-856d-4923ddaba0dc","{""num_scrambled_semantic"":""8"",""num_scrambled_causal"":""4"",""num_scrambled_schematic"":""4"",""participantId"":""5825BEB745EF4B119E83C1DF24B5AA8D"",""assignmentId"":""6fe7a502-0adf-473a-8674-ab1469137fc2"",""projectId"":""051c06f1-75cc-4548-856d-4923ddaba0dc""}","https://test12345.live/?num_scrambled_semantic=8&num_scrambled_causal=4&num_scrambled_schematic=4&participantId=5825BEB745EF4B119E83C1DF24B5AA8D&assignmentId=6fe7a502-0adf-473a-8674-ab1469137fc2&projectId=051c06f1-75cc-4548-856d-4923ddaba0dc","5825BEB745EF4B119E83C1DF24B5AA8D-2025-05-15-18-58-39","","906","","images/schematic_sequence/hotel_scheme/hotel_scheme_ten.png","0","",""
"","","","","","image-button-response","62","379778","0.0-12.0-1.0-2.1","5825BEB745EF4B119E83C1DF24B5AA8D","5825BEB745EF4B119E83C1DF24B5AA8D","6fe7a502-0adf-473a-8674-ab1469137fc2","051c06f1-75cc-4548-856d-4923ddaba0dc","{""num_scrambled_semantic"":""8"",""num_scrambled_causal"":""4"",""num_scrambled_schematic"":""4"",""participantId"":""5825BEB745EF4B119E83C1DF24B5AA8D"",""assignmentId"":""6fe7a502-0adf-473a-8674-ab1469137fc2"",""projectId"":""051c06f1-75cc-4548-856d-4923ddaba0dc""}","https://test12345.live/?num_scrambled_semantic=8&num_scrambled_causal=4&num_scrambled_schematic=4&participantId=5825BEB745EF4B119E83C1DF24B5AA8D&assignmentId=6fe7a502-0adf-473a-8674-ab1469137fc2&projectId=051c06f1-75cc-4548-856d-4923ddaba0dc","5825BEB745EF4B119E83C1DF24B5AA8D-2025-05-15-18-58-39","","null","","[]","null","",""
"","","","","","image-button-response","63","384281","0.0-12.0-1.0-0.2","5825BEB745EF4B119E83C1DF24B5AA8D","5825BEB745EF4B119E83C1DF24B5AA8D","6fe7a502-0adf-473a-8674-ab1469137fc2","051c06f1-75cc-4548-856d-4923ddaba0dc","{""num_scrambled_semantic"":""8"",""num_scrambled_causal"":""4"",""num_scrambled_schematic"":""4"",""participantId"":""5825BEB745EF4B119E83C1DF24B5AA8D"",""assignmentId"":""6fe7a502-0adf-473a-8674-ab1469137fc2"",""projectId"":""051c06f1-75cc-4548-856d-4923ddaba0dc""}","https://test12345.live/?num_scrambled_semantic=8&num_scrambled_causal=4&num_scrambled_schematic=4&participantId=5825BEB745EF4B119E83C1DF24B5AA8D&assignmentId=6fe7a502-0adf-473a-8674-ab1469137fc2&projectId=051c06f1-75cc-4548-856d-4923ddaba0dc","5825BEB745EF4B119E83C1DF24B5AA8D-2025-05-15-18-58-39","","null","","images/schematic_sequence/hotel_scheme/hotel_scheme_5.png","null","",""
"","","","","","image-button-response","64","387911","0.0-12.0-1.0-1.2","5825BEB745EF4B119E83C1DF24B5AA8D","5825BEB745EF4B119E83C1DF24B5AA8D","6fe7a502-0adf-473a-8674-ab1469137fc2","051c06f1-75cc-4548-856d-4923ddaba0dc","{""num_scrambled_semantic"":""8"",""num_scrambled_causal"":""4"",""num_scrambled_schematic"":""4"",""participantId"":""5825BEB745EF4B119E83C1DF24B5AA8D"",""assignmentId"":""6fe7a502-0adf-473a-8674-ab1469137fc2"",""projectId"":""051c06f1-75cc-4548-856d-4923ddaba0dc""}","https://test12345.live/?num_scrambled_semantic=8&num_scrambled_causal=4&num_scrambled_schematic=4&participantId=5825BEB745EF4B119E83C1DF24B5AA8D&assignmentId=6fe7a502-0adf-473a-8674-ab1469137fc2&projectId=051c06f1-75cc-4548-856d-4923ddaba0dc","5825BEB745EF4B119E83C1DF24B5AA8D-2025-05-15-18-58-39","","3630","","images/schematic_sequence/hotel_scheme/hotel_scheme_5.png","0","",""
"","","","","","image-button-response","65","389719","0.0-12.0-1.0-2.2","5825BEB745EF4B119E83C1DF24B5AA8D","5825BEB745EF4B119E83C1DF24B5AA8D","6fe7a502-0adf-473a-8674-ab1469137fc2","051c06f1-75cc-4548-856d-4923ddaba0dc","{""num_scrambled_semantic"":""8"",""num_scrambled_causal"":""4"",""num_scrambled_schematic"":""4"",""participantId"":""5825BEB745EF4B119E83C1DF24B5AA8D"",""assignmentId"":""6fe7a502-0adf-473a-8674-ab1469137fc2"",""projectId"":""051c06f1-75cc-4548-856d-4923ddaba0dc""}","https://test12345.live/?num_scrambled_semantic=8&num_scrambled_causal=4&num_scrambled_schematic=4&participantId=5825BEB745EF4B119E83C1DF24B5AA8D&assignmentId=6fe7a502-0adf-473a-8674-ab1469137fc2&projectId=051c06f1-75cc-4548-856d-4923ddaba0dc","5825BEB745EF4B119E83C1DF24B5AA8D-2025-05-15-18-58-39","","null","","[]","null","",""
"","","","","","image-button-response","66","394228","0.0-12.0-1.0-0.3","5825BEB745EF4B119E83C1DF24B5AA8D","5825BEB745EF4B119E83C1DF24B5AA8D","6fe7a502-0adf-473a-8674-ab1469137fc2","051c06f1-75cc-4548-856d-4923ddaba0dc","{""num_scrambled_semantic"":""8"",""num_scrambled_causal"":""4"",""num_scrambled_schematic"":""4"",""participantId"":""5825BEB745EF4B119E83C1DF24B5AA8D"",""assignmentId"":""6fe7a502-0adf-473a-8674-ab1469137fc2"",""projectId"":""051c06f1-75cc-4548-856d-4923ddaba0dc""}","https://test12345.live/?num_scrambled_semantic=8&num_scrambled_causal=4&num_scrambled_schematic=4&participantId=5825BEB745EF4B119E83C1DF24B5AA8D&assignmentId=6fe7a502-0adf-473a-8674-ab1469137fc2&projectId=051c06f1-75cc-4548-856d-4923ddaba0dc","5825BEB745EF4B119E83C1DF24B5AA8D-2025-05-15-18-58-39","","null","","images/schematic_sequence/hotel_scheme/hotel_scheme_3.png","null","",""
"","","","","","image-button-response","67","396115","0.0-12.0-1.0-1.3","5825BEB745EF4B119E83C1DF24B5AA8D","5825BEB745EF4B119E83C1DF24B5AA8D","6fe7a502-0adf-473a-8674-ab1469137fc2","051c06f1-75cc-4548-856d-4923ddaba0dc","{""num_scrambled_semantic"":""8"",""num_scrambled_causal"":""4"",""num_scrambled_schematic"":""4"",""participantId"":""5825BEB745EF4B119E83C1DF24B5AA8D"",""assignmentId"":""6fe7a502-0adf-473a-8674-ab1469137fc2"",""projectId"":""051c06f1-75cc-4548-856d-4923ddaba0dc""}","https://test12345.live/?num_scrambled_semantic=8&num_scrambled_causal=4&num_scrambled_schematic=4&participantId=5825BEB745EF4B119E83C1DF24B5AA8D&assignmentId=6fe7a502-0adf-473a-8674-ab1469137fc2&projectId=051c06f1-75cc-4548-856d-4923ddaba0dc","5825BEB745EF4B119E83C1DF24B5AA8D-2025-05-15-18-58-39","","1887","","images/schematic_sequence/hotel_scheme/hotel_scheme_3.png","0","",""
"","","","","","image-button-response","68","397927","0.0-12.0-1.0-2.3","5825BEB745EF4B119E83C1DF24B5AA8D","5825BEB745EF4B119E83C1DF24B5AA8D","6fe7a502-0adf-473a-8674-ab1469137fc2","051c06f1-75cc-4548-856d-4923ddaba0dc","{""num_scrambled_semantic"":""8"",""num_scrambled_causal"":""4"",""num_scrambled_schematic"":""4"",""participantId"":""5825BEB745EF4B119E83C1DF24B5AA8D"",""assignmentId"":""6fe7a502-0adf-473a-8674-ab1469137fc2"",""projectId"":""051c06f1-75cc-4548-856d-4923ddaba0dc""}","https://test12345.live/?num_scrambled_semantic=8&num_scrambled_causal=4&num_scrambled_schematic=4&participantId=5825BEB745EF4B119E83C1DF24B5AA8D&assignmentId=6fe7a502-0adf-473a-8674-ab1469137fc2&projectId=051c06f1-75cc-4548-856d-4923ddaba0dc","5825BEB745EF4B119E83C1DF24B5AA8D-2025-05-15-18-58-39","","null","","[]","null","",""
"","","","","","image-button-response","69","402429","0.0-12.0-1.0-0.4","5825BEB745EF4B119E83C1DF24B5AA8D","5825BEB745EF4B119E83C1DF24B5AA8D","6fe7a502-0adf-473a-8674-ab1469137fc2","051c06f1-75cc-4548-856d-4923ddaba0dc","{""num_scrambled_semantic"":""8"",""num_scrambled_causal"":""4"",""num_scrambled_schematic"":""4"",""participantId"":""5825BEB745EF4B119E83C1DF24B5AA8D"",""assignmentId"":""6fe7a502-0adf-473a-8674-ab1469137fc2"",""projectId"":""051c06f1-75cc-4548-856d-4923ddaba0dc""}","https://test12345.live/?num_scrambled_semantic=8&num_scrambled_causal=4&num_scrambled_schematic=4&participantId=5825BEB745EF4B119E83C1DF24B5AA8D&assignmentId=6fe7a502-0adf-473a-8674-ab1469137fc2&projectId=051c06f1-75cc-4548-856d-4923ddaba0dc","5825BEB745EF4B119E83C1DF24B5AA8D-2025-05-15-18-58-39","","null","","images/schematic_sequence/hotel_scheme/hotel_scheme_6.png","null","",""
"","","","","","image-button-response","70","404253","0.0-12.0-1.0-1.4","5825BEB745EF4B119E83C1DF24B5AA8D","5825BEB745EF4B119E83C1DF24B5AA8D","6fe7a502-0adf-473a-8674-ab1469137fc2","051c06f1-75cc-4548-856d-4923ddaba0dc","{""num_scrambled_semantic"":""8"",""num_scrambled_causal"":""4"",""num_scrambled_schematic"":""4"",""participantId"":""5825BEB745EF4B119E83C1DF24B5AA8D"",""assignmentId"":""6fe7a502-0adf-473a-8674-ab1469137fc2"",""projectId"":""051c06f1-75cc-4548-856d-4923ddaba0dc""}","https://test12345.live/?num_scrambled_semantic=8&num_scrambled_causal=4&num_scrambled_schematic=4&participantId=5825BEB745EF4B119E83C1DF24B5AA8D&assignmentId=6fe7a502-0adf-473a-8674-ab1469137fc2&projectId=051c06f1-75cc-4548-856d-4923ddaba0dc","5825BEB745EF4B119E83C1DF24B5AA8D-2025-05-15-18-58-39","","1824","","images/schematic_sequence/hotel_scheme/hotel_scheme_6.png","0","",""
"","","","","","image-button-response","71","406065","0.0-12.0-1.0-2.4","5825BEB745EF4B119E83C1DF24B5AA8D","5825BEB745EF4B119E83C1DF24B5AA8D","6fe7a502-0adf-473a-8674-ab1469137fc2","051c06f1-75cc-4548-856d-4923ddaba0dc","{""num_scrambled_semantic"":""8"",""num_scrambled_causal"":""4"",""num_scrambled_schematic"":""4"",""participantId"":""5825BEB745EF4B119E83C1DF24B5AA8D"",""assignmentId"":""6fe7a502-0adf-473a-8674-ab1469137fc2"",""projectId"":""051c06f1-75cc-4548-856d-4923ddaba0dc""}","https://test12345.live/?num_scrambled_semantic=8&num_scrambled_causal=4&num_scrambled_schematic=4&participantId=5825BEB745EF4B119E83C1DF24B5AA8D&assignmentId=6fe7a502-0adf-473a-8674-ab1469137fc2&projectId=051c06f1-75cc-4548-856d-4923ddaba0dc","5825BEB745EF4B119E83C1DF24B5AA8D-2025-05-15-18-58-39","","null","","[]","null","",""
"","","","","","image-button-response","72","410573","0.0-12.0-1.0-0.5","5825BEB745EF4B119E83C1DF24B5AA8D","5825BEB745EF4B119E83C1DF24B5AA8D","6fe7a502-0adf-473a-8674-ab1469137fc2","051c06f1-75cc-4548-856d-4923ddaba0dc","{""num_scrambled_semantic"":""8"",""num_scrambled_causal"":""4"",""num_scrambled_schematic"":""4"",""participantId"":""5825BEB745EF4B119E83C1DF24B5AA8D"",""assignmentId"":""6fe7a502-0adf-473a-8674-ab1469137fc2"",""projectId"":""051c06f1-75cc-4548-856d-4923ddaba0dc""}","https://test12345.live/?num_scrambled_semantic=8&num_scrambled_causal=4&num_scrambled_schematic=4&participantId=5825BEB745EF4B119E83C1DF24B5AA8D&assignmentId=6fe7a502-0adf-473a-8674-ab1469137fc2&projectId=051c06f1-75cc-4548-856d-4923ddaba0dc","5825BEB745EF4B119E83C1DF24B5AA8D-2025-05-15-18-58-39","","null","","images/schematic_sequence/hotel_scheme/hotel_scheme_2.png","null","",""
"","","","","","image-button-response","73","412634","0.0-12.0-1.0-1.5","5825BEB745EF4B119E83C1DF24B5AA8D","5825BEB745EF4B119E83C1DF24B5AA8D","6fe7a502-0adf-473a-8674-ab1469137fc2","051c06f1-75cc-4548-856d-4923ddaba0dc","{""num_scrambled_semantic"":""8"",""num_scrambled_causal"":""4"",""num_scrambled_schematic"":""4"",""participantId"":""5825BEB745EF4B119E83C1DF24B5AA8D"",""assignmentId"":""6fe7a502-0adf-473a-8674-ab1469137fc2"",""projectId"":""051c06f1-75cc-4548-856d-4923ddaba0dc""}","https://test12345.live/?num_scrambled_semantic=8&num_scrambled_causal=4&num_scrambled_schematic=4&participantId=5825BEB745EF4B119E83C1DF24B5AA8D&assignmentId=6fe7a502-0adf-473a-8674-ab1469137fc2&projectId=051c06f1-75cc-4548-856d-4923ddaba0dc","5825BEB745EF4B119E83C1DF24B5AA8D-2025-05-15-18-58-39","","2060","","images/schematic_sequence/hotel_scheme/hotel_scheme_2.png","0","",""
"","","","","","image-button-response","74","414447","0.0-12.0-1.0-2.5","5825BEB745EF4B119E83C1DF24B5AA8D","5825BEB745EF4B119E83C1DF24B5AA8D","6fe7a502-0adf-473a-8674-ab1469137fc2","051c06f1-75cc-4548-856d-4923ddaba0dc","{""num_scrambled_semantic"":""8"",""num_scrambled_causal"":""4"",""num_scrambled_schematic"":""4"",""participantId"":""5825BEB745EF4B119E83C1DF24B5AA8D"",""assignmentId"":""6fe7a502-0adf-473a-8674-ab1469137fc2"",""projectId"":""051c06f1-75cc-4548-856d-4923ddaba0dc""}","https://test12345.live/?num_scrambled_semantic=8&num_scrambled_causal=4&num_scrambled_schematic=4&participantId=5825BEB745EF4B119E83C1DF24B5AA8D&assignmentId=6fe7a502-0adf-473a-8674-ab1469137fc2&projectId=051c06f1-75cc-4548-856d-4923ddaba0dc","5825BEB745EF4B119E83C1DF24B5AA8D-2025-05-15-18-58-39","","null","","[]","null","",""
"","","","","","image-button-response","75","418960","0.0-12.0-1.0-0.6","5825BEB745EF4B119E83C1DF24B5AA8D","5825BEB745EF4B119E83C1DF24B5AA8D","6fe7a502-0adf-473a-8674-ab1469137fc2","051c06f1-75cc-4548-856d-4923ddaba0dc","{""num_scrambled_semantic"":""8"",""num_scrambled_causal"":""4"",""num_scrambled_schematic"":""4"",""participantId"":""5825BEB745EF4B119E83C1DF24B5AA8D"",""assignmentId"":""6fe7a502-0adf-473a-8674-ab1469137fc2"",""projectId"":""051c06f1-75cc-4548-856d-4923ddaba0dc""}","https://test12345.live/?num_scrambled_semantic=8&num_scrambled_causal=4&num_scrambled_schematic=4&participantId=5825BEB745EF4B119E83C1DF24B5AA8D&assignmentId=6fe7a502-0adf-473a-8674-ab1469137fc2&projectId=051c06f1-75cc-4548-856d-4923ddaba0dc","5825BEB745EF4B119E83C1DF24B5AA8D-2025-05-15-18-58-39","","null","","images/schematic_sequence/hotel_scheme/hotel_scheme_1.png","null","",""
"","","","","","image-button-response","76","422894","0.0-12.0-1.0-1.6","5825BEB745EF4B119E83C1DF24B5AA8D","5825BEB745EF4B119E83C1DF24B5AA8D","6fe7a502-0adf-473a-8674-ab1469137fc2","051c06f1-75cc-4548-856d-4923ddaba0dc","{""num_scrambled_semantic"":""8"",""num_scrambled_causal"":""4"",""num_scrambled_schematic"":""4"",""participantId"":""5825BEB745EF4B119E83C1DF24B5AA8D"",""assignmentId"":""6fe7a502-0adf-473a-8674-ab1469137fc2"",""projectId"":""051c06f1-75cc-4548-856d-4923ddaba0dc""}","https://test12345.live/?num_scrambled_semantic=8&num_scrambled_causal=4&num_scrambled_schematic=4&participantId=5825BEB745EF4B119E83C1DF24B5AA8D&assignmentId=6fe7a502-0adf-473a-8674-ab1469137fc2&projectId=051c06f1-75cc-4548-856d-4923ddaba0dc","5825BEB745EF4B119E83C1DF24B5AA8D-2025-05-15-18-58-39","","3933","","images/schematic_sequence/hotel_scheme/hotel_scheme_1.png","1","",""
"","","","","","image-button-response","77","424698","0.0-12.0-1.0-2.6","5825BEB745EF4B119E83C1DF24B5AA8D","5825BEB745EF4B119E83C1DF24B5AA8D","6fe7a502-0adf-473a-8674-ab1469137fc2","051c06f1-75cc-4548-856d-4923ddaba0dc","{""num_scrambled_semantic"":""8"",""num_scrambled_causal"":""4"",""num_scrambled_schematic"":""4"",""participantId"":""5825BEB745EF4B119E83C1DF24B5AA8D"",""assignmentId"":""6fe7a502-0adf-473a-8674-ab1469137fc2"",""projectId"":""051c06f1-75cc-4548-856d-4923ddaba0dc""}","https://test12345.live/?num_scrambled_semantic=8&num_scrambled_causal=4&num_scrambled_schematic=4&participantId=5825BEB745EF4B119E83C1DF24B5AA8D&assignmentId=6fe7a502-0adf-473a-8674-ab1469137fc2&projectId=051c06f1-75cc-4548-856d-4923ddaba0dc","5825BEB745EF4B119E83C1DF24B5AA8D-2025-05-15-18-58-39","","null","","[]","null","",""
"","","","","","image-button-response","78","429205","0.0-12.0-1.0-0.7","5825BEB745EF4B119E83C1DF24B5AA8D","5825BEB745EF4B119E83C1DF24B5AA8D","6fe7a502-0adf-473a-8674-ab1469137fc2","051c06f1-75cc-4548-856d-4923ddaba0dc","{""num_scrambled_semantic"":""8"",""num_scrambled_causal"":""4"",""num_scrambled_schematic"":""4"",""participantId"":""5825BEB745EF4B119E83C1DF24B5AA8D"",""assignmentId"":""6fe7a502-0adf-473a-8674-ab1469137fc2"",""projectId"":""051c06f1-75cc-4548-856d-4923ddaba0dc""}","https://test12345.live/?num_scrambled_semantic=8&num_scrambled_causal=4&num_scrambled_schematic=4&participantId=5825BEB745EF4B119E83C1DF24B5AA8D&assignmentId=6fe7a502-0adf-473a-8674-ab1469137fc2&projectId=051c06f1-75cc-4548-856d-4923ddaba0dc","5825BEB745EF4B119E83C1DF24B5AA8D-2025-05-15-18-58-39","","null","","images/schematic_sequence/hotel_scheme/hotel_scheme_7.png","null","",""
"","","","","","image-button-response","79","430637","0.0-12.0-1.0-1.7","5825BEB745EF4B119E83C1DF24B5AA8D","5825BEB745EF4B119E83C1DF24B5AA8D","6fe7a502-0adf-473a-8674-ab1469137fc2","051c06f1-75cc-4548-856d-4923ddaba0dc","{""num_scrambled_semantic"":""8"",""num_scrambled_causal"":""4"",""num_scrambled_schematic"":""4"",""participantId"":""5825BEB745EF4B119E83C1DF24B5AA8D"",""assignmentId"":""6fe7a502-0adf-473a-8674-ab1469137fc2"",""projectId"":""051c06f1-75cc-4548-856d-4923ddaba0dc""}","https://test12345.live/?num_scrambled_semantic=8&num_scrambled_causal=4&num_scrambled_schematic=4&participantId=5825BEB745EF4B119E83C1DF24B5AA8D&assignmentId=6fe7a502-0adf-473a-8674-ab1469137fc2&projectId=051c06f1-75cc-4548-856d-4923ddaba0dc","5825BEB745EF4B119E83C1DF24B5AA8D-2025-05-15-18-58-39","","1430","","images/schematic_sequence/hotel_scheme/hotel_scheme_7.png","0","",""
"","","","","","image-button-response","80","432449","0.0-12.0-1.0-2.7","5825BEB745EF4B119E83C1DF24B5AA8D","5825BEB745EF4B119E83C1DF24B5AA8D","6fe7a502-0adf-473a-8674-ab1469137fc2","051c06f1-75cc-4548-856d-4923ddaba0dc","{""num_scrambled_semantic"":""8"",""num_scrambled_causal"":""4"",""num_scrambled_schematic"":""4"",""participantId"":""5825BEB745EF4B119E83C1DF24B5AA8D"",""assignmentId"":""6fe7a502-0adf-473a-8674-ab1469137fc2"",""projectId"":""051c06f1-75cc-4548-856d-4923ddaba0dc""}","https://test12345.live/?num_scrambled_semantic=8&num_scrambled_causal=4&num_scrambled_schematic=4&participantId=5825BEB745EF4B119E83C1DF24B5AA8D&assignmentId=6fe7a502-0adf-473a-8674-ab1469137fc2&projectId=051c06f1-75cc-4548-856d-4923ddaba0dc","5825BEB745EF4B119E83C1DF24B5AA8D-2025-05-15-18-58-39","","null","","[]","null","",""
"","","","","","image-button-response","81","436961","0.0-12.0-1.0-0.8","5825BEB745EF4B119E83C1DF24B5AA8D","5825BEB745EF4B119E83C1DF24B5AA8D","6fe7a502-0adf-473a-8674-ab1469137fc2","051c06f1-75cc-4548-856d-4923ddaba0dc","{""num_scrambled_semantic"":""8"",""num_scrambled_causal"":""4"",""num_scrambled_schematic"":""4"",""participantId"":""5825BEB745EF4B119E83C1DF24B5AA8D"",""assignmentId"":""6fe7a502-0adf-473a-8674-ab1469137fc2"",""projectId"":""051c06f1-75cc-4548-856d-4923ddaba0dc""}","https://test12345.live/?num_scrambled_semantic=8&num_scrambled_causal=4&num_scrambled_schematic=4&participantId=5825BEB745EF4B119E83C1DF24B5AA8D&assignmentId=6fe7a502-0adf-473a-8674-ab1469137fc2&projectId=051c06f1-75cc-4548-856d-4923ddaba0dc","5825BEB745EF4B119E83C1DF24B5AA8D-2025-05-15-18-58-39","","null","","images/schematic_sequence/hotel_scheme/hotel_scheme_4.png","null","",""
"","","","","","image-button-response","82","438928","0.0-12.0-1.0-1.8","5825BEB745EF4B119E83C1DF24B5AA8D","5825BEB745EF4B119E83C1DF24B5AA8D","6fe7a502-0adf-473a-8674-ab1469137fc2","051c06f1-75cc-4548-856d-4923ddaba0dc","{""num_scrambled_semantic"":""8"",""num_scrambled_causal"":""4"",""num_scrambled_schematic"":""4"",""participantId"":""5825BEB745EF4B119E83C1DF24B5AA8D"",""assignmentId"":""6fe7a502-0adf-473a-8674-ab1469137fc2"",""projectId"":""051c06f1-75cc-4548-856d-4923ddaba0dc""}","https://test12345.live/?num_scrambled_semantic=8&num_scrambled_causal=4&num_scrambled_schematic=4&participantId=5825BEB745EF4B119E83C1DF24B5AA8D&assignmentId=6fe7a502-0adf-473a-8674-ab1469137fc2&projectId=051c06f1-75cc-4548-856d-4923ddaba0dc","5825BEB745EF4B119E83C1DF24B5AA8D-2025-05-15-18-58-39","","1967","","images/schematic_sequence/hotel_scheme/hotel_scheme_4.png","0","",""
"","","","","","image-button-response","83","440742","0.0-12.0-1.0-2.8","5825BEB745EF4B119E83C1DF24B5AA8D","5825BEB745EF4B119E83C1DF24B5AA8D","6fe7a502-0adf-473a-8674-ab1469137fc2","051c06f1-75cc-4548-856d-4923ddaba0dc","{""num_scrambled_semantic"":""8"",""num_scrambled_causal"":""4"",""num_scrambled_schematic"":""4"",""participantId"":""5825BEB745EF4B119E83C1DF24B5AA8D"",""assignmentId"":""6fe7a502-0adf-473a-8674-ab1469137fc2"",""projectId"":""051c06f1-75cc-4548-856d-4923ddaba0dc""}","https://test12345.live/?num_scrambled_semantic=8&num_scrambled_causal=4&num_scrambled_schematic=4&participantId=5825BEB745EF4B119E83C1DF24B5AA8D&assignmentId=6fe7a502-0adf-473a-8674-ab1469137fc2&projectId=051c06f1-75cc-4548-856d-4923ddaba0dc","5825BEB745EF4B119E83C1DF24B5AA8D-2025-05-15-18-58-39","","null","","[]","null","",""
"","","","","","image-button-response","84","445245","0.0-12.0-1.0-0.9","5825BEB745EF4B119E83C1DF24B5AA8D","5825BEB745EF4B119E83C1DF24B5AA8D","6fe7a502-0adf-473a-8674-ab1469137fc2","051c06f1-75cc-4548-856d-4923ddaba0dc","{""num_scrambled_semantic"":""8"",""num_scrambled_causal"":""4"",""num_scrambled_schematic"":""4"",""participantId"":""5825BEB745EF4B119E83C1DF24B5AA8D"",""assignmentId"":""6fe7a502-0adf-473a-8674-ab1469137fc2"",""projectId"":""051c06f1-75cc-4548-856d-4923ddaba0dc""}","https://test12345.live/?num_scrambled_semantic=8&num_scrambled_causal=4&num_scrambled_schematic=4&participantId=5825BEB745EF4B119E83C1DF24B5AA8D&assignmentId=6fe7a502-0adf-473a-8674-ab1469137fc2&projectId=051c06f1-75cc-4548-856d-4923ddaba0dc","5825BEB745EF4B119E83C1DF24B5AA8D-2025-05-15-18-58-39","","null","","images/schematic_sequence/hotel_scheme/hotel_scheme_8.png","null","",""
"","","","","","image-button-response","85","446936","0.0-12.0-1.0-1.9","5825BEB745EF4B119E83C1DF24B5AA8D","5825BEB745EF4B119E83C1DF24B5AA8D","6fe7a502-0adf-473a-8674-ab1469137fc2","051c06f1-75cc-4548-856d-4923ddaba0dc","{""num_scrambled_semantic"":""8"",""num_scrambled_causal"":""4"",""num_scrambled_schematic"":""4"",""participantId"":""5825BEB745EF4B119E83C1DF24B5AA8D"",""assignmentId"":""6fe7a502-0adf-473a-8674-ab1469137fc2"",""projectId"":""051c06f1-75cc-4548-856d-4923ddaba0dc""}","https://test12345.live/?num_scrambled_semantic=8&num_scrambled_causal=4&num_scrambled_schematic=4&participantId=5825BEB745EF4B119E83C1DF24B5AA8D&assignmentId=6fe7a502-0adf-473a-8674-ab1469137fc2&projectId=051c06f1-75cc-4548-856d-4923ddaba0dc","5825BEB745EF4B119E83C1DF24B5AA8D-2025-05-15-18-58-39","","1691","","images/schematic_sequence/hotel_scheme/hotel_scheme_8.png","0","",""
"","","","","","image-button-response","86","448751","0.0-12.0-1.0-2.9","5825BEB745EF4B119E83C1DF24B5AA8D","5825BEB745EF4B119E83C1DF24B5AA8D","6fe7a502-0adf-473a-8674-ab1469137fc2","051c06f1-75cc-4548-856d-4923ddaba0dc","{""num_scrambled_semantic"":""8"",""num_scrambled_causal"":""4"",""num_scrambled_schematic"":""4"",""participantId"":""5825BEB745EF4B119E83C1DF24B5AA8D"",""assignmentId"":""6fe7a502-0adf-473a-8674-ab1469137fc2"",""projectId"":""051c06f1-75cc-4548-856d-4923ddaba0dc""}","https://test12345.live/?num_scrambled_semantic=8&num_scrambled_causal=4&num_scrambled_schematic=4&participantId=5825BEB745EF4B119E83C1DF24B5AA8D&assignmentId=6fe7a502-0adf-473a-8674-ab1469137fc2&projectId=051c06f1-75cc-4548-856d-4923ddaba0dc","5825BEB745EF4B119E83C1DF24B5AA8D-2025-05-15-18-58-39","","null","","[]","null","",""
"","","","","","html-audio-response","87","489122","0.0-13.0","5825BEB745EF4B119E83C1DF24B5AA8D","5825BEB745EF4B119E83C1DF24B5AA8D","6fe7a502-0adf-473a-8674-ab1469137fc2","051c06f1-75cc-4548-856d-4923ddaba0dc","{""num_scrambled_semantic"":""8"",""num_scrambled_causal"":""4"",""num_scrambled_schematic"":""4"",""participantId"":""5825BEB745EF4B119E83C1DF24B5AA8D"",""assignmentId"":""6fe7a502-0adf-473a-8674-ab1469137fc2"",""projectId"":""051c06f1-75cc-4548-856d-4923ddaba0dc""}","https://test12345.live/?num_scrambled_semantic=8&num_scrambled_causal=4&num_scrambled_schematic=4&participantId=5825BEB745EF4B119E83C1DF24B5AA8D&assignmentId=6fe7a502-0adf-473a-8674-ab1469137fc2&projectId=051c06f1-75cc-4548-856d-4923ddaba0dc","5825BEB745EF4B119E83C1DF24B5AA8D-2025-05-15-18-58-39","","3358","","[""<span style=\""color: red; font-size: 24px\""> NOW RECORDING</span><p>Please say out loud all the images you saw, as many as you can remember. The images can be said in any order.</p>""]","","1","hotel_scheme"
"","","","","","image-button-response","88","495128","0.0-14.0-0.0","5825BEB745EF4B119E83C1DF24B5AA8D","5825BEB745EF4B119E83C1DF24B5AA8D","6fe7a502-0adf-473a-8674-ab1469137fc2","051c06f1-75cc-4548-856d-4923ddaba0dc","{""num_scrambled_semantic"":""8"",""num_scrambled_causal"":""4"",""num_scrambled_schematic"":""4"",""participantId"":""5825BEB745EF4B119E83C1DF24B5AA8D"",""assignmentId"":""6fe7a502-0adf-473a-8674-ab1469137fc2"",""projectId"":""051c06f1-75cc-4548-856d-4923ddaba0dc""}","https://test12345.live/?num_scrambled_semantic=8&num_scrambled_causal=4&num_scrambled_schematic=4&participantId=5825BEB745EF4B119E83C1DF24B5AA8D&assignmentId=6fe7a502-0adf-473a-8674-ab1469137fc2&projectId=051c06f1-75cc-4548-856d-4923ddaba0dc","5825BEB745EF4B119E83C1DF24B5AA8D-2025-05-15-18-58-39","","null","","images/causal_sequence/museum_causal/museum_causal_0.png","null","",""
"","","","","","image-button-response","89","499630","0.0-14.0-1.0-0.0","5825BEB745EF4B119E83C1DF24B5AA8D","5825BEB745EF4B119E83C1DF24B5AA8D","6fe7a502-0adf-473a-8674-ab1469137fc2","051c06f1-75cc-4548-856d-4923ddaba0dc","{""num_scrambled_semantic"":""8"",""num_scrambled_causal"":""4"",""num_scrambled_schematic"":""4"",""participantId"":""5825BEB745EF4B119E83C1DF24B5AA8D"",""assignmentId"":""6fe7a502-0adf-473a-8674-ab1469137fc2"",""projectId"":""051c06f1-75cc-4548-856d-4923ddaba0dc""}","https://test12345.live/?num_scrambled_semantic=8&num_scrambled_causal=4&num_scrambled_schematic=4&participantId=5825BEB745EF4B119E83C1DF24B5AA8D&assignmentId=6fe7a502-0adf-473a-8674-ab1469137fc2&projectId=051c06f1-75cc-4548-856d-4923ddaba0dc","5825BEB745EF4B119E83C1DF24B5AA8D-2025-05-15-18-58-39","","null","","images/causal_sequence/museum_causal/museum_causal_4.png","null","",""
"","","","","","image-button-response","90","500781","0.0-14.0-1.0-1.0","5825BEB745EF4B119E83C1DF24B5AA8D","5825BEB745EF4B119E83C1DF24B5AA8D","6fe7a502-0adf-473a-8674-ab1469137fc2","051c06f1-75cc-4548-856d-4923ddaba0dc","{""num_scrambled_semantic"":""8"",""num_scrambled_causal"":""4"",""num_scrambled_schematic"":""4"",""participantId"":""5825BEB745EF4B119E83C1DF24B5AA8D"",""assignmentId"":""6fe7a502-0adf-473a-8674-ab1469137fc2"",""projectId"":""051c06f1-75cc-4548-856d-4923ddaba0dc""}","https://test12345.live/?num_scrambled_semantic=8&num_scrambled_causal=4&num_scrambled_schematic=4&participantId=5825BEB745EF4B119E83C1DF24B5AA8D&assignmentId=6fe7a502-0adf-473a-8674-ab1469137fc2&projectId=051c06f1-75cc-4548-856d-4923ddaba0dc","5825BEB745EF4B119E83C1DF24B5AA8D-2025-05-15-18-58-39","","1151","","images/causal_sequence/museum_causal/museum_causal_4.png","1","",""
"","","","","","image-button-response","91","502589","0.0-14.0-1.0-2.0","5825BEB745EF4B119E83C1DF24B5AA8D","5825BEB745EF4B119E83C1DF24B5AA8D","6fe7a502-0adf-473a-8674-ab1469137fc2","051c06f1-75cc-4548-856d-4923ddaba0dc","{""num_scrambled_semantic"":""8"",""num_scrambled_causal"":""4"",""num_scrambled_schematic"":""4"",""participantId"":""5825BEB745EF4B119E83C1DF24B5AA8D"",""assignmentId"":""6fe7a502-0adf-473a-8674-ab1469137fc2"",""projectId"":""051c06f1-75cc-4548-856d-4923ddaba0dc""}","https://test12345.live/?num_scrambled_semantic=8&num_scrambled_causal=4&num_scrambled_schematic=4&participantId=5825BEB745EF4B119E83C1DF24B5AA8D&assignmentId=6fe7a502-0adf-473a-8674-ab1469137fc2&projectId=051c06f1-75cc-4548-856d-4923ddaba0dc","5825BEB745EF4B119E83C1DF24B5AA8D-2025-05-15-18-58-39","","null","","[]","null","",""
"","","","","","image-button-response","92","507090","0.0-14.0-1.0-0.1","5825BEB745EF4B119E83C1DF24B5AA8D","5825BEB745EF4B119E83C1DF24B5AA8D","6fe7a502-0adf-473a-8674-ab1469137fc2","051c06f1-75cc-4548-856d-4923ddaba0dc","{""num_scrambled_semantic"":""8"",""num_scrambled_causal"":""4"",""num_scrambled_schematic"":""4"",""participantId"":""5825BEB745EF4B119E83C1DF24B5AA8D"",""assignmentId"":""6fe7a502-0adf-473a-8674-ab1469137fc2"",""projectId"":""051c06f1-75cc-4548-856d-4923ddaba0dc""}","https://test12345.live/?num_scrambled_semantic=8&num_scrambled_causal=4&num_scrambled_schematic=4&participantId=5825BEB745EF4B119E83C1DF24B5AA8D&assignmentId=6fe7a502-0adf-473a-8674-ab1469137fc2&projectId=051c06f1-75cc-4548-856d-4923ddaba0dc","5825BEB745EF4B119E83C1DF24B5AA8D-2025-05-15-18-58-39","","null","","images/causal_sequence/museum_causal/museum_causal_5.png","null","",""
"","","","","","image-button-response","93","507965","0.0-14.0-1.0-1.1","5825BEB745EF4B119E83C1DF24B5AA8D","5825BEB745EF4B119E83C1DF24B5AA8D","6fe7a502-0adf-473a-8674-ab1469137fc2","051c06f1-75cc-4548-856d-4923ddaba0dc","{""num_scrambled_semantic"":""8"",""num_scrambled_causal"":""4"",""num_scrambled_schematic"":""4"",""participantId"":""5825BEB745EF4B119E83C1DF24B5AA8D"",""assignmentId"":""6fe7a502-0adf-473a-8674-ab1469137fc2"",""projectId"":""051c06f1-75cc-4548-856d-4923ddaba0dc""}","https://test12345.live/?num_scrambled_semantic=8&num_scrambled_causal=4&num_scrambled_schematic=4&participantId=5825BEB745EF4B119E83C1DF24B5AA8D&assignmentId=6fe7a502-0adf-473a-8674-ab1469137fc2&projectId=051c06f1-75cc-4548-856d-4923ddaba0dc","5825BEB745EF4B119E83C1DF24B5AA8D-2025-05-15-18-58-39","","874","","images/causal_sequence/museum_causal/museum_causal_5.png","0","",""
"","","","","","image-button-response","94","509766","0.0-14.0-1.0-2.1","5825BEB745EF4B119E83C1DF24B5AA8D","5825BEB745EF4B119E83C1DF24B5AA8D","6fe7a502-0adf-473a-8674-ab1469137fc2","051c06f1-75cc-4548-856d-4923ddaba0dc","{""num_scrambled_semantic"":""8"",""num_scrambled_causal"":""4"",""num_scrambled_schematic"":""4"",""participantId"":""5825BEB745EF4B119E83C1DF24B5AA8D"",""assignmentId"":""6fe7a502-0adf-473a-8674-ab1469137fc2"",""projectId"":""051c06f1-75cc-4548-856d-4923ddaba0dc""}","https://test12345.live/?num_scrambled_semantic=8&num_scrambled_causal=4&num_scrambled_schematic=4&participantId=5825BEB745EF4B119E83C1DF24B5AA8D&assignmentId=6fe7a502-0adf-473a-8674-ab1469137fc2&projectId=051c06f1-75cc-4548-856d-4923ddaba0dc","5825BEB745EF4B119E83C1DF24B5AA8D-2025-05-15-18-58-39","","null","","[]","null","",""
"","","","","","image-button-response","95","514267","0.0-14.0-1.0-0.2","5825BEB745EF4B119E83C1DF24B5AA8D","5825BEB745EF4B119E83C1DF24B5AA8D","6fe7a502-0adf-473a-8674-ab1469137fc2","051c06f1-75cc-4548-856d-4923ddaba0dc","{""num_scrambled_semantic"":""8"",""num_scrambled_causal"":""4"",""num_scrambled_schematic"":""4"",""participantId"":""5825BEB745EF4B119E83C1DF24B5AA8D"",""assignmentId"":""6fe7a502-0adf-473a-8674-ab1469137fc2"",""projectId"":""051c06f1-75cc-4548-856d-4923ddaba0dc""}","https://test12345.live/?num_scrambled_semantic=8&num_scrambled_causal=4&num_scrambled_schematic=4&participantId=5825BEB745EF4B119E83C1DF24B5AA8D&assignmentId=6fe7a502-0adf-473a-8674-ab1469137fc2&projectId=051c06f1-75cc-4548-856d-4923ddaba0dc","5825BEB745EF4B119E83C1DF24B5AA8D-2025-05-15-18-58-39","","null","","images/causal_sequence/museum_causal/museum_causal_7.png","null","",""
"","","","","","image-button-response","96","516106","0.0-14.0-1.0-1.2","5825BEB745EF4B119E83C1DF24B5AA8D","5825BEB745EF4B119E83C1DF24B5AA8D","6fe7a502-0adf-473a-8674-ab1469137fc2","051c06f1-75cc-4548-856d-4923ddaba0dc","{""num_scrambled_semantic"":""8"",""num_scrambled_causal"":""4"",""num_scrambled_schematic"":""4"",""participantId"":""5825BEB745EF4B119E83C1DF24B5AA8D"",""assignmentId"":""6fe7a502-0adf-473a-8674-ab1469137fc2"",""projectId"":""051c06f1-75cc-4548-856d-4923ddaba0dc""}","https://test12345.live/?num_scrambled_semantic=8&num_scrambled_causal=4&num_scrambled_schematic=4&participantId=5825BEB745EF4B119E83C1DF24B5AA8D&assignmentId=6fe7a502-0adf-473a-8674-ab1469137fc2&projectId=051c06f1-75cc-4548-856d-4923ddaba0dc","5825BEB745EF4B119E83C1DF24B5AA8D-2025-05-15-18-58-39","","1838","","images/causal_sequence/museum_causal/museum_causal_7.png","1","",""
"","","","","","image-button-response","97","517917","0.0-14.0-1.0-2.2","5825BEB745EF4B119E83C1DF24B5AA8D","5825BEB745EF4B119E83C1DF24B5AA8D","6fe7a502-0adf-473a-8674-ab1469137fc2","051c06f1-75cc-4548-856d-4923ddaba0dc","{""num_scrambled_semantic"":""8"",""num_scrambled_causal"":""4"",""num_scrambled_schematic"":""4"",""participantId"":""5825BEB745EF4B119E83C1DF24B5AA8D"",""assignmentId"":""6fe7a502-0adf-473a-8674-ab1469137fc2"",""projectId"":""051c06f1-75cc-4548-856d-4923ddaba0dc""}","https://test12345.live/?num_scrambled_semantic=8&num_scrambled_causal=4&num_scrambled_schematic=4&participantId=5825BEB745EF4B119E83C1DF24B5AA8D&assignmentId=6fe7a502-0adf-473a-8674-ab1469137fc2&projectId=051c06f1-75cc-4548-856d-4923ddaba0dc","5825BEB745EF4B119E83C1DF24B5AA8D-2025-05-15-18-58-39","","null","","[]","null","",""
"","","","","","image-button-response","98","522417","0.0-14.0-1.0-0.3","5825BEB745EF4B119E83C1DF24B5AA8D","5825BEB745EF4B119E83C1DF24B5AA8D","6fe7a502-0adf-473a-8674-ab1469137fc2","051c06f1-75cc-4548-856d-4923ddaba0dc","{""num_scrambled_semantic"":""8"",""num_scrambled_causal"":""4"",""num_scrambled_schematic"":""4"",""participantId"":""5825BEB745EF4B119E83C1DF24B5AA8D"",""assignmentId"":""6fe7a502-0adf-473a-8674-ab1469137fc2"",""projectId"":""051c06f1-75cc-4548-856d-4923ddaba0dc""}","https://test12345.live/?num_scrambled_semantic=8&num_scrambled_causal=4&num_scrambled_schematic=4&participantId=5825BEB745EF4B119E83C1DF24B5AA8D&assignmentId=6fe7a502-0adf-473a-8674-ab1469137fc2&projectId=051c06f1-75cc-4548-856d-4923ddaba0dc","5825BEB745EF4B119E83C1DF24B5AA8D-2025-05-15-18-58-39","","null","","images/causal_sequence/museum_causal/museum_causal_8.png","null","",""
"","","","","","image-button-response","99","523024","0.0-14.0-1.0-1.3","5825BEB745EF4B119E83C1DF24B5AA8D","5825BEB745EF4B119E83C1DF24B5AA8D","6fe7a502-0adf-473a-8674-ab1469137fc2","051c06f1-75cc-4548-856d-4923ddaba0dc","{""num_scrambled_semantic"":""8"",""num_scrambled_causal"":""4"",""num_scrambled_schematic"":""4"",""participantId"":""5825BEB745EF4B119E83C1DF24B5AA8D"",""assignmentId"":""6fe7a502-0adf-473a-8674-ab1469137fc2"",""projectId"":""051c06f1-75cc-4548-856d-4923ddaba0dc""}","https://test12345.live/?num_scrambled_semantic=8&num_scrambled_causal=4&num_scrambled_schematic=4&participantId=5825BEB745EF4B119E83C1DF24B5AA8D&assignmentId=6fe7a502-0adf-473a-8674-ab1469137fc2&projectId=051c06f1-75cc-4548-856d-4923ddaba0dc","5825BEB745EF4B119E83C1DF24B5AA8D-2025-05-15-18-58-39","","606","","images/causal_sequence/museum_causal/museum_causal_8.png","0","",""
"","","","","","image-button-response","100","524840","0.0-14.0-1.0-2.3","5825BEB745EF4B119E83C1DF24B5AA8D","5825BEB745EF4B119E83C1DF24B5AA8D","6fe7a502-0adf-473a-8674-ab1469137fc2","051c06f1-75cc-4548-856d-4923ddaba0dc","{""num_scrambled_semantic"":""8"",""num_scrambled_causal"":""4"",""num_scrambled_schematic"":""4"",""participantId"":""5825BEB745EF4B119E83C1DF24B5AA8D"",""assignmentId"":""6fe7a502-0adf-473a-8674-ab1469137fc2"",""projectId"":""051c06f1-75cc-4548-856d-4923ddaba0dc""}","https://test12345.live/?num_scrambled_semantic=8&num_scrambled_causal=4&num_scrambled_schematic=4&participantId=5825BEB745EF4B119E83C1DF24B5AA8D&assignmentId=6fe7a502-0adf-473a-8674-ab1469137fc2&projectId=051c06f1-75cc-4548-856d-4923ddaba0dc","5825BEB745EF4B119E83C1DF24B5AA8D-2025-05-15-18-58-39","","null","","[]","null","",""
"","","","","","image-button-response","101","529346","0.0-14.0-1.0-0.4","5825BEB745EF4B119E83C1DF24B5AA8D","5825BEB745EF4B119E83C1DF24B5AA8D","6fe7a502-0adf-473a-8674-ab1469137fc2","051c06f1-75cc-4548-856d-4923ddaba0dc","{""num_scrambled_semantic"":""8"",""num_scrambled_causal"":""4"",""num_scrambled_schematic"":""4"",""participantId"":""5825BEB745EF4B119E83C1DF24B5AA8D"",""assignmentId"":""6fe7a502-0adf-473a-8674-ab1469137fc2"",""projectId"":""051c06f1-75cc-4548-856d-4923ddaba0dc""}","https://test12345.live/?num_scrambled_semantic=8&num_scrambled_causal=4&num_scrambled_schematic=4&participantId=5825BEB745EF4B119E83C1DF24B5AA8D&assignmentId=6fe7a502-0adf-473a-8674-ab1469137fc2&projectId=051c06f1-75cc-4548-856d-4923ddaba0dc","5825BEB745EF4B119E83C1DF24B5AA8D-2025-05-15-18-58-39","","null","","images/causal_sequence/museum_causal/museum_causal_9.png","null","",""
"","","","","","image-button-response","102","531277","0.0-14.0-1.0-1.4","5825BEB745EF4B119E83C1DF24B5AA8D","5825BEB745EF4B119E83C1DF24B5AA8D","6fe7a502-0adf-473a-8674-ab1469137fc2","051c06f1-75cc-4548-856d-4923ddaba0dc","{""num_scrambled_semantic"":""8"",""num_scrambled_causal"":""4"",""num_scrambled_schematic"":""4"",""participantId"":""5825BEB745EF4B119E83C1DF24B5AA8D"",""assignmentId"":""6fe7a502-0adf-473a-8674-ab1469137fc2"",""projectId"":""051c06f1-75cc-4548-856d-4923ddaba0dc""}","https://test12345.live/?num_scrambled_semantic=8&num_scrambled_causal=4&num_scrambled_schematic=4&participantId=5825BEB745EF4B119E83C1DF24B5AA8D&assignmentId=6fe7a502-0adf-473a-8674-ab1469137fc2&projectId=051c06f1-75cc-4548-856d-4923ddaba0dc","5825BEB745EF4B119E83C1DF24B5AA8D-2025-05-15-18-58-39","","1930","","images/causal_sequence/museum_causal/museum_causal_9.png","1","",""
"","","","","","image-button-response","103","533084","0.0-14.0-1.0-2.4","5825BEB745EF4B119E83C1DF24B5AA8D","5825BEB745EF4B119E83C1DF24B5AA8D","6fe7a502-0adf-473a-8674-ab1469137fc2","051c06f1-75cc-4548-856d-4923ddaba0dc","{""num_scrambled_semantic"":""8"",""num_scrambled_causal"":""4"",""num_scrambled_schematic"":""4"",""participantId"":""5825BEB745EF4B119E83C1DF24B5AA8D"",""assignmentId"":""6fe7a502-0adf-473a-8674-ab1469137fc2"",""projectId"":""051c06f1-75cc-4548-856d-4923ddaba0dc""}","https://test12345.live/?num_scrambled_semantic=8&num_scrambled_causal=4&num_scrambled_schematic=4&participantId=5825BEB745EF4B119E83C1DF24B5AA8D&assignmentId=6fe7a502-0adf-473a-8674-ab1469137fc2&projectId=051c06f1-75cc-4548-856d-4923ddaba0dc","5825BEB745EF4B119E83C1DF24B5AA8D-2025-05-15-18-58-39","","null","","[]","null","",""
"","","","","","image-button-response","104","537597","0.0-14.0-1.0-0.5","5825BEB745EF4B119E83C1DF24B5AA8D","5825BEB745EF4B119E83C1DF24B5AA8D","6fe7a502-0adf-473a-8674-ab1469137fc2","051c06f1-75cc-4548-856d-4923ddaba0dc","{""num_scrambled_semantic"":""8"",""num_scrambled_causal"":""4"",""num_scrambled_schematic"":""4"",""participantId"":""5825BEB745EF4B119E83C1DF24B5AA8D"",""assignmentId"":""6fe7a502-0adf-473a-8674-ab1469137fc2"",""projectId"":""051c06f1-75cc-4548-856d-4923ddaba0dc""}","https://test12345.live/?num_scrambled_semantic=8&num_scrambled_causal=4&num_scrambled_schematic=4&participantId=5825BEB745EF4B119E83C1DF24B5AA8D&assignmentId=6fe7a502-0adf-473a-8674-ab1469137fc2&projectId=051c06f1-75cc-4548-856d-4923ddaba0dc","5825BEB745EF4B119E83C1DF24B5AA8D-2025-05-15-18-58-39","","null","","images/causal_sequence/museum_causal/museum_causal_3.png","null","",""
"","","","","","image-button-response","105","538453","0.0-14.0-1.0-1.5","5825BEB745EF4B119E83C1DF24B5AA8D","5825BEB745EF4B119E83C1DF24B5AA8D","6fe7a502-0adf-473a-8674-ab1469137fc2","051c06f1-75cc-4548-856d-4923ddaba0dc","{""num_scrambled_semantic"":""8"",""num_scrambled_causal"":""4"",""num_scrambled_schematic"":""4"",""participantId"":""5825BEB745EF4B119E83C1DF24B5AA8D"",""assignmentId"":""6fe7a502-0adf-473a-8674-ab1469137fc2"",""projectId"":""051c06f1-75cc-4548-856d-4923ddaba0dc""}","https://test12345.live/?num_scrambled_semantic=8&num_scrambled_causal=4&num_scrambled_schematic=4&participantId=5825BEB745EF4B119E83C1DF24B5AA8D&assignmentId=6fe7a502-0adf-473a-8674-ab1469137fc2&projectId=051c06f1-75cc-4548-856d-4923ddaba0dc","5825BEB745EF4B119E83C1DF24B5AA8D-2025-05-15-18-58-39","","856","","images/causal_sequence/museum_causal/museum_causal_3.png","0","",""
"","","","","","image-button-response","106","540266","0.0-14.0-1.0-2.5","5825BEB745EF4B119E83C1DF24B5AA8D","5825BEB745EF4B119E83C1DF24B5AA8D","6fe7a502-0adf-473a-8674-ab1469137fc2","051c06f1-75cc-4548-856d-4923ddaba0dc","{""num_scrambled_semantic"":""8"",""num_scrambled_causal"":""4"",""num_scrambled_schematic"":""4"",""participantId"":""5825BEB745EF4B119E83C1DF24B5AA8D"",""assignmentId"":""6fe7a502-0adf-473a-8674-ab1469137fc2"",""projectId"":""051c06f1-75cc-4548-856d-4923ddaba0dc""}","https://test12345.live/?num_scrambled_semantic=8&num_scrambled_causal=4&num_scrambled_schematic=4&participantId=5825BEB745EF4B119E83C1DF24B5AA8D&assignmentId=6fe7a502-0adf-473a-8674-ab1469137fc2&projectId=051c06f1-75cc-4548-856d-4923ddaba0dc","5825BEB745EF4B119E83C1DF24B5AA8D-2025-05-15-18-58-39","","null","","[]","null","",""
"","","","","","image-button-response","107","544781","0.0-14.0-1.0-0.6","5825BEB745EF4B119E83C1DF24B5AA8D","5825BEB745EF4B119E83C1DF24B5AA8D","6fe7a502-0adf-473a-8674-ab1469137fc2","051c06f1-75cc-4548-856d-4923ddaba0dc","{""num_scrambled_semantic"":""8"",""num_scrambled_causal"":""4"",""num_scrambled_schematic"":""4"",""participantId"":""5825BEB745EF4B119E83C1DF24B5AA8D"",""assignmentId"":""6fe7a502-0adf-473a-8674-ab1469137fc2"",""projectId"":""051c06f1-75cc-4548-856d-4923ddaba0dc""}","https://test12345.live/?num_scrambled_semantic=8&num_scrambled_causal=4&num_scrambled_schematic=4&participantId=5825BEB745EF4B119E83C1DF24B5AA8D&assignmentId=6fe7a502-0adf-473a-8674-ab1469137fc2&projectId=051c06f1-75cc-4548-856d-4923ddaba0dc","5825BEB745EF4B119E83C1DF24B5AA8D-2025-05-15-18-58-39","","null","","images/causal_sequence/museum_causal/museum_causal_6.png","null","",""
"","","","","","image-button-response","108","545796","0.0-14.0-1.0-1.6","5825BEB745EF4B119E83C1DF24B5AA8D","5825BEB745EF4B119E83C1DF24B5AA8D","6fe7a502-0adf-473a-8674-ab1469137fc2","051c06f1-75cc-4548-856d-4923ddaba0dc","{""num_scrambled_semantic"":""8"",""num_scrambled_causal"":""4"",""num_scrambled_schematic"":""4"",""participantId"":""5825BEB745EF4B119E83C1DF24B5AA8D"",""assignmentId"":""6fe7a502-0adf-473a-8674-ab1469137fc2"",""projectId"":""051c06f1-75cc-4548-856d-4923ddaba0dc""}","https://test12345.live/?num_scrambled_semantic=8&num_scrambled_causal=4&num_scrambled_schematic=4&participantId=5825BEB745EF4B119E83C1DF24B5AA8D&assignmentId=6fe7a502-0adf-473a-8674-ab1469137fc2&projectId=051c06f1-75cc-4548-856d-4923ddaba0dc","5825BEB745EF4B119E83C1DF24B5AA8D-2025-05-15-18-58-39","","1014","","images/causal_sequence/museum_causal/museum_causal_6.png","0","",""
"","","","","","image-button-response","109","547606","0.0-14.0-1.0-2.6","5825BEB745EF4B119E83C1DF24B5AA8D","5825BEB745EF4B119E83C1DF24B5AA8D","6fe7a502-0adf-473a-8674-ab1469137fc2","051c06f1-75cc-4548-856d-4923ddaba0dc","{""num_scrambled_semantic"":""8"",""num_scrambled_causal"":""4"",""num_scrambled_schematic"":""4"",""participantId"":""5825BEB745EF4B119E83C1DF24B5AA8D"",""assignmentId"":""6fe7a502-0adf-473a-8674-ab1469137fc2"",""projectId"":""051c06f1-75cc-4548-856d-4923ddaba0dc""}","https://test12345.live/?num_scrambled_semantic=8&num_scrambled_causal=4&num_scrambled_schematic=4&participantId=5825BEB745EF4B119E83C1DF24B5AA8D&assignmentId=6fe7a502-0adf-473a-8674-ab1469137fc2&projectId=051c06f1-75cc-4548-856d-4923ddaba0dc","5825BEB745EF4B119E83C1DF24B5AA8D-2025-05-15-18-58-39","","null","","[]","null","",""
"","","","","","image-button-response","110","552108","0.0-14.0-1.0-0.7","5825BEB745EF4B119E83C1DF24B5AA8D","5825BEB745EF4B119E83C1DF24B5AA8D","6fe7a502-0adf-473a-8674-ab1469137fc2","051c06f1-75cc-4548-856d-4923ddaba0dc","{""num_scrambled_semantic"":""8"",""num_scrambled_causal"":""4"",""num_scrambled_schematic"":""4"",""participantId"":""5825BEB745EF4B119E83C1DF24B5AA8D"",""assignmentId"":""6fe7a502-0adf-473a-8674-ab1469137fc2"",""projectId"":""051c06f1-75cc-4548-856d-4923ddaba0dc""}","https://test12345.live/?num_scrambled_semantic=8&num_scrambled_causal=4&num_scrambled_schematic=4&participantId=5825BEB745EF4B119E83C1DF24B5AA8D&assignmentId=6fe7a502-0adf-473a-8674-ab1469137fc2&projectId=051c06f1-75cc-4548-856d-4923ddaba0dc","5825BEB745EF4B119E83C1DF24B5AA8D-2025-05-15-18-58-39","","null","","images/causal_sequence/museum_causal/museum_causal_ten.png","null","",""
"","","","","","image-button-response","111","553475","0.0-14.0-1.0-1.7","5825BEB745EF4B119E83C1DF24B5AA8D","5825BEB745EF4B119E83C1DF24B5AA8D","6fe7a502-0adf-473a-8674-ab1469137fc2","051c06f1-75cc-4548-856d-4923ddaba0dc","{""num_scrambled_semantic"":""8"",""num_scrambled_causal"":""4"",""num_scrambled_schematic"":""4"",""participantId"":""5825BEB745EF4B119E83C1DF24B5AA8D"",""assignmentId"":""6fe7a502-0adf-473a-8674-ab1469137fc2"",""projectId"":""051c06f1-75cc-4548-856d-4923ddaba0dc""}","https://test12345.live/?num_scrambled_semantic=8&num_scrambled_causal=4&num_scrambled_schematic=4&participantId=5825BEB745EF4B119E83C1DF24B5AA8D&assignmentId=6fe7a502-0adf-473a-8674-ab1469137fc2&projectId=051c06f1-75cc-4548-856d-4923ddaba0dc","5825BEB745EF4B119E83C1DF24B5AA8D-2025-05-15-18-58-39","","1367","","images/causal_sequence/museum_causal/museum_causal_ten.png","0","",""
"","","","","","image-button-response","112","555280","0.0-14.0-1.0-2.7","5825BEB745EF4B119E83C1DF24B5AA8D","5825BEB745EF4B119E83C1DF24B5AA8D","6fe7a502-0adf-473a-8674-ab1469137fc2","051c06f1-75cc-4548-856d-4923ddaba0dc","{""num_scrambled_semantic"":""8"",""num_scrambled_causal"":""4"",""num_scrambled_schematic"":""4"",""participantId"":""5825BEB745EF4B119E83C1DF24B5AA8D"",""assignmentId"":""6fe7a502-0adf-473a-8674-ab1469137fc2"",""projectId"":""051c06f1-75cc-4548-856d-4923ddaba0dc""}","https://test12345.live/?num_scrambled_semantic=8&num_scrambled_causal=4&num_scrambled_schematic=4&participantId=5825BEB745EF4B119E83C1DF24B5AA8D&assignmentId=6fe7a502-0adf-473a-8674-ab1469137fc2&projectId=051c06f1-75cc-4548-856d-4923ddaba0dc","5825BEB745EF4B119E83C1DF24B5AA8D-2025-05-15-18-58-39","","null","","[]","null","",""
"","","","","","image-button-response","113","559780","0.0-14.0-1.0-0.8","5825BEB745EF4B119E83C1DF24B5AA8D","5825BEB745EF4B119E83C1DF24B5AA8D","6fe7a502-0adf-473a-8674-ab1469137fc2","051c06f1-75cc-4548-856d-4923ddaba0dc","{""num_scrambled_semantic"":""8"",""num_scrambled_causal"":""4"",""num_scrambled_schematic"":""4"",""participantId"":""5825BEB745EF4B119E83C1DF24B5AA8D"",""assignmentId"":""6fe7a502-0adf-473a-8674-ab1469137fc2"",""projectId"":""051c06f1-75cc-4548-856d-4923ddaba0dc""}","https://test12345.live/?num_scrambled_semantic=8&num_scrambled_causal=4&num_scrambled_schematic=4&participantId=5825BEB745EF4B119E83C1DF24B5AA8D&assignmentId=6fe7a502-0adf-473a-8674-ab1469137fc2&projectId=051c06f1-75cc-4548-856d-4923ddaba0dc","5825BEB745EF4B119E83C1DF24B5AA8D-2025-05-15-18-58-39","","null","","images/causal_sequence/museum_causal/museum_causal_1.png","null","",""
"","","","","","image-button-response","114","562027","0.0-14.0-1.0-1.8","5825BEB745EF4B119E83C1DF24B5AA8D","5825BEB745EF4B119E83C1DF24B5AA8D","6fe7a502-0adf-473a-8674-ab1469137fc2","051c06f1-75cc-4548-856d-4923ddaba0dc","{""num_scrambled_semantic"":""8"",""num_scrambled_causal"":""4"",""num_scrambled_schematic"":""4"",""participantId"":""5825BEB745EF4B119E83C1DF24B5AA8D"",""assignmentId"":""6fe7a502-0adf-473a-8674-ab1469137fc2"",""projectId"":""051c06f1-75cc-4548-856d-4923ddaba0dc""}","https://test12345.live/?num_scrambled_semantic=8&num_scrambled_causal=4&num_scrambled_schematic=4&participantId=5825BEB745EF4B119E83C1DF24B5AA8D&assignmentId=6fe7a502-0adf-473a-8674-ab1469137fc2&projectId=051c06f1-75cc-4548-856d-4923ddaba0dc","5825BEB745EF4B119E83C1DF24B5AA8D-2025-05-15-18-58-39","","2246","","images/causal_sequence/museum_causal/museum_causal_1.png","0","",""
