"success","timeout","failed_images","failed_audio","failed_video","trial_type","trial_index","time_elapsed","internal_node_id","subject","subject_id","study_id","session_id","urlvar","current_url","audio_id","view_history","rt","device_id","stimulus","response","estimated_stimulus_onset","seq_name"
"true","false","[]","[]","[]","preload","0","18094","0.0-0.0","593446F653384B34A2F51222A66D1E62","593446F653384B34A2F51222A66D1E62","d78f1367-c31a-443d-acf6-b0c3ffca713f","93d27ed9-06b1-4109-8acc-030e53ea77d1","{""num_scrambled_semantic"":""8"",""num_scrambled_causal"":""4"",""num_scrambled_schematic"":""4"",""participantId"":""593446F653384B34A2F51222A66D1E62"",""assignmentId"":""d78f1367-c31a-443d-acf6-b0c3ffca713f"",""projectId"":""93d27ed9-06b1-4109-8acc-030e53ea77d1""}","https://test12345.live/?num_scrambled_semantic=8&num_scrambled_causal=4&num_scrambled_schematic=4&participantId=593446F653384B34A2F51222A66D1E62&assignmentId=d78f1367-c31a-443d-acf6-b0c3ffca713f&projectId=93d27ed9-06b1-4109-8acc-030e53ea77d1","593446F653384B34A2F51222A66D1E62-2025-05-14-15-15-28","","","","","","",""
"","","","","","instructions","1","36011","0.0-1.0","593446F653384B34A2F51222A66D1E62","593446F653384B34A2F51222A66D1E62","d78f1367-c31a-443d-acf6-b0c3ffca713f","93d27ed9-06b1-4109-8acc-030e53ea77d1","{""num_scrambled_semantic"":""8"",""num_scrambled_causal"":""4"",""num_scrambled_schematic"":""4"",""participantId"":""593446F653384B34A2F51222A66D1E62"",""assignmentId"":""d78f1367-c31a-443d-acf6-b0c3ffca713f"",""projectId"":""93d27ed9-06b1-4109-8acc-030e53ea77d1""}","https://test12345.live/?num_scrambled_semantic=8&num_scrambled_causal=4&num_scrambled_schematic=4&participantId=593446F653384B34A2F51222A66D1E62&assignmentId=d78f1367-c31a-443d-acf6-b0c3ffca713f&projectId=93d27ed9-06b1-4109-8acc-030e53ea77d1","593446F653384B34A2F51222A66D1E62-2025-05-14-15-15-28","[{""page_index"":0,""viewing_time"":17916}]","17916","","","","",""
"","","","","","instructions","2","51239","0.0-2.0","593446F653384B34A2F51222A66D1E62","593446F653384B34A2F51222A66D1E62","d78f1367-c31a-443d-acf6-b0c3ffca713f","93d27ed9-06b1-4109-8acc-030e53ea77d1","{""num_scrambled_semantic"":""8"",""num_scrambled_causal"":""4"",""num_scrambled_schematic"":""4"",""participantId"":""593446F653384B34A2F51222A66D1E62"",""assignmentId"":""d78f1367-c31a-443d-acf6-b0c3ffca713f"",""projectId"":""93d27ed9-06b1-4109-8acc-030e53ea77d1""}","https://test12345.live/?num_scrambled_semantic=8&num_scrambled_causal=4&num_scrambled_schematic=4&participantId=593446F653384B34A2F51222A66D1E62&assignmentId=d78f1367-c31a-443d-acf6-b0c3ffca713f&projectId=93d27ed9-06b1-4109-8acc-030e53ea77d1","593446F653384B34A2F51222A66D1E62-2025-05-14-15-15-28","[{""page_index"":0,""viewing_time"":15227}]","15227","","","","",""
"true","","","","","fullscreen","3","54269","0.0-3.0","593446F653384B34A2F51222A66D1E62","593446F653384B34A2F51222A66D1E62","d78f1367-c31a-443d-acf6-b0c3ffca713f","93d27ed9-06b1-4109-8acc-030e53ea77d1","{""num_scrambled_semantic"":""8"",""num_scrambled_causal"":""4"",""num_scrambled_schematic"":""4"",""participantId"":""593446F653384B34A2F51222A66D1E62"",""assignmentId"":""d78f1367-c31a-443d-acf6-b0c3ffca713f"",""projectId"":""93d27ed9-06b1-4109-8acc-030e53ea77d1""}","https://test12345.live/?num_scrambled_semantic=8&num_scrambled_causal=4&num_scrambled_schematic=4&participantId=593446F653384B34A2F51222A66D1E62&assignmentId=d78f1367-c31a-443d-acf6-b0c3ffca713f&projectId=93d27ed9-06b1-4109-8acc-030e53ea77d1","593446F653384B34A2F51222A66D1E62-2025-05-14-15-15-28","","2023","","","","",""
"","","","","","initialize-microphone","4","63152","0.0-4.0-0.0","593446F653384B34A2F51222A66D1E62","593446F653384B34A2F51222A66D1E62","d78f1367-c31a-443d-acf6-b0c3ffca713f","93d27ed9-06b1-4109-8acc-030e53ea77d1","{""num_scrambled_semantic"":""8"",""num_scrambled_causal"":""4"",""num_scrambled_schematic"":""4"",""participantId"":""593446F653384B34A2F51222A66D1E62"",""assignmentId"":""d78f1367-c31a-443d-acf6-b0c3ffca713f"",""projectId"":""93d27ed9-06b1-4109-8acc-030e53ea77d1""}","https://test12345.live/?num_scrambled_semantic=8&num_scrambled_causal=4&num_scrambled_schematic=4&participantId=593446F653384B34A2F51222A66D1E62&assignmentId=d78f1367-c31a-443d-acf6-b0c3ffca713f&projectId=93d27ed9-06b1-4109-8acc-030e53ea77d1","593446F653384B34A2F51222A66D1E62-2025-05-14-15-15-28","","","2a8efe53dd9db446fe295e5e4e6997978c66237d84043caba036851e95261828","","","",""
"","","","","","html-audio-response","5","72997","0.0-4.0-1.0","593446F653384B34A2F51222A66D1E62","593446F653384B34A2F51222A66D1E62","d78f1367-c31a-443d-acf6-b0c3ffca713f","93d27ed9-06b1-4109-8acc-030e53ea77d1","{""num_scrambled_semantic"":""8"",""num_scrambled_causal"":""4"",""num_scrambled_schematic"":""4"",""participantId"":""593446F653384B34A2F51222A66D1E62"",""assignmentId"":""d78f1367-c31a-443d-acf6-b0c3ffca713f"",""projectId"":""93d27ed9-06b1-4109-8acc-030e53ea77d1""}","https://test12345.live/?num_scrambled_semantic=8&num_scrambled_causal=4&num_scrambled_schematic=4&participantId=593446F653384B34A2F51222A66D1E62&assignmentId=d78f1367-c31a-443d-acf6-b0c3ffca713f&projectId=93d27ed9-06b1-4109-8acc-030e53ea77d1","593446F653384B34A2F51222A66D1E62-2025-05-14-15-15-28","","2315","","<span style=""color: red; font-size: 24px""> NOW RECORDING</span>
        <p>Please test Microphone</p>","","2",""
"","","","","","html-button-response","6","74357","0.0-4.0-2.0","593446F653384B34A2F51222A66D1E62","593446F653384B34A2F51222A66D1E62","d78f1367-c31a-443d-acf6-b0c3ffca713f","93d27ed9-06b1-4109-8acc-030e53ea77d1","{""num_scrambled_semantic"":""8"",""num_scrambled_causal"":""4"",""num_scrambled_schematic"":""4"",""participantId"":""593446F653384B34A2F51222A66D1E62"",""assignmentId"":""d78f1367-c31a-443d-acf6-b0c3ffca713f"",""projectId"":""93d27ed9-06b1-4109-8acc-030e53ea77d1""}","https://test12345.live/?num_scrambled_semantic=8&num_scrambled_causal=4&num_scrambled_schematic=4&participantId=593446F653384B34A2F51222A66D1E62&assignmentId=d78f1367-c31a-443d-acf6-b0c3ffca713f&projectId=93d27ed9-06b1-4109-8acc-030e53ea77d1","593446F653384B34A2F51222A66D1E62-2025-05-14-15-15-28","","1358","","<p style=""font-size:48px; color:red;"">Is Microphone OK?</p>","1","",""
"","","","","","instructions","7","88821","0.0-5.0","593446F653384B34A2F51222A66D1E62","593446F653384B34A2F51222A66D1E62","d78f1367-c31a-443d-acf6-b0c3ffca713f","93d27ed9-06b1-4109-8acc-030e53ea77d1","{""num_scrambled_semantic"":""8"",""num_scrambled_causal"":""4"",""num_scrambled_schematic"":""4"",""participantId"":""593446F653384B34A2F51222A66D1E62"",""assignmentId"":""d78f1367-c31a-443d-acf6-b0c3ffca713f"",""projectId"":""93d27ed9-06b1-4109-8acc-030e53ea77d1""}","https://test12345.live/?num_scrambled_semantic=8&num_scrambled_causal=4&num_scrambled_schematic=4&participantId=593446F653384B34A2F51222A66D1E62&assignmentId=d78f1367-c31a-443d-acf6-b0c3ffca713f&projectId=93d27ed9-06b1-4109-8acc-030e53ea77d1","593446F653384B34A2F51222A66D1E62-2025-05-14-15-15-28","[{""page_index"":0,""viewing_time"":5843},{""page_index"":1,""viewing_time"":8620}]","14463","","","","",""
"","","","","","image-button-response","8","94839","0.0-6.0-0.0","593446F653384B34A2F51222A66D1E62","593446F653384B34A2F51222A66D1E62","d78f1367-c31a-443d-acf6-b0c3ffca713f","93d27ed9-06b1-4109-8acc-030e53ea77d1","{""num_scrambled_semantic"":""8"",""num_scrambled_causal"":""4"",""num_scrambled_schematic"":""4"",""participantId"":""593446F653384B34A2F51222A66D1E62"",""assignmentId"":""d78f1367-c31a-443d-acf6-b0c3ffca713f"",""projectId"":""93d27ed9-06b1-4109-8acc-030e53ea77d1""}","https://test12345.live/?num_scrambled_semantic=8&num_scrambled_causal=4&num_scrambled_schematic=4&participantId=593446F653384B34A2F51222A66D1E62&assignmentId=d78f1367-c31a-443d-acf6-b0c3ffca713f&projectId=93d27ed9-06b1-4109-8acc-030e53ea77d1","593446F653384B34A2F51222A66D1E62-2025-05-14-15-15-28","","null","","images/instructions/movie_0.png","null","",""
"","","","","","image-button-response","9","99344","0.0-6.0-1.0-0.0","593446F653384B34A2F51222A66D1E62","593446F653384B34A2F51222A66D1E62","d78f1367-c31a-443d-acf6-b0c3ffca713f","93d27ed9-06b1-4109-8acc-030e53ea77d1","{""num_scrambled_semantic"":""8"",""num_scrambled_causal"":""4"",""num_scrambled_schematic"":""4"",""participantId"":""593446F653384B34A2F51222A66D1E62"",""assignmentId"":""d78f1367-c31a-443d-acf6-b0c3ffca713f"",""projectId"":""93d27ed9-06b1-4109-8acc-030e53ea77d1""}","https://test12345.live/?num_scrambled_semantic=8&num_scrambled_causal=4&num_scrambled_schematic=4&participantId=593446F653384B34A2F51222A66D1E62&assignmentId=d78f1367-c31a-443d-acf6-b0c3ffca713f&projectId=93d27ed9-06b1-4109-8acc-030e53ea77d1","593446F653384B34A2F51222A66D1E62-2025-05-14-15-15-28","","null","","images/instructions/movie_1.png","null","",""
"","","","","","image-button-response","10","102027","0.0-6.0-1.0-1.0","593446F653384B34A2F51222A66D1E62","593446F653384B34A2F51222A66D1E62","d78f1367-c31a-443d-acf6-b0c3ffca713f","93d27ed9-06b1-4109-8acc-030e53ea77d1","{""num_scrambled_semantic"":""8"",""num_scrambled_causal"":""4"",""num_scrambled_schematic"":""4"",""participantId"":""593446F653384B34A2F51222A66D1E62"",""assignmentId"":""d78f1367-c31a-443d-acf6-b0c3ffca713f"",""projectId"":""93d27ed9-06b1-4109-8acc-030e53ea77d1""}","https://test12345.live/?num_scrambled_semantic=8&num_scrambled_causal=4&num_scrambled_schematic=4&participantId=593446F653384B34A2F51222A66D1E62&assignmentId=d78f1367-c31a-443d-acf6-b0c3ffca713f&projectId=93d27ed9-06b1-4109-8acc-030e53ea77d1","593446F653384B34A2F51222A66D1E62-2025-05-14-15-15-28","","2681","","images/instructions/movie_1.png","0","",""
"","","","","","image-button-response","11","103836","0.0-6.0-1.0-2.0","593446F653384B34A2F51222A66D1E62","593446F653384B34A2F51222A66D1E62","d78f1367-c31a-443d-acf6-b0c3ffca713f","93d27ed9-06b1-4109-8acc-030e53ea77d1","{""num_scrambled_semantic"":""8"",""num_scrambled_causal"":""4"",""num_scrambled_schematic"":""4"",""participantId"":""593446F653384B34A2F51222A66D1E62"",""assignmentId"":""d78f1367-c31a-443d-acf6-b0c3ffca713f"",""projectId"":""93d27ed9-06b1-4109-8acc-030e53ea77d1""}","https://test12345.live/?num_scrambled_semantic=8&num_scrambled_causal=4&num_scrambled_schematic=4&participantId=593446F653384B34A2F51222A66D1E62&assignmentId=d78f1367-c31a-443d-acf6-b0c3ffca713f&projectId=93d27ed9-06b1-4109-8acc-030e53ea77d1","593446F653384B34A2F51222A66D1E62-2025-05-14-15-15-28","","null","","[]","null","",""
"","","","","","image-button-response","12","108341","0.0-6.0-1.0-0.1","593446F653384B34A2F51222A66D1E62","593446F653384B34A2F51222A66D1E62","d78f1367-c31a-443d-acf6-b0c3ffca713f","93d27ed9-06b1-4109-8acc-030e53ea77d1","{""num_scrambled_semantic"":""8"",""num_scrambled_causal"":""4"",""num_scrambled_schematic"":""4"",""participantId"":""593446F653384B34A2F51222A66D1E62"",""assignmentId"":""d78f1367-c31a-443d-acf6-b0c3ffca713f"",""projectId"":""93d27ed9-06b1-4109-8acc-030e53ea77d1""}","https://test12345.live/?num_scrambled_semantic=8&num_scrambled_causal=4&num_scrambled_schematic=4&participantId=593446F653384B34A2F51222A66D1E62&assignmentId=d78f1367-c31a-443d-acf6-b0c3ffca713f&projectId=93d27ed9-06b1-4109-8acc-030e53ea77d1","593446F653384B34A2F51222A66D1E62-2025-05-14-15-15-28","","null","","images/instructions/movie_2.png","null","",""
"","","","","","image-button-response","13","111761","0.0-6.0-1.0-1.1","593446F653384B34A2F51222A66D1E62","593446F653384B34A2F51222A66D1E62","d78f1367-c31a-443d-acf6-b0c3ffca713f","93d27ed9-06b1-4109-8acc-030e53ea77d1","{""num_scrambled_semantic"":""8"",""num_scrambled_causal"":""4"",""num_scrambled_schematic"":""4"",""participantId"":""593446F653384B34A2F51222A66D1E62"",""assignmentId"":""d78f1367-c31a-443d-acf6-b0c3ffca713f"",""projectId"":""93d27ed9-06b1-4109-8acc-030e53ea77d1""}","https://test12345.live/?num_scrambled_semantic=8&num_scrambled_causal=4&num_scrambled_schematic=4&participantId=593446F653384B34A2F51222A66D1E62&assignmentId=d78f1367-c31a-443d-acf6-b0c3ffca713f&projectId=93d27ed9-06b1-4109-8acc-030e53ea77d1","593446F653384B34A2F51222A66D1E62-2025-05-14-15-15-28","","3419","","images/instructions/movie_2.png","0","",""
"","","","","","image-button-response","14","113568","0.0-6.0-1.0-2.1","593446F653384B34A2F51222A66D1E62","593446F653384B34A2F51222A66D1E62","d78f1367-c31a-443d-acf6-b0c3ffca713f","93d27ed9-06b1-4109-8acc-030e53ea77d1","{""num_scrambled_semantic"":""8"",""num_scrambled_causal"":""4"",""num_scrambled_schematic"":""4"",""participantId"":""593446F653384B34A2F51222A66D1E62"",""assignmentId"":""d78f1367-c31a-443d-acf6-b0c3ffca713f"",""projectId"":""93d27ed9-06b1-4109-8acc-030e53ea77d1""}","https://test12345.live/?num_scrambled_semantic=8&num_scrambled_causal=4&num_scrambled_schematic=4&participantId=593446F653384B34A2F51222A66D1E62&assignmentId=d78f1367-c31a-443d-acf6-b0c3ffca713f&projectId=93d27ed9-06b1-4109-8acc-030e53ea77d1","593446F653384B34A2F51222A66D1E62-2025-05-14-15-15-28","","null","","[]","null","",""
"","","","","","image-button-response","15","118071","0.0-6.0-1.0-0.2","593446F653384B34A2F51222A66D1E62","593446F653384B34A2F51222A66D1E62","d78f1367-c31a-443d-acf6-b0c3ffca713f","93d27ed9-06b1-4109-8acc-030e53ea77d1","{""num_scrambled_semantic"":""8"",""num_scrambled_causal"":""4"",""num_scrambled_schematic"":""4"",""participantId"":""593446F653384B34A2F51222A66D1E62"",""assignmentId"":""d78f1367-c31a-443d-acf6-b0c3ffca713f"",""projectId"":""93d27ed9-06b1-4109-8acc-030e53ea77d1""}","https://test12345.live/?num_scrambled_semantic=8&num_scrambled_causal=4&num_scrambled_schematic=4&participantId=593446F653384B34A2F51222A66D1E62&assignmentId=d78f1367-c31a-443d-acf6-b0c3ffca713f&projectId=93d27ed9-06b1-4109-8acc-030e53ea77d1","593446F653384B34A2F51222A66D1E62-2025-05-14-15-15-28","","null","","images/instructions/movie_3.png","null","",""
"","","","","","image-button-response","16","119244","0.0-6.0-1.0-1.2","593446F653384B34A2F51222A66D1E62","593446F653384B34A2F51222A66D1E62","d78f1367-c31a-443d-acf6-b0c3ffca713f","93d27ed9-06b1-4109-8acc-030e53ea77d1","{""num_scrambled_semantic"":""8"",""num_scrambled_causal"":""4"",""num_scrambled_schematic"":""4"",""participantId"":""593446F653384B34A2F51222A66D1E62"",""assignmentId"":""d78f1367-c31a-443d-acf6-b0c3ffca713f"",""projectId"":""93d27ed9-06b1-4109-8acc-030e53ea77d1""}","https://test12345.live/?num_scrambled_semantic=8&num_scrambled_causal=4&num_scrambled_schematic=4&participantId=593446F653384B34A2F51222A66D1E62&assignmentId=d78f1367-c31a-443d-acf6-b0c3ffca713f&projectId=93d27ed9-06b1-4109-8acc-030e53ea77d1","593446F653384B34A2F51222A66D1E62-2025-05-14-15-15-28","","1170","","images/instructions/movie_3.png","0","",""
"","","","","","image-button-response","17","121056","0.0-6.0-1.0-2.2","593446F653384B34A2F51222A66D1E62","593446F653384B34A2F51222A66D1E62","d78f1367-c31a-443d-acf6-b0c3ffca713f","93d27ed9-06b1-4109-8acc-030e53ea77d1","{""num_scrambled_semantic"":""8"",""num_scrambled_causal"":""4"",""num_scrambled_schematic"":""4"",""participantId"":""593446F653384B34A2F51222A66D1E62"",""assignmentId"":""d78f1367-c31a-443d-acf6-b0c3ffca713f"",""projectId"":""93d27ed9-06b1-4109-8acc-030e53ea77d1""}","https://test12345.live/?num_scrambled_semantic=8&num_scrambled_causal=4&num_scrambled_schematic=4&participantId=593446F653384B34A2F51222A66D1E62&assignmentId=d78f1367-c31a-443d-acf6-b0c3ffca713f&projectId=93d27ed9-06b1-4109-8acc-030e53ea77d1","593446F653384B34A2F51222A66D1E62-2025-05-14-15-15-28","","null","","[]","null","",""
"","","","","","image-button-response","18","125558","0.0-6.0-1.0-0.3","593446F653384B34A2F51222A66D1E62","593446F653384B34A2F51222A66D1E62","d78f1367-c31a-443d-acf6-b0c3ffca713f","93d27ed9-06b1-4109-8acc-030e53ea77d1","{""num_scrambled_semantic"":""8"",""num_scrambled_causal"":""4"",""num_scrambled_schematic"":""4"",""participantId"":""593446F653384B34A2F51222A66D1E62"",""assignmentId"":""d78f1367-c31a-443d-acf6-b0c3ffca713f"",""projectId"":""93d27ed9-06b1-4109-8acc-030e53ea77d1""}","https://test12345.live/?num_scrambled_semantic=8&num_scrambled_causal=4&num_scrambled_schematic=4&participantId=593446F653384B34A2F51222A66D1E62&assignmentId=d78f1367-c31a-443d-acf6-b0c3ffca713f&projectId=93d27ed9-06b1-4109-8acc-030e53ea77d1","593446F653384B34A2F51222A66D1E62-2025-05-14-15-15-28","","null","","images/instructions/movie_4.png","null","",""
"","","","","","image-button-response","19","127116","0.0-6.0-1.0-1.3","593446F653384B34A2F51222A66D1E62","593446F653384B34A2F51222A66D1E62","d78f1367-c31a-443d-acf6-b0c3ffca713f","93d27ed9-06b1-4109-8acc-030e53ea77d1","{""num_scrambled_semantic"":""8"",""num_scrambled_causal"":""4"",""num_scrambled_schematic"":""4"",""participantId"":""593446F653384B34A2F51222A66D1E62"",""assignmentId"":""d78f1367-c31a-443d-acf6-b0c3ffca713f"",""projectId"":""93d27ed9-06b1-4109-8acc-030e53ea77d1""}","https://test12345.live/?num_scrambled_semantic=8&num_scrambled_causal=4&num_scrambled_schematic=4&participantId=593446F653384B34A2F51222A66D1E62&assignmentId=d78f1367-c31a-443d-acf6-b0c3ffca713f&projectId=93d27ed9-06b1-4109-8acc-030e53ea77d1","593446F653384B34A2F51222A66D1E62-2025-05-14-15-15-28","","1556","","images/instructions/movie_4.png","0","",""
"","","","","","image-button-response","20","128931","0.0-6.0-1.0-2.3","593446F653384B34A2F51222A66D1E62","593446F653384B34A2F51222A66D1E62","d78f1367-c31a-443d-acf6-b0c3ffca713f","93d27ed9-06b1-4109-8acc-030e53ea77d1","{""num_scrambled_semantic"":""8"",""num_scrambled_causal"":""4"",""num_scrambled_schematic"":""4"",""participantId"":""593446F653384B34A2F51222A66D1E62"",""assignmentId"":""d78f1367-c31a-443d-acf6-b0c3ffca713f"",""projectId"":""93d27ed9-06b1-4109-8acc-030e53ea77d1""}","https://test12345.live/?num_scrambled_semantic=8&num_scrambled_causal=4&num_scrambled_schematic=4&participantId=593446F653384B34A2F51222A66D1E62&assignmentId=d78f1367-c31a-443d-acf6-b0c3ffca713f&projectId=93d27ed9-06b1-4109-8acc-030e53ea77d1","593446F653384B34A2F51222A66D1E62-2025-05-14-15-15-28","","null","","[]","null","",""
"","","","","","instructions","21","139047","0.0-7.0","593446F653384B34A2F51222A66D1E62","593446F653384B34A2F51222A66D1E62","d78f1367-c31a-443d-acf6-b0c3ffca713f","93d27ed9-06b1-4109-8acc-030e53ea77d1","{""num_scrambled_semantic"":""8"",""num_scrambled_causal"":""4"",""num_scrambled_schematic"":""4"",""participantId"":""593446F653384B34A2F51222A66D1E62"",""assignmentId"":""d78f1367-c31a-443d-acf6-b0c3ffca713f"",""projectId"":""93d27ed9-06b1-4109-8acc-030e53ea77d1""}","https://test12345.live/?num_scrambled_semantic=8&num_scrambled_causal=4&num_scrambled_schematic=4&participantId=593446F653384B34A2F51222A66D1E62&assignmentId=d78f1367-c31a-443d-acf6-b0c3ffca713f&projectId=93d27ed9-06b1-4109-8acc-030e53ea77d1","593446F653384B34A2F51222A66D1E62-2025-05-14-15-15-28","[{""page_index"":0,""viewing_time"":8965},{""page_index"":1,""viewing_time"":1151}]","10116","","","","",""
"","","","","","html-audio-response","22","158452","0.0-8.0","593446F653384B34A2F51222A66D1E62","593446F653384B34A2F51222A66D1E62","d78f1367-c31a-443d-acf6-b0c3ffca713f","93d27ed9-06b1-4109-8acc-030e53ea77d1","{""num_scrambled_semantic"":""8"",""num_scrambled_causal"":""4"",""num_scrambled_schematic"":""4"",""participantId"":""593446F653384B34A2F51222A66D1E62"",""assignmentId"":""d78f1367-c31a-443d-acf6-b0c3ffca713f"",""projectId"":""93d27ed9-06b1-4109-8acc-030e53ea77d1""}","https://test12345.live/?num_scrambled_semantic=8&num_scrambled_causal=4&num_scrambled_schematic=4&participantId=593446F653384B34A2F51222A66D1E62&assignmentId=d78f1367-c31a-443d-acf6-b0c3ffca713f&projectId=93d27ed9-06b1-4109-8acc-030e53ea77d1","593446F653384B34A2F51222A66D1E62-2025-05-14-15-15-28","","11999","","[""<span style=\""color: red; font-size: 24px\""> NOW RECORDING</span><p>Please say out loud all the images you saw, as many as you can remember. The images can be said in any order.</p>""]","","2",""
"","","","","","instructions","23","159912","0.0-9.0","593446F653384B34A2F51222A66D1E62","593446F653384B34A2F51222A66D1E62","d78f1367-c31a-443d-acf6-b0c3ffca713f","93d27ed9-06b1-4109-8acc-030e53ea77d1","{""num_scrambled_semantic"":""8"",""num_scrambled_causal"":""4"",""num_scrambled_schematic"":""4"",""participantId"":""593446F653384B34A2F51222A66D1E62"",""assignmentId"":""d78f1367-c31a-443d-acf6-b0c3ffca713f"",""projectId"":""93d27ed9-06b1-4109-8acc-030e53ea77d1""}","https://test12345.live/?num_scrambled_semantic=8&num_scrambled_causal=4&num_scrambled_schematic=4&participantId=593446F653384B34A2F51222A66D1E62&assignmentId=d78f1367-c31a-443d-acf6-b0c3ffca713f&projectId=93d27ed9-06b1-4109-8acc-030e53ea77d1","593446F653384B34A2F51222A66D1E62-2025-05-14-15-15-28","[{""page_index"":0,""viewing_time"":1455}]","1455","","","","",""
"","","","","","image-button-response","24","165918","0.0-10.0-0.0","593446F653384B34A2F51222A66D1E62","593446F653384B34A2F51222A66D1E62","d78f1367-c31a-443d-acf6-b0c3ffca713f","93d27ed9-06b1-4109-8acc-030e53ea77d1","{""num_scrambled_semantic"":""8"",""num_scrambled_causal"":""4"",""num_scrambled_schematic"":""4"",""participantId"":""593446F653384B34A2F51222A66D1E62"",""assignmentId"":""d78f1367-c31a-443d-acf6-b0c3ffca713f"",""projectId"":""93d27ed9-06b1-4109-8acc-030e53ea77d1""}","https://test12345.live/?num_scrambled_semantic=8&num_scrambled_causal=4&num_scrambled_schematic=4&participantId=593446F653384B34A2F51222A66D1E62&assignmentId=d78f1367-c31a-443d-acf6-b0c3ffca713f&projectId=93d27ed9-06b1-4109-8acc-030e53ea77d1","593446F653384B34A2F51222A66D1E62-2025-05-14-15-15-28","","null","","images/semantic_sequence/creative_activities_semantic/creative_activities_semantic_0.png","null","",""
"","","","","","image-button-response","25","170421","0.0-10.0-1.0-0.0","593446F653384B34A2F51222A66D1E62","593446F653384B34A2F51222A66D1E62","d78f1367-c31a-443d-acf6-b0c3ffca713f","93d27ed9-06b1-4109-8acc-030e53ea77d1","{""num_scrambled_semantic"":""8"",""num_scrambled_causal"":""4"",""num_scrambled_schematic"":""4"",""participantId"":""593446F653384B34A2F51222A66D1E62"",""assignmentId"":""d78f1367-c31a-443d-acf6-b0c3ffca713f"",""projectId"":""93d27ed9-06b1-4109-8acc-030e53ea77d1""}","https://test12345.live/?num_scrambled_semantic=8&num_scrambled_causal=4&num_scrambled_schematic=4&participantId=593446F653384B34A2F51222A66D1E62&assignmentId=d78f1367-c31a-443d-acf6-b0c3ffca713f&projectId=93d27ed9-06b1-4109-8acc-030e53ea77d1","593446F653384B34A2F51222A66D1E62-2025-05-14-15-15-28","","null","","images/semantic_sequence/creative_activities_semantic/creative_activities_semantic_3.png","null","",""
"","","","","","image-button-response","26","171553","0.0-10.0-1.0-1.0","593446F653384B34A2F51222A66D1E62","593446F653384B34A2F51222A66D1E62","d78f1367-c31a-443d-acf6-b0c3ffca713f","93d27ed9-06b1-4109-8acc-030e53ea77d1","{""num_scrambled_semantic"":""8"",""num_scrambled_causal"":""4"",""num_scrambled_schematic"":""4"",""participantId"":""593446F653384B34A2F51222A66D1E62"",""assignmentId"":""d78f1367-c31a-443d-acf6-b0c3ffca713f"",""projectId"":""93d27ed9-06b1-4109-8acc-030e53ea77d1""}","https://test12345.live/?num_scrambled_semantic=8&num_scrambled_causal=4&num_scrambled_schematic=4&participantId=593446F653384B34A2F51222A66D1E62&assignmentId=d78f1367-c31a-443d-acf6-b0c3ffca713f&projectId=93d27ed9-06b1-4109-8acc-030e53ea77d1","593446F653384B34A2F51222A66D1E62-2025-05-14-15-15-28","","1130","","images/semantic_sequence/creative_activities_semantic/creative_activities_semantic_3.png","0","",""
"","","","","","image-button-response","27","173369","0.0-10.0-1.0-2.0","593446F653384B34A2F51222A66D1E62","593446F653384B34A2F51222A66D1E62","d78f1367-c31a-443d-acf6-b0c3ffca713f","93d27ed9-06b1-4109-8acc-030e53ea77d1","{""num_scrambled_semantic"":""8"",""num_scrambled_causal"":""4"",""num_scrambled_schematic"":""4"",""participantId"":""593446F653384B34A2F51222A66D1E62"",""assignmentId"":""d78f1367-c31a-443d-acf6-b0c3ffca713f"",""projectId"":""93d27ed9-06b1-4109-8acc-030e53ea77d1""}","https://test12345.live/?num_scrambled_semantic=8&num_scrambled_causal=4&num_scrambled_schematic=4&participantId=593446F653384B34A2F51222A66D1E62&assignmentId=d78f1367-c31a-443d-acf6-b0c3ffca713f&projectId=93d27ed9-06b1-4109-8acc-030e53ea77d1","593446F653384B34A2F51222A66D1E62-2025-05-14-15-15-28","","null","","[]","null","",""
"","","","","","image-button-response","28","177876","0.0-10.0-1.0-0.1","593446F653384B34A2F51222A66D1E62","593446F653384B34A2F51222A66D1E62","d78f1367-c31a-443d-acf6-b0c3ffca713f","93d27ed9-06b1-4109-8acc-030e53ea77d1","{""num_scrambled_semantic"":""8"",""num_scrambled_causal"":""4"",""num_scrambled_schematic"":""4"",""participantId"":""593446F653384B34A2F51222A66D1E62"",""assignmentId"":""d78f1367-c31a-443d-acf6-b0c3ffca713f"",""projectId"":""93d27ed9-06b1-4109-8acc-030e53ea77d1""}","https://test12345.live/?num_scrambled_semantic=8&num_scrambled_causal=4&num_scrambled_schematic=4&participantId=593446F653384B34A2F51222A66D1E62&assignmentId=d78f1367-c31a-443d-acf6-b0c3ffca713f&projectId=93d27ed9-06b1-4109-8acc-030e53ea77d1","593446F653384B34A2F51222A66D1E62-2025-05-14-15-15-28","","null","","images/semantic_sequence/creative_activities_semantic/creative_activities_semantic_2.png","null","",""
"","","","","","image-button-response","29","178963","0.0-10.0-1.0-1.1","593446F653384B34A2F51222A66D1E62","593446F653384B34A2F51222A66D1E62","d78f1367-c31a-443d-acf6-b0c3ffca713f","93d27ed9-06b1-4109-8acc-030e53ea77d1","{""num_scrambled_semantic"":""8"",""num_scrambled_causal"":""4"",""num_scrambled_schematic"":""4"",""participantId"":""593446F653384B34A2F51222A66D1E62"",""assignmentId"":""d78f1367-c31a-443d-acf6-b0c3ffca713f"",""projectId"":""93d27ed9-06b1-4109-8acc-030e53ea77d1""}","https://test12345.live/?num_scrambled_semantic=8&num_scrambled_causal=4&num_scrambled_schematic=4&participantId=593446F653384B34A2F51222A66D1E62&assignmentId=d78f1367-c31a-443d-acf6-b0c3ffca713f&projectId=93d27ed9-06b1-4109-8acc-030e53ea77d1","593446F653384B34A2F51222A66D1E62-2025-05-14-15-15-28","","1085","","images/semantic_sequence/creative_activities_semantic/creative_activities_semantic_2.png","0","",""
"","","","","","image-button-response","30","180773","0.0-10.0-1.0-2.1","593446F653384B34A2F51222A66D1E62","593446F653384B34A2F51222A66D1E62","d78f1367-c31a-443d-acf6-b0c3ffca713f","93d27ed9-06b1-4109-8acc-030e53ea77d1","{""num_scrambled_semantic"":""8"",""num_scrambled_causal"":""4"",""num_scrambled_schematic"":""4"",""participantId"":""593446F653384B34A2F51222A66D1E62"",""assignmentId"":""d78f1367-c31a-443d-acf6-b0c3ffca713f"",""projectId"":""93d27ed9-06b1-4109-8acc-030e53ea77d1""}","https://test12345.live/?num_scrambled_semantic=8&num_scrambled_causal=4&num_scrambled_schematic=4&participantId=593446F653384B34A2F51222A66D1E62&assignmentId=d78f1367-c31a-443d-acf6-b0c3ffca713f&projectId=93d27ed9-06b1-4109-8acc-030e53ea77d1","593446F653384B34A2F51222A66D1E62-2025-05-14-15-15-28","","null","","[]","null","",""
"","","","","","image-button-response","31","185285","0.0-10.0-1.0-0.2","593446F653384B34A2F51222A66D1E62","593446F653384B34A2F51222A66D1E62","d78f1367-c31a-443d-acf6-b0c3ffca713f","93d27ed9-06b1-4109-8acc-030e53ea77d1","{""num_scrambled_semantic"":""8"",""num_scrambled_causal"":""4"",""num_scrambled_schematic"":""4"",""participantId"":""593446F653384B34A2F51222A66D1E62"",""assignmentId"":""d78f1367-c31a-443d-acf6-b0c3ffca713f"",""projectId"":""93d27ed9-06b1-4109-8acc-030e53ea77d1""}","https://test12345.live/?num_scrambled_semantic=8&num_scrambled_causal=4&num_scrambled_schematic=4&participantId=593446F653384B34A2F51222A66D1E62&assignmentId=d78f1367-c31a-443d-acf6-b0c3ffca713f&projectId=93d27ed9-06b1-4109-8acc-030e53ea77d1","593446F653384B34A2F51222A66D1E62-2025-05-14-15-15-28","","null","","images/semantic_sequence/creative_activities_semantic/creative_activities_semantic_6.png","null","",""
"","","","","","image-button-response","32","185860","0.0-10.0-1.0-1.2","593446F653384B34A2F51222A66D1E62","593446F653384B34A2F51222A66D1E62","d78f1367-c31a-443d-acf6-b0c3ffca713f","93d27ed9-06b1-4109-8acc-030e53ea77d1","{""num_scrambled_semantic"":""8"",""num_scrambled_causal"":""4"",""num_scrambled_schematic"":""4"",""participantId"":""593446F653384B34A2F51222A66D1E62"",""assignmentId"":""d78f1367-c31a-443d-acf6-b0c3ffca713f"",""projectId"":""93d27ed9-06b1-4109-8acc-030e53ea77d1""}","https://test12345.live/?num_scrambled_semantic=8&num_scrambled_causal=4&num_scrambled_schematic=4&participantId=593446F653384B34A2F51222A66D1E62&assignmentId=d78f1367-c31a-443d-acf6-b0c3ffca713f&projectId=93d27ed9-06b1-4109-8acc-030e53ea77d1","593446F653384B34A2F51222A66D1E62-2025-05-14-15-15-28","","573","","images/semantic_sequence/creative_activities_semantic/creative_activities_semantic_6.png","0","",""
"","","","","","image-button-response","33","187673","0.0-10.0-1.0-2.2","593446F653384B34A2F51222A66D1E62","593446F653384B34A2F51222A66D1E62","d78f1367-c31a-443d-acf6-b0c3ffca713f","93d27ed9-06b1-4109-8acc-030e53ea77d1","{""num_scrambled_semantic"":""8"",""num_scrambled_causal"":""4"",""num_scrambled_schematic"":""4"",""participantId"":""593446F653384B34A2F51222A66D1E62"",""assignmentId"":""d78f1367-c31a-443d-acf6-b0c3ffca713f"",""projectId"":""93d27ed9-06b1-4109-8acc-030e53ea77d1""}","https://test12345.live/?num_scrambled_semantic=8&num_scrambled_causal=4&num_scrambled_schematic=4&participantId=593446F653384B34A2F51222A66D1E62&assignmentId=d78f1367-c31a-443d-acf6-b0c3ffca713f&projectId=93d27ed9-06b1-4109-8acc-030e53ea77d1","593446F653384B34A2F51222A66D1E62-2025-05-14-15-15-28","","null","","[]","null","",""
"","","","","","image-button-response","34","192187","0.0-10.0-1.0-0.3","593446F653384B34A2F51222A66D1E62","593446F653384B34A2F51222A66D1E62","d78f1367-c31a-443d-acf6-b0c3ffca713f","93d27ed9-06b1-4109-8acc-030e53ea77d1","{""num_scrambled_semantic"":""8"",""num_scrambled_causal"":""4"",""num_scrambled_schematic"":""4"",""participantId"":""593446F653384B34A2F51222A66D1E62"",""assignmentId"":""d78f1367-c31a-443d-acf6-b0c3ffca713f"",""projectId"":""93d27ed9-06b1-4109-8acc-030e53ea77d1""}","https://test12345.live/?num_scrambled_semantic=8&num_scrambled_causal=4&num_scrambled_schematic=4&participantId=593446F653384B34A2F51222A66D1E62&assignmentId=d78f1367-c31a-443d-acf6-b0c3ffca713f&projectId=93d27ed9-06b1-4109-8acc-030e53ea77d1","593446F653384B34A2F51222A66D1E62-2025-05-14-15-15-28","","null","","images/semantic_sequence/creative_activities_semantic/creative_activities_semantic_8.png","null","",""
"","","","","","image-button-response","35","193077","0.0-10.0-1.0-1.3","593446F653384B34A2F51222A66D1E62","593446F653384B34A2F51222A66D1E62","d78f1367-c31a-443d-acf6-b0c3ffca713f","93d27ed9-06b1-4109-8acc-030e53ea77d1","{""num_scrambled_semantic"":""8"",""num_scrambled_causal"":""4"",""num_scrambled_schematic"":""4"",""participantId"":""593446F653384B34A2F51222A66D1E62"",""assignmentId"":""d78f1367-c31a-443d-acf6-b0c3ffca713f"",""projectId"":""93d27ed9-06b1-4109-8acc-030e53ea77d1""}","https://test12345.live/?num_scrambled_semantic=8&num_scrambled_causal=4&num_scrambled_schematic=4&participantId=593446F653384B34A2F51222A66D1E62&assignmentId=d78f1367-c31a-443d-acf6-b0c3ffca713f&projectId=93d27ed9-06b1-4109-8acc-030e53ea77d1","593446F653384B34A2F51222A66D1E62-2025-05-14-15-15-28","","889","","images/semantic_sequence/creative_activities_semantic/creative_activities_semantic_8.png","0","",""
"","","","","","image-button-response","36","194883","0.0-10.0-1.0-2.3","593446F653384B34A2F51222A66D1E62","593446F653384B34A2F51222A66D1E62","d78f1367-c31a-443d-acf6-b0c3ffca713f","93d27ed9-06b1-4109-8acc-030e53ea77d1","{""num_scrambled_semantic"":""8"",""num_scrambled_causal"":""4"",""num_scrambled_schematic"":""4"",""participantId"":""593446F653384B34A2F51222A66D1E62"",""assignmentId"":""d78f1367-c31a-443d-acf6-b0c3ffca713f"",""projectId"":""93d27ed9-06b1-4109-8acc-030e53ea77d1""}","https://test12345.live/?num_scrambled_semantic=8&num_scrambled_causal=4&num_scrambled_schematic=4&participantId=593446F653384B34A2F51222A66D1E62&assignmentId=d78f1367-c31a-443d-acf6-b0c3ffca713f&projectId=93d27ed9-06b1-4109-8acc-030e53ea77d1","593446F653384B34A2F51222A66D1E62-2025-05-14-15-15-28","","null","","[]","null","",""
"","","","","","image-button-response","37","199399","0.0-10.0-1.0-0.4","593446F653384B34A2F51222A66D1E62","593446F653384B34A2F51222A66D1E62","d78f1367-c31a-443d-acf6-b0c3ffca713f","93d27ed9-06b1-4109-8acc-030e53ea77d1","{""num_scrambled_semantic"":""8"",""num_scrambled_causal"":""4"",""num_scrambled_schematic"":""4"",""participantId"":""593446F653384B34A2F51222A66D1E62"",""assignmentId"":""d78f1367-c31a-443d-acf6-b0c3ffca713f"",""projectId"":""93d27ed9-06b1-4109-8acc-030e53ea77d1""}","https://test12345.live/?num_scrambled_semantic=8&num_scrambled_causal=4&num_scrambled_schematic=4&participantId=593446F653384B34A2F51222A66D1E62&assignmentId=d78f1367-c31a-443d-acf6-b0c3ffca713f&projectId=93d27ed9-06b1-4109-8acc-030e53ea77d1","593446F653384B34A2F51222A66D1E62-2025-05-14-15-15-28","","null","","images/semantic_sequence/creative_activities_semantic/creative_activities_semantic_7.png","null","",""
"","","","","","image-button-response","38","200296","0.0-10.0-1.0-1.4","593446F653384B34A2F51222A66D1E62","593446F653384B34A2F51222A66D1E62","d78f1367-c31a-443d-acf6-b0c3ffca713f","93d27ed9-06b1-4109-8acc-030e53ea77d1","{""num_scrambled_semantic"":""8"",""num_scrambled_causal"":""4"",""num_scrambled_schematic"":""4"",""participantId"":""593446F653384B34A2F51222A66D1E62"",""assignmentId"":""d78f1367-c31a-443d-acf6-b0c3ffca713f"",""projectId"":""93d27ed9-06b1-4109-8acc-030e53ea77d1""}","https://test12345.live/?num_scrambled_semantic=8&num_scrambled_causal=4&num_scrambled_schematic=4&participantId=593446F653384B34A2F51222A66D1E62&assignmentId=d78f1367-c31a-443d-acf6-b0c3ffca713f&projectId=93d27ed9-06b1-4109-8acc-030e53ea77d1","593446F653384B34A2F51222A66D1E62-2025-05-14-15-15-28","","895","","images/semantic_sequence/creative_activities_semantic/creative_activities_semantic_7.png","0","",""
"","","","","","image-button-response","39","202098","0.0-10.0-1.0-2.4","593446F653384B34A2F51222A66D1E62","593446F653384B34A2F51222A66D1E62","d78f1367-c31a-443d-acf6-b0c3ffca713f","93d27ed9-06b1-4109-8acc-030e53ea77d1","{""num_scrambled_semantic"":""8"",""num_scrambled_causal"":""4"",""num_scrambled_schematic"":""4"",""participantId"":""593446F653384B34A2F51222A66D1E62"",""assignmentId"":""d78f1367-c31a-443d-acf6-b0c3ffca713f"",""projectId"":""93d27ed9-06b1-4109-8acc-030e53ea77d1""}","https://test12345.live/?num_scrambled_semantic=8&num_scrambled_causal=4&num_scrambled_schematic=4&participantId=593446F653384B34A2F51222A66D1E62&assignmentId=d78f1367-c31a-443d-acf6-b0c3ffca713f&projectId=93d27ed9-06b1-4109-8acc-030e53ea77d1","593446F653384B34A2F51222A66D1E62-2025-05-14-15-15-28","","null","","[]","null","",""
"","","","","","image-button-response","40","206609","0.0-10.0-1.0-0.5","593446F653384B34A2F51222A66D1E62","593446F653384B34A2F51222A66D1E62","d78f1367-c31a-443d-acf6-b0c3ffca713f","93d27ed9-06b1-4109-8acc-030e53ea77d1","{""num_scrambled_semantic"":""8"",""num_scrambled_causal"":""4"",""num_scrambled_schematic"":""4"",""participantId"":""593446F653384B34A2F51222A66D1E62"",""assignmentId"":""d78f1367-c31a-443d-acf6-b0c3ffca713f"",""projectId"":""93d27ed9-06b1-4109-8acc-030e53ea77d1""}","https://test12345.live/?num_scrambled_semantic=8&num_scrambled_causal=4&num_scrambled_schematic=4&participantId=593446F653384B34A2F51222A66D1E62&assignmentId=d78f1367-c31a-443d-acf6-b0c3ffca713f&projectId=93d27ed9-06b1-4109-8acc-030e53ea77d1","593446F653384B34A2F51222A66D1E62-2025-05-14-15-15-28","","null","","images/semantic_sequence/creative_activities_semantic/creative_activities_semantic_1.png","null","",""
"","","","","","image-button-response","41","207349","0.0-10.0-1.0-1.5","593446F653384B34A2F51222A66D1E62","593446F653384B34A2F51222A66D1E62","d78f1367-c31a-443d-acf6-b0c3ffca713f","93d27ed9-06b1-4109-8acc-030e53ea77d1","{""num_scrambled_semantic"":""8"",""num_scrambled_causal"":""4"",""num_scrambled_schematic"":""4"",""participantId"":""593446F653384B34A2F51222A66D1E62"",""assignmentId"":""d78f1367-c31a-443d-acf6-b0c3ffca713f"",""projectId"":""93d27ed9-06b1-4109-8acc-030e53ea77d1""}","https://test12345.live/?num_scrambled_semantic=8&num_scrambled_causal=4&num_scrambled_schematic=4&participantId=593446F653384B34A2F51222A66D1E62&assignmentId=d78f1367-c31a-443d-acf6-b0c3ffca713f&projectId=93d27ed9-06b1-4109-8acc-030e53ea77d1","593446F653384B34A2F51222A66D1E62-2025-05-14-15-15-28","","738","","images/semantic_sequence/creative_activities_semantic/creative_activities_semantic_1.png","0","",""
"","","","","","image-button-response","42","209165","0.0-10.0-1.0-2.5","593446F653384B34A2F51222A66D1E62","593446F653384B34A2F51222A66D1E62","d78f1367-c31a-443d-acf6-b0c3ffca713f","93d27ed9-06b1-4109-8acc-030e53ea77d1","{""num_scrambled_semantic"":""8"",""num_scrambled_causal"":""4"",""num_scrambled_schematic"":""4"",""participantId"":""593446F653384B34A2F51222A66D1E62"",""assignmentId"":""d78f1367-c31a-443d-acf6-b0c3ffca713f"",""projectId"":""93d27ed9-06b1-4109-8acc-030e53ea77d1""}","https://test12345.live/?num_scrambled_semantic=8&num_scrambled_causal=4&num_scrambled_schematic=4&participantId=593446F653384B34A2F51222A66D1E62&assignmentId=d78f1367-c31a-443d-acf6-b0c3ffca713f&projectId=93d27ed9-06b1-4109-8acc-030e53ea77d1","593446F653384B34A2F51222A66D1E62-2025-05-14-15-15-28","","null","","[]","null","",""
"","","","","","image-button-response","43","213670","0.0-10.0-1.0-0.6","593446F653384B34A2F51222A66D1E62","593446F653384B34A2F51222A66D1E62","d78f1367-c31a-443d-acf6-b0c3ffca713f","93d27ed9-06b1-4109-8acc-030e53ea77d1","{""num_scrambled_semantic"":""8"",""num_scrambled_causal"":""4"",""num_scrambled_schematic"":""4"",""participantId"":""593446F653384B34A2F51222A66D1E62"",""assignmentId"":""d78f1367-c31a-443d-acf6-b0c3ffca713f"",""projectId"":""93d27ed9-06b1-4109-8acc-030e53ea77d1""}","https://test12345.live/?num_scrambled_semantic=8&num_scrambled_causal=4&num_scrambled_schematic=4&participantId=593446F653384B34A2F51222A66D1E62&assignmentId=d78f1367-c31a-443d-acf6-b0c3ffca713f&projectId=93d27ed9-06b1-4109-8acc-030e53ea77d1","593446F653384B34A2F51222A66D1E62-2025-05-14-15-15-28","","null","","images/semantic_sequence/creative_activities_semantic/creative_activities_semantic_4.png","null","",""
"","","","","","image-button-response","44","214361","0.0-10.0-1.0-1.6","593446F653384B34A2F51222A66D1E62","593446F653384B34A2F51222A66D1E62","d78f1367-c31a-443d-acf6-b0c3ffca713f","93d27ed9-06b1-4109-8acc-030e53ea77d1","{""num_scrambled_semantic"":""8"",""num_scrambled_causal"":""4"",""num_scrambled_schematic"":""4"",""participantId"":""593446F653384B34A2F51222A66D1E62"",""assignmentId"":""d78f1367-c31a-443d-acf6-b0c3ffca713f"",""projectId"":""93d27ed9-06b1-4109-8acc-030e53ea77d1""}","https://test12345.live/?num_scrambled_semantic=8&num_scrambled_causal=4&num_scrambled_schematic=4&participantId=593446F653384B34A2F51222A66D1E62&assignmentId=d78f1367-c31a-443d-acf6-b0c3ffca713f&projectId=93d27ed9-06b1-4109-8acc-030e53ea77d1","593446F653384B34A2F51222A66D1E62-2025-05-14-15-15-28","","689","","images/semantic_sequence/creative_activities_semantic/creative_activities_semantic_4.png","0","",""
"","","","","","image-button-response","45","216163","0.0-10.0-1.0-2.6","593446F653384B34A2F51222A66D1E62","593446F653384B34A2F51222A66D1E62","d78f1367-c31a-443d-acf6-b0c3ffca713f","93d27ed9-06b1-4109-8acc-030e53ea77d1","{""num_scrambled_semantic"":""8"",""num_scrambled_causal"":""4"",""num_scrambled_schematic"":""4"",""participantId"":""593446F653384B34A2F51222A66D1E62"",""assignmentId"":""d78f1367-c31a-443d-acf6-b0c3ffca713f"",""projectId"":""93d27ed9-06b1-4109-8acc-030e53ea77d1""}","https://test12345.live/?num_scrambled_semantic=8&num_scrambled_causal=4&num_scrambled_schematic=4&participantId=593446F653384B34A2F51222A66D1E62&assignmentId=d78f1367-c31a-443d-acf6-b0c3ffca713f&projectId=93d27ed9-06b1-4109-8acc-030e53ea77d1","593446F653384B34A2F51222A66D1E62-2025-05-14-15-15-28","","null","","[]","null","",""
"","","","","","image-button-response","46","220665","0.0-10.0-1.0-0.7","593446F653384B34A2F51222A66D1E62","593446F653384B34A2F51222A66D1E62","d78f1367-c31a-443d-acf6-b0c3ffca713f","93d27ed9-06b1-4109-8acc-030e53ea77d1","{""num_scrambled_semantic"":""8"",""num_scrambled_causal"":""4"",""num_scrambled_schematic"":""4"",""participantId"":""593446F653384B34A2F51222A66D1E62"",""assignmentId"":""d78f1367-c31a-443d-acf6-b0c3ffca713f"",""projectId"":""93d27ed9-06b1-4109-8acc-030e53ea77d1""}","https://test12345.live/?num_scrambled_semantic=8&num_scrambled_causal=4&num_scrambled_schematic=4&participantId=593446F653384B34A2F51222A66D1E62&assignmentId=d78f1367-c31a-443d-acf6-b0c3ffca713f&projectId=93d27ed9-06b1-4109-8acc-030e53ea77d1","593446F653384B34A2F51222A66D1E62-2025-05-14-15-15-28","","null","","images/semantic_sequence/creative_activities_semantic/creative_activities_semantic_5.png","null","",""
"","","","","","image-button-response","47","221123","0.0-10.0-1.0-1.7","593446F653384B34A2F51222A66D1E62","593446F653384B34A2F51222A66D1E62","d78f1367-c31a-443d-acf6-b0c3ffca713f","93d27ed9-06b1-4109-8acc-030e53ea77d1","{""num_scrambled_semantic"":""8"",""num_scrambled_causal"":""4"",""num_scrambled_schematic"":""4"",""participantId"":""593446F653384B34A2F51222A66D1E62"",""assignmentId"":""d78f1367-c31a-443d-acf6-b0c3ffca713f"",""projectId"":""93d27ed9-06b1-4109-8acc-030e53ea77d1""}","https://test12345.live/?num_scrambled_semantic=8&num_scrambled_causal=4&num_scrambled_schematic=4&participantId=593446F653384B34A2F51222A66D1E62&assignmentId=d78f1367-c31a-443d-acf6-b0c3ffca713f&projectId=93d27ed9-06b1-4109-8acc-030e53ea77d1","593446F653384B34A2F51222A66D1E62-2025-05-14-15-15-28","","456","","images/semantic_sequence/creative_activities_semantic/creative_activities_semantic_5.png","0","",""
"","","","","","image-button-response","48","222930","0.0-10.0-1.0-2.7","593446F653384B34A2F51222A66D1E62","593446F653384B34A2F51222A66D1E62","d78f1367-c31a-443d-acf6-b0c3ffca713f","93d27ed9-06b1-4109-8acc-030e53ea77d1","{""num_scrambled_semantic"":""8"",""num_scrambled_causal"":""4"",""num_scrambled_schematic"":""4"",""participantId"":""593446F653384B34A2F51222A66D1E62"",""assignmentId"":""d78f1367-c31a-443d-acf6-b0c3ffca713f"",""projectId"":""93d27ed9-06b1-4109-8acc-030e53ea77d1""}","https://test12345.live/?num_scrambled_semantic=8&num_scrambled_causal=4&num_scrambled_schematic=4&participantId=593446F653384B34A2F51222A66D1E62&assignmentId=d78f1367-c31a-443d-acf6-b0c3ffca713f&projectId=93d27ed9-06b1-4109-8acc-030e53ea77d1","593446F653384B34A2F51222A66D1E62-2025-05-14-15-15-28","","null","","[]","null","",""
"","","","","","image-button-response","49","227435","0.0-10.0-1.0-0.8","593446F653384B34A2F51222A66D1E62","593446F653384B34A2F51222A66D1E62","d78f1367-c31a-443d-acf6-b0c3ffca713f","93d27ed9-06b1-4109-8acc-030e53ea77d1","{""num_scrambled_semantic"":""8"",""num_scrambled_causal"":""4"",""num_scrambled_schematic"":""4"",""participantId"":""593446F653384B34A2F51222A66D1E62"",""assignmentId"":""d78f1367-c31a-443d-acf6-b0c3ffca713f"",""projectId"":""93d27ed9-06b1-4109-8acc-030e53ea77d1""}","https://test12345.live/?num_scrambled_semantic=8&num_scrambled_causal=4&num_scrambled_schematic=4&participantId=593446F653384B34A2F51222A66D1E62&assignmentId=d78f1367-c31a-443d-acf6-b0c3ffca713f&projectId=93d27ed9-06b1-4109-8acc-030e53ea77d1","593446F653384B34A2F51222A66D1E62-2025-05-14-15-15-28","","null","","images/semantic_sequence/creative_activities_semantic/creative_activities_semantic_9.png","null","",""
"","","","","","image-button-response","50","227956","0.0-10.0-1.0-1.8","593446F653384B34A2F51222A66D1E62","593446F653384B34A2F51222A66D1E62","d78f1367-c31a-443d-acf6-b0c3ffca713f","93d27ed9-06b1-4109-8acc-030e53ea77d1","{""num_scrambled_semantic"":""8"",""num_scrambled_causal"":""4"",""num_scrambled_schematic"":""4"",""participantId"":""593446F653384B34A2F51222A66D1E62"",""assignmentId"":""d78f1367-c31a-443d-acf6-b0c3ffca713f"",""projectId"":""93d27ed9-06b1-4109-8acc-030e53ea77d1""}","https://test12345.live/?num_scrambled_semantic=8&num_scrambled_causal=4&num_scrambled_schematic=4&participantId=593446F653384B34A2F51222A66D1E62&assignmentId=d78f1367-c31a-443d-acf6-b0c3ffca713f&projectId=93d27ed9-06b1-4109-8acc-030e53ea77d1","593446F653384B34A2F51222A66D1E62-2025-05-14-15-15-28","","520","","images/semantic_sequence/creative_activities_semantic/creative_activities_semantic_9.png","0","",""
"","","","","","image-button-response","51","229760","0.0-10.0-1.0-2.8","593446F653384B34A2F51222A66D1E62","593446F653384B34A2F51222A66D1E62","d78f1367-c31a-443d-acf6-b0c3ffca713f","93d27ed9-06b1-4109-8acc-030e53ea77d1","{""num_scrambled_semantic"":""8"",""num_scrambled_causal"":""4"",""num_scrambled_schematic"":""4"",""participantId"":""593446F653384B34A2F51222A66D1E62"",""assignmentId"":""d78f1367-c31a-443d-acf6-b0c3ffca713f"",""projectId"":""93d27ed9-06b1-4109-8acc-030e53ea77d1""}","https://test12345.live/?num_scrambled_semantic=8&num_scrambled_causal=4&num_scrambled_schematic=4&participantId=593446F653384B34A2F51222A66D1E62&assignmentId=d78f1367-c31a-443d-acf6-b0c3ffca713f&projectId=93d27ed9-06b1-4109-8acc-030e53ea77d1","593446F653384B34A2F51222A66D1E62-2025-05-14-15-15-28","","null","","[]","null","",""
"","","","","","image-button-response","52","234262","0.0-10.0-1.0-0.9","593446F653384B34A2F51222A66D1E62","593446F653384B34A2F51222A66D1E62","d78f1367-c31a-443d-acf6-b0c3ffca713f","93d27ed9-06b1-4109-8acc-030e53ea77d1","{""num_scrambled_semantic"":""8"",""num_scrambled_causal"":""4"",""num_scrambled_schematic"":""4"",""participantId"":""593446F653384B34A2F51222A66D1E62"",""assignmentId"":""d78f1367-c31a-443d-acf6-b0c3ffca713f"",""projectId"":""93d27ed9-06b1-4109-8acc-030e53ea77d1""}","https://test12345.live/?num_scrambled_semantic=8&num_scrambled_causal=4&num_scrambled_schematic=4&participantId=593446F653384B34A2F51222A66D1E62&assignmentId=d78f1367-c31a-443d-acf6-b0c3ffca713f&projectId=93d27ed9-06b1-4109-8acc-030e53ea77d1","593446F653384B34A2F51222A66D1E62-2025-05-14-15-15-28","","null","","images/semantic_sequence/creative_activities_semantic/creative_activities_semantic_ten.png","null","",""
"","","","","","image-button-response","53","235160","0.0-10.0-1.0-1.9","593446F653384B34A2F51222A66D1E62","593446F653384B34A2F51222A66D1E62","d78f1367-c31a-443d-acf6-b0c3ffca713f","93d27ed9-06b1-4109-8acc-030e53ea77d1","{""num_scrambled_semantic"":""8"",""num_scrambled_causal"":""4"",""num_scrambled_schematic"":""4"",""participantId"":""593446F653384B34A2F51222A66D1E62"",""assignmentId"":""d78f1367-c31a-443d-acf6-b0c3ffca713f"",""projectId"":""93d27ed9-06b1-4109-8acc-030e53ea77d1""}","https://test12345.live/?num_scrambled_semantic=8&num_scrambled_causal=4&num_scrambled_schematic=4&participantId=593446F653384B34A2F51222A66D1E62&assignmentId=d78f1367-c31a-443d-acf6-b0c3ffca713f&projectId=93d27ed9-06b1-4109-8acc-030e53ea77d1","593446F653384B34A2F51222A66D1E62-2025-05-14-15-15-28","","895","","images/semantic_sequence/creative_activities_semantic/creative_activities_semantic_ten.png","0","",""
"","","","","","image-button-response","54","236972","0.0-10.0-1.0-2.9","593446F653384B34A2F51222A66D1E62","593446F653384B34A2F51222A66D1E62","d78f1367-c31a-443d-acf6-b0c3ffca713f","93d27ed9-06b1-4109-8acc-030e53ea77d1","{""num_scrambled_semantic"":""8"",""num_scrambled_causal"":""4"",""num_scrambled_schematic"":""4"",""participantId"":""593446F653384B34A2F51222A66D1E62"",""assignmentId"":""d78f1367-c31a-443d-acf6-b0c3ffca713f"",""projectId"":""93d27ed9-06b1-4109-8acc-030e53ea77d1""}","https://test12345.live/?num_scrambled_semantic=8&num_scrambled_causal=4&num_scrambled_schematic=4&participantId=593446F653384B34A2F51222A66D1E62&assignmentId=d78f1367-c31a-443d-acf6-b0c3ffca713f&projectId=93d27ed9-06b1-4109-8acc-030e53ea77d1","593446F653384B34A2F51222A66D1E62-2025-05-14-15-15-28","","null","","[]","null","",""
"","","","","","html-audio-response","55","260973","0.0-11.0","593446F653384B34A2F51222A66D1E62","593446F653384B34A2F51222A66D1E62","d78f1367-c31a-443d-acf6-b0c3ffca713f","93d27ed9-06b1-4109-8acc-030e53ea77d1","{""num_scrambled_semantic"":""8"",""num_scrambled_causal"":""4"",""num_scrambled_schematic"":""4"",""participantId"":""593446F653384B34A2F51222A66D1E62"",""assignmentId"":""d78f1367-c31a-443d-acf6-b0c3ffca713f"",""projectId"":""93d27ed9-06b1-4109-8acc-030e53ea77d1""}","https://test12345.live/?num_scrambled_semantic=8&num_scrambled_causal=4&num_scrambled_schematic=4&participantId=593446F653384B34A2F51222A66D1E62&assignmentId=d78f1367-c31a-443d-acf6-b0c3ffca713f&projectId=93d27ed9-06b1-4109-8acc-030e53ea77d1","593446F653384B34A2F51222A66D1E62-2025-05-14-15-15-28","","18299","","[""<span style=\""color: red; font-size: 24px\""> NOW RECORDING</span><p>Please say out loud all the images you saw, as many as you can remember. The images can be said in any order.</p>""]","","3","creative_activities_semantic"
"","","","","","image-button-response","56","266980","0.0-12.0-0.0","593446F653384B34A2F51222A66D1E62","593446F653384B34A2F51222A66D1E62","d78f1367-c31a-443d-acf6-b0c3ffca713f","93d27ed9-06b1-4109-8acc-030e53ea77d1","{""num_scrambled_semantic"":""8"",""num_scrambled_causal"":""4"",""num_scrambled_schematic"":""4"",""participantId"":""593446F653384B34A2F51222A66D1E62"",""assignmentId"":""d78f1367-c31a-443d-acf6-b0c3ffca713f"",""projectId"":""93d27ed9-06b1-4109-8acc-030e53ea77d1""}","https://test12345.live/?num_scrambled_semantic=8&num_scrambled_causal=4&num_scrambled_schematic=4&participantId=593446F653384B34A2F51222A66D1E62&assignmentId=d78f1367-c31a-443d-acf6-b0c3ffca713f&projectId=93d27ed9-06b1-4109-8acc-030e53ea77d1","593446F653384B34A2F51222A66D1E62-2025-05-14-15-15-28","","null","","images/semantic_sequence/housework_semantic/housework_semantic_0.png","null","",""
"","","","","","image-button-response","57","271490","0.0-12.0-1.0-0.0","593446F653384B34A2F51222A66D1E62","593446F653384B34A2F51222A66D1E62","d78f1367-c31a-443d-acf6-b0c3ffca713f","93d27ed9-06b1-4109-8acc-030e53ea77d1","{""num_scrambled_semantic"":""8"",""num_scrambled_causal"":""4"",""num_scrambled_schematic"":""4"",""participantId"":""593446F653384B34A2F51222A66D1E62"",""assignmentId"":""d78f1367-c31a-443d-acf6-b0c3ffca713f"",""projectId"":""93d27ed9-06b1-4109-8acc-030e53ea77d1""}","https://test12345.live/?num_scrambled_semantic=8&num_scrambled_causal=4&num_scrambled_schematic=4&participantId=593446F653384B34A2F51222A66D1E62&assignmentId=d78f1367-c31a-443d-acf6-b0c3ffca713f&projectId=93d27ed9-06b1-4109-8acc-030e53ea77d1","593446F653384B34A2F51222A66D1E62-2025-05-14-15-15-28","","null","","images/semantic_sequence/housework_semantic/housework_semantic_1.png","null","",""
"","","","","","image-button-response","58","272251","0.0-12.0-1.0-1.0","593446F653384B34A2F51222A66D1E62","593446F653384B34A2F51222A66D1E62","d78f1367-c31a-443d-acf6-b0c3ffca713f","93d27ed9-06b1-4109-8acc-030e53ea77d1","{""num_scrambled_semantic"":""8"",""num_scrambled_causal"":""4"",""num_scrambled_schematic"":""4"",""participantId"":""593446F653384B34A2F51222A66D1E62"",""assignmentId"":""d78f1367-c31a-443d-acf6-b0c3ffca713f"",""projectId"":""93d27ed9-06b1-4109-8acc-030e53ea77d1""}","https://test12345.live/?num_scrambled_semantic=8&num_scrambled_causal=4&num_scrambled_schematic=4&participantId=593446F653384B34A2F51222A66D1E62&assignmentId=d78f1367-c31a-443d-acf6-b0c3ffca713f&projectId=93d27ed9-06b1-4109-8acc-030e53ea77d1","593446F653384B34A2F51222A66D1E62-2025-05-14-15-15-28","","759","","images/semantic_sequence/housework_semantic/housework_semantic_1.png","0","",""
"","","","","","image-button-response","59","274058","0.0-12.0-1.0-2.0","593446F653384B34A2F51222A66D1E62","593446F653384B34A2F51222A66D1E62","d78f1367-c31a-443d-acf6-b0c3ffca713f","93d27ed9-06b1-4109-8acc-030e53ea77d1","{""num_scrambled_semantic"":""8"",""num_scrambled_causal"":""4"",""num_scrambled_schematic"":""4"",""participantId"":""593446F653384B34A2F51222A66D1E62"",""assignmentId"":""d78f1367-c31a-443d-acf6-b0c3ffca713f"",""projectId"":""93d27ed9-06b1-4109-8acc-030e53ea77d1""}","https://test12345.live/?num_scrambled_semantic=8&num_scrambled_causal=4&num_scrambled_schematic=4&participantId=593446F653384B34A2F51222A66D1E62&assignmentId=d78f1367-c31a-443d-acf6-b0c3ffca713f&projectId=93d27ed9-06b1-4109-8acc-030e53ea77d1","593446F653384B34A2F51222A66D1E62-2025-05-14-15-15-28","","null","","[]","null","",""
"","","","","","image-button-response","60","278567","0.0-12.0-1.0-0.1","593446F653384B34A2F51222A66D1E62","593446F653384B34A2F51222A66D1E62","d78f1367-c31a-443d-acf6-b0c3ffca713f","93d27ed9-06b1-4109-8acc-030e53ea77d1","{""num_scrambled_semantic"":""8"",""num_scrambled_causal"":""4"",""num_scrambled_schematic"":""4"",""participantId"":""593446F653384B34A2F51222A66D1E62"",""assignmentId"":""d78f1367-c31a-443d-acf6-b0c3ffca713f"",""projectId"":""93d27ed9-06b1-4109-8acc-030e53ea77d1""}","https://test12345.live/?num_scrambled_semantic=8&num_scrambled_causal=4&num_scrambled_schematic=4&participantId=593446F653384B34A2F51222A66D1E62&assignmentId=d78f1367-c31a-443d-acf6-b0c3ffca713f&projectId=93d27ed9-06b1-4109-8acc-030e53ea77d1","593446F653384B34A2F51222A66D1E62-2025-05-14-15-15-28","","null","","images/semantic_sequence/housework_semantic/housework_semantic_ten.png","null","",""
"","","","","","image-button-response","61","279257","0.0-12.0-1.0-1.1","593446F653384B34A2F51222A66D1E62","593446F653384B34A2F51222A66D1E62","d78f1367-c31a-443d-acf6-b0c3ffca713f","93d27ed9-06b1-4109-8acc-030e53ea77d1","{""num_scrambled_semantic"":""8"",""num_scrambled_causal"":""4"",""num_scrambled_schematic"":""4"",""participantId"":""593446F653384B34A2F51222A66D1E62"",""assignmentId"":""d78f1367-c31a-443d-acf6-b0c3ffca713f"",""projectId"":""93d27ed9-06b1-4109-8acc-030e53ea77d1""}","https://test12345.live/?num_scrambled_semantic=8&num_scrambled_causal=4&num_scrambled_schematic=4&participantId=593446F653384B34A2F51222A66D1E62&assignmentId=d78f1367-c31a-443d-acf6-b0c3ffca713f&projectId=93d27ed9-06b1-4109-8acc-030e53ea77d1","593446F653384B34A2F51222A66D1E62-2025-05-14-15-15-28","","689","","images/semantic_sequence/housework_semantic/housework_semantic_ten.png","0","",""
"","","","","","image-button-response","62","281061","0.0-12.0-1.0-2.1","593446F653384B34A2F51222A66D1E62","593446F653384B34A2F51222A66D1E62","d78f1367-c31a-443d-acf6-b0c3ffca713f","93d27ed9-06b1-4109-8acc-030e53ea77d1","{""num_scrambled_semantic"":""8"",""num_scrambled_causal"":""4"",""num_scrambled_schematic"":""4"",""participantId"":""593446F653384B34A2F51222A66D1E62"",""assignmentId"":""d78f1367-c31a-443d-acf6-b0c3ffca713f"",""projectId"":""93d27ed9-06b1-4109-8acc-030e53ea77d1""}","https://test12345.live/?num_scrambled_semantic=8&num_scrambled_causal=4&num_scrambled_schematic=4&participantId=593446F653384B34A2F51222A66D1E62&assignmentId=d78f1367-c31a-443d-acf6-b0c3ffca713f&projectId=93d27ed9-06b1-4109-8acc-030e53ea77d1","593446F653384B34A2F51222A66D1E62-2025-05-14-15-15-28","","null","","[]","null","",""
"","","","","","image-button-response","63","285570","0.0-12.0-1.0-0.2","593446F653384B34A2F51222A66D1E62","593446F653384B34A2F51222A66D1E62","d78f1367-c31a-443d-acf6-b0c3ffca713f","93d27ed9-06b1-4109-8acc-030e53ea77d1","{""num_scrambled_semantic"":""8"",""num_scrambled_causal"":""4"",""num_scrambled_schematic"":""4"",""participantId"":""593446F653384B34A2F51222A66D1E62"",""assignmentId"":""d78f1367-c31a-443d-acf6-b0c3ffca713f"",""projectId"":""93d27ed9-06b1-4109-8acc-030e53ea77d1""}","https://test12345.live/?num_scrambled_semantic=8&num_scrambled_causal=4&num_scrambled_schematic=4&participantId=593446F653384B34A2F51222A66D1E62&assignmentId=d78f1367-c31a-443d-acf6-b0c3ffca713f&projectId=93d27ed9-06b1-4109-8acc-030e53ea77d1","593446F653384B34A2F51222A66D1E62-2025-05-14-15-15-28","","null","","images/semantic_sequence/housework_semantic/housework_semantic_8.png","null","",""
"","","","","","image-button-response","64","286231","0.0-12.0-1.0-1.2","593446F653384B34A2F51222A66D1E62","593446F653384B34A2F51222A66D1E62","d78f1367-c31a-443d-acf6-b0c3ffca713f","93d27ed9-06b1-4109-8acc-030e53ea77d1","{""num_scrambled_semantic"":""8"",""num_scrambled_causal"":""4"",""num_scrambled_schematic"":""4"",""participantId"":""593446F653384B34A2F51222A66D1E62"",""assignmentId"":""d78f1367-c31a-443d-acf6-b0c3ffca713f"",""projectId"":""93d27ed9-06b1-4109-8acc-030e53ea77d1""}","https://test12345.live/?num_scrambled_semantic=8&num_scrambled_causal=4&num_scrambled_schematic=4&participantId=593446F653384B34A2F51222A66D1E62&assignmentId=d78f1367-c31a-443d-acf6-b0c3ffca713f&projectId=93d27ed9-06b1-4109-8acc-030e53ea77d1","593446F653384B34A2F51222A66D1E62-2025-05-14-15-15-28","","659","","images/semantic_sequence/housework_semantic/housework_semantic_8.png","0","",""
"","","","","","image-button-response","65","288038","0.0-12.0-1.0-2.2","593446F653384B34A2F51222A66D1E62","593446F653384B34A2F51222A66D1E62","d78f1367-c31a-443d-acf6-b0c3ffca713f","93d27ed9-06b1-4109-8acc-030e53ea77d1","{""num_scrambled_semantic"":""8"",""num_scrambled_causal"":""4"",""num_scrambled_schematic"":""4"",""participantId"":""593446F653384B34A2F51222A66D1E62"",""assignmentId"":""d78f1367-c31a-443d-acf6-b0c3ffca713f"",""projectId"":""93d27ed9-06b1-4109-8acc-030e53ea77d1""}","https://test12345.live/?num_scrambled_semantic=8&num_scrambled_causal=4&num_scrambled_schematic=4&participantId=593446F653384B34A2F51222A66D1E62&assignmentId=d78f1367-c31a-443d-acf6-b0c3ffca713f&projectId=93d27ed9-06b1-4109-8acc-030e53ea77d1","593446F653384B34A2F51222A66D1E62-2025-05-14-15-15-28","","null","","[]","null","",""
"","","","","","image-button-response","66","292547","0.0-12.0-1.0-0.3","593446F653384B34A2F51222A66D1E62","593446F653384B34A2F51222A66D1E62","d78f1367-c31a-443d-acf6-b0c3ffca713f","93d27ed9-06b1-4109-8acc-030e53ea77d1","{""num_scrambled_semantic"":""8"",""num_scrambled_causal"":""4"",""num_scrambled_schematic"":""4"",""participantId"":""593446F653384B34A2F51222A66D1E62"",""assignmentId"":""d78f1367-c31a-443d-acf6-b0c3ffca713f"",""projectId"":""93d27ed9-06b1-4109-8acc-030e53ea77d1""}","https://test12345.live/?num_scrambled_semantic=8&num_scrambled_causal=4&num_scrambled_schematic=4&participantId=593446F653384B34A2F51222A66D1E62&assignmentId=d78f1367-c31a-443d-acf6-b0c3ffca713f&projectId=93d27ed9-06b1-4109-8acc-030e53ea77d1","593446F653384B34A2F51222A66D1E62-2025-05-14-15-15-28","","null","","images/semantic_sequence/housework_semantic/housework_semantic_9.png","null","",""
"","","","","","image-button-response","67","292828","0.0-12.0-1.0-1.3","593446F653384B34A2F51222A66D1E62","593446F653384B34A2F51222A66D1E62","d78f1367-c31a-443d-acf6-b0c3ffca713f","93d27ed9-06b1-4109-8acc-030e53ea77d1","{""num_scrambled_semantic"":""8"",""num_scrambled_causal"":""4"",""num_scrambled_schematic"":""4"",""participantId"":""593446F653384B34A2F51222A66D1E62"",""assignmentId"":""d78f1367-c31a-443d-acf6-b0c3ffca713f"",""projectId"":""93d27ed9-06b1-4109-8acc-030e53ea77d1""}","https://test12345.live/?num_scrambled_semantic=8&num_scrambled_causal=4&num_scrambled_schematic=4&participantId=593446F653384B34A2F51222A66D1E62&assignmentId=d78f1367-c31a-443d-acf6-b0c3ffca713f&projectId=93d27ed9-06b1-4109-8acc-030e53ea77d1","593446F653384B34A2F51222A66D1E62-2025-05-14-15-15-28","","279","","images/semantic_sequence/housework_semantic/housework_semantic_9.png","0","",""
"","","","","","image-button-response","68","294631","0.0-12.0-1.0-2.3","593446F653384B34A2F51222A66D1E62","593446F653384B34A2F51222A66D1E62","d78f1367-c31a-443d-acf6-b0c3ffca713f","93d27ed9-06b1-4109-8acc-030e53ea77d1","{""num_scrambled_semantic"":""8"",""num_scrambled_causal"":""4"",""num_scrambled_schematic"":""4"",""participantId"":""593446F653384B34A2F51222A66D1E62"",""assignmentId"":""d78f1367-c31a-443d-acf6-b0c3ffca713f"",""projectId"":""93d27ed9-06b1-4109-8acc-030e53ea77d1""}","https://test12345.live/?num_scrambled_semantic=8&num_scrambled_causal=4&num_scrambled_schematic=4&participantId=593446F653384B34A2F51222A66D1E62&assignmentId=d78f1367-c31a-443d-acf6-b0c3ffca713f&projectId=93d27ed9-06b1-4109-8acc-030e53ea77d1","593446F653384B34A2F51222A66D1E62-2025-05-14-15-15-28","","null","","[]","null","",""
"","","","","","image-button-response","69","299145","0.0-12.0-1.0-0.4","593446F653384B34A2F51222A66D1E62","593446F653384B34A2F51222A66D1E62","d78f1367-c31a-443d-acf6-b0c3ffca713f","93d27ed9-06b1-4109-8acc-030e53ea77d1","{""num_scrambled_semantic"":""8"",""num_scrambled_causal"":""4"",""num_scrambled_schematic"":""4"",""participantId"":""593446F653384B34A2F51222A66D1E62"",""assignmentId"":""d78f1367-c31a-443d-acf6-b0c3ffca713f"",""projectId"":""93d27ed9-06b1-4109-8acc-030e53ea77d1""}","https://test12345.live/?num_scrambled_semantic=8&num_scrambled_causal=4&num_scrambled_schematic=4&participantId=593446F653384B34A2F51222A66D1E62&assignmentId=d78f1367-c31a-443d-acf6-b0c3ffca713f&projectId=93d27ed9-06b1-4109-8acc-030e53ea77d1","593446F653384B34A2F51222A66D1E62-2025-05-14-15-15-28","","null","","images/semantic_sequence/housework_semantic/housework_semantic_3.png","null","",""
"","","","","","image-button-response","70","299725","0.0-12.0-1.0-1.4","593446F653384B34A2F51222A66D1E62","593446F653384B34A2F51222A66D1E62","d78f1367-c31a-443d-acf6-b0c3ffca713f","93d27ed9-06b1-4109-8acc-030e53ea77d1","{""num_scrambled_semantic"":""8"",""num_scrambled_causal"":""4"",""num_scrambled_schematic"":""4"",""participantId"":""593446F653384B34A2F51222A66D1E62"",""assignmentId"":""d78f1367-c31a-443d-acf6-b0c3ffca713f"",""projectId"":""93d27ed9-06b1-4109-8acc-030e53ea77d1""}","https://test12345.live/?num_scrambled_semantic=8&num_scrambled_causal=4&num_scrambled_schematic=4&participantId=593446F653384B34A2F51222A66D1E62&assignmentId=d78f1367-c31a-443d-acf6-b0c3ffca713f&projectId=93d27ed9-06b1-4109-8acc-030e53ea77d1","593446F653384B34A2F51222A66D1E62-2025-05-14-15-15-28","","578","","images/semantic_sequence/housework_semantic/housework_semantic_3.png","0","",""
"","","","","","image-button-response","71","301529","0.0-12.0-1.0-2.4","593446F653384B34A2F51222A66D1E62","593446F653384B34A2F51222A66D1E62","d78f1367-c31a-443d-acf6-b0c3ffca713f","93d27ed9-06b1-4109-8acc-030e53ea77d1","{""num_scrambled_semantic"":""8"",""num_scrambled_causal"":""4"",""num_scrambled_schematic"":""4"",""participantId"":""593446F653384B34A2F51222A66D1E62"",""assignmentId"":""d78f1367-c31a-443d-acf6-b0c3ffca713f"",""projectId"":""93d27ed9-06b1-4109-8acc-030e53ea77d1""}","https://test12345.live/?num_scrambled_semantic=8&num_scrambled_causal=4&num_scrambled_schematic=4&participantId=593446F653384B34A2F51222A66D1E62&assignmentId=d78f1367-c31a-443d-acf6-b0c3ffca713f&projectId=93d27ed9-06b1-4109-8acc-030e53ea77d1","593446F653384B34A2F51222A66D1E62-2025-05-14-15-15-28","","null","","[]","null","",""
"","","","","","image-button-response","72","306043","0.0-12.0-1.0-0.5","593446F653384B34A2F51222A66D1E62","593446F653384B34A2F51222A66D1E62","d78f1367-c31a-443d-acf6-b0c3ffca713f","93d27ed9-06b1-4109-8acc-030e53ea77d1","{""num_scrambled_semantic"":""8"",""num_scrambled_causal"":""4"",""num_scrambled_schematic"":""4"",""participantId"":""593446F653384B34A2F51222A66D1E62"",""assignmentId"":""d78f1367-c31a-443d-acf6-b0c3ffca713f"",""projectId"":""93d27ed9-06b1-4109-8acc-030e53ea77d1""}","https://test12345.live/?num_scrambled_semantic=8&num_scrambled_causal=4&num_scrambled_schematic=4&participantId=593446F653384B34A2F51222A66D1E62&assignmentId=d78f1367-c31a-443d-acf6-b0c3ffca713f&projectId=93d27ed9-06b1-4109-8acc-030e53ea77d1","593446F653384B34A2F51222A66D1E62-2025-05-14-15-15-28","","null","","images/semantic_sequence/housework_semantic/housework_semantic_7.png","null","",""
"","","","","","image-button-response","73","306996","0.0-12.0-1.0-1.5","593446F653384B34A2F51222A66D1E62","593446F653384B34A2F51222A66D1E62","d78f1367-c31a-443d-acf6-b0c3ffca713f","93d27ed9-06b1-4109-8acc-030e53ea77d1","{""num_scrambled_semantic"":""8"",""num_scrambled_causal"":""4"",""num_scrambled_schematic"":""4"",""participantId"":""593446F653384B34A2F51222A66D1E62"",""assignmentId"":""d78f1367-c31a-443d-acf6-b0c3ffca713f"",""projectId"":""93d27ed9-06b1-4109-8acc-030e53ea77d1""}","https://test12345.live/?num_scrambled_semantic=8&num_scrambled_causal=4&num_scrambled_schematic=4&participantId=593446F653384B34A2F51222A66D1E62&assignmentId=d78f1367-c31a-443d-acf6-b0c3ffca713f&projectId=93d27ed9-06b1-4109-8acc-030e53ea77d1","593446F653384B34A2F51222A66D1E62-2025-05-14-15-15-28","","951","","images/semantic_sequence/housework_semantic/housework_semantic_7.png","0","",""
"","","","","","image-button-response","74","308802","0.0-12.0-1.0-2.5","593446F653384B34A2F51222A66D1E62","593446F653384B34A2F51222A66D1E62","d78f1367-c31a-443d-acf6-b0c3ffca713f","93d27ed9-06b1-4109-8acc-030e53ea77d1","{""num_scrambled_semantic"":""8"",""num_scrambled_causal"":""4"",""num_scrambled_schematic"":""4"",""participantId"":""593446F653384B34A2F51222A66D1E62"",""assignmentId"":""d78f1367-c31a-443d-acf6-b0c3ffca713f"",""projectId"":""93d27ed9-06b1-4109-8acc-030e53ea77d1""}","https://test12345.live/?num_scrambled_semantic=8&num_scrambled_causal=4&num_scrambled_schematic=4&participantId=593446F653384B34A2F51222A66D1E62&assignmentId=d78f1367-c31a-443d-acf6-b0c3ffca713f&projectId=93d27ed9-06b1-4109-8acc-030e53ea77d1","593446F653384B34A2F51222A66D1E62-2025-05-14-15-15-28","","null","","[]","null","",""
"","","","","","image-button-response","75","313320","0.0-12.0-1.0-0.6","593446F653384B34A2F51222A66D1E62","593446F653384B34A2F51222A66D1E62","d78f1367-c31a-443d-acf6-b0c3ffca713f","93d27ed9-06b1-4109-8acc-030e53ea77d1","{""num_scrambled_semantic"":""8"",""num_scrambled_causal"":""4"",""num_scrambled_schematic"":""4"",""participantId"":""593446F653384B34A2F51222A66D1E62"",""assignmentId"":""d78f1367-c31a-443d-acf6-b0c3ffca713f"",""projectId"":""93d27ed9-06b1-4109-8acc-030e53ea77d1""}","https://test12345.live/?num_scrambled_semantic=8&num_scrambled_causal=4&num_scrambled_schematic=4&participantId=593446F653384B34A2F51222A66D1E62&assignmentId=d78f1367-c31a-443d-acf6-b0c3ffca713f&projectId=93d27ed9-06b1-4109-8acc-030e53ea77d1","593446F653384B34A2F51222A66D1E62-2025-05-14-15-15-28","","null","","images/semantic_sequence/housework_semantic/housework_semantic_6.png","null","",""
"","","","","","image-button-response","76","314239","0.0-12.0-1.0-1.6","593446F653384B34A2F51222A66D1E62","593446F653384B34A2F51222A66D1E62","d78f1367-c31a-443d-acf6-b0c3ffca713f","93d27ed9-06b1-4109-8acc-030e53ea77d1","{""num_scrambled_semantic"":""8"",""num_scrambled_causal"":""4"",""num_scrambled_schematic"":""4"",""participantId"":""593446F653384B34A2F51222A66D1E62"",""assignmentId"":""d78f1367-c31a-443d-acf6-b0c3ffca713f"",""projectId"":""93d27ed9-06b1-4109-8acc-030e53ea77d1""}","https://test12345.live/?num_scrambled_semantic=8&num_scrambled_causal=4&num_scrambled_schematic=4&participantId=593446F653384B34A2F51222A66D1E62&assignmentId=d78f1367-c31a-443d-acf6-b0c3ffca713f&projectId=93d27ed9-06b1-4109-8acc-030e53ea77d1","593446F653384B34A2F51222A66D1E62-2025-05-14-15-15-28","","917","","images/semantic_sequence/housework_semantic/housework_semantic_6.png","0","",""
"","","","","","image-button-response","77","316051","0.0-12.0-1.0-2.6","593446F653384B34A2F51222A66D1E62","593446F653384B34A2F51222A66D1E62","d78f1367-c31a-443d-acf6-b0c3ffca713f","93d27ed9-06b1-4109-8acc-030e53ea77d1","{""num_scrambled_semantic"":""8"",""num_scrambled_causal"":""4"",""num_scrambled_schematic"":""4"",""participantId"":""593446F653384B34A2F51222A66D1E62"",""assignmentId"":""d78f1367-c31a-443d-acf6-b0c3ffca713f"",""projectId"":""93d27ed9-06b1-4109-8acc-030e53ea77d1""}","https://test12345.live/?num_scrambled_semantic=8&num_scrambled_causal=4&num_scrambled_schematic=4&participantId=593446F653384B34A2F51222A66D1E62&assignmentId=d78f1367-c31a-443d-acf6-b0c3ffca713f&projectId=93d27ed9-06b1-4109-8acc-030e53ea77d1","593446F653384B34A2F51222A66D1E62-2025-05-14-15-15-28","","null","","[]","null","",""
"","","","","","image-button-response","78","320561","0.0-12.0-1.0-0.7","593446F653384B34A2F51222A66D1E62","593446F653384B34A2F51222A66D1E62","d78f1367-c31a-443d-acf6-b0c3ffca713f","93d27ed9-06b1-4109-8acc-030e53ea77d1","{""num_scrambled_semantic"":""8"",""num_scrambled_causal"":""4"",""num_scrambled_schematic"":""4"",""participantId"":""593446F653384B34A2F51222A66D1E62"",""assignmentId"":""d78f1367-c31a-443d-acf6-b0c3ffca713f"",""projectId"":""93d27ed9-06b1-4109-8acc-030e53ea77d1""}","https://test12345.live/?num_scrambled_semantic=8&num_scrambled_causal=4&num_scrambled_schematic=4&participantId=593446F653384B34A2F51222A66D1E62&assignmentId=d78f1367-c31a-443d-acf6-b0c3ffca713f&projectId=93d27ed9-06b1-4109-8acc-030e53ea77d1","593446F653384B34A2F51222A66D1E62-2025-05-14-15-15-28","","null","","images/semantic_sequence/housework_semantic/housework_semantic_5.png","null","",""
"","","","","","image-button-response","79","322325","0.0-12.0-1.0-1.7","593446F653384B34A2F51222A66D1E62","593446F653384B34A2F51222A66D1E62","d78f1367-c31a-443d-acf6-b0c3ffca713f","93d27ed9-06b1-4109-8acc-030e53ea77d1","{""num_scrambled_semantic"":""8"",""num_scrambled_causal"":""4"",""num_scrambled_schematic"":""4"",""participantId"":""593446F653384B34A2F51222A66D1E62"",""assignmentId"":""d78f1367-c31a-443d-acf6-b0c3ffca713f"",""projectId"":""93d27ed9-06b1-4109-8acc-030e53ea77d1""}","https://test12345.live/?num_scrambled_semantic=8&num_scrambled_causal=4&num_scrambled_schematic=4&participantId=593446F653384B34A2F51222A66D1E62&assignmentId=d78f1367-c31a-443d-acf6-b0c3ffca713f&projectId=93d27ed9-06b1-4109-8acc-030e53ea77d1","593446F653384B34A2F51222A66D1E62-2025-05-14-15-15-28","","1763","","images/semantic_sequence/housework_semantic/housework_semantic_5.png","0","",""
"","","","","","image-button-response","80","324128","0.0-12.0-1.0-2.7","593446F653384B34A2F51222A66D1E62","593446F653384B34A2F51222A66D1E62","d78f1367-c31a-443d-acf6-b0c3ffca713f","93d27ed9-06b1-4109-8acc-030e53ea77d1","{""num_scrambled_semantic"":""8"",""num_scrambled_causal"":""4"",""num_scrambled_schematic"":""4"",""participantId"":""593446F653384B34A2F51222A66D1E62"",""assignmentId"":""d78f1367-c31a-443d-acf6-b0c3ffca713f"",""projectId"":""93d27ed9-06b1-4109-8acc-030e53ea77d1""}","https://test12345.live/?num_scrambled_semantic=8&num_scrambled_causal=4&num_scrambled_schematic=4&participantId=593446F653384B34A2F51222A66D1E62&assignmentId=d78f1367-c31a-443d-acf6-b0c3ffca713f&projectId=93d27ed9-06b1-4109-8acc-030e53ea77d1","593446F653384B34A2F51222A66D1E62-2025-05-14-15-15-28","","null","","[]","null","",""
"","","","","","image-button-response","81","328644","0.0-12.0-1.0-0.8","593446F653384B34A2F51222A66D1E62","593446F653384B34A2F51222A66D1E62","d78f1367-c31a-443d-acf6-b0c3ffca713f","93d27ed9-06b1-4109-8acc-030e53ea77d1","{""num_scrambled_semantic"":""8"",""num_scrambled_causal"":""4"",""num_scrambled_schematic"":""4"",""participantId"":""593446F653384B34A2F51222A66D1E62"",""assignmentId"":""d78f1367-c31a-443d-acf6-b0c3ffca713f"",""projectId"":""93d27ed9-06b1-4109-8acc-030e53ea77d1""}","https://test12345.live/?num_scrambled_semantic=8&num_scrambled_causal=4&num_scrambled_schematic=4&participantId=593446F653384B34A2F51222A66D1E62&assignmentId=d78f1367-c31a-443d-acf6-b0c3ffca713f&projectId=93d27ed9-06b1-4109-8acc-030e53ea77d1","593446F653384B34A2F51222A66D1E62-2025-05-14-15-15-28","","null","","images/semantic_sequence/housework_semantic/housework_semantic_2.png","null","",""
"","","","","","image-button-response","82","329677","0.0-12.0-1.0-1.8","593446F653384B34A2F51222A66D1E62","593446F653384B34A2F51222A66D1E62","d78f1367-c31a-443d-acf6-b0c3ffca713f","93d27ed9-06b1-4109-8acc-030e53ea77d1","{""num_scrambled_semantic"":""8"",""num_scrambled_causal"":""4"",""num_scrambled_schematic"":""4"",""participantId"":""593446F653384B34A2F51222A66D1E62"",""assignmentId"":""d78f1367-c31a-443d-acf6-b0c3ffca713f"",""projectId"":""93d27ed9-06b1-4109-8acc-030e53ea77d1""}","https://test12345.live/?num_scrambled_semantic=8&num_scrambled_causal=4&num_scrambled_schematic=4&participantId=593446F653384B34A2F51222A66D1E62&assignmentId=d78f1367-c31a-443d-acf6-b0c3ffca713f&projectId=93d27ed9-06b1-4109-8acc-030e53ea77d1","593446F653384B34A2F51222A66D1E62-2025-05-14-15-15-28","","1032","","images/semantic_sequence/housework_semantic/housework_semantic_2.png","0","",""
"","","","","","image-button-response","83","331481","0.0-12.0-1.0-2.8","593446F653384B34A2F51222A66D1E62","593446F653384B34A2F51222A66D1E62","d78f1367-c31a-443d-acf6-b0c3ffca713f","93d27ed9-06b1-4109-8acc-030e53ea77d1","{""num_scrambled_semantic"":""8"",""num_scrambled_causal"":""4"",""num_scrambled_schematic"":""4"",""participantId"":""593446F653384B34A2F51222A66D1E62"",""assignmentId"":""d78f1367-c31a-443d-acf6-b0c3ffca713f"",""projectId"":""93d27ed9-06b1-4109-8acc-030e53ea77d1""}","https://test12345.live/?num_scrambled_semantic=8&num_scrambled_causal=4&num_scrambled_schematic=4&participantId=593446F653384B34A2F51222A66D1E62&assignmentId=d78f1367-c31a-443d-acf6-b0c3ffca713f&projectId=93d27ed9-06b1-4109-8acc-030e53ea77d1","593446F653384B34A2F51222A66D1E62-2025-05-14-15-15-28","","null","","[]","null","",""
"","","","","","image-button-response","84","335994","0.0-12.0-1.0-0.9","593446F653384B34A2F51222A66D1E62","593446F653384B34A2F51222A66D1E62","d78f1367-c31a-443d-acf6-b0c3ffca713f","93d27ed9-06b1-4109-8acc-030e53ea77d1","{""num_scrambled_semantic"":""8"",""num_scrambled_causal"":""4"",""num_scrambled_schematic"":""4"",""participantId"":""593446F653384B34A2F51222A66D1E62"",""assignmentId"":""d78f1367-c31a-443d-acf6-b0c3ffca713f"",""projectId"":""93d27ed9-06b1-4109-8acc-030e53ea77d1""}","https://test12345.live/?num_scrambled_semantic=8&num_scrambled_causal=4&num_scrambled_schematic=4&participantId=593446F653384B34A2F51222A66D1E62&assignmentId=d78f1367-c31a-443d-acf6-b0c3ffca713f&projectId=93d27ed9-06b1-4109-8acc-030e53ea77d1","593446F653384B34A2F51222A66D1E62-2025-05-14-15-15-28","","null","","images/semantic_sequence/housework_semantic/housework_semantic_4.png","null","",""
"","","","","","image-button-response","85","337175","0.0-12.0-1.0-1.9","593446F653384B34A2F51222A66D1E62","593446F653384B34A2F51222A66D1E62","d78f1367-c31a-443d-acf6-b0c3ffca713f","93d27ed9-06b1-4109-8acc-030e53ea77d1","{""num_scrambled_semantic"":""8"",""num_scrambled_causal"":""4"",""num_scrambled_schematic"":""4"",""participantId"":""593446F653384B34A2F51222A66D1E62"",""assignmentId"":""d78f1367-c31a-443d-acf6-b0c3ffca713f"",""projectId"":""93d27ed9-06b1-4109-8acc-030e53ea77d1""}","https://test12345.live/?num_scrambled_semantic=8&num_scrambled_causal=4&num_scrambled_schematic=4&participantId=593446F653384B34A2F51222A66D1E62&assignmentId=d78f1367-c31a-443d-acf6-b0c3ffca713f&projectId=93d27ed9-06b1-4109-8acc-030e53ea77d1","593446F653384B34A2F51222A66D1E62-2025-05-14-15-15-28","","1179","","images/semantic_sequence/housework_semantic/housework_semantic_4.png","0","",""
"","","","","","image-button-response","86","338979","0.0-12.0-1.0-2.9","593446F653384B34A2F51222A66D1E62","593446F653384B34A2F51222A66D1E62","d78f1367-c31a-443d-acf6-b0c3ffca713f","93d27ed9-06b1-4109-8acc-030e53ea77d1","{""num_scrambled_semantic"":""8"",""num_scrambled_causal"":""4"",""num_scrambled_schematic"":""4"",""participantId"":""593446F653384B34A2F51222A66D1E62"",""assignmentId"":""d78f1367-c31a-443d-acf6-b0c3ffca713f"",""projectId"":""93d27ed9-06b1-4109-8acc-030e53ea77d1""}","https://test12345.live/?num_scrambled_semantic=8&num_scrambled_causal=4&num_scrambled_schematic=4&participantId=593446F653384B34A2F51222A66D1E62&assignmentId=d78f1367-c31a-443d-acf6-b0c3ffca713f&projectId=93d27ed9-06b1-4109-8acc-030e53ea77d1","593446F653384B34A2F51222A66D1E62-2025-05-14-15-15-28","","null","","[]","null","",""
"","","","","","html-audio-response","87","405509","0.0-13.0","593446F653384B34A2F51222A66D1E62","593446F653384B34A2F51222A66D1E62","d78f1367-c31a-443d-acf6-b0c3ffca713f","93d27ed9-06b1-4109-8acc-030e53ea77d1","{""num_scrambled_semantic"":""8"",""num_scrambled_causal"":""4"",""num_scrambled_schematic"":""4"",""participantId"":""593446F653384B34A2F51222A66D1E62"",""assignmentId"":""d78f1367-c31a-443d-acf6-b0c3ffca713f"",""projectId"":""93d27ed9-06b1-4109-8acc-030e53ea77d1""}","https://test12345.live/?num_scrambled_semantic=8&num_scrambled_causal=4&num_scrambled_schematic=4&participantId=593446F653384B34A2F51222A66D1E62&assignmentId=d78f1367-c31a-443d-acf6-b0c3ffca713f&projectId=93d27ed9-06b1-4109-8acc-030e53ea77d1","593446F653384B34A2F51222A66D1E62-2025-05-14-15-15-28","","2053","","[""<span style=\""color: red; font-size: 24px\""> NOW RECORDING</span><p>Please say out loud all the images you saw, as many as you can remember. The images can be said in any order.</p>""]","","2","housework_semantic"
"","","","","","image-button-response","88","411527","0.0-14.0-0.0","593446F653384B34A2F51222A66D1E62","593446F653384B34A2F51222A66D1E62","d78f1367-c31a-443d-acf6-b0c3ffca713f","93d27ed9-06b1-4109-8acc-030e53ea77d1","{""num_scrambled_semantic"":""8"",""num_scrambled_causal"":""4"",""num_scrambled_schematic"":""4"",""participantId"":""593446F653384B34A2F51222A66D1E62"",""assignmentId"":""d78f1367-c31a-443d-acf6-b0c3ffca713f"",""projectId"":""93d27ed9-06b1-4109-8acc-030e53ea77d1""}","https://test12345.live/?num_scrambled_semantic=8&num_scrambled_causal=4&num_scrambled_schematic=4&participantId=593446F653384B34A2F51222A66D1E62&assignmentId=d78f1367-c31a-443d-acf6-b0c3ffca713f&projectId=93d27ed9-06b1-4109-8acc-030e53ea77d1","593446F653384B34A2F51222A66D1E62-2025-05-14-15-15-28","","null","","images/causal_sequence/saving_a_cat_causal/saving_a_cat_causal_0.png","null","",""
"","","","","","image-button-response","89","416031","0.0-14.0-1.0-0.0","593446F653384B34A2F51222A66D1E62","593446F653384B34A2F51222A66D1E62","d78f1367-c31a-443d-acf6-b0c3ffca713f","93d27ed9-06b1-4109-8acc-030e53ea77d1","{""num_scrambled_semantic"":""8"",""num_scrambled_causal"":""4"",""num_scrambled_schematic"":""4"",""participantId"":""593446F653384B34A2F51222A66D1E62"",""assignmentId"":""d78f1367-c31a-443d-acf6-b0c3ffca713f"",""projectId"":""93d27ed9-06b1-4109-8acc-030e53ea77d1""}","https://test12345.live/?num_scrambled_semantic=8&num_scrambled_causal=4&num_scrambled_schematic=4&participantId=593446F653384B34A2F51222A66D1E62&assignmentId=d78f1367-c31a-443d-acf6-b0c3ffca713f&projectId=93d27ed9-06b1-4109-8acc-030e53ea77d1","593446F653384B34A2F51222A66D1E62-2025-05-14-15-15-28","","null","","images/causal_sequence/saving_a_cat_causal/saving_a_cat_causal_3.png","null","",""
"","","","","","image-button-response","90","417757","0.0-14.0-1.0-1.0","593446F653384B34A2F51222A66D1E62","593446F653384B34A2F51222A66D1E62","d78f1367-c31a-443d-acf6-b0c3ffca713f","93d27ed9-06b1-4109-8acc-030e53ea77d1","{""num_scrambled_semantic"":""8"",""num_scrambled_causal"":""4"",""num_scrambled_schematic"":""4"",""participantId"":""593446F653384B34A2F51222A66D1E62"",""assignmentId"":""d78f1367-c31a-443d-acf6-b0c3ffca713f"",""projectId"":""93d27ed9-06b1-4109-8acc-030e53ea77d1""}","https://test12345.live/?num_scrambled_semantic=8&num_scrambled_causal=4&num_scrambled_schematic=4&participantId=593446F653384B34A2F51222A66D1E62&assignmentId=d78f1367-c31a-443d-acf6-b0c3ffca713f&projectId=93d27ed9-06b1-4109-8acc-030e53ea77d1","593446F653384B34A2F51222A66D1E62-2025-05-14-15-15-28","","1725","","images/causal_sequence/saving_a_cat_causal/saving_a_cat_causal_3.png","1","",""
"","","","","","image-button-response","91","419573","0.0-14.0-1.0-2.0","593446F653384B34A2F51222A66D1E62","593446F653384B34A2F51222A66D1E62","d78f1367-c31a-443d-acf6-b0c3ffca713f","93d27ed9-06b1-4109-8acc-030e53ea77d1","{""num_scrambled_semantic"":""8"",""num_scrambled_causal"":""4"",""num_scrambled_schematic"":""4"",""participantId"":""593446F653384B34A2F51222A66D1E62"",""assignmentId"":""d78f1367-c31a-443d-acf6-b0c3ffca713f"",""projectId"":""93d27ed9-06b1-4109-8acc-030e53ea77d1""}","https://test12345.live/?num_scrambled_semantic=8&num_scrambled_causal=4&num_scrambled_schematic=4&participantId=593446F653384B34A2F51222A66D1E62&assignmentId=d78f1367-c31a-443d-acf6-b0c3ffca713f&projectId=93d27ed9-06b1-4109-8acc-030e53ea77d1","593446F653384B34A2F51222A66D1E62-2025-05-14-15-15-28","","null","","[]","null","",""
"","","","","","image-button-response","92","424087","0.0-14.0-1.0-0.1","593446F653384B34A2F51222A66D1E62","593446F653384B34A2F51222A66D1E62","d78f1367-c31a-443d-acf6-b0c3ffca713f","93d27ed9-06b1-4109-8acc-030e53ea77d1","{""num_scrambled_semantic"":""8"",""num_scrambled_causal"":""4"",""num_scrambled_schematic"":""4"",""participantId"":""593446F653384B34A2F51222A66D1E62"",""assignmentId"":""d78f1367-c31a-443d-acf6-b0c3ffca713f"",""projectId"":""93d27ed9-06b1-4109-8acc-030e53ea77d1""}","https://test12345.live/?num_scrambled_semantic=8&num_scrambled_causal=4&num_scrambled_schematic=4&participantId=593446F653384B34A2F51222A66D1E62&assignmentId=d78f1367-c31a-443d-acf6-b0c3ffca713f&projectId=93d27ed9-06b1-4109-8acc-030e53ea77d1","593446F653384B34A2F51222A66D1E62-2025-05-14-15-15-28","","null","","images/causal_sequence/saving_a_cat_causal/saving_a_cat_causal_1.png","null","",""
"","","","","","image-button-response","93","424815","0.0-14.0-1.0-1.1","593446F653384B34A2F51222A66D1E62","593446F653384B34A2F51222A66D1E62","d78f1367-c31a-443d-acf6-b0c3ffca713f","93d27ed9-06b1-4109-8acc-030e53ea77d1","{""num_scrambled_semantic"":""8"",""num_scrambled_causal"":""4"",""num_scrambled_schematic"":""4"",""participantId"":""593446F653384B34A2F51222A66D1E62"",""assignmentId"":""d78f1367-c31a-443d-acf6-b0c3ffca713f"",""projectId"":""93d27ed9-06b1-4109-8acc-030e53ea77d1""}","https://test12345.live/?num_scrambled_semantic=8&num_scrambled_causal=4&num_scrambled_schematic=4&participantId=593446F653384B34A2F51222A66D1E62&assignmentId=d78f1367-c31a-443d-acf6-b0c3ffca713f&projectId=93d27ed9-06b1-4109-8acc-030e53ea77d1","593446F653384B34A2F51222A66D1E62-2025-05-14-15-15-28","","725","","images/causal_sequence/saving_a_cat_causal/saving_a_cat_causal_1.png","0","",""
"","","","","","image-button-response","94","426631","0.0-14.0-1.0-2.1","593446F653384B34A2F51222A66D1E62","593446F653384B34A2F51222A66D1E62","d78f1367-c31a-443d-acf6-b0c3ffca713f","93d27ed9-06b1-4109-8acc-030e53ea77d1","{""num_scrambled_semantic"":""8"",""num_scrambled_causal"":""4"",""num_scrambled_schematic"":""4"",""participantId"":""593446F653384B34A2F51222A66D1E62"",""assignmentId"":""d78f1367-c31a-443d-acf6-b0c3ffca713f"",""projectId"":""93d27ed9-06b1-4109-8acc-030e53ea77d1""}","https://test12345.live/?num_scrambled_semantic=8&num_scrambled_causal=4&num_scrambled_schematic=4&participantId=593446F653384B34A2F51222A66D1E62&assignmentId=d78f1367-c31a-443d-acf6-b0c3ffca713f&projectId=93d27ed9-06b1-4109-8acc-030e53ea77d1","593446F653384B34A2F51222A66D1E62-2025-05-14-15-15-28","","null","","[]","null","",""
"","","","","","image-button-response","95","431141","0.0-14.0-1.0-0.2","593446F653384B34A2F51222A66D1E62","593446F653384B34A2F51222A66D1E62","d78f1367-c31a-443d-acf6-b0c3ffca713f","93d27ed9-06b1-4109-8acc-030e53ea77d1","{""num_scrambled_semantic"":""8"",""num_scrambled_causal"":""4"",""num_scrambled_schematic"":""4"",""participantId"":""593446F653384B34A2F51222A66D1E62"",""assignmentId"":""d78f1367-c31a-443d-acf6-b0c3ffca713f"",""projectId"":""93d27ed9-06b1-4109-8acc-030e53ea77d1""}","https://test12345.live/?num_scrambled_semantic=8&num_scrambled_causal=4&num_scrambled_schematic=4&participantId=593446F653384B34A2F51222A66D1E62&assignmentId=d78f1367-c31a-443d-acf6-b0c3ffca713f&projectId=93d27ed9-06b1-4109-8acc-030e53ea77d1","593446F653384B34A2F51222A66D1E62-2025-05-14-15-15-28","","null","","images/causal_sequence/saving_a_cat_causal/saving_a_cat_causal_5.png","null","",""
"","","","","","image-button-response","96","432199","0.0-14.0-1.0-1.2","593446F653384B34A2F51222A66D1E62","593446F653384B34A2F51222A66D1E62","d78f1367-c31a-443d-acf6-b0c3ffca713f","93d27ed9-06b1-4109-8acc-030e53ea77d1","{""num_scrambled_semantic"":""8"",""num_scrambled_causal"":""4"",""num_scrambled_schematic"":""4"",""participantId"":""593446F653384B34A2F51222A66D1E62"",""assignmentId"":""d78f1367-c31a-443d-acf6-b0c3ffca713f"",""projectId"":""93d27ed9-06b1-4109-8acc-030e53ea77d1""}","https://test12345.live/?num_scrambled_semantic=8&num_scrambled_causal=4&num_scrambled_schematic=4&participantId=593446F653384B34A2F51222A66D1E62&assignmentId=d78f1367-c31a-443d-acf6-b0c3ffca713f&projectId=93d27ed9-06b1-4109-8acc-030e53ea77d1","593446F653384B34A2F51222A66D1E62-2025-05-14-15-15-28","","1055","","images/causal_sequence/saving_a_cat_causal/saving_a_cat_causal_5.png","0","",""
"","","","","","image-button-response","97","434011","0.0-14.0-1.0-2.2","593446F653384B34A2F51222A66D1E62","593446F653384B34A2F51222A66D1E62","d78f1367-c31a-443d-acf6-b0c3ffca713f","93d27ed9-06b1-4109-8acc-030e53ea77d1","{""num_scrambled_semantic"":""8"",""num_scrambled_causal"":""4"",""num_scrambled_schematic"":""4"",""participantId"":""593446F653384B34A2F51222A66D1E62"",""assignmentId"":""d78f1367-c31a-443d-acf6-b0c3ffca713f"",""projectId"":""93d27ed9-06b1-4109-8acc-030e53ea77d1""}","https://test12345.live/?num_scrambled_semantic=8&num_scrambled_causal=4&num_scrambled_schematic=4&participantId=593446F653384B34A2F51222A66D1E62&assignmentId=d78f1367-c31a-443d-acf6-b0c3ffca713f&projectId=93d27ed9-06b1-4109-8acc-030e53ea77d1","593446F653384B34A2F51222A66D1E62-2025-05-14-15-15-28","","null","","[]","null","",""
"","","","","","image-button-response","98","438526","0.0-14.0-1.0-0.3","593446F653384B34A2F51222A66D1E62","593446F653384B34A2F51222A66D1E62","d78f1367-c31a-443d-acf6-b0c3ffca713f","93d27ed9-06b1-4109-8acc-030e53ea77d1","{""num_scrambled_semantic"":""8"",""num_scrambled_causal"":""4"",""num_scrambled_schematic"":""4"",""participantId"":""593446F653384B34A2F51222A66D1E62"",""assignmentId"":""d78f1367-c31a-443d-acf6-b0c3ffca713f"",""projectId"":""93d27ed9-06b1-4109-8acc-030e53ea77d1""}","https://test12345.live/?num_scrambled_semantic=8&num_scrambled_causal=4&num_scrambled_schematic=4&participantId=593446F653384B34A2F51222A66D1E62&assignmentId=d78f1367-c31a-443d-acf6-b0c3ffca713f&projectId=93d27ed9-06b1-4109-8acc-030e53ea77d1","593446F653384B34A2F51222A66D1E62-2025-05-14-15-15-28","","null","","images/causal_sequence/saving_a_cat_causal/saving_a_cat_causal_7.png","null","",""
"","","","","","image-button-response","99","439335","0.0-14.0-1.0-1.3","593446F653384B34A2F51222A66D1E62","593446F653384B34A2F51222A66D1E62","d78f1367-c31a-443d-acf6-b0c3ffca713f","93d27ed9-06b1-4109-8acc-030e53ea77d1","{""num_scrambled_semantic"":""8"",""num_scrambled_causal"":""4"",""num_scrambled_schematic"":""4"",""participantId"":""593446F653384B34A2F51222A66D1E62"",""assignmentId"":""d78f1367-c31a-443d-acf6-b0c3ffca713f"",""projectId"":""93d27ed9-06b1-4109-8acc-030e53ea77d1""}","https://test12345.live/?num_scrambled_semantic=8&num_scrambled_causal=4&num_scrambled_schematic=4&participantId=593446F653384B34A2F51222A66D1E62&assignmentId=d78f1367-c31a-443d-acf6-b0c3ffca713f&projectId=93d27ed9-06b1-4109-8acc-030e53ea77d1","593446F653384B34A2F51222A66D1E62-2025-05-14-15-15-28","","808","","images/causal_sequence/saving_a_cat_causal/saving_a_cat_causal_7.png","0","",""
"","","","","","image-button-response","100","441145","0.0-14.0-1.0-2.3","593446F653384B34A2F51222A66D1E62","593446F653384B34A2F51222A66D1E62","d78f1367-c31a-443d-acf6-b0c3ffca713f","93d27ed9-06b1-4109-8acc-030e53ea77d1","{""num_scrambled_semantic"":""8"",""num_scrambled_causal"":""4"",""num_scrambled_schematic"":""4"",""participantId"":""593446F653384B34A2F51222A66D1E62"",""assignmentId"":""d78f1367-c31a-443d-acf6-b0c3ffca713f"",""projectId"":""93d27ed9-06b1-4109-8acc-030e53ea77d1""}","https://test12345.live/?num_scrambled_semantic=8&num_scrambled_causal=4&num_scrambled_schematic=4&participantId=593446F653384B34A2F51222A66D1E62&assignmentId=d78f1367-c31a-443d-acf6-b0c3ffca713f&projectId=93d27ed9-06b1-4109-8acc-030e53ea77d1","593446F653384B34A2F51222A66D1E62-2025-05-14-15-15-28","","null","","[]","null","",""
"","","","","","image-button-response","101","445651","0.0-14.0-1.0-0.4","593446F653384B34A2F51222A66D1E62","593446F653384B34A2F51222A66D1E62","d78f1367-c31a-443d-acf6-b0c3ffca713f","93d27ed9-06b1-4109-8acc-030e53ea77d1","{""num_scrambled_semantic"":""8"",""num_scrambled_causal"":""4"",""num_scrambled_schematic"":""4"",""participantId"":""593446F653384B34A2F51222A66D1E62"",""assignmentId"":""d78f1367-c31a-443d-acf6-b0c3ffca713f"",""projectId"":""93d27ed9-06b1-4109-8acc-030e53ea77d1""}","https://test12345.live/?num_scrambled_semantic=8&num_scrambled_causal=4&num_scrambled_schematic=4&participantId=593446F653384B34A2F51222A66D1E62&assignmentId=d78f1367-c31a-443d-acf6-b0c3ffca713f&projectId=93d27ed9-06b1-4109-8acc-030e53ea77d1","593446F653384B34A2F51222A66D1E62-2025-05-14-15-15-28","","null","","images/causal_sequence/saving_a_cat_causal/saving_a_cat_causal_6.png","null","",""
"","","","","","image-button-response","102","447757","0.0-14.0-1.0-1.4","593446F653384B34A2F51222A66D1E62","593446F653384B34A2F51222A66D1E62","d78f1367-c31a-443d-acf6-b0c3ffca713f","93d27ed9-06b1-4109-8acc-030e53ea77d1","{""num_scrambled_semantic"":""8"",""num_scrambled_causal"":""4"",""num_scrambled_schematic"":""4"",""participantId"":""593446F653384B34A2F51222A66D1E62"",""assignmentId"":""d78f1367-c31a-443d-acf6-b0c3ffca713f"",""projectId"":""93d27ed9-06b1-4109-8acc-030e53ea77d1""}","https://test12345.live/?num_scrambled_semantic=8&num_scrambled_causal=4&num_scrambled_schematic=4&participantId=593446F653384B34A2F51222A66D1E62&assignmentId=d78f1367-c31a-443d-acf6-b0c3ffca713f&projectId=93d27ed9-06b1-4109-8acc-030e53ea77d1","593446F653384B34A2F51222A66D1E62-2025-05-14-15-15-28","","2104","","images/causal_sequence/saving_a_cat_causal/saving_a_cat_causal_6.png","0","",""
"","","","","","image-button-response","103","449565","0.0-14.0-1.0-2.4","593446F653384B34A2F51222A66D1E62","593446F653384B34A2F51222A66D1E62","d78f1367-c31a-443d-acf6-b0c3ffca713f","93d27ed9-06b1-4109-8acc-030e53ea77d1","{""num_scrambled_semantic"":""8"",""num_scrambled_causal"":""4"",""num_scrambled_schematic"":""4"",""participantId"":""593446F653384B34A2F51222A66D1E62"",""assignmentId"":""d78f1367-c31a-443d-acf6-b0c3ffca713f"",""projectId"":""93d27ed9-06b1-4109-8acc-030e53ea77d1""}","https://test12345.live/?num_scrambled_semantic=8&num_scrambled_causal=4&num_scrambled_schematic=4&participantId=593446F653384B34A2F51222A66D1E62&assignmentId=d78f1367-c31a-443d-acf6-b0c3ffca713f&projectId=93d27ed9-06b1-4109-8acc-030e53ea77d1","593446F653384B34A2F51222A66D1E62-2025-05-14-15-15-28","","null","","[]","null","",""
"","","","","","image-button-response","104","454079","0.0-14.0-1.0-0.5","593446F653384B34A2F51222A66D1E62","593446F653384B34A2F51222A66D1E62","d78f1367-c31a-443d-acf6-b0c3ffca713f","93d27ed9-06b1-4109-8acc-030e53ea77d1","{""num_scrambled_semantic"":""8"",""num_scrambled_causal"":""4"",""num_scrambled_schematic"":""4"",""participantId"":""593446F653384B34A2F51222A66D1E62"",""assignmentId"":""d78f1367-c31a-443d-acf6-b0c3ffca713f"",""projectId"":""93d27ed9-06b1-4109-8acc-030e53ea77d1""}","https://test12345.live/?num_scrambled_semantic=8&num_scrambled_causal=4&num_scrambled_schematic=4&participantId=593446F653384B34A2F51222A66D1E62&assignmentId=d78f1367-c31a-443d-acf6-b0c3ffca713f&projectId=93d27ed9-06b1-4109-8acc-030e53ea77d1","593446F653384B34A2F51222A66D1E62-2025-05-14-15-15-28","","null","","images/causal_sequence/saving_a_cat_causal/saving_a_cat_causal_8.png","null","",""
"","","","","","image-button-response","105","454847","0.0-14.0-1.0-1.5","593446F653384B34A2F51222A66D1E62","593446F653384B34A2F51222A66D1E62","d78f1367-c31a-443d-acf6-b0c3ffca713f","93d27ed9-06b1-4109-8acc-030e53ea77d1","{""num_scrambled_semantic"":""8"",""num_scrambled_causal"":""4"",""num_scrambled_schematic"":""4"",""participantId"":""593446F653384B34A2F51222A66D1E62"",""assignmentId"":""d78f1367-c31a-443d-acf6-b0c3ffca713f"",""projectId"":""93d27ed9-06b1-4109-8acc-030e53ea77d1""}","https://test12345.live/?num_scrambled_semantic=8&num_scrambled_causal=4&num_scrambled_schematic=4&participantId=593446F653384B34A2F51222A66D1E62&assignmentId=d78f1367-c31a-443d-acf6-b0c3ffca713f&projectId=93d27ed9-06b1-4109-8acc-030e53ea77d1","593446F653384B34A2F51222A66D1E62-2025-05-14-15-15-28","","766","","images/causal_sequence/saving_a_cat_causal/saving_a_cat_causal_8.png","0","",""
"","","","","","image-button-response","106","456655","0.0-14.0-1.0-2.5","593446F653384B34A2F51222A66D1E62","593446F653384B34A2F51222A66D1E62","d78f1367-c31a-443d-acf6-b0c3ffca713f","93d27ed9-06b1-4109-8acc-030e53ea77d1","{""num_scrambled_semantic"":""8"",""num_scrambled_causal"":""4"",""num_scrambled_schematic"":""4"",""participantId"":""593446F653384B34A2F51222A66D1E62"",""assignmentId"":""d78f1367-c31a-443d-acf6-b0c3ffca713f"",""projectId"":""93d27ed9-06b1-4109-8acc-030e53ea77d1""}","https://test12345.live/?num_scrambled_semantic=8&num_scrambled_causal=4&num_scrambled_schematic=4&participantId=593446F653384B34A2F51222A66D1E62&assignmentId=d78f1367-c31a-443d-acf6-b0c3ffca713f&projectId=93d27ed9-06b1-4109-8acc-030e53ea77d1","593446F653384B34A2F51222A66D1E62-2025-05-14-15-15-28","","null","","[]","null","",""
"","","","","","image-button-response","107","461167","0.0-14.0-1.0-0.6","593446F653384B34A2F51222A66D1E62","593446F653384B34A2F51222A66D1E62","d78f1367-c31a-443d-acf6-b0c3ffca713f","93d27ed9-06b1-4109-8acc-030e53ea77d1","{""num_scrambled_semantic"":""8"",""num_scrambled_causal"":""4"",""num_scrambled_schematic"":""4"",""participantId"":""593446F653384B34A2F51222A66D1E62"",""assignmentId"":""d78f1367-c31a-443d-acf6-b0c3ffca713f"",""projectId"":""93d27ed9-06b1-4109-8acc-030e53ea77d1""}","https://test12345.live/?num_scrambled_semantic=8&num_scrambled_causal=4&num_scrambled_schematic=4&participantId=593446F653384B34A2F51222A66D1E62&assignmentId=d78f1367-c31a-443d-acf6-b0c3ffca713f&projectId=93d27ed9-06b1-4109-8acc-030e53ea77d1","593446F653384B34A2F51222A66D1E62-2025-05-14-15-15-28","","null","","images/causal_sequence/saving_a_cat_causal/saving_a_cat_causal_4.png","null","",""
"","","","","","image-button-response","108","463466","0.0-14.0-1.0-1.6","593446F653384B34A2F51222A66D1E62","593446F653384B34A2F51222A66D1E62","d78f1367-c31a-443d-acf6-b0c3ffca713f","93d27ed9-06b1-4109-8acc-030e53ea77d1","{""num_scrambled_semantic"":""8"",""num_scrambled_causal"":""4"",""num_scrambled_schematic"":""4"",""participantId"":""593446F653384B34A2F51222A66D1E62"",""assignmentId"":""d78f1367-c31a-443d-acf6-b0c3ffca713f"",""projectId"":""93d27ed9-06b1-4109-8acc-030e53ea77d1""}","https://test12345.live/?num_scrambled_semantic=8&num_scrambled_causal=4&num_scrambled_schematic=4&participantId=593446F653384B34A2F51222A66D1E62&assignmentId=d78f1367-c31a-443d-acf6-b0c3ffca713f&projectId=93d27ed9-06b1-4109-8acc-030e53ea77d1","593446F653384B34A2F51222A66D1E62-2025-05-14-15-15-28","","2297","","images/causal_sequence/saving_a_cat_causal/saving_a_cat_causal_4.png","0","",""
"","","","","","image-button-response","109","465274","0.0-14.0-1.0-2.6","593446F653384B34A2F51222A66D1E62","593446F653384B34A2F51222A66D1E62","d78f1367-c31a-443d-acf6-b0c3ffca713f","93d27ed9-06b1-4109-8acc-030e53ea77d1","{""num_scrambled_semantic"":""8"",""num_scrambled_causal"":""4"",""num_scrambled_schematic"":""4"",""participantId"":""593446F653384B34A2F51222A66D1E62"",""assignmentId"":""d78f1367-c31a-443d-acf6-b0c3ffca713f"",""projectId"":""93d27ed9-06b1-4109-8acc-030e53ea77d1""}","https://test12345.live/?num_scrambled_semantic=8&num_scrambled_causal=4&num_scrambled_schematic=4&participantId=593446F653384B34A2F51222A66D1E62&assignmentId=d78f1367-c31a-443d-acf6-b0c3ffca713f&projectId=93d27ed9-06b1-4109-8acc-030e53ea77d1","593446F653384B34A2F51222A66D1E62-2025-05-14-15-15-28","","null","","[]","null","",""
"","","","","","image-button-response","110","469787","0.0-14.0-1.0-0.7","593446F653384B34A2F51222A66D1E62","593446F653384B34A2F51222A66D1E62","d78f1367-c31a-443d-acf6-b0c3ffca713f","93d27ed9-06b1-4109-8acc-030e53ea77d1","{""num_scrambled_semantic"":""8"",""num_scrambled_causal"":""4"",""num_scrambled_schematic"":""4"",""participantId"":""593446F653384B34A2F51222A66D1E62"",""assignmentId"":""d78f1367-c31a-443d-acf6-b0c3ffca713f"",""projectId"":""93d27ed9-06b1-4109-8acc-030e53ea77d1""}","https://test12345.live/?num_scrambled_semantic=8&num_scrambled_causal=4&num_scrambled_schematic=4&participantId=593446F653384B34A2F51222A66D1E62&assignmentId=d78f1367-c31a-443d-acf6-b0c3ffca713f&projectId=93d27ed9-06b1-4109-8acc-030e53ea77d1","593446F653384B34A2F51222A66D1E62-2025-05-14-15-15-28","","null","","images/causal_sequence/saving_a_cat_causal/saving_a_cat_causal_9.png","null","",""
"","","","","","image-button-response","111","470717","0.0-14.0-1.0-1.7","593446F653384B34A2F51222A66D1E62","593446F653384B34A2F51222A66D1E62","d78f1367-c31a-443d-acf6-b0c3ffca713f","93d27ed9-06b1-4109-8acc-030e53ea77d1","{""num_scrambled_semantic"":""8"",""num_scrambled_causal"":""4"",""num_scrambled_schematic"":""4"",""participantId"":""593446F653384B34A2F51222A66D1E62"",""assignmentId"":""d78f1367-c31a-443d-acf6-b0c3ffca713f"",""projectId"":""93d27ed9-06b1-4109-8acc-030e53ea77d1""}","https://test12345.live/?num_scrambled_semantic=8&num_scrambled_causal=4&num_scrambled_schematic=4&participantId=593446F653384B34A2F51222A66D1E62&assignmentId=d78f1367-c31a-443d-acf6-b0c3ffca713f&projectId=93d27ed9-06b1-4109-8acc-030e53ea77d1","593446F653384B34A2F51222A66D1E62-2025-05-14-15-15-28","","929","","images/causal_sequence/saving_a_cat_causal/saving_a_cat_causal_9.png","0","",""
"","","","","","image-button-response","112","472525","0.0-14.0-1.0-2.7","593446F653384B34A2F51222A66D1E62","593446F653384B34A2F51222A66D1E62","d78f1367-c31a-443d-acf6-b0c3ffca713f","93d27ed9-06b1-4109-8acc-030e53ea77d1","{""num_scrambled_semantic"":""8"",""num_scrambled_causal"":""4"",""num_scrambled_schematic"":""4"",""participantId"":""593446F653384B34A2F51222A66D1E62"",""assignmentId"":""d78f1367-c31a-443d-acf6-b0c3ffca713f"",""projectId"":""93d27ed9-06b1-4109-8acc-030e53ea77d1""}","https://test12345.live/?num_scrambled_semantic=8&num_scrambled_causal=4&num_scrambled_schematic=4&participantId=593446F653384B34A2F51222A66D1E62&assignmentId=d78f1367-c31a-443d-acf6-b0c3ffca713f&projectId=93d27ed9-06b1-4109-8acc-030e53ea77d1","593446F653384B34A2F51222A66D1E62-2025-05-14-15-15-28","","null","","[]","null","",""
"","","","","","image-button-response","113","477040","0.0-14.0-1.0-0.8","593446F653384B34A2F51222A66D1E62","593446F653384B34A2F51222A66D1E62","d78f1367-c31a-443d-acf6-b0c3ffca713f","93d27ed9-06b1-4109-8acc-030e53ea77d1","{""num_scrambled_semantic"":""8"",""num_scrambled_causal"":""4"",""num_scrambled_schematic"":""4"",""participantId"":""593446F653384B34A2F51222A66D1E62"",""assignmentId"":""d78f1367-c31a-443d-acf6-b0c3ffca713f"",""projectId"":""93d27ed9-06b1-4109-8acc-030e53ea77d1""}","https://test12345.live/?num_scrambled_semantic=8&num_scrambled_causal=4&num_scrambled_schematic=4&participantId=593446F653384B34A2F51222A66D1E62&assignmentId=d78f1367-c31a-443d-acf6-b0c3ffca713f&projectId=93d27ed9-06b1-4109-8acc-030e53ea77d1","593446F653384B34A2F51222A66D1E62-2025-05-14-15-15-28","","null","","images/causal_sequence/saving_a_cat_causal/saving_a_cat_causal_2.png","null","",""
