"success","timeout","failed_images","failed_audio","failed_video","trial_type","trial_index","time_elapsed","internal_node_id","subject","subject_id","study_id","session_id","urlvar","current_url","audio_id","view_history","rt","device_id","stimulus","response","estimated_stimulus_onset","seq_name"
"true","false","[]","[]","[]","preload","0","897","0.0-0.0","594C1B37809840A7AB34C9801D7ABA82","594C1B37809840A7AB34C9801D7ABA82","f0b84b72-50ab-4bbf-9a82-86432b9d654e","051c06f1-75cc-4548-856d-4923ddaba0dc","{""num_scrambled_semantic"":""8"",""num_scrambled_causal"":""4"",""num_scrambled_schematic"":""4"",""participantId"":""594C1B37809840A7AB34C9801D7ABA82"",""assignmentId"":""f0b84b72-50ab-4bbf-9a82-86432b9d654e"",""projectId"":""051c06f1-75cc-4548-856d-4923ddaba0dc""}","https://test12345.live/?num_scrambled_semantic=8&num_scrambled_causal=4&num_scrambled_schematic=4&participantId=594C1B37809840A7AB34C9801D7ABA82&assignmentId=f0b84b72-50ab-4bbf-9a82-86432b9d654e&projectId=051c06f1-75cc-4548-856d-4923ddaba0dc","594C1B37809840A7AB34C9801D7ABA82-2025-05-15-18-44-02","","","","","","",""
"","","","","","instructions","1","8730","0.0-1.0","594C1B37809840A7AB34C9801D7ABA82","594C1B37809840A7AB34C9801D7ABA82","f0b84b72-50ab-4bbf-9a82-86432b9d654e","051c06f1-75cc-4548-856d-4923ddaba0dc","{""num_scrambled_semantic"":""8"",""num_scrambled_causal"":""4"",""num_scrambled_schematic"":""4"",""participantId"":""594C1B37809840A7AB34C9801D7ABA82"",""assignmentId"":""f0b84b72-50ab-4bbf-9a82-86432b9d654e"",""projectId"":""051c06f1-75cc-4548-856d-4923ddaba0dc""}","https://test12345.live/?num_scrambled_semantic=8&num_scrambled_causal=4&num_scrambled_schematic=4&participantId=594C1B37809840A7AB34C9801D7ABA82&assignmentId=f0b84b72-50ab-4bbf-9a82-86432b9d654e&projectId=051c06f1-75cc-4548-856d-4923ddaba0dc","594C1B37809840A7AB34C9801D7ABA82-2025-05-15-18-44-02","[{""page_index"":0,""viewing_time"":7832}]","7832","","","","",""
"","","","","","instructions","2","11850","0.0-2.0","594C1B37809840A7AB34C9801D7ABA82","594C1B37809840A7AB34C9801D7ABA82","f0b84b72-50ab-4bbf-9a82-86432b9d654e","051c06f1-75cc-4548-856d-4923ddaba0dc","{""num_scrambled_semantic"":""8"",""num_scrambled_causal"":""4"",""num_scrambled_schematic"":""4"",""participantId"":""594C1B37809840A7AB34C9801D7ABA82"",""assignmentId"":""f0b84b72-50ab-4bbf-9a82-86432b9d654e"",""projectId"":""051c06f1-75cc-4548-856d-4923ddaba0dc""}","https://test12345.live/?num_scrambled_semantic=8&num_scrambled_causal=4&num_scrambled_schematic=4&participantId=594C1B37809840A7AB34C9801D7ABA82&assignmentId=f0b84b72-50ab-4bbf-9a82-86432b9d654e&projectId=051c06f1-75cc-4548-856d-4923ddaba0dc","594C1B37809840A7AB34C9801D7ABA82-2025-05-15-18-44-02","[{""page_index"":0,""viewing_time"":3120}]","3120","","","","",""
"true","","","","","fullscreen","3","13895","0.0-3.0","594C1B37809840A7AB34C9801D7ABA82","594C1B37809840A7AB34C9801D7ABA82","f0b84b72-50ab-4bbf-9a82-86432b9d654e","051c06f1-75cc-4548-856d-4923ddaba0dc","{""num_scrambled_semantic"":""8"",""num_scrambled_causal"":""4"",""num_scrambled_schematic"":""4"",""participantId"":""594C1B37809840A7AB34C9801D7ABA82"",""assignmentId"":""f0b84b72-50ab-4bbf-9a82-86432b9d654e"",""projectId"":""051c06f1-75cc-4548-856d-4923ddaba0dc""}","https://test12345.live/?num_scrambled_semantic=8&num_scrambled_causal=4&num_scrambled_schematic=4&participantId=594C1B37809840A7AB34C9801D7ABA82&assignmentId=f0b84b72-50ab-4bbf-9a82-86432b9d654e&projectId=051c06f1-75cc-4548-856d-4923ddaba0dc","594C1B37809840A7AB34C9801D7ABA82-2025-05-15-18-44-02","","1044","","","","",""
"","","","","","initialize-microphone","4","18558","0.0-4.0-0.0","594C1B37809840A7AB34C9801D7ABA82","594C1B37809840A7AB34C9801D7ABA82","f0b84b72-50ab-4bbf-9a82-86432b9d654e","051c06f1-75cc-4548-856d-4923ddaba0dc","{""num_scrambled_semantic"":""8"",""num_scrambled_causal"":""4"",""num_scrambled_schematic"":""4"",""participantId"":""594C1B37809840A7AB34C9801D7ABA82"",""assignmentId"":""f0b84b72-50ab-4bbf-9a82-86432b9d654e"",""projectId"":""051c06f1-75cc-4548-856d-4923ddaba0dc""}","https://test12345.live/?num_scrambled_semantic=8&num_scrambled_causal=4&num_scrambled_schematic=4&participantId=594C1B37809840A7AB34C9801D7ABA82&assignmentId=f0b84b72-50ab-4bbf-9a82-86432b9d654e&projectId=051c06f1-75cc-4548-856d-4923ddaba0dc","594C1B37809840A7AB34C9801D7ABA82-2025-05-15-18-44-02","","","4e6375301127a973dfaf5ba6f0ab91656b1f45e53e3fec1d8444c5c6cfc0a7c1","","","",""
"","","","","","html-audio-response","5","28199","0.0-4.0-1.0","594C1B37809840A7AB34C9801D7ABA82","594C1B37809840A7AB34C9801D7ABA82","f0b84b72-50ab-4bbf-9a82-86432b9d654e","051c06f1-75cc-4548-856d-4923ddaba0dc","{""num_scrambled_semantic"":""8"",""num_scrambled_causal"":""4"",""num_scrambled_schematic"":""4"",""participantId"":""594C1B37809840A7AB34C9801D7ABA82"",""assignmentId"":""f0b84b72-50ab-4bbf-9a82-86432b9d654e"",""projectId"":""051c06f1-75cc-4548-856d-4923ddaba0dc""}","https://test12345.live/?num_scrambled_semantic=8&num_scrambled_causal=4&num_scrambled_schematic=4&participantId=594C1B37809840A7AB34C9801D7ABA82&assignmentId=f0b84b72-50ab-4bbf-9a82-86432b9d654e&projectId=051c06f1-75cc-4548-856d-4923ddaba0dc","594C1B37809840A7AB34C9801D7ABA82-2025-05-15-18-44-02","","2448","","<span style=""color: red; font-size: 24px""> NOW RECORDING</span>
        <p>Please test Microphone</p>","","3",""
"","","","","","html-button-response","6","29394","0.0-4.0-2.0","594C1B37809840A7AB34C9801D7ABA82","594C1B37809840A7AB34C9801D7ABA82","f0b84b72-50ab-4bbf-9a82-86432b9d654e","051c06f1-75cc-4548-856d-4923ddaba0dc","{""num_scrambled_semantic"":""8"",""num_scrambled_causal"":""4"",""num_scrambled_schematic"":""4"",""participantId"":""594C1B37809840A7AB34C9801D7ABA82"",""assignmentId"":""f0b84b72-50ab-4bbf-9a82-86432b9d654e"",""projectId"":""051c06f1-75cc-4548-856d-4923ddaba0dc""}","https://test12345.live/?num_scrambled_semantic=8&num_scrambled_causal=4&num_scrambled_schematic=4&participantId=594C1B37809840A7AB34C9801D7ABA82&assignmentId=f0b84b72-50ab-4bbf-9a82-86432b9d654e&projectId=051c06f1-75cc-4548-856d-4923ddaba0dc","594C1B37809840A7AB34C9801D7ABA82-2025-05-15-18-44-02","","1194","","<p style=""font-size:48px; color:red;"">Is Microphone OK?</p>","1","",""
"","","","","","instructions","7","36059","0.0-5.0","594C1B37809840A7AB34C9801D7ABA82","594C1B37809840A7AB34C9801D7ABA82","f0b84b72-50ab-4bbf-9a82-86432b9d654e","051c06f1-75cc-4548-856d-4923ddaba0dc","{""num_scrambled_semantic"":""8"",""num_scrambled_causal"":""4"",""num_scrambled_schematic"":""4"",""participantId"":""594C1B37809840A7AB34C9801D7ABA82"",""assignmentId"":""f0b84b72-50ab-4bbf-9a82-86432b9d654e"",""projectId"":""051c06f1-75cc-4548-856d-4923ddaba0dc""}","https://test12345.live/?num_scrambled_semantic=8&num_scrambled_causal=4&num_scrambled_schematic=4&participantId=594C1B37809840A7AB34C9801D7ABA82&assignmentId=f0b84b72-50ab-4bbf-9a82-86432b9d654e&projectId=051c06f1-75cc-4548-856d-4923ddaba0dc","594C1B37809840A7AB34C9801D7ABA82-2025-05-15-18-44-02","[{""page_index"":0,""viewing_time"":3294},{""page_index"":1,""viewing_time"":3371}]","6665","","","","",""
"","","","","","image-button-response","8","42069","0.0-6.0-0.0","594C1B37809840A7AB34C9801D7ABA82","594C1B37809840A7AB34C9801D7ABA82","f0b84b72-50ab-4bbf-9a82-86432b9d654e","051c06f1-75cc-4548-856d-4923ddaba0dc","{""num_scrambled_semantic"":""8"",""num_scrambled_causal"":""4"",""num_scrambled_schematic"":""4"",""participantId"":""594C1B37809840A7AB34C9801D7ABA82"",""assignmentId"":""f0b84b72-50ab-4bbf-9a82-86432b9d654e"",""projectId"":""051c06f1-75cc-4548-856d-4923ddaba0dc""}","https://test12345.live/?num_scrambled_semantic=8&num_scrambled_causal=4&num_scrambled_schematic=4&participantId=594C1B37809840A7AB34C9801D7ABA82&assignmentId=f0b84b72-50ab-4bbf-9a82-86432b9d654e&projectId=051c06f1-75cc-4548-856d-4923ddaba0dc","594C1B37809840A7AB34C9801D7ABA82-2025-05-15-18-44-02","","null","","images/instructions/movie_0.png","null","",""
"","","","","","image-button-response","9","46575","0.0-6.0-1.0-0.0","594C1B37809840A7AB34C9801D7ABA82","594C1B37809840A7AB34C9801D7ABA82","f0b84b72-50ab-4bbf-9a82-86432b9d654e","051c06f1-75cc-4548-856d-4923ddaba0dc","{""num_scrambled_semantic"":""8"",""num_scrambled_causal"":""4"",""num_scrambled_schematic"":""4"",""participantId"":""594C1B37809840A7AB34C9801D7ABA82"",""assignmentId"":""f0b84b72-50ab-4bbf-9a82-86432b9d654e"",""projectId"":""051c06f1-75cc-4548-856d-4923ddaba0dc""}","https://test12345.live/?num_scrambled_semantic=8&num_scrambled_causal=4&num_scrambled_schematic=4&participantId=594C1B37809840A7AB34C9801D7ABA82&assignmentId=f0b84b72-50ab-4bbf-9a82-86432b9d654e&projectId=051c06f1-75cc-4548-856d-4923ddaba0dc","594C1B37809840A7AB34C9801D7ABA82-2025-05-15-18-44-02","","null","","images/instructions/movie_1.png","null","",""
"","","","","","image-button-response","10","49062","0.0-6.0-1.0-1.0","594C1B37809840A7AB34C9801D7ABA82","594C1B37809840A7AB34C9801D7ABA82","f0b84b72-50ab-4bbf-9a82-86432b9d654e","051c06f1-75cc-4548-856d-4923ddaba0dc","{""num_scrambled_semantic"":""8"",""num_scrambled_causal"":""4"",""num_scrambled_schematic"":""4"",""participantId"":""594C1B37809840A7AB34C9801D7ABA82"",""assignmentId"":""f0b84b72-50ab-4bbf-9a82-86432b9d654e"",""projectId"":""051c06f1-75cc-4548-856d-4923ddaba0dc""}","https://test12345.live/?num_scrambled_semantic=8&num_scrambled_causal=4&num_scrambled_schematic=4&participantId=594C1B37809840A7AB34C9801D7ABA82&assignmentId=f0b84b72-50ab-4bbf-9a82-86432b9d654e&projectId=051c06f1-75cc-4548-856d-4923ddaba0dc","594C1B37809840A7AB34C9801D7ABA82-2025-05-15-18-44-02","","2487","","images/instructions/movie_1.png","0","",""
"","","","","","image-button-response","11","50866","0.0-6.0-1.0-2.0","594C1B37809840A7AB34C9801D7ABA82","594C1B37809840A7AB34C9801D7ABA82","f0b84b72-50ab-4bbf-9a82-86432b9d654e","051c06f1-75cc-4548-856d-4923ddaba0dc","{""num_scrambled_semantic"":""8"",""num_scrambled_causal"":""4"",""num_scrambled_schematic"":""4"",""participantId"":""594C1B37809840A7AB34C9801D7ABA82"",""assignmentId"":""f0b84b72-50ab-4bbf-9a82-86432b9d654e"",""projectId"":""051c06f1-75cc-4548-856d-4923ddaba0dc""}","https://test12345.live/?num_scrambled_semantic=8&num_scrambled_causal=4&num_scrambled_schematic=4&participantId=594C1B37809840A7AB34C9801D7ABA82&assignmentId=f0b84b72-50ab-4bbf-9a82-86432b9d654e&projectId=051c06f1-75cc-4548-856d-4923ddaba0dc","594C1B37809840A7AB34C9801D7ABA82-2025-05-15-18-44-02","","null","","[]","null","",""
"","","","","","image-button-response","12","55367","0.0-6.0-1.0-0.1","594C1B37809840A7AB34C9801D7ABA82","594C1B37809840A7AB34C9801D7ABA82","f0b84b72-50ab-4bbf-9a82-86432b9d654e","051c06f1-75cc-4548-856d-4923ddaba0dc","{""num_scrambled_semantic"":""8"",""num_scrambled_causal"":""4"",""num_scrambled_schematic"":""4"",""participantId"":""594C1B37809840A7AB34C9801D7ABA82"",""assignmentId"":""f0b84b72-50ab-4bbf-9a82-86432b9d654e"",""projectId"":""051c06f1-75cc-4548-856d-4923ddaba0dc""}","https://test12345.live/?num_scrambled_semantic=8&num_scrambled_causal=4&num_scrambled_schematic=4&participantId=594C1B37809840A7AB34C9801D7ABA82&assignmentId=f0b84b72-50ab-4bbf-9a82-86432b9d654e&projectId=051c06f1-75cc-4548-856d-4923ddaba0dc","594C1B37809840A7AB34C9801D7ABA82-2025-05-15-18-44-02","","null","","images/instructions/movie_2.png","null","",""
"","","","","","image-button-response","13","58546","0.0-6.0-1.0-1.1","594C1B37809840A7AB34C9801D7ABA82","594C1B37809840A7AB34C9801D7ABA82","f0b84b72-50ab-4bbf-9a82-86432b9d654e","051c06f1-75cc-4548-856d-4923ddaba0dc","{""num_scrambled_semantic"":""8"",""num_scrambled_causal"":""4"",""num_scrambled_schematic"":""4"",""participantId"":""594C1B37809840A7AB34C9801D7ABA82"",""assignmentId"":""f0b84b72-50ab-4bbf-9a82-86432b9d654e"",""projectId"":""051c06f1-75cc-4548-856d-4923ddaba0dc""}","https://test12345.live/?num_scrambled_semantic=8&num_scrambled_causal=4&num_scrambled_schematic=4&participantId=594C1B37809840A7AB34C9801D7ABA82&assignmentId=f0b84b72-50ab-4bbf-9a82-86432b9d654e&projectId=051c06f1-75cc-4548-856d-4923ddaba0dc","594C1B37809840A7AB34C9801D7ABA82-2025-05-15-18-44-02","","3178","","images/instructions/movie_2.png","1","",""
"","","","","","image-button-response","14","60353","0.0-6.0-1.0-2.1","594C1B37809840A7AB34C9801D7ABA82","594C1B37809840A7AB34C9801D7ABA82","f0b84b72-50ab-4bbf-9a82-86432b9d654e","051c06f1-75cc-4548-856d-4923ddaba0dc","{""num_scrambled_semantic"":""8"",""num_scrambled_causal"":""4"",""num_scrambled_schematic"":""4"",""participantId"":""594C1B37809840A7AB34C9801D7ABA82"",""assignmentId"":""f0b84b72-50ab-4bbf-9a82-86432b9d654e"",""projectId"":""051c06f1-75cc-4548-856d-4923ddaba0dc""}","https://test12345.live/?num_scrambled_semantic=8&num_scrambled_causal=4&num_scrambled_schematic=4&participantId=594C1B37809840A7AB34C9801D7ABA82&assignmentId=f0b84b72-50ab-4bbf-9a82-86432b9d654e&projectId=051c06f1-75cc-4548-856d-4923ddaba0dc","594C1B37809840A7AB34C9801D7ABA82-2025-05-15-18-44-02","","null","","[]","null","",""
"","","","","","image-button-response","15","64860","0.0-6.0-1.0-0.2","594C1B37809840A7AB34C9801D7ABA82","594C1B37809840A7AB34C9801D7ABA82","f0b84b72-50ab-4bbf-9a82-86432b9d654e","051c06f1-75cc-4548-856d-4923ddaba0dc","{""num_scrambled_semantic"":""8"",""num_scrambled_causal"":""4"",""num_scrambled_schematic"":""4"",""participantId"":""594C1B37809840A7AB34C9801D7ABA82"",""assignmentId"":""f0b84b72-50ab-4bbf-9a82-86432b9d654e"",""projectId"":""051c06f1-75cc-4548-856d-4923ddaba0dc""}","https://test12345.live/?num_scrambled_semantic=8&num_scrambled_causal=4&num_scrambled_schematic=4&participantId=594C1B37809840A7AB34C9801D7ABA82&assignmentId=f0b84b72-50ab-4bbf-9a82-86432b9d654e&projectId=051c06f1-75cc-4548-856d-4923ddaba0dc","594C1B37809840A7AB34C9801D7ABA82-2025-05-15-18-44-02","","null","","images/instructions/movie_3.png","null","",""
"","","","","","image-button-response","16","66822","0.0-6.0-1.0-1.2","594C1B37809840A7AB34C9801D7ABA82","594C1B37809840A7AB34C9801D7ABA82","f0b84b72-50ab-4bbf-9a82-86432b9d654e","051c06f1-75cc-4548-856d-4923ddaba0dc","{""num_scrambled_semantic"":""8"",""num_scrambled_causal"":""4"",""num_scrambled_schematic"":""4"",""participantId"":""594C1B37809840A7AB34C9801D7ABA82"",""assignmentId"":""f0b84b72-50ab-4bbf-9a82-86432b9d654e"",""projectId"":""051c06f1-75cc-4548-856d-4923ddaba0dc""}","https://test12345.live/?num_scrambled_semantic=8&num_scrambled_causal=4&num_scrambled_schematic=4&participantId=594C1B37809840A7AB34C9801D7ABA82&assignmentId=f0b84b72-50ab-4bbf-9a82-86432b9d654e&projectId=051c06f1-75cc-4548-856d-4923ddaba0dc","594C1B37809840A7AB34C9801D7ABA82-2025-05-15-18-44-02","","1961","","images/instructions/movie_3.png","0","",""
"","","","","","image-button-response","17","68623","0.0-6.0-1.0-2.2","594C1B37809840A7AB34C9801D7ABA82","594C1B37809840A7AB34C9801D7ABA82","f0b84b72-50ab-4bbf-9a82-86432b9d654e","051c06f1-75cc-4548-856d-4923ddaba0dc","{""num_scrambled_semantic"":""8"",""num_scrambled_causal"":""4"",""num_scrambled_schematic"":""4"",""participantId"":""594C1B37809840A7AB34C9801D7ABA82"",""assignmentId"":""f0b84b72-50ab-4bbf-9a82-86432b9d654e"",""projectId"":""051c06f1-75cc-4548-856d-4923ddaba0dc""}","https://test12345.live/?num_scrambled_semantic=8&num_scrambled_causal=4&num_scrambled_schematic=4&participantId=594C1B37809840A7AB34C9801D7ABA82&assignmentId=f0b84b72-50ab-4bbf-9a82-86432b9d654e&projectId=051c06f1-75cc-4548-856d-4923ddaba0dc","594C1B37809840A7AB34C9801D7ABA82-2025-05-15-18-44-02","","null","","[]","null","",""
"","","","","","image-button-response","18","73130","0.0-6.0-1.0-0.3","594C1B37809840A7AB34C9801D7ABA82","594C1B37809840A7AB34C9801D7ABA82","f0b84b72-50ab-4bbf-9a82-86432b9d654e","051c06f1-75cc-4548-856d-4923ddaba0dc","{""num_scrambled_semantic"":""8"",""num_scrambled_causal"":""4"",""num_scrambled_schematic"":""4"",""participantId"":""594C1B37809840A7AB34C9801D7ABA82"",""assignmentId"":""f0b84b72-50ab-4bbf-9a82-86432b9d654e"",""projectId"":""051c06f1-75cc-4548-856d-4923ddaba0dc""}","https://test12345.live/?num_scrambled_semantic=8&num_scrambled_causal=4&num_scrambled_schematic=4&participantId=594C1B37809840A7AB34C9801D7ABA82&assignmentId=f0b84b72-50ab-4bbf-9a82-86432b9d654e&projectId=051c06f1-75cc-4548-856d-4923ddaba0dc","594C1B37809840A7AB34C9801D7ABA82-2025-05-15-18-44-02","","null","","images/instructions/movie_4.png","null","",""
"","","","","","image-button-response","19","74363","0.0-6.0-1.0-1.3","594C1B37809840A7AB34C9801D7ABA82","594C1B37809840A7AB34C9801D7ABA82","f0b84b72-50ab-4bbf-9a82-86432b9d654e","051c06f1-75cc-4548-856d-4923ddaba0dc","{""num_scrambled_semantic"":""8"",""num_scrambled_causal"":""4"",""num_scrambled_schematic"":""4"",""participantId"":""594C1B37809840A7AB34C9801D7ABA82"",""assignmentId"":""f0b84b72-50ab-4bbf-9a82-86432b9d654e"",""projectId"":""051c06f1-75cc-4548-856d-4923ddaba0dc""}","https://test12345.live/?num_scrambled_semantic=8&num_scrambled_causal=4&num_scrambled_schematic=4&participantId=594C1B37809840A7AB34C9801D7ABA82&assignmentId=f0b84b72-50ab-4bbf-9a82-86432b9d654e&projectId=051c06f1-75cc-4548-856d-4923ddaba0dc","594C1B37809840A7AB34C9801D7ABA82-2025-05-15-18-44-02","","1232","","images/instructions/movie_4.png","0","",""
"","","","","","image-button-response","20","76164","0.0-6.0-1.0-2.3","594C1B37809840A7AB34C9801D7ABA82","594C1B37809840A7AB34C9801D7ABA82","f0b84b72-50ab-4bbf-9a82-86432b9d654e","051c06f1-75cc-4548-856d-4923ddaba0dc","{""num_scrambled_semantic"":""8"",""num_scrambled_causal"":""4"",""num_scrambled_schematic"":""4"",""participantId"":""594C1B37809840A7AB34C9801D7ABA82"",""assignmentId"":""f0b84b72-50ab-4bbf-9a82-86432b9d654e"",""projectId"":""051c06f1-75cc-4548-856d-4923ddaba0dc""}","https://test12345.live/?num_scrambled_semantic=8&num_scrambled_causal=4&num_scrambled_schematic=4&participantId=594C1B37809840A7AB34C9801D7ABA82&assignmentId=f0b84b72-50ab-4bbf-9a82-86432b9d654e&projectId=051c06f1-75cc-4548-856d-4923ddaba0dc","594C1B37809840A7AB34C9801D7ABA82-2025-05-15-18-44-02","","null","","[]","null","",""
"","","","","","instructions","21","82139","0.0-7.0","594C1B37809840A7AB34C9801D7ABA82","594C1B37809840A7AB34C9801D7ABA82","f0b84b72-50ab-4bbf-9a82-86432b9d654e","051c06f1-75cc-4548-856d-4923ddaba0dc","{""num_scrambled_semantic"":""8"",""num_scrambled_causal"":""4"",""num_scrambled_schematic"":""4"",""participantId"":""594C1B37809840A7AB34C9801D7ABA82"",""assignmentId"":""f0b84b72-50ab-4bbf-9a82-86432b9d654e"",""projectId"":""051c06f1-75cc-4548-856d-4923ddaba0dc""}","https://test12345.live/?num_scrambled_semantic=8&num_scrambled_causal=4&num_scrambled_schematic=4&participantId=594C1B37809840A7AB34C9801D7ABA82&assignmentId=f0b84b72-50ab-4bbf-9a82-86432b9d654e&projectId=051c06f1-75cc-4548-856d-4923ddaba0dc","594C1B37809840A7AB34C9801D7ABA82-2025-05-15-18-44-02","[{""page_index"":0,""viewing_time"":4642},{""page_index"":1,""viewing_time"":1332}]","5974","","","","",""
"","","","","","html-audio-response","22","94428","0.0-8.0","594C1B37809840A7AB34C9801D7ABA82","594C1B37809840A7AB34C9801D7ABA82","f0b84b72-50ab-4bbf-9a82-86432b9d654e","051c06f1-75cc-4548-856d-4923ddaba0dc","{""num_scrambled_semantic"":""8"",""num_scrambled_causal"":""4"",""num_scrambled_schematic"":""4"",""participantId"":""594C1B37809840A7AB34C9801D7ABA82"",""assignmentId"":""f0b84b72-50ab-4bbf-9a82-86432b9d654e"",""projectId"":""051c06f1-75cc-4548-856d-4923ddaba0dc""}","https://test12345.live/?num_scrambled_semantic=8&num_scrambled_causal=4&num_scrambled_schematic=4&participantId=594C1B37809840A7AB34C9801D7ABA82&assignmentId=f0b84b72-50ab-4bbf-9a82-86432b9d654e&projectId=051c06f1-75cc-4548-856d-4923ddaba0dc","594C1B37809840A7AB34C9801D7ABA82-2025-05-15-18-44-02","","8564","","[""<span style=\""color: red; font-size: 24px\""> NOW RECORDING</span><p>Please say out loud all the images you saw, as many as you can remember. The images can be said in any order.</p>""]","","1",""
"","","","","","instructions","23","95647","0.0-9.0","594C1B37809840A7AB34C9801D7ABA82","594C1B37809840A7AB34C9801D7ABA82","f0b84b72-50ab-4bbf-9a82-86432b9d654e","051c06f1-75cc-4548-856d-4923ddaba0dc","{""num_scrambled_semantic"":""8"",""num_scrambled_causal"":""4"",""num_scrambled_schematic"":""4"",""participantId"":""594C1B37809840A7AB34C9801D7ABA82"",""assignmentId"":""f0b84b72-50ab-4bbf-9a82-86432b9d654e"",""projectId"":""051c06f1-75cc-4548-856d-4923ddaba0dc""}","https://test12345.live/?num_scrambled_semantic=8&num_scrambled_causal=4&num_scrambled_schematic=4&participantId=594C1B37809840A7AB34C9801D7ABA82&assignmentId=f0b84b72-50ab-4bbf-9a82-86432b9d654e&projectId=051c06f1-75cc-4548-856d-4923ddaba0dc","594C1B37809840A7AB34C9801D7ABA82-2025-05-15-18-44-02","[{""page_index"":0,""viewing_time"":1217}]","1217","","","","",""
"","","","","","image-button-response","24","101651","0.0-10.0-0.0","594C1B37809840A7AB34C9801D7ABA82","594C1B37809840A7AB34C9801D7ABA82","f0b84b72-50ab-4bbf-9a82-86432b9d654e","051c06f1-75cc-4548-856d-4923ddaba0dc","{""num_scrambled_semantic"":""8"",""num_scrambled_causal"":""4"",""num_scrambled_schematic"":""4"",""participantId"":""594C1B37809840A7AB34C9801D7ABA82"",""assignmentId"":""f0b84b72-50ab-4bbf-9a82-86432b9d654e"",""projectId"":""051c06f1-75cc-4548-856d-4923ddaba0dc""}","https://test12345.live/?num_scrambled_semantic=8&num_scrambled_causal=4&num_scrambled_schematic=4&participantId=594C1B37809840A7AB34C9801D7ABA82&assignmentId=f0b84b72-50ab-4bbf-9a82-86432b9d654e&projectId=051c06f1-75cc-4548-856d-4923ddaba0dc","594C1B37809840A7AB34C9801D7ABA82-2025-05-15-18-44-02","","null","","images/causal_sequence/dog_causal/dog_causal_0.png","null","",""
"","","","","","image-button-response","25","106157","0.0-10.0-1.0-0.0","594C1B37809840A7AB34C9801D7ABA82","594C1B37809840A7AB34C9801D7ABA82","f0b84b72-50ab-4bbf-9a82-86432b9d654e","051c06f1-75cc-4548-856d-4923ddaba0dc","{""num_scrambled_semantic"":""8"",""num_scrambled_causal"":""4"",""num_scrambled_schematic"":""4"",""participantId"":""594C1B37809840A7AB34C9801D7ABA82"",""assignmentId"":""f0b84b72-50ab-4bbf-9a82-86432b9d654e"",""projectId"":""051c06f1-75cc-4548-856d-4923ddaba0dc""}","https://test12345.live/?num_scrambled_semantic=8&num_scrambled_causal=4&num_scrambled_schematic=4&participantId=594C1B37809840A7AB34C9801D7ABA82&assignmentId=f0b84b72-50ab-4bbf-9a82-86432b9d654e&projectId=051c06f1-75cc-4548-856d-4923ddaba0dc","594C1B37809840A7AB34C9801D7ABA82-2025-05-15-18-44-02","","null","","images/causal_sequence/dog_causal/dog_causal_5.png","null","",""
"","","","","","image-button-response","26","107637","0.0-10.0-1.0-1.0","594C1B37809840A7AB34C9801D7ABA82","594C1B37809840A7AB34C9801D7ABA82","f0b84b72-50ab-4bbf-9a82-86432b9d654e","051c06f1-75cc-4548-856d-4923ddaba0dc","{""num_scrambled_semantic"":""8"",""num_scrambled_causal"":""4"",""num_scrambled_schematic"":""4"",""participantId"":""594C1B37809840A7AB34C9801D7ABA82"",""assignmentId"":""f0b84b72-50ab-4bbf-9a82-86432b9d654e"",""projectId"":""051c06f1-75cc-4548-856d-4923ddaba0dc""}","https://test12345.live/?num_scrambled_semantic=8&num_scrambled_causal=4&num_scrambled_schematic=4&participantId=594C1B37809840A7AB34C9801D7ABA82&assignmentId=f0b84b72-50ab-4bbf-9a82-86432b9d654e&projectId=051c06f1-75cc-4548-856d-4923ddaba0dc","594C1B37809840A7AB34C9801D7ABA82-2025-05-15-18-44-02","","1479","","images/causal_sequence/dog_causal/dog_causal_5.png","0","",""
"","","","","","image-button-response","27","109439","0.0-10.0-1.0-2.0","594C1B37809840A7AB34C9801D7ABA82","594C1B37809840A7AB34C9801D7ABA82","f0b84b72-50ab-4bbf-9a82-86432b9d654e","051c06f1-75cc-4548-856d-4923ddaba0dc","{""num_scrambled_semantic"":""8"",""num_scrambled_causal"":""4"",""num_scrambled_schematic"":""4"",""participantId"":""594C1B37809840A7AB34C9801D7ABA82"",""assignmentId"":""f0b84b72-50ab-4bbf-9a82-86432b9d654e"",""projectId"":""051c06f1-75cc-4548-856d-4923ddaba0dc""}","https://test12345.live/?num_scrambled_semantic=8&num_scrambled_causal=4&num_scrambled_schematic=4&participantId=594C1B37809840A7AB34C9801D7ABA82&assignmentId=f0b84b72-50ab-4bbf-9a82-86432b9d654e&projectId=051c06f1-75cc-4548-856d-4923ddaba0dc","594C1B37809840A7AB34C9801D7ABA82-2025-05-15-18-44-02","","null","","[]","null","",""
"","","","","","image-button-response","28","113940","0.0-10.0-1.0-0.1","594C1B37809840A7AB34C9801D7ABA82","594C1B37809840A7AB34C9801D7ABA82","f0b84b72-50ab-4bbf-9a82-86432b9d654e","051c06f1-75cc-4548-856d-4923ddaba0dc","{""num_scrambled_semantic"":""8"",""num_scrambled_causal"":""4"",""num_scrambled_schematic"":""4"",""participantId"":""594C1B37809840A7AB34C9801D7ABA82"",""assignmentId"":""f0b84b72-50ab-4bbf-9a82-86432b9d654e"",""projectId"":""051c06f1-75cc-4548-856d-4923ddaba0dc""}","https://test12345.live/?num_scrambled_semantic=8&num_scrambled_causal=4&num_scrambled_schematic=4&participantId=594C1B37809840A7AB34C9801D7ABA82&assignmentId=f0b84b72-50ab-4bbf-9a82-86432b9d654e&projectId=051c06f1-75cc-4548-856d-4923ddaba0dc","594C1B37809840A7AB34C9801D7ABA82-2025-05-15-18-44-02","","null","","images/causal_sequence/dog_causal/dog_causal_4.png","null","",""
"","","","","","image-button-response","29","115383","0.0-10.0-1.0-1.1","594C1B37809840A7AB34C9801D7ABA82","594C1B37809840A7AB34C9801D7ABA82","f0b84b72-50ab-4bbf-9a82-86432b9d654e","051c06f1-75cc-4548-856d-4923ddaba0dc","{""num_scrambled_semantic"":""8"",""num_scrambled_causal"":""4"",""num_scrambled_schematic"":""4"",""participantId"":""594C1B37809840A7AB34C9801D7ABA82"",""assignmentId"":""f0b84b72-50ab-4bbf-9a82-86432b9d654e"",""projectId"":""051c06f1-75cc-4548-856d-4923ddaba0dc""}","https://test12345.live/?num_scrambled_semantic=8&num_scrambled_causal=4&num_scrambled_schematic=4&participantId=594C1B37809840A7AB34C9801D7ABA82&assignmentId=f0b84b72-50ab-4bbf-9a82-86432b9d654e&projectId=051c06f1-75cc-4548-856d-4923ddaba0dc","594C1B37809840A7AB34C9801D7ABA82-2025-05-15-18-44-02","","1441","","images/causal_sequence/dog_causal/dog_causal_4.png","0","",""
"","","","","","image-button-response","30","117185","0.0-10.0-1.0-2.1","594C1B37809840A7AB34C9801D7ABA82","594C1B37809840A7AB34C9801D7ABA82","f0b84b72-50ab-4bbf-9a82-86432b9d654e","051c06f1-75cc-4548-856d-4923ddaba0dc","{""num_scrambled_semantic"":""8"",""num_scrambled_causal"":""4"",""num_scrambled_schematic"":""4"",""participantId"":""594C1B37809840A7AB34C9801D7ABA82"",""assignmentId"":""f0b84b72-50ab-4bbf-9a82-86432b9d654e"",""projectId"":""051c06f1-75cc-4548-856d-4923ddaba0dc""}","https://test12345.live/?num_scrambled_semantic=8&num_scrambled_causal=4&num_scrambled_schematic=4&participantId=594C1B37809840A7AB34C9801D7ABA82&assignmentId=f0b84b72-50ab-4bbf-9a82-86432b9d654e&projectId=051c06f1-75cc-4548-856d-4923ddaba0dc","594C1B37809840A7AB34C9801D7ABA82-2025-05-15-18-44-02","","null","","[]","null","",""
"","","","","","image-button-response","31","121686","0.0-10.0-1.0-0.2","594C1B37809840A7AB34C9801D7ABA82","594C1B37809840A7AB34C9801D7ABA82","f0b84b72-50ab-4bbf-9a82-86432b9d654e","051c06f1-75cc-4548-856d-4923ddaba0dc","{""num_scrambled_semantic"":""8"",""num_scrambled_causal"":""4"",""num_scrambled_schematic"":""4"",""participantId"":""594C1B37809840A7AB34C9801D7ABA82"",""assignmentId"":""f0b84b72-50ab-4bbf-9a82-86432b9d654e"",""projectId"":""051c06f1-75cc-4548-856d-4923ddaba0dc""}","https://test12345.live/?num_scrambled_semantic=8&num_scrambled_causal=4&num_scrambled_schematic=4&participantId=594C1B37809840A7AB34C9801D7ABA82&assignmentId=f0b84b72-50ab-4bbf-9a82-86432b9d654e&projectId=051c06f1-75cc-4548-856d-4923ddaba0dc","594C1B37809840A7AB34C9801D7ABA82-2025-05-15-18-44-02","","null","","images/causal_sequence/dog_causal/dog_causal_ten.png","null","",""
"","","","","","image-button-response","32","122760","0.0-10.0-1.0-1.2","594C1B37809840A7AB34C9801D7ABA82","594C1B37809840A7AB34C9801D7ABA82","f0b84b72-50ab-4bbf-9a82-86432b9d654e","051c06f1-75cc-4548-856d-4923ddaba0dc","{""num_scrambled_semantic"":""8"",""num_scrambled_causal"":""4"",""num_scrambled_schematic"":""4"",""participantId"":""594C1B37809840A7AB34C9801D7ABA82"",""assignmentId"":""f0b84b72-50ab-4bbf-9a82-86432b9d654e"",""projectId"":""051c06f1-75cc-4548-856d-4923ddaba0dc""}","https://test12345.live/?num_scrambled_semantic=8&num_scrambled_causal=4&num_scrambled_schematic=4&participantId=594C1B37809840A7AB34C9801D7ABA82&assignmentId=f0b84b72-50ab-4bbf-9a82-86432b9d654e&projectId=051c06f1-75cc-4548-856d-4923ddaba0dc","594C1B37809840A7AB34C9801D7ABA82-2025-05-15-18-44-02","","1073","","images/causal_sequence/dog_causal/dog_causal_ten.png","0","",""
"","","","","","image-button-response","33","124561","0.0-10.0-1.0-2.2","594C1B37809840A7AB34C9801D7ABA82","594C1B37809840A7AB34C9801D7ABA82","f0b84b72-50ab-4bbf-9a82-86432b9d654e","051c06f1-75cc-4548-856d-4923ddaba0dc","{""num_scrambled_semantic"":""8"",""num_scrambled_causal"":""4"",""num_scrambled_schematic"":""4"",""participantId"":""594C1B37809840A7AB34C9801D7ABA82"",""assignmentId"":""f0b84b72-50ab-4bbf-9a82-86432b9d654e"",""projectId"":""051c06f1-75cc-4548-856d-4923ddaba0dc""}","https://test12345.live/?num_scrambled_semantic=8&num_scrambled_causal=4&num_scrambled_schematic=4&participantId=594C1B37809840A7AB34C9801D7ABA82&assignmentId=f0b84b72-50ab-4bbf-9a82-86432b9d654e&projectId=051c06f1-75cc-4548-856d-4923ddaba0dc","594C1B37809840A7AB34C9801D7ABA82-2025-05-15-18-44-02","","null","","[]","null","",""
"","","","","","image-button-response","34","129064","0.0-10.0-1.0-0.3","594C1B37809840A7AB34C9801D7ABA82","594C1B37809840A7AB34C9801D7ABA82","f0b84b72-50ab-4bbf-9a82-86432b9d654e","051c06f1-75cc-4548-856d-4923ddaba0dc","{""num_scrambled_semantic"":""8"",""num_scrambled_causal"":""4"",""num_scrambled_schematic"":""4"",""participantId"":""594C1B37809840A7AB34C9801D7ABA82"",""assignmentId"":""f0b84b72-50ab-4bbf-9a82-86432b9d654e"",""projectId"":""051c06f1-75cc-4548-856d-4923ddaba0dc""}","https://test12345.live/?num_scrambled_semantic=8&num_scrambled_causal=4&num_scrambled_schematic=4&participantId=594C1B37809840A7AB34C9801D7ABA82&assignmentId=f0b84b72-50ab-4bbf-9a82-86432b9d654e&projectId=051c06f1-75cc-4548-856d-4923ddaba0dc","594C1B37809840A7AB34C9801D7ABA82-2025-05-15-18-44-02","","null","","images/causal_sequence/dog_causal/dog_causal_7.png","null","",""
"","","","","","image-button-response","35","129922","0.0-10.0-1.0-1.3","594C1B37809840A7AB34C9801D7ABA82","594C1B37809840A7AB34C9801D7ABA82","f0b84b72-50ab-4bbf-9a82-86432b9d654e","051c06f1-75cc-4548-856d-4923ddaba0dc","{""num_scrambled_semantic"":""8"",""num_scrambled_causal"":""4"",""num_scrambled_schematic"":""4"",""participantId"":""594C1B37809840A7AB34C9801D7ABA82"",""assignmentId"":""f0b84b72-50ab-4bbf-9a82-86432b9d654e"",""projectId"":""051c06f1-75cc-4548-856d-4923ddaba0dc""}","https://test12345.live/?num_scrambled_semantic=8&num_scrambled_causal=4&num_scrambled_schematic=4&participantId=594C1B37809840A7AB34C9801D7ABA82&assignmentId=f0b84b72-50ab-4bbf-9a82-86432b9d654e&projectId=051c06f1-75cc-4548-856d-4923ddaba0dc","594C1B37809840A7AB34C9801D7ABA82-2025-05-15-18-44-02","","858","","images/causal_sequence/dog_causal/dog_causal_7.png","0","",""
"","","","","","image-button-response","36","131726","0.0-10.0-1.0-2.3","594C1B37809840A7AB34C9801D7ABA82","594C1B37809840A7AB34C9801D7ABA82","f0b84b72-50ab-4bbf-9a82-86432b9d654e","051c06f1-75cc-4548-856d-4923ddaba0dc","{""num_scrambled_semantic"":""8"",""num_scrambled_causal"":""4"",""num_scrambled_schematic"":""4"",""participantId"":""594C1B37809840A7AB34C9801D7ABA82"",""assignmentId"":""f0b84b72-50ab-4bbf-9a82-86432b9d654e"",""projectId"":""051c06f1-75cc-4548-856d-4923ddaba0dc""}","https://test12345.live/?num_scrambled_semantic=8&num_scrambled_causal=4&num_scrambled_schematic=4&participantId=594C1B37809840A7AB34C9801D7ABA82&assignmentId=f0b84b72-50ab-4bbf-9a82-86432b9d654e&projectId=051c06f1-75cc-4548-856d-4923ddaba0dc","594C1B37809840A7AB34C9801D7ABA82-2025-05-15-18-44-02","","null","","[]","null","",""
"","","","","","image-button-response","37","136230","0.0-10.0-1.0-0.4","594C1B37809840A7AB34C9801D7ABA82","594C1B37809840A7AB34C9801D7ABA82","f0b84b72-50ab-4bbf-9a82-86432b9d654e","051c06f1-75cc-4548-856d-4923ddaba0dc","{""num_scrambled_semantic"":""8"",""num_scrambled_causal"":""4"",""num_scrambled_schematic"":""4"",""participantId"":""594C1B37809840A7AB34C9801D7ABA82"",""assignmentId"":""f0b84b72-50ab-4bbf-9a82-86432b9d654e"",""projectId"":""051c06f1-75cc-4548-856d-4923ddaba0dc""}","https://test12345.live/?num_scrambled_semantic=8&num_scrambled_causal=4&num_scrambled_schematic=4&participantId=594C1B37809840A7AB34C9801D7ABA82&assignmentId=f0b84b72-50ab-4bbf-9a82-86432b9d654e&projectId=051c06f1-75cc-4548-856d-4923ddaba0dc","594C1B37809840A7AB34C9801D7ABA82-2025-05-15-18-44-02","","null","","images/causal_sequence/dog_causal/dog_causal_6.png","null","",""
"","","","","","image-button-response","38","136743","0.0-10.0-1.0-1.4","594C1B37809840A7AB34C9801D7ABA82","594C1B37809840A7AB34C9801D7ABA82","f0b84b72-50ab-4bbf-9a82-86432b9d654e","051c06f1-75cc-4548-856d-4923ddaba0dc","{""num_scrambled_semantic"":""8"",""num_scrambled_causal"":""4"",""num_scrambled_schematic"":""4"",""participantId"":""594C1B37809840A7AB34C9801D7ABA82"",""assignmentId"":""f0b84b72-50ab-4bbf-9a82-86432b9d654e"",""projectId"":""051c06f1-75cc-4548-856d-4923ddaba0dc""}","https://test12345.live/?num_scrambled_semantic=8&num_scrambled_causal=4&num_scrambled_schematic=4&participantId=594C1B37809840A7AB34C9801D7ABA82&assignmentId=f0b84b72-50ab-4bbf-9a82-86432b9d654e&projectId=051c06f1-75cc-4548-856d-4923ddaba0dc","594C1B37809840A7AB34C9801D7ABA82-2025-05-15-18-44-02","","512","","images/causal_sequence/dog_causal/dog_causal_6.png","0","",""
"","","","","","image-button-response","39","138545","0.0-10.0-1.0-2.4","594C1B37809840A7AB34C9801D7ABA82","594C1B37809840A7AB34C9801D7ABA82","f0b84b72-50ab-4bbf-9a82-86432b9d654e","051c06f1-75cc-4548-856d-4923ddaba0dc","{""num_scrambled_semantic"":""8"",""num_scrambled_causal"":""4"",""num_scrambled_schematic"":""4"",""participantId"":""594C1B37809840A7AB34C9801D7ABA82"",""assignmentId"":""f0b84b72-50ab-4bbf-9a82-86432b9d654e"",""projectId"":""051c06f1-75cc-4548-856d-4923ddaba0dc""}","https://test12345.live/?num_scrambled_semantic=8&num_scrambled_causal=4&num_scrambled_schematic=4&participantId=594C1B37809840A7AB34C9801D7ABA82&assignmentId=f0b84b72-50ab-4bbf-9a82-86432b9d654e&projectId=051c06f1-75cc-4548-856d-4923ddaba0dc","594C1B37809840A7AB34C9801D7ABA82-2025-05-15-18-44-02","","null","","[]","null","",""
"","","","","","image-button-response","40","143047","0.0-10.0-1.0-0.5","594C1B37809840A7AB34C9801D7ABA82","594C1B37809840A7AB34C9801D7ABA82","f0b84b72-50ab-4bbf-9a82-86432b9d654e","051c06f1-75cc-4548-856d-4923ddaba0dc","{""num_scrambled_semantic"":""8"",""num_scrambled_causal"":""4"",""num_scrambled_schematic"":""4"",""participantId"":""594C1B37809840A7AB34C9801D7ABA82"",""assignmentId"":""f0b84b72-50ab-4bbf-9a82-86432b9d654e"",""projectId"":""051c06f1-75cc-4548-856d-4923ddaba0dc""}","https://test12345.live/?num_scrambled_semantic=8&num_scrambled_causal=4&num_scrambled_schematic=4&participantId=594C1B37809840A7AB34C9801D7ABA82&assignmentId=f0b84b72-50ab-4bbf-9a82-86432b9d654e&projectId=051c06f1-75cc-4548-856d-4923ddaba0dc","594C1B37809840A7AB34C9801D7ABA82-2025-05-15-18-44-02","","null","","images/causal_sequence/dog_causal/dog_causal_8.png","null","",""
"","","","","","image-button-response","41","144138","0.0-10.0-1.0-1.5","594C1B37809840A7AB34C9801D7ABA82","594C1B37809840A7AB34C9801D7ABA82","f0b84b72-50ab-4bbf-9a82-86432b9d654e","051c06f1-75cc-4548-856d-4923ddaba0dc","{""num_scrambled_semantic"":""8"",""num_scrambled_causal"":""4"",""num_scrambled_schematic"":""4"",""participantId"":""594C1B37809840A7AB34C9801D7ABA82"",""assignmentId"":""f0b84b72-50ab-4bbf-9a82-86432b9d654e"",""projectId"":""051c06f1-75cc-4548-856d-4923ddaba0dc""}","https://test12345.live/?num_scrambled_semantic=8&num_scrambled_causal=4&num_scrambled_schematic=4&participantId=594C1B37809840A7AB34C9801D7ABA82&assignmentId=f0b84b72-50ab-4bbf-9a82-86432b9d654e&projectId=051c06f1-75cc-4548-856d-4923ddaba0dc","594C1B37809840A7AB34C9801D7ABA82-2025-05-15-18-44-02","","1089","","images/causal_sequence/dog_causal/dog_causal_8.png","0","",""
"","","","","","image-button-response","42","145941","0.0-10.0-1.0-2.5","594C1B37809840A7AB34C9801D7ABA82","594C1B37809840A7AB34C9801D7ABA82","f0b84b72-50ab-4bbf-9a82-86432b9d654e","051c06f1-75cc-4548-856d-4923ddaba0dc","{""num_scrambled_semantic"":""8"",""num_scrambled_causal"":""4"",""num_scrambled_schematic"":""4"",""participantId"":""594C1B37809840A7AB34C9801D7ABA82"",""assignmentId"":""f0b84b72-50ab-4bbf-9a82-86432b9d654e"",""projectId"":""051c06f1-75cc-4548-856d-4923ddaba0dc""}","https://test12345.live/?num_scrambled_semantic=8&num_scrambled_causal=4&num_scrambled_schematic=4&participantId=594C1B37809840A7AB34C9801D7ABA82&assignmentId=f0b84b72-50ab-4bbf-9a82-86432b9d654e&projectId=051c06f1-75cc-4548-856d-4923ddaba0dc","594C1B37809840A7AB34C9801D7ABA82-2025-05-15-18-44-02","","null","","[]","null","",""
"","","","","","image-button-response","43","150449","0.0-10.0-1.0-0.6","594C1B37809840A7AB34C9801D7ABA82","594C1B37809840A7AB34C9801D7ABA82","f0b84b72-50ab-4bbf-9a82-86432b9d654e","051c06f1-75cc-4548-856d-4923ddaba0dc","{""num_scrambled_semantic"":""8"",""num_scrambled_causal"":""4"",""num_scrambled_schematic"":""4"",""participantId"":""594C1B37809840A7AB34C9801D7ABA82"",""assignmentId"":""f0b84b72-50ab-4bbf-9a82-86432b9d654e"",""projectId"":""051c06f1-75cc-4548-856d-4923ddaba0dc""}","https://test12345.live/?num_scrambled_semantic=8&num_scrambled_causal=4&num_scrambled_schematic=4&participantId=594C1B37809840A7AB34C9801D7ABA82&assignmentId=f0b84b72-50ab-4bbf-9a82-86432b9d654e&projectId=051c06f1-75cc-4548-856d-4923ddaba0dc","594C1B37809840A7AB34C9801D7ABA82-2025-05-15-18-44-02","","null","","images/causal_sequence/dog_causal/dog_causal_9.png","null","",""
"","","","","","image-button-response","44","151449","0.0-10.0-1.0-1.6","594C1B37809840A7AB34C9801D7ABA82","594C1B37809840A7AB34C9801D7ABA82","f0b84b72-50ab-4bbf-9a82-86432b9d654e","051c06f1-75cc-4548-856d-4923ddaba0dc","{""num_scrambled_semantic"":""8"",""num_scrambled_causal"":""4"",""num_scrambled_schematic"":""4"",""participantId"":""594C1B37809840A7AB34C9801D7ABA82"",""assignmentId"":""f0b84b72-50ab-4bbf-9a82-86432b9d654e"",""projectId"":""051c06f1-75cc-4548-856d-4923ddaba0dc""}","https://test12345.live/?num_scrambled_semantic=8&num_scrambled_causal=4&num_scrambled_schematic=4&participantId=594C1B37809840A7AB34C9801D7ABA82&assignmentId=f0b84b72-50ab-4bbf-9a82-86432b9d654e&projectId=051c06f1-75cc-4548-856d-4923ddaba0dc","594C1B37809840A7AB34C9801D7ABA82-2025-05-15-18-44-02","","1000","","images/causal_sequence/dog_causal/dog_causal_9.png","0","",""
"","","","","","image-button-response","45","153253","0.0-10.0-1.0-2.6","594C1B37809840A7AB34C9801D7ABA82","594C1B37809840A7AB34C9801D7ABA82","f0b84b72-50ab-4bbf-9a82-86432b9d654e","051c06f1-75cc-4548-856d-4923ddaba0dc","{""num_scrambled_semantic"":""8"",""num_scrambled_causal"":""4"",""num_scrambled_schematic"":""4"",""participantId"":""594C1B37809840A7AB34C9801D7ABA82"",""assignmentId"":""f0b84b72-50ab-4bbf-9a82-86432b9d654e"",""projectId"":""051c06f1-75cc-4548-856d-4923ddaba0dc""}","https://test12345.live/?num_scrambled_semantic=8&num_scrambled_causal=4&num_scrambled_schematic=4&participantId=594C1B37809840A7AB34C9801D7ABA82&assignmentId=f0b84b72-50ab-4bbf-9a82-86432b9d654e&projectId=051c06f1-75cc-4548-856d-4923ddaba0dc","594C1B37809840A7AB34C9801D7ABA82-2025-05-15-18-44-02","","null","","[]","null","",""
"","","","","","image-button-response","46","157754","0.0-10.0-1.0-0.7","594C1B37809840A7AB34C9801D7ABA82","594C1B37809840A7AB34C9801D7ABA82","f0b84b72-50ab-4bbf-9a82-86432b9d654e","051c06f1-75cc-4548-856d-4923ddaba0dc","{""num_scrambled_semantic"":""8"",""num_scrambled_causal"":""4"",""num_scrambled_schematic"":""4"",""participantId"":""594C1B37809840A7AB34C9801D7ABA82"",""assignmentId"":""f0b84b72-50ab-4bbf-9a82-86432b9d654e"",""projectId"":""051c06f1-75cc-4548-856d-4923ddaba0dc""}","https://test12345.live/?num_scrambled_semantic=8&num_scrambled_causal=4&num_scrambled_schematic=4&participantId=594C1B37809840A7AB34C9801D7ABA82&assignmentId=f0b84b72-50ab-4bbf-9a82-86432b9d654e&projectId=051c06f1-75cc-4548-856d-4923ddaba0dc","594C1B37809840A7AB34C9801D7ABA82-2025-05-15-18-44-02","","null","","images/causal_sequence/dog_causal/dog_causal_1.png","null","",""
"","","","","","image-button-response","47","158503","0.0-10.0-1.0-1.7","594C1B37809840A7AB34C9801D7ABA82","594C1B37809840A7AB34C9801D7ABA82","f0b84b72-50ab-4bbf-9a82-86432b9d654e","051c06f1-75cc-4548-856d-4923ddaba0dc","{""num_scrambled_semantic"":""8"",""num_scrambled_causal"":""4"",""num_scrambled_schematic"":""4"",""participantId"":""594C1B37809840A7AB34C9801D7ABA82"",""assignmentId"":""f0b84b72-50ab-4bbf-9a82-86432b9d654e"",""projectId"":""051c06f1-75cc-4548-856d-4923ddaba0dc""}","https://test12345.live/?num_scrambled_semantic=8&num_scrambled_causal=4&num_scrambled_schematic=4&participantId=594C1B37809840A7AB34C9801D7ABA82&assignmentId=f0b84b72-50ab-4bbf-9a82-86432b9d654e&projectId=051c06f1-75cc-4548-856d-4923ddaba0dc","594C1B37809840A7AB34C9801D7ABA82-2025-05-15-18-44-02","","748","","images/causal_sequence/dog_causal/dog_causal_1.png","0","",""
"","","","","","image-button-response","48","160305","0.0-10.0-1.0-2.7","594C1B37809840A7AB34C9801D7ABA82","594C1B37809840A7AB34C9801D7ABA82","f0b84b72-50ab-4bbf-9a82-86432b9d654e","051c06f1-75cc-4548-856d-4923ddaba0dc","{""num_scrambled_semantic"":""8"",""num_scrambled_causal"":""4"",""num_scrambled_schematic"":""4"",""participantId"":""594C1B37809840A7AB34C9801D7ABA82"",""assignmentId"":""f0b84b72-50ab-4bbf-9a82-86432b9d654e"",""projectId"":""051c06f1-75cc-4548-856d-4923ddaba0dc""}","https://test12345.live/?num_scrambled_semantic=8&num_scrambled_causal=4&num_scrambled_schematic=4&participantId=594C1B37809840A7AB34C9801D7ABA82&assignmentId=f0b84b72-50ab-4bbf-9a82-86432b9d654e&projectId=051c06f1-75cc-4548-856d-4923ddaba0dc","594C1B37809840A7AB34C9801D7ABA82-2025-05-15-18-44-02","","null","","[]","null","",""
"","","","","","image-button-response","49","164807","0.0-10.0-1.0-0.8","594C1B37809840A7AB34C9801D7ABA82","594C1B37809840A7AB34C9801D7ABA82","f0b84b72-50ab-4bbf-9a82-86432b9d654e","051c06f1-75cc-4548-856d-4923ddaba0dc","{""num_scrambled_semantic"":""8"",""num_scrambled_causal"":""4"",""num_scrambled_schematic"":""4"",""participantId"":""594C1B37809840A7AB34C9801D7ABA82"",""assignmentId"":""f0b84b72-50ab-4bbf-9a82-86432b9d654e"",""projectId"":""051c06f1-75cc-4548-856d-4923ddaba0dc""}","https://test12345.live/?num_scrambled_semantic=8&num_scrambled_causal=4&num_scrambled_schematic=4&participantId=594C1B37809840A7AB34C9801D7ABA82&assignmentId=f0b84b72-50ab-4bbf-9a82-86432b9d654e&projectId=051c06f1-75cc-4548-856d-4923ddaba0dc","594C1B37809840A7AB34C9801D7ABA82-2025-05-15-18-44-02","","null","","images/causal_sequence/dog_causal/dog_causal_3.png","null","",""
"","","","","","image-button-response","50","165328","0.0-10.0-1.0-1.8","594C1B37809840A7AB34C9801D7ABA82","594C1B37809840A7AB34C9801D7ABA82","f0b84b72-50ab-4bbf-9a82-86432b9d654e","051c06f1-75cc-4548-856d-4923ddaba0dc","{""num_scrambled_semantic"":""8"",""num_scrambled_causal"":""4"",""num_scrambled_schematic"":""4"",""participantId"":""594C1B37809840A7AB34C9801D7ABA82"",""assignmentId"":""f0b84b72-50ab-4bbf-9a82-86432b9d654e"",""projectId"":""051c06f1-75cc-4548-856d-4923ddaba0dc""}","https://test12345.live/?num_scrambled_semantic=8&num_scrambled_causal=4&num_scrambled_schematic=4&participantId=594C1B37809840A7AB34C9801D7ABA82&assignmentId=f0b84b72-50ab-4bbf-9a82-86432b9d654e&projectId=051c06f1-75cc-4548-856d-4923ddaba0dc","594C1B37809840A7AB34C9801D7ABA82-2025-05-15-18-44-02","","521","","images/causal_sequence/dog_causal/dog_causal_3.png","0","",""
"","","","","","image-button-response","51","167134","0.0-10.0-1.0-2.8","594C1B37809840A7AB34C9801D7ABA82","594C1B37809840A7AB34C9801D7ABA82","f0b84b72-50ab-4bbf-9a82-86432b9d654e","051c06f1-75cc-4548-856d-4923ddaba0dc","{""num_scrambled_semantic"":""8"",""num_scrambled_causal"":""4"",""num_scrambled_schematic"":""4"",""participantId"":""594C1B37809840A7AB34C9801D7ABA82"",""assignmentId"":""f0b84b72-50ab-4bbf-9a82-86432b9d654e"",""projectId"":""051c06f1-75cc-4548-856d-4923ddaba0dc""}","https://test12345.live/?num_scrambled_semantic=8&num_scrambled_causal=4&num_scrambled_schematic=4&participantId=594C1B37809840A7AB34C9801D7ABA82&assignmentId=f0b84b72-50ab-4bbf-9a82-86432b9d654e&projectId=051c06f1-75cc-4548-856d-4923ddaba0dc","594C1B37809840A7AB34C9801D7ABA82-2025-05-15-18-44-02","","null","","[]","null","",""
"","","","","","image-button-response","52","171635","0.0-10.0-1.0-0.9","594C1B37809840A7AB34C9801D7ABA82","594C1B37809840A7AB34C9801D7ABA82","f0b84b72-50ab-4bbf-9a82-86432b9d654e","051c06f1-75cc-4548-856d-4923ddaba0dc","{""num_scrambled_semantic"":""8"",""num_scrambled_causal"":""4"",""num_scrambled_schematic"":""4"",""participantId"":""594C1B37809840A7AB34C9801D7ABA82"",""assignmentId"":""f0b84b72-50ab-4bbf-9a82-86432b9d654e"",""projectId"":""051c06f1-75cc-4548-856d-4923ddaba0dc""}","https://test12345.live/?num_scrambled_semantic=8&num_scrambled_causal=4&num_scrambled_schematic=4&participantId=594C1B37809840A7AB34C9801D7ABA82&assignmentId=f0b84b72-50ab-4bbf-9a82-86432b9d654e&projectId=051c06f1-75cc-4548-856d-4923ddaba0dc","594C1B37809840A7AB34C9801D7ABA82-2025-05-15-18-44-02","","null","","images/causal_sequence/dog_causal/dog_causal_2.png","null","",""
"","","","","","image-button-response","53","172387","0.0-10.0-1.0-1.9","594C1B37809840A7AB34C9801D7ABA82","594C1B37809840A7AB34C9801D7ABA82","f0b84b72-50ab-4bbf-9a82-86432b9d654e","051c06f1-75cc-4548-856d-4923ddaba0dc","{""num_scrambled_semantic"":""8"",""num_scrambled_causal"":""4"",""num_scrambled_schematic"":""4"",""participantId"":""594C1B37809840A7AB34C9801D7ABA82"",""assignmentId"":""f0b84b72-50ab-4bbf-9a82-86432b9d654e"",""projectId"":""051c06f1-75cc-4548-856d-4923ddaba0dc""}","https://test12345.live/?num_scrambled_semantic=8&num_scrambled_causal=4&num_scrambled_schematic=4&participantId=594C1B37809840A7AB34C9801D7ABA82&assignmentId=f0b84b72-50ab-4bbf-9a82-86432b9d654e&projectId=051c06f1-75cc-4548-856d-4923ddaba0dc","594C1B37809840A7AB34C9801D7ABA82-2025-05-15-18-44-02","","752","","images/causal_sequence/dog_causal/dog_causal_2.png","0","",""
"","","","","","image-button-response","54","174189","0.0-10.0-1.0-2.9","594C1B37809840A7AB34C9801D7ABA82","594C1B37809840A7AB34C9801D7ABA82","f0b84b72-50ab-4bbf-9a82-86432b9d654e","051c06f1-75cc-4548-856d-4923ddaba0dc","{""num_scrambled_semantic"":""8"",""num_scrambled_causal"":""4"",""num_scrambled_schematic"":""4"",""participantId"":""594C1B37809840A7AB34C9801D7ABA82"",""assignmentId"":""f0b84b72-50ab-4bbf-9a82-86432b9d654e"",""projectId"":""051c06f1-75cc-4548-856d-4923ddaba0dc""}","https://test12345.live/?num_scrambled_semantic=8&num_scrambled_causal=4&num_scrambled_schematic=4&participantId=594C1B37809840A7AB34C9801D7ABA82&assignmentId=f0b84b72-50ab-4bbf-9a82-86432b9d654e&projectId=051c06f1-75cc-4548-856d-4923ddaba0dc","594C1B37809840A7AB34C9801D7ABA82-2025-05-15-18-44-02","","null","","[]","null","",""
"","","","","","html-audio-response","55","196953","0.0-11.0","594C1B37809840A7AB34C9801D7ABA82","594C1B37809840A7AB34C9801D7ABA82","f0b84b72-50ab-4bbf-9a82-86432b9d654e","051c06f1-75cc-4548-856d-4923ddaba0dc","{""num_scrambled_semantic"":""8"",""num_scrambled_causal"":""4"",""num_scrambled_schematic"":""4"",""participantId"":""594C1B37809840A7AB34C9801D7ABA82"",""assignmentId"":""f0b84b72-50ab-4bbf-9a82-86432b9d654e"",""projectId"":""051c06f1-75cc-4548-856d-4923ddaba0dc""}","https://test12345.live/?num_scrambled_semantic=8&num_scrambled_causal=4&num_scrambled_schematic=4&participantId=594C1B37809840A7AB34C9801D7ABA82&assignmentId=f0b84b72-50ab-4bbf-9a82-86432b9d654e&projectId=051c06f1-75cc-4548-856d-4923ddaba0dc","594C1B37809840A7AB34C9801D7ABA82-2025-05-15-18-44-02","","17897","","[""<span style=\""color: red; font-size: 24px\""> NOW RECORDING</span><p>Please say out loud all the images you saw, as many as you can remember. The images can be said in any order.</p>""]","","2","dog_causal"
"","","","","","image-button-response","56","202957","0.0-12.0-0.0","594C1B37809840A7AB34C9801D7ABA82","594C1B37809840A7AB34C9801D7ABA82","f0b84b72-50ab-4bbf-9a82-86432b9d654e","051c06f1-75cc-4548-856d-4923ddaba0dc","{""num_scrambled_semantic"":""8"",""num_scrambled_causal"":""4"",""num_scrambled_schematic"":""4"",""participantId"":""594C1B37809840A7AB34C9801D7ABA82"",""assignmentId"":""f0b84b72-50ab-4bbf-9a82-86432b9d654e"",""projectId"":""051c06f1-75cc-4548-856d-4923ddaba0dc""}","https://test12345.live/?num_scrambled_semantic=8&num_scrambled_causal=4&num_scrambled_schematic=4&participantId=594C1B37809840A7AB34C9801D7ABA82&assignmentId=f0b84b72-50ab-4bbf-9a82-86432b9d654e&projectId=051c06f1-75cc-4548-856d-4923ddaba0dc","594C1B37809840A7AB34C9801D7ABA82-2025-05-15-18-44-02","","null","","images/schematic_sequence/hotel_scheme/hotel_scheme_0.png","null","",""
"","","","","","image-button-response","57","207461","0.0-12.0-1.0-0.0","594C1B37809840A7AB34C9801D7ABA82","594C1B37809840A7AB34C9801D7ABA82","f0b84b72-50ab-4bbf-9a82-86432b9d654e","051c06f1-75cc-4548-856d-4923ddaba0dc","{""num_scrambled_semantic"":""8"",""num_scrambled_causal"":""4"",""num_scrambled_schematic"":""4"",""participantId"":""594C1B37809840A7AB34C9801D7ABA82"",""assignmentId"":""f0b84b72-50ab-4bbf-9a82-86432b9d654e"",""projectId"":""051c06f1-75cc-4548-856d-4923ddaba0dc""}","https://test12345.live/?num_scrambled_semantic=8&num_scrambled_causal=4&num_scrambled_schematic=4&participantId=594C1B37809840A7AB34C9801D7ABA82&assignmentId=f0b84b72-50ab-4bbf-9a82-86432b9d654e&projectId=051c06f1-75cc-4548-856d-4923ddaba0dc","594C1B37809840A7AB34C9801D7ABA82-2025-05-15-18-44-02","","null","","images/schematic_sequence/hotel_scheme/hotel_scheme_1.png","null","",""
"","","","","","image-button-response","58","208378","0.0-12.0-1.0-1.0","594C1B37809840A7AB34C9801D7ABA82","594C1B37809840A7AB34C9801D7ABA82","f0b84b72-50ab-4bbf-9a82-86432b9d654e","051c06f1-75cc-4548-856d-4923ddaba0dc","{""num_scrambled_semantic"":""8"",""num_scrambled_causal"":""4"",""num_scrambled_schematic"":""4"",""participantId"":""594C1B37809840A7AB34C9801D7ABA82"",""assignmentId"":""f0b84b72-50ab-4bbf-9a82-86432b9d654e"",""projectId"":""051c06f1-75cc-4548-856d-4923ddaba0dc""}","https://test12345.live/?num_scrambled_semantic=8&num_scrambled_causal=4&num_scrambled_schematic=4&participantId=594C1B37809840A7AB34C9801D7ABA82&assignmentId=f0b84b72-50ab-4bbf-9a82-86432b9d654e&projectId=051c06f1-75cc-4548-856d-4923ddaba0dc","594C1B37809840A7AB34C9801D7ABA82-2025-05-15-18-44-02","","917","","images/schematic_sequence/hotel_scheme/hotel_scheme_1.png","1","",""
"","","","","","image-button-response","59","210180","0.0-12.0-1.0-2.0","594C1B37809840A7AB34C9801D7ABA82","594C1B37809840A7AB34C9801D7ABA82","f0b84b72-50ab-4bbf-9a82-86432b9d654e","051c06f1-75cc-4548-856d-4923ddaba0dc","{""num_scrambled_semantic"":""8"",""num_scrambled_causal"":""4"",""num_scrambled_schematic"":""4"",""participantId"":""594C1B37809840A7AB34C9801D7ABA82"",""assignmentId"":""f0b84b72-50ab-4bbf-9a82-86432b9d654e"",""projectId"":""051c06f1-75cc-4548-856d-4923ddaba0dc""}","https://test12345.live/?num_scrambled_semantic=8&num_scrambled_causal=4&num_scrambled_schematic=4&participantId=594C1B37809840A7AB34C9801D7ABA82&assignmentId=f0b84b72-50ab-4bbf-9a82-86432b9d654e&projectId=051c06f1-75cc-4548-856d-4923ddaba0dc","594C1B37809840A7AB34C9801D7ABA82-2025-05-15-18-44-02","","null","","[]","null","",""
"","","","","","image-button-response","60","214683","0.0-12.0-1.0-0.1","594C1B37809840A7AB34C9801D7ABA82","594C1B37809840A7AB34C9801D7ABA82","f0b84b72-50ab-4bbf-9a82-86432b9d654e","051c06f1-75cc-4548-856d-4923ddaba0dc","{""num_scrambled_semantic"":""8"",""num_scrambled_causal"":""4"",""num_scrambled_schematic"":""4"",""participantId"":""594C1B37809840A7AB34C9801D7ABA82"",""assignmentId"":""f0b84b72-50ab-4bbf-9a82-86432b9d654e"",""projectId"":""051c06f1-75cc-4548-856d-4923ddaba0dc""}","https://test12345.live/?num_scrambled_semantic=8&num_scrambled_causal=4&num_scrambled_schematic=4&participantId=594C1B37809840A7AB34C9801D7ABA82&assignmentId=f0b84b72-50ab-4bbf-9a82-86432b9d654e&projectId=051c06f1-75cc-4548-856d-4923ddaba0dc","594C1B37809840A7AB34C9801D7ABA82-2025-05-15-18-44-02","","null","","images/schematic_sequence/hotel_scheme/hotel_scheme_2.png","null","",""
"","","","","","image-button-response","61","215822","0.0-12.0-1.0-1.1","594C1B37809840A7AB34C9801D7ABA82","594C1B37809840A7AB34C9801D7ABA82","f0b84b72-50ab-4bbf-9a82-86432b9d654e","051c06f1-75cc-4548-856d-4923ddaba0dc","{""num_scrambled_semantic"":""8"",""num_scrambled_causal"":""4"",""num_scrambled_schematic"":""4"",""participantId"":""594C1B37809840A7AB34C9801D7ABA82"",""assignmentId"":""f0b84b72-50ab-4bbf-9a82-86432b9d654e"",""projectId"":""051c06f1-75cc-4548-856d-4923ddaba0dc""}","https://test12345.live/?num_scrambled_semantic=8&num_scrambled_causal=4&num_scrambled_schematic=4&participantId=594C1B37809840A7AB34C9801D7ABA82&assignmentId=f0b84b72-50ab-4bbf-9a82-86432b9d654e&projectId=051c06f1-75cc-4548-856d-4923ddaba0dc","594C1B37809840A7AB34C9801D7ABA82-2025-05-15-18-44-02","","1139","","images/schematic_sequence/hotel_scheme/hotel_scheme_2.png","0","",""
"","","","","","image-button-response","62","217626","0.0-12.0-1.0-2.1","594C1B37809840A7AB34C9801D7ABA82","594C1B37809840A7AB34C9801D7ABA82","f0b84b72-50ab-4bbf-9a82-86432b9d654e","051c06f1-75cc-4548-856d-4923ddaba0dc","{""num_scrambled_semantic"":""8"",""num_scrambled_causal"":""4"",""num_scrambled_schematic"":""4"",""participantId"":""594C1B37809840A7AB34C9801D7ABA82"",""assignmentId"":""f0b84b72-50ab-4bbf-9a82-86432b9d654e"",""projectId"":""051c06f1-75cc-4548-856d-4923ddaba0dc""}","https://test12345.live/?num_scrambled_semantic=8&num_scrambled_causal=4&num_scrambled_schematic=4&participantId=594C1B37809840A7AB34C9801D7ABA82&assignmentId=f0b84b72-50ab-4bbf-9a82-86432b9d654e&projectId=051c06f1-75cc-4548-856d-4923ddaba0dc","594C1B37809840A7AB34C9801D7ABA82-2025-05-15-18-44-02","","null","","[]","null","",""
"","","","","","image-button-response","63","222127","0.0-12.0-1.0-0.2","594C1B37809840A7AB34C9801D7ABA82","594C1B37809840A7AB34C9801D7ABA82","f0b84b72-50ab-4bbf-9a82-86432b9d654e","051c06f1-75cc-4548-856d-4923ddaba0dc","{""num_scrambled_semantic"":""8"",""num_scrambled_causal"":""4"",""num_scrambled_schematic"":""4"",""participantId"":""594C1B37809840A7AB34C9801D7ABA82"",""assignmentId"":""f0b84b72-50ab-4bbf-9a82-86432b9d654e"",""projectId"":""051c06f1-75cc-4548-856d-4923ddaba0dc""}","https://test12345.live/?num_scrambled_semantic=8&num_scrambled_causal=4&num_scrambled_schematic=4&participantId=594C1B37809840A7AB34C9801D7ABA82&assignmentId=f0b84b72-50ab-4bbf-9a82-86432b9d654e&projectId=051c06f1-75cc-4548-856d-4923ddaba0dc","594C1B37809840A7AB34C9801D7ABA82-2025-05-15-18-44-02","","null","","images/schematic_sequence/hotel_scheme/hotel_scheme_3.png","null","",""
"","","","","","image-button-response","64","222635","0.0-12.0-1.0-1.2","594C1B37809840A7AB34C9801D7ABA82","594C1B37809840A7AB34C9801D7ABA82","f0b84b72-50ab-4bbf-9a82-86432b9d654e","051c06f1-75cc-4548-856d-4923ddaba0dc","{""num_scrambled_semantic"":""8"",""num_scrambled_causal"":""4"",""num_scrambled_schematic"":""4"",""participantId"":""594C1B37809840A7AB34C9801D7ABA82"",""assignmentId"":""f0b84b72-50ab-4bbf-9a82-86432b9d654e"",""projectId"":""051c06f1-75cc-4548-856d-4923ddaba0dc""}","https://test12345.live/?num_scrambled_semantic=8&num_scrambled_causal=4&num_scrambled_schematic=4&participantId=594C1B37809840A7AB34C9801D7ABA82&assignmentId=f0b84b72-50ab-4bbf-9a82-86432b9d654e&projectId=051c06f1-75cc-4548-856d-4923ddaba0dc","594C1B37809840A7AB34C9801D7ABA82-2025-05-15-18-44-02","","506","","images/schematic_sequence/hotel_scheme/hotel_scheme_3.png","0","",""
"","","","","","image-button-response","65","224440","0.0-12.0-1.0-2.2","594C1B37809840A7AB34C9801D7ABA82","594C1B37809840A7AB34C9801D7ABA82","f0b84b72-50ab-4bbf-9a82-86432b9d654e","051c06f1-75cc-4548-856d-4923ddaba0dc","{""num_scrambled_semantic"":""8"",""num_scrambled_causal"":""4"",""num_scrambled_schematic"":""4"",""participantId"":""594C1B37809840A7AB34C9801D7ABA82"",""assignmentId"":""f0b84b72-50ab-4bbf-9a82-86432b9d654e"",""projectId"":""051c06f1-75cc-4548-856d-4923ddaba0dc""}","https://test12345.live/?num_scrambled_semantic=8&num_scrambled_causal=4&num_scrambled_schematic=4&participantId=594C1B37809840A7AB34C9801D7ABA82&assignmentId=f0b84b72-50ab-4bbf-9a82-86432b9d654e&projectId=051c06f1-75cc-4548-856d-4923ddaba0dc","594C1B37809840A7AB34C9801D7ABA82-2025-05-15-18-44-02","","null","","[]","null","",""
"","","","","","image-button-response","66","228946","0.0-12.0-1.0-0.3","594C1B37809840A7AB34C9801D7ABA82","594C1B37809840A7AB34C9801D7ABA82","f0b84b72-50ab-4bbf-9a82-86432b9d654e","051c06f1-75cc-4548-856d-4923ddaba0dc","{""num_scrambled_semantic"":""8"",""num_scrambled_causal"":""4"",""num_scrambled_schematic"":""4"",""participantId"":""594C1B37809840A7AB34C9801D7ABA82"",""assignmentId"":""f0b84b72-50ab-4bbf-9a82-86432b9d654e"",""projectId"":""051c06f1-75cc-4548-856d-4923ddaba0dc""}","https://test12345.live/?num_scrambled_semantic=8&num_scrambled_causal=4&num_scrambled_schematic=4&participantId=594C1B37809840A7AB34C9801D7ABA82&assignmentId=f0b84b72-50ab-4bbf-9a82-86432b9d654e&projectId=051c06f1-75cc-4548-856d-4923ddaba0dc","594C1B37809840A7AB34C9801D7ABA82-2025-05-15-18-44-02","","null","","images/schematic_sequence/hotel_scheme/hotel_scheme_4.png","null","",""
"","","","","","image-button-response","67","229460","0.0-12.0-1.0-1.3","594C1B37809840A7AB34C9801D7ABA82","594C1B37809840A7AB34C9801D7ABA82","f0b84b72-50ab-4bbf-9a82-86432b9d654e","051c06f1-75cc-4548-856d-4923ddaba0dc","{""num_scrambled_semantic"":""8"",""num_scrambled_causal"":""4"",""num_scrambled_schematic"":""4"",""participantId"":""594C1B37809840A7AB34C9801D7ABA82"",""assignmentId"":""f0b84b72-50ab-4bbf-9a82-86432b9d654e"",""projectId"":""051c06f1-75cc-4548-856d-4923ddaba0dc""}","https://test12345.live/?num_scrambled_semantic=8&num_scrambled_causal=4&num_scrambled_schematic=4&participantId=594C1B37809840A7AB34C9801D7ABA82&assignmentId=f0b84b72-50ab-4bbf-9a82-86432b9d654e&projectId=051c06f1-75cc-4548-856d-4923ddaba0dc","594C1B37809840A7AB34C9801D7ABA82-2025-05-15-18-44-02","","513","","images/schematic_sequence/hotel_scheme/hotel_scheme_4.png","1","",""
"","","","","","image-button-response","68","231261","0.0-12.0-1.0-2.3","594C1B37809840A7AB34C9801D7ABA82","594C1B37809840A7AB34C9801D7ABA82","f0b84b72-50ab-4bbf-9a82-86432b9d654e","051c06f1-75cc-4548-856d-4923ddaba0dc","{""num_scrambled_semantic"":""8"",""num_scrambled_causal"":""4"",""num_scrambled_schematic"":""4"",""participantId"":""594C1B37809840A7AB34C9801D7ABA82"",""assignmentId"":""f0b84b72-50ab-4bbf-9a82-86432b9d654e"",""projectId"":""051c06f1-75cc-4548-856d-4923ddaba0dc""}","https://test12345.live/?num_scrambled_semantic=8&num_scrambled_causal=4&num_scrambled_schematic=4&participantId=594C1B37809840A7AB34C9801D7ABA82&assignmentId=f0b84b72-50ab-4bbf-9a82-86432b9d654e&projectId=051c06f1-75cc-4548-856d-4923ddaba0dc","594C1B37809840A7AB34C9801D7ABA82-2025-05-15-18-44-02","","null","","[]","null","",""
"","","","","","image-button-response","69","235766","0.0-12.0-1.0-0.4","594C1B37809840A7AB34C9801D7ABA82","594C1B37809840A7AB34C9801D7ABA82","f0b84b72-50ab-4bbf-9a82-86432b9d654e","051c06f1-75cc-4548-856d-4923ddaba0dc","{""num_scrambled_semantic"":""8"",""num_scrambled_causal"":""4"",""num_scrambled_schematic"":""4"",""participantId"":""594C1B37809840A7AB34C9801D7ABA82"",""assignmentId"":""f0b84b72-50ab-4bbf-9a82-86432b9d654e"",""projectId"":""051c06f1-75cc-4548-856d-4923ddaba0dc""}","https://test12345.live/?num_scrambled_semantic=8&num_scrambled_causal=4&num_scrambled_schematic=4&participantId=594C1B37809840A7AB34C9801D7ABA82&assignmentId=f0b84b72-50ab-4bbf-9a82-86432b9d654e&projectId=051c06f1-75cc-4548-856d-4923ddaba0dc","594C1B37809840A7AB34C9801D7ABA82-2025-05-15-18-44-02","","null","","images/schematic_sequence/hotel_scheme/hotel_scheme_5.png","null","",""
"","","","","","image-button-response","70","236253","0.0-12.0-1.0-1.4","594C1B37809840A7AB34C9801D7ABA82","594C1B37809840A7AB34C9801D7ABA82","f0b84b72-50ab-4bbf-9a82-86432b9d654e","051c06f1-75cc-4548-856d-4923ddaba0dc","{""num_scrambled_semantic"":""8"",""num_scrambled_causal"":""4"",""num_scrambled_schematic"":""4"",""participantId"":""594C1B37809840A7AB34C9801D7ABA82"",""assignmentId"":""f0b84b72-50ab-4bbf-9a82-86432b9d654e"",""projectId"":""051c06f1-75cc-4548-856d-4923ddaba0dc""}","https://test12345.live/?num_scrambled_semantic=8&num_scrambled_causal=4&num_scrambled_schematic=4&participantId=594C1B37809840A7AB34C9801D7ABA82&assignmentId=f0b84b72-50ab-4bbf-9a82-86432b9d654e&projectId=051c06f1-75cc-4548-856d-4923ddaba0dc","594C1B37809840A7AB34C9801D7ABA82-2025-05-15-18-44-02","","487","","images/schematic_sequence/hotel_scheme/hotel_scheme_5.png","0","",""
"","","","","","image-button-response","71","238058","0.0-12.0-1.0-2.4","594C1B37809840A7AB34C9801D7ABA82","594C1B37809840A7AB34C9801D7ABA82","f0b84b72-50ab-4bbf-9a82-86432b9d654e","051c06f1-75cc-4548-856d-4923ddaba0dc","{""num_scrambled_semantic"":""8"",""num_scrambled_causal"":""4"",""num_scrambled_schematic"":""4"",""participantId"":""594C1B37809840A7AB34C9801D7ABA82"",""assignmentId"":""f0b84b72-50ab-4bbf-9a82-86432b9d654e"",""projectId"":""051c06f1-75cc-4548-856d-4923ddaba0dc""}","https://test12345.live/?num_scrambled_semantic=8&num_scrambled_causal=4&num_scrambled_schematic=4&participantId=594C1B37809840A7AB34C9801D7ABA82&assignmentId=f0b84b72-50ab-4bbf-9a82-86432b9d654e&projectId=051c06f1-75cc-4548-856d-4923ddaba0dc","594C1B37809840A7AB34C9801D7ABA82-2025-05-15-18-44-02","","null","","[]","null","",""
"","","","","","image-button-response","72","242559","0.0-12.0-1.0-0.5","594C1B37809840A7AB34C9801D7ABA82","594C1B37809840A7AB34C9801D7ABA82","f0b84b72-50ab-4bbf-9a82-86432b9d654e","051c06f1-75cc-4548-856d-4923ddaba0dc","{""num_scrambled_semantic"":""8"",""num_scrambled_causal"":""4"",""num_scrambled_schematic"":""4"",""participantId"":""594C1B37809840A7AB34C9801D7ABA82"",""assignmentId"":""f0b84b72-50ab-4bbf-9a82-86432b9d654e"",""projectId"":""051c06f1-75cc-4548-856d-4923ddaba0dc""}","https://test12345.live/?num_scrambled_semantic=8&num_scrambled_causal=4&num_scrambled_schematic=4&participantId=594C1B37809840A7AB34C9801D7ABA82&assignmentId=f0b84b72-50ab-4bbf-9a82-86432b9d654e&projectId=051c06f1-75cc-4548-856d-4923ddaba0dc","594C1B37809840A7AB34C9801D7ABA82-2025-05-15-18-44-02","","null","","images/schematic_sequence/hotel_scheme/hotel_scheme_6.png","null","",""
"","","","","","image-button-response","73","243056","0.0-12.0-1.0-1.5","594C1B37809840A7AB34C9801D7ABA82","594C1B37809840A7AB34C9801D7ABA82","f0b84b72-50ab-4bbf-9a82-86432b9d654e","051c06f1-75cc-4548-856d-4923ddaba0dc","{""num_scrambled_semantic"":""8"",""num_scrambled_causal"":""4"",""num_scrambled_schematic"":""4"",""participantId"":""594C1B37809840A7AB34C9801D7ABA82"",""assignmentId"":""f0b84b72-50ab-4bbf-9a82-86432b9d654e"",""projectId"":""051c06f1-75cc-4548-856d-4923ddaba0dc""}","https://test12345.live/?num_scrambled_semantic=8&num_scrambled_causal=4&num_scrambled_schematic=4&participantId=594C1B37809840A7AB34C9801D7ABA82&assignmentId=f0b84b72-50ab-4bbf-9a82-86432b9d654e&projectId=051c06f1-75cc-4548-856d-4923ddaba0dc","594C1B37809840A7AB34C9801D7ABA82-2025-05-15-18-44-02","","496","","images/schematic_sequence/hotel_scheme/hotel_scheme_6.png","0","",""
"","","","","","image-button-response","74","244857","0.0-12.0-1.0-2.5","594C1B37809840A7AB34C9801D7ABA82","594C1B37809840A7AB34C9801D7ABA82","f0b84b72-50ab-4bbf-9a82-86432b9d654e","051c06f1-75cc-4548-856d-4923ddaba0dc","{""num_scrambled_semantic"":""8"",""num_scrambled_causal"":""4"",""num_scrambled_schematic"":""4"",""participantId"":""594C1B37809840A7AB34C9801D7ABA82"",""assignmentId"":""f0b84b72-50ab-4bbf-9a82-86432b9d654e"",""projectId"":""051c06f1-75cc-4548-856d-4923ddaba0dc""}","https://test12345.live/?num_scrambled_semantic=8&num_scrambled_causal=4&num_scrambled_schematic=4&participantId=594C1B37809840A7AB34C9801D7ABA82&assignmentId=f0b84b72-50ab-4bbf-9a82-86432b9d654e&projectId=051c06f1-75cc-4548-856d-4923ddaba0dc","594C1B37809840A7AB34C9801D7ABA82-2025-05-15-18-44-02","","null","","[]","null","",""
"","","","","","image-button-response","75","249363","0.0-12.0-1.0-0.6","594C1B37809840A7AB34C9801D7ABA82","594C1B37809840A7AB34C9801D7ABA82","f0b84b72-50ab-4bbf-9a82-86432b9d654e","051c06f1-75cc-4548-856d-4923ddaba0dc","{""num_scrambled_semantic"":""8"",""num_scrambled_causal"":""4"",""num_scrambled_schematic"":""4"",""participantId"":""594C1B37809840A7AB34C9801D7ABA82"",""assignmentId"":""f0b84b72-50ab-4bbf-9a82-86432b9d654e"",""projectId"":""051c06f1-75cc-4548-856d-4923ddaba0dc""}","https://test12345.live/?num_scrambled_semantic=8&num_scrambled_causal=4&num_scrambled_schematic=4&participantId=594C1B37809840A7AB34C9801D7ABA82&assignmentId=f0b84b72-50ab-4bbf-9a82-86432b9d654e&projectId=051c06f1-75cc-4548-856d-4923ddaba0dc","594C1B37809840A7AB34C9801D7ABA82-2025-05-15-18-44-02","","null","","images/schematic_sequence/hotel_scheme/hotel_scheme_7.png","null","",""
"","","","","","image-button-response","76","249902","0.0-12.0-1.0-1.6","594C1B37809840A7AB34C9801D7ABA82","594C1B37809840A7AB34C9801D7ABA82","f0b84b72-50ab-4bbf-9a82-86432b9d654e","051c06f1-75cc-4548-856d-4923ddaba0dc","{""num_scrambled_semantic"":""8"",""num_scrambled_causal"":""4"",""num_scrambled_schematic"":""4"",""participantId"":""594C1B37809840A7AB34C9801D7ABA82"",""assignmentId"":""f0b84b72-50ab-4bbf-9a82-86432b9d654e"",""projectId"":""051c06f1-75cc-4548-856d-4923ddaba0dc""}","https://test12345.live/?num_scrambled_semantic=8&num_scrambled_causal=4&num_scrambled_schematic=4&participantId=594C1B37809840A7AB34C9801D7ABA82&assignmentId=f0b84b72-50ab-4bbf-9a82-86432b9d654e&projectId=051c06f1-75cc-4548-856d-4923ddaba0dc","594C1B37809840A7AB34C9801D7ABA82-2025-05-15-18-44-02","","539","","images/schematic_sequence/hotel_scheme/hotel_scheme_7.png","0","",""
"","","","","","image-button-response","77","251703","0.0-12.0-1.0-2.6","594C1B37809840A7AB34C9801D7ABA82","594C1B37809840A7AB34C9801D7ABA82","f0b84b72-50ab-4bbf-9a82-86432b9d654e","051c06f1-75cc-4548-856d-4923ddaba0dc","{""num_scrambled_semantic"":""8"",""num_scrambled_causal"":""4"",""num_scrambled_schematic"":""4"",""participantId"":""594C1B37809840A7AB34C9801D7ABA82"",""assignmentId"":""f0b84b72-50ab-4bbf-9a82-86432b9d654e"",""projectId"":""051c06f1-75cc-4548-856d-4923ddaba0dc""}","https://test12345.live/?num_scrambled_semantic=8&num_scrambled_causal=4&num_scrambled_schematic=4&participantId=594C1B37809840A7AB34C9801D7ABA82&assignmentId=f0b84b72-50ab-4bbf-9a82-86432b9d654e&projectId=051c06f1-75cc-4548-856d-4923ddaba0dc","594C1B37809840A7AB34C9801D7ABA82-2025-05-15-18-44-02","","null","","[]","null","",""
"","","","","","image-button-response","78","256210","0.0-12.0-1.0-0.7","594C1B37809840A7AB34C9801D7ABA82","594C1B37809840A7AB34C9801D7ABA82","f0b84b72-50ab-4bbf-9a82-86432b9d654e","051c06f1-75cc-4548-856d-4923ddaba0dc","{""num_scrambled_semantic"":""8"",""num_scrambled_causal"":""4"",""num_scrambled_schematic"":""4"",""participantId"":""594C1B37809840A7AB34C9801D7ABA82"",""assignmentId"":""f0b84b72-50ab-4bbf-9a82-86432b9d654e"",""projectId"":""051c06f1-75cc-4548-856d-4923ddaba0dc""}","https://test12345.live/?num_scrambled_semantic=8&num_scrambled_causal=4&num_scrambled_schematic=4&participantId=594C1B37809840A7AB34C9801D7ABA82&assignmentId=f0b84b72-50ab-4bbf-9a82-86432b9d654e&projectId=051c06f1-75cc-4548-856d-4923ddaba0dc","594C1B37809840A7AB34C9801D7ABA82-2025-05-15-18-44-02","","null","","images/schematic_sequence/hotel_scheme/hotel_scheme_8.png","null","",""
"","","","","","image-button-response","79","256664","0.0-12.0-1.0-1.7","594C1B37809840A7AB34C9801D7ABA82","594C1B37809840A7AB34C9801D7ABA82","f0b84b72-50ab-4bbf-9a82-86432b9d654e","051c06f1-75cc-4548-856d-4923ddaba0dc","{""num_scrambled_semantic"":""8"",""num_scrambled_causal"":""4"",""num_scrambled_schematic"":""4"",""participantId"":""594C1B37809840A7AB34C9801D7ABA82"",""assignmentId"":""f0b84b72-50ab-4bbf-9a82-86432b9d654e"",""projectId"":""051c06f1-75cc-4548-856d-4923ddaba0dc""}","https://test12345.live/?num_scrambled_semantic=8&num_scrambled_causal=4&num_scrambled_schematic=4&participantId=594C1B37809840A7AB34C9801D7ABA82&assignmentId=f0b84b72-50ab-4bbf-9a82-86432b9d654e&projectId=051c06f1-75cc-4548-856d-4923ddaba0dc","594C1B37809840A7AB34C9801D7ABA82-2025-05-15-18-44-02","","453","","images/schematic_sequence/hotel_scheme/hotel_scheme_8.png","0","",""
"","","","","","image-button-response","80","258466","0.0-12.0-1.0-2.7","594C1B37809840A7AB34C9801D7ABA82","594C1B37809840A7AB34C9801D7ABA82","f0b84b72-50ab-4bbf-9a82-86432b9d654e","051c06f1-75cc-4548-856d-4923ddaba0dc","{""num_scrambled_semantic"":""8"",""num_scrambled_causal"":""4"",""num_scrambled_schematic"":""4"",""participantId"":""594C1B37809840A7AB34C9801D7ABA82"",""assignmentId"":""f0b84b72-50ab-4bbf-9a82-86432b9d654e"",""projectId"":""051c06f1-75cc-4548-856d-4923ddaba0dc""}","https://test12345.live/?num_scrambled_semantic=8&num_scrambled_causal=4&num_scrambled_schematic=4&participantId=594C1B37809840A7AB34C9801D7ABA82&assignmentId=f0b84b72-50ab-4bbf-9a82-86432b9d654e&projectId=051c06f1-75cc-4548-856d-4923ddaba0dc","594C1B37809840A7AB34C9801D7ABA82-2025-05-15-18-44-02","","null","","[]","null","",""
"","","","","","image-button-response","81","262973","0.0-12.0-1.0-0.8","594C1B37809840A7AB34C9801D7ABA82","594C1B37809840A7AB34C9801D7ABA82","f0b84b72-50ab-4bbf-9a82-86432b9d654e","051c06f1-75cc-4548-856d-4923ddaba0dc","{""num_scrambled_semantic"":""8"",""num_scrambled_causal"":""4"",""num_scrambled_schematic"":""4"",""participantId"":""594C1B37809840A7AB34C9801D7ABA82"",""assignmentId"":""f0b84b72-50ab-4bbf-9a82-86432b9d654e"",""projectId"":""051c06f1-75cc-4548-856d-4923ddaba0dc""}","https://test12345.live/?num_scrambled_semantic=8&num_scrambled_causal=4&num_scrambled_schematic=4&participantId=594C1B37809840A7AB34C9801D7ABA82&assignmentId=f0b84b72-50ab-4bbf-9a82-86432b9d654e&projectId=051c06f1-75cc-4548-856d-4923ddaba0dc","594C1B37809840A7AB34C9801D7ABA82-2025-05-15-18-44-02","","null","","images/schematic_sequence/hotel_scheme/hotel_scheme_9.png","null","",""
"","","","","","image-button-response","82","263451","0.0-12.0-1.0-1.8","594C1B37809840A7AB34C9801D7ABA82","594C1B37809840A7AB34C9801D7ABA82","f0b84b72-50ab-4bbf-9a82-86432b9d654e","051c06f1-75cc-4548-856d-4923ddaba0dc","{""num_scrambled_semantic"":""8"",""num_scrambled_causal"":""4"",""num_scrambled_schematic"":""4"",""participantId"":""594C1B37809840A7AB34C9801D7ABA82"",""assignmentId"":""f0b84b72-50ab-4bbf-9a82-86432b9d654e"",""projectId"":""051c06f1-75cc-4548-856d-4923ddaba0dc""}","https://test12345.live/?num_scrambled_semantic=8&num_scrambled_causal=4&num_scrambled_schematic=4&participantId=594C1B37809840A7AB34C9801D7ABA82&assignmentId=f0b84b72-50ab-4bbf-9a82-86432b9d654e&projectId=051c06f1-75cc-4548-856d-4923ddaba0dc","594C1B37809840A7AB34C9801D7ABA82-2025-05-15-18-44-02","","477","","images/schematic_sequence/hotel_scheme/hotel_scheme_9.png","0","",""
"","","","","","image-button-response","83","265251","0.0-12.0-1.0-2.8","594C1B37809840A7AB34C9801D7ABA82","594C1B37809840A7AB34C9801D7ABA82","f0b84b72-50ab-4bbf-9a82-86432b9d654e","051c06f1-75cc-4548-856d-4923ddaba0dc","{""num_scrambled_semantic"":""8"",""num_scrambled_causal"":""4"",""num_scrambled_schematic"":""4"",""participantId"":""594C1B37809840A7AB34C9801D7ABA82"",""assignmentId"":""f0b84b72-50ab-4bbf-9a82-86432b9d654e"",""projectId"":""051c06f1-75cc-4548-856d-4923ddaba0dc""}","https://test12345.live/?num_scrambled_semantic=8&num_scrambled_causal=4&num_scrambled_schematic=4&participantId=594C1B37809840A7AB34C9801D7ABA82&assignmentId=f0b84b72-50ab-4bbf-9a82-86432b9d654e&projectId=051c06f1-75cc-4548-856d-4923ddaba0dc","594C1B37809840A7AB34C9801D7ABA82-2025-05-15-18-44-02","","null","","[]","null","",""
"","","","","","image-button-response","84","269753","0.0-12.0-1.0-0.9","594C1B37809840A7AB34C9801D7ABA82","594C1B37809840A7AB34C9801D7ABA82","f0b84b72-50ab-4bbf-9a82-86432b9d654e","051c06f1-75cc-4548-856d-4923ddaba0dc","{""num_scrambled_semantic"":""8"",""num_scrambled_causal"":""4"",""num_scrambled_schematic"":""4"",""participantId"":""594C1B37809840A7AB34C9801D7ABA82"",""assignmentId"":""f0b84b72-50ab-4bbf-9a82-86432b9d654e"",""projectId"":""051c06f1-75cc-4548-856d-4923ddaba0dc""}","https://test12345.live/?num_scrambled_semantic=8&num_scrambled_causal=4&num_scrambled_schematic=4&participantId=594C1B37809840A7AB34C9801D7ABA82&assignmentId=f0b84b72-50ab-4bbf-9a82-86432b9d654e&projectId=051c06f1-75cc-4548-856d-4923ddaba0dc","594C1B37809840A7AB34C9801D7ABA82-2025-05-15-18-44-02","","null","","images/schematic_sequence/hotel_scheme/hotel_scheme_ten.png","null","",""
"","","","","","image-button-response","85","270315","0.0-12.0-1.0-1.9","594C1B37809840A7AB34C9801D7ABA82","594C1B37809840A7AB34C9801D7ABA82","f0b84b72-50ab-4bbf-9a82-86432b9d654e","051c06f1-75cc-4548-856d-4923ddaba0dc","{""num_scrambled_semantic"":""8"",""num_scrambled_causal"":""4"",""num_scrambled_schematic"":""4"",""participantId"":""594C1B37809840A7AB34C9801D7ABA82"",""assignmentId"":""f0b84b72-50ab-4bbf-9a82-86432b9d654e"",""projectId"":""051c06f1-75cc-4548-856d-4923ddaba0dc""}","https://test12345.live/?num_scrambled_semantic=8&num_scrambled_causal=4&num_scrambled_schematic=4&participantId=594C1B37809840A7AB34C9801D7ABA82&assignmentId=f0b84b72-50ab-4bbf-9a82-86432b9d654e&projectId=051c06f1-75cc-4548-856d-4923ddaba0dc","594C1B37809840A7AB34C9801D7ABA82-2025-05-15-18-44-02","","562","","images/schematic_sequence/hotel_scheme/hotel_scheme_ten.png","0","",""
"","","","","","image-button-response","86","272119","0.0-12.0-1.0-2.9","594C1B37809840A7AB34C9801D7ABA82","594C1B37809840A7AB34C9801D7ABA82","f0b84b72-50ab-4bbf-9a82-86432b9d654e","051c06f1-75cc-4548-856d-4923ddaba0dc","{""num_scrambled_semantic"":""8"",""num_scrambled_causal"":""4"",""num_scrambled_schematic"":""4"",""participantId"":""594C1B37809840A7AB34C9801D7ABA82"",""assignmentId"":""f0b84b72-50ab-4bbf-9a82-86432b9d654e"",""projectId"":""051c06f1-75cc-4548-856d-4923ddaba0dc""}","https://test12345.live/?num_scrambled_semantic=8&num_scrambled_causal=4&num_scrambled_schematic=4&participantId=594C1B37809840A7AB34C9801D7ABA82&assignmentId=f0b84b72-50ab-4bbf-9a82-86432b9d654e&projectId=051c06f1-75cc-4548-856d-4923ddaba0dc","594C1B37809840A7AB34C9801D7ABA82-2025-05-15-18-44-02","","null","","[]","null","",""
"","","","","","html-audio-response","87","287314","0.0-13.0","594C1B37809840A7AB34C9801D7ABA82","594C1B37809840A7AB34C9801D7ABA82","f0b84b72-50ab-4bbf-9a82-86432b9d654e","051c06f1-75cc-4548-856d-4923ddaba0dc","{""num_scrambled_semantic"":""8"",""num_scrambled_causal"":""4"",""num_scrambled_schematic"":""4"",""participantId"":""594C1B37809840A7AB34C9801D7ABA82"",""assignmentId"":""f0b84b72-50ab-4bbf-9a82-86432b9d654e"",""projectId"":""051c06f1-75cc-4548-856d-4923ddaba0dc""}","https://test12345.live/?num_scrambled_semantic=8&num_scrambled_causal=4&num_scrambled_schematic=4&participantId=594C1B37809840A7AB34C9801D7ABA82&assignmentId=f0b84b72-50ab-4bbf-9a82-86432b9d654e&projectId=051c06f1-75cc-4548-856d-4923ddaba0dc","594C1B37809840A7AB34C9801D7ABA82-2025-05-15-18-44-02","","11395","","[""<span style=\""color: red; font-size: 24px\""> NOW RECORDING</span><p>Please say out loud all the images you saw, as many as you can remember. The images can be said in any order.</p>""]","","3","hotel_scheme"
"","","","","","image-button-response","88","293320","0.0-14.0-0.0","594C1B37809840A7AB34C9801D7ABA82","594C1B37809840A7AB34C9801D7ABA82","f0b84b72-50ab-4bbf-9a82-86432b9d654e","051c06f1-75cc-4548-856d-4923ddaba0dc","{""num_scrambled_semantic"":""8"",""num_scrambled_causal"":""4"",""num_scrambled_schematic"":""4"",""participantId"":""594C1B37809840A7AB34C9801D7ABA82"",""assignmentId"":""f0b84b72-50ab-4bbf-9a82-86432b9d654e"",""projectId"":""051c06f1-75cc-4548-856d-4923ddaba0dc""}","https://test12345.live/?num_scrambled_semantic=8&num_scrambled_causal=4&num_scrambled_schematic=4&participantId=594C1B37809840A7AB34C9801D7ABA82&assignmentId=f0b84b72-50ab-4bbf-9a82-86432b9d654e&projectId=051c06f1-75cc-4548-856d-4923ddaba0dc","594C1B37809840A7AB34C9801D7ABA82-2025-05-15-18-44-02","","null","","images/schematic_sequence/interview_scheme/interview_scheme_0.png","null","",""
"","","","","","image-button-response","89","297821","0.0-14.0-1.0-0.0","594C1B37809840A7AB34C9801D7ABA82","594C1B37809840A7AB34C9801D7ABA82","f0b84b72-50ab-4bbf-9a82-86432b9d654e","051c06f1-75cc-4548-856d-4923ddaba0dc","{""num_scrambled_semantic"":""8"",""num_scrambled_causal"":""4"",""num_scrambled_schematic"":""4"",""participantId"":""594C1B37809840A7AB34C9801D7ABA82"",""assignmentId"":""f0b84b72-50ab-4bbf-9a82-86432b9d654e"",""projectId"":""051c06f1-75cc-4548-856d-4923ddaba0dc""}","https://test12345.live/?num_scrambled_semantic=8&num_scrambled_causal=4&num_scrambled_schematic=4&participantId=594C1B37809840A7AB34C9801D7ABA82&assignmentId=f0b84b72-50ab-4bbf-9a82-86432b9d654e&projectId=051c06f1-75cc-4548-856d-4923ddaba0dc","594C1B37809840A7AB34C9801D7ABA82-2025-05-15-18-44-02","","null","","images/schematic_sequence/interview_scheme/interview_scheme_3.png","null","",""
"","","","","","image-button-response","90","298716","0.0-14.0-1.0-1.0","594C1B37809840A7AB34C9801D7ABA82","594C1B37809840A7AB34C9801D7ABA82","f0b84b72-50ab-4bbf-9a82-86432b9d654e","051c06f1-75cc-4548-856d-4923ddaba0dc","{""num_scrambled_semantic"":""8"",""num_scrambled_causal"":""4"",""num_scrambled_schematic"":""4"",""participantId"":""594C1B37809840A7AB34C9801D7ABA82"",""assignmentId"":""f0b84b72-50ab-4bbf-9a82-86432b9d654e"",""projectId"":""051c06f1-75cc-4548-856d-4923ddaba0dc""}","https://test12345.live/?num_scrambled_semantic=8&num_scrambled_causal=4&num_scrambled_schematic=4&participantId=594C1B37809840A7AB34C9801D7ABA82&assignmentId=f0b84b72-50ab-4bbf-9a82-86432b9d654e&projectId=051c06f1-75cc-4548-856d-4923ddaba0dc","594C1B37809840A7AB34C9801D7ABA82-2025-05-15-18-44-02","","894","","images/schematic_sequence/interview_scheme/interview_scheme_3.png","1","",""
"","","","","","image-button-response","91","300521","0.0-14.0-1.0-2.0","594C1B37809840A7AB34C9801D7ABA82","594C1B37809840A7AB34C9801D7ABA82","f0b84b72-50ab-4bbf-9a82-86432b9d654e","051c06f1-75cc-4548-856d-4923ddaba0dc","{""num_scrambled_semantic"":""8"",""num_scrambled_causal"":""4"",""num_scrambled_schematic"":""4"",""participantId"":""594C1B37809840A7AB34C9801D7ABA82"",""assignmentId"":""f0b84b72-50ab-4bbf-9a82-86432b9d654e"",""projectId"":""051c06f1-75cc-4548-856d-4923ddaba0dc""}","https://test12345.live/?num_scrambled_semantic=8&num_scrambled_causal=4&num_scrambled_schematic=4&participantId=594C1B37809840A7AB34C9801D7ABA82&assignmentId=f0b84b72-50ab-4bbf-9a82-86432b9d654e&projectId=051c06f1-75cc-4548-856d-4923ddaba0dc","594C1B37809840A7AB34C9801D7ABA82-2025-05-15-18-44-02","","null","","[]","null","",""
"","","","","","image-button-response","92","305028","0.0-14.0-1.0-0.1","594C1B37809840A7AB34C9801D7ABA82","594C1B37809840A7AB34C9801D7ABA82","f0b84b72-50ab-4bbf-9a82-86432b9d654e","051c06f1-75cc-4548-856d-4923ddaba0dc","{""num_scrambled_semantic"":""8"",""num_scrambled_causal"":""4"",""num_scrambled_schematic"":""4"",""participantId"":""594C1B37809840A7AB34C9801D7ABA82"",""assignmentId"":""f0b84b72-50ab-4bbf-9a82-86432b9d654e"",""projectId"":""051c06f1-75cc-4548-856d-4923ddaba0dc""}","https://test12345.live/?num_scrambled_semantic=8&num_scrambled_causal=4&num_scrambled_schematic=4&participantId=594C1B37809840A7AB34C9801D7ABA82&assignmentId=f0b84b72-50ab-4bbf-9a82-86432b9d654e&projectId=051c06f1-75cc-4548-856d-4923ddaba0dc","594C1B37809840A7AB34C9801D7ABA82-2025-05-15-18-44-02","","null","","images/schematic_sequence/interview_scheme/interview_scheme_6.png","null","",""
"","","","","","image-button-response","93","306050","0.0-14.0-1.0-1.1","594C1B37809840A7AB34C9801D7ABA82","594C1B37809840A7AB34C9801D7ABA82","f0b84b72-50ab-4bbf-9a82-86432b9d654e","051c06f1-75cc-4548-856d-4923ddaba0dc","{""num_scrambled_semantic"":""8"",""num_scrambled_causal"":""4"",""num_scrambled_schematic"":""4"",""participantId"":""594C1B37809840A7AB34C9801D7ABA82"",""assignmentId"":""f0b84b72-50ab-4bbf-9a82-86432b9d654e"",""projectId"":""051c06f1-75cc-4548-856d-4923ddaba0dc""}","https://test12345.live/?num_scrambled_semantic=8&num_scrambled_causal=4&num_scrambled_schematic=4&participantId=594C1B37809840A7AB34C9801D7ABA82&assignmentId=f0b84b72-50ab-4bbf-9a82-86432b9d654e&projectId=051c06f1-75cc-4548-856d-4923ddaba0dc","594C1B37809840A7AB34C9801D7ABA82-2025-05-15-18-44-02","","1021","","images/schematic_sequence/interview_scheme/interview_scheme_6.png","0","",""
"","","","","","image-button-response","94","307851","0.0-14.0-1.0-2.1","594C1B37809840A7AB34C9801D7ABA82","594C1B37809840A7AB34C9801D7ABA82","f0b84b72-50ab-4bbf-9a82-86432b9d654e","051c06f1-75cc-4548-856d-4923ddaba0dc","{""num_scrambled_semantic"":""8"",""num_scrambled_causal"":""4"",""num_scrambled_schematic"":""4"",""participantId"":""594C1B37809840A7AB34C9801D7ABA82"",""assignmentId"":""f0b84b72-50ab-4bbf-9a82-86432b9d654e"",""projectId"":""051c06f1-75cc-4548-856d-4923ddaba0dc""}","https://test12345.live/?num_scrambled_semantic=8&num_scrambled_causal=4&num_scrambled_schematic=4&participantId=594C1B37809840A7AB34C9801D7ABA82&assignmentId=f0b84b72-50ab-4bbf-9a82-86432b9d654e&projectId=051c06f1-75cc-4548-856d-4923ddaba0dc","594C1B37809840A7AB34C9801D7ABA82-2025-05-15-18-44-02","","null","","[]","null","",""
"","","","","","image-button-response","95","312352","0.0-14.0-1.0-0.2","594C1B37809840A7AB34C9801D7ABA82","594C1B37809840A7AB34C9801D7ABA82","f0b84b72-50ab-4bbf-9a82-86432b9d654e","051c06f1-75cc-4548-856d-4923ddaba0dc","{""num_scrambled_semantic"":""8"",""num_scrambled_causal"":""4"",""num_scrambled_schematic"":""4"",""participantId"":""594C1B37809840A7AB34C9801D7ABA82"",""assignmentId"":""f0b84b72-50ab-4bbf-9a82-86432b9d654e"",""projectId"":""051c06f1-75cc-4548-856d-4923ddaba0dc""}","https://test12345.live/?num_scrambled_semantic=8&num_scrambled_causal=4&num_scrambled_schematic=4&participantId=594C1B37809840A7AB34C9801D7ABA82&assignmentId=f0b84b72-50ab-4bbf-9a82-86432b9d654e&projectId=051c06f1-75cc-4548-856d-4923ddaba0dc","594C1B37809840A7AB34C9801D7ABA82-2025-05-15-18-44-02","","null","","images/schematic_sequence/interview_scheme/interview_scheme_5.png","null","",""
"","","","","","image-button-response","96","312839","0.0-14.0-1.0-1.2","594C1B37809840A7AB34C9801D7ABA82","594C1B37809840A7AB34C9801D7ABA82","f0b84b72-50ab-4bbf-9a82-86432b9d654e","051c06f1-75cc-4548-856d-4923ddaba0dc","{""num_scrambled_semantic"":""8"",""num_scrambled_causal"":""4"",""num_scrambled_schematic"":""4"",""participantId"":""594C1B37809840A7AB34C9801D7ABA82"",""assignmentId"":""f0b84b72-50ab-4bbf-9a82-86432b9d654e"",""projectId"":""051c06f1-75cc-4548-856d-4923ddaba0dc""}","https://test12345.live/?num_scrambled_semantic=8&num_scrambled_causal=4&num_scrambled_schematic=4&participantId=594C1B37809840A7AB34C9801D7ABA82&assignmentId=f0b84b72-50ab-4bbf-9a82-86432b9d654e&projectId=051c06f1-75cc-4548-856d-4923ddaba0dc","594C1B37809840A7AB34C9801D7ABA82-2025-05-15-18-44-02","","487","","images/schematic_sequence/interview_scheme/interview_scheme_5.png","0","",""
"","","","","","image-button-response","97","314643","0.0-14.0-1.0-2.2","594C1B37809840A7AB34C9801D7ABA82","594C1B37809840A7AB34C9801D7ABA82","f0b84b72-50ab-4bbf-9a82-86432b9d654e","051c06f1-75cc-4548-856d-4923ddaba0dc","{""num_scrambled_semantic"":""8"",""num_scrambled_causal"":""4"",""num_scrambled_schematic"":""4"",""participantId"":""594C1B37809840A7AB34C9801D7ABA82"",""assignmentId"":""f0b84b72-50ab-4bbf-9a82-86432b9d654e"",""projectId"":""051c06f1-75cc-4548-856d-4923ddaba0dc""}","https://test12345.live/?num_scrambled_semantic=8&num_scrambled_causal=4&num_scrambled_schematic=4&participantId=594C1B37809840A7AB34C9801D7ABA82&assignmentId=f0b84b72-50ab-4bbf-9a82-86432b9d654e&projectId=051c06f1-75cc-4548-856d-4923ddaba0dc","594C1B37809840A7AB34C9801D7ABA82-2025-05-15-18-44-02","","null","","[]","null","",""
"","","","","","image-button-response","98","319146","0.0-14.0-1.0-0.3","594C1B37809840A7AB34C9801D7ABA82","594C1B37809840A7AB34C9801D7ABA82","f0b84b72-50ab-4bbf-9a82-86432b9d654e","051c06f1-75cc-4548-856d-4923ddaba0dc","{""num_scrambled_semantic"":""8"",""num_scrambled_causal"":""4"",""num_scrambled_schematic"":""4"",""participantId"":""594C1B37809840A7AB34C9801D7ABA82"",""assignmentId"":""f0b84b72-50ab-4bbf-9a82-86432b9d654e"",""projectId"":""051c06f1-75cc-4548-856d-4923ddaba0dc""}","https://test12345.live/?num_scrambled_semantic=8&num_scrambled_causal=4&num_scrambled_schematic=4&participantId=594C1B37809840A7AB34C9801D7ABA82&assignmentId=f0b84b72-50ab-4bbf-9a82-86432b9d654e&projectId=051c06f1-75cc-4548-856d-4923ddaba0dc","594C1B37809840A7AB34C9801D7ABA82-2025-05-15-18-44-02","","null","","images/schematic_sequence/interview_scheme/interview_scheme_8.png","null","",""
"","","","","","image-button-response","99","319613","0.0-14.0-1.0-1.3","594C1B37809840A7AB34C9801D7ABA82","594C1B37809840A7AB34C9801D7ABA82","f0b84b72-50ab-4bbf-9a82-86432b9d654e","051c06f1-75cc-4548-856d-4923ddaba0dc","{""num_scrambled_semantic"":""8"",""num_scrambled_causal"":""4"",""num_scrambled_schematic"":""4"",""participantId"":""594C1B37809840A7AB34C9801D7ABA82"",""assignmentId"":""f0b84b72-50ab-4bbf-9a82-86432b9d654e"",""projectId"":""051c06f1-75cc-4548-856d-4923ddaba0dc""}","https://test12345.live/?num_scrambled_semantic=8&num_scrambled_causal=4&num_scrambled_schematic=4&participantId=594C1B37809840A7AB34C9801D7ABA82&assignmentId=f0b84b72-50ab-4bbf-9a82-86432b9d654e&projectId=051c06f1-75cc-4548-856d-4923ddaba0dc","594C1B37809840A7AB34C9801D7ABA82-2025-05-15-18-44-02","","467","","images/schematic_sequence/interview_scheme/interview_scheme_8.png","0","",""
"","","","","","image-button-response","100","321417","0.0-14.0-1.0-2.3","594C1B37809840A7AB34C9801D7ABA82","594C1B37809840A7AB34C9801D7ABA82","f0b84b72-50ab-4bbf-9a82-86432b9d654e","051c06f1-75cc-4548-856d-4923ddaba0dc","{""num_scrambled_semantic"":""8"",""num_scrambled_causal"":""4"",""num_scrambled_schematic"":""4"",""participantId"":""594C1B37809840A7AB34C9801D7ABA82"",""assignmentId"":""f0b84b72-50ab-4bbf-9a82-86432b9d654e"",""projectId"":""051c06f1-75cc-4548-856d-4923ddaba0dc""}","https://test12345.live/?num_scrambled_semantic=8&num_scrambled_causal=4&num_scrambled_schematic=4&participantId=594C1B37809840A7AB34C9801D7ABA82&assignmentId=f0b84b72-50ab-4bbf-9a82-86432b9d654e&projectId=051c06f1-75cc-4548-856d-4923ddaba0dc","594C1B37809840A7AB34C9801D7ABA82-2025-05-15-18-44-02","","null","","[]","null","",""
"","","","","","image-button-response","101","325923","0.0-14.0-1.0-0.4","594C1B37809840A7AB34C9801D7ABA82","594C1B37809840A7AB34C9801D7ABA82","f0b84b72-50ab-4bbf-9a82-86432b9d654e","051c06f1-75cc-4548-856d-4923ddaba0dc","{""num_scrambled_semantic"":""8"",""num_scrambled_causal"":""4"",""num_scrambled_schematic"":""4"",""participantId"":""594C1B37809840A7AB34C9801D7ABA82"",""assignmentId"":""f0b84b72-50ab-4bbf-9a82-86432b9d654e"",""projectId"":""051c06f1-75cc-4548-856d-4923ddaba0dc""}","https://test12345.live/?num_scrambled_semantic=8&num_scrambled_causal=4&num_scrambled_schematic=4&participantId=594C1B37809840A7AB34C9801D7ABA82&assignmentId=f0b84b72-50ab-4bbf-9a82-86432b9d654e&projectId=051c06f1-75cc-4548-856d-4923ddaba0dc","594C1B37809840A7AB34C9801D7ABA82-2025-05-15-18-44-02","","null","","images/schematic_sequence/interview_scheme/interview_scheme_1.png","null","",""
"","","","","","image-button-response","102","326406","0.0-14.0-1.0-1.4","594C1B37809840A7AB34C9801D7ABA82","594C1B37809840A7AB34C9801D7ABA82","f0b84b72-50ab-4bbf-9a82-86432b9d654e","051c06f1-75cc-4548-856d-4923ddaba0dc","{""num_scrambled_semantic"":""8"",""num_scrambled_causal"":""4"",""num_scrambled_schematic"":""4"",""participantId"":""594C1B37809840A7AB34C9801D7ABA82"",""assignmentId"":""f0b84b72-50ab-4bbf-9a82-86432b9d654e"",""projectId"":""051c06f1-75cc-4548-856d-4923ddaba0dc""}","https://test12345.live/?num_scrambled_semantic=8&num_scrambled_causal=4&num_scrambled_schematic=4&participantId=594C1B37809840A7AB34C9801D7ABA82&assignmentId=f0b84b72-50ab-4bbf-9a82-86432b9d654e&projectId=051c06f1-75cc-4548-856d-4923ddaba0dc","594C1B37809840A7AB34C9801D7ABA82-2025-05-15-18-44-02","","482","","images/schematic_sequence/interview_scheme/interview_scheme_1.png","1","",""
"","","","","","image-button-response","103","328208","0.0-14.0-1.0-2.4","594C1B37809840A7AB34C9801D7ABA82","594C1B37809840A7AB34C9801D7ABA82","f0b84b72-50ab-4bbf-9a82-86432b9d654e","051c06f1-75cc-4548-856d-4923ddaba0dc","{""num_scrambled_semantic"":""8"",""num_scrambled_causal"":""4"",""num_scrambled_schematic"":""4"",""participantId"":""594C1B37809840A7AB34C9801D7ABA82"",""assignmentId"":""f0b84b72-50ab-4bbf-9a82-86432b9d654e"",""projectId"":""051c06f1-75cc-4548-856d-4923ddaba0dc""}","https://test12345.live/?num_scrambled_semantic=8&num_scrambled_causal=4&num_scrambled_schematic=4&participantId=594C1B37809840A7AB34C9801D7ABA82&assignmentId=f0b84b72-50ab-4bbf-9a82-86432b9d654e&projectId=051c06f1-75cc-4548-856d-4923ddaba0dc","594C1B37809840A7AB34C9801D7ABA82-2025-05-15-18-44-02","","null","","[]","null","",""
"","","","","","image-button-response","104","332715","0.0-14.0-1.0-0.5","594C1B37809840A7AB34C9801D7ABA82","594C1B37809840A7AB34C9801D7ABA82","f0b84b72-50ab-4bbf-9a82-86432b9d654e","051c06f1-75cc-4548-856d-4923ddaba0dc","{""num_scrambled_semantic"":""8"",""num_scrambled_causal"":""4"",""num_scrambled_schematic"":""4"",""participantId"":""594C1B37809840A7AB34C9801D7ABA82"",""assignmentId"":""f0b84b72-50ab-4bbf-9a82-86432b9d654e"",""projectId"":""051c06f1-75cc-4548-856d-4923ddaba0dc""}","https://test12345.live/?num_scrambled_semantic=8&num_scrambled_causal=4&num_scrambled_schematic=4&participantId=594C1B37809840A7AB34C9801D7ABA82&assignmentId=f0b84b72-50ab-4bbf-9a82-86432b9d654e&projectId=051c06f1-75cc-4548-856d-4923ddaba0dc","594C1B37809840A7AB34C9801D7ABA82-2025-05-15-18-44-02","","null","","images/schematic_sequence/interview_scheme/interview_scheme_ten.png","null","",""
"","","","","","image-button-response","105","333191","0.0-14.0-1.0-1.5","594C1B37809840A7AB34C9801D7ABA82","594C1B37809840A7AB34C9801D7ABA82","f0b84b72-50ab-4bbf-9a82-86432b9d654e","051c06f1-75cc-4548-856d-4923ddaba0dc","{""num_scrambled_semantic"":""8"",""num_scrambled_causal"":""4"",""num_scrambled_schematic"":""4"",""participantId"":""594C1B37809840A7AB34C9801D7ABA82"",""assignmentId"":""f0b84b72-50ab-4bbf-9a82-86432b9d654e"",""projectId"":""051c06f1-75cc-4548-856d-4923ddaba0dc""}","https://test12345.live/?num_scrambled_semantic=8&num_scrambled_causal=4&num_scrambled_schematic=4&participantId=594C1B37809840A7AB34C9801D7ABA82&assignmentId=f0b84b72-50ab-4bbf-9a82-86432b9d654e&projectId=051c06f1-75cc-4548-856d-4923ddaba0dc","594C1B37809840A7AB34C9801D7ABA82-2025-05-15-18-44-02","","475","","images/schematic_sequence/interview_scheme/interview_scheme_ten.png","0","",""
"","","","","","image-button-response","106","334993","0.0-14.0-1.0-2.5","594C1B37809840A7AB34C9801D7ABA82","594C1B37809840A7AB34C9801D7ABA82","f0b84b72-50ab-4bbf-9a82-86432b9d654e","051c06f1-75cc-4548-856d-4923ddaba0dc","{""num_scrambled_semantic"":""8"",""num_scrambled_causal"":""4"",""num_scrambled_schematic"":""4"",""participantId"":""594C1B37809840A7AB34C9801D7ABA82"",""assignmentId"":""f0b84b72-50ab-4bbf-9a82-86432b9d654e"",""projectId"":""051c06f1-75cc-4548-856d-4923ddaba0dc""}","https://test12345.live/?num_scrambled_semantic=8&num_scrambled_causal=4&num_scrambled_schematic=4&participantId=594C1B37809840A7AB34C9801D7ABA82&assignmentId=f0b84b72-50ab-4bbf-9a82-86432b9d654e&projectId=051c06f1-75cc-4548-856d-4923ddaba0dc","594C1B37809840A7AB34C9801D7ABA82-2025-05-15-18-44-02","","null","","[]","null","",""
"","","","","","image-button-response","107","339499","0.0-14.0-1.0-0.6","594C1B37809840A7AB34C9801D7ABA82","594C1B37809840A7AB34C9801D7ABA82","f0b84b72-50ab-4bbf-9a82-86432b9d654e","051c06f1-75cc-4548-856d-4923ddaba0dc","{""num_scrambled_semantic"":""8"",""num_scrambled_causal"":""4"",""num_scrambled_schematic"":""4"",""participantId"":""594C1B37809840A7AB34C9801D7ABA82"",""assignmentId"":""f0b84b72-50ab-4bbf-9a82-86432b9d654e"",""projectId"":""051c06f1-75cc-4548-856d-4923ddaba0dc""}","https://test12345.live/?num_scrambled_semantic=8&num_scrambled_causal=4&num_scrambled_schematic=4&participantId=594C1B37809840A7AB34C9801D7ABA82&assignmentId=f0b84b72-50ab-4bbf-9a82-86432b9d654e&projectId=051c06f1-75cc-4548-856d-4923ddaba0dc","594C1B37809840A7AB34C9801D7ABA82-2025-05-15-18-44-02","","null","","images/schematic_sequence/interview_scheme/interview_scheme_4.png","null","",""
"","","","","","image-button-response","108","339954","0.0-14.0-1.0-1.6","594C1B37809840A7AB34C9801D7ABA82","594C1B37809840A7AB34C9801D7ABA82","f0b84b72-50ab-4bbf-9a82-86432b9d654e","051c06f1-75cc-4548-856d-4923ddaba0dc","{""num_scrambled_semantic"":""8"",""num_scrambled_causal"":""4"",""num_scrambled_schematic"":""4"",""participantId"":""594C1B37809840A7AB34C9801D7ABA82"",""assignmentId"":""f0b84b72-50ab-4bbf-9a82-86432b9d654e"",""projectId"":""051c06f1-75cc-4548-856d-4923ddaba0dc""}","https://test12345.live/?num_scrambled_semantic=8&num_scrambled_causal=4&num_scrambled_schematic=4&participantId=594C1B37809840A7AB34C9801D7ABA82&assignmentId=f0b84b72-50ab-4bbf-9a82-86432b9d654e&projectId=051c06f1-75cc-4548-856d-4923ddaba0dc","594C1B37809840A7AB34C9801D7ABA82-2025-05-15-18-44-02","","454","","images/schematic_sequence/interview_scheme/interview_scheme_4.png","1","",""
"","","","","","image-button-response","109","341757","0.0-14.0-1.0-2.6","594C1B37809840A7AB34C9801D7ABA82","594C1B37809840A7AB34C9801D7ABA82","f0b84b72-50ab-4bbf-9a82-86432b9d654e","051c06f1-75cc-4548-856d-4923ddaba0dc","{""num_scrambled_semantic"":""8"",""num_scrambled_causal"":""4"",""num_scrambled_schematic"":""4"",""participantId"":""594C1B37809840A7AB34C9801D7ABA82"",""assignmentId"":""f0b84b72-50ab-4bbf-9a82-86432b9d654e"",""projectId"":""051c06f1-75cc-4548-856d-4923ddaba0dc""}","https://test12345.live/?num_scrambled_semantic=8&num_scrambled_causal=4&num_scrambled_schematic=4&participantId=594C1B37809840A7AB34C9801D7ABA82&assignmentId=f0b84b72-50ab-4bbf-9a82-86432b9d654e&projectId=051c06f1-75cc-4548-856d-4923ddaba0dc","594C1B37809840A7AB34C9801D7ABA82-2025-05-15-18-44-02","","null","","[]","null","",""
"","","","","","image-button-response","110","346264","0.0-14.0-1.0-0.7","594C1B37809840A7AB34C9801D7ABA82","594C1B37809840A7AB34C9801D7ABA82","f0b84b72-50ab-4bbf-9a82-86432b9d654e","051c06f1-75cc-4548-856d-4923ddaba0dc","{""num_scrambled_semantic"":""8"",""num_scrambled_causal"":""4"",""num_scrambled_schematic"":""4"",""participantId"":""594C1B37809840A7AB34C9801D7ABA82"",""assignmentId"":""f0b84b72-50ab-4bbf-9a82-86432b9d654e"",""projectId"":""051c06f1-75cc-4548-856d-4923ddaba0dc""}","https://test12345.live/?num_scrambled_semantic=8&num_scrambled_causal=4&num_scrambled_schematic=4&participantId=594C1B37809840A7AB34C9801D7ABA82&assignmentId=f0b84b72-50ab-4bbf-9a82-86432b9d654e&projectId=051c06f1-75cc-4548-856d-4923ddaba0dc","594C1B37809840A7AB34C9801D7ABA82-2025-05-15-18-44-02","","null","","images/schematic_sequence/interview_scheme/interview_scheme_2.png","null","",""
"","","","","","image-button-response","111","346734","0.0-14.0-1.0-1.7","594C1B37809840A7AB34C9801D7ABA82","594C1B37809840A7AB34C9801D7ABA82","f0b84b72-50ab-4bbf-9a82-86432b9d654e","051c06f1-75cc-4548-856d-4923ddaba0dc","{""num_scrambled_semantic"":""8"",""num_scrambled_causal"":""4"",""num_scrambled_schematic"":""4"",""participantId"":""594C1B37809840A7AB34C9801D7ABA82"",""assignmentId"":""f0b84b72-50ab-4bbf-9a82-86432b9d654e"",""projectId"":""051c06f1-75cc-4548-856d-4923ddaba0dc""}","https://test12345.live/?num_scrambled_semantic=8&num_scrambled_causal=4&num_scrambled_schematic=4&participantId=594C1B37809840A7AB34C9801D7ABA82&assignmentId=f0b84b72-50ab-4bbf-9a82-86432b9d654e&projectId=051c06f1-75cc-4548-856d-4923ddaba0dc","594C1B37809840A7AB34C9801D7ABA82-2025-05-15-18-44-02","","468","","images/schematic_sequence/interview_scheme/interview_scheme_2.png","1","",""
"","","","","","image-button-response","112","348534","0.0-14.0-1.0-2.7","594C1B37809840A7AB34C9801D7ABA82","594C1B37809840A7AB34C9801D7ABA82","f0b84b72-50ab-4bbf-9a82-86432b9d654e","051c06f1-75cc-4548-856d-4923ddaba0dc","{""num_scrambled_semantic"":""8"",""num_scrambled_causal"":""4"",""num_scrambled_schematic"":""4"",""participantId"":""594C1B37809840A7AB34C9801D7ABA82"",""assignmentId"":""f0b84b72-50ab-4bbf-9a82-86432b9d654e"",""projectId"":""051c06f1-75cc-4548-856d-4923ddaba0dc""}","https://test12345.live/?num_scrambled_semantic=8&num_scrambled_causal=4&num_scrambled_schematic=4&participantId=594C1B37809840A7AB34C9801D7ABA82&assignmentId=f0b84b72-50ab-4bbf-9a82-86432b9d654e&projectId=051c06f1-75cc-4548-856d-4923ddaba0dc","594C1B37809840A7AB34C9801D7ABA82-2025-05-15-18-44-02","","null","","[]","null","",""
"","","","","","image-button-response","113","353041","0.0-14.0-1.0-0.8","594C1B37809840A7AB34C9801D7ABA82","594C1B37809840A7AB34C9801D7ABA82","f0b84b72-50ab-4bbf-9a82-86432b9d654e","051c06f1-75cc-4548-856d-4923ddaba0dc","{""num_scrambled_semantic"":""8"",""num_scrambled_causal"":""4"",""num_scrambled_schematic"":""4"",""participantId"":""594C1B37809840A7AB34C9801D7ABA82"",""assignmentId"":""f0b84b72-50ab-4bbf-9a82-86432b9d654e"",""projectId"":""051c06f1-75cc-4548-856d-4923ddaba0dc""}","https://test12345.live/?num_scrambled_semantic=8&num_scrambled_causal=4&num_scrambled_schematic=4&participantId=594C1B37809840A7AB34C9801D7ABA82&assignmentId=f0b84b72-50ab-4bbf-9a82-86432b9d654e&projectId=051c06f1-75cc-4548-856d-4923ddaba0dc","594C1B37809840A7AB34C9801D7ABA82-2025-05-15-18-44-02","","null","","images/schematic_sequence/interview_scheme/interview_scheme_7.png","null","",""
"","","","","","image-button-response","114","353472","0.0-14.0-1.0-1.8","594C1B37809840A7AB34C9801D7ABA82","594C1B37809840A7AB34C9801D7ABA82","f0b84b72-50ab-4bbf-9a82-86432b9d654e","051c06f1-75cc-4548-856d-4923ddaba0dc","{""num_scrambled_semantic"":""8"",""num_scrambled_causal"":""4"",""num_scrambled_schematic"":""4"",""participantId"":""594C1B37809840A7AB34C9801D7ABA82"",""assignmentId"":""f0b84b72-50ab-4bbf-9a82-86432b9d654e"",""projectId"":""051c06f1-75cc-4548-856d-4923ddaba0dc""}","https://test12345.live/?num_scrambled_semantic=8&num_scrambled_causal=4&num_scrambled_schematic=4&participantId=594C1B37809840A7AB34C9801D7ABA82&assignmentId=f0b84b72-50ab-4bbf-9a82-86432b9d654e&projectId=051c06f1-75cc-4548-856d-4923ddaba0dc","594C1B37809840A7AB34C9801D7ABA82-2025-05-15-18-44-02","","430","","images/schematic_sequence/interview_scheme/interview_scheme_7.png","0","",""
"","","","","","image-button-response","115","355277","0.0-14.0-1.0-2.8","594C1B37809840A7AB34C9801D7ABA82","594C1B37809840A7AB34C9801D7ABA82","f0b84b72-50ab-4bbf-9a82-86432b9d654e","051c06f1-75cc-4548-856d-4923ddaba0dc","{""num_scrambled_semantic"":""8"",""num_scrambled_causal"":""4"",""num_scrambled_schematic"":""4"",""participantId"":""594C1B37809840A7AB34C9801D7ABA82"",""assignmentId"":""f0b84b72-50ab-4bbf-9a82-86432b9d654e"",""projectId"":""051c06f1-75cc-4548-856d-4923ddaba0dc""}","https://test12345.live/?num_scrambled_semantic=8&num_scrambled_causal=4&num_scrambled_schematic=4&participantId=594C1B37809840A7AB34C9801D7ABA82&assignmentId=f0b84b72-50ab-4bbf-9a82-86432b9d654e&projectId=051c06f1-75cc-4548-856d-4923ddaba0dc","594C1B37809840A7AB34C9801D7ABA82-2025-05-15-18-44-02","","null","","[]","null","",""
