"success","timeout","failed_images","failed_audio","failed_video","trial_type","trial_index","time_elapsed","internal_node_id","subject","subject_id","study_id","session_id","urlvar","current_url","audio_id","view_history","rt","device_id","stimulus","response","estimated_stimulus_onset","seq_name"
"true","false","[]","[]","[]","preload","0","19418","0.0-0.0","5A5A1F9BFDE34A01A990672A21B3129F","5A5A1F9BFDE34A01A990672A21B3129F","49df347a-af1e-452f-905b-9b9dc96fa324","ba640c14-69c5-453e-80b2-29051492c0e0","{""num_scrambled_semantic"":""8"",""num_scrambled_causal"":""4"",""num_scrambled_schematic"":""4"",""participantId"":""5A5A1F9BFDE34A01A990672A21B3129F"",""assignmentId"":""49df347a-af1e-452f-905b-9b9dc96fa324"",""projectId"":""ba640c14-69c5-453e-80b2-29051492c0e0""}","https://test12345.live/?num_scrambled_semantic=8&num_scrambled_causal=4&num_scrambled_schematic=4&participantId=5A5A1F9BFDE34A01A990672A21B3129F&assignmentId=49df347a-af1e-452f-905b-9b9dc96fa324&projectId=ba640c14-69c5-453e-80b2-29051492c0e0","5A5A1F9BFDE34A01A990672A21B3129F-2025-05-14-21-05-44","","","","","","",""
"","","","","","instructions","1","50789","0.0-1.0","5A5A1F9BFDE34A01A990672A21B3129F","5A5A1F9BFDE34A01A990672A21B3129F","49df347a-af1e-452f-905b-9b9dc96fa324","ba640c14-69c5-453e-80b2-29051492c0e0","{""num_scrambled_semantic"":""8"",""num_scrambled_causal"":""4"",""num_scrambled_schematic"":""4"",""participantId"":""5A5A1F9BFDE34A01A990672A21B3129F"",""assignmentId"":""49df347a-af1e-452f-905b-9b9dc96fa324"",""projectId"":""ba640c14-69c5-453e-80b2-29051492c0e0""}","https://test12345.live/?num_scrambled_semantic=8&num_scrambled_causal=4&num_scrambled_schematic=4&participantId=5A5A1F9BFDE34A01A990672A21B3129F&assignmentId=49df347a-af1e-452f-905b-9b9dc96fa324&projectId=ba640c14-69c5-453e-80b2-29051492c0e0","5A5A1F9BFDE34A01A990672A21B3129F-2025-05-14-21-05-44","[{""page_index"":0,""viewing_time"":31370}]","31371","","","","",""
"","","","","","instructions","2","54551","0.0-2.0","5A5A1F9BFDE34A01A990672A21B3129F","5A5A1F9BFDE34A01A990672A21B3129F","49df347a-af1e-452f-905b-9b9dc96fa324","ba640c14-69c5-453e-80b2-29051492c0e0","{""num_scrambled_semantic"":""8"",""num_scrambled_causal"":""4"",""num_scrambled_schematic"":""4"",""participantId"":""5A5A1F9BFDE34A01A990672A21B3129F"",""assignmentId"":""49df347a-af1e-452f-905b-9b9dc96fa324"",""projectId"":""ba640c14-69c5-453e-80b2-29051492c0e0""}","https://test12345.live/?num_scrambled_semantic=8&num_scrambled_causal=4&num_scrambled_schematic=4&participantId=5A5A1F9BFDE34A01A990672A21B3129F&assignmentId=49df347a-af1e-452f-905b-9b9dc96fa324&projectId=ba640c14-69c5-453e-80b2-29051492c0e0","5A5A1F9BFDE34A01A990672A21B3129F-2025-05-14-21-05-44","[{""page_index"":0,""viewing_time"":3762}]","3762","","","","",""
"true","","","","","fullscreen","3","57465","0.0-3.0","5A5A1F9BFDE34A01A990672A21B3129F","5A5A1F9BFDE34A01A990672A21B3129F","49df347a-af1e-452f-905b-9b9dc96fa324","ba640c14-69c5-453e-80b2-29051492c0e0","{""num_scrambled_semantic"":""8"",""num_scrambled_causal"":""4"",""num_scrambled_schematic"":""4"",""participantId"":""5A5A1F9BFDE34A01A990672A21B3129F"",""assignmentId"":""49df347a-af1e-452f-905b-9b9dc96fa324"",""projectId"":""ba640c14-69c5-453e-80b2-29051492c0e0""}","https://test12345.live/?num_scrambled_semantic=8&num_scrambled_causal=4&num_scrambled_schematic=4&participantId=5A5A1F9BFDE34A01A990672A21B3129F&assignmentId=49df347a-af1e-452f-905b-9b9dc96fa324&projectId=ba640c14-69c5-453e-80b2-29051492c0e0","5A5A1F9BFDE34A01A990672A21B3129F-2025-05-14-21-05-44","","1908","","","","",""
"","","","","","initialize-microphone","4","63823","0.0-4.0-0.0","5A5A1F9BFDE34A01A990672A21B3129F","5A5A1F9BFDE34A01A990672A21B3129F","49df347a-af1e-452f-905b-9b9dc96fa324","ba640c14-69c5-453e-80b2-29051492c0e0","{""num_scrambled_semantic"":""8"",""num_scrambled_causal"":""4"",""num_scrambled_schematic"":""4"",""participantId"":""5A5A1F9BFDE34A01A990672A21B3129F"",""assignmentId"":""49df347a-af1e-452f-905b-9b9dc96fa324"",""projectId"":""ba640c14-69c5-453e-80b2-29051492c0e0""}","https://test12345.live/?num_scrambled_semantic=8&num_scrambled_causal=4&num_scrambled_schematic=4&participantId=5A5A1F9BFDE34A01A990672A21B3129F&assignmentId=49df347a-af1e-452f-905b-9b9dc96fa324&projectId=ba640c14-69c5-453e-80b2-29051492c0e0","5A5A1F9BFDE34A01A990672A21B3129F-2025-05-14-21-05-44","","","ed31b8d1edd57b59e58a157b9c86439dfb81313b29b61a9e7885c0860a9b67e2","","","",""
"","","","","","html-audio-response","5","73382","0.0-4.0-1.0","5A5A1F9BFDE34A01A990672A21B3129F","5A5A1F9BFDE34A01A990672A21B3129F","49df347a-af1e-452f-905b-9b9dc96fa324","ba640c14-69c5-453e-80b2-29051492c0e0","{""num_scrambled_semantic"":""8"",""num_scrambled_causal"":""4"",""num_scrambled_schematic"":""4"",""participantId"":""5A5A1F9BFDE34A01A990672A21B3129F"",""assignmentId"":""49df347a-af1e-452f-905b-9b9dc96fa324"",""projectId"":""ba640c14-69c5-453e-80b2-29051492c0e0""}","https://test12345.live/?num_scrambled_semantic=8&num_scrambled_causal=4&num_scrambled_schematic=4&participantId=5A5A1F9BFDE34A01A990672A21B3129F&assignmentId=49df347a-af1e-452f-905b-9b9dc96fa324&projectId=ba640c14-69c5-453e-80b2-29051492c0e0","5A5A1F9BFDE34A01A990672A21B3129F-2025-05-14-21-05-44","","3623","","<span style=""color: red; font-size: 24px""> NOW RECORDING</span>
        <p>Please test Microphone</p>","","2",""
"","","","","","html-button-response","6","75168","0.0-4.0-2.0","5A5A1F9BFDE34A01A990672A21B3129F","5A5A1F9BFDE34A01A990672A21B3129F","49df347a-af1e-452f-905b-9b9dc96fa324","ba640c14-69c5-453e-80b2-29051492c0e0","{""num_scrambled_semantic"":""8"",""num_scrambled_causal"":""4"",""num_scrambled_schematic"":""4"",""participantId"":""5A5A1F9BFDE34A01A990672A21B3129F"",""assignmentId"":""49df347a-af1e-452f-905b-9b9dc96fa324"",""projectId"":""ba640c14-69c5-453e-80b2-29051492c0e0""}","https://test12345.live/?num_scrambled_semantic=8&num_scrambled_causal=4&num_scrambled_schematic=4&participantId=5A5A1F9BFDE34A01A990672A21B3129F&assignmentId=49df347a-af1e-452f-905b-9b9dc96fa324&projectId=ba640c14-69c5-453e-80b2-29051492c0e0","5A5A1F9BFDE34A01A990672A21B3129F-2025-05-14-21-05-44","","1785","","<p style=""font-size:48px; color:red;"">Is Microphone OK?</p>","1","",""
"","","","","","instructions","7","89246","0.0-5.0","5A5A1F9BFDE34A01A990672A21B3129F","5A5A1F9BFDE34A01A990672A21B3129F","49df347a-af1e-452f-905b-9b9dc96fa324","ba640c14-69c5-453e-80b2-29051492c0e0","{""num_scrambled_semantic"":""8"",""num_scrambled_causal"":""4"",""num_scrambled_schematic"":""4"",""participantId"":""5A5A1F9BFDE34A01A990672A21B3129F"",""assignmentId"":""49df347a-af1e-452f-905b-9b9dc96fa324"",""projectId"":""ba640c14-69c5-453e-80b2-29051492c0e0""}","https://test12345.live/?num_scrambled_semantic=8&num_scrambled_causal=4&num_scrambled_schematic=4&participantId=5A5A1F9BFDE34A01A990672A21B3129F&assignmentId=49df347a-af1e-452f-905b-9b9dc96fa324&projectId=ba640c14-69c5-453e-80b2-29051492c0e0","5A5A1F9BFDE34A01A990672A21B3129F-2025-05-14-21-05-44","[{""page_index"":0,""viewing_time"":5872},{""page_index"":1,""viewing_time"":8205}]","14077","","","","",""
"","","","","","image-button-response","8","95250","0.0-6.0-0.0","5A5A1F9BFDE34A01A990672A21B3129F","5A5A1F9BFDE34A01A990672A21B3129F","49df347a-af1e-452f-905b-9b9dc96fa324","ba640c14-69c5-453e-80b2-29051492c0e0","{""num_scrambled_semantic"":""8"",""num_scrambled_causal"":""4"",""num_scrambled_schematic"":""4"",""participantId"":""5A5A1F9BFDE34A01A990672A21B3129F"",""assignmentId"":""49df347a-af1e-452f-905b-9b9dc96fa324"",""projectId"":""ba640c14-69c5-453e-80b2-29051492c0e0""}","https://test12345.live/?num_scrambled_semantic=8&num_scrambled_causal=4&num_scrambled_schematic=4&participantId=5A5A1F9BFDE34A01A990672A21B3129F&assignmentId=49df347a-af1e-452f-905b-9b9dc96fa324&projectId=ba640c14-69c5-453e-80b2-29051492c0e0","5A5A1F9BFDE34A01A990672A21B3129F-2025-05-14-21-05-44","","null","","images/instructions/movie_0.png","null","",""
"","","","","","image-button-response","9","99759","0.0-6.0-1.0-0.0","5A5A1F9BFDE34A01A990672A21B3129F","5A5A1F9BFDE34A01A990672A21B3129F","49df347a-af1e-452f-905b-9b9dc96fa324","ba640c14-69c5-453e-80b2-29051492c0e0","{""num_scrambled_semantic"":""8"",""num_scrambled_causal"":""4"",""num_scrambled_schematic"":""4"",""participantId"":""5A5A1F9BFDE34A01A990672A21B3129F"",""assignmentId"":""49df347a-af1e-452f-905b-9b9dc96fa324"",""projectId"":""ba640c14-69c5-453e-80b2-29051492c0e0""}","https://test12345.live/?num_scrambled_semantic=8&num_scrambled_causal=4&num_scrambled_schematic=4&participantId=5A5A1F9BFDE34A01A990672A21B3129F&assignmentId=49df347a-af1e-452f-905b-9b9dc96fa324&projectId=ba640c14-69c5-453e-80b2-29051492c0e0","5A5A1F9BFDE34A01A990672A21B3129F-2025-05-14-21-05-44","","null","","images/instructions/movie_1.png","null","",""
"","","","","","image-button-response","10","103223","0.0-6.0-1.0-1.0","5A5A1F9BFDE34A01A990672A21B3129F","5A5A1F9BFDE34A01A990672A21B3129F","49df347a-af1e-452f-905b-9b9dc96fa324","ba640c14-69c5-453e-80b2-29051492c0e0","{""num_scrambled_semantic"":""8"",""num_scrambled_causal"":""4"",""num_scrambled_schematic"":""4"",""participantId"":""5A5A1F9BFDE34A01A990672A21B3129F"",""assignmentId"":""49df347a-af1e-452f-905b-9b9dc96fa324"",""projectId"":""ba640c14-69c5-453e-80b2-29051492c0e0""}","https://test12345.live/?num_scrambled_semantic=8&num_scrambled_causal=4&num_scrambled_schematic=4&participantId=5A5A1F9BFDE34A01A990672A21B3129F&assignmentId=49df347a-af1e-452f-905b-9b9dc96fa324&projectId=ba640c14-69c5-453e-80b2-29051492c0e0","5A5A1F9BFDE34A01A990672A21B3129F-2025-05-14-21-05-44","","3464","","images/instructions/movie_1.png","0","",""
"","","","","","image-button-response","11","105025","0.0-6.0-1.0-2.0","5A5A1F9BFDE34A01A990672A21B3129F","5A5A1F9BFDE34A01A990672A21B3129F","49df347a-af1e-452f-905b-9b9dc96fa324","ba640c14-69c5-453e-80b2-29051492c0e0","{""num_scrambled_semantic"":""8"",""num_scrambled_causal"":""4"",""num_scrambled_schematic"":""4"",""participantId"":""5A5A1F9BFDE34A01A990672A21B3129F"",""assignmentId"":""49df347a-af1e-452f-905b-9b9dc96fa324"",""projectId"":""ba640c14-69c5-453e-80b2-29051492c0e0""}","https://test12345.live/?num_scrambled_semantic=8&num_scrambled_causal=4&num_scrambled_schematic=4&participantId=5A5A1F9BFDE34A01A990672A21B3129F&assignmentId=49df347a-af1e-452f-905b-9b9dc96fa324&projectId=ba640c14-69c5-453e-80b2-29051492c0e0","5A5A1F9BFDE34A01A990672A21B3129F-2025-05-14-21-05-44","","null","","[]","null","",""
"","","","","","image-button-response","12","109541","0.0-6.0-1.0-0.1","5A5A1F9BFDE34A01A990672A21B3129F","5A5A1F9BFDE34A01A990672A21B3129F","49df347a-af1e-452f-905b-9b9dc96fa324","ba640c14-69c5-453e-80b2-29051492c0e0","{""num_scrambled_semantic"":""8"",""num_scrambled_causal"":""4"",""num_scrambled_schematic"":""4"",""participantId"":""5A5A1F9BFDE34A01A990672A21B3129F"",""assignmentId"":""49df347a-af1e-452f-905b-9b9dc96fa324"",""projectId"":""ba640c14-69c5-453e-80b2-29051492c0e0""}","https://test12345.live/?num_scrambled_semantic=8&num_scrambled_causal=4&num_scrambled_schematic=4&participantId=5A5A1F9BFDE34A01A990672A21B3129F&assignmentId=49df347a-af1e-452f-905b-9b9dc96fa324&projectId=ba640c14-69c5-453e-80b2-29051492c0e0","5A5A1F9BFDE34A01A990672A21B3129F-2025-05-14-21-05-44","","null","","images/instructions/movie_2.png","null","",""
"","","","","","image-button-response","13","110827","0.0-6.0-1.0-1.1","5A5A1F9BFDE34A01A990672A21B3129F","5A5A1F9BFDE34A01A990672A21B3129F","49df347a-af1e-452f-905b-9b9dc96fa324","ba640c14-69c5-453e-80b2-29051492c0e0","{""num_scrambled_semantic"":""8"",""num_scrambled_causal"":""4"",""num_scrambled_schematic"":""4"",""participantId"":""5A5A1F9BFDE34A01A990672A21B3129F"",""assignmentId"":""49df347a-af1e-452f-905b-9b9dc96fa324"",""projectId"":""ba640c14-69c5-453e-80b2-29051492c0e0""}","https://test12345.live/?num_scrambled_semantic=8&num_scrambled_causal=4&num_scrambled_schematic=4&participantId=5A5A1F9BFDE34A01A990672A21B3129F&assignmentId=49df347a-af1e-452f-905b-9b9dc96fa324&projectId=ba640c14-69c5-453e-80b2-29051492c0e0","5A5A1F9BFDE34A01A990672A21B3129F-2025-05-14-21-05-44","","1286","","images/instructions/movie_2.png","0","",""
"","","","","","image-button-response","14","112629","0.0-6.0-1.0-2.1","5A5A1F9BFDE34A01A990672A21B3129F","5A5A1F9BFDE34A01A990672A21B3129F","49df347a-af1e-452f-905b-9b9dc96fa324","ba640c14-69c5-453e-80b2-29051492c0e0","{""num_scrambled_semantic"":""8"",""num_scrambled_causal"":""4"",""num_scrambled_schematic"":""4"",""participantId"":""5A5A1F9BFDE34A01A990672A21B3129F"",""assignmentId"":""49df347a-af1e-452f-905b-9b9dc96fa324"",""projectId"":""ba640c14-69c5-453e-80b2-29051492c0e0""}","https://test12345.live/?num_scrambled_semantic=8&num_scrambled_causal=4&num_scrambled_schematic=4&participantId=5A5A1F9BFDE34A01A990672A21B3129F&assignmentId=49df347a-af1e-452f-905b-9b9dc96fa324&projectId=ba640c14-69c5-453e-80b2-29051492c0e0","5A5A1F9BFDE34A01A990672A21B3129F-2025-05-14-21-05-44","","null","","[]","null","",""
"","","","","","image-button-response","15","117140","0.0-6.0-1.0-0.2","5A5A1F9BFDE34A01A990672A21B3129F","5A5A1F9BFDE34A01A990672A21B3129F","49df347a-af1e-452f-905b-9b9dc96fa324","ba640c14-69c5-453e-80b2-29051492c0e0","{""num_scrambled_semantic"":""8"",""num_scrambled_causal"":""4"",""num_scrambled_schematic"":""4"",""participantId"":""5A5A1F9BFDE34A01A990672A21B3129F"",""assignmentId"":""49df347a-af1e-452f-905b-9b9dc96fa324"",""projectId"":""ba640c14-69c5-453e-80b2-29051492c0e0""}","https://test12345.live/?num_scrambled_semantic=8&num_scrambled_causal=4&num_scrambled_schematic=4&participantId=5A5A1F9BFDE34A01A990672A21B3129F&assignmentId=49df347a-af1e-452f-905b-9b9dc96fa324&projectId=ba640c14-69c5-453e-80b2-29051492c0e0","5A5A1F9BFDE34A01A990672A21B3129F-2025-05-14-21-05-44","","null","","images/instructions/movie_3.png","null","",""
"","","","","","image-button-response","16","118435","0.0-6.0-1.0-1.2","5A5A1F9BFDE34A01A990672A21B3129F","5A5A1F9BFDE34A01A990672A21B3129F","49df347a-af1e-452f-905b-9b9dc96fa324","ba640c14-69c5-453e-80b2-29051492c0e0","{""num_scrambled_semantic"":""8"",""num_scrambled_causal"":""4"",""num_scrambled_schematic"":""4"",""participantId"":""5A5A1F9BFDE34A01A990672A21B3129F"",""assignmentId"":""49df347a-af1e-452f-905b-9b9dc96fa324"",""projectId"":""ba640c14-69c5-453e-80b2-29051492c0e0""}","https://test12345.live/?num_scrambled_semantic=8&num_scrambled_causal=4&num_scrambled_schematic=4&participantId=5A5A1F9BFDE34A01A990672A21B3129F&assignmentId=49df347a-af1e-452f-905b-9b9dc96fa324&projectId=ba640c14-69c5-453e-80b2-29051492c0e0","5A5A1F9BFDE34A01A990672A21B3129F-2025-05-14-21-05-44","","1294","","images/instructions/movie_3.png","0","",""
"","","","","","image-button-response","17","120242","0.0-6.0-1.0-2.2","5A5A1F9BFDE34A01A990672A21B3129F","5A5A1F9BFDE34A01A990672A21B3129F","49df347a-af1e-452f-905b-9b9dc96fa324","ba640c14-69c5-453e-80b2-29051492c0e0","{""num_scrambled_semantic"":""8"",""num_scrambled_causal"":""4"",""num_scrambled_schematic"":""4"",""participantId"":""5A5A1F9BFDE34A01A990672A21B3129F"",""assignmentId"":""49df347a-af1e-452f-905b-9b9dc96fa324"",""projectId"":""ba640c14-69c5-453e-80b2-29051492c0e0""}","https://test12345.live/?num_scrambled_semantic=8&num_scrambled_causal=4&num_scrambled_schematic=4&participantId=5A5A1F9BFDE34A01A990672A21B3129F&assignmentId=49df347a-af1e-452f-905b-9b9dc96fa324&projectId=ba640c14-69c5-453e-80b2-29051492c0e0","5A5A1F9BFDE34A01A990672A21B3129F-2025-05-14-21-05-44","","null","","[]","null","",""
"","","","","","image-button-response","18","124756","0.0-6.0-1.0-0.3","5A5A1F9BFDE34A01A990672A21B3129F","5A5A1F9BFDE34A01A990672A21B3129F","49df347a-af1e-452f-905b-9b9dc96fa324","ba640c14-69c5-453e-80b2-29051492c0e0","{""num_scrambled_semantic"":""8"",""num_scrambled_causal"":""4"",""num_scrambled_schematic"":""4"",""participantId"":""5A5A1F9BFDE34A01A990672A21B3129F"",""assignmentId"":""49df347a-af1e-452f-905b-9b9dc96fa324"",""projectId"":""ba640c14-69c5-453e-80b2-29051492c0e0""}","https://test12345.live/?num_scrambled_semantic=8&num_scrambled_causal=4&num_scrambled_schematic=4&participantId=5A5A1F9BFDE34A01A990672A21B3129F&assignmentId=49df347a-af1e-452f-905b-9b9dc96fa324&projectId=ba640c14-69c5-453e-80b2-29051492c0e0","5A5A1F9BFDE34A01A990672A21B3129F-2025-05-14-21-05-44","","null","","images/instructions/movie_4.png","null","",""
"","","","","","image-button-response","19","128770","0.0-6.0-1.0-1.3","5A5A1F9BFDE34A01A990672A21B3129F","5A5A1F9BFDE34A01A990672A21B3129F","49df347a-af1e-452f-905b-9b9dc96fa324","ba640c14-69c5-453e-80b2-29051492c0e0","{""num_scrambled_semantic"":""8"",""num_scrambled_causal"":""4"",""num_scrambled_schematic"":""4"",""participantId"":""5A5A1F9BFDE34A01A990672A21B3129F"",""assignmentId"":""49df347a-af1e-452f-905b-9b9dc96fa324"",""projectId"":""ba640c14-69c5-453e-80b2-29051492c0e0""}","https://test12345.live/?num_scrambled_semantic=8&num_scrambled_causal=4&num_scrambled_schematic=4&participantId=5A5A1F9BFDE34A01A990672A21B3129F&assignmentId=49df347a-af1e-452f-905b-9b9dc96fa324&projectId=ba640c14-69c5-453e-80b2-29051492c0e0","5A5A1F9BFDE34A01A990672A21B3129F-2025-05-14-21-05-44","","null","","images/instructions/movie_4.png","null","",""
"","","","","","image-button-response","20","130583","0.0-6.0-1.0-2.3","5A5A1F9BFDE34A01A990672A21B3129F","5A5A1F9BFDE34A01A990672A21B3129F","49df347a-af1e-452f-905b-9b9dc96fa324","ba640c14-69c5-453e-80b2-29051492c0e0","{""num_scrambled_semantic"":""8"",""num_scrambled_causal"":""4"",""num_scrambled_schematic"":""4"",""participantId"":""5A5A1F9BFDE34A01A990672A21B3129F"",""assignmentId"":""49df347a-af1e-452f-905b-9b9dc96fa324"",""projectId"":""ba640c14-69c5-453e-80b2-29051492c0e0""}","https://test12345.live/?num_scrambled_semantic=8&num_scrambled_causal=4&num_scrambled_schematic=4&participantId=5A5A1F9BFDE34A01A990672A21B3129F&assignmentId=49df347a-af1e-452f-905b-9b9dc96fa324&projectId=ba640c14-69c5-453e-80b2-29051492c0e0","5A5A1F9BFDE34A01A990672A21B3129F-2025-05-14-21-05-44","","null","","[]","null","",""
"","","","","","instructions","21","137767","0.0-7.0","5A5A1F9BFDE34A01A990672A21B3129F","5A5A1F9BFDE34A01A990672A21B3129F","49df347a-af1e-452f-905b-9b9dc96fa324","ba640c14-69c5-453e-80b2-29051492c0e0","{""num_scrambled_semantic"":""8"",""num_scrambled_causal"":""4"",""num_scrambled_schematic"":""4"",""participantId"":""5A5A1F9BFDE34A01A990672A21B3129F"",""assignmentId"":""49df347a-af1e-452f-905b-9b9dc96fa324"",""projectId"":""ba640c14-69c5-453e-80b2-29051492c0e0""}","https://test12345.live/?num_scrambled_semantic=8&num_scrambled_causal=4&num_scrambled_schematic=4&participantId=5A5A1F9BFDE34A01A990672A21B3129F&assignmentId=49df347a-af1e-452f-905b-9b9dc96fa324&projectId=ba640c14-69c5-453e-80b2-29051492c0e0","5A5A1F9BFDE34A01A990672A21B3129F-2025-05-14-21-05-44","[{""page_index"":0,""viewing_time"":6442},{""page_index"":1,""viewing_time"":742}]","7184","","","","",""
"","","","","","html-audio-response","22","170385","0.0-8.0","5A5A1F9BFDE34A01A990672A21B3129F","5A5A1F9BFDE34A01A990672A21B3129F","49df347a-af1e-452f-905b-9b9dc96fa324","ba640c14-69c5-453e-80b2-29051492c0e0","{""num_scrambled_semantic"":""8"",""num_scrambled_causal"":""4"",""num_scrambled_schematic"":""4"",""participantId"":""5A5A1F9BFDE34A01A990672A21B3129F"",""assignmentId"":""49df347a-af1e-452f-905b-9b9dc96fa324"",""projectId"":""ba640c14-69c5-453e-80b2-29051492c0e0""}","https://test12345.live/?num_scrambled_semantic=8&num_scrambled_causal=4&num_scrambled_schematic=4&participantId=5A5A1F9BFDE34A01A990672A21B3129F&assignmentId=49df347a-af1e-452f-905b-9b9dc96fa324&projectId=ba640c14-69c5-453e-80b2-29051492c0e0","5A5A1F9BFDE34A01A990672A21B3129F-2025-05-14-21-05-44","","19772","","[""<span style=\""color: red; font-size: 24px\""> NOW RECORDING</span><p>Please say out loud all the images you saw, as many as you can remember. The images can be said in any order.</p>""]","","1",""
"","","","","","instructions","23","171431","0.0-9.0","5A5A1F9BFDE34A01A990672A21B3129F","5A5A1F9BFDE34A01A990672A21B3129F","49df347a-af1e-452f-905b-9b9dc96fa324","ba640c14-69c5-453e-80b2-29051492c0e0","{""num_scrambled_semantic"":""8"",""num_scrambled_causal"":""4"",""num_scrambled_schematic"":""4"",""participantId"":""5A5A1F9BFDE34A01A990672A21B3129F"",""assignmentId"":""49df347a-af1e-452f-905b-9b9dc96fa324"",""projectId"":""ba640c14-69c5-453e-80b2-29051492c0e0""}","https://test12345.live/?num_scrambled_semantic=8&num_scrambled_causal=4&num_scrambled_schematic=4&participantId=5A5A1F9BFDE34A01A990672A21B3129F&assignmentId=49df347a-af1e-452f-905b-9b9dc96fa324&projectId=ba640c14-69c5-453e-80b2-29051492c0e0","5A5A1F9BFDE34A01A990672A21B3129F-2025-05-14-21-05-44","[{""page_index"":0,""viewing_time"":1043}]","1043","","","","",""
"","","","","","image-button-response","24","177433","0.0-10.0-0.0","5A5A1F9BFDE34A01A990672A21B3129F","5A5A1F9BFDE34A01A990672A21B3129F","49df347a-af1e-452f-905b-9b9dc96fa324","ba640c14-69c5-453e-80b2-29051492c0e0","{""num_scrambled_semantic"":""8"",""num_scrambled_causal"":""4"",""num_scrambled_schematic"":""4"",""participantId"":""5A5A1F9BFDE34A01A990672A21B3129F"",""assignmentId"":""49df347a-af1e-452f-905b-9b9dc96fa324"",""projectId"":""ba640c14-69c5-453e-80b2-29051492c0e0""}","https://test12345.live/?num_scrambled_semantic=8&num_scrambled_causal=4&num_scrambled_schematic=4&participantId=5A5A1F9BFDE34A01A990672A21B3129F&assignmentId=49df347a-af1e-452f-905b-9b9dc96fa324&projectId=ba640c14-69c5-453e-80b2-29051492c0e0","5A5A1F9BFDE34A01A990672A21B3129F-2025-05-14-21-05-44","","null","","images/schematic_sequence/dinner_party_scheme/dinner_party_scheme_0.png","null","",""
"","","","","","image-button-response","25","181936","0.0-10.0-1.0-0.0","5A5A1F9BFDE34A01A990672A21B3129F","5A5A1F9BFDE34A01A990672A21B3129F","49df347a-af1e-452f-905b-9b9dc96fa324","ba640c14-69c5-453e-80b2-29051492c0e0","{""num_scrambled_semantic"":""8"",""num_scrambled_causal"":""4"",""num_scrambled_schematic"":""4"",""participantId"":""5A5A1F9BFDE34A01A990672A21B3129F"",""assignmentId"":""49df347a-af1e-452f-905b-9b9dc96fa324"",""projectId"":""ba640c14-69c5-453e-80b2-29051492c0e0""}","https://test12345.live/?num_scrambled_semantic=8&num_scrambled_causal=4&num_scrambled_schematic=4&participantId=5A5A1F9BFDE34A01A990672A21B3129F&assignmentId=49df347a-af1e-452f-905b-9b9dc96fa324&projectId=ba640c14-69c5-453e-80b2-29051492c0e0","5A5A1F9BFDE34A01A990672A21B3129F-2025-05-14-21-05-44","","null","","images/schematic_sequence/dinner_party_scheme/dinner_party_scheme_7.png","null","",""
"","","","","","image-button-response","26","183820","0.0-10.0-1.0-1.0","5A5A1F9BFDE34A01A990672A21B3129F","5A5A1F9BFDE34A01A990672A21B3129F","49df347a-af1e-452f-905b-9b9dc96fa324","ba640c14-69c5-453e-80b2-29051492c0e0","{""num_scrambled_semantic"":""8"",""num_scrambled_causal"":""4"",""num_scrambled_schematic"":""4"",""participantId"":""5A5A1F9BFDE34A01A990672A21B3129F"",""assignmentId"":""49df347a-af1e-452f-905b-9b9dc96fa324"",""projectId"":""ba640c14-69c5-453e-80b2-29051492c0e0""}","https://test12345.live/?num_scrambled_semantic=8&num_scrambled_causal=4&num_scrambled_schematic=4&participantId=5A5A1F9BFDE34A01A990672A21B3129F&assignmentId=49df347a-af1e-452f-905b-9b9dc96fa324&projectId=ba640c14-69c5-453e-80b2-29051492c0e0","5A5A1F9BFDE34A01A990672A21B3129F-2025-05-14-21-05-44","","1883","","images/schematic_sequence/dinner_party_scheme/dinner_party_scheme_7.png","0","",""
"","","","","","image-button-response","27","185635","0.0-10.0-1.0-2.0","5A5A1F9BFDE34A01A990672A21B3129F","5A5A1F9BFDE34A01A990672A21B3129F","49df347a-af1e-452f-905b-9b9dc96fa324","ba640c14-69c5-453e-80b2-29051492c0e0","{""num_scrambled_semantic"":""8"",""num_scrambled_causal"":""4"",""num_scrambled_schematic"":""4"",""participantId"":""5A5A1F9BFDE34A01A990672A21B3129F"",""assignmentId"":""49df347a-af1e-452f-905b-9b9dc96fa324"",""projectId"":""ba640c14-69c5-453e-80b2-29051492c0e0""}","https://test12345.live/?num_scrambled_semantic=8&num_scrambled_causal=4&num_scrambled_schematic=4&participantId=5A5A1F9BFDE34A01A990672A21B3129F&assignmentId=49df347a-af1e-452f-905b-9b9dc96fa324&projectId=ba640c14-69c5-453e-80b2-29051492c0e0","5A5A1F9BFDE34A01A990672A21B3129F-2025-05-14-21-05-44","","null","","[]","null","",""
"","","","","","image-button-response","28","190142","0.0-10.0-1.0-0.1","5A5A1F9BFDE34A01A990672A21B3129F","5A5A1F9BFDE34A01A990672A21B3129F","49df347a-af1e-452f-905b-9b9dc96fa324","ba640c14-69c5-453e-80b2-29051492c0e0","{""num_scrambled_semantic"":""8"",""num_scrambled_causal"":""4"",""num_scrambled_schematic"":""4"",""participantId"":""5A5A1F9BFDE34A01A990672A21B3129F"",""assignmentId"":""49df347a-af1e-452f-905b-9b9dc96fa324"",""projectId"":""ba640c14-69c5-453e-80b2-29051492c0e0""}","https://test12345.live/?num_scrambled_semantic=8&num_scrambled_causal=4&num_scrambled_schematic=4&participantId=5A5A1F9BFDE34A01A990672A21B3129F&assignmentId=49df347a-af1e-452f-905b-9b9dc96fa324&projectId=ba640c14-69c5-453e-80b2-29051492c0e0","5A5A1F9BFDE34A01A990672A21B3129F-2025-05-14-21-05-44","","null","","images/schematic_sequence/dinner_party_scheme/dinner_party_scheme_9.png","null","",""
"","","","","","image-button-response","29","191022","0.0-10.0-1.0-1.1","5A5A1F9BFDE34A01A990672A21B3129F","5A5A1F9BFDE34A01A990672A21B3129F","49df347a-af1e-452f-905b-9b9dc96fa324","ba640c14-69c5-453e-80b2-29051492c0e0","{""num_scrambled_semantic"":""8"",""num_scrambled_causal"":""4"",""num_scrambled_schematic"":""4"",""participantId"":""5A5A1F9BFDE34A01A990672A21B3129F"",""assignmentId"":""49df347a-af1e-452f-905b-9b9dc96fa324"",""projectId"":""ba640c14-69c5-453e-80b2-29051492c0e0""}","https://test12345.live/?num_scrambled_semantic=8&num_scrambled_causal=4&num_scrambled_schematic=4&participantId=5A5A1F9BFDE34A01A990672A21B3129F&assignmentId=49df347a-af1e-452f-905b-9b9dc96fa324&projectId=ba640c14-69c5-453e-80b2-29051492c0e0","5A5A1F9BFDE34A01A990672A21B3129F-2025-05-14-21-05-44","","880","","images/schematic_sequence/dinner_party_scheme/dinner_party_scheme_9.png","0","",""
"","","","","","image-button-response","30","192823","0.0-10.0-1.0-2.1","5A5A1F9BFDE34A01A990672A21B3129F","5A5A1F9BFDE34A01A990672A21B3129F","49df347a-af1e-452f-905b-9b9dc96fa324","ba640c14-69c5-453e-80b2-29051492c0e0","{""num_scrambled_semantic"":""8"",""num_scrambled_causal"":""4"",""num_scrambled_schematic"":""4"",""participantId"":""5A5A1F9BFDE34A01A990672A21B3129F"",""assignmentId"":""49df347a-af1e-452f-905b-9b9dc96fa324"",""projectId"":""ba640c14-69c5-453e-80b2-29051492c0e0""}","https://test12345.live/?num_scrambled_semantic=8&num_scrambled_causal=4&num_scrambled_schematic=4&participantId=5A5A1F9BFDE34A01A990672A21B3129F&assignmentId=49df347a-af1e-452f-905b-9b9dc96fa324&projectId=ba640c14-69c5-453e-80b2-29051492c0e0","5A5A1F9BFDE34A01A990672A21B3129F-2025-05-14-21-05-44","","null","","[]","null","",""
"","","","","","image-button-response","31","197332","0.0-10.0-1.0-0.2","5A5A1F9BFDE34A01A990672A21B3129F","5A5A1F9BFDE34A01A990672A21B3129F","49df347a-af1e-452f-905b-9b9dc96fa324","ba640c14-69c5-453e-80b2-29051492c0e0","{""num_scrambled_semantic"":""8"",""num_scrambled_causal"":""4"",""num_scrambled_schematic"":""4"",""participantId"":""5A5A1F9BFDE34A01A990672A21B3129F"",""assignmentId"":""49df347a-af1e-452f-905b-9b9dc96fa324"",""projectId"":""ba640c14-69c5-453e-80b2-29051492c0e0""}","https://test12345.live/?num_scrambled_semantic=8&num_scrambled_causal=4&num_scrambled_schematic=4&participantId=5A5A1F9BFDE34A01A990672A21B3129F&assignmentId=49df347a-af1e-452f-905b-9b9dc96fa324&projectId=ba640c14-69c5-453e-80b2-29051492c0e0","5A5A1F9BFDE34A01A990672A21B3129F-2025-05-14-21-05-44","","null","","images/schematic_sequence/dinner_party_scheme/dinner_party_scheme_3.png","null","",""
"","","","","","image-button-response","32","199939","0.0-10.0-1.0-1.2","5A5A1F9BFDE34A01A990672A21B3129F","5A5A1F9BFDE34A01A990672A21B3129F","49df347a-af1e-452f-905b-9b9dc96fa324","ba640c14-69c5-453e-80b2-29051492c0e0","{""num_scrambled_semantic"":""8"",""num_scrambled_causal"":""4"",""num_scrambled_schematic"":""4"",""participantId"":""5A5A1F9BFDE34A01A990672A21B3129F"",""assignmentId"":""49df347a-af1e-452f-905b-9b9dc96fa324"",""projectId"":""ba640c14-69c5-453e-80b2-29051492c0e0""}","https://test12345.live/?num_scrambled_semantic=8&num_scrambled_causal=4&num_scrambled_schematic=4&participantId=5A5A1F9BFDE34A01A990672A21B3129F&assignmentId=49df347a-af1e-452f-905b-9b9dc96fa324&projectId=ba640c14-69c5-453e-80b2-29051492c0e0","5A5A1F9BFDE34A01A990672A21B3129F-2025-05-14-21-05-44","","2606","","images/schematic_sequence/dinner_party_scheme/dinner_party_scheme_3.png","0","",""
"","","","","","image-button-response","33","201752","0.0-10.0-1.0-2.2","5A5A1F9BFDE34A01A990672A21B3129F","5A5A1F9BFDE34A01A990672A21B3129F","49df347a-af1e-452f-905b-9b9dc96fa324","ba640c14-69c5-453e-80b2-29051492c0e0","{""num_scrambled_semantic"":""8"",""num_scrambled_causal"":""4"",""num_scrambled_schematic"":""4"",""participantId"":""5A5A1F9BFDE34A01A990672A21B3129F"",""assignmentId"":""49df347a-af1e-452f-905b-9b9dc96fa324"",""projectId"":""ba640c14-69c5-453e-80b2-29051492c0e0""}","https://test12345.live/?num_scrambled_semantic=8&num_scrambled_causal=4&num_scrambled_schematic=4&participantId=5A5A1F9BFDE34A01A990672A21B3129F&assignmentId=49df347a-af1e-452f-905b-9b9dc96fa324&projectId=ba640c14-69c5-453e-80b2-29051492c0e0","5A5A1F9BFDE34A01A990672A21B3129F-2025-05-14-21-05-44","","null","","[]","null","",""
"","","","","","image-button-response","34","206259","0.0-10.0-1.0-0.3","5A5A1F9BFDE34A01A990672A21B3129F","5A5A1F9BFDE34A01A990672A21B3129F","49df347a-af1e-452f-905b-9b9dc96fa324","ba640c14-69c5-453e-80b2-29051492c0e0","{""num_scrambled_semantic"":""8"",""num_scrambled_causal"":""4"",""num_scrambled_schematic"":""4"",""participantId"":""5A5A1F9BFDE34A01A990672A21B3129F"",""assignmentId"":""49df347a-af1e-452f-905b-9b9dc96fa324"",""projectId"":""ba640c14-69c5-453e-80b2-29051492c0e0""}","https://test12345.live/?num_scrambled_semantic=8&num_scrambled_causal=4&num_scrambled_schematic=4&participantId=5A5A1F9BFDE34A01A990672A21B3129F&assignmentId=49df347a-af1e-452f-905b-9b9dc96fa324&projectId=ba640c14-69c5-453e-80b2-29051492c0e0","5A5A1F9BFDE34A01A990672A21B3129F-2025-05-14-21-05-44","","null","","images/schematic_sequence/dinner_party_scheme/dinner_party_scheme_ten.png","null","",""
"","","","","","image-button-response","35","210137","0.0-10.0-1.0-1.3","5A5A1F9BFDE34A01A990672A21B3129F","5A5A1F9BFDE34A01A990672A21B3129F","49df347a-af1e-452f-905b-9b9dc96fa324","ba640c14-69c5-453e-80b2-29051492c0e0","{""num_scrambled_semantic"":""8"",""num_scrambled_causal"":""4"",""num_scrambled_schematic"":""4"",""participantId"":""5A5A1F9BFDE34A01A990672A21B3129F"",""assignmentId"":""49df347a-af1e-452f-905b-9b9dc96fa324"",""projectId"":""ba640c14-69c5-453e-80b2-29051492c0e0""}","https://test12345.live/?num_scrambled_semantic=8&num_scrambled_causal=4&num_scrambled_schematic=4&participantId=5A5A1F9BFDE34A01A990672A21B3129F&assignmentId=49df347a-af1e-452f-905b-9b9dc96fa324&projectId=ba640c14-69c5-453e-80b2-29051492c0e0","5A5A1F9BFDE34A01A990672A21B3129F-2025-05-14-21-05-44","","3877","","images/schematic_sequence/dinner_party_scheme/dinner_party_scheme_ten.png","0","",""
"","","","","","image-button-response","36","211946","0.0-10.0-1.0-2.3","5A5A1F9BFDE34A01A990672A21B3129F","5A5A1F9BFDE34A01A990672A21B3129F","49df347a-af1e-452f-905b-9b9dc96fa324","ba640c14-69c5-453e-80b2-29051492c0e0","{""num_scrambled_semantic"":""8"",""num_scrambled_causal"":""4"",""num_scrambled_schematic"":""4"",""participantId"":""5A5A1F9BFDE34A01A990672A21B3129F"",""assignmentId"":""49df347a-af1e-452f-905b-9b9dc96fa324"",""projectId"":""ba640c14-69c5-453e-80b2-29051492c0e0""}","https://test12345.live/?num_scrambled_semantic=8&num_scrambled_causal=4&num_scrambled_schematic=4&participantId=5A5A1F9BFDE34A01A990672A21B3129F&assignmentId=49df347a-af1e-452f-905b-9b9dc96fa324&projectId=ba640c14-69c5-453e-80b2-29051492c0e0","5A5A1F9BFDE34A01A990672A21B3129F-2025-05-14-21-05-44","","null","","[]","null","",""
"","","","","","image-button-response","37","216453","0.0-10.0-1.0-0.4","5A5A1F9BFDE34A01A990672A21B3129F","5A5A1F9BFDE34A01A990672A21B3129F","49df347a-af1e-452f-905b-9b9dc96fa324","ba640c14-69c5-453e-80b2-29051492c0e0","{""num_scrambled_semantic"":""8"",""num_scrambled_causal"":""4"",""num_scrambled_schematic"":""4"",""participantId"":""5A5A1F9BFDE34A01A990672A21B3129F"",""assignmentId"":""49df347a-af1e-452f-905b-9b9dc96fa324"",""projectId"":""ba640c14-69c5-453e-80b2-29051492c0e0""}","https://test12345.live/?num_scrambled_semantic=8&num_scrambled_causal=4&num_scrambled_schematic=4&participantId=5A5A1F9BFDE34A01A990672A21B3129F&assignmentId=49df347a-af1e-452f-905b-9b9dc96fa324&projectId=ba640c14-69c5-453e-80b2-29051492c0e0","5A5A1F9BFDE34A01A990672A21B3129F-2025-05-14-21-05-44","","null","","images/schematic_sequence/dinner_party_scheme/dinner_party_scheme_2.png","null","",""
"","","","","","image-button-response","38","217492","0.0-10.0-1.0-1.4","5A5A1F9BFDE34A01A990672A21B3129F","5A5A1F9BFDE34A01A990672A21B3129F","49df347a-af1e-452f-905b-9b9dc96fa324","ba640c14-69c5-453e-80b2-29051492c0e0","{""num_scrambled_semantic"":""8"",""num_scrambled_causal"":""4"",""num_scrambled_schematic"":""4"",""participantId"":""5A5A1F9BFDE34A01A990672A21B3129F"",""assignmentId"":""49df347a-af1e-452f-905b-9b9dc96fa324"",""projectId"":""ba640c14-69c5-453e-80b2-29051492c0e0""}","https://test12345.live/?num_scrambled_semantic=8&num_scrambled_causal=4&num_scrambled_schematic=4&participantId=5A5A1F9BFDE34A01A990672A21B3129F&assignmentId=49df347a-af1e-452f-905b-9b9dc96fa324&projectId=ba640c14-69c5-453e-80b2-29051492c0e0","5A5A1F9BFDE34A01A990672A21B3129F-2025-05-14-21-05-44","","1038","","images/schematic_sequence/dinner_party_scheme/dinner_party_scheme_2.png","0","",""
"","","","","","image-button-response","39","219300","0.0-10.0-1.0-2.4","5A5A1F9BFDE34A01A990672A21B3129F","5A5A1F9BFDE34A01A990672A21B3129F","49df347a-af1e-452f-905b-9b9dc96fa324","ba640c14-69c5-453e-80b2-29051492c0e0","{""num_scrambled_semantic"":""8"",""num_scrambled_causal"":""4"",""num_scrambled_schematic"":""4"",""participantId"":""5A5A1F9BFDE34A01A990672A21B3129F"",""assignmentId"":""49df347a-af1e-452f-905b-9b9dc96fa324"",""projectId"":""ba640c14-69c5-453e-80b2-29051492c0e0""}","https://test12345.live/?num_scrambled_semantic=8&num_scrambled_causal=4&num_scrambled_schematic=4&participantId=5A5A1F9BFDE34A01A990672A21B3129F&assignmentId=49df347a-af1e-452f-905b-9b9dc96fa324&projectId=ba640c14-69c5-453e-80b2-29051492c0e0","5A5A1F9BFDE34A01A990672A21B3129F-2025-05-14-21-05-44","","null","","[]","null","",""
"","","","","","image-button-response","40","223805","0.0-10.0-1.0-0.5","5A5A1F9BFDE34A01A990672A21B3129F","5A5A1F9BFDE34A01A990672A21B3129F","49df347a-af1e-452f-905b-9b9dc96fa324","ba640c14-69c5-453e-80b2-29051492c0e0","{""num_scrambled_semantic"":""8"",""num_scrambled_causal"":""4"",""num_scrambled_schematic"":""4"",""participantId"":""5A5A1F9BFDE34A01A990672A21B3129F"",""assignmentId"":""49df347a-af1e-452f-905b-9b9dc96fa324"",""projectId"":""ba640c14-69c5-453e-80b2-29051492c0e0""}","https://test12345.live/?num_scrambled_semantic=8&num_scrambled_causal=4&num_scrambled_schematic=4&participantId=5A5A1F9BFDE34A01A990672A21B3129F&assignmentId=49df347a-af1e-452f-905b-9b9dc96fa324&projectId=ba640c14-69c5-453e-80b2-29051492c0e0","5A5A1F9BFDE34A01A990672A21B3129F-2025-05-14-21-05-44","","null","","images/schematic_sequence/dinner_party_scheme/dinner_party_scheme_1.png","null","",""
"","","","","","image-button-response","41","224579","0.0-10.0-1.0-1.5","5A5A1F9BFDE34A01A990672A21B3129F","5A5A1F9BFDE34A01A990672A21B3129F","49df347a-af1e-452f-905b-9b9dc96fa324","ba640c14-69c5-453e-80b2-29051492c0e0","{""num_scrambled_semantic"":""8"",""num_scrambled_causal"":""4"",""num_scrambled_schematic"":""4"",""participantId"":""5A5A1F9BFDE34A01A990672A21B3129F"",""assignmentId"":""49df347a-af1e-452f-905b-9b9dc96fa324"",""projectId"":""ba640c14-69c5-453e-80b2-29051492c0e0""}","https://test12345.live/?num_scrambled_semantic=8&num_scrambled_causal=4&num_scrambled_schematic=4&participantId=5A5A1F9BFDE34A01A990672A21B3129F&assignmentId=49df347a-af1e-452f-905b-9b9dc96fa324&projectId=ba640c14-69c5-453e-80b2-29051492c0e0","5A5A1F9BFDE34A01A990672A21B3129F-2025-05-14-21-05-44","","773","","images/schematic_sequence/dinner_party_scheme/dinner_party_scheme_1.png","0","",""
"","","","","","image-button-response","42","226389","0.0-10.0-1.0-2.5","5A5A1F9BFDE34A01A990672A21B3129F","5A5A1F9BFDE34A01A990672A21B3129F","49df347a-af1e-452f-905b-9b9dc96fa324","ba640c14-69c5-453e-80b2-29051492c0e0","{""num_scrambled_semantic"":""8"",""num_scrambled_causal"":""4"",""num_scrambled_schematic"":""4"",""participantId"":""5A5A1F9BFDE34A01A990672A21B3129F"",""assignmentId"":""49df347a-af1e-452f-905b-9b9dc96fa324"",""projectId"":""ba640c14-69c5-453e-80b2-29051492c0e0""}","https://test12345.live/?num_scrambled_semantic=8&num_scrambled_causal=4&num_scrambled_schematic=4&participantId=5A5A1F9BFDE34A01A990672A21B3129F&assignmentId=49df347a-af1e-452f-905b-9b9dc96fa324&projectId=ba640c14-69c5-453e-80b2-29051492c0e0","5A5A1F9BFDE34A01A990672A21B3129F-2025-05-14-21-05-44","","null","","[]","null","",""
"","","","","","image-button-response","43","230903","0.0-10.0-1.0-0.6","5A5A1F9BFDE34A01A990672A21B3129F","5A5A1F9BFDE34A01A990672A21B3129F","49df347a-af1e-452f-905b-9b9dc96fa324","ba640c14-69c5-453e-80b2-29051492c0e0","{""num_scrambled_semantic"":""8"",""num_scrambled_causal"":""4"",""num_scrambled_schematic"":""4"",""participantId"":""5A5A1F9BFDE34A01A990672A21B3129F"",""assignmentId"":""49df347a-af1e-452f-905b-9b9dc96fa324"",""projectId"":""ba640c14-69c5-453e-80b2-29051492c0e0""}","https://test12345.live/?num_scrambled_semantic=8&num_scrambled_causal=4&num_scrambled_schematic=4&participantId=5A5A1F9BFDE34A01A990672A21B3129F&assignmentId=49df347a-af1e-452f-905b-9b9dc96fa324&projectId=ba640c14-69c5-453e-80b2-29051492c0e0","5A5A1F9BFDE34A01A990672A21B3129F-2025-05-14-21-05-44","","null","","images/schematic_sequence/dinner_party_scheme/dinner_party_scheme_8.png","null","",""
"","","","","","image-button-response","44","232085","0.0-10.0-1.0-1.6","5A5A1F9BFDE34A01A990672A21B3129F","5A5A1F9BFDE34A01A990672A21B3129F","49df347a-af1e-452f-905b-9b9dc96fa324","ba640c14-69c5-453e-80b2-29051492c0e0","{""num_scrambled_semantic"":""8"",""num_scrambled_causal"":""4"",""num_scrambled_schematic"":""4"",""participantId"":""5A5A1F9BFDE34A01A990672A21B3129F"",""assignmentId"":""49df347a-af1e-452f-905b-9b9dc96fa324"",""projectId"":""ba640c14-69c5-453e-80b2-29051492c0e0""}","https://test12345.live/?num_scrambled_semantic=8&num_scrambled_causal=4&num_scrambled_schematic=4&participantId=5A5A1F9BFDE34A01A990672A21B3129F&assignmentId=49df347a-af1e-452f-905b-9b9dc96fa324&projectId=ba640c14-69c5-453e-80b2-29051492c0e0","5A5A1F9BFDE34A01A990672A21B3129F-2025-05-14-21-05-44","","1182","","images/schematic_sequence/dinner_party_scheme/dinner_party_scheme_8.png","0","",""
"","","","","","image-button-response","45","233900","0.0-10.0-1.0-2.6","5A5A1F9BFDE34A01A990672A21B3129F","5A5A1F9BFDE34A01A990672A21B3129F","49df347a-af1e-452f-905b-9b9dc96fa324","ba640c14-69c5-453e-80b2-29051492c0e0","{""num_scrambled_semantic"":""8"",""num_scrambled_causal"":""4"",""num_scrambled_schematic"":""4"",""participantId"":""5A5A1F9BFDE34A01A990672A21B3129F"",""assignmentId"":""49df347a-af1e-452f-905b-9b9dc96fa324"",""projectId"":""ba640c14-69c5-453e-80b2-29051492c0e0""}","https://test12345.live/?num_scrambled_semantic=8&num_scrambled_causal=4&num_scrambled_schematic=4&participantId=5A5A1F9BFDE34A01A990672A21B3129F&assignmentId=49df347a-af1e-452f-905b-9b9dc96fa324&projectId=ba640c14-69c5-453e-80b2-29051492c0e0","5A5A1F9BFDE34A01A990672A21B3129F-2025-05-14-21-05-44","","null","","[]","null","",""
"","","","","","image-button-response","46","238412","0.0-10.0-1.0-0.7","5A5A1F9BFDE34A01A990672A21B3129F","5A5A1F9BFDE34A01A990672A21B3129F","49df347a-af1e-452f-905b-9b9dc96fa324","ba640c14-69c5-453e-80b2-29051492c0e0","{""num_scrambled_semantic"":""8"",""num_scrambled_causal"":""4"",""num_scrambled_schematic"":""4"",""participantId"":""5A5A1F9BFDE34A01A990672A21B3129F"",""assignmentId"":""49df347a-af1e-452f-905b-9b9dc96fa324"",""projectId"":""ba640c14-69c5-453e-80b2-29051492c0e0""}","https://test12345.live/?num_scrambled_semantic=8&num_scrambled_causal=4&num_scrambled_schematic=4&participantId=5A5A1F9BFDE34A01A990672A21B3129F&assignmentId=49df347a-af1e-452f-905b-9b9dc96fa324&projectId=ba640c14-69c5-453e-80b2-29051492c0e0","5A5A1F9BFDE34A01A990672A21B3129F-2025-05-14-21-05-44","","null","","images/schematic_sequence/dinner_party_scheme/dinner_party_scheme_4.png","null","",""
"","","","","","image-button-response","47","239848","0.0-10.0-1.0-1.7","5A5A1F9BFDE34A01A990672A21B3129F","5A5A1F9BFDE34A01A990672A21B3129F","49df347a-af1e-452f-905b-9b9dc96fa324","ba640c14-69c5-453e-80b2-29051492c0e0","{""num_scrambled_semantic"":""8"",""num_scrambled_causal"":""4"",""num_scrambled_schematic"":""4"",""participantId"":""5A5A1F9BFDE34A01A990672A21B3129F"",""assignmentId"":""49df347a-af1e-452f-905b-9b9dc96fa324"",""projectId"":""ba640c14-69c5-453e-80b2-29051492c0e0""}","https://test12345.live/?num_scrambled_semantic=8&num_scrambled_causal=4&num_scrambled_schematic=4&participantId=5A5A1F9BFDE34A01A990672A21B3129F&assignmentId=49df347a-af1e-452f-905b-9b9dc96fa324&projectId=ba640c14-69c5-453e-80b2-29051492c0e0","5A5A1F9BFDE34A01A990672A21B3129F-2025-05-14-21-05-44","","1435","","images/schematic_sequence/dinner_party_scheme/dinner_party_scheme_4.png","0","",""
"","","","","","image-button-response","48","241650","0.0-10.0-1.0-2.7","5A5A1F9BFDE34A01A990672A21B3129F","5A5A1F9BFDE34A01A990672A21B3129F","49df347a-af1e-452f-905b-9b9dc96fa324","ba640c14-69c5-453e-80b2-29051492c0e0","{""num_scrambled_semantic"":""8"",""num_scrambled_causal"":""4"",""num_scrambled_schematic"":""4"",""participantId"":""5A5A1F9BFDE34A01A990672A21B3129F"",""assignmentId"":""49df347a-af1e-452f-905b-9b9dc96fa324"",""projectId"":""ba640c14-69c5-453e-80b2-29051492c0e0""}","https://test12345.live/?num_scrambled_semantic=8&num_scrambled_causal=4&num_scrambled_schematic=4&participantId=5A5A1F9BFDE34A01A990672A21B3129F&assignmentId=49df347a-af1e-452f-905b-9b9dc96fa324&projectId=ba640c14-69c5-453e-80b2-29051492c0e0","5A5A1F9BFDE34A01A990672A21B3129F-2025-05-14-21-05-44","","null","","[]","null","",""
"","","","","","image-button-response","49","246161","0.0-10.0-1.0-0.8","5A5A1F9BFDE34A01A990672A21B3129F","5A5A1F9BFDE34A01A990672A21B3129F","49df347a-af1e-452f-905b-9b9dc96fa324","ba640c14-69c5-453e-80b2-29051492c0e0","{""num_scrambled_semantic"":""8"",""num_scrambled_causal"":""4"",""num_scrambled_schematic"":""4"",""participantId"":""5A5A1F9BFDE34A01A990672A21B3129F"",""assignmentId"":""49df347a-af1e-452f-905b-9b9dc96fa324"",""projectId"":""ba640c14-69c5-453e-80b2-29051492c0e0""}","https://test12345.live/?num_scrambled_semantic=8&num_scrambled_causal=4&num_scrambled_schematic=4&participantId=5A5A1F9BFDE34A01A990672A21B3129F&assignmentId=49df347a-af1e-452f-905b-9b9dc96fa324&projectId=ba640c14-69c5-453e-80b2-29051492c0e0","5A5A1F9BFDE34A01A990672A21B3129F-2025-05-14-21-05-44","","null","","images/schematic_sequence/dinner_party_scheme/dinner_party_scheme_6.png","null","",""
"","","","","","image-button-response","50","247684","0.0-10.0-1.0-1.8","5A5A1F9BFDE34A01A990672A21B3129F","5A5A1F9BFDE34A01A990672A21B3129F","49df347a-af1e-452f-905b-9b9dc96fa324","ba640c14-69c5-453e-80b2-29051492c0e0","{""num_scrambled_semantic"":""8"",""num_scrambled_causal"":""4"",""num_scrambled_schematic"":""4"",""participantId"":""5A5A1F9BFDE34A01A990672A21B3129F"",""assignmentId"":""49df347a-af1e-452f-905b-9b9dc96fa324"",""projectId"":""ba640c14-69c5-453e-80b2-29051492c0e0""}","https://test12345.live/?num_scrambled_semantic=8&num_scrambled_causal=4&num_scrambled_schematic=4&participantId=5A5A1F9BFDE34A01A990672A21B3129F&assignmentId=49df347a-af1e-452f-905b-9b9dc96fa324&projectId=ba640c14-69c5-453e-80b2-29051492c0e0","5A5A1F9BFDE34A01A990672A21B3129F-2025-05-14-21-05-44","","1522","","images/schematic_sequence/dinner_party_scheme/dinner_party_scheme_6.png","0","",""
"","","","","","image-button-response","51","249489","0.0-10.0-1.0-2.8","5A5A1F9BFDE34A01A990672A21B3129F","5A5A1F9BFDE34A01A990672A21B3129F","49df347a-af1e-452f-905b-9b9dc96fa324","ba640c14-69c5-453e-80b2-29051492c0e0","{""num_scrambled_semantic"":""8"",""num_scrambled_causal"":""4"",""num_scrambled_schematic"":""4"",""participantId"":""5A5A1F9BFDE34A01A990672A21B3129F"",""assignmentId"":""49df347a-af1e-452f-905b-9b9dc96fa324"",""projectId"":""ba640c14-69c5-453e-80b2-29051492c0e0""}","https://test12345.live/?num_scrambled_semantic=8&num_scrambled_causal=4&num_scrambled_schematic=4&participantId=5A5A1F9BFDE34A01A990672A21B3129F&assignmentId=49df347a-af1e-452f-905b-9b9dc96fa324&projectId=ba640c14-69c5-453e-80b2-29051492c0e0","5A5A1F9BFDE34A01A990672A21B3129F-2025-05-14-21-05-44","","null","","[]","null","",""
"","","","","","image-button-response","52","253993","0.0-10.0-1.0-0.9","5A5A1F9BFDE34A01A990672A21B3129F","5A5A1F9BFDE34A01A990672A21B3129F","49df347a-af1e-452f-905b-9b9dc96fa324","ba640c14-69c5-453e-80b2-29051492c0e0","{""num_scrambled_semantic"":""8"",""num_scrambled_causal"":""4"",""num_scrambled_schematic"":""4"",""participantId"":""5A5A1F9BFDE34A01A990672A21B3129F"",""assignmentId"":""49df347a-af1e-452f-905b-9b9dc96fa324"",""projectId"":""ba640c14-69c5-453e-80b2-29051492c0e0""}","https://test12345.live/?num_scrambled_semantic=8&num_scrambled_causal=4&num_scrambled_schematic=4&participantId=5A5A1F9BFDE34A01A990672A21B3129F&assignmentId=49df347a-af1e-452f-905b-9b9dc96fa324&projectId=ba640c14-69c5-453e-80b2-29051492c0e0","5A5A1F9BFDE34A01A990672A21B3129F-2025-05-14-21-05-44","","null","","images/schematic_sequence/dinner_party_scheme/dinner_party_scheme_5.png","null","",""
"","","","","","image-button-response","53","257994","0.0-10.0-1.0-1.9","5A5A1F9BFDE34A01A990672A21B3129F","5A5A1F9BFDE34A01A990672A21B3129F","49df347a-af1e-452f-905b-9b9dc96fa324","ba640c14-69c5-453e-80b2-29051492c0e0","{""num_scrambled_semantic"":""8"",""num_scrambled_causal"":""4"",""num_scrambled_schematic"":""4"",""participantId"":""5A5A1F9BFDE34A01A990672A21B3129F"",""assignmentId"":""49df347a-af1e-452f-905b-9b9dc96fa324"",""projectId"":""ba640c14-69c5-453e-80b2-29051492c0e0""}","https://test12345.live/?num_scrambled_semantic=8&num_scrambled_causal=4&num_scrambled_schematic=4&participantId=5A5A1F9BFDE34A01A990672A21B3129F&assignmentId=49df347a-af1e-452f-905b-9b9dc96fa324&projectId=ba640c14-69c5-453e-80b2-29051492c0e0","5A5A1F9BFDE34A01A990672A21B3129F-2025-05-14-21-05-44","","null","","images/schematic_sequence/dinner_party_scheme/dinner_party_scheme_5.png","null","",""
"","","","","","image-button-response","54","259802","0.0-10.0-1.0-2.9","5A5A1F9BFDE34A01A990672A21B3129F","5A5A1F9BFDE34A01A990672A21B3129F","49df347a-af1e-452f-905b-9b9dc96fa324","ba640c14-69c5-453e-80b2-29051492c0e0","{""num_scrambled_semantic"":""8"",""num_scrambled_causal"":""4"",""num_scrambled_schematic"":""4"",""participantId"":""5A5A1F9BFDE34A01A990672A21B3129F"",""assignmentId"":""49df347a-af1e-452f-905b-9b9dc96fa324"",""projectId"":""ba640c14-69c5-453e-80b2-29051492c0e0""}","https://test12345.live/?num_scrambled_semantic=8&num_scrambled_causal=4&num_scrambled_schematic=4&participantId=5A5A1F9BFDE34A01A990672A21B3129F&assignmentId=49df347a-af1e-452f-905b-9b9dc96fa324&projectId=ba640c14-69c5-453e-80b2-29051492c0e0","5A5A1F9BFDE34A01A990672A21B3129F-2025-05-14-21-05-44","","null","","[]","null","",""
"","","","","","html-audio-response","55","342303","0.0-11.0","5A5A1F9BFDE34A01A990672A21B3129F","5A5A1F9BFDE34A01A990672A21B3129F","49df347a-af1e-452f-905b-9b9dc96fa324","ba640c14-69c5-453e-80b2-29051492c0e0","{""num_scrambled_semantic"":""8"",""num_scrambled_causal"":""4"",""num_scrambled_schematic"":""4"",""participantId"":""5A5A1F9BFDE34A01A990672A21B3129F"",""assignmentId"":""49df347a-af1e-452f-905b-9b9dc96fa324"",""projectId"":""ba640c14-69c5-453e-80b2-29051492c0e0""}","https://test12345.live/?num_scrambled_semantic=8&num_scrambled_causal=4&num_scrambled_schematic=4&participantId=5A5A1F9BFDE34A01A990672A21B3129F&assignmentId=49df347a-af1e-452f-905b-9b9dc96fa324&projectId=ba640c14-69c5-453e-80b2-29051492c0e0","5A5A1F9BFDE34A01A990672A21B3129F-2025-05-14-21-05-44","","34352","","[""<span style=\""color: red; font-size: 24px\""> NOW RECORDING</span><p>Please say out loud all the images you saw, as many as you can remember. The images can be said in any order.</p>""]","","1","dinner_party_scheme"
"","","","","","image-button-response","56","348313","0.0-12.0-0.0","5A5A1F9BFDE34A01A990672A21B3129F","5A5A1F9BFDE34A01A990672A21B3129F","49df347a-af1e-452f-905b-9b9dc96fa324","ba640c14-69c5-453e-80b2-29051492c0e0","{""num_scrambled_semantic"":""8"",""num_scrambled_causal"":""4"",""num_scrambled_schematic"":""4"",""participantId"":""5A5A1F9BFDE34A01A990672A21B3129F"",""assignmentId"":""49df347a-af1e-452f-905b-9b9dc96fa324"",""projectId"":""ba640c14-69c5-453e-80b2-29051492c0e0""}","https://test12345.live/?num_scrambled_semantic=8&num_scrambled_causal=4&num_scrambled_schematic=4&participantId=5A5A1F9BFDE34A01A990672A21B3129F&assignmentId=49df347a-af1e-452f-905b-9b9dc96fa324&projectId=ba640c14-69c5-453e-80b2-29051492c0e0","5A5A1F9BFDE34A01A990672A21B3129F-2025-05-14-21-05-44","","null","","images/semantic_sequence/cat_care_semantic/cat_care_semantic_0.png","null","",""
"","","","","","image-button-response","57","352821","0.0-12.0-1.0-0.0","5A5A1F9BFDE34A01A990672A21B3129F","5A5A1F9BFDE34A01A990672A21B3129F","49df347a-af1e-452f-905b-9b9dc96fa324","ba640c14-69c5-453e-80b2-29051492c0e0","{""num_scrambled_semantic"":""8"",""num_scrambled_causal"":""4"",""num_scrambled_schematic"":""4"",""participantId"":""5A5A1F9BFDE34A01A990672A21B3129F"",""assignmentId"":""49df347a-af1e-452f-905b-9b9dc96fa324"",""projectId"":""ba640c14-69c5-453e-80b2-29051492c0e0""}","https://test12345.live/?num_scrambled_semantic=8&num_scrambled_causal=4&num_scrambled_schematic=4&participantId=5A5A1F9BFDE34A01A990672A21B3129F&assignmentId=49df347a-af1e-452f-905b-9b9dc96fa324&projectId=ba640c14-69c5-453e-80b2-29051492c0e0","5A5A1F9BFDE34A01A990672A21B3129F-2025-05-14-21-05-44","","null","","images/semantic_sequence/cat_care_semantic/cat_care_semantic_7.png","null","",""
"","","","","","image-button-response","58","356823","0.0-12.0-1.0-1.0","5A5A1F9BFDE34A01A990672A21B3129F","5A5A1F9BFDE34A01A990672A21B3129F","49df347a-af1e-452f-905b-9b9dc96fa324","ba640c14-69c5-453e-80b2-29051492c0e0","{""num_scrambled_semantic"":""8"",""num_scrambled_causal"":""4"",""num_scrambled_schematic"":""4"",""participantId"":""5A5A1F9BFDE34A01A990672A21B3129F"",""assignmentId"":""49df347a-af1e-452f-905b-9b9dc96fa324"",""projectId"":""ba640c14-69c5-453e-80b2-29051492c0e0""}","https://test12345.live/?num_scrambled_semantic=8&num_scrambled_causal=4&num_scrambled_schematic=4&participantId=5A5A1F9BFDE34A01A990672A21B3129F&assignmentId=49df347a-af1e-452f-905b-9b9dc96fa324&projectId=ba640c14-69c5-453e-80b2-29051492c0e0","5A5A1F9BFDE34A01A990672A21B3129F-2025-05-14-21-05-44","","null","","images/semantic_sequence/cat_care_semantic/cat_care_semantic_7.png","null","",""
"","","","","","image-button-response","59","358624","0.0-12.0-1.0-2.0","5A5A1F9BFDE34A01A990672A21B3129F","5A5A1F9BFDE34A01A990672A21B3129F","49df347a-af1e-452f-905b-9b9dc96fa324","ba640c14-69c5-453e-80b2-29051492c0e0","{""num_scrambled_semantic"":""8"",""num_scrambled_causal"":""4"",""num_scrambled_schematic"":""4"",""participantId"":""5A5A1F9BFDE34A01A990672A21B3129F"",""assignmentId"":""49df347a-af1e-452f-905b-9b9dc96fa324"",""projectId"":""ba640c14-69c5-453e-80b2-29051492c0e0""}","https://test12345.live/?num_scrambled_semantic=8&num_scrambled_causal=4&num_scrambled_schematic=4&participantId=5A5A1F9BFDE34A01A990672A21B3129F&assignmentId=49df347a-af1e-452f-905b-9b9dc96fa324&projectId=ba640c14-69c5-453e-80b2-29051492c0e0","5A5A1F9BFDE34A01A990672A21B3129F-2025-05-14-21-05-44","","null","","[]","null","",""
"","","","","","image-button-response","60","363130","0.0-12.0-1.0-0.1","5A5A1F9BFDE34A01A990672A21B3129F","5A5A1F9BFDE34A01A990672A21B3129F","49df347a-af1e-452f-905b-9b9dc96fa324","ba640c14-69c5-453e-80b2-29051492c0e0","{""num_scrambled_semantic"":""8"",""num_scrambled_causal"":""4"",""num_scrambled_schematic"":""4"",""participantId"":""5A5A1F9BFDE34A01A990672A21B3129F"",""assignmentId"":""49df347a-af1e-452f-905b-9b9dc96fa324"",""projectId"":""ba640c14-69c5-453e-80b2-29051492c0e0""}","https://test12345.live/?num_scrambled_semantic=8&num_scrambled_causal=4&num_scrambled_schematic=4&participantId=5A5A1F9BFDE34A01A990672A21B3129F&assignmentId=49df347a-af1e-452f-905b-9b9dc96fa324&projectId=ba640c14-69c5-453e-80b2-29051492c0e0","5A5A1F9BFDE34A01A990672A21B3129F-2025-05-14-21-05-44","","null","","images/semantic_sequence/cat_care_semantic/cat_care_semantic_3.png","null","",""
"","","","","","image-button-response","61","364017","0.0-12.0-1.0-1.1","5A5A1F9BFDE34A01A990672A21B3129F","5A5A1F9BFDE34A01A990672A21B3129F","49df347a-af1e-452f-905b-9b9dc96fa324","ba640c14-69c5-453e-80b2-29051492c0e0","{""num_scrambled_semantic"":""8"",""num_scrambled_causal"":""4"",""num_scrambled_schematic"":""4"",""participantId"":""5A5A1F9BFDE34A01A990672A21B3129F"",""assignmentId"":""49df347a-af1e-452f-905b-9b9dc96fa324"",""projectId"":""ba640c14-69c5-453e-80b2-29051492c0e0""}","https://test12345.live/?num_scrambled_semantic=8&num_scrambled_causal=4&num_scrambled_schematic=4&participantId=5A5A1F9BFDE34A01A990672A21B3129F&assignmentId=49df347a-af1e-452f-905b-9b9dc96fa324&projectId=ba640c14-69c5-453e-80b2-29051492c0e0","5A5A1F9BFDE34A01A990672A21B3129F-2025-05-14-21-05-44","","886","","images/semantic_sequence/cat_care_semantic/cat_care_semantic_3.png","0","",""
"","","","","","image-button-response","62","365823","0.0-12.0-1.0-2.1","5A5A1F9BFDE34A01A990672A21B3129F","5A5A1F9BFDE34A01A990672A21B3129F","49df347a-af1e-452f-905b-9b9dc96fa324","ba640c14-69c5-453e-80b2-29051492c0e0","{""num_scrambled_semantic"":""8"",""num_scrambled_causal"":""4"",""num_scrambled_schematic"":""4"",""participantId"":""5A5A1F9BFDE34A01A990672A21B3129F"",""assignmentId"":""49df347a-af1e-452f-905b-9b9dc96fa324"",""projectId"":""ba640c14-69c5-453e-80b2-29051492c0e0""}","https://test12345.live/?num_scrambled_semantic=8&num_scrambled_causal=4&num_scrambled_schematic=4&participantId=5A5A1F9BFDE34A01A990672A21B3129F&assignmentId=49df347a-af1e-452f-905b-9b9dc96fa324&projectId=ba640c14-69c5-453e-80b2-29051492c0e0","5A5A1F9BFDE34A01A990672A21B3129F-2025-05-14-21-05-44","","null","","[]","null","",""
"","","","","","image-button-response","63","370331","0.0-12.0-1.0-0.2","5A5A1F9BFDE34A01A990672A21B3129F","5A5A1F9BFDE34A01A990672A21B3129F","49df347a-af1e-452f-905b-9b9dc96fa324","ba640c14-69c5-453e-80b2-29051492c0e0","{""num_scrambled_semantic"":""8"",""num_scrambled_causal"":""4"",""num_scrambled_schematic"":""4"",""participantId"":""5A5A1F9BFDE34A01A990672A21B3129F"",""assignmentId"":""49df347a-af1e-452f-905b-9b9dc96fa324"",""projectId"":""ba640c14-69c5-453e-80b2-29051492c0e0""}","https://test12345.live/?num_scrambled_semantic=8&num_scrambled_causal=4&num_scrambled_schematic=4&participantId=5A5A1F9BFDE34A01A990672A21B3129F&assignmentId=49df347a-af1e-452f-905b-9b9dc96fa324&projectId=ba640c14-69c5-453e-80b2-29051492c0e0","5A5A1F9BFDE34A01A990672A21B3129F-2025-05-14-21-05-44","","null","","images/semantic_sequence/cat_care_semantic/cat_care_semantic_5.png","null","",""
"","","","","","image-button-response","64","371099","0.0-12.0-1.0-1.2","5A5A1F9BFDE34A01A990672A21B3129F","5A5A1F9BFDE34A01A990672A21B3129F","49df347a-af1e-452f-905b-9b9dc96fa324","ba640c14-69c5-453e-80b2-29051492c0e0","{""num_scrambled_semantic"":""8"",""num_scrambled_causal"":""4"",""num_scrambled_schematic"":""4"",""participantId"":""5A5A1F9BFDE34A01A990672A21B3129F"",""assignmentId"":""49df347a-af1e-452f-905b-9b9dc96fa324"",""projectId"":""ba640c14-69c5-453e-80b2-29051492c0e0""}","https://test12345.live/?num_scrambled_semantic=8&num_scrambled_causal=4&num_scrambled_schematic=4&participantId=5A5A1F9BFDE34A01A990672A21B3129F&assignmentId=49df347a-af1e-452f-905b-9b9dc96fa324&projectId=ba640c14-69c5-453e-80b2-29051492c0e0","5A5A1F9BFDE34A01A990672A21B3129F-2025-05-14-21-05-44","","768","","images/semantic_sequence/cat_care_semantic/cat_care_semantic_5.png","0","",""
"","","","","","image-button-response","65","372915","0.0-12.0-1.0-2.2","5A5A1F9BFDE34A01A990672A21B3129F","5A5A1F9BFDE34A01A990672A21B3129F","49df347a-af1e-452f-905b-9b9dc96fa324","ba640c14-69c5-453e-80b2-29051492c0e0","{""num_scrambled_semantic"":""8"",""num_scrambled_causal"":""4"",""num_scrambled_schematic"":""4"",""participantId"":""5A5A1F9BFDE34A01A990672A21B3129F"",""assignmentId"":""49df347a-af1e-452f-905b-9b9dc96fa324"",""projectId"":""ba640c14-69c5-453e-80b2-29051492c0e0""}","https://test12345.live/?num_scrambled_semantic=8&num_scrambled_causal=4&num_scrambled_schematic=4&participantId=5A5A1F9BFDE34A01A990672A21B3129F&assignmentId=49df347a-af1e-452f-905b-9b9dc96fa324&projectId=ba640c14-69c5-453e-80b2-29051492c0e0","5A5A1F9BFDE34A01A990672A21B3129F-2025-05-14-21-05-44","","null","","[]","null","",""
"","","","","","image-button-response","66","377418","0.0-12.0-1.0-0.3","5A5A1F9BFDE34A01A990672A21B3129F","5A5A1F9BFDE34A01A990672A21B3129F","49df347a-af1e-452f-905b-9b9dc96fa324","ba640c14-69c5-453e-80b2-29051492c0e0","{""num_scrambled_semantic"":""8"",""num_scrambled_causal"":""4"",""num_scrambled_schematic"":""4"",""participantId"":""5A5A1F9BFDE34A01A990672A21B3129F"",""assignmentId"":""49df347a-af1e-452f-905b-9b9dc96fa324"",""projectId"":""ba640c14-69c5-453e-80b2-29051492c0e0""}","https://test12345.live/?num_scrambled_semantic=8&num_scrambled_causal=4&num_scrambled_schematic=4&participantId=5A5A1F9BFDE34A01A990672A21B3129F&assignmentId=49df347a-af1e-452f-905b-9b9dc96fa324&projectId=ba640c14-69c5-453e-80b2-29051492c0e0","5A5A1F9BFDE34A01A990672A21B3129F-2025-05-14-21-05-44","","null","","images/semantic_sequence/cat_care_semantic/cat_care_semantic_9.png","null","",""
"","","","","","image-button-response","67","378229","0.0-12.0-1.0-1.3","5A5A1F9BFDE34A01A990672A21B3129F","5A5A1F9BFDE34A01A990672A21B3129F","49df347a-af1e-452f-905b-9b9dc96fa324","ba640c14-69c5-453e-80b2-29051492c0e0","{""num_scrambled_semantic"":""8"",""num_scrambled_causal"":""4"",""num_scrambled_schematic"":""4"",""participantId"":""5A5A1F9BFDE34A01A990672A21B3129F"",""assignmentId"":""49df347a-af1e-452f-905b-9b9dc96fa324"",""projectId"":""ba640c14-69c5-453e-80b2-29051492c0e0""}","https://test12345.live/?num_scrambled_semantic=8&num_scrambled_causal=4&num_scrambled_schematic=4&participantId=5A5A1F9BFDE34A01A990672A21B3129F&assignmentId=49df347a-af1e-452f-905b-9b9dc96fa324&projectId=ba640c14-69c5-453e-80b2-29051492c0e0","5A5A1F9BFDE34A01A990672A21B3129F-2025-05-14-21-05-44","","810","","images/semantic_sequence/cat_care_semantic/cat_care_semantic_9.png","0","",""
"","","","","","image-button-response","68","380042","0.0-12.0-1.0-2.3","5A5A1F9BFDE34A01A990672A21B3129F","5A5A1F9BFDE34A01A990672A21B3129F","49df347a-af1e-452f-905b-9b9dc96fa324","ba640c14-69c5-453e-80b2-29051492c0e0","{""num_scrambled_semantic"":""8"",""num_scrambled_causal"":""4"",""num_scrambled_schematic"":""4"",""participantId"":""5A5A1F9BFDE34A01A990672A21B3129F"",""assignmentId"":""49df347a-af1e-452f-905b-9b9dc96fa324"",""projectId"":""ba640c14-69c5-453e-80b2-29051492c0e0""}","https://test12345.live/?num_scrambled_semantic=8&num_scrambled_causal=4&num_scrambled_schematic=4&participantId=5A5A1F9BFDE34A01A990672A21B3129F&assignmentId=49df347a-af1e-452f-905b-9b9dc96fa324&projectId=ba640c14-69c5-453e-80b2-29051492c0e0","5A5A1F9BFDE34A01A990672A21B3129F-2025-05-14-21-05-44","","null","","[]","null","",""
"","","","","","image-button-response","69","384553","0.0-12.0-1.0-0.4","5A5A1F9BFDE34A01A990672A21B3129F","5A5A1F9BFDE34A01A990672A21B3129F","49df347a-af1e-452f-905b-9b9dc96fa324","ba640c14-69c5-453e-80b2-29051492c0e0","{""num_scrambled_semantic"":""8"",""num_scrambled_causal"":""4"",""num_scrambled_schematic"":""4"",""participantId"":""5A5A1F9BFDE34A01A990672A21B3129F"",""assignmentId"":""49df347a-af1e-452f-905b-9b9dc96fa324"",""projectId"":""ba640c14-69c5-453e-80b2-29051492c0e0""}","https://test12345.live/?num_scrambled_semantic=8&num_scrambled_causal=4&num_scrambled_schematic=4&participantId=5A5A1F9BFDE34A01A990672A21B3129F&assignmentId=49df347a-af1e-452f-905b-9b9dc96fa324&projectId=ba640c14-69c5-453e-80b2-29051492c0e0","5A5A1F9BFDE34A01A990672A21B3129F-2025-05-14-21-05-44","","null","","images/semantic_sequence/cat_care_semantic/cat_care_semantic_4.png","null","",""
"","","","","","image-button-response","70","385165","0.0-12.0-1.0-1.4","5A5A1F9BFDE34A01A990672A21B3129F","5A5A1F9BFDE34A01A990672A21B3129F","49df347a-af1e-452f-905b-9b9dc96fa324","ba640c14-69c5-453e-80b2-29051492c0e0","{""num_scrambled_semantic"":""8"",""num_scrambled_causal"":""4"",""num_scrambled_schematic"":""4"",""participantId"":""5A5A1F9BFDE34A01A990672A21B3129F"",""assignmentId"":""49df347a-af1e-452f-905b-9b9dc96fa324"",""projectId"":""ba640c14-69c5-453e-80b2-29051492c0e0""}","https://test12345.live/?num_scrambled_semantic=8&num_scrambled_causal=4&num_scrambled_schematic=4&participantId=5A5A1F9BFDE34A01A990672A21B3129F&assignmentId=49df347a-af1e-452f-905b-9b9dc96fa324&projectId=ba640c14-69c5-453e-80b2-29051492c0e0","5A5A1F9BFDE34A01A990672A21B3129F-2025-05-14-21-05-44","","611","","images/semantic_sequence/cat_care_semantic/cat_care_semantic_4.png","0","",""
"","","","","","image-button-response","71","386972","0.0-12.0-1.0-2.4","5A5A1F9BFDE34A01A990672A21B3129F","5A5A1F9BFDE34A01A990672A21B3129F","49df347a-af1e-452f-905b-9b9dc96fa324","ba640c14-69c5-453e-80b2-29051492c0e0","{""num_scrambled_semantic"":""8"",""num_scrambled_causal"":""4"",""num_scrambled_schematic"":""4"",""participantId"":""5A5A1F9BFDE34A01A990672A21B3129F"",""assignmentId"":""49df347a-af1e-452f-905b-9b9dc96fa324"",""projectId"":""ba640c14-69c5-453e-80b2-29051492c0e0""}","https://test12345.live/?num_scrambled_semantic=8&num_scrambled_causal=4&num_scrambled_schematic=4&participantId=5A5A1F9BFDE34A01A990672A21B3129F&assignmentId=49df347a-af1e-452f-905b-9b9dc96fa324&projectId=ba640c14-69c5-453e-80b2-29051492c0e0","5A5A1F9BFDE34A01A990672A21B3129F-2025-05-14-21-05-44","","null","","[]","null","",""
"","","","","","image-button-response","72","391475","0.0-12.0-1.0-0.5","5A5A1F9BFDE34A01A990672A21B3129F","5A5A1F9BFDE34A01A990672A21B3129F","49df347a-af1e-452f-905b-9b9dc96fa324","ba640c14-69c5-453e-80b2-29051492c0e0","{""num_scrambled_semantic"":""8"",""num_scrambled_causal"":""4"",""num_scrambled_schematic"":""4"",""participantId"":""5A5A1F9BFDE34A01A990672A21B3129F"",""assignmentId"":""49df347a-af1e-452f-905b-9b9dc96fa324"",""projectId"":""ba640c14-69c5-453e-80b2-29051492c0e0""}","https://test12345.live/?num_scrambled_semantic=8&num_scrambled_causal=4&num_scrambled_schematic=4&participantId=5A5A1F9BFDE34A01A990672A21B3129F&assignmentId=49df347a-af1e-452f-905b-9b9dc96fa324&projectId=ba640c14-69c5-453e-80b2-29051492c0e0","5A5A1F9BFDE34A01A990672A21B3129F-2025-05-14-21-05-44","","null","","images/semantic_sequence/cat_care_semantic/cat_care_semantic_ten.png","null","",""
"","","","","","image-button-response","73","392487","0.0-12.0-1.0-1.5","5A5A1F9BFDE34A01A990672A21B3129F","5A5A1F9BFDE34A01A990672A21B3129F","49df347a-af1e-452f-905b-9b9dc96fa324","ba640c14-69c5-453e-80b2-29051492c0e0","{""num_scrambled_semantic"":""8"",""num_scrambled_causal"":""4"",""num_scrambled_schematic"":""4"",""participantId"":""5A5A1F9BFDE34A01A990672A21B3129F"",""assignmentId"":""49df347a-af1e-452f-905b-9b9dc96fa324"",""projectId"":""ba640c14-69c5-453e-80b2-29051492c0e0""}","https://test12345.live/?num_scrambled_semantic=8&num_scrambled_causal=4&num_scrambled_schematic=4&participantId=5A5A1F9BFDE34A01A990672A21B3129F&assignmentId=49df347a-af1e-452f-905b-9b9dc96fa324&projectId=ba640c14-69c5-453e-80b2-29051492c0e0","5A5A1F9BFDE34A01A990672A21B3129F-2025-05-14-21-05-44","","1012","","images/semantic_sequence/cat_care_semantic/cat_care_semantic_ten.png","0","",""
"","","","","","image-button-response","74","394290","0.0-12.0-1.0-2.5","5A5A1F9BFDE34A01A990672A21B3129F","5A5A1F9BFDE34A01A990672A21B3129F","49df347a-af1e-452f-905b-9b9dc96fa324","ba640c14-69c5-453e-80b2-29051492c0e0","{""num_scrambled_semantic"":""8"",""num_scrambled_causal"":""4"",""num_scrambled_schematic"":""4"",""participantId"":""5A5A1F9BFDE34A01A990672A21B3129F"",""assignmentId"":""49df347a-af1e-452f-905b-9b9dc96fa324"",""projectId"":""ba640c14-69c5-453e-80b2-29051492c0e0""}","https://test12345.live/?num_scrambled_semantic=8&num_scrambled_causal=4&num_scrambled_schematic=4&participantId=5A5A1F9BFDE34A01A990672A21B3129F&assignmentId=49df347a-af1e-452f-905b-9b9dc96fa324&projectId=ba640c14-69c5-453e-80b2-29051492c0e0","5A5A1F9BFDE34A01A990672A21B3129F-2025-05-14-21-05-44","","null","","[]","null","",""
"","","","","","image-button-response","75","398797","0.0-12.0-1.0-0.6","5A5A1F9BFDE34A01A990672A21B3129F","5A5A1F9BFDE34A01A990672A21B3129F","49df347a-af1e-452f-905b-9b9dc96fa324","ba640c14-69c5-453e-80b2-29051492c0e0","{""num_scrambled_semantic"":""8"",""num_scrambled_causal"":""4"",""num_scrambled_schematic"":""4"",""participantId"":""5A5A1F9BFDE34A01A990672A21B3129F"",""assignmentId"":""49df347a-af1e-452f-905b-9b9dc96fa324"",""projectId"":""ba640c14-69c5-453e-80b2-29051492c0e0""}","https://test12345.live/?num_scrambled_semantic=8&num_scrambled_causal=4&num_scrambled_schematic=4&participantId=5A5A1F9BFDE34A01A990672A21B3129F&assignmentId=49df347a-af1e-452f-905b-9b9dc96fa324&projectId=ba640c14-69c5-453e-80b2-29051492c0e0","5A5A1F9BFDE34A01A990672A21B3129F-2025-05-14-21-05-44","","null","","images/semantic_sequence/cat_care_semantic/cat_care_semantic_6.png","null","",""
"","","","","","image-button-response","76","399953","0.0-12.0-1.0-1.6","5A5A1F9BFDE34A01A990672A21B3129F","5A5A1F9BFDE34A01A990672A21B3129F","49df347a-af1e-452f-905b-9b9dc96fa324","ba640c14-69c5-453e-80b2-29051492c0e0","{""num_scrambled_semantic"":""8"",""num_scrambled_causal"":""4"",""num_scrambled_schematic"":""4"",""participantId"":""5A5A1F9BFDE34A01A990672A21B3129F"",""assignmentId"":""49df347a-af1e-452f-905b-9b9dc96fa324"",""projectId"":""ba640c14-69c5-453e-80b2-29051492c0e0""}","https://test12345.live/?num_scrambled_semantic=8&num_scrambled_causal=4&num_scrambled_schematic=4&participantId=5A5A1F9BFDE34A01A990672A21B3129F&assignmentId=49df347a-af1e-452f-905b-9b9dc96fa324&projectId=ba640c14-69c5-453e-80b2-29051492c0e0","5A5A1F9BFDE34A01A990672A21B3129F-2025-05-14-21-05-44","","1155","","images/semantic_sequence/cat_care_semantic/cat_care_semantic_6.png","0","",""
"","","","","","image-button-response","77","401767","0.0-12.0-1.0-2.6","5A5A1F9BFDE34A01A990672A21B3129F","5A5A1F9BFDE34A01A990672A21B3129F","49df347a-af1e-452f-905b-9b9dc96fa324","ba640c14-69c5-453e-80b2-29051492c0e0","{""num_scrambled_semantic"":""8"",""num_scrambled_causal"":""4"",""num_scrambled_schematic"":""4"",""participantId"":""5A5A1F9BFDE34A01A990672A21B3129F"",""assignmentId"":""49df347a-af1e-452f-905b-9b9dc96fa324"",""projectId"":""ba640c14-69c5-453e-80b2-29051492c0e0""}","https://test12345.live/?num_scrambled_semantic=8&num_scrambled_causal=4&num_scrambled_schematic=4&participantId=5A5A1F9BFDE34A01A990672A21B3129F&assignmentId=49df347a-af1e-452f-905b-9b9dc96fa324&projectId=ba640c14-69c5-453e-80b2-29051492c0e0","5A5A1F9BFDE34A01A990672A21B3129F-2025-05-14-21-05-44","","null","","[]","null","",""
"","","","","","image-button-response","78","406273","0.0-12.0-1.0-0.7","5A5A1F9BFDE34A01A990672A21B3129F","5A5A1F9BFDE34A01A990672A21B3129F","49df347a-af1e-452f-905b-9b9dc96fa324","ba640c14-69c5-453e-80b2-29051492c0e0","{""num_scrambled_semantic"":""8"",""num_scrambled_causal"":""4"",""num_scrambled_schematic"":""4"",""participantId"":""5A5A1F9BFDE34A01A990672A21B3129F"",""assignmentId"":""49df347a-af1e-452f-905b-9b9dc96fa324"",""projectId"":""ba640c14-69c5-453e-80b2-29051492c0e0""}","https://test12345.live/?num_scrambled_semantic=8&num_scrambled_causal=4&num_scrambled_schematic=4&participantId=5A5A1F9BFDE34A01A990672A21B3129F&assignmentId=49df347a-af1e-452f-905b-9b9dc96fa324&projectId=ba640c14-69c5-453e-80b2-29051492c0e0","5A5A1F9BFDE34A01A990672A21B3129F-2025-05-14-21-05-44","","null","","images/semantic_sequence/cat_care_semantic/cat_care_semantic_1.png","null","",""
"","","","","","image-button-response","79","406951","0.0-12.0-1.0-1.7","5A5A1F9BFDE34A01A990672A21B3129F","5A5A1F9BFDE34A01A990672A21B3129F","49df347a-af1e-452f-905b-9b9dc96fa324","ba640c14-69c5-453e-80b2-29051492c0e0","{""num_scrambled_semantic"":""8"",""num_scrambled_causal"":""4"",""num_scrambled_schematic"":""4"",""participantId"":""5A5A1F9BFDE34A01A990672A21B3129F"",""assignmentId"":""49df347a-af1e-452f-905b-9b9dc96fa324"",""projectId"":""ba640c14-69c5-453e-80b2-29051492c0e0""}","https://test12345.live/?num_scrambled_semantic=8&num_scrambled_causal=4&num_scrambled_schematic=4&participantId=5A5A1F9BFDE34A01A990672A21B3129F&assignmentId=49df347a-af1e-452f-905b-9b9dc96fa324&projectId=ba640c14-69c5-453e-80b2-29051492c0e0","5A5A1F9BFDE34A01A990672A21B3129F-2025-05-14-21-05-44","","677","","images/semantic_sequence/cat_care_semantic/cat_care_semantic_1.png","0","",""
"","","","","","image-button-response","80","408754","0.0-12.0-1.0-2.7","5A5A1F9BFDE34A01A990672A21B3129F","5A5A1F9BFDE34A01A990672A21B3129F","49df347a-af1e-452f-905b-9b9dc96fa324","ba640c14-69c5-453e-80b2-29051492c0e0","{""num_scrambled_semantic"":""8"",""num_scrambled_causal"":""4"",""num_scrambled_schematic"":""4"",""participantId"":""5A5A1F9BFDE34A01A990672A21B3129F"",""assignmentId"":""49df347a-af1e-452f-905b-9b9dc96fa324"",""projectId"":""ba640c14-69c5-453e-80b2-29051492c0e0""}","https://test12345.live/?num_scrambled_semantic=8&num_scrambled_causal=4&num_scrambled_schematic=4&participantId=5A5A1F9BFDE34A01A990672A21B3129F&assignmentId=49df347a-af1e-452f-905b-9b9dc96fa324&projectId=ba640c14-69c5-453e-80b2-29051492c0e0","5A5A1F9BFDE34A01A990672A21B3129F-2025-05-14-21-05-44","","null","","[]","null","",""
"","","","","","image-button-response","81","413259","0.0-12.0-1.0-0.8","5A5A1F9BFDE34A01A990672A21B3129F","5A5A1F9BFDE34A01A990672A21B3129F","49df347a-af1e-452f-905b-9b9dc96fa324","ba640c14-69c5-453e-80b2-29051492c0e0","{""num_scrambled_semantic"":""8"",""num_scrambled_causal"":""4"",""num_scrambled_schematic"":""4"",""participantId"":""5A5A1F9BFDE34A01A990672A21B3129F"",""assignmentId"":""49df347a-af1e-452f-905b-9b9dc96fa324"",""projectId"":""ba640c14-69c5-453e-80b2-29051492c0e0""}","https://test12345.live/?num_scrambled_semantic=8&num_scrambled_causal=4&num_scrambled_schematic=4&participantId=5A5A1F9BFDE34A01A990672A21B3129F&assignmentId=49df347a-af1e-452f-905b-9b9dc96fa324&projectId=ba640c14-69c5-453e-80b2-29051492c0e0","5A5A1F9BFDE34A01A990672A21B3129F-2025-05-14-21-05-44","","null","","images/semantic_sequence/cat_care_semantic/cat_care_semantic_8.png","null","",""
"","","","","","image-button-response","82","415339","0.0-12.0-1.0-1.8","5A5A1F9BFDE34A01A990672A21B3129F","5A5A1F9BFDE34A01A990672A21B3129F","49df347a-af1e-452f-905b-9b9dc96fa324","ba640c14-69c5-453e-80b2-29051492c0e0","{""num_scrambled_semantic"":""8"",""num_scrambled_causal"":""4"",""num_scrambled_schematic"":""4"",""participantId"":""5A5A1F9BFDE34A01A990672A21B3129F"",""assignmentId"":""49df347a-af1e-452f-905b-9b9dc96fa324"",""projectId"":""ba640c14-69c5-453e-80b2-29051492c0e0""}","https://test12345.live/?num_scrambled_semantic=8&num_scrambled_causal=4&num_scrambled_schematic=4&participantId=5A5A1F9BFDE34A01A990672A21B3129F&assignmentId=49df347a-af1e-452f-905b-9b9dc96fa324&projectId=ba640c14-69c5-453e-80b2-29051492c0e0","5A5A1F9BFDE34A01A990672A21B3129F-2025-05-14-21-05-44","","2079","","images/semantic_sequence/cat_care_semantic/cat_care_semantic_8.png","0","",""
"","","","","","image-button-response","83","417140","0.0-12.0-1.0-2.8","5A5A1F9BFDE34A01A990672A21B3129F","5A5A1F9BFDE34A01A990672A21B3129F","49df347a-af1e-452f-905b-9b9dc96fa324","ba640c14-69c5-453e-80b2-29051492c0e0","{""num_scrambled_semantic"":""8"",""num_scrambled_causal"":""4"",""num_scrambled_schematic"":""4"",""participantId"":""5A5A1F9BFDE34A01A990672A21B3129F"",""assignmentId"":""49df347a-af1e-452f-905b-9b9dc96fa324"",""projectId"":""ba640c14-69c5-453e-80b2-29051492c0e0""}","https://test12345.live/?num_scrambled_semantic=8&num_scrambled_causal=4&num_scrambled_schematic=4&participantId=5A5A1F9BFDE34A01A990672A21B3129F&assignmentId=49df347a-af1e-452f-905b-9b9dc96fa324&projectId=ba640c14-69c5-453e-80b2-29051492c0e0","5A5A1F9BFDE34A01A990672A21B3129F-2025-05-14-21-05-44","","null","","[]","null","",""
"","","","","","image-button-response","84","421649","0.0-12.0-1.0-0.9","5A5A1F9BFDE34A01A990672A21B3129F","5A5A1F9BFDE34A01A990672A21B3129F","49df347a-af1e-452f-905b-9b9dc96fa324","ba640c14-69c5-453e-80b2-29051492c0e0","{""num_scrambled_semantic"":""8"",""num_scrambled_causal"":""4"",""num_scrambled_schematic"":""4"",""participantId"":""5A5A1F9BFDE34A01A990672A21B3129F"",""assignmentId"":""49df347a-af1e-452f-905b-9b9dc96fa324"",""projectId"":""ba640c14-69c5-453e-80b2-29051492c0e0""}","https://test12345.live/?num_scrambled_semantic=8&num_scrambled_causal=4&num_scrambled_schematic=4&participantId=5A5A1F9BFDE34A01A990672A21B3129F&assignmentId=49df347a-af1e-452f-905b-9b9dc96fa324&projectId=ba640c14-69c5-453e-80b2-29051492c0e0","5A5A1F9BFDE34A01A990672A21B3129F-2025-05-14-21-05-44","","null","","images/semantic_sequence/cat_care_semantic/cat_care_semantic_2.png","null","",""
"","","","","","image-button-response","85","422230","0.0-12.0-1.0-1.9","5A5A1F9BFDE34A01A990672A21B3129F","5A5A1F9BFDE34A01A990672A21B3129F","49df347a-af1e-452f-905b-9b9dc96fa324","ba640c14-69c5-453e-80b2-29051492c0e0","{""num_scrambled_semantic"":""8"",""num_scrambled_causal"":""4"",""num_scrambled_schematic"":""4"",""participantId"":""5A5A1F9BFDE34A01A990672A21B3129F"",""assignmentId"":""49df347a-af1e-452f-905b-9b9dc96fa324"",""projectId"":""ba640c14-69c5-453e-80b2-29051492c0e0""}","https://test12345.live/?num_scrambled_semantic=8&num_scrambled_causal=4&num_scrambled_schematic=4&participantId=5A5A1F9BFDE34A01A990672A21B3129F&assignmentId=49df347a-af1e-452f-905b-9b9dc96fa324&projectId=ba640c14-69c5-453e-80b2-29051492c0e0","5A5A1F9BFDE34A01A990672A21B3129F-2025-05-14-21-05-44","","580","","images/semantic_sequence/cat_care_semantic/cat_care_semantic_2.png","0","",""
"","","","","","image-button-response","86","424037","0.0-12.0-1.0-2.9","5A5A1F9BFDE34A01A990672A21B3129F","5A5A1F9BFDE34A01A990672A21B3129F","49df347a-af1e-452f-905b-9b9dc96fa324","ba640c14-69c5-453e-80b2-29051492c0e0","{""num_scrambled_semantic"":""8"",""num_scrambled_causal"":""4"",""num_scrambled_schematic"":""4"",""participantId"":""5A5A1F9BFDE34A01A990672A21B3129F"",""assignmentId"":""49df347a-af1e-452f-905b-9b9dc96fa324"",""projectId"":""ba640c14-69c5-453e-80b2-29051492c0e0""}","https://test12345.live/?num_scrambled_semantic=8&num_scrambled_causal=4&num_scrambled_schematic=4&participantId=5A5A1F9BFDE34A01A990672A21B3129F&assignmentId=49df347a-af1e-452f-905b-9b9dc96fa324&projectId=ba640c14-69c5-453e-80b2-29051492c0e0","5A5A1F9BFDE34A01A990672A21B3129F-2025-05-14-21-05-44","","null","","[]","null","",""
"","","","","","html-audio-response","87","450807","0.0-13.0","5A5A1F9BFDE34A01A990672A21B3129F","5A5A1F9BFDE34A01A990672A21B3129F","49df347a-af1e-452f-905b-9b9dc96fa324","ba640c14-69c5-453e-80b2-29051492c0e0","{""num_scrambled_semantic"":""8"",""num_scrambled_causal"":""4"",""num_scrambled_schematic"":""4"",""participantId"":""5A5A1F9BFDE34A01A990672A21B3129F"",""assignmentId"":""49df347a-af1e-452f-905b-9b9dc96fa324"",""projectId"":""ba640c14-69c5-453e-80b2-29051492c0e0""}","https://test12345.live/?num_scrambled_semantic=8&num_scrambled_causal=4&num_scrambled_schematic=4&participantId=5A5A1F9BFDE34A01A990672A21B3129F&assignmentId=49df347a-af1e-452f-905b-9b9dc96fa324&projectId=ba640c14-69c5-453e-80b2-29051492c0e0","5A5A1F9BFDE34A01A990672A21B3129F-2025-05-14-21-05-44","","25685","","[""<span style=\""color: red; font-size: 24px\""> NOW RECORDING</span><p>Please say out loud all the images you saw, as many as you can remember. The images can be said in any order.</p>""]","","1","cat_care_semantic"
"","","","","","image-button-response","88","456823","0.0-14.0-0.0","5A5A1F9BFDE34A01A990672A21B3129F","5A5A1F9BFDE34A01A990672A21B3129F","49df347a-af1e-452f-905b-9b9dc96fa324","ba640c14-69c5-453e-80b2-29051492c0e0","{""num_scrambled_semantic"":""8"",""num_scrambled_causal"":""4"",""num_scrambled_schematic"":""4"",""participantId"":""5A5A1F9BFDE34A01A990672A21B3129F"",""assignmentId"":""49df347a-af1e-452f-905b-9b9dc96fa324"",""projectId"":""ba640c14-69c5-453e-80b2-29051492c0e0""}","https://test12345.live/?num_scrambled_semantic=8&num_scrambled_causal=4&num_scrambled_schematic=4&participantId=5A5A1F9BFDE34A01A990672A21B3129F&assignmentId=49df347a-af1e-452f-905b-9b9dc96fa324&projectId=ba640c14-69c5-453e-80b2-29051492c0e0","5A5A1F9BFDE34A01A990672A21B3129F-2025-05-14-21-05-44","","null","","images/schematic_sequence/flight_scheme/flight_scheme_0.png","null","",""
"","","","","","image-button-response","89","461338","0.0-14.0-1.0-0.0","5A5A1F9BFDE34A01A990672A21B3129F","5A5A1F9BFDE34A01A990672A21B3129F","49df347a-af1e-452f-905b-9b9dc96fa324","ba640c14-69c5-453e-80b2-29051492c0e0","{""num_scrambled_semantic"":""8"",""num_scrambled_causal"":""4"",""num_scrambled_schematic"":""4"",""participantId"":""5A5A1F9BFDE34A01A990672A21B3129F"",""assignmentId"":""49df347a-af1e-452f-905b-9b9dc96fa324"",""projectId"":""ba640c14-69c5-453e-80b2-29051492c0e0""}","https://test12345.live/?num_scrambled_semantic=8&num_scrambled_causal=4&num_scrambled_schematic=4&participantId=5A5A1F9BFDE34A01A990672A21B3129F&assignmentId=49df347a-af1e-452f-905b-9b9dc96fa324&projectId=ba640c14-69c5-453e-80b2-29051492c0e0","5A5A1F9BFDE34A01A990672A21B3129F-2025-05-14-21-05-44","","null","","images/schematic_sequence/flight_scheme/flight_scheme_9.png","null","",""
"","","","","","image-button-response","90","463958","0.0-14.0-1.0-1.0","5A5A1F9BFDE34A01A990672A21B3129F","5A5A1F9BFDE34A01A990672A21B3129F","49df347a-af1e-452f-905b-9b9dc96fa324","ba640c14-69c5-453e-80b2-29051492c0e0","{""num_scrambled_semantic"":""8"",""num_scrambled_causal"":""4"",""num_scrambled_schematic"":""4"",""participantId"":""5A5A1F9BFDE34A01A990672A21B3129F"",""assignmentId"":""49df347a-af1e-452f-905b-9b9dc96fa324"",""projectId"":""ba640c14-69c5-453e-80b2-29051492c0e0""}","https://test12345.live/?num_scrambled_semantic=8&num_scrambled_causal=4&num_scrambled_schematic=4&participantId=5A5A1F9BFDE34A01A990672A21B3129F&assignmentId=49df347a-af1e-452f-905b-9b9dc96fa324&projectId=ba640c14-69c5-453e-80b2-29051492c0e0","5A5A1F9BFDE34A01A990672A21B3129F-2025-05-14-21-05-44","","2619","","images/schematic_sequence/flight_scheme/flight_scheme_9.png","0","",""
"","","","","","image-button-response","91","465766","0.0-14.0-1.0-2.0","5A5A1F9BFDE34A01A990672A21B3129F","5A5A1F9BFDE34A01A990672A21B3129F","49df347a-af1e-452f-905b-9b9dc96fa324","ba640c14-69c5-453e-80b2-29051492c0e0","{""num_scrambled_semantic"":""8"",""num_scrambled_causal"":""4"",""num_scrambled_schematic"":""4"",""participantId"":""5A5A1F9BFDE34A01A990672A21B3129F"",""assignmentId"":""49df347a-af1e-452f-905b-9b9dc96fa324"",""projectId"":""ba640c14-69c5-453e-80b2-29051492c0e0""}","https://test12345.live/?num_scrambled_semantic=8&num_scrambled_causal=4&num_scrambled_schematic=4&participantId=5A5A1F9BFDE34A01A990672A21B3129F&assignmentId=49df347a-af1e-452f-905b-9b9dc96fa324&projectId=ba640c14-69c5-453e-80b2-29051492c0e0","5A5A1F9BFDE34A01A990672A21B3129F-2025-05-14-21-05-44","","null","","[]","null","",""
"","","","","","image-button-response","92","470269","0.0-14.0-1.0-0.1","5A5A1F9BFDE34A01A990672A21B3129F","5A5A1F9BFDE34A01A990672A21B3129F","49df347a-af1e-452f-905b-9b9dc96fa324","ba640c14-69c5-453e-80b2-29051492c0e0","{""num_scrambled_semantic"":""8"",""num_scrambled_causal"":""4"",""num_scrambled_schematic"":""4"",""participantId"":""5A5A1F9BFDE34A01A990672A21B3129F"",""assignmentId"":""49df347a-af1e-452f-905b-9b9dc96fa324"",""projectId"":""ba640c14-69c5-453e-80b2-29051492c0e0""}","https://test12345.live/?num_scrambled_semantic=8&num_scrambled_causal=4&num_scrambled_schematic=4&participantId=5A5A1F9BFDE34A01A990672A21B3129F&assignmentId=49df347a-af1e-452f-905b-9b9dc96fa324&projectId=ba640c14-69c5-453e-80b2-29051492c0e0","5A5A1F9BFDE34A01A990672A21B3129F-2025-05-14-21-05-44","","null","","images/schematic_sequence/flight_scheme/flight_scheme_5.png","null","",""
"","","","","","image-button-response","93","471304","0.0-14.0-1.0-1.1","5A5A1F9BFDE34A01A990672A21B3129F","5A5A1F9BFDE34A01A990672A21B3129F","49df347a-af1e-452f-905b-9b9dc96fa324","ba640c14-69c5-453e-80b2-29051492c0e0","{""num_scrambled_semantic"":""8"",""num_scrambled_causal"":""4"",""num_scrambled_schematic"":""4"",""participantId"":""5A5A1F9BFDE34A01A990672A21B3129F"",""assignmentId"":""49df347a-af1e-452f-905b-9b9dc96fa324"",""projectId"":""ba640c14-69c5-453e-80b2-29051492c0e0""}","https://test12345.live/?num_scrambled_semantic=8&num_scrambled_causal=4&num_scrambled_schematic=4&participantId=5A5A1F9BFDE34A01A990672A21B3129F&assignmentId=49df347a-af1e-452f-905b-9b9dc96fa324&projectId=ba640c14-69c5-453e-80b2-29051492c0e0","5A5A1F9BFDE34A01A990672A21B3129F-2025-05-14-21-05-44","","1034","","images/schematic_sequence/flight_scheme/flight_scheme_5.png","0","",""
"","","","","","image-button-response","94","473109","0.0-14.0-1.0-2.1","5A5A1F9BFDE34A01A990672A21B3129F","5A5A1F9BFDE34A01A990672A21B3129F","49df347a-af1e-452f-905b-9b9dc96fa324","ba640c14-69c5-453e-80b2-29051492c0e0","{""num_scrambled_semantic"":""8"",""num_scrambled_causal"":""4"",""num_scrambled_schematic"":""4"",""participantId"":""5A5A1F9BFDE34A01A990672A21B3129F"",""assignmentId"":""49df347a-af1e-452f-905b-9b9dc96fa324"",""projectId"":""ba640c14-69c5-453e-80b2-29051492c0e0""}","https://test12345.live/?num_scrambled_semantic=8&num_scrambled_causal=4&num_scrambled_schematic=4&participantId=5A5A1F9BFDE34A01A990672A21B3129F&assignmentId=49df347a-af1e-452f-905b-9b9dc96fa324&projectId=ba640c14-69c5-453e-80b2-29051492c0e0","5A5A1F9BFDE34A01A990672A21B3129F-2025-05-14-21-05-44","","null","","[]","null","",""
"","","","","","image-button-response","95","477610","0.0-14.0-1.0-0.2","5A5A1F9BFDE34A01A990672A21B3129F","5A5A1F9BFDE34A01A990672A21B3129F","49df347a-af1e-452f-905b-9b9dc96fa324","ba640c14-69c5-453e-80b2-29051492c0e0","{""num_scrambled_semantic"":""8"",""num_scrambled_causal"":""4"",""num_scrambled_schematic"":""4"",""participantId"":""5A5A1F9BFDE34A01A990672A21B3129F"",""assignmentId"":""49df347a-af1e-452f-905b-9b9dc96fa324"",""projectId"":""ba640c14-69c5-453e-80b2-29051492c0e0""}","https://test12345.live/?num_scrambled_semantic=8&num_scrambled_causal=4&num_scrambled_schematic=4&participantId=5A5A1F9BFDE34A01A990672A21B3129F&assignmentId=49df347a-af1e-452f-905b-9b9dc96fa324&projectId=ba640c14-69c5-453e-80b2-29051492c0e0","5A5A1F9BFDE34A01A990672A21B3129F-2025-05-14-21-05-44","","null","","images/schematic_sequence/flight_scheme/flight_scheme_4.png","null","",""
"","","","","","image-button-response","96","478755","0.0-14.0-1.0-1.2","5A5A1F9BFDE34A01A990672A21B3129F","5A5A1F9BFDE34A01A990672A21B3129F","49df347a-af1e-452f-905b-9b9dc96fa324","ba640c14-69c5-453e-80b2-29051492c0e0","{""num_scrambled_semantic"":""8"",""num_scrambled_causal"":""4"",""num_scrambled_schematic"":""4"",""participantId"":""5A5A1F9BFDE34A01A990672A21B3129F"",""assignmentId"":""49df347a-af1e-452f-905b-9b9dc96fa324"",""projectId"":""ba640c14-69c5-453e-80b2-29051492c0e0""}","https://test12345.live/?num_scrambled_semantic=8&num_scrambled_causal=4&num_scrambled_schematic=4&participantId=5A5A1F9BFDE34A01A990672A21B3129F&assignmentId=49df347a-af1e-452f-905b-9b9dc96fa324&projectId=ba640c14-69c5-453e-80b2-29051492c0e0","5A5A1F9BFDE34A01A990672A21B3129F-2025-05-14-21-05-44","","1144","","images/schematic_sequence/flight_scheme/flight_scheme_4.png","0","",""
"","","","","","image-button-response","97","480558","0.0-14.0-1.0-2.2","5A5A1F9BFDE34A01A990672A21B3129F","5A5A1F9BFDE34A01A990672A21B3129F","49df347a-af1e-452f-905b-9b9dc96fa324","ba640c14-69c5-453e-80b2-29051492c0e0","{""num_scrambled_semantic"":""8"",""num_scrambled_causal"":""4"",""num_scrambled_schematic"":""4"",""participantId"":""5A5A1F9BFDE34A01A990672A21B3129F"",""assignmentId"":""49df347a-af1e-452f-905b-9b9dc96fa324"",""projectId"":""ba640c14-69c5-453e-80b2-29051492c0e0""}","https://test12345.live/?num_scrambled_semantic=8&num_scrambled_causal=4&num_scrambled_schematic=4&participantId=5A5A1F9BFDE34A01A990672A21B3129F&assignmentId=49df347a-af1e-452f-905b-9b9dc96fa324&projectId=ba640c14-69c5-453e-80b2-29051492c0e0","5A5A1F9BFDE34A01A990672A21B3129F-2025-05-14-21-05-44","","null","","[]","null","",""
"","","","","","image-button-response","98","485063","0.0-14.0-1.0-0.3","5A5A1F9BFDE34A01A990672A21B3129F","5A5A1F9BFDE34A01A990672A21B3129F","49df347a-af1e-452f-905b-9b9dc96fa324","ba640c14-69c5-453e-80b2-29051492c0e0","{""num_scrambled_semantic"":""8"",""num_scrambled_causal"":""4"",""num_scrambled_schematic"":""4"",""participantId"":""5A5A1F9BFDE34A01A990672A21B3129F"",""assignmentId"":""49df347a-af1e-452f-905b-9b9dc96fa324"",""projectId"":""ba640c14-69c5-453e-80b2-29051492c0e0""}","https://test12345.live/?num_scrambled_semantic=8&num_scrambled_causal=4&num_scrambled_schematic=4&participantId=5A5A1F9BFDE34A01A990672A21B3129F&assignmentId=49df347a-af1e-452f-905b-9b9dc96fa324&projectId=ba640c14-69c5-453e-80b2-29051492c0e0","5A5A1F9BFDE34A01A990672A21B3129F-2025-05-14-21-05-44","","null","","images/schematic_sequence/flight_scheme/flight_scheme_1.png","null","",""
"","","","","","image-button-response","99","485560","0.0-14.0-1.0-1.3","5A5A1F9BFDE34A01A990672A21B3129F","5A5A1F9BFDE34A01A990672A21B3129F","49df347a-af1e-452f-905b-9b9dc96fa324","ba640c14-69c5-453e-80b2-29051492c0e0","{""num_scrambled_semantic"":""8"",""num_scrambled_causal"":""4"",""num_scrambled_schematic"":""4"",""participantId"":""5A5A1F9BFDE34A01A990672A21B3129F"",""assignmentId"":""49df347a-af1e-452f-905b-9b9dc96fa324"",""projectId"":""ba640c14-69c5-453e-80b2-29051492c0e0""}","https://test12345.live/?num_scrambled_semantic=8&num_scrambled_causal=4&num_scrambled_schematic=4&participantId=5A5A1F9BFDE34A01A990672A21B3129F&assignmentId=49df347a-af1e-452f-905b-9b9dc96fa324&projectId=ba640c14-69c5-453e-80b2-29051492c0e0","5A5A1F9BFDE34A01A990672A21B3129F-2025-05-14-21-05-44","","496","","images/schematic_sequence/flight_scheme/flight_scheme_1.png","0","",""
"","","","","","image-button-response","100","487367","0.0-14.0-1.0-2.3","5A5A1F9BFDE34A01A990672A21B3129F","5A5A1F9BFDE34A01A990672A21B3129F","49df347a-af1e-452f-905b-9b9dc96fa324","ba640c14-69c5-453e-80b2-29051492c0e0","{""num_scrambled_semantic"":""8"",""num_scrambled_causal"":""4"",""num_scrambled_schematic"":""4"",""participantId"":""5A5A1F9BFDE34A01A990672A21B3129F"",""assignmentId"":""49df347a-af1e-452f-905b-9b9dc96fa324"",""projectId"":""ba640c14-69c5-453e-80b2-29051492c0e0""}","https://test12345.live/?num_scrambled_semantic=8&num_scrambled_causal=4&num_scrambled_schematic=4&participantId=5A5A1F9BFDE34A01A990672A21B3129F&assignmentId=49df347a-af1e-452f-905b-9b9dc96fa324&projectId=ba640c14-69c5-453e-80b2-29051492c0e0","5A5A1F9BFDE34A01A990672A21B3129F-2025-05-14-21-05-44","","null","","[]","null","",""
"","","","","","image-button-response","101","491870","0.0-14.0-1.0-0.4","5A5A1F9BFDE34A01A990672A21B3129F","5A5A1F9BFDE34A01A990672A21B3129F","49df347a-af1e-452f-905b-9b9dc96fa324","ba640c14-69c5-453e-80b2-29051492c0e0","{""num_scrambled_semantic"":""8"",""num_scrambled_causal"":""4"",""num_scrambled_schematic"":""4"",""participantId"":""5A5A1F9BFDE34A01A990672A21B3129F"",""assignmentId"":""49df347a-af1e-452f-905b-9b9dc96fa324"",""projectId"":""ba640c14-69c5-453e-80b2-29051492c0e0""}","https://test12345.live/?num_scrambled_semantic=8&num_scrambled_causal=4&num_scrambled_schematic=4&participantId=5A5A1F9BFDE34A01A990672A21B3129F&assignmentId=49df347a-af1e-452f-905b-9b9dc96fa324&projectId=ba640c14-69c5-453e-80b2-29051492c0e0","5A5A1F9BFDE34A01A990672A21B3129F-2025-05-14-21-05-44","","null","","images/schematic_sequence/flight_scheme/flight_scheme_2.png","null","",""
"","","","","","image-button-response","102","493267","0.0-14.0-1.0-1.4","5A5A1F9BFDE34A01A990672A21B3129F","5A5A1F9BFDE34A01A990672A21B3129F","49df347a-af1e-452f-905b-9b9dc96fa324","ba640c14-69c5-453e-80b2-29051492c0e0","{""num_scrambled_semantic"":""8"",""num_scrambled_causal"":""4"",""num_scrambled_schematic"":""4"",""participantId"":""5A5A1F9BFDE34A01A990672A21B3129F"",""assignmentId"":""49df347a-af1e-452f-905b-9b9dc96fa324"",""projectId"":""ba640c14-69c5-453e-80b2-29051492c0e0""}","https://test12345.live/?num_scrambled_semantic=8&num_scrambled_causal=4&num_scrambled_schematic=4&participantId=5A5A1F9BFDE34A01A990672A21B3129F&assignmentId=49df347a-af1e-452f-905b-9b9dc96fa324&projectId=ba640c14-69c5-453e-80b2-29051492c0e0","5A5A1F9BFDE34A01A990672A21B3129F-2025-05-14-21-05-44","","1396","","images/schematic_sequence/flight_scheme/flight_scheme_2.png","1","",""
"","","","","","image-button-response","103","495073","0.0-14.0-1.0-2.4","5A5A1F9BFDE34A01A990672A21B3129F","5A5A1F9BFDE34A01A990672A21B3129F","49df347a-af1e-452f-905b-9b9dc96fa324","ba640c14-69c5-453e-80b2-29051492c0e0","{""num_scrambled_semantic"":""8"",""num_scrambled_causal"":""4"",""num_scrambled_schematic"":""4"",""participantId"":""5A5A1F9BFDE34A01A990672A21B3129F"",""assignmentId"":""49df347a-af1e-452f-905b-9b9dc96fa324"",""projectId"":""ba640c14-69c5-453e-80b2-29051492c0e0""}","https://test12345.live/?num_scrambled_semantic=8&num_scrambled_causal=4&num_scrambled_schematic=4&participantId=5A5A1F9BFDE34A01A990672A21B3129F&assignmentId=49df347a-af1e-452f-905b-9b9dc96fa324&projectId=ba640c14-69c5-453e-80b2-29051492c0e0","5A5A1F9BFDE34A01A990672A21B3129F-2025-05-14-21-05-44","","null","","[]","null","",""
"","","","","","image-button-response","104","499588","0.0-14.0-1.0-0.5","5A5A1F9BFDE34A01A990672A21B3129F","5A5A1F9BFDE34A01A990672A21B3129F","49df347a-af1e-452f-905b-9b9dc96fa324","ba640c14-69c5-453e-80b2-29051492c0e0","{""num_scrambled_semantic"":""8"",""num_scrambled_causal"":""4"",""num_scrambled_schematic"":""4"",""participantId"":""5A5A1F9BFDE34A01A990672A21B3129F"",""assignmentId"":""49df347a-af1e-452f-905b-9b9dc96fa324"",""projectId"":""ba640c14-69c5-453e-80b2-29051492c0e0""}","https://test12345.live/?num_scrambled_semantic=8&num_scrambled_causal=4&num_scrambled_schematic=4&participantId=5A5A1F9BFDE34A01A990672A21B3129F&assignmentId=49df347a-af1e-452f-905b-9b9dc96fa324&projectId=ba640c14-69c5-453e-80b2-29051492c0e0","5A5A1F9BFDE34A01A990672A21B3129F-2025-05-14-21-05-44","","null","","images/schematic_sequence/flight_scheme/flight_scheme_ten.png","null","",""
"","","","","","image-button-response","105","500500","0.0-14.0-1.0-1.5","5A5A1F9BFDE34A01A990672A21B3129F","5A5A1F9BFDE34A01A990672A21B3129F","49df347a-af1e-452f-905b-9b9dc96fa324","ba640c14-69c5-453e-80b2-29051492c0e0","{""num_scrambled_semantic"":""8"",""num_scrambled_causal"":""4"",""num_scrambled_schematic"":""4"",""participantId"":""5A5A1F9BFDE34A01A990672A21B3129F"",""assignmentId"":""49df347a-af1e-452f-905b-9b9dc96fa324"",""projectId"":""ba640c14-69c5-453e-80b2-29051492c0e0""}","https://test12345.live/?num_scrambled_semantic=8&num_scrambled_causal=4&num_scrambled_schematic=4&participantId=5A5A1F9BFDE34A01A990672A21B3129F&assignmentId=49df347a-af1e-452f-905b-9b9dc96fa324&projectId=ba640c14-69c5-453e-80b2-29051492c0e0","5A5A1F9BFDE34A01A990672A21B3129F-2025-05-14-21-05-44","","912","","images/schematic_sequence/flight_scheme/flight_scheme_ten.png","0","",""
"","","","","","image-button-response","106","502308","0.0-14.0-1.0-2.5","5A5A1F9BFDE34A01A990672A21B3129F","5A5A1F9BFDE34A01A990672A21B3129F","49df347a-af1e-452f-905b-9b9dc96fa324","ba640c14-69c5-453e-80b2-29051492c0e0","{""num_scrambled_semantic"":""8"",""num_scrambled_causal"":""4"",""num_scrambled_schematic"":""4"",""participantId"":""5A5A1F9BFDE34A01A990672A21B3129F"",""assignmentId"":""49df347a-af1e-452f-905b-9b9dc96fa324"",""projectId"":""ba640c14-69c5-453e-80b2-29051492c0e0""}","https://test12345.live/?num_scrambled_semantic=8&num_scrambled_causal=4&num_scrambled_schematic=4&participantId=5A5A1F9BFDE34A01A990672A21B3129F&assignmentId=49df347a-af1e-452f-905b-9b9dc96fa324&projectId=ba640c14-69c5-453e-80b2-29051492c0e0","5A5A1F9BFDE34A01A990672A21B3129F-2025-05-14-21-05-44","","null","","[]","null","",""
"","","","","","image-button-response","107","506819","0.0-14.0-1.0-0.6","5A5A1F9BFDE34A01A990672A21B3129F","5A5A1F9BFDE34A01A990672A21B3129F","49df347a-af1e-452f-905b-9b9dc96fa324","ba640c14-69c5-453e-80b2-29051492c0e0","{""num_scrambled_semantic"":""8"",""num_scrambled_causal"":""4"",""num_scrambled_schematic"":""4"",""participantId"":""5A5A1F9BFDE34A01A990672A21B3129F"",""assignmentId"":""49df347a-af1e-452f-905b-9b9dc96fa324"",""projectId"":""ba640c14-69c5-453e-80b2-29051492c0e0""}","https://test12345.live/?num_scrambled_semantic=8&num_scrambled_causal=4&num_scrambled_schematic=4&participantId=5A5A1F9BFDE34A01A990672A21B3129F&assignmentId=49df347a-af1e-452f-905b-9b9dc96fa324&projectId=ba640c14-69c5-453e-80b2-29051492c0e0","5A5A1F9BFDE34A01A990672A21B3129F-2025-05-14-21-05-44","","null","","images/schematic_sequence/flight_scheme/flight_scheme_7.png","null","",""
"","","","","","image-button-response","108","510781","0.0-14.0-1.0-1.6","5A5A1F9BFDE34A01A990672A21B3129F","5A5A1F9BFDE34A01A990672A21B3129F","49df347a-af1e-452f-905b-9b9dc96fa324","ba640c14-69c5-453e-80b2-29051492c0e0","{""num_scrambled_semantic"":""8"",""num_scrambled_causal"":""4"",""num_scrambled_schematic"":""4"",""participantId"":""5A5A1F9BFDE34A01A990672A21B3129F"",""assignmentId"":""49df347a-af1e-452f-905b-9b9dc96fa324"",""projectId"":""ba640c14-69c5-453e-80b2-29051492c0e0""}","https://test12345.live/?num_scrambled_semantic=8&num_scrambled_causal=4&num_scrambled_schematic=4&participantId=5A5A1F9BFDE34A01A990672A21B3129F&assignmentId=49df347a-af1e-452f-905b-9b9dc96fa324&projectId=ba640c14-69c5-453e-80b2-29051492c0e0","5A5A1F9BFDE34A01A990672A21B3129F-2025-05-14-21-05-44","","3962","","images/schematic_sequence/flight_scheme/flight_scheme_7.png","0","",""
"","","","","","image-button-response","109","512591","0.0-14.0-1.0-2.6","5A5A1F9BFDE34A01A990672A21B3129F","5A5A1F9BFDE34A01A990672A21B3129F","49df347a-af1e-452f-905b-9b9dc96fa324","ba640c14-69c5-453e-80b2-29051492c0e0","{""num_scrambled_semantic"":""8"",""num_scrambled_causal"":""4"",""num_scrambled_schematic"":""4"",""participantId"":""5A5A1F9BFDE34A01A990672A21B3129F"",""assignmentId"":""49df347a-af1e-452f-905b-9b9dc96fa324"",""projectId"":""ba640c14-69c5-453e-80b2-29051492c0e0""}","https://test12345.live/?num_scrambled_semantic=8&num_scrambled_causal=4&num_scrambled_schematic=4&participantId=5A5A1F9BFDE34A01A990672A21B3129F&assignmentId=49df347a-af1e-452f-905b-9b9dc96fa324&projectId=ba640c14-69c5-453e-80b2-29051492c0e0","5A5A1F9BFDE34A01A990672A21B3129F-2025-05-14-21-05-44","","null","","[]","null","",""
"","","","","","image-button-response","110","517102","0.0-14.0-1.0-0.7","5A5A1F9BFDE34A01A990672A21B3129F","5A5A1F9BFDE34A01A990672A21B3129F","49df347a-af1e-452f-905b-9b9dc96fa324","ba640c14-69c5-453e-80b2-29051492c0e0","{""num_scrambled_semantic"":""8"",""num_scrambled_causal"":""4"",""num_scrambled_schematic"":""4"",""participantId"":""5A5A1F9BFDE34A01A990672A21B3129F"",""assignmentId"":""49df347a-af1e-452f-905b-9b9dc96fa324"",""projectId"":""ba640c14-69c5-453e-80b2-29051492c0e0""}","https://test12345.live/?num_scrambled_semantic=8&num_scrambled_causal=4&num_scrambled_schematic=4&participantId=5A5A1F9BFDE34A01A990672A21B3129F&assignmentId=49df347a-af1e-452f-905b-9b9dc96fa324&projectId=ba640c14-69c5-453e-80b2-29051492c0e0","5A5A1F9BFDE34A01A990672A21B3129F-2025-05-14-21-05-44","","null","","images/schematic_sequence/flight_scheme/flight_scheme_6.png","null","",""
"","","","","","image-button-response","111","518091","0.0-14.0-1.0-1.7","5A5A1F9BFDE34A01A990672A21B3129F","5A5A1F9BFDE34A01A990672A21B3129F","49df347a-af1e-452f-905b-9b9dc96fa324","ba640c14-69c5-453e-80b2-29051492c0e0","{""num_scrambled_semantic"":""8"",""num_scrambled_causal"":""4"",""num_scrambled_schematic"":""4"",""participantId"":""5A5A1F9BFDE34A01A990672A21B3129F"",""assignmentId"":""49df347a-af1e-452f-905b-9b9dc96fa324"",""projectId"":""ba640c14-69c5-453e-80b2-29051492c0e0""}","https://test12345.live/?num_scrambled_semantic=8&num_scrambled_causal=4&num_scrambled_schematic=4&participantId=5A5A1F9BFDE34A01A990672A21B3129F&assignmentId=49df347a-af1e-452f-905b-9b9dc96fa324&projectId=ba640c14-69c5-453e-80b2-29051492c0e0","5A5A1F9BFDE34A01A990672A21B3129F-2025-05-14-21-05-44","","989","","images/schematic_sequence/flight_scheme/flight_scheme_6.png","1","",""
"","","","","","image-button-response","112","519899","0.0-14.0-1.0-2.7","5A5A1F9BFDE34A01A990672A21B3129F","5A5A1F9BFDE34A01A990672A21B3129F","49df347a-af1e-452f-905b-9b9dc96fa324","ba640c14-69c5-453e-80b2-29051492c0e0","{""num_scrambled_semantic"":""8"",""num_scrambled_causal"":""4"",""num_scrambled_schematic"":""4"",""participantId"":""5A5A1F9BFDE34A01A990672A21B3129F"",""assignmentId"":""49df347a-af1e-452f-905b-9b9dc96fa324"",""projectId"":""ba640c14-69c5-453e-80b2-29051492c0e0""}","https://test12345.live/?num_scrambled_semantic=8&num_scrambled_causal=4&num_scrambled_schematic=4&participantId=5A5A1F9BFDE34A01A990672A21B3129F&assignmentId=49df347a-af1e-452f-905b-9b9dc96fa324&projectId=ba640c14-69c5-453e-80b2-29051492c0e0","5A5A1F9BFDE34A01A990672A21B3129F-2025-05-14-21-05-44","","null","","[]","null","",""
"","","","","","image-button-response","113","524413","0.0-14.0-1.0-0.8","5A5A1F9BFDE34A01A990672A21B3129F","5A5A1F9BFDE34A01A990672A21B3129F","49df347a-af1e-452f-905b-9b9dc96fa324","ba640c14-69c5-453e-80b2-29051492c0e0","{""num_scrambled_semantic"":""8"",""num_scrambled_causal"":""4"",""num_scrambled_schematic"":""4"",""participantId"":""5A5A1F9BFDE34A01A990672A21B3129F"",""assignmentId"":""49df347a-af1e-452f-905b-9b9dc96fa324"",""projectId"":""ba640c14-69c5-453e-80b2-29051492c0e0""}","https://test12345.live/?num_scrambled_semantic=8&num_scrambled_causal=4&num_scrambled_schematic=4&participantId=5A5A1F9BFDE34A01A990672A21B3129F&assignmentId=49df347a-af1e-452f-905b-9b9dc96fa324&projectId=ba640c14-69c5-453e-80b2-29051492c0e0","5A5A1F9BFDE34A01A990672A21B3129F-2025-05-14-21-05-44","","null","","images/schematic_sequence/flight_scheme/flight_scheme_8.png","null","",""
"","","","","","image-button-response","114","525145","0.0-14.0-1.0-1.8","5A5A1F9BFDE34A01A990672A21B3129F","5A5A1F9BFDE34A01A990672A21B3129F","49df347a-af1e-452f-905b-9b9dc96fa324","ba640c14-69c5-453e-80b2-29051492c0e0","{""num_scrambled_semantic"":""8"",""num_scrambled_causal"":""4"",""num_scrambled_schematic"":""4"",""participantId"":""5A5A1F9BFDE34A01A990672A21B3129F"",""assignmentId"":""49df347a-af1e-452f-905b-9b9dc96fa324"",""projectId"":""ba640c14-69c5-453e-80b2-29051492c0e0""}","https://test12345.live/?num_scrambled_semantic=8&num_scrambled_causal=4&num_scrambled_schematic=4&participantId=5A5A1F9BFDE34A01A990672A21B3129F&assignmentId=49df347a-af1e-452f-905b-9b9dc96fa324&projectId=ba640c14-69c5-453e-80b2-29051492c0e0","5A5A1F9BFDE34A01A990672A21B3129F-2025-05-14-21-05-44","","732","","images/schematic_sequence/flight_scheme/flight_scheme_8.png","1","",""
