"success","timeout","failed_images","failed_audio","failed_video","trial_type","trial_index","time_elapsed","internal_node_id","subject","subject_id","study_id","session_id","urlvar","current_url","audio_id","view_history","rt","device_id","stimulus","response","estimated_stimulus_onset","seq_name"
"true","false","[]","[]","[]","preload","0","2970","0.0-0.0","5A5DF9642D684FA4AA10E340D6E8AB7B","5A5DF9642D684FA4AA10E340D6E8AB7B","5e583be5-f36d-4f72-8a26-201c1f8fe8eb","ba640c14-69c5-453e-80b2-29051492c0e0","{""num_scrambled_semantic"":""8"",""num_scrambled_causal"":""4"",""num_scrambled_schematic"":""4"",""participantId"":""5A5DF9642D684FA4AA10E340D6E8AB7B"",""assignmentId"":""5e583be5-f36d-4f72-8a26-201c1f8fe8eb"",""projectId"":""ba640c14-69c5-453e-80b2-29051492c0e0""}","https://test12345.live/?num_scrambled_semantic=8&num_scrambled_causal=4&num_scrambled_schematic=4&participantId=5A5DF9642D684FA4AA10E340D6E8AB7B&assignmentId=5e583be5-f36d-4f72-8a26-201c1f8fe8eb&projectId=ba640c14-69c5-453e-80b2-29051492c0e0","5A5DF9642D684FA4AA10E340D6E8AB7B-2025-05-14-21-21-02","","","","","","",""
"","","","","","instructions","1","177366","0.0-1.0","5A5DF9642D684FA4AA10E340D6E8AB7B","5A5DF9642D684FA4AA10E340D6E8AB7B","5e583be5-f36d-4f72-8a26-201c1f8fe8eb","ba640c14-69c5-453e-80b2-29051492c0e0","{""num_scrambled_semantic"":""8"",""num_scrambled_causal"":""4"",""num_scrambled_schematic"":""4"",""participantId"":""5A5DF9642D684FA4AA10E340D6E8AB7B"",""assignmentId"":""5e583be5-f36d-4f72-8a26-201c1f8fe8eb"",""projectId"":""ba640c14-69c5-453e-80b2-29051492c0e0""}","https://test12345.live/?num_scrambled_semantic=8&num_scrambled_causal=4&num_scrambled_schematic=4&participantId=5A5DF9642D684FA4AA10E340D6E8AB7B&assignmentId=5e583be5-f36d-4f72-8a26-201c1f8fe8eb&projectId=ba640c14-69c5-453e-80b2-29051492c0e0","5A5DF9642D684FA4AA10E340D6E8AB7B-2025-05-14-21-21-02","[{""page_index"":0,""viewing_time"":174394}]","174395","","","","",""
"","","","","","instructions","2","199267","0.0-2.0","5A5DF9642D684FA4AA10E340D6E8AB7B","5A5DF9642D684FA4AA10E340D6E8AB7B","5e583be5-f36d-4f72-8a26-201c1f8fe8eb","ba640c14-69c5-453e-80b2-29051492c0e0","{""num_scrambled_semantic"":""8"",""num_scrambled_causal"":""4"",""num_scrambled_schematic"":""4"",""participantId"":""5A5DF9642D684FA4AA10E340D6E8AB7B"",""assignmentId"":""5e583be5-f36d-4f72-8a26-201c1f8fe8eb"",""projectId"":""ba640c14-69c5-453e-80b2-29051492c0e0""}","https://test12345.live/?num_scrambled_semantic=8&num_scrambled_causal=4&num_scrambled_schematic=4&participantId=5A5DF9642D684FA4AA10E340D6E8AB7B&assignmentId=5e583be5-f36d-4f72-8a26-201c1f8fe8eb&projectId=ba640c14-69c5-453e-80b2-29051492c0e0","5A5DF9642D684FA4AA10E340D6E8AB7B-2025-05-14-21-21-02","[{""page_index"":0,""viewing_time"":21900}]","21900","","","","",""
"true","","","","","fullscreen","3","203463","0.0-3.0","5A5DF9642D684FA4AA10E340D6E8AB7B","5A5DF9642D684FA4AA10E340D6E8AB7B","5e583be5-f36d-4f72-8a26-201c1f8fe8eb","ba640c14-69c5-453e-80b2-29051492c0e0","{""num_scrambled_semantic"":""8"",""num_scrambled_causal"":""4"",""num_scrambled_schematic"":""4"",""participantId"":""5A5DF9642D684FA4AA10E340D6E8AB7B"",""assignmentId"":""5e583be5-f36d-4f72-8a26-201c1f8fe8eb"",""projectId"":""ba640c14-69c5-453e-80b2-29051492c0e0""}","https://test12345.live/?num_scrambled_semantic=8&num_scrambled_causal=4&num_scrambled_schematic=4&participantId=5A5DF9642D684FA4AA10E340D6E8AB7B&assignmentId=5e583be5-f36d-4f72-8a26-201c1f8fe8eb&projectId=ba640c14-69c5-453e-80b2-29051492c0e0","5A5DF9642D684FA4AA10E340D6E8AB7B-2025-05-14-21-21-02","","3191","","","","",""
"","","","","","initialize-microphone","4","229837","0.0-4.0-0.0","5A5DF9642D684FA4AA10E340D6E8AB7B","5A5DF9642D684FA4AA10E340D6E8AB7B","5e583be5-f36d-4f72-8a26-201c1f8fe8eb","ba640c14-69c5-453e-80b2-29051492c0e0","{""num_scrambled_semantic"":""8"",""num_scrambled_causal"":""4"",""num_scrambled_schematic"":""4"",""participantId"":""5A5DF9642D684FA4AA10E340D6E8AB7B"",""assignmentId"":""5e583be5-f36d-4f72-8a26-201c1f8fe8eb"",""projectId"":""ba640c14-69c5-453e-80b2-29051492c0e0""}","https://test12345.live/?num_scrambled_semantic=8&num_scrambled_causal=4&num_scrambled_schematic=4&participantId=5A5DF9642D684FA4AA10E340D6E8AB7B&assignmentId=5e583be5-f36d-4f72-8a26-201c1f8fe8eb&projectId=ba640c14-69c5-453e-80b2-29051492c0e0","5A5DF9642D684FA4AA10E340D6E8AB7B-2025-05-14-21-21-02","","","b16140ee47b30d206930a4a710f52b2b0d42d80c400dc6c887f8b97538710f2a","","","",""
"","","","","","html-audio-response","5","252047","0.0-4.0-1.0","5A5DF9642D684FA4AA10E340D6E8AB7B","5A5DF9642D684FA4AA10E340D6E8AB7B","5e583be5-f36d-4f72-8a26-201c1f8fe8eb","ba640c14-69c5-453e-80b2-29051492c0e0","{""num_scrambled_semantic"":""8"",""num_scrambled_causal"":""4"",""num_scrambled_schematic"":""4"",""participantId"":""5A5DF9642D684FA4AA10E340D6E8AB7B"",""assignmentId"":""5e583be5-f36d-4f72-8a26-201c1f8fe8eb"",""projectId"":""ba640c14-69c5-453e-80b2-29051492c0e0""}","https://test12345.live/?num_scrambled_semantic=8&num_scrambled_causal=4&num_scrambled_schematic=4&participantId=5A5DF9642D684FA4AA10E340D6E8AB7B&assignmentId=5e583be5-f36d-4f72-8a26-201c1f8fe8eb&projectId=ba640c14-69c5-453e-80b2-29051492c0e0","5A5DF9642D684FA4AA10E340D6E8AB7B-2025-05-14-21-21-02","","9137","","<span style=""color: red; font-size: 24px""> NOW RECORDING</span>
        <p>Please test Microphone</p>","","1",""
"","","","","","html-button-response","6","254299","0.0-4.0-2.0","5A5DF9642D684FA4AA10E340D6E8AB7B","5A5DF9642D684FA4AA10E340D6E8AB7B","5e583be5-f36d-4f72-8a26-201c1f8fe8eb","ba640c14-69c5-453e-80b2-29051492c0e0","{""num_scrambled_semantic"":""8"",""num_scrambled_causal"":""4"",""num_scrambled_schematic"":""4"",""participantId"":""5A5DF9642D684FA4AA10E340D6E8AB7B"",""assignmentId"":""5e583be5-f36d-4f72-8a26-201c1f8fe8eb"",""projectId"":""ba640c14-69c5-453e-80b2-29051492c0e0""}","https://test12345.live/?num_scrambled_semantic=8&num_scrambled_causal=4&num_scrambled_schematic=4&participantId=5A5DF9642D684FA4AA10E340D6E8AB7B&assignmentId=5e583be5-f36d-4f72-8a26-201c1f8fe8eb&projectId=ba640c14-69c5-453e-80b2-29051492c0e0","5A5DF9642D684FA4AA10E340D6E8AB7B-2025-05-14-21-21-02","","2251","","<p style=""font-size:48px; color:red;"">Is Microphone OK?</p>","1","",""
"","","","","","instructions","7","268018","0.0-5.0","5A5DF9642D684FA4AA10E340D6E8AB7B","5A5DF9642D684FA4AA10E340D6E8AB7B","5e583be5-f36d-4f72-8a26-201c1f8fe8eb","ba640c14-69c5-453e-80b2-29051492c0e0","{""num_scrambled_semantic"":""8"",""num_scrambled_causal"":""4"",""num_scrambled_schematic"":""4"",""participantId"":""5A5DF9642D684FA4AA10E340D6E8AB7B"",""assignmentId"":""5e583be5-f36d-4f72-8a26-201c1f8fe8eb"",""projectId"":""ba640c14-69c5-453e-80b2-29051492c0e0""}","https://test12345.live/?num_scrambled_semantic=8&num_scrambled_causal=4&num_scrambled_schematic=4&participantId=5A5DF9642D684FA4AA10E340D6E8AB7B&assignmentId=5e583be5-f36d-4f72-8a26-201c1f8fe8eb&projectId=ba640c14-69c5-453e-80b2-29051492c0e0","5A5DF9642D684FA4AA10E340D6E8AB7B-2025-05-14-21-21-02","[{""page_index"":0,""viewing_time"":7485},{""page_index"":1,""viewing_time"":6233}]","13718","","","","",""
"","","","","","image-button-response","8","274022","0.0-6.0-0.0","5A5DF9642D684FA4AA10E340D6E8AB7B","5A5DF9642D684FA4AA10E340D6E8AB7B","5e583be5-f36d-4f72-8a26-201c1f8fe8eb","ba640c14-69c5-453e-80b2-29051492c0e0","{""num_scrambled_semantic"":""8"",""num_scrambled_causal"":""4"",""num_scrambled_schematic"":""4"",""participantId"":""5A5DF9642D684FA4AA10E340D6E8AB7B"",""assignmentId"":""5e583be5-f36d-4f72-8a26-201c1f8fe8eb"",""projectId"":""ba640c14-69c5-453e-80b2-29051492c0e0""}","https://test12345.live/?num_scrambled_semantic=8&num_scrambled_causal=4&num_scrambled_schematic=4&participantId=5A5DF9642D684FA4AA10E340D6E8AB7B&assignmentId=5e583be5-f36d-4f72-8a26-201c1f8fe8eb&projectId=ba640c14-69c5-453e-80b2-29051492c0e0","5A5DF9642D684FA4AA10E340D6E8AB7B-2025-05-14-21-21-02","","null","","images/instructions/movie_0.png","null","",""
"","","","","","image-button-response","9","278527","0.0-6.0-1.0-0.0","5A5DF9642D684FA4AA10E340D6E8AB7B","5A5DF9642D684FA4AA10E340D6E8AB7B","5e583be5-f36d-4f72-8a26-201c1f8fe8eb","ba640c14-69c5-453e-80b2-29051492c0e0","{""num_scrambled_semantic"":""8"",""num_scrambled_causal"":""4"",""num_scrambled_schematic"":""4"",""participantId"":""5A5DF9642D684FA4AA10E340D6E8AB7B"",""assignmentId"":""5e583be5-f36d-4f72-8a26-201c1f8fe8eb"",""projectId"":""ba640c14-69c5-453e-80b2-29051492c0e0""}","https://test12345.live/?num_scrambled_semantic=8&num_scrambled_causal=4&num_scrambled_schematic=4&participantId=5A5DF9642D684FA4AA10E340D6E8AB7B&assignmentId=5e583be5-f36d-4f72-8a26-201c1f8fe8eb&projectId=ba640c14-69c5-453e-80b2-29051492c0e0","5A5DF9642D684FA4AA10E340D6E8AB7B-2025-05-14-21-21-02","","null","","images/instructions/movie_1.png","null","",""
"","","","","","image-button-response","10","281720","0.0-6.0-1.0-1.0","5A5DF9642D684FA4AA10E340D6E8AB7B","5A5DF9642D684FA4AA10E340D6E8AB7B","5e583be5-f36d-4f72-8a26-201c1f8fe8eb","ba640c14-69c5-453e-80b2-29051492c0e0","{""num_scrambled_semantic"":""8"",""num_scrambled_causal"":""4"",""num_scrambled_schematic"":""4"",""participantId"":""5A5DF9642D684FA4AA10E340D6E8AB7B"",""assignmentId"":""5e583be5-f36d-4f72-8a26-201c1f8fe8eb"",""projectId"":""ba640c14-69c5-453e-80b2-29051492c0e0""}","https://test12345.live/?num_scrambled_semantic=8&num_scrambled_causal=4&num_scrambled_schematic=4&participantId=5A5DF9642D684FA4AA10E340D6E8AB7B&assignmentId=5e583be5-f36d-4f72-8a26-201c1f8fe8eb&projectId=ba640c14-69c5-453e-80b2-29051492c0e0","5A5DF9642D684FA4AA10E340D6E8AB7B-2025-05-14-21-21-02","","3191","","images/instructions/movie_1.png","0","",""
"","","","","","image-button-response","11","283526","0.0-6.0-1.0-2.0","5A5DF9642D684FA4AA10E340D6E8AB7B","5A5DF9642D684FA4AA10E340D6E8AB7B","5e583be5-f36d-4f72-8a26-201c1f8fe8eb","ba640c14-69c5-453e-80b2-29051492c0e0","{""num_scrambled_semantic"":""8"",""num_scrambled_causal"":""4"",""num_scrambled_schematic"":""4"",""participantId"":""5A5DF9642D684FA4AA10E340D6E8AB7B"",""assignmentId"":""5e583be5-f36d-4f72-8a26-201c1f8fe8eb"",""projectId"":""ba640c14-69c5-453e-80b2-29051492c0e0""}","https://test12345.live/?num_scrambled_semantic=8&num_scrambled_causal=4&num_scrambled_schematic=4&participantId=5A5DF9642D684FA4AA10E340D6E8AB7B&assignmentId=5e583be5-f36d-4f72-8a26-201c1f8fe8eb&projectId=ba640c14-69c5-453e-80b2-29051492c0e0","5A5DF9642D684FA4AA10E340D6E8AB7B-2025-05-14-21-21-02","","null","","[]","null","",""
"","","","","","image-button-response","12","288030","0.0-6.0-1.0-0.1","5A5DF9642D684FA4AA10E340D6E8AB7B","5A5DF9642D684FA4AA10E340D6E8AB7B","5e583be5-f36d-4f72-8a26-201c1f8fe8eb","ba640c14-69c5-453e-80b2-29051492c0e0","{""num_scrambled_semantic"":""8"",""num_scrambled_causal"":""4"",""num_scrambled_schematic"":""4"",""participantId"":""5A5DF9642D684FA4AA10E340D6E8AB7B"",""assignmentId"":""5e583be5-f36d-4f72-8a26-201c1f8fe8eb"",""projectId"":""ba640c14-69c5-453e-80b2-29051492c0e0""}","https://test12345.live/?num_scrambled_semantic=8&num_scrambled_causal=4&num_scrambled_schematic=4&participantId=5A5DF9642D684FA4AA10E340D6E8AB7B&assignmentId=5e583be5-f36d-4f72-8a26-201c1f8fe8eb&projectId=ba640c14-69c5-453e-80b2-29051492c0e0","5A5DF9642D684FA4AA10E340D6E8AB7B-2025-05-14-21-21-02","","null","","images/instructions/movie_2.png","null","",""
"","","","","","image-button-response","13","289213","0.0-6.0-1.0-1.1","5A5DF9642D684FA4AA10E340D6E8AB7B","5A5DF9642D684FA4AA10E340D6E8AB7B","5e583be5-f36d-4f72-8a26-201c1f8fe8eb","ba640c14-69c5-453e-80b2-29051492c0e0","{""num_scrambled_semantic"":""8"",""num_scrambled_causal"":""4"",""num_scrambled_schematic"":""4"",""participantId"":""5A5DF9642D684FA4AA10E340D6E8AB7B"",""assignmentId"":""5e583be5-f36d-4f72-8a26-201c1f8fe8eb"",""projectId"":""ba640c14-69c5-453e-80b2-29051492c0e0""}","https://test12345.live/?num_scrambled_semantic=8&num_scrambled_causal=4&num_scrambled_schematic=4&participantId=5A5DF9642D684FA4AA10E340D6E8AB7B&assignmentId=5e583be5-f36d-4f72-8a26-201c1f8fe8eb&projectId=ba640c14-69c5-453e-80b2-29051492c0e0","5A5DF9642D684FA4AA10E340D6E8AB7B-2025-05-14-21-21-02","","1181","","images/instructions/movie_2.png","1","",""
"","","","","","image-button-response","14","291019","0.0-6.0-1.0-2.1","5A5DF9642D684FA4AA10E340D6E8AB7B","5A5DF9642D684FA4AA10E340D6E8AB7B","5e583be5-f36d-4f72-8a26-201c1f8fe8eb","ba640c14-69c5-453e-80b2-29051492c0e0","{""num_scrambled_semantic"":""8"",""num_scrambled_causal"":""4"",""num_scrambled_schematic"":""4"",""participantId"":""5A5DF9642D684FA4AA10E340D6E8AB7B"",""assignmentId"":""5e583be5-f36d-4f72-8a26-201c1f8fe8eb"",""projectId"":""ba640c14-69c5-453e-80b2-29051492c0e0""}","https://test12345.live/?num_scrambled_semantic=8&num_scrambled_causal=4&num_scrambled_schematic=4&participantId=5A5DF9642D684FA4AA10E340D6E8AB7B&assignmentId=5e583be5-f36d-4f72-8a26-201c1f8fe8eb&projectId=ba640c14-69c5-453e-80b2-29051492c0e0","5A5DF9642D684FA4AA10E340D6E8AB7B-2025-05-14-21-21-02","","null","","[]","null","",""
"","","","","","image-button-response","15","295526","0.0-6.0-1.0-0.2","5A5DF9642D684FA4AA10E340D6E8AB7B","5A5DF9642D684FA4AA10E340D6E8AB7B","5e583be5-f36d-4f72-8a26-201c1f8fe8eb","ba640c14-69c5-453e-80b2-29051492c0e0","{""num_scrambled_semantic"":""8"",""num_scrambled_causal"":""4"",""num_scrambled_schematic"":""4"",""participantId"":""5A5DF9642D684FA4AA10E340D6E8AB7B"",""assignmentId"":""5e583be5-f36d-4f72-8a26-201c1f8fe8eb"",""projectId"":""ba640c14-69c5-453e-80b2-29051492c0e0""}","https://test12345.live/?num_scrambled_semantic=8&num_scrambled_causal=4&num_scrambled_schematic=4&participantId=5A5DF9642D684FA4AA10E340D6E8AB7B&assignmentId=5e583be5-f36d-4f72-8a26-201c1f8fe8eb&projectId=ba640c14-69c5-453e-80b2-29051492c0e0","5A5DF9642D684FA4AA10E340D6E8AB7B-2025-05-14-21-21-02","","null","","images/instructions/movie_3.png","null","",""
"","","","","","image-button-response","16","296364","0.0-6.0-1.0-1.2","5A5DF9642D684FA4AA10E340D6E8AB7B","5A5DF9642D684FA4AA10E340D6E8AB7B","5e583be5-f36d-4f72-8a26-201c1f8fe8eb","ba640c14-69c5-453e-80b2-29051492c0e0","{""num_scrambled_semantic"":""8"",""num_scrambled_causal"":""4"",""num_scrambled_schematic"":""4"",""participantId"":""5A5DF9642D684FA4AA10E340D6E8AB7B"",""assignmentId"":""5e583be5-f36d-4f72-8a26-201c1f8fe8eb"",""projectId"":""ba640c14-69c5-453e-80b2-29051492c0e0""}","https://test12345.live/?num_scrambled_semantic=8&num_scrambled_causal=4&num_scrambled_schematic=4&participantId=5A5DF9642D684FA4AA10E340D6E8AB7B&assignmentId=5e583be5-f36d-4f72-8a26-201c1f8fe8eb&projectId=ba640c14-69c5-453e-80b2-29051492c0e0","5A5DF9642D684FA4AA10E340D6E8AB7B-2025-05-14-21-21-02","","837","","images/instructions/movie_3.png","0","",""
"","","","","","image-button-response","17","298169","0.0-6.0-1.0-2.2","5A5DF9642D684FA4AA10E340D6E8AB7B","5A5DF9642D684FA4AA10E340D6E8AB7B","5e583be5-f36d-4f72-8a26-201c1f8fe8eb","ba640c14-69c5-453e-80b2-29051492c0e0","{""num_scrambled_semantic"":""8"",""num_scrambled_causal"":""4"",""num_scrambled_schematic"":""4"",""participantId"":""5A5DF9642D684FA4AA10E340D6E8AB7B"",""assignmentId"":""5e583be5-f36d-4f72-8a26-201c1f8fe8eb"",""projectId"":""ba640c14-69c5-453e-80b2-29051492c0e0""}","https://test12345.live/?num_scrambled_semantic=8&num_scrambled_causal=4&num_scrambled_schematic=4&participantId=5A5DF9642D684FA4AA10E340D6E8AB7B&assignmentId=5e583be5-f36d-4f72-8a26-201c1f8fe8eb&projectId=ba640c14-69c5-453e-80b2-29051492c0e0","5A5DF9642D684FA4AA10E340D6E8AB7B-2025-05-14-21-21-02","","null","","[]","null","",""
"","","","","","image-button-response","18","302675","0.0-6.0-1.0-0.3","5A5DF9642D684FA4AA10E340D6E8AB7B","5A5DF9642D684FA4AA10E340D6E8AB7B","5e583be5-f36d-4f72-8a26-201c1f8fe8eb","ba640c14-69c5-453e-80b2-29051492c0e0","{""num_scrambled_semantic"":""8"",""num_scrambled_causal"":""4"",""num_scrambled_schematic"":""4"",""participantId"":""5A5DF9642D684FA4AA10E340D6E8AB7B"",""assignmentId"":""5e583be5-f36d-4f72-8a26-201c1f8fe8eb"",""projectId"":""ba640c14-69c5-453e-80b2-29051492c0e0""}","https://test12345.live/?num_scrambled_semantic=8&num_scrambled_causal=4&num_scrambled_schematic=4&participantId=5A5DF9642D684FA4AA10E340D6E8AB7B&assignmentId=5e583be5-f36d-4f72-8a26-201c1f8fe8eb&projectId=ba640c14-69c5-453e-80b2-29051492c0e0","5A5DF9642D684FA4AA10E340D6E8AB7B-2025-05-14-21-21-02","","null","","images/instructions/movie_4.png","null","",""
"","","","","","image-button-response","19","304400","0.0-6.0-1.0-1.3","5A5DF9642D684FA4AA10E340D6E8AB7B","5A5DF9642D684FA4AA10E340D6E8AB7B","5e583be5-f36d-4f72-8a26-201c1f8fe8eb","ba640c14-69c5-453e-80b2-29051492c0e0","{""num_scrambled_semantic"":""8"",""num_scrambled_causal"":""4"",""num_scrambled_schematic"":""4"",""participantId"":""5A5DF9642D684FA4AA10E340D6E8AB7B"",""assignmentId"":""5e583be5-f36d-4f72-8a26-201c1f8fe8eb"",""projectId"":""ba640c14-69c5-453e-80b2-29051492c0e0""}","https://test12345.live/?num_scrambled_semantic=8&num_scrambled_causal=4&num_scrambled_schematic=4&participantId=5A5DF9642D684FA4AA10E340D6E8AB7B&assignmentId=5e583be5-f36d-4f72-8a26-201c1f8fe8eb&projectId=ba640c14-69c5-453e-80b2-29051492c0e0","5A5DF9642D684FA4AA10E340D6E8AB7B-2025-05-14-21-21-02","","1724","","images/instructions/movie_4.png","0","",""
"","","","","","image-button-response","20","306205","0.0-6.0-1.0-2.3","5A5DF9642D684FA4AA10E340D6E8AB7B","5A5DF9642D684FA4AA10E340D6E8AB7B","5e583be5-f36d-4f72-8a26-201c1f8fe8eb","ba640c14-69c5-453e-80b2-29051492c0e0","{""num_scrambled_semantic"":""8"",""num_scrambled_causal"":""4"",""num_scrambled_schematic"":""4"",""participantId"":""5A5DF9642D684FA4AA10E340D6E8AB7B"",""assignmentId"":""5e583be5-f36d-4f72-8a26-201c1f8fe8eb"",""projectId"":""ba640c14-69c5-453e-80b2-29051492c0e0""}","https://test12345.live/?num_scrambled_semantic=8&num_scrambled_causal=4&num_scrambled_schematic=4&participantId=5A5DF9642D684FA4AA10E340D6E8AB7B&assignmentId=5e583be5-f36d-4f72-8a26-201c1f8fe8eb&projectId=ba640c14-69c5-453e-80b2-29051492c0e0","5A5DF9642D684FA4AA10E340D6E8AB7B-2025-05-14-21-21-02","","null","","[]","null","",""
"","","","","","instructions","21","329605","0.0-7.0","5A5DF9642D684FA4AA10E340D6E8AB7B","5A5DF9642D684FA4AA10E340D6E8AB7B","5e583be5-f36d-4f72-8a26-201c1f8fe8eb","ba640c14-69c5-453e-80b2-29051492c0e0","{""num_scrambled_semantic"":""8"",""num_scrambled_causal"":""4"",""num_scrambled_schematic"":""4"",""participantId"":""5A5DF9642D684FA4AA10E340D6E8AB7B"",""assignmentId"":""5e583be5-f36d-4f72-8a26-201c1f8fe8eb"",""projectId"":""ba640c14-69c5-453e-80b2-29051492c0e0""}","https://test12345.live/?num_scrambled_semantic=8&num_scrambled_causal=4&num_scrambled_schematic=4&participantId=5A5DF9642D684FA4AA10E340D6E8AB7B&assignmentId=5e583be5-f36d-4f72-8a26-201c1f8fe8eb&projectId=ba640c14-69c5-453e-80b2-29051492c0e0","5A5DF9642D684FA4AA10E340D6E8AB7B-2025-05-14-21-21-02","[{""page_index"":0,""viewing_time"":21396},{""page_index"":1,""viewing_time"":2004}]","23400","","","","",""
"","","","","","html-audio-response","22","396983","0.0-8.0","5A5DF9642D684FA4AA10E340D6E8AB7B","5A5DF9642D684FA4AA10E340D6E8AB7B","5e583be5-f36d-4f72-8a26-201c1f8fe8eb","ba640c14-69c5-453e-80b2-29051492c0e0","{""num_scrambled_semantic"":""8"",""num_scrambled_causal"":""4"",""num_scrambled_schematic"":""4"",""participantId"":""5A5DF9642D684FA4AA10E340D6E8AB7B"",""assignmentId"":""5e583be5-f36d-4f72-8a26-201c1f8fe8eb"",""projectId"":""ba640c14-69c5-453e-80b2-29051492c0e0""}","https://test12345.live/?num_scrambled_semantic=8&num_scrambled_causal=4&num_scrambled_schematic=4&participantId=5A5DF9642D684FA4AA10E340D6E8AB7B&assignmentId=5e583be5-f36d-4f72-8a26-201c1f8fe8eb&projectId=ba640c14-69c5-453e-80b2-29051492c0e0","5A5DF9642D684FA4AA10E340D6E8AB7B-2025-05-14-21-21-02","","26828","","[""<span style=\""color: red; font-size: 24px\""> NOW RECORDING</span><p>Please say out loud all the images you saw, as many as you can remember. The images can be said in any order.</p>""]","","3",""
"","","","","","instructions","23","421711","0.0-9.0","5A5DF9642D684FA4AA10E340D6E8AB7B","5A5DF9642D684FA4AA10E340D6E8AB7B","5e583be5-f36d-4f72-8a26-201c1f8fe8eb","ba640c14-69c5-453e-80b2-29051492c0e0","{""num_scrambled_semantic"":""8"",""num_scrambled_causal"":""4"",""num_scrambled_schematic"":""4"",""participantId"":""5A5DF9642D684FA4AA10E340D6E8AB7B"",""assignmentId"":""5e583be5-f36d-4f72-8a26-201c1f8fe8eb"",""projectId"":""ba640c14-69c5-453e-80b2-29051492c0e0""}","https://test12345.live/?num_scrambled_semantic=8&num_scrambled_causal=4&num_scrambled_schematic=4&participantId=5A5DF9642D684FA4AA10E340D6E8AB7B&assignmentId=5e583be5-f36d-4f72-8a26-201c1f8fe8eb&projectId=ba640c14-69c5-453e-80b2-29051492c0e0","5A5DF9642D684FA4AA10E340D6E8AB7B-2025-05-14-21-21-02","[{""page_index"":0,""viewing_time"":24723}]","24723","","","","",""
"","","","","","image-button-response","24","427715","0.0-10.0-0.0","5A5DF9642D684FA4AA10E340D6E8AB7B","5A5DF9642D684FA4AA10E340D6E8AB7B","5e583be5-f36d-4f72-8a26-201c1f8fe8eb","ba640c14-69c5-453e-80b2-29051492c0e0","{""num_scrambled_semantic"":""8"",""num_scrambled_causal"":""4"",""num_scrambled_schematic"":""4"",""participantId"":""5A5DF9642D684FA4AA10E340D6E8AB7B"",""assignmentId"":""5e583be5-f36d-4f72-8a26-201c1f8fe8eb"",""projectId"":""ba640c14-69c5-453e-80b2-29051492c0e0""}","https://test12345.live/?num_scrambled_semantic=8&num_scrambled_causal=4&num_scrambled_schematic=4&participantId=5A5DF9642D684FA4AA10E340D6E8AB7B&assignmentId=5e583be5-f36d-4f72-8a26-201c1f8fe8eb&projectId=ba640c14-69c5-453e-80b2-29051492c0e0","5A5DF9642D684FA4AA10E340D6E8AB7B-2025-05-14-21-21-02","","null","","images/semantic_sequence/self_care_activities_semantic/self_care_activities_semantic_0.png","null","",""
"","","","","","image-button-response","25","432219","0.0-10.0-1.0-0.0","5A5DF9642D684FA4AA10E340D6E8AB7B","5A5DF9642D684FA4AA10E340D6E8AB7B","5e583be5-f36d-4f72-8a26-201c1f8fe8eb","ba640c14-69c5-453e-80b2-29051492c0e0","{""num_scrambled_semantic"":""8"",""num_scrambled_causal"":""4"",""num_scrambled_schematic"":""4"",""participantId"":""5A5DF9642D684FA4AA10E340D6E8AB7B"",""assignmentId"":""5e583be5-f36d-4f72-8a26-201c1f8fe8eb"",""projectId"":""ba640c14-69c5-453e-80b2-29051492c0e0""}","https://test12345.live/?num_scrambled_semantic=8&num_scrambled_causal=4&num_scrambled_schematic=4&participantId=5A5DF9642D684FA4AA10E340D6E8AB7B&assignmentId=5e583be5-f36d-4f72-8a26-201c1f8fe8eb&projectId=ba640c14-69c5-453e-80b2-29051492c0e0","5A5DF9642D684FA4AA10E340D6E8AB7B-2025-05-14-21-21-02","","null","","images/semantic_sequence/self_care_activities_semantic/self_care_activities_semantic_4.png","null","",""
"","","","","","image-button-response","26","433545","0.0-10.0-1.0-1.0","5A5DF9642D684FA4AA10E340D6E8AB7B","5A5DF9642D684FA4AA10E340D6E8AB7B","5e583be5-f36d-4f72-8a26-201c1f8fe8eb","ba640c14-69c5-453e-80b2-29051492c0e0","{""num_scrambled_semantic"":""8"",""num_scrambled_causal"":""4"",""num_scrambled_schematic"":""4"",""participantId"":""5A5DF9642D684FA4AA10E340D6E8AB7B"",""assignmentId"":""5e583be5-f36d-4f72-8a26-201c1f8fe8eb"",""projectId"":""ba640c14-69c5-453e-80b2-29051492c0e0""}","https://test12345.live/?num_scrambled_semantic=8&num_scrambled_causal=4&num_scrambled_schematic=4&participantId=5A5DF9642D684FA4AA10E340D6E8AB7B&assignmentId=5e583be5-f36d-4f72-8a26-201c1f8fe8eb&projectId=ba640c14-69c5-453e-80b2-29051492c0e0","5A5DF9642D684FA4AA10E340D6E8AB7B-2025-05-14-21-21-02","","1324","","images/semantic_sequence/self_care_activities_semantic/self_care_activities_semantic_4.png","0","",""
"","","","","","image-button-response","27","435350","0.0-10.0-1.0-2.0","5A5DF9642D684FA4AA10E340D6E8AB7B","5A5DF9642D684FA4AA10E340D6E8AB7B","5e583be5-f36d-4f72-8a26-201c1f8fe8eb","ba640c14-69c5-453e-80b2-29051492c0e0","{""num_scrambled_semantic"":""8"",""num_scrambled_causal"":""4"",""num_scrambled_schematic"":""4"",""participantId"":""5A5DF9642D684FA4AA10E340D6E8AB7B"",""assignmentId"":""5e583be5-f36d-4f72-8a26-201c1f8fe8eb"",""projectId"":""ba640c14-69c5-453e-80b2-29051492c0e0""}","https://test12345.live/?num_scrambled_semantic=8&num_scrambled_causal=4&num_scrambled_schematic=4&participantId=5A5DF9642D684FA4AA10E340D6E8AB7B&assignmentId=5e583be5-f36d-4f72-8a26-201c1f8fe8eb&projectId=ba640c14-69c5-453e-80b2-29051492c0e0","5A5DF9642D684FA4AA10E340D6E8AB7B-2025-05-14-21-21-02","","null","","[]","null","",""
"","","","","","image-button-response","28","439858","0.0-10.0-1.0-0.1","5A5DF9642D684FA4AA10E340D6E8AB7B","5A5DF9642D684FA4AA10E340D6E8AB7B","5e583be5-f36d-4f72-8a26-201c1f8fe8eb","ba640c14-69c5-453e-80b2-29051492c0e0","{""num_scrambled_semantic"":""8"",""num_scrambled_causal"":""4"",""num_scrambled_schematic"":""4"",""participantId"":""5A5DF9642D684FA4AA10E340D6E8AB7B"",""assignmentId"":""5e583be5-f36d-4f72-8a26-201c1f8fe8eb"",""projectId"":""ba640c14-69c5-453e-80b2-29051492c0e0""}","https://test12345.live/?num_scrambled_semantic=8&num_scrambled_causal=4&num_scrambled_schematic=4&participantId=5A5DF9642D684FA4AA10E340D6E8AB7B&assignmentId=5e583be5-f36d-4f72-8a26-201c1f8fe8eb&projectId=ba640c14-69c5-453e-80b2-29051492c0e0","5A5DF9642D684FA4AA10E340D6E8AB7B-2025-05-14-21-21-02","","null","","images/semantic_sequence/self_care_activities_semantic/self_care_activities_semantic_7.png","null","",""
"","","","","","image-button-response","29","441075","0.0-10.0-1.0-1.1","5A5DF9642D684FA4AA10E340D6E8AB7B","5A5DF9642D684FA4AA10E340D6E8AB7B","5e583be5-f36d-4f72-8a26-201c1f8fe8eb","ba640c14-69c5-453e-80b2-29051492c0e0","{""num_scrambled_semantic"":""8"",""num_scrambled_causal"":""4"",""num_scrambled_schematic"":""4"",""participantId"":""5A5DF9642D684FA4AA10E340D6E8AB7B"",""assignmentId"":""5e583be5-f36d-4f72-8a26-201c1f8fe8eb"",""projectId"":""ba640c14-69c5-453e-80b2-29051492c0e0""}","https://test12345.live/?num_scrambled_semantic=8&num_scrambled_causal=4&num_scrambled_schematic=4&participantId=5A5DF9642D684FA4AA10E340D6E8AB7B&assignmentId=5e583be5-f36d-4f72-8a26-201c1f8fe8eb&projectId=ba640c14-69c5-453e-80b2-29051492c0e0","5A5DF9642D684FA4AA10E340D6E8AB7B-2025-05-14-21-21-02","","1213","","images/semantic_sequence/self_care_activities_semantic/self_care_activities_semantic_7.png","0","",""
"","","","","","image-button-response","30","442880","0.0-10.0-1.0-2.1","5A5DF9642D684FA4AA10E340D6E8AB7B","5A5DF9642D684FA4AA10E340D6E8AB7B","5e583be5-f36d-4f72-8a26-201c1f8fe8eb","ba640c14-69c5-453e-80b2-29051492c0e0","{""num_scrambled_semantic"":""8"",""num_scrambled_causal"":""4"",""num_scrambled_schematic"":""4"",""participantId"":""5A5DF9642D684FA4AA10E340D6E8AB7B"",""assignmentId"":""5e583be5-f36d-4f72-8a26-201c1f8fe8eb"",""projectId"":""ba640c14-69c5-453e-80b2-29051492c0e0""}","https://test12345.live/?num_scrambled_semantic=8&num_scrambled_causal=4&num_scrambled_schematic=4&participantId=5A5DF9642D684FA4AA10E340D6E8AB7B&assignmentId=5e583be5-f36d-4f72-8a26-201c1f8fe8eb&projectId=ba640c14-69c5-453e-80b2-29051492c0e0","5A5DF9642D684FA4AA10E340D6E8AB7B-2025-05-14-21-21-02","","null","","[]","null","",""
"","","","","","image-button-response","31","447389","0.0-10.0-1.0-0.2","5A5DF9642D684FA4AA10E340D6E8AB7B","5A5DF9642D684FA4AA10E340D6E8AB7B","5e583be5-f36d-4f72-8a26-201c1f8fe8eb","ba640c14-69c5-453e-80b2-29051492c0e0","{""num_scrambled_semantic"":""8"",""num_scrambled_causal"":""4"",""num_scrambled_schematic"":""4"",""participantId"":""5A5DF9642D684FA4AA10E340D6E8AB7B"",""assignmentId"":""5e583be5-f36d-4f72-8a26-201c1f8fe8eb"",""projectId"":""ba640c14-69c5-453e-80b2-29051492c0e0""}","https://test12345.live/?num_scrambled_semantic=8&num_scrambled_causal=4&num_scrambled_schematic=4&participantId=5A5DF9642D684FA4AA10E340D6E8AB7B&assignmentId=5e583be5-f36d-4f72-8a26-201c1f8fe8eb&projectId=ba640c14-69c5-453e-80b2-29051492c0e0","5A5DF9642D684FA4AA10E340D6E8AB7B-2025-05-14-21-21-02","","null","","images/semantic_sequence/self_care_activities_semantic/self_care_activities_semantic_6.png","null","",""
"","","","","","image-button-response","32","448788","0.0-10.0-1.0-1.2","5A5DF9642D684FA4AA10E340D6E8AB7B","5A5DF9642D684FA4AA10E340D6E8AB7B","5e583be5-f36d-4f72-8a26-201c1f8fe8eb","ba640c14-69c5-453e-80b2-29051492c0e0","{""num_scrambled_semantic"":""8"",""num_scrambled_causal"":""4"",""num_scrambled_schematic"":""4"",""participantId"":""5A5DF9642D684FA4AA10E340D6E8AB7B"",""assignmentId"":""5e583be5-f36d-4f72-8a26-201c1f8fe8eb"",""projectId"":""ba640c14-69c5-453e-80b2-29051492c0e0""}","https://test12345.live/?num_scrambled_semantic=8&num_scrambled_causal=4&num_scrambled_schematic=4&participantId=5A5DF9642D684FA4AA10E340D6E8AB7B&assignmentId=5e583be5-f36d-4f72-8a26-201c1f8fe8eb&projectId=ba640c14-69c5-453e-80b2-29051492c0e0","5A5DF9642D684FA4AA10E340D6E8AB7B-2025-05-14-21-21-02","","1396","","images/semantic_sequence/self_care_activities_semantic/self_care_activities_semantic_6.png","1","",""
"","","","","","image-button-response","33","450591","0.0-10.0-1.0-2.2","5A5DF9642D684FA4AA10E340D6E8AB7B","5A5DF9642D684FA4AA10E340D6E8AB7B","5e583be5-f36d-4f72-8a26-201c1f8fe8eb","ba640c14-69c5-453e-80b2-29051492c0e0","{""num_scrambled_semantic"":""8"",""num_scrambled_causal"":""4"",""num_scrambled_schematic"":""4"",""participantId"":""5A5DF9642D684FA4AA10E340D6E8AB7B"",""assignmentId"":""5e583be5-f36d-4f72-8a26-201c1f8fe8eb"",""projectId"":""ba640c14-69c5-453e-80b2-29051492c0e0""}","https://test12345.live/?num_scrambled_semantic=8&num_scrambled_causal=4&num_scrambled_schematic=4&participantId=5A5DF9642D684FA4AA10E340D6E8AB7B&assignmentId=5e583be5-f36d-4f72-8a26-201c1f8fe8eb&projectId=ba640c14-69c5-453e-80b2-29051492c0e0","5A5DF9642D684FA4AA10E340D6E8AB7B-2025-05-14-21-21-02","","null","","[]","null","",""
"","","","","","image-button-response","34","455093","0.0-10.0-1.0-0.3","5A5DF9642D684FA4AA10E340D6E8AB7B","5A5DF9642D684FA4AA10E340D6E8AB7B","5e583be5-f36d-4f72-8a26-201c1f8fe8eb","ba640c14-69c5-453e-80b2-29051492c0e0","{""num_scrambled_semantic"":""8"",""num_scrambled_causal"":""4"",""num_scrambled_schematic"":""4"",""participantId"":""5A5DF9642D684FA4AA10E340D6E8AB7B"",""assignmentId"":""5e583be5-f36d-4f72-8a26-201c1f8fe8eb"",""projectId"":""ba640c14-69c5-453e-80b2-29051492c0e0""}","https://test12345.live/?num_scrambled_semantic=8&num_scrambled_causal=4&num_scrambled_schematic=4&participantId=5A5DF9642D684FA4AA10E340D6E8AB7B&assignmentId=5e583be5-f36d-4f72-8a26-201c1f8fe8eb&projectId=ba640c14-69c5-453e-80b2-29051492c0e0","5A5DF9642D684FA4AA10E340D6E8AB7B-2025-05-14-21-21-02","","null","","images/semantic_sequence/self_care_activities_semantic/self_care_activities_semantic_2.png","null","",""
"","","","","","image-button-response","35","456440","0.0-10.0-1.0-1.3","5A5DF9642D684FA4AA10E340D6E8AB7B","5A5DF9642D684FA4AA10E340D6E8AB7B","5e583be5-f36d-4f72-8a26-201c1f8fe8eb","ba640c14-69c5-453e-80b2-29051492c0e0","{""num_scrambled_semantic"":""8"",""num_scrambled_causal"":""4"",""num_scrambled_schematic"":""4"",""participantId"":""5A5DF9642D684FA4AA10E340D6E8AB7B"",""assignmentId"":""5e583be5-f36d-4f72-8a26-201c1f8fe8eb"",""projectId"":""ba640c14-69c5-453e-80b2-29051492c0e0""}","https://test12345.live/?num_scrambled_semantic=8&num_scrambled_causal=4&num_scrambled_schematic=4&participantId=5A5DF9642D684FA4AA10E340D6E8AB7B&assignmentId=5e583be5-f36d-4f72-8a26-201c1f8fe8eb&projectId=ba640c14-69c5-453e-80b2-29051492c0e0","5A5DF9642D684FA4AA10E340D6E8AB7B-2025-05-14-21-21-02","","1343","","images/semantic_sequence/self_care_activities_semantic/self_care_activities_semantic_2.png","0","",""
"","","","","","image-button-response","36","458245","0.0-10.0-1.0-2.3","5A5DF9642D684FA4AA10E340D6E8AB7B","5A5DF9642D684FA4AA10E340D6E8AB7B","5e583be5-f36d-4f72-8a26-201c1f8fe8eb","ba640c14-69c5-453e-80b2-29051492c0e0","{""num_scrambled_semantic"":""8"",""num_scrambled_causal"":""4"",""num_scrambled_schematic"":""4"",""participantId"":""5A5DF9642D684FA4AA10E340D6E8AB7B"",""assignmentId"":""5e583be5-f36d-4f72-8a26-201c1f8fe8eb"",""projectId"":""ba640c14-69c5-453e-80b2-29051492c0e0""}","https://test12345.live/?num_scrambled_semantic=8&num_scrambled_causal=4&num_scrambled_schematic=4&participantId=5A5DF9642D684FA4AA10E340D6E8AB7B&assignmentId=5e583be5-f36d-4f72-8a26-201c1f8fe8eb&projectId=ba640c14-69c5-453e-80b2-29051492c0e0","5A5DF9642D684FA4AA10E340D6E8AB7B-2025-05-14-21-21-02","","null","","[]","null","",""
"","","","","","image-button-response","37","462750","0.0-10.0-1.0-0.4","5A5DF9642D684FA4AA10E340D6E8AB7B","5A5DF9642D684FA4AA10E340D6E8AB7B","5e583be5-f36d-4f72-8a26-201c1f8fe8eb","ba640c14-69c5-453e-80b2-29051492c0e0","{""num_scrambled_semantic"":""8"",""num_scrambled_causal"":""4"",""num_scrambled_schematic"":""4"",""participantId"":""5A5DF9642D684FA4AA10E340D6E8AB7B"",""assignmentId"":""5e583be5-f36d-4f72-8a26-201c1f8fe8eb"",""projectId"":""ba640c14-69c5-453e-80b2-29051492c0e0""}","https://test12345.live/?num_scrambled_semantic=8&num_scrambled_causal=4&num_scrambled_schematic=4&participantId=5A5DF9642D684FA4AA10E340D6E8AB7B&assignmentId=5e583be5-f36d-4f72-8a26-201c1f8fe8eb&projectId=ba640c14-69c5-453e-80b2-29051492c0e0","5A5DF9642D684FA4AA10E340D6E8AB7B-2025-05-14-21-21-02","","null","","images/semantic_sequence/self_care_activities_semantic/self_care_activities_semantic_1.png","null","",""
"","","","","","image-button-response","38","463819","0.0-10.0-1.0-1.4","5A5DF9642D684FA4AA10E340D6E8AB7B","5A5DF9642D684FA4AA10E340D6E8AB7B","5e583be5-f36d-4f72-8a26-201c1f8fe8eb","ba640c14-69c5-453e-80b2-29051492c0e0","{""num_scrambled_semantic"":""8"",""num_scrambled_causal"":""4"",""num_scrambled_schematic"":""4"",""participantId"":""5A5DF9642D684FA4AA10E340D6E8AB7B"",""assignmentId"":""5e583be5-f36d-4f72-8a26-201c1f8fe8eb"",""projectId"":""ba640c14-69c5-453e-80b2-29051492c0e0""}","https://test12345.live/?num_scrambled_semantic=8&num_scrambled_causal=4&num_scrambled_schematic=4&participantId=5A5DF9642D684FA4AA10E340D6E8AB7B&assignmentId=5e583be5-f36d-4f72-8a26-201c1f8fe8eb&projectId=ba640c14-69c5-453e-80b2-29051492c0e0","5A5DF9642D684FA4AA10E340D6E8AB7B-2025-05-14-21-21-02","","1065","","images/semantic_sequence/self_care_activities_semantic/self_care_activities_semantic_1.png","0","",""
"","","","","","image-button-response","39","465626","0.0-10.0-1.0-2.4","5A5DF9642D684FA4AA10E340D6E8AB7B","5A5DF9642D684FA4AA10E340D6E8AB7B","5e583be5-f36d-4f72-8a26-201c1f8fe8eb","ba640c14-69c5-453e-80b2-29051492c0e0","{""num_scrambled_semantic"":""8"",""num_scrambled_causal"":""4"",""num_scrambled_schematic"":""4"",""participantId"":""5A5DF9642D684FA4AA10E340D6E8AB7B"",""assignmentId"":""5e583be5-f36d-4f72-8a26-201c1f8fe8eb"",""projectId"":""ba640c14-69c5-453e-80b2-29051492c0e0""}","https://test12345.live/?num_scrambled_semantic=8&num_scrambled_causal=4&num_scrambled_schematic=4&participantId=5A5DF9642D684FA4AA10E340D6E8AB7B&assignmentId=5e583be5-f36d-4f72-8a26-201c1f8fe8eb&projectId=ba640c14-69c5-453e-80b2-29051492c0e0","5A5DF9642D684FA4AA10E340D6E8AB7B-2025-05-14-21-21-02","","null","","[]","null","",""
"","","","","","image-button-response","40","470130","0.0-10.0-1.0-0.5","5A5DF9642D684FA4AA10E340D6E8AB7B","5A5DF9642D684FA4AA10E340D6E8AB7B","5e583be5-f36d-4f72-8a26-201c1f8fe8eb","ba640c14-69c5-453e-80b2-29051492c0e0","{""num_scrambled_semantic"":""8"",""num_scrambled_causal"":""4"",""num_scrambled_schematic"":""4"",""participantId"":""5A5DF9642D684FA4AA10E340D6E8AB7B"",""assignmentId"":""5e583be5-f36d-4f72-8a26-201c1f8fe8eb"",""projectId"":""ba640c14-69c5-453e-80b2-29051492c0e0""}","https://test12345.live/?num_scrambled_semantic=8&num_scrambled_causal=4&num_scrambled_schematic=4&participantId=5A5DF9642D684FA4AA10E340D6E8AB7B&assignmentId=5e583be5-f36d-4f72-8a26-201c1f8fe8eb&projectId=ba640c14-69c5-453e-80b2-29051492c0e0","5A5DF9642D684FA4AA10E340D6E8AB7B-2025-05-14-21-21-02","","null","","images/semantic_sequence/self_care_activities_semantic/self_care_activities_semantic_9.png","null","",""
"","","","","","image-button-response","41","471299","0.0-10.0-1.0-1.5","5A5DF9642D684FA4AA10E340D6E8AB7B","5A5DF9642D684FA4AA10E340D6E8AB7B","5e583be5-f36d-4f72-8a26-201c1f8fe8eb","ba640c14-69c5-453e-80b2-29051492c0e0","{""num_scrambled_semantic"":""8"",""num_scrambled_causal"":""4"",""num_scrambled_schematic"":""4"",""participantId"":""5A5DF9642D684FA4AA10E340D6E8AB7B"",""assignmentId"":""5e583be5-f36d-4f72-8a26-201c1f8fe8eb"",""projectId"":""ba640c14-69c5-453e-80b2-29051492c0e0""}","https://test12345.live/?num_scrambled_semantic=8&num_scrambled_causal=4&num_scrambled_schematic=4&participantId=5A5DF9642D684FA4AA10E340D6E8AB7B&assignmentId=5e583be5-f36d-4f72-8a26-201c1f8fe8eb&projectId=ba640c14-69c5-453e-80b2-29051492c0e0","5A5DF9642D684FA4AA10E340D6E8AB7B-2025-05-14-21-21-02","","1166","","images/semantic_sequence/self_care_activities_semantic/self_care_activities_semantic_9.png","0","",""
"","","","","","image-button-response","42","473105","0.0-10.0-1.0-2.5","5A5DF9642D684FA4AA10E340D6E8AB7B","5A5DF9642D684FA4AA10E340D6E8AB7B","5e583be5-f36d-4f72-8a26-201c1f8fe8eb","ba640c14-69c5-453e-80b2-29051492c0e0","{""num_scrambled_semantic"":""8"",""num_scrambled_causal"":""4"",""num_scrambled_schematic"":""4"",""participantId"":""5A5DF9642D684FA4AA10E340D6E8AB7B"",""assignmentId"":""5e583be5-f36d-4f72-8a26-201c1f8fe8eb"",""projectId"":""ba640c14-69c5-453e-80b2-29051492c0e0""}","https://test12345.live/?num_scrambled_semantic=8&num_scrambled_causal=4&num_scrambled_schematic=4&participantId=5A5DF9642D684FA4AA10E340D6E8AB7B&assignmentId=5e583be5-f36d-4f72-8a26-201c1f8fe8eb&projectId=ba640c14-69c5-453e-80b2-29051492c0e0","5A5DF9642D684FA4AA10E340D6E8AB7B-2025-05-14-21-21-02","","null","","[]","null","",""
"","","","","","image-button-response","43","477613","0.0-10.0-1.0-0.6","5A5DF9642D684FA4AA10E340D6E8AB7B","5A5DF9642D684FA4AA10E340D6E8AB7B","5e583be5-f36d-4f72-8a26-201c1f8fe8eb","ba640c14-69c5-453e-80b2-29051492c0e0","{""num_scrambled_semantic"":""8"",""num_scrambled_causal"":""4"",""num_scrambled_schematic"":""4"",""participantId"":""5A5DF9642D684FA4AA10E340D6E8AB7B"",""assignmentId"":""5e583be5-f36d-4f72-8a26-201c1f8fe8eb"",""projectId"":""ba640c14-69c5-453e-80b2-29051492c0e0""}","https://test12345.live/?num_scrambled_semantic=8&num_scrambled_causal=4&num_scrambled_schematic=4&participantId=5A5DF9642D684FA4AA10E340D6E8AB7B&assignmentId=5e583be5-f36d-4f72-8a26-201c1f8fe8eb&projectId=ba640c14-69c5-453e-80b2-29051492c0e0","5A5DF9642D684FA4AA10E340D6E8AB7B-2025-05-14-21-21-02","","null","","images/semantic_sequence/self_care_activities_semantic/self_care_activities_semantic_3.png","null","",""
"","","","","","image-button-response","44","479477","0.0-10.0-1.0-1.6","5A5DF9642D684FA4AA10E340D6E8AB7B","5A5DF9642D684FA4AA10E340D6E8AB7B","5e583be5-f36d-4f72-8a26-201c1f8fe8eb","ba640c14-69c5-453e-80b2-29051492c0e0","{""num_scrambled_semantic"":""8"",""num_scrambled_causal"":""4"",""num_scrambled_schematic"":""4"",""participantId"":""5A5DF9642D684FA4AA10E340D6E8AB7B"",""assignmentId"":""5e583be5-f36d-4f72-8a26-201c1f8fe8eb"",""projectId"":""ba640c14-69c5-453e-80b2-29051492c0e0""}","https://test12345.live/?num_scrambled_semantic=8&num_scrambled_causal=4&num_scrambled_schematic=4&participantId=5A5DF9642D684FA4AA10E340D6E8AB7B&assignmentId=5e583be5-f36d-4f72-8a26-201c1f8fe8eb&projectId=ba640c14-69c5-453e-80b2-29051492c0e0","5A5DF9642D684FA4AA10E340D6E8AB7B-2025-05-14-21-21-02","","1862","","images/semantic_sequence/self_care_activities_semantic/self_care_activities_semantic_3.png","0","",""
"","","","","","image-button-response","45","481283","0.0-10.0-1.0-2.6","5A5DF9642D684FA4AA10E340D6E8AB7B","5A5DF9642D684FA4AA10E340D6E8AB7B","5e583be5-f36d-4f72-8a26-201c1f8fe8eb","ba640c14-69c5-453e-80b2-29051492c0e0","{""num_scrambled_semantic"":""8"",""num_scrambled_causal"":""4"",""num_scrambled_schematic"":""4"",""participantId"":""5A5DF9642D684FA4AA10E340D6E8AB7B"",""assignmentId"":""5e583be5-f36d-4f72-8a26-201c1f8fe8eb"",""projectId"":""ba640c14-69c5-453e-80b2-29051492c0e0""}","https://test12345.live/?num_scrambled_semantic=8&num_scrambled_causal=4&num_scrambled_schematic=4&participantId=5A5DF9642D684FA4AA10E340D6E8AB7B&assignmentId=5e583be5-f36d-4f72-8a26-201c1f8fe8eb&projectId=ba640c14-69c5-453e-80b2-29051492c0e0","5A5DF9642D684FA4AA10E340D6E8AB7B-2025-05-14-21-21-02","","null","","[]","null","",""
"","","","","","image-button-response","46","485793","0.0-10.0-1.0-0.7","5A5DF9642D684FA4AA10E340D6E8AB7B","5A5DF9642D684FA4AA10E340D6E8AB7B","5e583be5-f36d-4f72-8a26-201c1f8fe8eb","ba640c14-69c5-453e-80b2-29051492c0e0","{""num_scrambled_semantic"":""8"",""num_scrambled_causal"":""4"",""num_scrambled_schematic"":""4"",""participantId"":""5A5DF9642D684FA4AA10E340D6E8AB7B"",""assignmentId"":""5e583be5-f36d-4f72-8a26-201c1f8fe8eb"",""projectId"":""ba640c14-69c5-453e-80b2-29051492c0e0""}","https://test12345.live/?num_scrambled_semantic=8&num_scrambled_causal=4&num_scrambled_schematic=4&participantId=5A5DF9642D684FA4AA10E340D6E8AB7B&assignmentId=5e583be5-f36d-4f72-8a26-201c1f8fe8eb&projectId=ba640c14-69c5-453e-80b2-29051492c0e0","5A5DF9642D684FA4AA10E340D6E8AB7B-2025-05-14-21-21-02","","null","","images/semantic_sequence/self_care_activities_semantic/self_care_activities_semantic_ten.png","null","",""
"","","","","","image-button-response","47","486625","0.0-10.0-1.0-1.7","5A5DF9642D684FA4AA10E340D6E8AB7B","5A5DF9642D684FA4AA10E340D6E8AB7B","5e583be5-f36d-4f72-8a26-201c1f8fe8eb","ba640c14-69c5-453e-80b2-29051492c0e0","{""num_scrambled_semantic"":""8"",""num_scrambled_causal"":""4"",""num_scrambled_schematic"":""4"",""participantId"":""5A5DF9642D684FA4AA10E340D6E8AB7B"",""assignmentId"":""5e583be5-f36d-4f72-8a26-201c1f8fe8eb"",""projectId"":""ba640c14-69c5-453e-80b2-29051492c0e0""}","https://test12345.live/?num_scrambled_semantic=8&num_scrambled_causal=4&num_scrambled_schematic=4&participantId=5A5DF9642D684FA4AA10E340D6E8AB7B&assignmentId=5e583be5-f36d-4f72-8a26-201c1f8fe8eb&projectId=ba640c14-69c5-453e-80b2-29051492c0e0","5A5DF9642D684FA4AA10E340D6E8AB7B-2025-05-14-21-21-02","","828","","images/semantic_sequence/self_care_activities_semantic/self_care_activities_semantic_ten.png","0","",""
"","","","","","image-button-response","48","488432","0.0-10.0-1.0-2.7","5A5DF9642D684FA4AA10E340D6E8AB7B","5A5DF9642D684FA4AA10E340D6E8AB7B","5e583be5-f36d-4f72-8a26-201c1f8fe8eb","ba640c14-69c5-453e-80b2-29051492c0e0","{""num_scrambled_semantic"":""8"",""num_scrambled_causal"":""4"",""num_scrambled_schematic"":""4"",""participantId"":""5A5DF9642D684FA4AA10E340D6E8AB7B"",""assignmentId"":""5e583be5-f36d-4f72-8a26-201c1f8fe8eb"",""projectId"":""ba640c14-69c5-453e-80b2-29051492c0e0""}","https://test12345.live/?num_scrambled_semantic=8&num_scrambled_causal=4&num_scrambled_schematic=4&participantId=5A5DF9642D684FA4AA10E340D6E8AB7B&assignmentId=5e583be5-f36d-4f72-8a26-201c1f8fe8eb&projectId=ba640c14-69c5-453e-80b2-29051492c0e0","5A5DF9642D684FA4AA10E340D6E8AB7B-2025-05-14-21-21-02","","null","","[]","null","",""
"","","","","","image-button-response","49","492939","0.0-10.0-1.0-0.8","5A5DF9642D684FA4AA10E340D6E8AB7B","5A5DF9642D684FA4AA10E340D6E8AB7B","5e583be5-f36d-4f72-8a26-201c1f8fe8eb","ba640c14-69c5-453e-80b2-29051492c0e0","{""num_scrambled_semantic"":""8"",""num_scrambled_causal"":""4"",""num_scrambled_schematic"":""4"",""participantId"":""5A5DF9642D684FA4AA10E340D6E8AB7B"",""assignmentId"":""5e583be5-f36d-4f72-8a26-201c1f8fe8eb"",""projectId"":""ba640c14-69c5-453e-80b2-29051492c0e0""}","https://test12345.live/?num_scrambled_semantic=8&num_scrambled_causal=4&num_scrambled_schematic=4&participantId=5A5DF9642D684FA4AA10E340D6E8AB7B&assignmentId=5e583be5-f36d-4f72-8a26-201c1f8fe8eb&projectId=ba640c14-69c5-453e-80b2-29051492c0e0","5A5DF9642D684FA4AA10E340D6E8AB7B-2025-05-14-21-21-02","","null","","images/semantic_sequence/self_care_activities_semantic/self_care_activities_semantic_8.png","null","",""
"","","","","","image-button-response","50","493712","0.0-10.0-1.0-1.8","5A5DF9642D684FA4AA10E340D6E8AB7B","5A5DF9642D684FA4AA10E340D6E8AB7B","5e583be5-f36d-4f72-8a26-201c1f8fe8eb","ba640c14-69c5-453e-80b2-29051492c0e0","{""num_scrambled_semantic"":""8"",""num_scrambled_causal"":""4"",""num_scrambled_schematic"":""4"",""participantId"":""5A5DF9642D684FA4AA10E340D6E8AB7B"",""assignmentId"":""5e583be5-f36d-4f72-8a26-201c1f8fe8eb"",""projectId"":""ba640c14-69c5-453e-80b2-29051492c0e0""}","https://test12345.live/?num_scrambled_semantic=8&num_scrambled_causal=4&num_scrambled_schematic=4&participantId=5A5DF9642D684FA4AA10E340D6E8AB7B&assignmentId=5e583be5-f36d-4f72-8a26-201c1f8fe8eb&projectId=ba640c14-69c5-453e-80b2-29051492c0e0","5A5DF9642D684FA4AA10E340D6E8AB7B-2025-05-14-21-21-02","","770","","images/semantic_sequence/self_care_activities_semantic/self_care_activities_semantic_8.png","0","",""
"","","","","","image-button-response","51","495519","0.0-10.0-1.0-2.8","5A5DF9642D684FA4AA10E340D6E8AB7B","5A5DF9642D684FA4AA10E340D6E8AB7B","5e583be5-f36d-4f72-8a26-201c1f8fe8eb","ba640c14-69c5-453e-80b2-29051492c0e0","{""num_scrambled_semantic"":""8"",""num_scrambled_causal"":""4"",""num_scrambled_schematic"":""4"",""participantId"":""5A5DF9642D684FA4AA10E340D6E8AB7B"",""assignmentId"":""5e583be5-f36d-4f72-8a26-201c1f8fe8eb"",""projectId"":""ba640c14-69c5-453e-80b2-29051492c0e0""}","https://test12345.live/?num_scrambled_semantic=8&num_scrambled_causal=4&num_scrambled_schematic=4&participantId=5A5DF9642D684FA4AA10E340D6E8AB7B&assignmentId=5e583be5-f36d-4f72-8a26-201c1f8fe8eb&projectId=ba640c14-69c5-453e-80b2-29051492c0e0","5A5DF9642D684FA4AA10E340D6E8AB7B-2025-05-14-21-21-02","","null","","[]","null","",""
"","","","","","image-button-response","52","500023","0.0-10.0-1.0-0.9","5A5DF9642D684FA4AA10E340D6E8AB7B","5A5DF9642D684FA4AA10E340D6E8AB7B","5e583be5-f36d-4f72-8a26-201c1f8fe8eb","ba640c14-69c5-453e-80b2-29051492c0e0","{""num_scrambled_semantic"":""8"",""num_scrambled_causal"":""4"",""num_scrambled_schematic"":""4"",""participantId"":""5A5DF9642D684FA4AA10E340D6E8AB7B"",""assignmentId"":""5e583be5-f36d-4f72-8a26-201c1f8fe8eb"",""projectId"":""ba640c14-69c5-453e-80b2-29051492c0e0""}","https://test12345.live/?num_scrambled_semantic=8&num_scrambled_causal=4&num_scrambled_schematic=4&participantId=5A5DF9642D684FA4AA10E340D6E8AB7B&assignmentId=5e583be5-f36d-4f72-8a26-201c1f8fe8eb&projectId=ba640c14-69c5-453e-80b2-29051492c0e0","5A5DF9642D684FA4AA10E340D6E8AB7B-2025-05-14-21-21-02","","null","","images/semantic_sequence/self_care_activities_semantic/self_care_activities_semantic_5.png","null","",""
"","","","","","image-button-response","53","500813","0.0-10.0-1.0-1.9","5A5DF9642D684FA4AA10E340D6E8AB7B","5A5DF9642D684FA4AA10E340D6E8AB7B","5e583be5-f36d-4f72-8a26-201c1f8fe8eb","ba640c14-69c5-453e-80b2-29051492c0e0","{""num_scrambled_semantic"":""8"",""num_scrambled_causal"":""4"",""num_scrambled_schematic"":""4"",""participantId"":""5A5DF9642D684FA4AA10E340D6E8AB7B"",""assignmentId"":""5e583be5-f36d-4f72-8a26-201c1f8fe8eb"",""projectId"":""ba640c14-69c5-453e-80b2-29051492c0e0""}","https://test12345.live/?num_scrambled_semantic=8&num_scrambled_causal=4&num_scrambled_schematic=4&participantId=5A5DF9642D684FA4AA10E340D6E8AB7B&assignmentId=5e583be5-f36d-4f72-8a26-201c1f8fe8eb&projectId=ba640c14-69c5-453e-80b2-29051492c0e0","5A5DF9642D684FA4AA10E340D6E8AB7B-2025-05-14-21-21-02","","787","","images/semantic_sequence/self_care_activities_semantic/self_care_activities_semantic_5.png","0","",""
"","","","","","image-button-response","54","502620","0.0-10.0-1.0-2.9","5A5DF9642D684FA4AA10E340D6E8AB7B","5A5DF9642D684FA4AA10E340D6E8AB7B","5e583be5-f36d-4f72-8a26-201c1f8fe8eb","ba640c14-69c5-453e-80b2-29051492c0e0","{""num_scrambled_semantic"":""8"",""num_scrambled_causal"":""4"",""num_scrambled_schematic"":""4"",""participantId"":""5A5DF9642D684FA4AA10E340D6E8AB7B"",""assignmentId"":""5e583be5-f36d-4f72-8a26-201c1f8fe8eb"",""projectId"":""ba640c14-69c5-453e-80b2-29051492c0e0""}","https://test12345.live/?num_scrambled_semantic=8&num_scrambled_causal=4&num_scrambled_schematic=4&participantId=5A5DF9642D684FA4AA10E340D6E8AB7B&assignmentId=5e583be5-f36d-4f72-8a26-201c1f8fe8eb&projectId=ba640c14-69c5-453e-80b2-29051492c0e0","5A5DF9642D684FA4AA10E340D6E8AB7B-2025-05-14-21-21-02","","null","","[]","null","",""
"","","","","","html-audio-response","55","681839","0.0-11.0","5A5DF9642D684FA4AA10E340D6E8AB7B","5A5DF9642D684FA4AA10E340D6E8AB7B","5e583be5-f36d-4f72-8a26-201c1f8fe8eb","ba640c14-69c5-453e-80b2-29051492c0e0","{""num_scrambled_semantic"":""8"",""num_scrambled_causal"":""4"",""num_scrambled_schematic"":""4"",""participantId"":""5A5DF9642D684FA4AA10E340D6E8AB7B"",""assignmentId"":""5e583be5-f36d-4f72-8a26-201c1f8fe8eb"",""projectId"":""ba640c14-69c5-453e-80b2-29051492c0e0""}","https://test12345.live/?num_scrambled_semantic=8&num_scrambled_causal=4&num_scrambled_schematic=4&participantId=5A5DF9642D684FA4AA10E340D6E8AB7B&assignmentId=5e583be5-f36d-4f72-8a26-201c1f8fe8eb&projectId=ba640c14-69c5-453e-80b2-29051492c0e0","5A5DF9642D684FA4AA10E340D6E8AB7B-2025-05-14-21-21-02","","36340","","[""<span style=\""color: red; font-size: 24px\""> NOW RECORDING</span><p>Please say out loud all the images you saw, as many as you can remember. The images can be said in any order.</p>""]","","8","self_care_activities_semantic"
"","","","","","image-button-response","56","687848","0.0-12.0-0.0","5A5DF9642D684FA4AA10E340D6E8AB7B","5A5DF9642D684FA4AA10E340D6E8AB7B","5e583be5-f36d-4f72-8a26-201c1f8fe8eb","ba640c14-69c5-453e-80b2-29051492c0e0","{""num_scrambled_semantic"":""8"",""num_scrambled_causal"":""4"",""num_scrambled_schematic"":""4"",""participantId"":""5A5DF9642D684FA4AA10E340D6E8AB7B"",""assignmentId"":""5e583be5-f36d-4f72-8a26-201c1f8fe8eb"",""projectId"":""ba640c14-69c5-453e-80b2-29051492c0e0""}","https://test12345.live/?num_scrambled_semantic=8&num_scrambled_causal=4&num_scrambled_schematic=4&participantId=5A5DF9642D684FA4AA10E340D6E8AB7B&assignmentId=5e583be5-f36d-4f72-8a26-201c1f8fe8eb&projectId=ba640c14-69c5-453e-80b2-29051492c0e0","5A5DF9642D684FA4AA10E340D6E8AB7B-2025-05-14-21-21-02","","null","","images/causal_sequence/dog_causal/dog_causal_0.png","null","",""
"","","","","","image-button-response","57","692353","0.0-12.0-1.0-0.0","5A5DF9642D684FA4AA10E340D6E8AB7B","5A5DF9642D684FA4AA10E340D6E8AB7B","5e583be5-f36d-4f72-8a26-201c1f8fe8eb","ba640c14-69c5-453e-80b2-29051492c0e0","{""num_scrambled_semantic"":""8"",""num_scrambled_causal"":""4"",""num_scrambled_schematic"":""4"",""participantId"":""5A5DF9642D684FA4AA10E340D6E8AB7B"",""assignmentId"":""5e583be5-f36d-4f72-8a26-201c1f8fe8eb"",""projectId"":""ba640c14-69c5-453e-80b2-29051492c0e0""}","https://test12345.live/?num_scrambled_semantic=8&num_scrambled_causal=4&num_scrambled_schematic=4&participantId=5A5DF9642D684FA4AA10E340D6E8AB7B&assignmentId=5e583be5-f36d-4f72-8a26-201c1f8fe8eb&projectId=ba640c14-69c5-453e-80b2-29051492c0e0","5A5DF9642D684FA4AA10E340D6E8AB7B-2025-05-14-21-21-02","","null","","images/causal_sequence/dog_causal/dog_causal_1.png","null","",""
"","","","","","image-button-response","58","693930","0.0-12.0-1.0-1.0","5A5DF9642D684FA4AA10E340D6E8AB7B","5A5DF9642D684FA4AA10E340D6E8AB7B","5e583be5-f36d-4f72-8a26-201c1f8fe8eb","ba640c14-69c5-453e-80b2-29051492c0e0","{""num_scrambled_semantic"":""8"",""num_scrambled_causal"":""4"",""num_scrambled_schematic"":""4"",""participantId"":""5A5DF9642D684FA4AA10E340D6E8AB7B"",""assignmentId"":""5e583be5-f36d-4f72-8a26-201c1f8fe8eb"",""projectId"":""ba640c14-69c5-453e-80b2-29051492c0e0""}","https://test12345.live/?num_scrambled_semantic=8&num_scrambled_causal=4&num_scrambled_schematic=4&participantId=5A5DF9642D684FA4AA10E340D6E8AB7B&assignmentId=5e583be5-f36d-4f72-8a26-201c1f8fe8eb&projectId=ba640c14-69c5-453e-80b2-29051492c0e0","5A5DF9642D684FA4AA10E340D6E8AB7B-2025-05-14-21-21-02","","1574","","images/causal_sequence/dog_causal/dog_causal_1.png","0","",""
"","","","","","image-button-response","59","695734","0.0-12.0-1.0-2.0","5A5DF9642D684FA4AA10E340D6E8AB7B","5A5DF9642D684FA4AA10E340D6E8AB7B","5e583be5-f36d-4f72-8a26-201c1f8fe8eb","ba640c14-69c5-453e-80b2-29051492c0e0","{""num_scrambled_semantic"":""8"",""num_scrambled_causal"":""4"",""num_scrambled_schematic"":""4"",""participantId"":""5A5DF9642D684FA4AA10E340D6E8AB7B"",""assignmentId"":""5e583be5-f36d-4f72-8a26-201c1f8fe8eb"",""projectId"":""ba640c14-69c5-453e-80b2-29051492c0e0""}","https://test12345.live/?num_scrambled_semantic=8&num_scrambled_causal=4&num_scrambled_schematic=4&participantId=5A5DF9642D684FA4AA10E340D6E8AB7B&assignmentId=5e583be5-f36d-4f72-8a26-201c1f8fe8eb&projectId=ba640c14-69c5-453e-80b2-29051492c0e0","5A5DF9642D684FA4AA10E340D6E8AB7B-2025-05-14-21-21-02","","null","","[]","null","",""
"","","","","","image-button-response","60","700244","0.0-12.0-1.0-0.1","5A5DF9642D684FA4AA10E340D6E8AB7B","5A5DF9642D684FA4AA10E340D6E8AB7B","5e583be5-f36d-4f72-8a26-201c1f8fe8eb","ba640c14-69c5-453e-80b2-29051492c0e0","{""num_scrambled_semantic"":""8"",""num_scrambled_causal"":""4"",""num_scrambled_schematic"":""4"",""participantId"":""5A5DF9642D684FA4AA10E340D6E8AB7B"",""assignmentId"":""5e583be5-f36d-4f72-8a26-201c1f8fe8eb"",""projectId"":""ba640c14-69c5-453e-80b2-29051492c0e0""}","https://test12345.live/?num_scrambled_semantic=8&num_scrambled_causal=4&num_scrambled_schematic=4&participantId=5A5DF9642D684FA4AA10E340D6E8AB7B&assignmentId=5e583be5-f36d-4f72-8a26-201c1f8fe8eb&projectId=ba640c14-69c5-453e-80b2-29051492c0e0","5A5DF9642D684FA4AA10E340D6E8AB7B-2025-05-14-21-21-02","","null","","images/causal_sequence/dog_causal/dog_causal_2.png","null","",""
"","","","","","image-button-response","61","701947","0.0-12.0-1.0-1.1","5A5DF9642D684FA4AA10E340D6E8AB7B","5A5DF9642D684FA4AA10E340D6E8AB7B","5e583be5-f36d-4f72-8a26-201c1f8fe8eb","ba640c14-69c5-453e-80b2-29051492c0e0","{""num_scrambled_semantic"":""8"",""num_scrambled_causal"":""4"",""num_scrambled_schematic"":""4"",""participantId"":""5A5DF9642D684FA4AA10E340D6E8AB7B"",""assignmentId"":""5e583be5-f36d-4f72-8a26-201c1f8fe8eb"",""projectId"":""ba640c14-69c5-453e-80b2-29051492c0e0""}","https://test12345.live/?num_scrambled_semantic=8&num_scrambled_causal=4&num_scrambled_schematic=4&participantId=5A5DF9642D684FA4AA10E340D6E8AB7B&assignmentId=5e583be5-f36d-4f72-8a26-201c1f8fe8eb&projectId=ba640c14-69c5-453e-80b2-29051492c0e0","5A5DF9642D684FA4AA10E340D6E8AB7B-2025-05-14-21-21-02","","1700","","images/causal_sequence/dog_causal/dog_causal_2.png","0","",""
"","","","","","image-button-response","62","703753","0.0-12.0-1.0-2.1","5A5DF9642D684FA4AA10E340D6E8AB7B","5A5DF9642D684FA4AA10E340D6E8AB7B","5e583be5-f36d-4f72-8a26-201c1f8fe8eb","ba640c14-69c5-453e-80b2-29051492c0e0","{""num_scrambled_semantic"":""8"",""num_scrambled_causal"":""4"",""num_scrambled_schematic"":""4"",""participantId"":""5A5DF9642D684FA4AA10E340D6E8AB7B"",""assignmentId"":""5e583be5-f36d-4f72-8a26-201c1f8fe8eb"",""projectId"":""ba640c14-69c5-453e-80b2-29051492c0e0""}","https://test12345.live/?num_scrambled_semantic=8&num_scrambled_causal=4&num_scrambled_schematic=4&participantId=5A5DF9642D684FA4AA10E340D6E8AB7B&assignmentId=5e583be5-f36d-4f72-8a26-201c1f8fe8eb&projectId=ba640c14-69c5-453e-80b2-29051492c0e0","5A5DF9642D684FA4AA10E340D6E8AB7B-2025-05-14-21-21-02","","null","","[]","null","",""
"","","","","","image-button-response","63","708260","0.0-12.0-1.0-0.2","5A5DF9642D684FA4AA10E340D6E8AB7B","5A5DF9642D684FA4AA10E340D6E8AB7B","5e583be5-f36d-4f72-8a26-201c1f8fe8eb","ba640c14-69c5-453e-80b2-29051492c0e0","{""num_scrambled_semantic"":""8"",""num_scrambled_causal"":""4"",""num_scrambled_schematic"":""4"",""participantId"":""5A5DF9642D684FA4AA10E340D6E8AB7B"",""assignmentId"":""5e583be5-f36d-4f72-8a26-201c1f8fe8eb"",""projectId"":""ba640c14-69c5-453e-80b2-29051492c0e0""}","https://test12345.live/?num_scrambled_semantic=8&num_scrambled_causal=4&num_scrambled_schematic=4&participantId=5A5DF9642D684FA4AA10E340D6E8AB7B&assignmentId=5e583be5-f36d-4f72-8a26-201c1f8fe8eb&projectId=ba640c14-69c5-453e-80b2-29051492c0e0","5A5DF9642D684FA4AA10E340D6E8AB7B-2025-05-14-21-21-02","","null","","images/causal_sequence/dog_causal/dog_causal_3.png","null","",""
"","","","","","image-button-response","64","709734","0.0-12.0-1.0-1.2","5A5DF9642D684FA4AA10E340D6E8AB7B","5A5DF9642D684FA4AA10E340D6E8AB7B","5e583be5-f36d-4f72-8a26-201c1f8fe8eb","ba640c14-69c5-453e-80b2-29051492c0e0","{""num_scrambled_semantic"":""8"",""num_scrambled_causal"":""4"",""num_scrambled_schematic"":""4"",""participantId"":""5A5DF9642D684FA4AA10E340D6E8AB7B"",""assignmentId"":""5e583be5-f36d-4f72-8a26-201c1f8fe8eb"",""projectId"":""ba640c14-69c5-453e-80b2-29051492c0e0""}","https://test12345.live/?num_scrambled_semantic=8&num_scrambled_causal=4&num_scrambled_schematic=4&participantId=5A5DF9642D684FA4AA10E340D6E8AB7B&assignmentId=5e583be5-f36d-4f72-8a26-201c1f8fe8eb&projectId=ba640c14-69c5-453e-80b2-29051492c0e0","5A5DF9642D684FA4AA10E340D6E8AB7B-2025-05-14-21-21-02","","1471","","images/causal_sequence/dog_causal/dog_causal_3.png","0","",""
"","","","","","image-button-response","65","711538","0.0-12.0-1.0-2.2","5A5DF9642D684FA4AA10E340D6E8AB7B","5A5DF9642D684FA4AA10E340D6E8AB7B","5e583be5-f36d-4f72-8a26-201c1f8fe8eb","ba640c14-69c5-453e-80b2-29051492c0e0","{""num_scrambled_semantic"":""8"",""num_scrambled_causal"":""4"",""num_scrambled_schematic"":""4"",""participantId"":""5A5DF9642D684FA4AA10E340D6E8AB7B"",""assignmentId"":""5e583be5-f36d-4f72-8a26-201c1f8fe8eb"",""projectId"":""ba640c14-69c5-453e-80b2-29051492c0e0""}","https://test12345.live/?num_scrambled_semantic=8&num_scrambled_causal=4&num_scrambled_schematic=4&participantId=5A5DF9642D684FA4AA10E340D6E8AB7B&assignmentId=5e583be5-f36d-4f72-8a26-201c1f8fe8eb&projectId=ba640c14-69c5-453e-80b2-29051492c0e0","5A5DF9642D684FA4AA10E340D6E8AB7B-2025-05-14-21-21-02","","null","","[]","null","",""
"","","","","","image-button-response","66","716042","0.0-12.0-1.0-0.3","5A5DF9642D684FA4AA10E340D6E8AB7B","5A5DF9642D684FA4AA10E340D6E8AB7B","5e583be5-f36d-4f72-8a26-201c1f8fe8eb","ba640c14-69c5-453e-80b2-29051492c0e0","{""num_scrambled_semantic"":""8"",""num_scrambled_causal"":""4"",""num_scrambled_schematic"":""4"",""participantId"":""5A5DF9642D684FA4AA10E340D6E8AB7B"",""assignmentId"":""5e583be5-f36d-4f72-8a26-201c1f8fe8eb"",""projectId"":""ba640c14-69c5-453e-80b2-29051492c0e0""}","https://test12345.live/?num_scrambled_semantic=8&num_scrambled_causal=4&num_scrambled_schematic=4&participantId=5A5DF9642D684FA4AA10E340D6E8AB7B&assignmentId=5e583be5-f36d-4f72-8a26-201c1f8fe8eb&projectId=ba640c14-69c5-453e-80b2-29051492c0e0","5A5DF9642D684FA4AA10E340D6E8AB7B-2025-05-14-21-21-02","","null","","images/causal_sequence/dog_causal/dog_causal_4.png","null","",""
"","","","","","image-button-response","67","717813","0.0-12.0-1.0-1.3","5A5DF9642D684FA4AA10E340D6E8AB7B","5A5DF9642D684FA4AA10E340D6E8AB7B","5e583be5-f36d-4f72-8a26-201c1f8fe8eb","ba640c14-69c5-453e-80b2-29051492c0e0","{""num_scrambled_semantic"":""8"",""num_scrambled_causal"":""4"",""num_scrambled_schematic"":""4"",""participantId"":""5A5DF9642D684FA4AA10E340D6E8AB7B"",""assignmentId"":""5e583be5-f36d-4f72-8a26-201c1f8fe8eb"",""projectId"":""ba640c14-69c5-453e-80b2-29051492c0e0""}","https://test12345.live/?num_scrambled_semantic=8&num_scrambled_causal=4&num_scrambled_schematic=4&participantId=5A5DF9642D684FA4AA10E340D6E8AB7B&assignmentId=5e583be5-f36d-4f72-8a26-201c1f8fe8eb&projectId=ba640c14-69c5-453e-80b2-29051492c0e0","5A5DF9642D684FA4AA10E340D6E8AB7B-2025-05-14-21-21-02","","1768","","images/causal_sequence/dog_causal/dog_causal_4.png","0","",""
"","","","","","image-button-response","68","719618","0.0-12.0-1.0-2.3","5A5DF9642D684FA4AA10E340D6E8AB7B","5A5DF9642D684FA4AA10E340D6E8AB7B","5e583be5-f36d-4f72-8a26-201c1f8fe8eb","ba640c14-69c5-453e-80b2-29051492c0e0","{""num_scrambled_semantic"":""8"",""num_scrambled_causal"":""4"",""num_scrambled_schematic"":""4"",""participantId"":""5A5DF9642D684FA4AA10E340D6E8AB7B"",""assignmentId"":""5e583be5-f36d-4f72-8a26-201c1f8fe8eb"",""projectId"":""ba640c14-69c5-453e-80b2-29051492c0e0""}","https://test12345.live/?num_scrambled_semantic=8&num_scrambled_causal=4&num_scrambled_schematic=4&participantId=5A5DF9642D684FA4AA10E340D6E8AB7B&assignmentId=5e583be5-f36d-4f72-8a26-201c1f8fe8eb&projectId=ba640c14-69c5-453e-80b2-29051492c0e0","5A5DF9642D684FA4AA10E340D6E8AB7B-2025-05-14-21-21-02","","null","","[]","null","",""
"","","","","","image-button-response","69","724122","0.0-12.0-1.0-0.4","5A5DF9642D684FA4AA10E340D6E8AB7B","5A5DF9642D684FA4AA10E340D6E8AB7B","5e583be5-f36d-4f72-8a26-201c1f8fe8eb","ba640c14-69c5-453e-80b2-29051492c0e0","{""num_scrambled_semantic"":""8"",""num_scrambled_causal"":""4"",""num_scrambled_schematic"":""4"",""participantId"":""5A5DF9642D684FA4AA10E340D6E8AB7B"",""assignmentId"":""5e583be5-f36d-4f72-8a26-201c1f8fe8eb"",""projectId"":""ba640c14-69c5-453e-80b2-29051492c0e0""}","https://test12345.live/?num_scrambled_semantic=8&num_scrambled_causal=4&num_scrambled_schematic=4&participantId=5A5DF9642D684FA4AA10E340D6E8AB7B&assignmentId=5e583be5-f36d-4f72-8a26-201c1f8fe8eb&projectId=ba640c14-69c5-453e-80b2-29051492c0e0","5A5DF9642D684FA4AA10E340D6E8AB7B-2025-05-14-21-21-02","","null","","images/causal_sequence/dog_causal/dog_causal_5.png","null","",""
"","","","","","image-button-response","70","725155","0.0-12.0-1.0-1.4","5A5DF9642D684FA4AA10E340D6E8AB7B","5A5DF9642D684FA4AA10E340D6E8AB7B","5e583be5-f36d-4f72-8a26-201c1f8fe8eb","ba640c14-69c5-453e-80b2-29051492c0e0","{""num_scrambled_semantic"":""8"",""num_scrambled_causal"":""4"",""num_scrambled_schematic"":""4"",""participantId"":""5A5DF9642D684FA4AA10E340D6E8AB7B"",""assignmentId"":""5e583be5-f36d-4f72-8a26-201c1f8fe8eb"",""projectId"":""ba640c14-69c5-453e-80b2-29051492c0e0""}","https://test12345.live/?num_scrambled_semantic=8&num_scrambled_causal=4&num_scrambled_schematic=4&participantId=5A5DF9642D684FA4AA10E340D6E8AB7B&assignmentId=5e583be5-f36d-4f72-8a26-201c1f8fe8eb&projectId=ba640c14-69c5-453e-80b2-29051492c0e0","5A5DF9642D684FA4AA10E340D6E8AB7B-2025-05-14-21-21-02","","1031","","images/causal_sequence/dog_causal/dog_causal_5.png","0","",""
"","","","","","image-button-response","71","726958","0.0-12.0-1.0-2.4","5A5DF9642D684FA4AA10E340D6E8AB7B","5A5DF9642D684FA4AA10E340D6E8AB7B","5e583be5-f36d-4f72-8a26-201c1f8fe8eb","ba640c14-69c5-453e-80b2-29051492c0e0","{""num_scrambled_semantic"":""8"",""num_scrambled_causal"":""4"",""num_scrambled_schematic"":""4"",""participantId"":""5A5DF9642D684FA4AA10E340D6E8AB7B"",""assignmentId"":""5e583be5-f36d-4f72-8a26-201c1f8fe8eb"",""projectId"":""ba640c14-69c5-453e-80b2-29051492c0e0""}","https://test12345.live/?num_scrambled_semantic=8&num_scrambled_causal=4&num_scrambled_schematic=4&participantId=5A5DF9642D684FA4AA10E340D6E8AB7B&assignmentId=5e583be5-f36d-4f72-8a26-201c1f8fe8eb&projectId=ba640c14-69c5-453e-80b2-29051492c0e0","5A5DF9642D684FA4AA10E340D6E8AB7B-2025-05-14-21-21-02","","null","","[]","null","",""
"","","","","","image-button-response","72","731466","0.0-12.0-1.0-0.5","5A5DF9642D684FA4AA10E340D6E8AB7B","5A5DF9642D684FA4AA10E340D6E8AB7B","5e583be5-f36d-4f72-8a26-201c1f8fe8eb","ba640c14-69c5-453e-80b2-29051492c0e0","{""num_scrambled_semantic"":""8"",""num_scrambled_causal"":""4"",""num_scrambled_schematic"":""4"",""participantId"":""5A5DF9642D684FA4AA10E340D6E8AB7B"",""assignmentId"":""5e583be5-f36d-4f72-8a26-201c1f8fe8eb"",""projectId"":""ba640c14-69c5-453e-80b2-29051492c0e0""}","https://test12345.live/?num_scrambled_semantic=8&num_scrambled_causal=4&num_scrambled_schematic=4&participantId=5A5DF9642D684FA4AA10E340D6E8AB7B&assignmentId=5e583be5-f36d-4f72-8a26-201c1f8fe8eb&projectId=ba640c14-69c5-453e-80b2-29051492c0e0","5A5DF9642D684FA4AA10E340D6E8AB7B-2025-05-14-21-21-02","","null","","images/causal_sequence/dog_causal/dog_causal_6.png","null","",""
"","","","","","image-button-response","73","732817","0.0-12.0-1.0-1.5","5A5DF9642D684FA4AA10E340D6E8AB7B","5A5DF9642D684FA4AA10E340D6E8AB7B","5e583be5-f36d-4f72-8a26-201c1f8fe8eb","ba640c14-69c5-453e-80b2-29051492c0e0","{""num_scrambled_semantic"":""8"",""num_scrambled_causal"":""4"",""num_scrambled_schematic"":""4"",""participantId"":""5A5DF9642D684FA4AA10E340D6E8AB7B"",""assignmentId"":""5e583be5-f36d-4f72-8a26-201c1f8fe8eb"",""projectId"":""ba640c14-69c5-453e-80b2-29051492c0e0""}","https://test12345.live/?num_scrambled_semantic=8&num_scrambled_causal=4&num_scrambled_schematic=4&participantId=5A5DF9642D684FA4AA10E340D6E8AB7B&assignmentId=5e583be5-f36d-4f72-8a26-201c1f8fe8eb&projectId=ba640c14-69c5-453e-80b2-29051492c0e0","5A5DF9642D684FA4AA10E340D6E8AB7B-2025-05-14-21-21-02","","1347","","images/causal_sequence/dog_causal/dog_causal_6.png","0","",""
"","","","","","image-button-response","74","734625","0.0-12.0-1.0-2.5","5A5DF9642D684FA4AA10E340D6E8AB7B","5A5DF9642D684FA4AA10E340D6E8AB7B","5e583be5-f36d-4f72-8a26-201c1f8fe8eb","ba640c14-69c5-453e-80b2-29051492c0e0","{""num_scrambled_semantic"":""8"",""num_scrambled_causal"":""4"",""num_scrambled_schematic"":""4"",""participantId"":""5A5DF9642D684FA4AA10E340D6E8AB7B"",""assignmentId"":""5e583be5-f36d-4f72-8a26-201c1f8fe8eb"",""projectId"":""ba640c14-69c5-453e-80b2-29051492c0e0""}","https://test12345.live/?num_scrambled_semantic=8&num_scrambled_causal=4&num_scrambled_schematic=4&participantId=5A5DF9642D684FA4AA10E340D6E8AB7B&assignmentId=5e583be5-f36d-4f72-8a26-201c1f8fe8eb&projectId=ba640c14-69c5-453e-80b2-29051492c0e0","5A5DF9642D684FA4AA10E340D6E8AB7B-2025-05-14-21-21-02","","null","","[]","null","",""
"","","","","","image-button-response","75","739129","0.0-12.0-1.0-0.6","5A5DF9642D684FA4AA10E340D6E8AB7B","5A5DF9642D684FA4AA10E340D6E8AB7B","5e583be5-f36d-4f72-8a26-201c1f8fe8eb","ba640c14-69c5-453e-80b2-29051492c0e0","{""num_scrambled_semantic"":""8"",""num_scrambled_causal"":""4"",""num_scrambled_schematic"":""4"",""participantId"":""5A5DF9642D684FA4AA10E340D6E8AB7B"",""assignmentId"":""5e583be5-f36d-4f72-8a26-201c1f8fe8eb"",""projectId"":""ba640c14-69c5-453e-80b2-29051492c0e0""}","https://test12345.live/?num_scrambled_semantic=8&num_scrambled_causal=4&num_scrambled_schematic=4&participantId=5A5DF9642D684FA4AA10E340D6E8AB7B&assignmentId=5e583be5-f36d-4f72-8a26-201c1f8fe8eb&projectId=ba640c14-69c5-453e-80b2-29051492c0e0","5A5DF9642D684FA4AA10E340D6E8AB7B-2025-05-14-21-21-02","","null","","images/causal_sequence/dog_causal/dog_causal_7.png","null","",""
"","","","","","image-button-response","76","739845","0.0-12.0-1.0-1.6","5A5DF9642D684FA4AA10E340D6E8AB7B","5A5DF9642D684FA4AA10E340D6E8AB7B","5e583be5-f36d-4f72-8a26-201c1f8fe8eb","ba640c14-69c5-453e-80b2-29051492c0e0","{""num_scrambled_semantic"":""8"",""num_scrambled_causal"":""4"",""num_scrambled_schematic"":""4"",""participantId"":""5A5DF9642D684FA4AA10E340D6E8AB7B"",""assignmentId"":""5e583be5-f36d-4f72-8a26-201c1f8fe8eb"",""projectId"":""ba640c14-69c5-453e-80b2-29051492c0e0""}","https://test12345.live/?num_scrambled_semantic=8&num_scrambled_causal=4&num_scrambled_schematic=4&participantId=5A5DF9642D684FA4AA10E340D6E8AB7B&assignmentId=5e583be5-f36d-4f72-8a26-201c1f8fe8eb&projectId=ba640c14-69c5-453e-80b2-29051492c0e0","5A5DF9642D684FA4AA10E340D6E8AB7B-2025-05-14-21-21-02","","712","","images/causal_sequence/dog_causal/dog_causal_7.png","0","",""
"","","","","","image-button-response","77","741648","0.0-12.0-1.0-2.6","5A5DF9642D684FA4AA10E340D6E8AB7B","5A5DF9642D684FA4AA10E340D6E8AB7B","5e583be5-f36d-4f72-8a26-201c1f8fe8eb","ba640c14-69c5-453e-80b2-29051492c0e0","{""num_scrambled_semantic"":""8"",""num_scrambled_causal"":""4"",""num_scrambled_schematic"":""4"",""participantId"":""5A5DF9642D684FA4AA10E340D6E8AB7B"",""assignmentId"":""5e583be5-f36d-4f72-8a26-201c1f8fe8eb"",""projectId"":""ba640c14-69c5-453e-80b2-29051492c0e0""}","https://test12345.live/?num_scrambled_semantic=8&num_scrambled_causal=4&num_scrambled_schematic=4&participantId=5A5DF9642D684FA4AA10E340D6E8AB7B&assignmentId=5e583be5-f36d-4f72-8a26-201c1f8fe8eb&projectId=ba640c14-69c5-453e-80b2-29051492c0e0","5A5DF9642D684FA4AA10E340D6E8AB7B-2025-05-14-21-21-02","","null","","[]","null","",""
"","","","","","image-button-response","78","746153","0.0-12.0-1.0-0.7","5A5DF9642D684FA4AA10E340D6E8AB7B","5A5DF9642D684FA4AA10E340D6E8AB7B","5e583be5-f36d-4f72-8a26-201c1f8fe8eb","ba640c14-69c5-453e-80b2-29051492c0e0","{""num_scrambled_semantic"":""8"",""num_scrambled_causal"":""4"",""num_scrambled_schematic"":""4"",""participantId"":""5A5DF9642D684FA4AA10E340D6E8AB7B"",""assignmentId"":""5e583be5-f36d-4f72-8a26-201c1f8fe8eb"",""projectId"":""ba640c14-69c5-453e-80b2-29051492c0e0""}","https://test12345.live/?num_scrambled_semantic=8&num_scrambled_causal=4&num_scrambled_schematic=4&participantId=5A5DF9642D684FA4AA10E340D6E8AB7B&assignmentId=5e583be5-f36d-4f72-8a26-201c1f8fe8eb&projectId=ba640c14-69c5-453e-80b2-29051492c0e0","5A5DF9642D684FA4AA10E340D6E8AB7B-2025-05-14-21-21-02","","null","","images/causal_sequence/dog_causal/dog_causal_8.png","null","",""
"","","","","","image-button-response","79","747177","0.0-12.0-1.0-1.7","5A5DF9642D684FA4AA10E340D6E8AB7B","5A5DF9642D684FA4AA10E340D6E8AB7B","5e583be5-f36d-4f72-8a26-201c1f8fe8eb","ba640c14-69c5-453e-80b2-29051492c0e0","{""num_scrambled_semantic"":""8"",""num_scrambled_causal"":""4"",""num_scrambled_schematic"":""4"",""participantId"":""5A5DF9642D684FA4AA10E340D6E8AB7B"",""assignmentId"":""5e583be5-f36d-4f72-8a26-201c1f8fe8eb"",""projectId"":""ba640c14-69c5-453e-80b2-29051492c0e0""}","https://test12345.live/?num_scrambled_semantic=8&num_scrambled_causal=4&num_scrambled_schematic=4&participantId=5A5DF9642D684FA4AA10E340D6E8AB7B&assignmentId=5e583be5-f36d-4f72-8a26-201c1f8fe8eb&projectId=ba640c14-69c5-453e-80b2-29051492c0e0","5A5DF9642D684FA4AA10E340D6E8AB7B-2025-05-14-21-21-02","","1022","","images/causal_sequence/dog_causal/dog_causal_8.png","0","",""
"","","","","","image-button-response","80","748985","0.0-12.0-1.0-2.7","5A5DF9642D684FA4AA10E340D6E8AB7B","5A5DF9642D684FA4AA10E340D6E8AB7B","5e583be5-f36d-4f72-8a26-201c1f8fe8eb","ba640c14-69c5-453e-80b2-29051492c0e0","{""num_scrambled_semantic"":""8"",""num_scrambled_causal"":""4"",""num_scrambled_schematic"":""4"",""participantId"":""5A5DF9642D684FA4AA10E340D6E8AB7B"",""assignmentId"":""5e583be5-f36d-4f72-8a26-201c1f8fe8eb"",""projectId"":""ba640c14-69c5-453e-80b2-29051492c0e0""}","https://test12345.live/?num_scrambled_semantic=8&num_scrambled_causal=4&num_scrambled_schematic=4&participantId=5A5DF9642D684FA4AA10E340D6E8AB7B&assignmentId=5e583be5-f36d-4f72-8a26-201c1f8fe8eb&projectId=ba640c14-69c5-453e-80b2-29051492c0e0","5A5DF9642D684FA4AA10E340D6E8AB7B-2025-05-14-21-21-02","","null","","[]","null","",""
"","","","","","image-button-response","81","753489","0.0-12.0-1.0-0.8","5A5DF9642D684FA4AA10E340D6E8AB7B","5A5DF9642D684FA4AA10E340D6E8AB7B","5e583be5-f36d-4f72-8a26-201c1f8fe8eb","ba640c14-69c5-453e-80b2-29051492c0e0","{""num_scrambled_semantic"":""8"",""num_scrambled_causal"":""4"",""num_scrambled_schematic"":""4"",""participantId"":""5A5DF9642D684FA4AA10E340D6E8AB7B"",""assignmentId"":""5e583be5-f36d-4f72-8a26-201c1f8fe8eb"",""projectId"":""ba640c14-69c5-453e-80b2-29051492c0e0""}","https://test12345.live/?num_scrambled_semantic=8&num_scrambled_causal=4&num_scrambled_schematic=4&participantId=5A5DF9642D684FA4AA10E340D6E8AB7B&assignmentId=5e583be5-f36d-4f72-8a26-201c1f8fe8eb&projectId=ba640c14-69c5-453e-80b2-29051492c0e0","5A5DF9642D684FA4AA10E340D6E8AB7B-2025-05-14-21-21-02","","null","","images/causal_sequence/dog_causal/dog_causal_9.png","null","",""
"","","","","","image-button-response","82","754149","0.0-12.0-1.0-1.8","5A5DF9642D684FA4AA10E340D6E8AB7B","5A5DF9642D684FA4AA10E340D6E8AB7B","5e583be5-f36d-4f72-8a26-201c1f8fe8eb","ba640c14-69c5-453e-80b2-29051492c0e0","{""num_scrambled_semantic"":""8"",""num_scrambled_causal"":""4"",""num_scrambled_schematic"":""4"",""participantId"":""5A5DF9642D684FA4AA10E340D6E8AB7B"",""assignmentId"":""5e583be5-f36d-4f72-8a26-201c1f8fe8eb"",""projectId"":""ba640c14-69c5-453e-80b2-29051492c0e0""}","https://test12345.live/?num_scrambled_semantic=8&num_scrambled_causal=4&num_scrambled_schematic=4&participantId=5A5DF9642D684FA4AA10E340D6E8AB7B&assignmentId=5e583be5-f36d-4f72-8a26-201c1f8fe8eb&projectId=ba640c14-69c5-453e-80b2-29051492c0e0","5A5DF9642D684FA4AA10E340D6E8AB7B-2025-05-14-21-21-02","","657","","images/causal_sequence/dog_causal/dog_causal_9.png","0","",""
"","","","","","image-button-response","83","755954","0.0-12.0-1.0-2.8","5A5DF9642D684FA4AA10E340D6E8AB7B","5A5DF9642D684FA4AA10E340D6E8AB7B","5e583be5-f36d-4f72-8a26-201c1f8fe8eb","ba640c14-69c5-453e-80b2-29051492c0e0","{""num_scrambled_semantic"":""8"",""num_scrambled_causal"":""4"",""num_scrambled_schematic"":""4"",""participantId"":""5A5DF9642D684FA4AA10E340D6E8AB7B"",""assignmentId"":""5e583be5-f36d-4f72-8a26-201c1f8fe8eb"",""projectId"":""ba640c14-69c5-453e-80b2-29051492c0e0""}","https://test12345.live/?num_scrambled_semantic=8&num_scrambled_causal=4&num_scrambled_schematic=4&participantId=5A5DF9642D684FA4AA10E340D6E8AB7B&assignmentId=5e583be5-f36d-4f72-8a26-201c1f8fe8eb&projectId=ba640c14-69c5-453e-80b2-29051492c0e0","5A5DF9642D684FA4AA10E340D6E8AB7B-2025-05-14-21-21-02","","null","","[]","null","",""
"","","","","","image-button-response","84","760462","0.0-12.0-1.0-0.9","5A5DF9642D684FA4AA10E340D6E8AB7B","5A5DF9642D684FA4AA10E340D6E8AB7B","5e583be5-f36d-4f72-8a26-201c1f8fe8eb","ba640c14-69c5-453e-80b2-29051492c0e0","{""num_scrambled_semantic"":""8"",""num_scrambled_causal"":""4"",""num_scrambled_schematic"":""4"",""participantId"":""5A5DF9642D684FA4AA10E340D6E8AB7B"",""assignmentId"":""5e583be5-f36d-4f72-8a26-201c1f8fe8eb"",""projectId"":""ba640c14-69c5-453e-80b2-29051492c0e0""}","https://test12345.live/?num_scrambled_semantic=8&num_scrambled_causal=4&num_scrambled_schematic=4&participantId=5A5DF9642D684FA4AA10E340D6E8AB7B&assignmentId=5e583be5-f36d-4f72-8a26-201c1f8fe8eb&projectId=ba640c14-69c5-453e-80b2-29051492c0e0","5A5DF9642D684FA4AA10E340D6E8AB7B-2025-05-14-21-21-02","","null","","images/causal_sequence/dog_causal/dog_causal_ten.png","null","",""
"","","","","","image-button-response","85","761192","0.0-12.0-1.0-1.9","5A5DF9642D684FA4AA10E340D6E8AB7B","5A5DF9642D684FA4AA10E340D6E8AB7B","5e583be5-f36d-4f72-8a26-201c1f8fe8eb","ba640c14-69c5-453e-80b2-29051492c0e0","{""num_scrambled_semantic"":""8"",""num_scrambled_causal"":""4"",""num_scrambled_schematic"":""4"",""participantId"":""5A5DF9642D684FA4AA10E340D6E8AB7B"",""assignmentId"":""5e583be5-f36d-4f72-8a26-201c1f8fe8eb"",""projectId"":""ba640c14-69c5-453e-80b2-29051492c0e0""}","https://test12345.live/?num_scrambled_semantic=8&num_scrambled_causal=4&num_scrambled_schematic=4&participantId=5A5DF9642D684FA4AA10E340D6E8AB7B&assignmentId=5e583be5-f36d-4f72-8a26-201c1f8fe8eb&projectId=ba640c14-69c5-453e-80b2-29051492c0e0","5A5DF9642D684FA4AA10E340D6E8AB7B-2025-05-14-21-21-02","","726","","images/causal_sequence/dog_causal/dog_causal_ten.png","0","",""
"","","","","","image-button-response","86","762999","0.0-12.0-1.0-2.9","5A5DF9642D684FA4AA10E340D6E8AB7B","5A5DF9642D684FA4AA10E340D6E8AB7B","5e583be5-f36d-4f72-8a26-201c1f8fe8eb","ba640c14-69c5-453e-80b2-29051492c0e0","{""num_scrambled_semantic"":""8"",""num_scrambled_causal"":""4"",""num_scrambled_schematic"":""4"",""participantId"":""5A5DF9642D684FA4AA10E340D6E8AB7B"",""assignmentId"":""5e583be5-f36d-4f72-8a26-201c1f8fe8eb"",""projectId"":""ba640c14-69c5-453e-80b2-29051492c0e0""}","https://test12345.live/?num_scrambled_semantic=8&num_scrambled_causal=4&num_scrambled_schematic=4&participantId=5A5DF9642D684FA4AA10E340D6E8AB7B&assignmentId=5e583be5-f36d-4f72-8a26-201c1f8fe8eb&projectId=ba640c14-69c5-453e-80b2-29051492c0e0","5A5DF9642D684FA4AA10E340D6E8AB7B-2025-05-14-21-21-02","","null","","[]","null","",""
"","","","","","html-audio-response","87","832479","0.0-13.0","5A5DF9642D684FA4AA10E340D6E8AB7B","5A5DF9642D684FA4AA10E340D6E8AB7B","5e583be5-f36d-4f72-8a26-201c1f8fe8eb","ba640c14-69c5-453e-80b2-29051492c0e0","{""num_scrambled_semantic"":""8"",""num_scrambled_causal"":""4"",""num_scrambled_schematic"":""4"",""participantId"":""5A5DF9642D684FA4AA10E340D6E8AB7B"",""assignmentId"":""5e583be5-f36d-4f72-8a26-201c1f8fe8eb"",""projectId"":""ba640c14-69c5-453e-80b2-29051492c0e0""}","https://test12345.live/?num_scrambled_semantic=8&num_scrambled_causal=4&num_scrambled_schematic=4&participantId=5A5DF9642D684FA4AA10E340D6E8AB7B&assignmentId=5e583be5-f36d-4f72-8a26-201c1f8fe8eb&projectId=ba640c14-69c5-453e-80b2-29051492c0e0","5A5DF9642D684FA4AA10E340D6E8AB7B-2025-05-14-21-21-02","","32072","","[""<span style=\""color: red; font-size: 24px\""> NOW RECORDING</span><p>Please say out loud all the images you saw, as many as you can remember. The images can be said in any order.</p>""]","","3","dog_causal"
"","","","","","image-button-response","88","838489","0.0-14.0-0.0","5A5DF9642D684FA4AA10E340D6E8AB7B","5A5DF9642D684FA4AA10E340D6E8AB7B","5e583be5-f36d-4f72-8a26-201c1f8fe8eb","ba640c14-69c5-453e-80b2-29051492c0e0","{""num_scrambled_semantic"":""8"",""num_scrambled_causal"":""4"",""num_scrambled_schematic"":""4"",""participantId"":""5A5DF9642D684FA4AA10E340D6E8AB7B"",""assignmentId"":""5e583be5-f36d-4f72-8a26-201c1f8fe8eb"",""projectId"":""ba640c14-69c5-453e-80b2-29051492c0e0""}","https://test12345.live/?num_scrambled_semantic=8&num_scrambled_causal=4&num_scrambled_schematic=4&participantId=5A5DF9642D684FA4AA10E340D6E8AB7B&assignmentId=5e583be5-f36d-4f72-8a26-201c1f8fe8eb&projectId=ba640c14-69c5-453e-80b2-29051492c0e0","5A5DF9642D684FA4AA10E340D6E8AB7B-2025-05-14-21-21-02","","null","","images/causal_sequence/coin_causal/coin_causal_0.png","null","",""
"","","","","","image-button-response","89","842998","0.0-14.0-1.0-0.0","5A5DF9642D684FA4AA10E340D6E8AB7B","5A5DF9642D684FA4AA10E340D6E8AB7B","5e583be5-f36d-4f72-8a26-201c1f8fe8eb","ba640c14-69c5-453e-80b2-29051492c0e0","{""num_scrambled_semantic"":""8"",""num_scrambled_causal"":""4"",""num_scrambled_schematic"":""4"",""participantId"":""5A5DF9642D684FA4AA10E340D6E8AB7B"",""assignmentId"":""5e583be5-f36d-4f72-8a26-201c1f8fe8eb"",""projectId"":""ba640c14-69c5-453e-80b2-29051492c0e0""}","https://test12345.live/?num_scrambled_semantic=8&num_scrambled_causal=4&num_scrambled_schematic=4&participantId=5A5DF9642D684FA4AA10E340D6E8AB7B&assignmentId=5e583be5-f36d-4f72-8a26-201c1f8fe8eb&projectId=ba640c14-69c5-453e-80b2-29051492c0e0","5A5DF9642D684FA4AA10E340D6E8AB7B-2025-05-14-21-21-02","","null","","images/causal_sequence/coin_causal/coin_causal_7.png","null","",""
"","","","","","image-button-response","90","844388","0.0-14.0-1.0-1.0","5A5DF9642D684FA4AA10E340D6E8AB7B","5A5DF9642D684FA4AA10E340D6E8AB7B","5e583be5-f36d-4f72-8a26-201c1f8fe8eb","ba640c14-69c5-453e-80b2-29051492c0e0","{""num_scrambled_semantic"":""8"",""num_scrambled_causal"":""4"",""num_scrambled_schematic"":""4"",""participantId"":""5A5DF9642D684FA4AA10E340D6E8AB7B"",""assignmentId"":""5e583be5-f36d-4f72-8a26-201c1f8fe8eb"",""projectId"":""ba640c14-69c5-453e-80b2-29051492c0e0""}","https://test12345.live/?num_scrambled_semantic=8&num_scrambled_causal=4&num_scrambled_schematic=4&participantId=5A5DF9642D684FA4AA10E340D6E8AB7B&assignmentId=5e583be5-f36d-4f72-8a26-201c1f8fe8eb&projectId=ba640c14-69c5-453e-80b2-29051492c0e0","5A5DF9642D684FA4AA10E340D6E8AB7B-2025-05-14-21-21-02","","1388","","images/causal_sequence/coin_causal/coin_causal_7.png","1","",""
"","","","","","image-button-response","91","846194","0.0-14.0-1.0-2.0","5A5DF9642D684FA4AA10E340D6E8AB7B","5A5DF9642D684FA4AA10E340D6E8AB7B","5e583be5-f36d-4f72-8a26-201c1f8fe8eb","ba640c14-69c5-453e-80b2-29051492c0e0","{""num_scrambled_semantic"":""8"",""num_scrambled_causal"":""4"",""num_scrambled_schematic"":""4"",""participantId"":""5A5DF9642D684FA4AA10E340D6E8AB7B"",""assignmentId"":""5e583be5-f36d-4f72-8a26-201c1f8fe8eb"",""projectId"":""ba640c14-69c5-453e-80b2-29051492c0e0""}","https://test12345.live/?num_scrambled_semantic=8&num_scrambled_causal=4&num_scrambled_schematic=4&participantId=5A5DF9642D684FA4AA10E340D6E8AB7B&assignmentId=5e583be5-f36d-4f72-8a26-201c1f8fe8eb&projectId=ba640c14-69c5-453e-80b2-29051492c0e0","5A5DF9642D684FA4AA10E340D6E8AB7B-2025-05-14-21-21-02","","null","","[]","null","",""
"","","","","","image-button-response","92","850702","0.0-14.0-1.0-0.1","5A5DF9642D684FA4AA10E340D6E8AB7B","5A5DF9642D684FA4AA10E340D6E8AB7B","5e583be5-f36d-4f72-8a26-201c1f8fe8eb","ba640c14-69c5-453e-80b2-29051492c0e0","{""num_scrambled_semantic"":""8"",""num_scrambled_causal"":""4"",""num_scrambled_schematic"":""4"",""participantId"":""5A5DF9642D684FA4AA10E340D6E8AB7B"",""assignmentId"":""5e583be5-f36d-4f72-8a26-201c1f8fe8eb"",""projectId"":""ba640c14-69c5-453e-80b2-29051492c0e0""}","https://test12345.live/?num_scrambled_semantic=8&num_scrambled_causal=4&num_scrambled_schematic=4&participantId=5A5DF9642D684FA4AA10E340D6E8AB7B&assignmentId=5e583be5-f36d-4f72-8a26-201c1f8fe8eb&projectId=ba640c14-69c5-453e-80b2-29051492c0e0","5A5DF9642D684FA4AA10E340D6E8AB7B-2025-05-14-21-21-02","","null","","images/causal_sequence/coin_causal/coin_causal_6.png","null","",""
"","","","","","image-button-response","93","853240","0.0-14.0-1.0-1.1","5A5DF9642D684FA4AA10E340D6E8AB7B","5A5DF9642D684FA4AA10E340D6E8AB7B","5e583be5-f36d-4f72-8a26-201c1f8fe8eb","ba640c14-69c5-453e-80b2-29051492c0e0","{""num_scrambled_semantic"":""8"",""num_scrambled_causal"":""4"",""num_scrambled_schematic"":""4"",""participantId"":""5A5DF9642D684FA4AA10E340D6E8AB7B"",""assignmentId"":""5e583be5-f36d-4f72-8a26-201c1f8fe8eb"",""projectId"":""ba640c14-69c5-453e-80b2-29051492c0e0""}","https://test12345.live/?num_scrambled_semantic=8&num_scrambled_causal=4&num_scrambled_schematic=4&participantId=5A5DF9642D684FA4AA10E340D6E8AB7B&assignmentId=5e583be5-f36d-4f72-8a26-201c1f8fe8eb&projectId=ba640c14-69c5-453e-80b2-29051492c0e0","5A5DF9642D684FA4AA10E340D6E8AB7B-2025-05-14-21-21-02","","2534","","images/causal_sequence/coin_causal/coin_causal_6.png","0","",""
"","","","","","image-button-response","94","855043","0.0-14.0-1.0-2.1","5A5DF9642D684FA4AA10E340D6E8AB7B","5A5DF9642D684FA4AA10E340D6E8AB7B","5e583be5-f36d-4f72-8a26-201c1f8fe8eb","ba640c14-69c5-453e-80b2-29051492c0e0","{""num_scrambled_semantic"":""8"",""num_scrambled_causal"":""4"",""num_scrambled_schematic"":""4"",""participantId"":""5A5DF9642D684FA4AA10E340D6E8AB7B"",""assignmentId"":""5e583be5-f36d-4f72-8a26-201c1f8fe8eb"",""projectId"":""ba640c14-69c5-453e-80b2-29051492c0e0""}","https://test12345.live/?num_scrambled_semantic=8&num_scrambled_causal=4&num_scrambled_schematic=4&participantId=5A5DF9642D684FA4AA10E340D6E8AB7B&assignmentId=5e583be5-f36d-4f72-8a26-201c1f8fe8eb&projectId=ba640c14-69c5-453e-80b2-29051492c0e0","5A5DF9642D684FA4AA10E340D6E8AB7B-2025-05-14-21-21-02","","null","","[]","null","",""
"","","","","","image-button-response","95","859551","0.0-14.0-1.0-0.2","5A5DF9642D684FA4AA10E340D6E8AB7B","5A5DF9642D684FA4AA10E340D6E8AB7B","5e583be5-f36d-4f72-8a26-201c1f8fe8eb","ba640c14-69c5-453e-80b2-29051492c0e0","{""num_scrambled_semantic"":""8"",""num_scrambled_causal"":""4"",""num_scrambled_schematic"":""4"",""participantId"":""5A5DF9642D684FA4AA10E340D6E8AB7B"",""assignmentId"":""5e583be5-f36d-4f72-8a26-201c1f8fe8eb"",""projectId"":""ba640c14-69c5-453e-80b2-29051492c0e0""}","https://test12345.live/?num_scrambled_semantic=8&num_scrambled_causal=4&num_scrambled_schematic=4&participantId=5A5DF9642D684FA4AA10E340D6E8AB7B&assignmentId=5e583be5-f36d-4f72-8a26-201c1f8fe8eb&projectId=ba640c14-69c5-453e-80b2-29051492c0e0","5A5DF9642D684FA4AA10E340D6E8AB7B-2025-05-14-21-21-02","","null","","images/causal_sequence/coin_causal/coin_causal_3.png","null","",""
"","","","","","image-button-response","96","861003","0.0-14.0-1.0-1.2","5A5DF9642D684FA4AA10E340D6E8AB7B","5A5DF9642D684FA4AA10E340D6E8AB7B","5e583be5-f36d-4f72-8a26-201c1f8fe8eb","ba640c14-69c5-453e-80b2-29051492c0e0","{""num_scrambled_semantic"":""8"",""num_scrambled_causal"":""4"",""num_scrambled_schematic"":""4"",""participantId"":""5A5DF9642D684FA4AA10E340D6E8AB7B"",""assignmentId"":""5e583be5-f36d-4f72-8a26-201c1f8fe8eb"",""projectId"":""ba640c14-69c5-453e-80b2-29051492c0e0""}","https://test12345.live/?num_scrambled_semantic=8&num_scrambled_causal=4&num_scrambled_schematic=4&participantId=5A5DF9642D684FA4AA10E340D6E8AB7B&assignmentId=5e583be5-f36d-4f72-8a26-201c1f8fe8eb&projectId=ba640c14-69c5-453e-80b2-29051492c0e0","5A5DF9642D684FA4AA10E340D6E8AB7B-2025-05-14-21-21-02","","1448","","images/causal_sequence/coin_causal/coin_causal_3.png","0","",""
"","","","","","image-button-response","97","862810","0.0-14.0-1.0-2.2","5A5DF9642D684FA4AA10E340D6E8AB7B","5A5DF9642D684FA4AA10E340D6E8AB7B","5e583be5-f36d-4f72-8a26-201c1f8fe8eb","ba640c14-69c5-453e-80b2-29051492c0e0","{""num_scrambled_semantic"":""8"",""num_scrambled_causal"":""4"",""num_scrambled_schematic"":""4"",""participantId"":""5A5DF9642D684FA4AA10E340D6E8AB7B"",""assignmentId"":""5e583be5-f36d-4f72-8a26-201c1f8fe8eb"",""projectId"":""ba640c14-69c5-453e-80b2-29051492c0e0""}","https://test12345.live/?num_scrambled_semantic=8&num_scrambled_causal=4&num_scrambled_schematic=4&participantId=5A5DF9642D684FA4AA10E340D6E8AB7B&assignmentId=5e583be5-f36d-4f72-8a26-201c1f8fe8eb&projectId=ba640c14-69c5-453e-80b2-29051492c0e0","5A5DF9642D684FA4AA10E340D6E8AB7B-2025-05-14-21-21-02","","null","","[]","null","",""
"","","","","","image-button-response","98","867317","0.0-14.0-1.0-0.3","5A5DF9642D684FA4AA10E340D6E8AB7B","5A5DF9642D684FA4AA10E340D6E8AB7B","5e583be5-f36d-4f72-8a26-201c1f8fe8eb","ba640c14-69c5-453e-80b2-29051492c0e0","{""num_scrambled_semantic"":""8"",""num_scrambled_causal"":""4"",""num_scrambled_schematic"":""4"",""participantId"":""5A5DF9642D684FA4AA10E340D6E8AB7B"",""assignmentId"":""5e583be5-f36d-4f72-8a26-201c1f8fe8eb"",""projectId"":""ba640c14-69c5-453e-80b2-29051492c0e0""}","https://test12345.live/?num_scrambled_semantic=8&num_scrambled_causal=4&num_scrambled_schematic=4&participantId=5A5DF9642D684FA4AA10E340D6E8AB7B&assignmentId=5e583be5-f36d-4f72-8a26-201c1f8fe8eb&projectId=ba640c14-69c5-453e-80b2-29051492c0e0","5A5DF9642D684FA4AA10E340D6E8AB7B-2025-05-14-21-21-02","","null","","images/causal_sequence/coin_causal/coin_causal_4.png","null","",""
"","","","","","image-button-response","99","868774","0.0-14.0-1.0-1.3","5A5DF9642D684FA4AA10E340D6E8AB7B","5A5DF9642D684FA4AA10E340D6E8AB7B","5e583be5-f36d-4f72-8a26-201c1f8fe8eb","ba640c14-69c5-453e-80b2-29051492c0e0","{""num_scrambled_semantic"":""8"",""num_scrambled_causal"":""4"",""num_scrambled_schematic"":""4"",""participantId"":""5A5DF9642D684FA4AA10E340D6E8AB7B"",""assignmentId"":""5e583be5-f36d-4f72-8a26-201c1f8fe8eb"",""projectId"":""ba640c14-69c5-453e-80b2-29051492c0e0""}","https://test12345.live/?num_scrambled_semantic=8&num_scrambled_causal=4&num_scrambled_schematic=4&participantId=5A5DF9642D684FA4AA10E340D6E8AB7B&assignmentId=5e583be5-f36d-4f72-8a26-201c1f8fe8eb&projectId=ba640c14-69c5-453e-80b2-29051492c0e0","5A5DF9642D684FA4AA10E340D6E8AB7B-2025-05-14-21-21-02","","1453","","images/causal_sequence/coin_causal/coin_causal_4.png","0","",""
"","","","","","image-button-response","100","870576","0.0-14.0-1.0-2.3","5A5DF9642D684FA4AA10E340D6E8AB7B","5A5DF9642D684FA4AA10E340D6E8AB7B","5e583be5-f36d-4f72-8a26-201c1f8fe8eb","ba640c14-69c5-453e-80b2-29051492c0e0","{""num_scrambled_semantic"":""8"",""num_scrambled_causal"":""4"",""num_scrambled_schematic"":""4"",""participantId"":""5A5DF9642D684FA4AA10E340D6E8AB7B"",""assignmentId"":""5e583be5-f36d-4f72-8a26-201c1f8fe8eb"",""projectId"":""ba640c14-69c5-453e-80b2-29051492c0e0""}","https://test12345.live/?num_scrambled_semantic=8&num_scrambled_causal=4&num_scrambled_schematic=4&participantId=5A5DF9642D684FA4AA10E340D6E8AB7B&assignmentId=5e583be5-f36d-4f72-8a26-201c1f8fe8eb&projectId=ba640c14-69c5-453e-80b2-29051492c0e0","5A5DF9642D684FA4AA10E340D6E8AB7B-2025-05-14-21-21-02","","null","","[]","null","",""
"","","","","","image-button-response","101","875081","0.0-14.0-1.0-0.4","5A5DF9642D684FA4AA10E340D6E8AB7B","5A5DF9642D684FA4AA10E340D6E8AB7B","5e583be5-f36d-4f72-8a26-201c1f8fe8eb","ba640c14-69c5-453e-80b2-29051492c0e0","{""num_scrambled_semantic"":""8"",""num_scrambled_causal"":""4"",""num_scrambled_schematic"":""4"",""participantId"":""5A5DF9642D684FA4AA10E340D6E8AB7B"",""assignmentId"":""5e583be5-f36d-4f72-8a26-201c1f8fe8eb"",""projectId"":""ba640c14-69c5-453e-80b2-29051492c0e0""}","https://test12345.live/?num_scrambled_semantic=8&num_scrambled_causal=4&num_scrambled_schematic=4&participantId=5A5DF9642D684FA4AA10E340D6E8AB7B&assignmentId=5e583be5-f36d-4f72-8a26-201c1f8fe8eb&projectId=ba640c14-69c5-453e-80b2-29051492c0e0","5A5DF9642D684FA4AA10E340D6E8AB7B-2025-05-14-21-21-02","","null","","images/causal_sequence/coin_causal/coin_causal_ten.png","null","",""
"","","","","","image-button-response","102","877001","0.0-14.0-1.0-1.4","5A5DF9642D684FA4AA10E340D6E8AB7B","5A5DF9642D684FA4AA10E340D6E8AB7B","5e583be5-f36d-4f72-8a26-201c1f8fe8eb","ba640c14-69c5-453e-80b2-29051492c0e0","{""num_scrambled_semantic"":""8"",""num_scrambled_causal"":""4"",""num_scrambled_schematic"":""4"",""participantId"":""5A5DF9642D684FA4AA10E340D6E8AB7B"",""assignmentId"":""5e583be5-f36d-4f72-8a26-201c1f8fe8eb"",""projectId"":""ba640c14-69c5-453e-80b2-29051492c0e0""}","https://test12345.live/?num_scrambled_semantic=8&num_scrambled_causal=4&num_scrambled_schematic=4&participantId=5A5DF9642D684FA4AA10E340D6E8AB7B&assignmentId=5e583be5-f36d-4f72-8a26-201c1f8fe8eb&projectId=ba640c14-69c5-453e-80b2-29051492c0e0","5A5DF9642D684FA4AA10E340D6E8AB7B-2025-05-14-21-21-02","","1917","","images/causal_sequence/coin_causal/coin_causal_ten.png","0","",""
"","","","","","image-button-response","103","878809","0.0-14.0-1.0-2.4","5A5DF9642D684FA4AA10E340D6E8AB7B","5A5DF9642D684FA4AA10E340D6E8AB7B","5e583be5-f36d-4f72-8a26-201c1f8fe8eb","ba640c14-69c5-453e-80b2-29051492c0e0","{""num_scrambled_semantic"":""8"",""num_scrambled_causal"":""4"",""num_scrambled_schematic"":""4"",""participantId"":""5A5DF9642D684FA4AA10E340D6E8AB7B"",""assignmentId"":""5e583be5-f36d-4f72-8a26-201c1f8fe8eb"",""projectId"":""ba640c14-69c5-453e-80b2-29051492c0e0""}","https://test12345.live/?num_scrambled_semantic=8&num_scrambled_causal=4&num_scrambled_schematic=4&participantId=5A5DF9642D684FA4AA10E340D6E8AB7B&assignmentId=5e583be5-f36d-4f72-8a26-201c1f8fe8eb&projectId=ba640c14-69c5-453e-80b2-29051492c0e0","5A5DF9642D684FA4AA10E340D6E8AB7B-2025-05-14-21-21-02","","null","","[]","null","",""
"","","","","","image-button-response","104","883313","0.0-14.0-1.0-0.5","5A5DF9642D684FA4AA10E340D6E8AB7B","5A5DF9642D684FA4AA10E340D6E8AB7B","5e583be5-f36d-4f72-8a26-201c1f8fe8eb","ba640c14-69c5-453e-80b2-29051492c0e0","{""num_scrambled_semantic"":""8"",""num_scrambled_causal"":""4"",""num_scrambled_schematic"":""4"",""participantId"":""5A5DF9642D684FA4AA10E340D6E8AB7B"",""assignmentId"":""5e583be5-f36d-4f72-8a26-201c1f8fe8eb"",""projectId"":""ba640c14-69c5-453e-80b2-29051492c0e0""}","https://test12345.live/?num_scrambled_semantic=8&num_scrambled_causal=4&num_scrambled_schematic=4&participantId=5A5DF9642D684FA4AA10E340D6E8AB7B&assignmentId=5e583be5-f36d-4f72-8a26-201c1f8fe8eb&projectId=ba640c14-69c5-453e-80b2-29051492c0e0","5A5DF9642D684FA4AA10E340D6E8AB7B-2025-05-14-21-21-02","","null","","images/causal_sequence/coin_causal/coin_causal_5.png","null","",""
"","","","","","image-button-response","105","885019","0.0-14.0-1.0-1.5","5A5DF9642D684FA4AA10E340D6E8AB7B","5A5DF9642D684FA4AA10E340D6E8AB7B","5e583be5-f36d-4f72-8a26-201c1f8fe8eb","ba640c14-69c5-453e-80b2-29051492c0e0","{""num_scrambled_semantic"":""8"",""num_scrambled_causal"":""4"",""num_scrambled_schematic"":""4"",""participantId"":""5A5DF9642D684FA4AA10E340D6E8AB7B"",""assignmentId"":""5e583be5-f36d-4f72-8a26-201c1f8fe8eb"",""projectId"":""ba640c14-69c5-453e-80b2-29051492c0e0""}","https://test12345.live/?num_scrambled_semantic=8&num_scrambled_causal=4&num_scrambled_schematic=4&participantId=5A5DF9642D684FA4AA10E340D6E8AB7B&assignmentId=5e583be5-f36d-4f72-8a26-201c1f8fe8eb&projectId=ba640c14-69c5-453e-80b2-29051492c0e0","5A5DF9642D684FA4AA10E340D6E8AB7B-2025-05-14-21-21-02","","1704","","images/causal_sequence/coin_causal/coin_causal_5.png","0","",""
"","","","","","image-button-response","106","886825","0.0-14.0-1.0-2.5","5A5DF9642D684FA4AA10E340D6E8AB7B","5A5DF9642D684FA4AA10E340D6E8AB7B","5e583be5-f36d-4f72-8a26-201c1f8fe8eb","ba640c14-69c5-453e-80b2-29051492c0e0","{""num_scrambled_semantic"":""8"",""num_scrambled_causal"":""4"",""num_scrambled_schematic"":""4"",""participantId"":""5A5DF9642D684FA4AA10E340D6E8AB7B"",""assignmentId"":""5e583be5-f36d-4f72-8a26-201c1f8fe8eb"",""projectId"":""ba640c14-69c5-453e-80b2-29051492c0e0""}","https://test12345.live/?num_scrambled_semantic=8&num_scrambled_causal=4&num_scrambled_schematic=4&participantId=5A5DF9642D684FA4AA10E340D6E8AB7B&assignmentId=5e583be5-f36d-4f72-8a26-201c1f8fe8eb&projectId=ba640c14-69c5-453e-80b2-29051492c0e0","5A5DF9642D684FA4AA10E340D6E8AB7B-2025-05-14-21-21-02","","null","","[]","null","",""
"","","","","","image-button-response","107","891335","0.0-14.0-1.0-0.6","5A5DF9642D684FA4AA10E340D6E8AB7B","5A5DF9642D684FA4AA10E340D6E8AB7B","5e583be5-f36d-4f72-8a26-201c1f8fe8eb","ba640c14-69c5-453e-80b2-29051492c0e0","{""num_scrambled_semantic"":""8"",""num_scrambled_causal"":""4"",""num_scrambled_schematic"":""4"",""participantId"":""5A5DF9642D684FA4AA10E340D6E8AB7B"",""assignmentId"":""5e583be5-f36d-4f72-8a26-201c1f8fe8eb"",""projectId"":""ba640c14-69c5-453e-80b2-29051492c0e0""}","https://test12345.live/?num_scrambled_semantic=8&num_scrambled_causal=4&num_scrambled_schematic=4&participantId=5A5DF9642D684FA4AA10E340D6E8AB7B&assignmentId=5e583be5-f36d-4f72-8a26-201c1f8fe8eb&projectId=ba640c14-69c5-453e-80b2-29051492c0e0","5A5DF9642D684FA4AA10E340D6E8AB7B-2025-05-14-21-21-02","","null","","images/causal_sequence/coin_causal/coin_causal_2.png","null","",""
"","","","","","image-button-response","108","895067","0.0-14.0-1.0-1.6","5A5DF9642D684FA4AA10E340D6E8AB7B","5A5DF9642D684FA4AA10E340D6E8AB7B","5e583be5-f36d-4f72-8a26-201c1f8fe8eb","ba640c14-69c5-453e-80b2-29051492c0e0","{""num_scrambled_semantic"":""8"",""num_scrambled_causal"":""4"",""num_scrambled_schematic"":""4"",""participantId"":""5A5DF9642D684FA4AA10E340D6E8AB7B"",""assignmentId"":""5e583be5-f36d-4f72-8a26-201c1f8fe8eb"",""projectId"":""ba640c14-69c5-453e-80b2-29051492c0e0""}","https://test12345.live/?num_scrambled_semantic=8&num_scrambled_causal=4&num_scrambled_schematic=4&participantId=5A5DF9642D684FA4AA10E340D6E8AB7B&assignmentId=5e583be5-f36d-4f72-8a26-201c1f8fe8eb&projectId=ba640c14-69c5-453e-80b2-29051492c0e0","5A5DF9642D684FA4AA10E340D6E8AB7B-2025-05-14-21-21-02","","3729","","images/causal_sequence/coin_causal/coin_causal_2.png","0","",""
"","","","","","image-button-response","109","896871","0.0-14.0-1.0-2.6","5A5DF9642D684FA4AA10E340D6E8AB7B","5A5DF9642D684FA4AA10E340D6E8AB7B","5e583be5-f36d-4f72-8a26-201c1f8fe8eb","ba640c14-69c5-453e-80b2-29051492c0e0","{""num_scrambled_semantic"":""8"",""num_scrambled_causal"":""4"",""num_scrambled_schematic"":""4"",""participantId"":""5A5DF9642D684FA4AA10E340D6E8AB7B"",""assignmentId"":""5e583be5-f36d-4f72-8a26-201c1f8fe8eb"",""projectId"":""ba640c14-69c5-453e-80b2-29051492c0e0""}","https://test12345.live/?num_scrambled_semantic=8&num_scrambled_causal=4&num_scrambled_schematic=4&participantId=5A5DF9642D684FA4AA10E340D6E8AB7B&assignmentId=5e583be5-f36d-4f72-8a26-201c1f8fe8eb&projectId=ba640c14-69c5-453e-80b2-29051492c0e0","5A5DF9642D684FA4AA10E340D6E8AB7B-2025-05-14-21-21-02","","null","","[]","null","",""
"","","","","","image-button-response","110","901377","0.0-14.0-1.0-0.7","5A5DF9642D684FA4AA10E340D6E8AB7B","5A5DF9642D684FA4AA10E340D6E8AB7B","5e583be5-f36d-4f72-8a26-201c1f8fe8eb","ba640c14-69c5-453e-80b2-29051492c0e0","{""num_scrambled_semantic"":""8"",""num_scrambled_causal"":""4"",""num_scrambled_schematic"":""4"",""participantId"":""5A5DF9642D684FA4AA10E340D6E8AB7B"",""assignmentId"":""5e583be5-f36d-4f72-8a26-201c1f8fe8eb"",""projectId"":""ba640c14-69c5-453e-80b2-29051492c0e0""}","https://test12345.live/?num_scrambled_semantic=8&num_scrambled_causal=4&num_scrambled_schematic=4&participantId=5A5DF9642D684FA4AA10E340D6E8AB7B&assignmentId=5e583be5-f36d-4f72-8a26-201c1f8fe8eb&projectId=ba640c14-69c5-453e-80b2-29051492c0e0","5A5DF9642D684FA4AA10E340D6E8AB7B-2025-05-14-21-21-02","","null","","images/causal_sequence/coin_causal/coin_causal_8.png","null","",""
"","","","","","image-button-response","111","902502","0.0-14.0-1.0-1.7","5A5DF9642D684FA4AA10E340D6E8AB7B","5A5DF9642D684FA4AA10E340D6E8AB7B","5e583be5-f36d-4f72-8a26-201c1f8fe8eb","ba640c14-69c5-453e-80b2-29051492c0e0","{""num_scrambled_semantic"":""8"",""num_scrambled_causal"":""4"",""num_scrambled_schematic"":""4"",""participantId"":""5A5DF9642D684FA4AA10E340D6E8AB7B"",""assignmentId"":""5e583be5-f36d-4f72-8a26-201c1f8fe8eb"",""projectId"":""ba640c14-69c5-453e-80b2-29051492c0e0""}","https://test12345.live/?num_scrambled_semantic=8&num_scrambled_causal=4&num_scrambled_schematic=4&participantId=5A5DF9642D684FA4AA10E340D6E8AB7B&assignmentId=5e583be5-f36d-4f72-8a26-201c1f8fe8eb&projectId=ba640c14-69c5-453e-80b2-29051492c0e0","5A5DF9642D684FA4AA10E340D6E8AB7B-2025-05-14-21-21-02","","1121","","images/causal_sequence/coin_causal/coin_causal_8.png","0","",""
"","","","","","image-button-response","112","904312","0.0-14.0-1.0-2.7","5A5DF9642D684FA4AA10E340D6E8AB7B","5A5DF9642D684FA4AA10E340D6E8AB7B","5e583be5-f36d-4f72-8a26-201c1f8fe8eb","ba640c14-69c5-453e-80b2-29051492c0e0","{""num_scrambled_semantic"":""8"",""num_scrambled_causal"":""4"",""num_scrambled_schematic"":""4"",""participantId"":""5A5DF9642D684FA4AA10E340D6E8AB7B"",""assignmentId"":""5e583be5-f36d-4f72-8a26-201c1f8fe8eb"",""projectId"":""ba640c14-69c5-453e-80b2-29051492c0e0""}","https://test12345.live/?num_scrambled_semantic=8&num_scrambled_causal=4&num_scrambled_schematic=4&participantId=5A5DF9642D684FA4AA10E340D6E8AB7B&assignmentId=5e583be5-f36d-4f72-8a26-201c1f8fe8eb&projectId=ba640c14-69c5-453e-80b2-29051492c0e0","5A5DF9642D684FA4AA10E340D6E8AB7B-2025-05-14-21-21-02","","null","","[]","null","",""
"","","","","","image-button-response","113","908817","0.0-14.0-1.0-0.8","5A5DF9642D684FA4AA10E340D6E8AB7B","5A5DF9642D684FA4AA10E340D6E8AB7B","5e583be5-f36d-4f72-8a26-201c1f8fe8eb","ba640c14-69c5-453e-80b2-29051492c0e0","{""num_scrambled_semantic"":""8"",""num_scrambled_causal"":""4"",""num_scrambled_schematic"":""4"",""participantId"":""5A5DF9642D684FA4AA10E340D6E8AB7B"",""assignmentId"":""5e583be5-f36d-4f72-8a26-201c1f8fe8eb"",""projectId"":""ba640c14-69c5-453e-80b2-29051492c0e0""}","https://test12345.live/?num_scrambled_semantic=8&num_scrambled_causal=4&num_scrambled_schematic=4&participantId=5A5DF9642D684FA4AA10E340D6E8AB7B&assignmentId=5e583be5-f36d-4f72-8a26-201c1f8fe8eb&projectId=ba640c14-69c5-453e-80b2-29051492c0e0","5A5DF9642D684FA4AA10E340D6E8AB7B-2025-05-14-21-21-02","","null","","images/causal_sequence/coin_causal/coin_causal_9.png","null","",""
"","","","","","image-button-response","114","911355","0.0-14.0-1.0-1.8","5A5DF9642D684FA4AA10E340D6E8AB7B","5A5DF9642D684FA4AA10E340D6E8AB7B","5e583be5-f36d-4f72-8a26-201c1f8fe8eb","ba640c14-69c5-453e-80b2-29051492c0e0","{""num_scrambled_semantic"":""8"",""num_scrambled_causal"":""4"",""num_scrambled_schematic"":""4"",""participantId"":""5A5DF9642D684FA4AA10E340D6E8AB7B"",""assignmentId"":""5e583be5-f36d-4f72-8a26-201c1f8fe8eb"",""projectId"":""ba640c14-69c5-453e-80b2-29051492c0e0""}","https://test12345.live/?num_scrambled_semantic=8&num_scrambled_causal=4&num_scrambled_schematic=4&participantId=5A5DF9642D684FA4AA10E340D6E8AB7B&assignmentId=5e583be5-f36d-4f72-8a26-201c1f8fe8eb&projectId=ba640c14-69c5-453e-80b2-29051492c0e0","5A5DF9642D684FA4AA10E340D6E8AB7B-2025-05-14-21-21-02","","2538","","images/causal_sequence/coin_causal/coin_causal_9.png","0","",""
