"success","timeout","failed_images","failed_audio","failed_video","trial_type","trial_index","time_elapsed","internal_node_id","subject","subject_id","study_id","session_id","urlvar","current_url","audio_id","view_history","rt","device_id","stimulus","response","estimated_stimulus_onset","seq_name"
"true","false","[]","[]","[]","preload","0","20089","0.0-0.0","5C303E45693340C0ADD2ACF2963D6BF7","5C303E45693340C0ADD2ACF2963D6BF7","bf126769-5b55-48d5-8792-913e291d0d9b","a9f3d40c-5730-405c-b25e-1034c4c56f3f","{""num_scrambled_semantic"":""8"",""num_scrambled_causal"":""4"",""num_scrambled_schematic"":""4"",""participantId"":""5C303E45693340C0ADD2ACF2963D6BF7"",""assignmentId"":""bf126769-5b55-48d5-8792-913e291d0d9b"",""projectId"":""a9f3d40c-5730-405c-b25e-1034c4c56f3f""}","https://test12345.live/?num_scrambled_semantic=8&num_scrambled_causal=4&num_scrambled_schematic=4&participantId=5C303E45693340C0ADD2ACF2963D6BF7&assignmentId=bf126769-5b55-48d5-8792-913e291d0d9b&projectId=a9f3d40c-5730-405c-b25e-1034c4c56f3f","5C303E45693340C0ADD2ACF2963D6BF7-2025-08-07-18-57-00","","","","","","",""
"","","","","","instructions","1","43484","0.0-1.0","5C303E45693340C0ADD2ACF2963D6BF7","5C303E45693340C0ADD2ACF2963D6BF7","bf126769-5b55-48d5-8792-913e291d0d9b","a9f3d40c-5730-405c-b25e-1034c4c56f3f","{""num_scrambled_semantic"":""8"",""num_scrambled_causal"":""4"",""num_scrambled_schematic"":""4"",""participantId"":""5C303E45693340C0ADD2ACF2963D6BF7"",""assignmentId"":""bf126769-5b55-48d5-8792-913e291d0d9b"",""projectId"":""a9f3d40c-5730-405c-b25e-1034c4c56f3f""}","https://test12345.live/?num_scrambled_semantic=8&num_scrambled_causal=4&num_scrambled_schematic=4&participantId=5C303E45693340C0ADD2ACF2963D6BF7&assignmentId=bf126769-5b55-48d5-8792-913e291d0d9b&projectId=a9f3d40c-5730-405c-b25e-1034c4c56f3f","5C303E45693340C0ADD2ACF2963D6BF7-2025-08-07-18-57-00","[{""page_index"":0,""viewing_time"":23394}]","23394","","","","",""
"","","","","","instructions","2","54718","0.0-2.0","5C303E45693340C0ADD2ACF2963D6BF7","5C303E45693340C0ADD2ACF2963D6BF7","bf126769-5b55-48d5-8792-913e291d0d9b","a9f3d40c-5730-405c-b25e-1034c4c56f3f","{""num_scrambled_semantic"":""8"",""num_scrambled_causal"":""4"",""num_scrambled_schematic"":""4"",""participantId"":""5C303E45693340C0ADD2ACF2963D6BF7"",""assignmentId"":""bf126769-5b55-48d5-8792-913e291d0d9b"",""projectId"":""a9f3d40c-5730-405c-b25e-1034c4c56f3f""}","https://test12345.live/?num_scrambled_semantic=8&num_scrambled_causal=4&num_scrambled_schematic=4&participantId=5C303E45693340C0ADD2ACF2963D6BF7&assignmentId=bf126769-5b55-48d5-8792-913e291d0d9b&projectId=a9f3d40c-5730-405c-b25e-1034c4c56f3f","5C303E45693340C0ADD2ACF2963D6BF7-2025-08-07-18-57-00","[{""page_index"":0,""viewing_time"":11233}]","11233","","","","",""
"true","","","","","fullscreen","3","58120","0.0-3.0","5C303E45693340C0ADD2ACF2963D6BF7","5C303E45693340C0ADD2ACF2963D6BF7","bf126769-5b55-48d5-8792-913e291d0d9b","a9f3d40c-5730-405c-b25e-1034c4c56f3f","{""num_scrambled_semantic"":""8"",""num_scrambled_causal"":""4"",""num_scrambled_schematic"":""4"",""participantId"":""5C303E45693340C0ADD2ACF2963D6BF7"",""assignmentId"":""bf126769-5b55-48d5-8792-913e291d0d9b"",""projectId"":""a9f3d40c-5730-405c-b25e-1034c4c56f3f""}","https://test12345.live/?num_scrambled_semantic=8&num_scrambled_causal=4&num_scrambled_schematic=4&participantId=5C303E45693340C0ADD2ACF2963D6BF7&assignmentId=bf126769-5b55-48d5-8792-913e291d0d9b&projectId=a9f3d40c-5730-405c-b25e-1034c4c56f3f","5C303E45693340C0ADD2ACF2963D6BF7-2025-08-07-18-57-00","","2397","","","","",""
"","","","","","initialize-microphone","4","65504","0.0-4.0-0.0","5C303E45693340C0ADD2ACF2963D6BF7","5C303E45693340C0ADD2ACF2963D6BF7","bf126769-5b55-48d5-8792-913e291d0d9b","a9f3d40c-5730-405c-b25e-1034c4c56f3f","{""num_scrambled_semantic"":""8"",""num_scrambled_causal"":""4"",""num_scrambled_schematic"":""4"",""participantId"":""5C303E45693340C0ADD2ACF2963D6BF7"",""assignmentId"":""bf126769-5b55-48d5-8792-913e291d0d9b"",""projectId"":""a9f3d40c-5730-405c-b25e-1034c4c56f3f""}","https://test12345.live/?num_scrambled_semantic=8&num_scrambled_causal=4&num_scrambled_schematic=4&participantId=5C303E45693340C0ADD2ACF2963D6BF7&assignmentId=bf126769-5b55-48d5-8792-913e291d0d9b&projectId=a9f3d40c-5730-405c-b25e-1034c4c56f3f","5C303E45693340C0ADD2ACF2963D6BF7-2025-08-07-18-57-00","","","6db91f3e4f4bdac4963198d7ed4e9ff15eb46a2197ac68b346c5d1e2376ad7fb","","","",""
"","","","","","html-audio-response","5","89343","0.0-4.0-1.0","5C303E45693340C0ADD2ACF2963D6BF7","5C303E45693340C0ADD2ACF2963D6BF7","bf126769-5b55-48d5-8792-913e291d0d9b","a9f3d40c-5730-405c-b25e-1034c4c56f3f","{""num_scrambled_semantic"":""8"",""num_scrambled_causal"":""4"",""num_scrambled_schematic"":""4"",""participantId"":""5C303E45693340C0ADD2ACF2963D6BF7"",""assignmentId"":""bf126769-5b55-48d5-8792-913e291d0d9b"",""projectId"":""a9f3d40c-5730-405c-b25e-1034c4c56f3f""}","https://test12345.live/?num_scrambled_semantic=8&num_scrambled_causal=4&num_scrambled_schematic=4&participantId=5C303E45693340C0ADD2ACF2963D6BF7&assignmentId=bf126769-5b55-48d5-8792-913e291d0d9b&projectId=a9f3d40c-5730-405c-b25e-1034c4c56f3f","5C303E45693340C0ADD2ACF2963D6BF7-2025-08-07-18-57-00","","9546","","<span style=""color: red; font-size: 24px""> NOW RECORDING</span>
        <p>Please test Microphone</p>","","4",""
"","","","","","html-button-response","6","90891","0.0-4.0-2.0","5C303E45693340C0ADD2ACF2963D6BF7","5C303E45693340C0ADD2ACF2963D6BF7","bf126769-5b55-48d5-8792-913e291d0d9b","a9f3d40c-5730-405c-b25e-1034c4c56f3f","{""num_scrambled_semantic"":""8"",""num_scrambled_causal"":""4"",""num_scrambled_schematic"":""4"",""participantId"":""5C303E45693340C0ADD2ACF2963D6BF7"",""assignmentId"":""bf126769-5b55-48d5-8792-913e291d0d9b"",""projectId"":""a9f3d40c-5730-405c-b25e-1034c4c56f3f""}","https://test12345.live/?num_scrambled_semantic=8&num_scrambled_causal=4&num_scrambled_schematic=4&participantId=5C303E45693340C0ADD2ACF2963D6BF7&assignmentId=bf126769-5b55-48d5-8792-913e291d0d9b&projectId=a9f3d40c-5730-405c-b25e-1034c4c56f3f","5C303E45693340C0ADD2ACF2963D6BF7-2025-08-07-18-57-00","","1548","","<p style=""font-size:48px; color:red;"">Is Microphone OK?</p>","1","",""
"","","","","","instructions","7","97881","0.0-5.0","5C303E45693340C0ADD2ACF2963D6BF7","5C303E45693340C0ADD2ACF2963D6BF7","bf126769-5b55-48d5-8792-913e291d0d9b","a9f3d40c-5730-405c-b25e-1034c4c56f3f","{""num_scrambled_semantic"":""8"",""num_scrambled_causal"":""4"",""num_scrambled_schematic"":""4"",""participantId"":""5C303E45693340C0ADD2ACF2963D6BF7"",""assignmentId"":""bf126769-5b55-48d5-8792-913e291d0d9b"",""projectId"":""a9f3d40c-5730-405c-b25e-1034c4c56f3f""}","https://test12345.live/?num_scrambled_semantic=8&num_scrambled_causal=4&num_scrambled_schematic=4&participantId=5C303E45693340C0ADD2ACF2963D6BF7&assignmentId=bf126769-5b55-48d5-8792-913e291d0d9b&projectId=a9f3d40c-5730-405c-b25e-1034c4c56f3f","5C303E45693340C0ADD2ACF2963D6BF7-2025-08-07-18-57-00","[{""page_index"":0,""viewing_time"":2995},{""page_index"":1,""viewing_time"":3994}]","6989","","","","",""
"","","","","","image-button-response","8","103882","0.0-6.0-0.0","5C303E45693340C0ADD2ACF2963D6BF7","5C303E45693340C0ADD2ACF2963D6BF7","bf126769-5b55-48d5-8792-913e291d0d9b","a9f3d40c-5730-405c-b25e-1034c4c56f3f","{""num_scrambled_semantic"":""8"",""num_scrambled_causal"":""4"",""num_scrambled_schematic"":""4"",""participantId"":""5C303E45693340C0ADD2ACF2963D6BF7"",""assignmentId"":""bf126769-5b55-48d5-8792-913e291d0d9b"",""projectId"":""a9f3d40c-5730-405c-b25e-1034c4c56f3f""}","https://test12345.live/?num_scrambled_semantic=8&num_scrambled_causal=4&num_scrambled_schematic=4&participantId=5C303E45693340C0ADD2ACF2963D6BF7&assignmentId=bf126769-5b55-48d5-8792-913e291d0d9b&projectId=a9f3d40c-5730-405c-b25e-1034c4c56f3f","5C303E45693340C0ADD2ACF2963D6BF7-2025-08-07-18-57-00","","null","","images/instructions/movie_0.png","null","",""
"","","","","","image-button-response","9","108394","0.0-6.0-1.0-0.0","5C303E45693340C0ADD2ACF2963D6BF7","5C303E45693340C0ADD2ACF2963D6BF7","bf126769-5b55-48d5-8792-913e291d0d9b","a9f3d40c-5730-405c-b25e-1034c4c56f3f","{""num_scrambled_semantic"":""8"",""num_scrambled_causal"":""4"",""num_scrambled_schematic"":""4"",""participantId"":""5C303E45693340C0ADD2ACF2963D6BF7"",""assignmentId"":""bf126769-5b55-48d5-8792-913e291d0d9b"",""projectId"":""a9f3d40c-5730-405c-b25e-1034c4c56f3f""}","https://test12345.live/?num_scrambled_semantic=8&num_scrambled_causal=4&num_scrambled_schematic=4&participantId=5C303E45693340C0ADD2ACF2963D6BF7&assignmentId=bf126769-5b55-48d5-8792-913e291d0d9b&projectId=a9f3d40c-5730-405c-b25e-1034c4c56f3f","5C303E45693340C0ADD2ACF2963D6BF7-2025-08-07-18-57-00","","null","","images/instructions/movie_1.png","null","",""
"","","","","","image-button-response","10","111531","0.0-6.0-1.0-1.0","5C303E45693340C0ADD2ACF2963D6BF7","5C303E45693340C0ADD2ACF2963D6BF7","bf126769-5b55-48d5-8792-913e291d0d9b","a9f3d40c-5730-405c-b25e-1034c4c56f3f","{""num_scrambled_semantic"":""8"",""num_scrambled_causal"":""4"",""num_scrambled_schematic"":""4"",""participantId"":""5C303E45693340C0ADD2ACF2963D6BF7"",""assignmentId"":""bf126769-5b55-48d5-8792-913e291d0d9b"",""projectId"":""a9f3d40c-5730-405c-b25e-1034c4c56f3f""}","https://test12345.live/?num_scrambled_semantic=8&num_scrambled_causal=4&num_scrambled_schematic=4&participantId=5C303E45693340C0ADD2ACF2963D6BF7&assignmentId=bf126769-5b55-48d5-8792-913e291d0d9b&projectId=a9f3d40c-5730-405c-b25e-1034c4c56f3f","5C303E45693340C0ADD2ACF2963D6BF7-2025-08-07-18-57-00","","3135","","images/instructions/movie_1.png","0","",""
"","","","","","image-button-response","11","113340","0.0-6.0-1.0-2.0","5C303E45693340C0ADD2ACF2963D6BF7","5C303E45693340C0ADD2ACF2963D6BF7","bf126769-5b55-48d5-8792-913e291d0d9b","a9f3d40c-5730-405c-b25e-1034c4c56f3f","{""num_scrambled_semantic"":""8"",""num_scrambled_causal"":""4"",""num_scrambled_schematic"":""4"",""participantId"":""5C303E45693340C0ADD2ACF2963D6BF7"",""assignmentId"":""bf126769-5b55-48d5-8792-913e291d0d9b"",""projectId"":""a9f3d40c-5730-405c-b25e-1034c4c56f3f""}","https://test12345.live/?num_scrambled_semantic=8&num_scrambled_causal=4&num_scrambled_schematic=4&participantId=5C303E45693340C0ADD2ACF2963D6BF7&assignmentId=bf126769-5b55-48d5-8792-913e291d0d9b&projectId=a9f3d40c-5730-405c-b25e-1034c4c56f3f","5C303E45693340C0ADD2ACF2963D6BF7-2025-08-07-18-57-00","","null","","[]","null","",""
"","","","","","image-button-response","12","117842","0.0-6.0-1.0-0.1","5C303E45693340C0ADD2ACF2963D6BF7","5C303E45693340C0ADD2ACF2963D6BF7","bf126769-5b55-48d5-8792-913e291d0d9b","a9f3d40c-5730-405c-b25e-1034c4c56f3f","{""num_scrambled_semantic"":""8"",""num_scrambled_causal"":""4"",""num_scrambled_schematic"":""4"",""participantId"":""5C303E45693340C0ADD2ACF2963D6BF7"",""assignmentId"":""bf126769-5b55-48d5-8792-913e291d0d9b"",""projectId"":""a9f3d40c-5730-405c-b25e-1034c4c56f3f""}","https://test12345.live/?num_scrambled_semantic=8&num_scrambled_causal=4&num_scrambled_schematic=4&participantId=5C303E45693340C0ADD2ACF2963D6BF7&assignmentId=bf126769-5b55-48d5-8792-913e291d0d9b&projectId=a9f3d40c-5730-405c-b25e-1034c4c56f3f","5C303E45693340C0ADD2ACF2963D6BF7-2025-08-07-18-57-00","","null","","images/instructions/movie_2.png","null","",""
"","","","","","image-button-response","13","119669","0.0-6.0-1.0-1.1","5C303E45693340C0ADD2ACF2963D6BF7","5C303E45693340C0ADD2ACF2963D6BF7","bf126769-5b55-48d5-8792-913e291d0d9b","a9f3d40c-5730-405c-b25e-1034c4c56f3f","{""num_scrambled_semantic"":""8"",""num_scrambled_causal"":""4"",""num_scrambled_schematic"":""4"",""participantId"":""5C303E45693340C0ADD2ACF2963D6BF7"",""assignmentId"":""bf126769-5b55-48d5-8792-913e291d0d9b"",""projectId"":""a9f3d40c-5730-405c-b25e-1034c4c56f3f""}","https://test12345.live/?num_scrambled_semantic=8&num_scrambled_causal=4&num_scrambled_schematic=4&participantId=5C303E45693340C0ADD2ACF2963D6BF7&assignmentId=bf126769-5b55-48d5-8792-913e291d0d9b&projectId=a9f3d40c-5730-405c-b25e-1034c4c56f3f","5C303E45693340C0ADD2ACF2963D6BF7-2025-08-07-18-57-00","","1827","","images/instructions/movie_2.png","0","",""
"","","","","","image-button-response","14","121481","0.0-6.0-1.0-2.1","5C303E45693340C0ADD2ACF2963D6BF7","5C303E45693340C0ADD2ACF2963D6BF7","bf126769-5b55-48d5-8792-913e291d0d9b","a9f3d40c-5730-405c-b25e-1034c4c56f3f","{""num_scrambled_semantic"":""8"",""num_scrambled_causal"":""4"",""num_scrambled_schematic"":""4"",""participantId"":""5C303E45693340C0ADD2ACF2963D6BF7"",""assignmentId"":""bf126769-5b55-48d5-8792-913e291d0d9b"",""projectId"":""a9f3d40c-5730-405c-b25e-1034c4c56f3f""}","https://test12345.live/?num_scrambled_semantic=8&num_scrambled_causal=4&num_scrambled_schematic=4&participantId=5C303E45693340C0ADD2ACF2963D6BF7&assignmentId=bf126769-5b55-48d5-8792-913e291d0d9b&projectId=a9f3d40c-5730-405c-b25e-1034c4c56f3f","5C303E45693340C0ADD2ACF2963D6BF7-2025-08-07-18-57-00","","null","","[]","null","",""
"","","","","","image-button-response","15","125984","0.0-6.0-1.0-0.2","5C303E45693340C0ADD2ACF2963D6BF7","5C303E45693340C0ADD2ACF2963D6BF7","bf126769-5b55-48d5-8792-913e291d0d9b","a9f3d40c-5730-405c-b25e-1034c4c56f3f","{""num_scrambled_semantic"":""8"",""num_scrambled_causal"":""4"",""num_scrambled_schematic"":""4"",""participantId"":""5C303E45693340C0ADD2ACF2963D6BF7"",""assignmentId"":""bf126769-5b55-48d5-8792-913e291d0d9b"",""projectId"":""a9f3d40c-5730-405c-b25e-1034c4c56f3f""}","https://test12345.live/?num_scrambled_semantic=8&num_scrambled_causal=4&num_scrambled_schematic=4&participantId=5C303E45693340C0ADD2ACF2963D6BF7&assignmentId=bf126769-5b55-48d5-8792-913e291d0d9b&projectId=a9f3d40c-5730-405c-b25e-1034c4c56f3f","5C303E45693340C0ADD2ACF2963D6BF7-2025-08-07-18-57-00","","null","","images/instructions/movie_3.png","null","",""
"","","","","","image-button-response","16","127113","0.0-6.0-1.0-1.2","5C303E45693340C0ADD2ACF2963D6BF7","5C303E45693340C0ADD2ACF2963D6BF7","bf126769-5b55-48d5-8792-913e291d0d9b","a9f3d40c-5730-405c-b25e-1034c4c56f3f","{""num_scrambled_semantic"":""8"",""num_scrambled_causal"":""4"",""num_scrambled_schematic"":""4"",""participantId"":""5C303E45693340C0ADD2ACF2963D6BF7"",""assignmentId"":""bf126769-5b55-48d5-8792-913e291d0d9b"",""projectId"":""a9f3d40c-5730-405c-b25e-1034c4c56f3f""}","https://test12345.live/?num_scrambled_semantic=8&num_scrambled_causal=4&num_scrambled_schematic=4&participantId=5C303E45693340C0ADD2ACF2963D6BF7&assignmentId=bf126769-5b55-48d5-8792-913e291d0d9b&projectId=a9f3d40c-5730-405c-b25e-1034c4c56f3f","5C303E45693340C0ADD2ACF2963D6BF7-2025-08-07-18-57-00","","1128","","images/instructions/movie_3.png","0","",""
"","","","","","image-button-response","17","128918","0.0-6.0-1.0-2.2","5C303E45693340C0ADD2ACF2963D6BF7","5C303E45693340C0ADD2ACF2963D6BF7","bf126769-5b55-48d5-8792-913e291d0d9b","a9f3d40c-5730-405c-b25e-1034c4c56f3f","{""num_scrambled_semantic"":""8"",""num_scrambled_causal"":""4"",""num_scrambled_schematic"":""4"",""participantId"":""5C303E45693340C0ADD2ACF2963D6BF7"",""assignmentId"":""bf126769-5b55-48d5-8792-913e291d0d9b"",""projectId"":""a9f3d40c-5730-405c-b25e-1034c4c56f3f""}","https://test12345.live/?num_scrambled_semantic=8&num_scrambled_causal=4&num_scrambled_schematic=4&participantId=5C303E45693340C0ADD2ACF2963D6BF7&assignmentId=bf126769-5b55-48d5-8792-913e291d0d9b&projectId=a9f3d40c-5730-405c-b25e-1034c4c56f3f","5C303E45693340C0ADD2ACF2963D6BF7-2025-08-07-18-57-00","","null","","[]","null","",""
"","","","","","image-button-response","18","133421","0.0-6.0-1.0-0.3","5C303E45693340C0ADD2ACF2963D6BF7","5C303E45693340C0ADD2ACF2963D6BF7","bf126769-5b55-48d5-8792-913e291d0d9b","a9f3d40c-5730-405c-b25e-1034c4c56f3f","{""num_scrambled_semantic"":""8"",""num_scrambled_causal"":""4"",""num_scrambled_schematic"":""4"",""participantId"":""5C303E45693340C0ADD2ACF2963D6BF7"",""assignmentId"":""bf126769-5b55-48d5-8792-913e291d0d9b"",""projectId"":""a9f3d40c-5730-405c-b25e-1034c4c56f3f""}","https://test12345.live/?num_scrambled_semantic=8&num_scrambled_causal=4&num_scrambled_schematic=4&participantId=5C303E45693340C0ADD2ACF2963D6BF7&assignmentId=bf126769-5b55-48d5-8792-913e291d0d9b&projectId=a9f3d40c-5730-405c-b25e-1034c4c56f3f","5C303E45693340C0ADD2ACF2963D6BF7-2025-08-07-18-57-00","","null","","images/instructions/movie_4.png","null","",""
"","","","","","image-button-response","19","134991","0.0-6.0-1.0-1.3","5C303E45693340C0ADD2ACF2963D6BF7","5C303E45693340C0ADD2ACF2963D6BF7","bf126769-5b55-48d5-8792-913e291d0d9b","a9f3d40c-5730-405c-b25e-1034c4c56f3f","{""num_scrambled_semantic"":""8"",""num_scrambled_causal"":""4"",""num_scrambled_schematic"":""4"",""participantId"":""5C303E45693340C0ADD2ACF2963D6BF7"",""assignmentId"":""bf126769-5b55-48d5-8792-913e291d0d9b"",""projectId"":""a9f3d40c-5730-405c-b25e-1034c4c56f3f""}","https://test12345.live/?num_scrambled_semantic=8&num_scrambled_causal=4&num_scrambled_schematic=4&participantId=5C303E45693340C0ADD2ACF2963D6BF7&assignmentId=bf126769-5b55-48d5-8792-913e291d0d9b&projectId=a9f3d40c-5730-405c-b25e-1034c4c56f3f","5C303E45693340C0ADD2ACF2963D6BF7-2025-08-07-18-57-00","","1569","","images/instructions/movie_4.png","0","",""
"","","","","","image-button-response","20","136796","0.0-6.0-1.0-2.3","5C303E45693340C0ADD2ACF2963D6BF7","5C303E45693340C0ADD2ACF2963D6BF7","bf126769-5b55-48d5-8792-913e291d0d9b","a9f3d40c-5730-405c-b25e-1034c4c56f3f","{""num_scrambled_semantic"":""8"",""num_scrambled_causal"":""4"",""num_scrambled_schematic"":""4"",""participantId"":""5C303E45693340C0ADD2ACF2963D6BF7"",""assignmentId"":""bf126769-5b55-48d5-8792-913e291d0d9b"",""projectId"":""a9f3d40c-5730-405c-b25e-1034c4c56f3f""}","https://test12345.live/?num_scrambled_semantic=8&num_scrambled_causal=4&num_scrambled_schematic=4&participantId=5C303E45693340C0ADD2ACF2963D6BF7&assignmentId=bf126769-5b55-48d5-8792-913e291d0d9b&projectId=a9f3d40c-5730-405c-b25e-1034c4c56f3f","5C303E45693340C0ADD2ACF2963D6BF7-2025-08-07-18-57-00","","null","","[]","null","",""
"","","","","","instructions","21","143805","0.0-7.0","5C303E45693340C0ADD2ACF2963D6BF7","5C303E45693340C0ADD2ACF2963D6BF7","bf126769-5b55-48d5-8792-913e291d0d9b","a9f3d40c-5730-405c-b25e-1034c4c56f3f","{""num_scrambled_semantic"":""8"",""num_scrambled_causal"":""4"",""num_scrambled_schematic"":""4"",""participantId"":""5C303E45693340C0ADD2ACF2963D6BF7"",""assignmentId"":""bf126769-5b55-48d5-8792-913e291d0d9b"",""projectId"":""a9f3d40c-5730-405c-b25e-1034c4c56f3f""}","https://test12345.live/?num_scrambled_semantic=8&num_scrambled_causal=4&num_scrambled_schematic=4&participantId=5C303E45693340C0ADD2ACF2963D6BF7&assignmentId=bf126769-5b55-48d5-8792-913e291d0d9b&projectId=a9f3d40c-5730-405c-b25e-1034c4c56f3f","5C303E45693340C0ADD2ACF2963D6BF7-2025-08-07-18-57-00","[{""page_index"":0,""viewing_time"":6029},{""page_index"":1,""viewing_time"":980}]","7009","","","","",""
"","","","","","html-audio-response","22","183471","0.0-8.0","5C303E45693340C0ADD2ACF2963D6BF7","5C303E45693340C0ADD2ACF2963D6BF7","bf126769-5b55-48d5-8792-913e291d0d9b","a9f3d40c-5730-405c-b25e-1034c4c56f3f","{""num_scrambled_semantic"":""8"",""num_scrambled_causal"":""4"",""num_scrambled_schematic"":""4"",""participantId"":""5C303E45693340C0ADD2ACF2963D6BF7"",""assignmentId"":""bf126769-5b55-48d5-8792-913e291d0d9b"",""projectId"":""a9f3d40c-5730-405c-b25e-1034c4c56f3f""}","https://test12345.live/?num_scrambled_semantic=8&num_scrambled_causal=4&num_scrambled_schematic=4&participantId=5C303E45693340C0ADD2ACF2963D6BF7&assignmentId=bf126769-5b55-48d5-8792-913e291d0d9b&projectId=a9f3d40c-5730-405c-b25e-1034c4c56f3f","5C303E45693340C0ADD2ACF2963D6BF7-2025-08-07-18-57-00","","18481","","[""<span style=\""color: red; font-size: 24px\""> NOW RECORDING</span><p>Please say out loud all the images you saw, as many as you can remember. The images can be said in any order.</p>""]","","1",""
"","","","","","instructions","23","184967","0.0-9.0","5C303E45693340C0ADD2ACF2963D6BF7","5C303E45693340C0ADD2ACF2963D6BF7","bf126769-5b55-48d5-8792-913e291d0d9b","a9f3d40c-5730-405c-b25e-1034c4c56f3f","{""num_scrambled_semantic"":""8"",""num_scrambled_causal"":""4"",""num_scrambled_schematic"":""4"",""participantId"":""5C303E45693340C0ADD2ACF2963D6BF7"",""assignmentId"":""bf126769-5b55-48d5-8792-913e291d0d9b"",""projectId"":""a9f3d40c-5730-405c-b25e-1034c4c56f3f""}","https://test12345.live/?num_scrambled_semantic=8&num_scrambled_causal=4&num_scrambled_schematic=4&participantId=5C303E45693340C0ADD2ACF2963D6BF7&assignmentId=bf126769-5b55-48d5-8792-913e291d0d9b&projectId=a9f3d40c-5730-405c-b25e-1034c4c56f3f","5C303E45693340C0ADD2ACF2963D6BF7-2025-08-07-18-57-00","[{""page_index"":0,""viewing_time"":1493}]","1493","","","","",""
"","","","","","image-button-response","24","190981","0.0-10.0-0.0","5C303E45693340C0ADD2ACF2963D6BF7","5C303E45693340C0ADD2ACF2963D6BF7","bf126769-5b55-48d5-8792-913e291d0d9b","a9f3d40c-5730-405c-b25e-1034c4c56f3f","{""num_scrambled_semantic"":""8"",""num_scrambled_causal"":""4"",""num_scrambled_schematic"":""4"",""participantId"":""5C303E45693340C0ADD2ACF2963D6BF7"",""assignmentId"":""bf126769-5b55-48d5-8792-913e291d0d9b"",""projectId"":""a9f3d40c-5730-405c-b25e-1034c4c56f3f""}","https://test12345.live/?num_scrambled_semantic=8&num_scrambled_causal=4&num_scrambled_schematic=4&participantId=5C303E45693340C0ADD2ACF2963D6BF7&assignmentId=bf126769-5b55-48d5-8792-913e291d0d9b&projectId=a9f3d40c-5730-405c-b25e-1034c4c56f3f","5C303E45693340C0ADD2ACF2963D6BF7-2025-08-07-18-57-00","","null","","images/causal_sequence/dog_causal/dog_causal_0.png","null","",""
"","","","","","image-button-response","25","195490","0.0-10.0-1.0-0.0","5C303E45693340C0ADD2ACF2963D6BF7","5C303E45693340C0ADD2ACF2963D6BF7","bf126769-5b55-48d5-8792-913e291d0d9b","a9f3d40c-5730-405c-b25e-1034c4c56f3f","{""num_scrambled_semantic"":""8"",""num_scrambled_causal"":""4"",""num_scrambled_schematic"":""4"",""participantId"":""5C303E45693340C0ADD2ACF2963D6BF7"",""assignmentId"":""bf126769-5b55-48d5-8792-913e291d0d9b"",""projectId"":""a9f3d40c-5730-405c-b25e-1034c4c56f3f""}","https://test12345.live/?num_scrambled_semantic=8&num_scrambled_causal=4&num_scrambled_schematic=4&participantId=5C303E45693340C0ADD2ACF2963D6BF7&assignmentId=bf126769-5b55-48d5-8792-913e291d0d9b&projectId=a9f3d40c-5730-405c-b25e-1034c4c56f3f","5C303E45693340C0ADD2ACF2963D6BF7-2025-08-07-18-57-00","","null","","images/causal_sequence/dog_causal/dog_causal_5.png","null","",""
"","","","","","image-button-response","26","198103","0.0-10.0-1.0-1.0","5C303E45693340C0ADD2ACF2963D6BF7","5C303E45693340C0ADD2ACF2963D6BF7","bf126769-5b55-48d5-8792-913e291d0d9b","a9f3d40c-5730-405c-b25e-1034c4c56f3f","{""num_scrambled_semantic"":""8"",""num_scrambled_causal"":""4"",""num_scrambled_schematic"":""4"",""participantId"":""5C303E45693340C0ADD2ACF2963D6BF7"",""assignmentId"":""bf126769-5b55-48d5-8792-913e291d0d9b"",""projectId"":""a9f3d40c-5730-405c-b25e-1034c4c56f3f""}","https://test12345.live/?num_scrambled_semantic=8&num_scrambled_causal=4&num_scrambled_schematic=4&participantId=5C303E45693340C0ADD2ACF2963D6BF7&assignmentId=bf126769-5b55-48d5-8792-913e291d0d9b&projectId=a9f3d40c-5730-405c-b25e-1034c4c56f3f","5C303E45693340C0ADD2ACF2963D6BF7-2025-08-07-18-57-00","","2613","","images/causal_sequence/dog_causal/dog_causal_5.png","0","",""
"","","","","","image-button-response","27","199910","0.0-10.0-1.0-2.0","5C303E45693340C0ADD2ACF2963D6BF7","5C303E45693340C0ADD2ACF2963D6BF7","bf126769-5b55-48d5-8792-913e291d0d9b","a9f3d40c-5730-405c-b25e-1034c4c56f3f","{""num_scrambled_semantic"":""8"",""num_scrambled_causal"":""4"",""num_scrambled_schematic"":""4"",""participantId"":""5C303E45693340C0ADD2ACF2963D6BF7"",""assignmentId"":""bf126769-5b55-48d5-8792-913e291d0d9b"",""projectId"":""a9f3d40c-5730-405c-b25e-1034c4c56f3f""}","https://test12345.live/?num_scrambled_semantic=8&num_scrambled_causal=4&num_scrambled_schematic=4&participantId=5C303E45693340C0ADD2ACF2963D6BF7&assignmentId=bf126769-5b55-48d5-8792-913e291d0d9b&projectId=a9f3d40c-5730-405c-b25e-1034c4c56f3f","5C303E45693340C0ADD2ACF2963D6BF7-2025-08-07-18-57-00","","null","","[]","null","",""
"","","","","","image-button-response","28","204423","0.0-10.0-1.0-0.1","5C303E45693340C0ADD2ACF2963D6BF7","5C303E45693340C0ADD2ACF2963D6BF7","bf126769-5b55-48d5-8792-913e291d0d9b","a9f3d40c-5730-405c-b25e-1034c4c56f3f","{""num_scrambled_semantic"":""8"",""num_scrambled_causal"":""4"",""num_scrambled_schematic"":""4"",""participantId"":""5C303E45693340C0ADD2ACF2963D6BF7"",""assignmentId"":""bf126769-5b55-48d5-8792-913e291d0d9b"",""projectId"":""a9f3d40c-5730-405c-b25e-1034c4c56f3f""}","https://test12345.live/?num_scrambled_semantic=8&num_scrambled_causal=4&num_scrambled_schematic=4&participantId=5C303E45693340C0ADD2ACF2963D6BF7&assignmentId=bf126769-5b55-48d5-8792-913e291d0d9b&projectId=a9f3d40c-5730-405c-b25e-1034c4c56f3f","5C303E45693340C0ADD2ACF2963D6BF7-2025-08-07-18-57-00","","null","","images/causal_sequence/dog_causal/dog_causal_8.png","null","",""
"","","","","","image-button-response","29","205697","0.0-10.0-1.0-1.1","5C303E45693340C0ADD2ACF2963D6BF7","5C303E45693340C0ADD2ACF2963D6BF7","bf126769-5b55-48d5-8792-913e291d0d9b","a9f3d40c-5730-405c-b25e-1034c4c56f3f","{""num_scrambled_semantic"":""8"",""num_scrambled_causal"":""4"",""num_scrambled_schematic"":""4"",""participantId"":""5C303E45693340C0ADD2ACF2963D6BF7"",""assignmentId"":""bf126769-5b55-48d5-8792-913e291d0d9b"",""projectId"":""a9f3d40c-5730-405c-b25e-1034c4c56f3f""}","https://test12345.live/?num_scrambled_semantic=8&num_scrambled_causal=4&num_scrambled_schematic=4&participantId=5C303E45693340C0ADD2ACF2963D6BF7&assignmentId=bf126769-5b55-48d5-8792-913e291d0d9b&projectId=a9f3d40c-5730-405c-b25e-1034c4c56f3f","5C303E45693340C0ADD2ACF2963D6BF7-2025-08-07-18-57-00","","1273","","images/causal_sequence/dog_causal/dog_causal_8.png","0","",""
"","","","","","image-button-response","30","207508","0.0-10.0-1.0-2.1","5C303E45693340C0ADD2ACF2963D6BF7","5C303E45693340C0ADD2ACF2963D6BF7","bf126769-5b55-48d5-8792-913e291d0d9b","a9f3d40c-5730-405c-b25e-1034c4c56f3f","{""num_scrambled_semantic"":""8"",""num_scrambled_causal"":""4"",""num_scrambled_schematic"":""4"",""participantId"":""5C303E45693340C0ADD2ACF2963D6BF7"",""assignmentId"":""bf126769-5b55-48d5-8792-913e291d0d9b"",""projectId"":""a9f3d40c-5730-405c-b25e-1034c4c56f3f""}","https://test12345.live/?num_scrambled_semantic=8&num_scrambled_causal=4&num_scrambled_schematic=4&participantId=5C303E45693340C0ADD2ACF2963D6BF7&assignmentId=bf126769-5b55-48d5-8792-913e291d0d9b&projectId=a9f3d40c-5730-405c-b25e-1034c4c56f3f","5C303E45693340C0ADD2ACF2963D6BF7-2025-08-07-18-57-00","","null","","[]","null","",""
"","","","","","image-button-response","31","212022","0.0-10.0-1.0-0.2","5C303E45693340C0ADD2ACF2963D6BF7","5C303E45693340C0ADD2ACF2963D6BF7","bf126769-5b55-48d5-8792-913e291d0d9b","a9f3d40c-5730-405c-b25e-1034c4c56f3f","{""num_scrambled_semantic"":""8"",""num_scrambled_causal"":""4"",""num_scrambled_schematic"":""4"",""participantId"":""5C303E45693340C0ADD2ACF2963D6BF7"",""assignmentId"":""bf126769-5b55-48d5-8792-913e291d0d9b"",""projectId"":""a9f3d40c-5730-405c-b25e-1034c4c56f3f""}","https://test12345.live/?num_scrambled_semantic=8&num_scrambled_causal=4&num_scrambled_schematic=4&participantId=5C303E45693340C0ADD2ACF2963D6BF7&assignmentId=bf126769-5b55-48d5-8792-913e291d0d9b&projectId=a9f3d40c-5730-405c-b25e-1034c4c56f3f","5C303E45693340C0ADD2ACF2963D6BF7-2025-08-07-18-57-00","","null","","images/causal_sequence/dog_causal/dog_causal_2.png","null","",""
"","","","","","image-button-response","32","213423","0.0-10.0-1.0-1.2","5C303E45693340C0ADD2ACF2963D6BF7","5C303E45693340C0ADD2ACF2963D6BF7","bf126769-5b55-48d5-8792-913e291d0d9b","a9f3d40c-5730-405c-b25e-1034c4c56f3f","{""num_scrambled_semantic"":""8"",""num_scrambled_causal"":""4"",""num_scrambled_schematic"":""4"",""participantId"":""5C303E45693340C0ADD2ACF2963D6BF7"",""assignmentId"":""bf126769-5b55-48d5-8792-913e291d0d9b"",""projectId"":""a9f3d40c-5730-405c-b25e-1034c4c56f3f""}","https://test12345.live/?num_scrambled_semantic=8&num_scrambled_causal=4&num_scrambled_schematic=4&participantId=5C303E45693340C0ADD2ACF2963D6BF7&assignmentId=bf126769-5b55-48d5-8792-913e291d0d9b&projectId=a9f3d40c-5730-405c-b25e-1034c4c56f3f","5C303E45693340C0ADD2ACF2963D6BF7-2025-08-07-18-57-00","","1401","","images/causal_sequence/dog_causal/dog_causal_2.png","0","",""
"","","","","","image-button-response","33","215235","0.0-10.0-1.0-2.2","5C303E45693340C0ADD2ACF2963D6BF7","5C303E45693340C0ADD2ACF2963D6BF7","bf126769-5b55-48d5-8792-913e291d0d9b","a9f3d40c-5730-405c-b25e-1034c4c56f3f","{""num_scrambled_semantic"":""8"",""num_scrambled_causal"":""4"",""num_scrambled_schematic"":""4"",""participantId"":""5C303E45693340C0ADD2ACF2963D6BF7"",""assignmentId"":""bf126769-5b55-48d5-8792-913e291d0d9b"",""projectId"":""a9f3d40c-5730-405c-b25e-1034c4c56f3f""}","https://test12345.live/?num_scrambled_semantic=8&num_scrambled_causal=4&num_scrambled_schematic=4&participantId=5C303E45693340C0ADD2ACF2963D6BF7&assignmentId=bf126769-5b55-48d5-8792-913e291d0d9b&projectId=a9f3d40c-5730-405c-b25e-1034c4c56f3f","5C303E45693340C0ADD2ACF2963D6BF7-2025-08-07-18-57-00","","null","","[]","null","",""
"","","","","","image-button-response","34","219740","0.0-10.0-1.0-0.3","5C303E45693340C0ADD2ACF2963D6BF7","5C303E45693340C0ADD2ACF2963D6BF7","bf126769-5b55-48d5-8792-913e291d0d9b","a9f3d40c-5730-405c-b25e-1034c4c56f3f","{""num_scrambled_semantic"":""8"",""num_scrambled_causal"":""4"",""num_scrambled_schematic"":""4"",""participantId"":""5C303E45693340C0ADD2ACF2963D6BF7"",""assignmentId"":""bf126769-5b55-48d5-8792-913e291d0d9b"",""projectId"":""a9f3d40c-5730-405c-b25e-1034c4c56f3f""}","https://test12345.live/?num_scrambled_semantic=8&num_scrambled_causal=4&num_scrambled_schematic=4&participantId=5C303E45693340C0ADD2ACF2963D6BF7&assignmentId=bf126769-5b55-48d5-8792-913e291d0d9b&projectId=a9f3d40c-5730-405c-b25e-1034c4c56f3f","5C303E45693340C0ADD2ACF2963D6BF7-2025-08-07-18-57-00","","null","","images/causal_sequence/dog_causal/dog_causal_7.png","null","",""
"","","","","","image-button-response","35","221011","0.0-10.0-1.0-1.3","5C303E45693340C0ADD2ACF2963D6BF7","5C303E45693340C0ADD2ACF2963D6BF7","bf126769-5b55-48d5-8792-913e291d0d9b","a9f3d40c-5730-405c-b25e-1034c4c56f3f","{""num_scrambled_semantic"":""8"",""num_scrambled_causal"":""4"",""num_scrambled_schematic"":""4"",""participantId"":""5C303E45693340C0ADD2ACF2963D6BF7"",""assignmentId"":""bf126769-5b55-48d5-8792-913e291d0d9b"",""projectId"":""a9f3d40c-5730-405c-b25e-1034c4c56f3f""}","https://test12345.live/?num_scrambled_semantic=8&num_scrambled_causal=4&num_scrambled_schematic=4&participantId=5C303E45693340C0ADD2ACF2963D6BF7&assignmentId=bf126769-5b55-48d5-8792-913e291d0d9b&projectId=a9f3d40c-5730-405c-b25e-1034c4c56f3f","5C303E45693340C0ADD2ACF2963D6BF7-2025-08-07-18-57-00","","1270","","images/causal_sequence/dog_causal/dog_causal_7.png","0","",""
"","","","","","image-button-response","36","222819","0.0-10.0-1.0-2.3","5C303E45693340C0ADD2ACF2963D6BF7","5C303E45693340C0ADD2ACF2963D6BF7","bf126769-5b55-48d5-8792-913e291d0d9b","a9f3d40c-5730-405c-b25e-1034c4c56f3f","{""num_scrambled_semantic"":""8"",""num_scrambled_causal"":""4"",""num_scrambled_schematic"":""4"",""participantId"":""5C303E45693340C0ADD2ACF2963D6BF7"",""assignmentId"":""bf126769-5b55-48d5-8792-913e291d0d9b"",""projectId"":""a9f3d40c-5730-405c-b25e-1034c4c56f3f""}","https://test12345.live/?num_scrambled_semantic=8&num_scrambled_causal=4&num_scrambled_schematic=4&participantId=5C303E45693340C0ADD2ACF2963D6BF7&assignmentId=bf126769-5b55-48d5-8792-913e291d0d9b&projectId=a9f3d40c-5730-405c-b25e-1034c4c56f3f","5C303E45693340C0ADD2ACF2963D6BF7-2025-08-07-18-57-00","","null","","[]","null","",""
"","","","","","image-button-response","37","227331","0.0-10.0-1.0-0.4","5C303E45693340C0ADD2ACF2963D6BF7","5C303E45693340C0ADD2ACF2963D6BF7","bf126769-5b55-48d5-8792-913e291d0d9b","a9f3d40c-5730-405c-b25e-1034c4c56f3f","{""num_scrambled_semantic"":""8"",""num_scrambled_causal"":""4"",""num_scrambled_schematic"":""4"",""participantId"":""5C303E45693340C0ADD2ACF2963D6BF7"",""assignmentId"":""bf126769-5b55-48d5-8792-913e291d0d9b"",""projectId"":""a9f3d40c-5730-405c-b25e-1034c4c56f3f""}","https://test12345.live/?num_scrambled_semantic=8&num_scrambled_causal=4&num_scrambled_schematic=4&participantId=5C303E45693340C0ADD2ACF2963D6BF7&assignmentId=bf126769-5b55-48d5-8792-913e291d0d9b&projectId=a9f3d40c-5730-405c-b25e-1034c4c56f3f","5C303E45693340C0ADD2ACF2963D6BF7-2025-08-07-18-57-00","","null","","images/causal_sequence/dog_causal/dog_causal_1.png","null","",""
"","","","","","image-button-response","38","228905","0.0-10.0-1.0-1.4","5C303E45693340C0ADD2ACF2963D6BF7","5C303E45693340C0ADD2ACF2963D6BF7","bf126769-5b55-48d5-8792-913e291d0d9b","a9f3d40c-5730-405c-b25e-1034c4c56f3f","{""num_scrambled_semantic"":""8"",""num_scrambled_causal"":""4"",""num_scrambled_schematic"":""4"",""participantId"":""5C303E45693340C0ADD2ACF2963D6BF7"",""assignmentId"":""bf126769-5b55-48d5-8792-913e291d0d9b"",""projectId"":""a9f3d40c-5730-405c-b25e-1034c4c56f3f""}","https://test12345.live/?num_scrambled_semantic=8&num_scrambled_causal=4&num_scrambled_schematic=4&participantId=5C303E45693340C0ADD2ACF2963D6BF7&assignmentId=bf126769-5b55-48d5-8792-913e291d0d9b&projectId=a9f3d40c-5730-405c-b25e-1034c4c56f3f","5C303E45693340C0ADD2ACF2963D6BF7-2025-08-07-18-57-00","","1573","","images/causal_sequence/dog_causal/dog_causal_1.png","0","",""
"","","","","","image-button-response","39","230719","0.0-10.0-1.0-2.4","5C303E45693340C0ADD2ACF2963D6BF7","5C303E45693340C0ADD2ACF2963D6BF7","bf126769-5b55-48d5-8792-913e291d0d9b","a9f3d40c-5730-405c-b25e-1034c4c56f3f","{""num_scrambled_semantic"":""8"",""num_scrambled_causal"":""4"",""num_scrambled_schematic"":""4"",""participantId"":""5C303E45693340C0ADD2ACF2963D6BF7"",""assignmentId"":""bf126769-5b55-48d5-8792-913e291d0d9b"",""projectId"":""a9f3d40c-5730-405c-b25e-1034c4c56f3f""}","https://test12345.live/?num_scrambled_semantic=8&num_scrambled_causal=4&num_scrambled_schematic=4&participantId=5C303E45693340C0ADD2ACF2963D6BF7&assignmentId=bf126769-5b55-48d5-8792-913e291d0d9b&projectId=a9f3d40c-5730-405c-b25e-1034c4c56f3f","5C303E45693340C0ADD2ACF2963D6BF7-2025-08-07-18-57-00","","null","","[]","null","",""
"","","","","","image-button-response","40","235231","0.0-10.0-1.0-0.5","5C303E45693340C0ADD2ACF2963D6BF7","5C303E45693340C0ADD2ACF2963D6BF7","bf126769-5b55-48d5-8792-913e291d0d9b","a9f3d40c-5730-405c-b25e-1034c4c56f3f","{""num_scrambled_semantic"":""8"",""num_scrambled_causal"":""4"",""num_scrambled_schematic"":""4"",""participantId"":""5C303E45693340C0ADD2ACF2963D6BF7"",""assignmentId"":""bf126769-5b55-48d5-8792-913e291d0d9b"",""projectId"":""a9f3d40c-5730-405c-b25e-1034c4c56f3f""}","https://test12345.live/?num_scrambled_semantic=8&num_scrambled_causal=4&num_scrambled_schematic=4&participantId=5C303E45693340C0ADD2ACF2963D6BF7&assignmentId=bf126769-5b55-48d5-8792-913e291d0d9b&projectId=a9f3d40c-5730-405c-b25e-1034c4c56f3f","5C303E45693340C0ADD2ACF2963D6BF7-2025-08-07-18-57-00","","null","","images/causal_sequence/dog_causal/dog_causal_4.png","null","",""
"","","","","","image-button-response","41","236601","0.0-10.0-1.0-1.5","5C303E45693340C0ADD2ACF2963D6BF7","5C303E45693340C0ADD2ACF2963D6BF7","bf126769-5b55-48d5-8792-913e291d0d9b","a9f3d40c-5730-405c-b25e-1034c4c56f3f","{""num_scrambled_semantic"":""8"",""num_scrambled_causal"":""4"",""num_scrambled_schematic"":""4"",""participantId"":""5C303E45693340C0ADD2ACF2963D6BF7"",""assignmentId"":""bf126769-5b55-48d5-8792-913e291d0d9b"",""projectId"":""a9f3d40c-5730-405c-b25e-1034c4c56f3f""}","https://test12345.live/?num_scrambled_semantic=8&num_scrambled_causal=4&num_scrambled_schematic=4&participantId=5C303E45693340C0ADD2ACF2963D6BF7&assignmentId=bf126769-5b55-48d5-8792-913e291d0d9b&projectId=a9f3d40c-5730-405c-b25e-1034c4c56f3f","5C303E45693340C0ADD2ACF2963D6BF7-2025-08-07-18-57-00","","1369","","images/causal_sequence/dog_causal/dog_causal_4.png","0","",""
"","","","","","image-button-response","42","238416","0.0-10.0-1.0-2.5","5C303E45693340C0ADD2ACF2963D6BF7","5C303E45693340C0ADD2ACF2963D6BF7","bf126769-5b55-48d5-8792-913e291d0d9b","a9f3d40c-5730-405c-b25e-1034c4c56f3f","{""num_scrambled_semantic"":""8"",""num_scrambled_causal"":""4"",""num_scrambled_schematic"":""4"",""participantId"":""5C303E45693340C0ADD2ACF2963D6BF7"",""assignmentId"":""bf126769-5b55-48d5-8792-913e291d0d9b"",""projectId"":""a9f3d40c-5730-405c-b25e-1034c4c56f3f""}","https://test12345.live/?num_scrambled_semantic=8&num_scrambled_causal=4&num_scrambled_schematic=4&participantId=5C303E45693340C0ADD2ACF2963D6BF7&assignmentId=bf126769-5b55-48d5-8792-913e291d0d9b&projectId=a9f3d40c-5730-405c-b25e-1034c4c56f3f","5C303E45693340C0ADD2ACF2963D6BF7-2025-08-07-18-57-00","","null","","[]","null","",""
"","","","","","image-button-response","43","242922","0.0-10.0-1.0-0.6","5C303E45693340C0ADD2ACF2963D6BF7","5C303E45693340C0ADD2ACF2963D6BF7","bf126769-5b55-48d5-8792-913e291d0d9b","a9f3d40c-5730-405c-b25e-1034c4c56f3f","{""num_scrambled_semantic"":""8"",""num_scrambled_causal"":""4"",""num_scrambled_schematic"":""4"",""participantId"":""5C303E45693340C0ADD2ACF2963D6BF7"",""assignmentId"":""bf126769-5b55-48d5-8792-913e291d0d9b"",""projectId"":""a9f3d40c-5730-405c-b25e-1034c4c56f3f""}","https://test12345.live/?num_scrambled_semantic=8&num_scrambled_causal=4&num_scrambled_schematic=4&participantId=5C303E45693340C0ADD2ACF2963D6BF7&assignmentId=bf126769-5b55-48d5-8792-913e291d0d9b&projectId=a9f3d40c-5730-405c-b25e-1034c4c56f3f","5C303E45693340C0ADD2ACF2963D6BF7-2025-08-07-18-57-00","","null","","images/causal_sequence/dog_causal/dog_causal_6.png","null","",""
"","","","","","image-button-response","44","245207","0.0-10.0-1.0-1.6","5C303E45693340C0ADD2ACF2963D6BF7","5C303E45693340C0ADD2ACF2963D6BF7","bf126769-5b55-48d5-8792-913e291d0d9b","a9f3d40c-5730-405c-b25e-1034c4c56f3f","{""num_scrambled_semantic"":""8"",""num_scrambled_causal"":""4"",""num_scrambled_schematic"":""4"",""participantId"":""5C303E45693340C0ADD2ACF2963D6BF7"",""assignmentId"":""bf126769-5b55-48d5-8792-913e291d0d9b"",""projectId"":""a9f3d40c-5730-405c-b25e-1034c4c56f3f""}","https://test12345.live/?num_scrambled_semantic=8&num_scrambled_causal=4&num_scrambled_schematic=4&participantId=5C303E45693340C0ADD2ACF2963D6BF7&assignmentId=bf126769-5b55-48d5-8792-913e291d0d9b&projectId=a9f3d40c-5730-405c-b25e-1034c4c56f3f","5C303E45693340C0ADD2ACF2963D6BF7-2025-08-07-18-57-00","","2284","","images/causal_sequence/dog_causal/dog_causal_6.png","0","",""
"","","","","","image-button-response","45","247014","0.0-10.0-1.0-2.6","5C303E45693340C0ADD2ACF2963D6BF7","5C303E45693340C0ADD2ACF2963D6BF7","bf126769-5b55-48d5-8792-913e291d0d9b","a9f3d40c-5730-405c-b25e-1034c4c56f3f","{""num_scrambled_semantic"":""8"",""num_scrambled_causal"":""4"",""num_scrambled_schematic"":""4"",""participantId"":""5C303E45693340C0ADD2ACF2963D6BF7"",""assignmentId"":""bf126769-5b55-48d5-8792-913e291d0d9b"",""projectId"":""a9f3d40c-5730-405c-b25e-1034c4c56f3f""}","https://test12345.live/?num_scrambled_semantic=8&num_scrambled_causal=4&num_scrambled_schematic=4&participantId=5C303E45693340C0ADD2ACF2963D6BF7&assignmentId=bf126769-5b55-48d5-8792-913e291d0d9b&projectId=a9f3d40c-5730-405c-b25e-1034c4c56f3f","5C303E45693340C0ADD2ACF2963D6BF7-2025-08-07-18-57-00","","null","","[]","null","",""
"","","","","","image-button-response","46","251515","0.0-10.0-1.0-0.7","5C303E45693340C0ADD2ACF2963D6BF7","5C303E45693340C0ADD2ACF2963D6BF7","bf126769-5b55-48d5-8792-913e291d0d9b","a9f3d40c-5730-405c-b25e-1034c4c56f3f","{""num_scrambled_semantic"":""8"",""num_scrambled_causal"":""4"",""num_scrambled_schematic"":""4"",""participantId"":""5C303E45693340C0ADD2ACF2963D6BF7"",""assignmentId"":""bf126769-5b55-48d5-8792-913e291d0d9b"",""projectId"":""a9f3d40c-5730-405c-b25e-1034c4c56f3f""}","https://test12345.live/?num_scrambled_semantic=8&num_scrambled_causal=4&num_scrambled_schematic=4&participantId=5C303E45693340C0ADD2ACF2963D6BF7&assignmentId=bf126769-5b55-48d5-8792-913e291d0d9b&projectId=a9f3d40c-5730-405c-b25e-1034c4c56f3f","5C303E45693340C0ADD2ACF2963D6BF7-2025-08-07-18-57-00","","null","","images/causal_sequence/dog_causal/dog_causal_3.png","null","",""
"","","","","","image-button-response","47","254197","0.0-10.0-1.0-1.7","5C303E45693340C0ADD2ACF2963D6BF7","5C303E45693340C0ADD2ACF2963D6BF7","bf126769-5b55-48d5-8792-913e291d0d9b","a9f3d40c-5730-405c-b25e-1034c4c56f3f","{""num_scrambled_semantic"":""8"",""num_scrambled_causal"":""4"",""num_scrambled_schematic"":""4"",""participantId"":""5C303E45693340C0ADD2ACF2963D6BF7"",""assignmentId"":""bf126769-5b55-48d5-8792-913e291d0d9b"",""projectId"":""a9f3d40c-5730-405c-b25e-1034c4c56f3f""}","https://test12345.live/?num_scrambled_semantic=8&num_scrambled_causal=4&num_scrambled_schematic=4&participantId=5C303E45693340C0ADD2ACF2963D6BF7&assignmentId=bf126769-5b55-48d5-8792-913e291d0d9b&projectId=a9f3d40c-5730-405c-b25e-1034c4c56f3f","5C303E45693340C0ADD2ACF2963D6BF7-2025-08-07-18-57-00","","2681","","images/causal_sequence/dog_causal/dog_causal_3.png","0","",""
"","","","","","image-button-response","48","256002","0.0-10.0-1.0-2.7","5C303E45693340C0ADD2ACF2963D6BF7","5C303E45693340C0ADD2ACF2963D6BF7","bf126769-5b55-48d5-8792-913e291d0d9b","a9f3d40c-5730-405c-b25e-1034c4c56f3f","{""num_scrambled_semantic"":""8"",""num_scrambled_causal"":""4"",""num_scrambled_schematic"":""4"",""participantId"":""5C303E45693340C0ADD2ACF2963D6BF7"",""assignmentId"":""bf126769-5b55-48d5-8792-913e291d0d9b"",""projectId"":""a9f3d40c-5730-405c-b25e-1034c4c56f3f""}","https://test12345.live/?num_scrambled_semantic=8&num_scrambled_causal=4&num_scrambled_schematic=4&participantId=5C303E45693340C0ADD2ACF2963D6BF7&assignmentId=bf126769-5b55-48d5-8792-913e291d0d9b&projectId=a9f3d40c-5730-405c-b25e-1034c4c56f3f","5C303E45693340C0ADD2ACF2963D6BF7-2025-08-07-18-57-00","","null","","[]","null","",""
"","","","","","image-button-response","49","260516","0.0-10.0-1.0-0.8","5C303E45693340C0ADD2ACF2963D6BF7","5C303E45693340C0ADD2ACF2963D6BF7","bf126769-5b55-48d5-8792-913e291d0d9b","a9f3d40c-5730-405c-b25e-1034c4c56f3f","{""num_scrambled_semantic"":""8"",""num_scrambled_causal"":""4"",""num_scrambled_schematic"":""4"",""participantId"":""5C303E45693340C0ADD2ACF2963D6BF7"",""assignmentId"":""bf126769-5b55-48d5-8792-913e291d0d9b"",""projectId"":""a9f3d40c-5730-405c-b25e-1034c4c56f3f""}","https://test12345.live/?num_scrambled_semantic=8&num_scrambled_causal=4&num_scrambled_schematic=4&participantId=5C303E45693340C0ADD2ACF2963D6BF7&assignmentId=bf126769-5b55-48d5-8792-913e291d0d9b&projectId=a9f3d40c-5730-405c-b25e-1034c4c56f3f","5C303E45693340C0ADD2ACF2963D6BF7-2025-08-07-18-57-00","","null","","images/causal_sequence/dog_causal/dog_causal_ten.png","null","",""
"","","","","","image-button-response","50","262123","0.0-10.0-1.0-1.8","5C303E45693340C0ADD2ACF2963D6BF7","5C303E45693340C0ADD2ACF2963D6BF7","bf126769-5b55-48d5-8792-913e291d0d9b","a9f3d40c-5730-405c-b25e-1034c4c56f3f","{""num_scrambled_semantic"":""8"",""num_scrambled_causal"":""4"",""num_scrambled_schematic"":""4"",""participantId"":""5C303E45693340C0ADD2ACF2963D6BF7"",""assignmentId"":""bf126769-5b55-48d5-8792-913e291d0d9b"",""projectId"":""a9f3d40c-5730-405c-b25e-1034c4c56f3f""}","https://test12345.live/?num_scrambled_semantic=8&num_scrambled_causal=4&num_scrambled_schematic=4&participantId=5C303E45693340C0ADD2ACF2963D6BF7&assignmentId=bf126769-5b55-48d5-8792-913e291d0d9b&projectId=a9f3d40c-5730-405c-b25e-1034c4c56f3f","5C303E45693340C0ADD2ACF2963D6BF7-2025-08-07-18-57-00","","1606","","images/causal_sequence/dog_causal/dog_causal_ten.png","0","",""
"","","","","","image-button-response","51","263936","0.0-10.0-1.0-2.8","5C303E45693340C0ADD2ACF2963D6BF7","5C303E45693340C0ADD2ACF2963D6BF7","bf126769-5b55-48d5-8792-913e291d0d9b","a9f3d40c-5730-405c-b25e-1034c4c56f3f","{""num_scrambled_semantic"":""8"",""num_scrambled_causal"":""4"",""num_scrambled_schematic"":""4"",""participantId"":""5C303E45693340C0ADD2ACF2963D6BF7"",""assignmentId"":""bf126769-5b55-48d5-8792-913e291d0d9b"",""projectId"":""a9f3d40c-5730-405c-b25e-1034c4c56f3f""}","https://test12345.live/?num_scrambled_semantic=8&num_scrambled_causal=4&num_scrambled_schematic=4&participantId=5C303E45693340C0ADD2ACF2963D6BF7&assignmentId=bf126769-5b55-48d5-8792-913e291d0d9b&projectId=a9f3d40c-5730-405c-b25e-1034c4c56f3f","5C303E45693340C0ADD2ACF2963D6BF7-2025-08-07-18-57-00","","null","","[]","null","",""
"","","","","","image-button-response","52","268449","0.0-10.0-1.0-0.9","5C303E45693340C0ADD2ACF2963D6BF7","5C303E45693340C0ADD2ACF2963D6BF7","bf126769-5b55-48d5-8792-913e291d0d9b","a9f3d40c-5730-405c-b25e-1034c4c56f3f","{""num_scrambled_semantic"":""8"",""num_scrambled_causal"":""4"",""num_scrambled_schematic"":""4"",""participantId"":""5C303E45693340C0ADD2ACF2963D6BF7"",""assignmentId"":""bf126769-5b55-48d5-8792-913e291d0d9b"",""projectId"":""a9f3d40c-5730-405c-b25e-1034c4c56f3f""}","https://test12345.live/?num_scrambled_semantic=8&num_scrambled_causal=4&num_scrambled_schematic=4&participantId=5C303E45693340C0ADD2ACF2963D6BF7&assignmentId=bf126769-5b55-48d5-8792-913e291d0d9b&projectId=a9f3d40c-5730-405c-b25e-1034c4c56f3f","5C303E45693340C0ADD2ACF2963D6BF7-2025-08-07-18-57-00","","null","","images/causal_sequence/dog_causal/dog_causal_9.png","null","",""
"","","","","","image-button-response","53","270507","0.0-10.0-1.0-1.9","5C303E45693340C0ADD2ACF2963D6BF7","5C303E45693340C0ADD2ACF2963D6BF7","bf126769-5b55-48d5-8792-913e291d0d9b","a9f3d40c-5730-405c-b25e-1034c4c56f3f","{""num_scrambled_semantic"":""8"",""num_scrambled_causal"":""4"",""num_scrambled_schematic"":""4"",""participantId"":""5C303E45693340C0ADD2ACF2963D6BF7"",""assignmentId"":""bf126769-5b55-48d5-8792-913e291d0d9b"",""projectId"":""a9f3d40c-5730-405c-b25e-1034c4c56f3f""}","https://test12345.live/?num_scrambled_semantic=8&num_scrambled_causal=4&num_scrambled_schematic=4&participantId=5C303E45693340C0ADD2ACF2963D6BF7&assignmentId=bf126769-5b55-48d5-8792-913e291d0d9b&projectId=a9f3d40c-5730-405c-b25e-1034c4c56f3f","5C303E45693340C0ADD2ACF2963D6BF7-2025-08-07-18-57-00","","2057","","images/causal_sequence/dog_causal/dog_causal_9.png","0","",""
"","","","","","image-button-response","54","272322","0.0-10.0-1.0-2.9","5C303E45693340C0ADD2ACF2963D6BF7","5C303E45693340C0ADD2ACF2963D6BF7","bf126769-5b55-48d5-8792-913e291d0d9b","a9f3d40c-5730-405c-b25e-1034c4c56f3f","{""num_scrambled_semantic"":""8"",""num_scrambled_causal"":""4"",""num_scrambled_schematic"":""4"",""participantId"":""5C303E45693340C0ADD2ACF2963D6BF7"",""assignmentId"":""bf126769-5b55-48d5-8792-913e291d0d9b"",""projectId"":""a9f3d40c-5730-405c-b25e-1034c4c56f3f""}","https://test12345.live/?num_scrambled_semantic=8&num_scrambled_causal=4&num_scrambled_schematic=4&participantId=5C303E45693340C0ADD2ACF2963D6BF7&assignmentId=bf126769-5b55-48d5-8792-913e291d0d9b&projectId=a9f3d40c-5730-405c-b25e-1034c4c56f3f","5C303E45693340C0ADD2ACF2963D6BF7-2025-08-07-18-57-00","","null","","[]","null","",""
"","","","","","html-audio-response","55","317035","0.0-11.0","5C303E45693340C0ADD2ACF2963D6BF7","5C303E45693340C0ADD2ACF2963D6BF7","bf126769-5b55-48d5-8792-913e291d0d9b","a9f3d40c-5730-405c-b25e-1034c4c56f3f","{""num_scrambled_semantic"":""8"",""num_scrambled_causal"":""4"",""num_scrambled_schematic"":""4"",""participantId"":""5C303E45693340C0ADD2ACF2963D6BF7"",""assignmentId"":""bf126769-5b55-48d5-8792-913e291d0d9b"",""projectId"":""a9f3d40c-5730-405c-b25e-1034c4c56f3f""}","https://test12345.live/?num_scrambled_semantic=8&num_scrambled_causal=4&num_scrambled_schematic=4&participantId=5C303E45693340C0ADD2ACF2963D6BF7&assignmentId=bf126769-5b55-48d5-8792-913e291d0d9b&projectId=a9f3d40c-5730-405c-b25e-1034c4c56f3f","5C303E45693340C0ADD2ACF2963D6BF7-2025-08-07-18-57-00","","31607","","[""<span style=\""color: red; font-size: 24px\""> NOW RECORDING</span><p>Please say out loud all the images you saw, as many as you can remember. The images can be said in any order.</p>""]","","8","dog_causal"
"","","","","","image-button-response","56","323050","0.0-12.0-0.0","5C303E45693340C0ADD2ACF2963D6BF7","5C303E45693340C0ADD2ACF2963D6BF7","bf126769-5b55-48d5-8792-913e291d0d9b","a9f3d40c-5730-405c-b25e-1034c4c56f3f","{""num_scrambled_semantic"":""8"",""num_scrambled_causal"":""4"",""num_scrambled_schematic"":""4"",""participantId"":""5C303E45693340C0ADD2ACF2963D6BF7"",""assignmentId"":""bf126769-5b55-48d5-8792-913e291d0d9b"",""projectId"":""a9f3d40c-5730-405c-b25e-1034c4c56f3f""}","https://test12345.live/?num_scrambled_semantic=8&num_scrambled_causal=4&num_scrambled_schematic=4&participantId=5C303E45693340C0ADD2ACF2963D6BF7&assignmentId=bf126769-5b55-48d5-8792-913e291d0d9b&projectId=a9f3d40c-5730-405c-b25e-1034c4c56f3f","5C303E45693340C0ADD2ACF2963D6BF7-2025-08-07-18-57-00","","null","","images/semantic_sequence/using_technology_semantic/using_technology_semantic_0.png","null","",""
"","","","","","image-button-response","57","327580","0.0-12.0-1.0-0.0","5C303E45693340C0ADD2ACF2963D6BF7","5C303E45693340C0ADD2ACF2963D6BF7","bf126769-5b55-48d5-8792-913e291d0d9b","a9f3d40c-5730-405c-b25e-1034c4c56f3f","{""num_scrambled_semantic"":""8"",""num_scrambled_causal"":""4"",""num_scrambled_schematic"":""4"",""participantId"":""5C303E45693340C0ADD2ACF2963D6BF7"",""assignmentId"":""bf126769-5b55-48d5-8792-913e291d0d9b"",""projectId"":""a9f3d40c-5730-405c-b25e-1034c4c56f3f""}","https://test12345.live/?num_scrambled_semantic=8&num_scrambled_causal=4&num_scrambled_schematic=4&participantId=5C303E45693340C0ADD2ACF2963D6BF7&assignmentId=bf126769-5b55-48d5-8792-913e291d0d9b&projectId=a9f3d40c-5730-405c-b25e-1034c4c56f3f","5C303E45693340C0ADD2ACF2963D6BF7-2025-08-07-18-57-00","","null","","images/semantic_sequence/using_technology_semantic/using_technology_semantic_7.png","null","",""
"","","","","","image-button-response","58","329151","0.0-12.0-1.0-1.0","5C303E45693340C0ADD2ACF2963D6BF7","5C303E45693340C0ADD2ACF2963D6BF7","bf126769-5b55-48d5-8792-913e291d0d9b","a9f3d40c-5730-405c-b25e-1034c4c56f3f","{""num_scrambled_semantic"":""8"",""num_scrambled_causal"":""4"",""num_scrambled_schematic"":""4"",""participantId"":""5C303E45693340C0ADD2ACF2963D6BF7"",""assignmentId"":""bf126769-5b55-48d5-8792-913e291d0d9b"",""projectId"":""a9f3d40c-5730-405c-b25e-1034c4c56f3f""}","https://test12345.live/?num_scrambled_semantic=8&num_scrambled_causal=4&num_scrambled_schematic=4&participantId=5C303E45693340C0ADD2ACF2963D6BF7&assignmentId=bf126769-5b55-48d5-8792-913e291d0d9b&projectId=a9f3d40c-5730-405c-b25e-1034c4c56f3f","5C303E45693340C0ADD2ACF2963D6BF7-2025-08-07-18-57-00","","1570","","images/semantic_sequence/using_technology_semantic/using_technology_semantic_7.png","0","",""
"","","","","","image-button-response","59","330953","0.0-12.0-1.0-2.0","5C303E45693340C0ADD2ACF2963D6BF7","5C303E45693340C0ADD2ACF2963D6BF7","bf126769-5b55-48d5-8792-913e291d0d9b","a9f3d40c-5730-405c-b25e-1034c4c56f3f","{""num_scrambled_semantic"":""8"",""num_scrambled_causal"":""4"",""num_scrambled_schematic"":""4"",""participantId"":""5C303E45693340C0ADD2ACF2963D6BF7"",""assignmentId"":""bf126769-5b55-48d5-8792-913e291d0d9b"",""projectId"":""a9f3d40c-5730-405c-b25e-1034c4c56f3f""}","https://test12345.live/?num_scrambled_semantic=8&num_scrambled_causal=4&num_scrambled_schematic=4&participantId=5C303E45693340C0ADD2ACF2963D6BF7&assignmentId=bf126769-5b55-48d5-8792-913e291d0d9b&projectId=a9f3d40c-5730-405c-b25e-1034c4c56f3f","5C303E45693340C0ADD2ACF2963D6BF7-2025-08-07-18-57-00","","null","","[]","null","",""
"","","","","","image-button-response","60","335460","0.0-12.0-1.0-0.1","5C303E45693340C0ADD2ACF2963D6BF7","5C303E45693340C0ADD2ACF2963D6BF7","bf126769-5b55-48d5-8792-913e291d0d9b","a9f3d40c-5730-405c-b25e-1034c4c56f3f","{""num_scrambled_semantic"":""8"",""num_scrambled_causal"":""4"",""num_scrambled_schematic"":""4"",""participantId"":""5C303E45693340C0ADD2ACF2963D6BF7"",""assignmentId"":""bf126769-5b55-48d5-8792-913e291d0d9b"",""projectId"":""a9f3d40c-5730-405c-b25e-1034c4c56f3f""}","https://test12345.live/?num_scrambled_semantic=8&num_scrambled_causal=4&num_scrambled_schematic=4&participantId=5C303E45693340C0ADD2ACF2963D6BF7&assignmentId=bf126769-5b55-48d5-8792-913e291d0d9b&projectId=a9f3d40c-5730-405c-b25e-1034c4c56f3f","5C303E45693340C0ADD2ACF2963D6BF7-2025-08-07-18-57-00","","null","","images/semantic_sequence/using_technology_semantic/using_technology_semantic_3.png","null","",""
"","","","","","image-button-response","61","337153","0.0-12.0-1.0-1.1","5C303E45693340C0ADD2ACF2963D6BF7","5C303E45693340C0ADD2ACF2963D6BF7","bf126769-5b55-48d5-8792-913e291d0d9b","a9f3d40c-5730-405c-b25e-1034c4c56f3f","{""num_scrambled_semantic"":""8"",""num_scrambled_causal"":""4"",""num_scrambled_schematic"":""4"",""participantId"":""5C303E45693340C0ADD2ACF2963D6BF7"",""assignmentId"":""bf126769-5b55-48d5-8792-913e291d0d9b"",""projectId"":""a9f3d40c-5730-405c-b25e-1034c4c56f3f""}","https://test12345.live/?num_scrambled_semantic=8&num_scrambled_causal=4&num_scrambled_schematic=4&participantId=5C303E45693340C0ADD2ACF2963D6BF7&assignmentId=bf126769-5b55-48d5-8792-913e291d0d9b&projectId=a9f3d40c-5730-405c-b25e-1034c4c56f3f","5C303E45693340C0ADD2ACF2963D6BF7-2025-08-07-18-57-00","","1692","","images/semantic_sequence/using_technology_semantic/using_technology_semantic_3.png","0","",""
"","","","","","image-button-response","62","338954","0.0-12.0-1.0-2.1","5C303E45693340C0ADD2ACF2963D6BF7","5C303E45693340C0ADD2ACF2963D6BF7","bf126769-5b55-48d5-8792-913e291d0d9b","a9f3d40c-5730-405c-b25e-1034c4c56f3f","{""num_scrambled_semantic"":""8"",""num_scrambled_causal"":""4"",""num_scrambled_schematic"":""4"",""participantId"":""5C303E45693340C0ADD2ACF2963D6BF7"",""assignmentId"":""bf126769-5b55-48d5-8792-913e291d0d9b"",""projectId"":""a9f3d40c-5730-405c-b25e-1034c4c56f3f""}","https://test12345.live/?num_scrambled_semantic=8&num_scrambled_causal=4&num_scrambled_schematic=4&participantId=5C303E45693340C0ADD2ACF2963D6BF7&assignmentId=bf126769-5b55-48d5-8792-913e291d0d9b&projectId=a9f3d40c-5730-405c-b25e-1034c4c56f3f","5C303E45693340C0ADD2ACF2963D6BF7-2025-08-07-18-57-00","","null","","[]","null","",""
"","","","","","image-button-response","63","343458","0.0-12.0-1.0-0.2","5C303E45693340C0ADD2ACF2963D6BF7","5C303E45693340C0ADD2ACF2963D6BF7","bf126769-5b55-48d5-8792-913e291d0d9b","a9f3d40c-5730-405c-b25e-1034c4c56f3f","{""num_scrambled_semantic"":""8"",""num_scrambled_causal"":""4"",""num_scrambled_schematic"":""4"",""participantId"":""5C303E45693340C0ADD2ACF2963D6BF7"",""assignmentId"":""bf126769-5b55-48d5-8792-913e291d0d9b"",""projectId"":""a9f3d40c-5730-405c-b25e-1034c4c56f3f""}","https://test12345.live/?num_scrambled_semantic=8&num_scrambled_causal=4&num_scrambled_schematic=4&participantId=5C303E45693340C0ADD2ACF2963D6BF7&assignmentId=bf126769-5b55-48d5-8792-913e291d0d9b&projectId=a9f3d40c-5730-405c-b25e-1034c4c56f3f","5C303E45693340C0ADD2ACF2963D6BF7-2025-08-07-18-57-00","","null","","images/semantic_sequence/using_technology_semantic/using_technology_semantic_1.png","null","",""
"","","","","","image-button-response","64","345491","0.0-12.0-1.0-1.2","5C303E45693340C0ADD2ACF2963D6BF7","5C303E45693340C0ADD2ACF2963D6BF7","bf126769-5b55-48d5-8792-913e291d0d9b","a9f3d40c-5730-405c-b25e-1034c4c56f3f","{""num_scrambled_semantic"":""8"",""num_scrambled_causal"":""4"",""num_scrambled_schematic"":""4"",""participantId"":""5C303E45693340C0ADD2ACF2963D6BF7"",""assignmentId"":""bf126769-5b55-48d5-8792-913e291d0d9b"",""projectId"":""a9f3d40c-5730-405c-b25e-1034c4c56f3f""}","https://test12345.live/?num_scrambled_semantic=8&num_scrambled_causal=4&num_scrambled_schematic=4&participantId=5C303E45693340C0ADD2ACF2963D6BF7&assignmentId=bf126769-5b55-48d5-8792-913e291d0d9b&projectId=a9f3d40c-5730-405c-b25e-1034c4c56f3f","5C303E45693340C0ADD2ACF2963D6BF7-2025-08-07-18-57-00","","2032","","images/semantic_sequence/using_technology_semantic/using_technology_semantic_1.png","0","",""
"","","","","","image-button-response","65","347300","0.0-12.0-1.0-2.2","5C303E45693340C0ADD2ACF2963D6BF7","5C303E45693340C0ADD2ACF2963D6BF7","bf126769-5b55-48d5-8792-913e291d0d9b","a9f3d40c-5730-405c-b25e-1034c4c56f3f","{""num_scrambled_semantic"":""8"",""num_scrambled_causal"":""4"",""num_scrambled_schematic"":""4"",""participantId"":""5C303E45693340C0ADD2ACF2963D6BF7"",""assignmentId"":""bf126769-5b55-48d5-8792-913e291d0d9b"",""projectId"":""a9f3d40c-5730-405c-b25e-1034c4c56f3f""}","https://test12345.live/?num_scrambled_semantic=8&num_scrambled_causal=4&num_scrambled_schematic=4&participantId=5C303E45693340C0ADD2ACF2963D6BF7&assignmentId=bf126769-5b55-48d5-8792-913e291d0d9b&projectId=a9f3d40c-5730-405c-b25e-1034c4c56f3f","5C303E45693340C0ADD2ACF2963D6BF7-2025-08-07-18-57-00","","null","","[]","null","",""
"","","","","","image-button-response","66","351814","0.0-12.0-1.0-0.3","5C303E45693340C0ADD2ACF2963D6BF7","5C303E45693340C0ADD2ACF2963D6BF7","bf126769-5b55-48d5-8792-913e291d0d9b","a9f3d40c-5730-405c-b25e-1034c4c56f3f","{""num_scrambled_semantic"":""8"",""num_scrambled_causal"":""4"",""num_scrambled_schematic"":""4"",""participantId"":""5C303E45693340C0ADD2ACF2963D6BF7"",""assignmentId"":""bf126769-5b55-48d5-8792-913e291d0d9b"",""projectId"":""a9f3d40c-5730-405c-b25e-1034c4c56f3f""}","https://test12345.live/?num_scrambled_semantic=8&num_scrambled_causal=4&num_scrambled_schematic=4&participantId=5C303E45693340C0ADD2ACF2963D6BF7&assignmentId=bf126769-5b55-48d5-8792-913e291d0d9b&projectId=a9f3d40c-5730-405c-b25e-1034c4c56f3f","5C303E45693340C0ADD2ACF2963D6BF7-2025-08-07-18-57-00","","null","","images/semantic_sequence/using_technology_semantic/using_technology_semantic_8.png","null","",""
"","","","","","image-button-response","67","352811","0.0-12.0-1.0-1.3","5C303E45693340C0ADD2ACF2963D6BF7","5C303E45693340C0ADD2ACF2963D6BF7","bf126769-5b55-48d5-8792-913e291d0d9b","a9f3d40c-5730-405c-b25e-1034c4c56f3f","{""num_scrambled_semantic"":""8"",""num_scrambled_causal"":""4"",""num_scrambled_schematic"":""4"",""participantId"":""5C303E45693340C0ADD2ACF2963D6BF7"",""assignmentId"":""bf126769-5b55-48d5-8792-913e291d0d9b"",""projectId"":""a9f3d40c-5730-405c-b25e-1034c4c56f3f""}","https://test12345.live/?num_scrambled_semantic=8&num_scrambled_causal=4&num_scrambled_schematic=4&participantId=5C303E45693340C0ADD2ACF2963D6BF7&assignmentId=bf126769-5b55-48d5-8792-913e291d0d9b&projectId=a9f3d40c-5730-405c-b25e-1034c4c56f3f","5C303E45693340C0ADD2ACF2963D6BF7-2025-08-07-18-57-00","","997","","images/semantic_sequence/using_technology_semantic/using_technology_semantic_8.png","0","",""
"","","","","","image-button-response","68","354616","0.0-12.0-1.0-2.3","5C303E45693340C0ADD2ACF2963D6BF7","5C303E45693340C0ADD2ACF2963D6BF7","bf126769-5b55-48d5-8792-913e291d0d9b","a9f3d40c-5730-405c-b25e-1034c4c56f3f","{""num_scrambled_semantic"":""8"",""num_scrambled_causal"":""4"",""num_scrambled_schematic"":""4"",""participantId"":""5C303E45693340C0ADD2ACF2963D6BF7"",""assignmentId"":""bf126769-5b55-48d5-8792-913e291d0d9b"",""projectId"":""a9f3d40c-5730-405c-b25e-1034c4c56f3f""}","https://test12345.live/?num_scrambled_semantic=8&num_scrambled_causal=4&num_scrambled_schematic=4&participantId=5C303E45693340C0ADD2ACF2963D6BF7&assignmentId=bf126769-5b55-48d5-8792-913e291d0d9b&projectId=a9f3d40c-5730-405c-b25e-1034c4c56f3f","5C303E45693340C0ADD2ACF2963D6BF7-2025-08-07-18-57-00","","null","","[]","null","",""
"","","","","","image-button-response","69","359131","0.0-12.0-1.0-0.4","5C303E45693340C0ADD2ACF2963D6BF7","5C303E45693340C0ADD2ACF2963D6BF7","bf126769-5b55-48d5-8792-913e291d0d9b","a9f3d40c-5730-405c-b25e-1034c4c56f3f","{""num_scrambled_semantic"":""8"",""num_scrambled_causal"":""4"",""num_scrambled_schematic"":""4"",""participantId"":""5C303E45693340C0ADD2ACF2963D6BF7"",""assignmentId"":""bf126769-5b55-48d5-8792-913e291d0d9b"",""projectId"":""a9f3d40c-5730-405c-b25e-1034c4c56f3f""}","https://test12345.live/?num_scrambled_semantic=8&num_scrambled_causal=4&num_scrambled_schematic=4&participantId=5C303E45693340C0ADD2ACF2963D6BF7&assignmentId=bf126769-5b55-48d5-8792-913e291d0d9b&projectId=a9f3d40c-5730-405c-b25e-1034c4c56f3f","5C303E45693340C0ADD2ACF2963D6BF7-2025-08-07-18-57-00","","null","","images/semantic_sequence/using_technology_semantic/using_technology_semantic_ten.png","null","",""
"","","","","","image-button-response","70","360229","0.0-12.0-1.0-1.4","5C303E45693340C0ADD2ACF2963D6BF7","5C303E45693340C0ADD2ACF2963D6BF7","bf126769-5b55-48d5-8792-913e291d0d9b","a9f3d40c-5730-405c-b25e-1034c4c56f3f","{""num_scrambled_semantic"":""8"",""num_scrambled_causal"":""4"",""num_scrambled_schematic"":""4"",""participantId"":""5C303E45693340C0ADD2ACF2963D6BF7"",""assignmentId"":""bf126769-5b55-48d5-8792-913e291d0d9b"",""projectId"":""a9f3d40c-5730-405c-b25e-1034c4c56f3f""}","https://test12345.live/?num_scrambled_semantic=8&num_scrambled_causal=4&num_scrambled_schematic=4&participantId=5C303E45693340C0ADD2ACF2963D6BF7&assignmentId=bf126769-5b55-48d5-8792-913e291d0d9b&projectId=a9f3d40c-5730-405c-b25e-1034c4c56f3f","5C303E45693340C0ADD2ACF2963D6BF7-2025-08-07-18-57-00","","1097","","images/semantic_sequence/using_technology_semantic/using_technology_semantic_ten.png","0","",""
"","","","","","image-button-response","71","362046","0.0-12.0-1.0-2.4","5C303E45693340C0ADD2ACF2963D6BF7","5C303E45693340C0ADD2ACF2963D6BF7","bf126769-5b55-48d5-8792-913e291d0d9b","a9f3d40c-5730-405c-b25e-1034c4c56f3f","{""num_scrambled_semantic"":""8"",""num_scrambled_causal"":""4"",""num_scrambled_schematic"":""4"",""participantId"":""5C303E45693340C0ADD2ACF2963D6BF7"",""assignmentId"":""bf126769-5b55-48d5-8792-913e291d0d9b"",""projectId"":""a9f3d40c-5730-405c-b25e-1034c4c56f3f""}","https://test12345.live/?num_scrambled_semantic=8&num_scrambled_causal=4&num_scrambled_schematic=4&participantId=5C303E45693340C0ADD2ACF2963D6BF7&assignmentId=bf126769-5b55-48d5-8792-913e291d0d9b&projectId=a9f3d40c-5730-405c-b25e-1034c4c56f3f","5C303E45693340C0ADD2ACF2963D6BF7-2025-08-07-18-57-00","","null","","[]","null","",""
"","","","","","image-button-response","72","366555","0.0-12.0-1.0-0.5","5C303E45693340C0ADD2ACF2963D6BF7","5C303E45693340C0ADD2ACF2963D6BF7","bf126769-5b55-48d5-8792-913e291d0d9b","a9f3d40c-5730-405c-b25e-1034c4c56f3f","{""num_scrambled_semantic"":""8"",""num_scrambled_causal"":""4"",""num_scrambled_schematic"":""4"",""participantId"":""5C303E45693340C0ADD2ACF2963D6BF7"",""assignmentId"":""bf126769-5b55-48d5-8792-913e291d0d9b"",""projectId"":""a9f3d40c-5730-405c-b25e-1034c4c56f3f""}","https://test12345.live/?num_scrambled_semantic=8&num_scrambled_causal=4&num_scrambled_schematic=4&participantId=5C303E45693340C0ADD2ACF2963D6BF7&assignmentId=bf126769-5b55-48d5-8792-913e291d0d9b&projectId=a9f3d40c-5730-405c-b25e-1034c4c56f3f","5C303E45693340C0ADD2ACF2963D6BF7-2025-08-07-18-57-00","","null","","images/semantic_sequence/using_technology_semantic/using_technology_semantic_5.png","null","",""
"","","","","","image-button-response","73","367049","0.0-12.0-1.0-1.5","5C303E45693340C0ADD2ACF2963D6BF7","5C303E45693340C0ADD2ACF2963D6BF7","bf126769-5b55-48d5-8792-913e291d0d9b","a9f3d40c-5730-405c-b25e-1034c4c56f3f","{""num_scrambled_semantic"":""8"",""num_scrambled_causal"":""4"",""num_scrambled_schematic"":""4"",""participantId"":""5C303E45693340C0ADD2ACF2963D6BF7"",""assignmentId"":""bf126769-5b55-48d5-8792-913e291d0d9b"",""projectId"":""a9f3d40c-5730-405c-b25e-1034c4c56f3f""}","https://test12345.live/?num_scrambled_semantic=8&num_scrambled_causal=4&num_scrambled_schematic=4&participantId=5C303E45693340C0ADD2ACF2963D6BF7&assignmentId=bf126769-5b55-48d5-8792-913e291d0d9b&projectId=a9f3d40c-5730-405c-b25e-1034c4c56f3f","5C303E45693340C0ADD2ACF2963D6BF7-2025-08-07-18-57-00","","492","","images/semantic_sequence/using_technology_semantic/using_technology_semantic_5.png","0","",""
"","","","","","image-button-response","74","368851","0.0-12.0-1.0-2.5","5C303E45693340C0ADD2ACF2963D6BF7","5C303E45693340C0ADD2ACF2963D6BF7","bf126769-5b55-48d5-8792-913e291d0d9b","a9f3d40c-5730-405c-b25e-1034c4c56f3f","{""num_scrambled_semantic"":""8"",""num_scrambled_causal"":""4"",""num_scrambled_schematic"":""4"",""participantId"":""5C303E45693340C0ADD2ACF2963D6BF7"",""assignmentId"":""bf126769-5b55-48d5-8792-913e291d0d9b"",""projectId"":""a9f3d40c-5730-405c-b25e-1034c4c56f3f""}","https://test12345.live/?num_scrambled_semantic=8&num_scrambled_causal=4&num_scrambled_schematic=4&participantId=5C303E45693340C0ADD2ACF2963D6BF7&assignmentId=bf126769-5b55-48d5-8792-913e291d0d9b&projectId=a9f3d40c-5730-405c-b25e-1034c4c56f3f","5C303E45693340C0ADD2ACF2963D6BF7-2025-08-07-18-57-00","","null","","[]","null","",""
"","","","","","image-button-response","75","373363","0.0-12.0-1.0-0.6","5C303E45693340C0ADD2ACF2963D6BF7","5C303E45693340C0ADD2ACF2963D6BF7","bf126769-5b55-48d5-8792-913e291d0d9b","a9f3d40c-5730-405c-b25e-1034c4c56f3f","{""num_scrambled_semantic"":""8"",""num_scrambled_causal"":""4"",""num_scrambled_schematic"":""4"",""participantId"":""5C303E45693340C0ADD2ACF2963D6BF7"",""assignmentId"":""bf126769-5b55-48d5-8792-913e291d0d9b"",""projectId"":""a9f3d40c-5730-405c-b25e-1034c4c56f3f""}","https://test12345.live/?num_scrambled_semantic=8&num_scrambled_causal=4&num_scrambled_schematic=4&participantId=5C303E45693340C0ADD2ACF2963D6BF7&assignmentId=bf126769-5b55-48d5-8792-913e291d0d9b&projectId=a9f3d40c-5730-405c-b25e-1034c4c56f3f","5C303E45693340C0ADD2ACF2963D6BF7-2025-08-07-18-57-00","","null","","images/semantic_sequence/using_technology_semantic/using_technology_semantic_4.png","null","",""
"","","","","","image-button-response","76","375473","0.0-12.0-1.0-1.6","5C303E45693340C0ADD2ACF2963D6BF7","5C303E45693340C0ADD2ACF2963D6BF7","bf126769-5b55-48d5-8792-913e291d0d9b","a9f3d40c-5730-405c-b25e-1034c4c56f3f","{""num_scrambled_semantic"":""8"",""num_scrambled_causal"":""4"",""num_scrambled_schematic"":""4"",""participantId"":""5C303E45693340C0ADD2ACF2963D6BF7"",""assignmentId"":""bf126769-5b55-48d5-8792-913e291d0d9b"",""projectId"":""a9f3d40c-5730-405c-b25e-1034c4c56f3f""}","https://test12345.live/?num_scrambled_semantic=8&num_scrambled_causal=4&num_scrambled_schematic=4&participantId=5C303E45693340C0ADD2ACF2963D6BF7&assignmentId=bf126769-5b55-48d5-8792-913e291d0d9b&projectId=a9f3d40c-5730-405c-b25e-1034c4c56f3f","5C303E45693340C0ADD2ACF2963D6BF7-2025-08-07-18-57-00","","2109","","images/semantic_sequence/using_technology_semantic/using_technology_semantic_4.png","0","",""
"","","","","","image-button-response","77","377280","0.0-12.0-1.0-2.6","5C303E45693340C0ADD2ACF2963D6BF7","5C303E45693340C0ADD2ACF2963D6BF7","bf126769-5b55-48d5-8792-913e291d0d9b","a9f3d40c-5730-405c-b25e-1034c4c56f3f","{""num_scrambled_semantic"":""8"",""num_scrambled_causal"":""4"",""num_scrambled_schematic"":""4"",""participantId"":""5C303E45693340C0ADD2ACF2963D6BF7"",""assignmentId"":""bf126769-5b55-48d5-8792-913e291d0d9b"",""projectId"":""a9f3d40c-5730-405c-b25e-1034c4c56f3f""}","https://test12345.live/?num_scrambled_semantic=8&num_scrambled_causal=4&num_scrambled_schematic=4&participantId=5C303E45693340C0ADD2ACF2963D6BF7&assignmentId=bf126769-5b55-48d5-8792-913e291d0d9b&projectId=a9f3d40c-5730-405c-b25e-1034c4c56f3f","5C303E45693340C0ADD2ACF2963D6BF7-2025-08-07-18-57-00","","null","","[]","null","",""
"","","","","","image-button-response","78","381786","0.0-12.0-1.0-0.7","5C303E45693340C0ADD2ACF2963D6BF7","5C303E45693340C0ADD2ACF2963D6BF7","bf126769-5b55-48d5-8792-913e291d0d9b","a9f3d40c-5730-405c-b25e-1034c4c56f3f","{""num_scrambled_semantic"":""8"",""num_scrambled_causal"":""4"",""num_scrambled_schematic"":""4"",""participantId"":""5C303E45693340C0ADD2ACF2963D6BF7"",""assignmentId"":""bf126769-5b55-48d5-8792-913e291d0d9b"",""projectId"":""a9f3d40c-5730-405c-b25e-1034c4c56f3f""}","https://test12345.live/?num_scrambled_semantic=8&num_scrambled_causal=4&num_scrambled_schematic=4&participantId=5C303E45693340C0ADD2ACF2963D6BF7&assignmentId=bf126769-5b55-48d5-8792-913e291d0d9b&projectId=a9f3d40c-5730-405c-b25e-1034c4c56f3f","5C303E45693340C0ADD2ACF2963D6BF7-2025-08-07-18-57-00","","null","","images/semantic_sequence/using_technology_semantic/using_technology_semantic_9.png","null","",""
"","","","","","image-button-response","79","382615","0.0-12.0-1.0-1.7","5C303E45693340C0ADD2ACF2963D6BF7","5C303E45693340C0ADD2ACF2963D6BF7","bf126769-5b55-48d5-8792-913e291d0d9b","a9f3d40c-5730-405c-b25e-1034c4c56f3f","{""num_scrambled_semantic"":""8"",""num_scrambled_causal"":""4"",""num_scrambled_schematic"":""4"",""participantId"":""5C303E45693340C0ADD2ACF2963D6BF7"",""assignmentId"":""bf126769-5b55-48d5-8792-913e291d0d9b"",""projectId"":""a9f3d40c-5730-405c-b25e-1034c4c56f3f""}","https://test12345.live/?num_scrambled_semantic=8&num_scrambled_causal=4&num_scrambled_schematic=4&participantId=5C303E45693340C0ADD2ACF2963D6BF7&assignmentId=bf126769-5b55-48d5-8792-913e291d0d9b&projectId=a9f3d40c-5730-405c-b25e-1034c4c56f3f","5C303E45693340C0ADD2ACF2963D6BF7-2025-08-07-18-57-00","","828","","images/semantic_sequence/using_technology_semantic/using_technology_semantic_9.png","0","",""
"","","","","","image-button-response","80","384419","0.0-12.0-1.0-2.7","5C303E45693340C0ADD2ACF2963D6BF7","5C303E45693340C0ADD2ACF2963D6BF7","bf126769-5b55-48d5-8792-913e291d0d9b","a9f3d40c-5730-405c-b25e-1034c4c56f3f","{""num_scrambled_semantic"":""8"",""num_scrambled_causal"":""4"",""num_scrambled_schematic"":""4"",""participantId"":""5C303E45693340C0ADD2ACF2963D6BF7"",""assignmentId"":""bf126769-5b55-48d5-8792-913e291d0d9b"",""projectId"":""a9f3d40c-5730-405c-b25e-1034c4c56f3f""}","https://test12345.live/?num_scrambled_semantic=8&num_scrambled_causal=4&num_scrambled_schematic=4&participantId=5C303E45693340C0ADD2ACF2963D6BF7&assignmentId=bf126769-5b55-48d5-8792-913e291d0d9b&projectId=a9f3d40c-5730-405c-b25e-1034c4c56f3f","5C303E45693340C0ADD2ACF2963D6BF7-2025-08-07-18-57-00","","null","","[]","null","",""
"","","","","","image-button-response","81","388939","0.0-12.0-1.0-0.8","5C303E45693340C0ADD2ACF2963D6BF7","5C303E45693340C0ADD2ACF2963D6BF7","bf126769-5b55-48d5-8792-913e291d0d9b","a9f3d40c-5730-405c-b25e-1034c4c56f3f","{""num_scrambled_semantic"":""8"",""num_scrambled_causal"":""4"",""num_scrambled_schematic"":""4"",""participantId"":""5C303E45693340C0ADD2ACF2963D6BF7"",""assignmentId"":""bf126769-5b55-48d5-8792-913e291d0d9b"",""projectId"":""a9f3d40c-5730-405c-b25e-1034c4c56f3f""}","https://test12345.live/?num_scrambled_semantic=8&num_scrambled_causal=4&num_scrambled_schematic=4&participantId=5C303E45693340C0ADD2ACF2963D6BF7&assignmentId=bf126769-5b55-48d5-8792-913e291d0d9b&projectId=a9f3d40c-5730-405c-b25e-1034c4c56f3f","5C303E45693340C0ADD2ACF2963D6BF7-2025-08-07-18-57-00","","null","","images/semantic_sequence/using_technology_semantic/using_technology_semantic_2.png","null","",""
"","","","","","image-button-response","82","389781","0.0-12.0-1.0-1.8","5C303E45693340C0ADD2ACF2963D6BF7","5C303E45693340C0ADD2ACF2963D6BF7","bf126769-5b55-48d5-8792-913e291d0d9b","a9f3d40c-5730-405c-b25e-1034c4c56f3f","{""num_scrambled_semantic"":""8"",""num_scrambled_causal"":""4"",""num_scrambled_schematic"":""4"",""participantId"":""5C303E45693340C0ADD2ACF2963D6BF7"",""assignmentId"":""bf126769-5b55-48d5-8792-913e291d0d9b"",""projectId"":""a9f3d40c-5730-405c-b25e-1034c4c56f3f""}","https://test12345.live/?num_scrambled_semantic=8&num_scrambled_causal=4&num_scrambled_schematic=4&participantId=5C303E45693340C0ADD2ACF2963D6BF7&assignmentId=bf126769-5b55-48d5-8792-913e291d0d9b&projectId=a9f3d40c-5730-405c-b25e-1034c4c56f3f","5C303E45693340C0ADD2ACF2963D6BF7-2025-08-07-18-57-00","","841","","images/semantic_sequence/using_technology_semantic/using_technology_semantic_2.png","0","",""
"","","","","","image-button-response","83","391589","0.0-12.0-1.0-2.8","5C303E45693340C0ADD2ACF2963D6BF7","5C303E45693340C0ADD2ACF2963D6BF7","bf126769-5b55-48d5-8792-913e291d0d9b","a9f3d40c-5730-405c-b25e-1034c4c56f3f","{""num_scrambled_semantic"":""8"",""num_scrambled_causal"":""4"",""num_scrambled_schematic"":""4"",""participantId"":""5C303E45693340C0ADD2ACF2963D6BF7"",""assignmentId"":""bf126769-5b55-48d5-8792-913e291d0d9b"",""projectId"":""a9f3d40c-5730-405c-b25e-1034c4c56f3f""}","https://test12345.live/?num_scrambled_semantic=8&num_scrambled_causal=4&num_scrambled_schematic=4&participantId=5C303E45693340C0ADD2ACF2963D6BF7&assignmentId=bf126769-5b55-48d5-8792-913e291d0d9b&projectId=a9f3d40c-5730-405c-b25e-1034c4c56f3f","5C303E45693340C0ADD2ACF2963D6BF7-2025-08-07-18-57-00","","null","","[]","null","",""
"","","","","","image-button-response","84","396101","0.0-12.0-1.0-0.9","5C303E45693340C0ADD2ACF2963D6BF7","5C303E45693340C0ADD2ACF2963D6BF7","bf126769-5b55-48d5-8792-913e291d0d9b","a9f3d40c-5730-405c-b25e-1034c4c56f3f","{""num_scrambled_semantic"":""8"",""num_scrambled_causal"":""4"",""num_scrambled_schematic"":""4"",""participantId"":""5C303E45693340C0ADD2ACF2963D6BF7"",""assignmentId"":""bf126769-5b55-48d5-8792-913e291d0d9b"",""projectId"":""a9f3d40c-5730-405c-b25e-1034c4c56f3f""}","https://test12345.live/?num_scrambled_semantic=8&num_scrambled_causal=4&num_scrambled_schematic=4&participantId=5C303E45693340C0ADD2ACF2963D6BF7&assignmentId=bf126769-5b55-48d5-8792-913e291d0d9b&projectId=a9f3d40c-5730-405c-b25e-1034c4c56f3f","5C303E45693340C0ADD2ACF2963D6BF7-2025-08-07-18-57-00","","null","","images/semantic_sequence/using_technology_semantic/using_technology_semantic_6.png","null","",""
"","","","","","image-button-response","85","397599","0.0-12.0-1.0-1.9","5C303E45693340C0ADD2ACF2963D6BF7","5C303E45693340C0ADD2ACF2963D6BF7","bf126769-5b55-48d5-8792-913e291d0d9b","a9f3d40c-5730-405c-b25e-1034c4c56f3f","{""num_scrambled_semantic"":""8"",""num_scrambled_causal"":""4"",""num_scrambled_schematic"":""4"",""participantId"":""5C303E45693340C0ADD2ACF2963D6BF7"",""assignmentId"":""bf126769-5b55-48d5-8792-913e291d0d9b"",""projectId"":""a9f3d40c-5730-405c-b25e-1034c4c56f3f""}","https://test12345.live/?num_scrambled_semantic=8&num_scrambled_causal=4&num_scrambled_schematic=4&participantId=5C303E45693340C0ADD2ACF2963D6BF7&assignmentId=bf126769-5b55-48d5-8792-913e291d0d9b&projectId=a9f3d40c-5730-405c-b25e-1034c4c56f3f","5C303E45693340C0ADD2ACF2963D6BF7-2025-08-07-18-57-00","","1497","","images/semantic_sequence/using_technology_semantic/using_technology_semantic_6.png","0","",""
"","","","","","image-button-response","86","399412","0.0-12.0-1.0-2.9","5C303E45693340C0ADD2ACF2963D6BF7","5C303E45693340C0ADD2ACF2963D6BF7","bf126769-5b55-48d5-8792-913e291d0d9b","a9f3d40c-5730-405c-b25e-1034c4c56f3f","{""num_scrambled_semantic"":""8"",""num_scrambled_causal"":""4"",""num_scrambled_schematic"":""4"",""participantId"":""5C303E45693340C0ADD2ACF2963D6BF7"",""assignmentId"":""bf126769-5b55-48d5-8792-913e291d0d9b"",""projectId"":""a9f3d40c-5730-405c-b25e-1034c4c56f3f""}","https://test12345.live/?num_scrambled_semantic=8&num_scrambled_causal=4&num_scrambled_schematic=4&participantId=5C303E45693340C0ADD2ACF2963D6BF7&assignmentId=bf126769-5b55-48d5-8792-913e291d0d9b&projectId=a9f3d40c-5730-405c-b25e-1034c4c56f3f","5C303E45693340C0ADD2ACF2963D6BF7-2025-08-07-18-57-00","","null","","[]","null","",""
"","","","","","html-audio-response","87","434021","0.0-13.0","5C303E45693340C0ADD2ACF2963D6BF7","5C303E45693340C0ADD2ACF2963D6BF7","bf126769-5b55-48d5-8792-913e291d0d9b","a9f3d40c-5730-405c-b25e-1034c4c56f3f","{""num_scrambled_semantic"":""8"",""num_scrambled_causal"":""4"",""num_scrambled_schematic"":""4"",""participantId"":""5C303E45693340C0ADD2ACF2963D6BF7"",""assignmentId"":""bf126769-5b55-48d5-8792-913e291d0d9b"",""projectId"":""a9f3d40c-5730-405c-b25e-1034c4c56f3f""}","https://test12345.live/?num_scrambled_semantic=8&num_scrambled_causal=4&num_scrambled_schematic=4&participantId=5C303E45693340C0ADD2ACF2963D6BF7&assignmentId=bf126769-5b55-48d5-8792-913e291d0d9b&projectId=a9f3d40c-5730-405c-b25e-1034c4c56f3f","5C303E45693340C0ADD2ACF2963D6BF7-2025-08-07-18-57-00","","26792","","[""<span style=\""color: red; font-size: 24px\""> NOW RECORDING</span><p>Please say out loud all the images you saw, as many as you can remember. The images can be said in any order.</p>""]","","1","using_technology_semantic"
"","","","","","image-button-response","88","440026","0.0-14.0-0.0","5C303E45693340C0ADD2ACF2963D6BF7","5C303E45693340C0ADD2ACF2963D6BF7","bf126769-5b55-48d5-8792-913e291d0d9b","a9f3d40c-5730-405c-b25e-1034c4c56f3f","{""num_scrambled_semantic"":""8"",""num_scrambled_causal"":""4"",""num_scrambled_schematic"":""4"",""participantId"":""5C303E45693340C0ADD2ACF2963D6BF7"",""assignmentId"":""bf126769-5b55-48d5-8792-913e291d0d9b"",""projectId"":""a9f3d40c-5730-405c-b25e-1034c4c56f3f""}","https://test12345.live/?num_scrambled_semantic=8&num_scrambled_causal=4&num_scrambled_schematic=4&participantId=5C303E45693340C0ADD2ACF2963D6BF7&assignmentId=bf126769-5b55-48d5-8792-913e291d0d9b&projectId=a9f3d40c-5730-405c-b25e-1034c4c56f3f","5C303E45693340C0ADD2ACF2963D6BF7-2025-08-07-18-57-00","","null","","images/semantic_sequence/self_care_activities_semantic/self_care_activities_semantic_0.png","null","",""
"","","","","","image-button-response","89","444530","0.0-14.0-1.0-0.0","5C303E45693340C0ADD2ACF2963D6BF7","5C303E45693340C0ADD2ACF2963D6BF7","bf126769-5b55-48d5-8792-913e291d0d9b","a9f3d40c-5730-405c-b25e-1034c4c56f3f","{""num_scrambled_semantic"":""8"",""num_scrambled_causal"":""4"",""num_scrambled_schematic"":""4"",""participantId"":""5C303E45693340C0ADD2ACF2963D6BF7"",""assignmentId"":""bf126769-5b55-48d5-8792-913e291d0d9b"",""projectId"":""a9f3d40c-5730-405c-b25e-1034c4c56f3f""}","https://test12345.live/?num_scrambled_semantic=8&num_scrambled_causal=4&num_scrambled_schematic=4&participantId=5C303E45693340C0ADD2ACF2963D6BF7&assignmentId=bf126769-5b55-48d5-8792-913e291d0d9b&projectId=a9f3d40c-5730-405c-b25e-1034c4c56f3f","5C303E45693340C0ADD2ACF2963D6BF7-2025-08-07-18-57-00","","null","","images/semantic_sequence/self_care_activities_semantic/self_care_activities_semantic_ten.png","null","",""
"","","","","","image-button-response","90","448423","0.0-14.0-1.0-1.0","5C303E45693340C0ADD2ACF2963D6BF7","5C303E45693340C0ADD2ACF2963D6BF7","bf126769-5b55-48d5-8792-913e291d0d9b","a9f3d40c-5730-405c-b25e-1034c4c56f3f","{""num_scrambled_semantic"":""8"",""num_scrambled_causal"":""4"",""num_scrambled_schematic"":""4"",""participantId"":""5C303E45693340C0ADD2ACF2963D6BF7"",""assignmentId"":""bf126769-5b55-48d5-8792-913e291d0d9b"",""projectId"":""a9f3d40c-5730-405c-b25e-1034c4c56f3f""}","https://test12345.live/?num_scrambled_semantic=8&num_scrambled_causal=4&num_scrambled_schematic=4&participantId=5C303E45693340C0ADD2ACF2963D6BF7&assignmentId=bf126769-5b55-48d5-8792-913e291d0d9b&projectId=a9f3d40c-5730-405c-b25e-1034c4c56f3f","5C303E45693340C0ADD2ACF2963D6BF7-2025-08-07-18-57-00","","3893","","images/semantic_sequence/self_care_activities_semantic/self_care_activities_semantic_ten.png","0","",""
"","","","","","image-button-response","91","450226","0.0-14.0-1.0-2.0","5C303E45693340C0ADD2ACF2963D6BF7","5C303E45693340C0ADD2ACF2963D6BF7","bf126769-5b55-48d5-8792-913e291d0d9b","a9f3d40c-5730-405c-b25e-1034c4c56f3f","{""num_scrambled_semantic"":""8"",""num_scrambled_causal"":""4"",""num_scrambled_schematic"":""4"",""participantId"":""5C303E45693340C0ADD2ACF2963D6BF7"",""assignmentId"":""bf126769-5b55-48d5-8792-913e291d0d9b"",""projectId"":""a9f3d40c-5730-405c-b25e-1034c4c56f3f""}","https://test12345.live/?num_scrambled_semantic=8&num_scrambled_causal=4&num_scrambled_schematic=4&participantId=5C303E45693340C0ADD2ACF2963D6BF7&assignmentId=bf126769-5b55-48d5-8792-913e291d0d9b&projectId=a9f3d40c-5730-405c-b25e-1034c4c56f3f","5C303E45693340C0ADD2ACF2963D6BF7-2025-08-07-18-57-00","","null","","[]","null","",""
"","","","","","image-button-response","92","454736","0.0-14.0-1.0-0.1","5C303E45693340C0ADD2ACF2963D6BF7","5C303E45693340C0ADD2ACF2963D6BF7","bf126769-5b55-48d5-8792-913e291d0d9b","a9f3d40c-5730-405c-b25e-1034c4c56f3f","{""num_scrambled_semantic"":""8"",""num_scrambled_causal"":""4"",""num_scrambled_schematic"":""4"",""participantId"":""5C303E45693340C0ADD2ACF2963D6BF7"",""assignmentId"":""bf126769-5b55-48d5-8792-913e291d0d9b"",""projectId"":""a9f3d40c-5730-405c-b25e-1034c4c56f3f""}","https://test12345.live/?num_scrambled_semantic=8&num_scrambled_causal=4&num_scrambled_schematic=4&participantId=5C303E45693340C0ADD2ACF2963D6BF7&assignmentId=bf126769-5b55-48d5-8792-913e291d0d9b&projectId=a9f3d40c-5730-405c-b25e-1034c4c56f3f","5C303E45693340C0ADD2ACF2963D6BF7-2025-08-07-18-57-00","","null","","images/semantic_sequence/self_care_activities_semantic/self_care_activities_semantic_3.png","null","",""
"","","","","","image-button-response","93","457657","0.0-14.0-1.0-1.1","5C303E45693340C0ADD2ACF2963D6BF7","5C303E45693340C0ADD2ACF2963D6BF7","bf126769-5b55-48d5-8792-913e291d0d9b","a9f3d40c-5730-405c-b25e-1034c4c56f3f","{""num_scrambled_semantic"":""8"",""num_scrambled_causal"":""4"",""num_scrambled_schematic"":""4"",""participantId"":""5C303E45693340C0ADD2ACF2963D6BF7"",""assignmentId"":""bf126769-5b55-48d5-8792-913e291d0d9b"",""projectId"":""a9f3d40c-5730-405c-b25e-1034c4c56f3f""}","https://test12345.live/?num_scrambled_semantic=8&num_scrambled_causal=4&num_scrambled_schematic=4&participantId=5C303E45693340C0ADD2ACF2963D6BF7&assignmentId=bf126769-5b55-48d5-8792-913e291d0d9b&projectId=a9f3d40c-5730-405c-b25e-1034c4c56f3f","5C303E45693340C0ADD2ACF2963D6BF7-2025-08-07-18-57-00","","2920","","images/semantic_sequence/self_care_activities_semantic/self_care_activities_semantic_3.png","0","",""
"","","","","","image-button-response","94","459464","0.0-14.0-1.0-2.1","5C303E45693340C0ADD2ACF2963D6BF7","5C303E45693340C0ADD2ACF2963D6BF7","bf126769-5b55-48d5-8792-913e291d0d9b","a9f3d40c-5730-405c-b25e-1034c4c56f3f","{""num_scrambled_semantic"":""8"",""num_scrambled_causal"":""4"",""num_scrambled_schematic"":""4"",""participantId"":""5C303E45693340C0ADD2ACF2963D6BF7"",""assignmentId"":""bf126769-5b55-48d5-8792-913e291d0d9b"",""projectId"":""a9f3d40c-5730-405c-b25e-1034c4c56f3f""}","https://test12345.live/?num_scrambled_semantic=8&num_scrambled_causal=4&num_scrambled_schematic=4&participantId=5C303E45693340C0ADD2ACF2963D6BF7&assignmentId=bf126769-5b55-48d5-8792-913e291d0d9b&projectId=a9f3d40c-5730-405c-b25e-1034c4c56f3f","5C303E45693340C0ADD2ACF2963D6BF7-2025-08-07-18-57-00","","null","","[]","null","",""
"","","","","","image-button-response","95","463981","0.0-14.0-1.0-0.2","5C303E45693340C0ADD2ACF2963D6BF7","5C303E45693340C0ADD2ACF2963D6BF7","bf126769-5b55-48d5-8792-913e291d0d9b","a9f3d40c-5730-405c-b25e-1034c4c56f3f","{""num_scrambled_semantic"":""8"",""num_scrambled_causal"":""4"",""num_scrambled_schematic"":""4"",""participantId"":""5C303E45693340C0ADD2ACF2963D6BF7"",""assignmentId"":""bf126769-5b55-48d5-8792-913e291d0d9b"",""projectId"":""a9f3d40c-5730-405c-b25e-1034c4c56f3f""}","https://test12345.live/?num_scrambled_semantic=8&num_scrambled_causal=4&num_scrambled_schematic=4&participantId=5C303E45693340C0ADD2ACF2963D6BF7&assignmentId=bf126769-5b55-48d5-8792-913e291d0d9b&projectId=a9f3d40c-5730-405c-b25e-1034c4c56f3f","5C303E45693340C0ADD2ACF2963D6BF7-2025-08-07-18-57-00","","null","","images/semantic_sequence/self_care_activities_semantic/self_care_activities_semantic_6.png","null","",""
"","","","","","image-button-response","96","465551","0.0-14.0-1.0-1.2","5C303E45693340C0ADD2ACF2963D6BF7","5C303E45693340C0ADD2ACF2963D6BF7","bf126769-5b55-48d5-8792-913e291d0d9b","a9f3d40c-5730-405c-b25e-1034c4c56f3f","{""num_scrambled_semantic"":""8"",""num_scrambled_causal"":""4"",""num_scrambled_schematic"":""4"",""participantId"":""5C303E45693340C0ADD2ACF2963D6BF7"",""assignmentId"":""bf126769-5b55-48d5-8792-913e291d0d9b"",""projectId"":""a9f3d40c-5730-405c-b25e-1034c4c56f3f""}","https://test12345.live/?num_scrambled_semantic=8&num_scrambled_causal=4&num_scrambled_schematic=4&participantId=5C303E45693340C0ADD2ACF2963D6BF7&assignmentId=bf126769-5b55-48d5-8792-913e291d0d9b&projectId=a9f3d40c-5730-405c-b25e-1034c4c56f3f","5C303E45693340C0ADD2ACF2963D6BF7-2025-08-07-18-57-00","","1569","","images/semantic_sequence/self_care_activities_semantic/self_care_activities_semantic_6.png","0","",""
"","","","","","image-button-response","97","467363","0.0-14.0-1.0-2.2","5C303E45693340C0ADD2ACF2963D6BF7","5C303E45693340C0ADD2ACF2963D6BF7","bf126769-5b55-48d5-8792-913e291d0d9b","a9f3d40c-5730-405c-b25e-1034c4c56f3f","{""num_scrambled_semantic"":""8"",""num_scrambled_causal"":""4"",""num_scrambled_schematic"":""4"",""participantId"":""5C303E45693340C0ADD2ACF2963D6BF7"",""assignmentId"":""bf126769-5b55-48d5-8792-913e291d0d9b"",""projectId"":""a9f3d40c-5730-405c-b25e-1034c4c56f3f""}","https://test12345.live/?num_scrambled_semantic=8&num_scrambled_causal=4&num_scrambled_schematic=4&participantId=5C303E45693340C0ADD2ACF2963D6BF7&assignmentId=bf126769-5b55-48d5-8792-913e291d0d9b&projectId=a9f3d40c-5730-405c-b25e-1034c4c56f3f","5C303E45693340C0ADD2ACF2963D6BF7-2025-08-07-18-57-00","","null","","[]","null","",""
"","","","","","image-button-response","98","471874","0.0-14.0-1.0-0.3","5C303E45693340C0ADD2ACF2963D6BF7","5C303E45693340C0ADD2ACF2963D6BF7","bf126769-5b55-48d5-8792-913e291d0d9b","a9f3d40c-5730-405c-b25e-1034c4c56f3f","{""num_scrambled_semantic"":""8"",""num_scrambled_causal"":""4"",""num_scrambled_schematic"":""4"",""participantId"":""5C303E45693340C0ADD2ACF2963D6BF7"",""assignmentId"":""bf126769-5b55-48d5-8792-913e291d0d9b"",""projectId"":""a9f3d40c-5730-405c-b25e-1034c4c56f3f""}","https://test12345.live/?num_scrambled_semantic=8&num_scrambled_causal=4&num_scrambled_schematic=4&participantId=5C303E45693340C0ADD2ACF2963D6BF7&assignmentId=bf126769-5b55-48d5-8792-913e291d0d9b&projectId=a9f3d40c-5730-405c-b25e-1034c4c56f3f","5C303E45693340C0ADD2ACF2963D6BF7-2025-08-07-18-57-00","","null","","images/semantic_sequence/self_care_activities_semantic/self_care_activities_semantic_5.png","null","",""
"","","","","","image-button-response","99","474087","0.0-14.0-1.0-1.3","5C303E45693340C0ADD2ACF2963D6BF7","5C303E45693340C0ADD2ACF2963D6BF7","bf126769-5b55-48d5-8792-913e291d0d9b","a9f3d40c-5730-405c-b25e-1034c4c56f3f","{""num_scrambled_semantic"":""8"",""num_scrambled_causal"":""4"",""num_scrambled_schematic"":""4"",""participantId"":""5C303E45693340C0ADD2ACF2963D6BF7"",""assignmentId"":""bf126769-5b55-48d5-8792-913e291d0d9b"",""projectId"":""a9f3d40c-5730-405c-b25e-1034c4c56f3f""}","https://test12345.live/?num_scrambled_semantic=8&num_scrambled_causal=4&num_scrambled_schematic=4&participantId=5C303E45693340C0ADD2ACF2963D6BF7&assignmentId=bf126769-5b55-48d5-8792-913e291d0d9b&projectId=a9f3d40c-5730-405c-b25e-1034c4c56f3f","5C303E45693340C0ADD2ACF2963D6BF7-2025-08-07-18-57-00","","2211","","images/semantic_sequence/self_care_activities_semantic/self_care_activities_semantic_5.png","0","",""
"","","","","","image-button-response","100","475890","0.0-14.0-1.0-2.3","5C303E45693340C0ADD2ACF2963D6BF7","5C303E45693340C0ADD2ACF2963D6BF7","bf126769-5b55-48d5-8792-913e291d0d9b","a9f3d40c-5730-405c-b25e-1034c4c56f3f","{""num_scrambled_semantic"":""8"",""num_scrambled_causal"":""4"",""num_scrambled_schematic"":""4"",""participantId"":""5C303E45693340C0ADD2ACF2963D6BF7"",""assignmentId"":""bf126769-5b55-48d5-8792-913e291d0d9b"",""projectId"":""a9f3d40c-5730-405c-b25e-1034c4c56f3f""}","https://test12345.live/?num_scrambled_semantic=8&num_scrambled_causal=4&num_scrambled_schematic=4&participantId=5C303E45693340C0ADD2ACF2963D6BF7&assignmentId=bf126769-5b55-48d5-8792-913e291d0d9b&projectId=a9f3d40c-5730-405c-b25e-1034c4c56f3f","5C303E45693340C0ADD2ACF2963D6BF7-2025-08-07-18-57-00","","null","","[]","null","",""
"","","","","","image-button-response","101","480393","0.0-14.0-1.0-0.4","5C303E45693340C0ADD2ACF2963D6BF7","5C303E45693340C0ADD2ACF2963D6BF7","bf126769-5b55-48d5-8792-913e291d0d9b","a9f3d40c-5730-405c-b25e-1034c4c56f3f","{""num_scrambled_semantic"":""8"",""num_scrambled_causal"":""4"",""num_scrambled_schematic"":""4"",""participantId"":""5C303E45693340C0ADD2ACF2963D6BF7"",""assignmentId"":""bf126769-5b55-48d5-8792-913e291d0d9b"",""projectId"":""a9f3d40c-5730-405c-b25e-1034c4c56f3f""}","https://test12345.live/?num_scrambled_semantic=8&num_scrambled_causal=4&num_scrambled_schematic=4&participantId=5C303E45693340C0ADD2ACF2963D6BF7&assignmentId=bf126769-5b55-48d5-8792-913e291d0d9b&projectId=a9f3d40c-5730-405c-b25e-1034c4c56f3f","5C303E45693340C0ADD2ACF2963D6BF7-2025-08-07-18-57-00","","null","","images/semantic_sequence/self_care_activities_semantic/self_care_activities_semantic_1.png","null","",""
"","","","","","image-button-response","102","481337","0.0-14.0-1.0-1.4","5C303E45693340C0ADD2ACF2963D6BF7","5C303E45693340C0ADD2ACF2963D6BF7","bf126769-5b55-48d5-8792-913e291d0d9b","a9f3d40c-5730-405c-b25e-1034c4c56f3f","{""num_scrambled_semantic"":""8"",""num_scrambled_causal"":""4"",""num_scrambled_schematic"":""4"",""participantId"":""5C303E45693340C0ADD2ACF2963D6BF7"",""assignmentId"":""bf126769-5b55-48d5-8792-913e291d0d9b"",""projectId"":""a9f3d40c-5730-405c-b25e-1034c4c56f3f""}","https://test12345.live/?num_scrambled_semantic=8&num_scrambled_causal=4&num_scrambled_schematic=4&participantId=5C303E45693340C0ADD2ACF2963D6BF7&assignmentId=bf126769-5b55-48d5-8792-913e291d0d9b&projectId=a9f3d40c-5730-405c-b25e-1034c4c56f3f","5C303E45693340C0ADD2ACF2963D6BF7-2025-08-07-18-57-00","","942","","images/semantic_sequence/self_care_activities_semantic/self_care_activities_semantic_1.png","0","",""
"","","","","","image-button-response","103","483154","0.0-14.0-1.0-2.4","5C303E45693340C0ADD2ACF2963D6BF7","5C303E45693340C0ADD2ACF2963D6BF7","bf126769-5b55-48d5-8792-913e291d0d9b","a9f3d40c-5730-405c-b25e-1034c4c56f3f","{""num_scrambled_semantic"":""8"",""num_scrambled_causal"":""4"",""num_scrambled_schematic"":""4"",""participantId"":""5C303E45693340C0ADD2ACF2963D6BF7"",""assignmentId"":""bf126769-5b55-48d5-8792-913e291d0d9b"",""projectId"":""a9f3d40c-5730-405c-b25e-1034c4c56f3f""}","https://test12345.live/?num_scrambled_semantic=8&num_scrambled_causal=4&num_scrambled_schematic=4&participantId=5C303E45693340C0ADD2ACF2963D6BF7&assignmentId=bf126769-5b55-48d5-8792-913e291d0d9b&projectId=a9f3d40c-5730-405c-b25e-1034c4c56f3f","5C303E45693340C0ADD2ACF2963D6BF7-2025-08-07-18-57-00","","null","","[]","null","",""
"","","","","","image-button-response","104","487660","0.0-14.0-1.0-0.5","5C303E45693340C0ADD2ACF2963D6BF7","5C303E45693340C0ADD2ACF2963D6BF7","bf126769-5b55-48d5-8792-913e291d0d9b","a9f3d40c-5730-405c-b25e-1034c4c56f3f","{""num_scrambled_semantic"":""8"",""num_scrambled_causal"":""4"",""num_scrambled_schematic"":""4"",""participantId"":""5C303E45693340C0ADD2ACF2963D6BF7"",""assignmentId"":""bf126769-5b55-48d5-8792-913e291d0d9b"",""projectId"":""a9f3d40c-5730-405c-b25e-1034c4c56f3f""}","https://test12345.live/?num_scrambled_semantic=8&num_scrambled_causal=4&num_scrambled_schematic=4&participantId=5C303E45693340C0ADD2ACF2963D6BF7&assignmentId=bf126769-5b55-48d5-8792-913e291d0d9b&projectId=a9f3d40c-5730-405c-b25e-1034c4c56f3f","5C303E45693340C0ADD2ACF2963D6BF7-2025-08-07-18-57-00","","null","","images/semantic_sequence/self_care_activities_semantic/self_care_activities_semantic_7.png","null","",""
"","","","","","image-button-response","105","489493","0.0-14.0-1.0-1.5","5C303E45693340C0ADD2ACF2963D6BF7","5C303E45693340C0ADD2ACF2963D6BF7","bf126769-5b55-48d5-8792-913e291d0d9b","a9f3d40c-5730-405c-b25e-1034c4c56f3f","{""num_scrambled_semantic"":""8"",""num_scrambled_causal"":""4"",""num_scrambled_schematic"":""4"",""participantId"":""5C303E45693340C0ADD2ACF2963D6BF7"",""assignmentId"":""bf126769-5b55-48d5-8792-913e291d0d9b"",""projectId"":""a9f3d40c-5730-405c-b25e-1034c4c56f3f""}","https://test12345.live/?num_scrambled_semantic=8&num_scrambled_causal=4&num_scrambled_schematic=4&participantId=5C303E45693340C0ADD2ACF2963D6BF7&assignmentId=bf126769-5b55-48d5-8792-913e291d0d9b&projectId=a9f3d40c-5730-405c-b25e-1034c4c56f3f","5C303E45693340C0ADD2ACF2963D6BF7-2025-08-07-18-57-00","","1832","","images/semantic_sequence/self_care_activities_semantic/self_care_activities_semantic_7.png","0","",""
"","","","","","image-button-response","106","491300","0.0-14.0-1.0-2.5","5C303E45693340C0ADD2ACF2963D6BF7","5C303E45693340C0ADD2ACF2963D6BF7","bf126769-5b55-48d5-8792-913e291d0d9b","a9f3d40c-5730-405c-b25e-1034c4c56f3f","{""num_scrambled_semantic"":""8"",""num_scrambled_causal"":""4"",""num_scrambled_schematic"":""4"",""participantId"":""5C303E45693340C0ADD2ACF2963D6BF7"",""assignmentId"":""bf126769-5b55-48d5-8792-913e291d0d9b"",""projectId"":""a9f3d40c-5730-405c-b25e-1034c4c56f3f""}","https://test12345.live/?num_scrambled_semantic=8&num_scrambled_causal=4&num_scrambled_schematic=4&participantId=5C303E45693340C0ADD2ACF2963D6BF7&assignmentId=bf126769-5b55-48d5-8792-913e291d0d9b&projectId=a9f3d40c-5730-405c-b25e-1034c4c56f3f","5C303E45693340C0ADD2ACF2963D6BF7-2025-08-07-18-57-00","","null","","[]","null","",""
"","","","","","image-button-response","107","495811","0.0-14.0-1.0-0.6","5C303E45693340C0ADD2ACF2963D6BF7","5C303E45693340C0ADD2ACF2963D6BF7","bf126769-5b55-48d5-8792-913e291d0d9b","a9f3d40c-5730-405c-b25e-1034c4c56f3f","{""num_scrambled_semantic"":""8"",""num_scrambled_causal"":""4"",""num_scrambled_schematic"":""4"",""participantId"":""5C303E45693340C0ADD2ACF2963D6BF7"",""assignmentId"":""bf126769-5b55-48d5-8792-913e291d0d9b"",""projectId"":""a9f3d40c-5730-405c-b25e-1034c4c56f3f""}","https://test12345.live/?num_scrambled_semantic=8&num_scrambled_causal=4&num_scrambled_schematic=4&participantId=5C303E45693340C0ADD2ACF2963D6BF7&assignmentId=bf126769-5b55-48d5-8792-913e291d0d9b&projectId=a9f3d40c-5730-405c-b25e-1034c4c56f3f","5C303E45693340C0ADD2ACF2963D6BF7-2025-08-07-18-57-00","","null","","images/semantic_sequence/self_care_activities_semantic/self_care_activities_semantic_9.png","null","",""
"","","","","","image-button-response","108","496551","0.0-14.0-1.0-1.6","5C303E45693340C0ADD2ACF2963D6BF7","5C303E45693340C0ADD2ACF2963D6BF7","bf126769-5b55-48d5-8792-913e291d0d9b","a9f3d40c-5730-405c-b25e-1034c4c56f3f","{""num_scrambled_semantic"":""8"",""num_scrambled_causal"":""4"",""num_scrambled_schematic"":""4"",""participantId"":""5C303E45693340C0ADD2ACF2963D6BF7"",""assignmentId"":""bf126769-5b55-48d5-8792-913e291d0d9b"",""projectId"":""a9f3d40c-5730-405c-b25e-1034c4c56f3f""}","https://test12345.live/?num_scrambled_semantic=8&num_scrambled_causal=4&num_scrambled_schematic=4&participantId=5C303E45693340C0ADD2ACF2963D6BF7&assignmentId=bf126769-5b55-48d5-8792-913e291d0d9b&projectId=a9f3d40c-5730-405c-b25e-1034c4c56f3f","5C303E45693340C0ADD2ACF2963D6BF7-2025-08-07-18-57-00","","739","","images/semantic_sequence/self_care_activities_semantic/self_care_activities_semantic_9.png","0","",""
"","","","","","image-button-response","109","498361","0.0-14.0-1.0-2.6","5C303E45693340C0ADD2ACF2963D6BF7","5C303E45693340C0ADD2ACF2963D6BF7","bf126769-5b55-48d5-8792-913e291d0d9b","a9f3d40c-5730-405c-b25e-1034c4c56f3f","{""num_scrambled_semantic"":""8"",""num_scrambled_causal"":""4"",""num_scrambled_schematic"":""4"",""participantId"":""5C303E45693340C0ADD2ACF2963D6BF7"",""assignmentId"":""bf126769-5b55-48d5-8792-913e291d0d9b"",""projectId"":""a9f3d40c-5730-405c-b25e-1034c4c56f3f""}","https://test12345.live/?num_scrambled_semantic=8&num_scrambled_causal=4&num_scrambled_schematic=4&participantId=5C303E45693340C0ADD2ACF2963D6BF7&assignmentId=bf126769-5b55-48d5-8792-913e291d0d9b&projectId=a9f3d40c-5730-405c-b25e-1034c4c56f3f","5C303E45693340C0ADD2ACF2963D6BF7-2025-08-07-18-57-00","","null","","[]","null","",""
"","","","","","image-button-response","110","502877","0.0-14.0-1.0-0.7","5C303E45693340C0ADD2ACF2963D6BF7","5C303E45693340C0ADD2ACF2963D6BF7","bf126769-5b55-48d5-8792-913e291d0d9b","a9f3d40c-5730-405c-b25e-1034c4c56f3f","{""num_scrambled_semantic"":""8"",""num_scrambled_causal"":""4"",""num_scrambled_schematic"":""4"",""participantId"":""5C303E45693340C0ADD2ACF2963D6BF7"",""assignmentId"":""bf126769-5b55-48d5-8792-913e291d0d9b"",""projectId"":""a9f3d40c-5730-405c-b25e-1034c4c56f3f""}","https://test12345.live/?num_scrambled_semantic=8&num_scrambled_causal=4&num_scrambled_schematic=4&participantId=5C303E45693340C0ADD2ACF2963D6BF7&assignmentId=bf126769-5b55-48d5-8792-913e291d0d9b&projectId=a9f3d40c-5730-405c-b25e-1034c4c56f3f","5C303E45693340C0ADD2ACF2963D6BF7-2025-08-07-18-57-00","","null","","images/semantic_sequence/self_care_activities_semantic/self_care_activities_semantic_8.png","null","",""
"","","","","","image-button-response","111","505167","0.0-14.0-1.0-1.7","5C303E45693340C0ADD2ACF2963D6BF7","5C303E45693340C0ADD2ACF2963D6BF7","bf126769-5b55-48d5-8792-913e291d0d9b","a9f3d40c-5730-405c-b25e-1034c4c56f3f","{""num_scrambled_semantic"":""8"",""num_scrambled_causal"":""4"",""num_scrambled_schematic"":""4"",""participantId"":""5C303E45693340C0ADD2ACF2963D6BF7"",""assignmentId"":""bf126769-5b55-48d5-8792-913e291d0d9b"",""projectId"":""a9f3d40c-5730-405c-b25e-1034c4c56f3f""}","https://test12345.live/?num_scrambled_semantic=8&num_scrambled_causal=4&num_scrambled_schematic=4&participantId=5C303E45693340C0ADD2ACF2963D6BF7&assignmentId=bf126769-5b55-48d5-8792-913e291d0d9b&projectId=a9f3d40c-5730-405c-b25e-1034c4c56f3f","5C303E45693340C0ADD2ACF2963D6BF7-2025-08-07-18-57-00","","2289","","images/semantic_sequence/self_care_activities_semantic/self_care_activities_semantic_8.png","0","",""
"","","","","","image-button-response","112","506975","0.0-14.0-1.0-2.7","5C303E45693340C0ADD2ACF2963D6BF7","5C303E45693340C0ADD2ACF2963D6BF7","bf126769-5b55-48d5-8792-913e291d0d9b","a9f3d40c-5730-405c-b25e-1034c4c56f3f","{""num_scrambled_semantic"":""8"",""num_scrambled_causal"":""4"",""num_scrambled_schematic"":""4"",""participantId"":""5C303E45693340C0ADD2ACF2963D6BF7"",""assignmentId"":""bf126769-5b55-48d5-8792-913e291d0d9b"",""projectId"":""a9f3d40c-5730-405c-b25e-1034c4c56f3f""}","https://test12345.live/?num_scrambled_semantic=8&num_scrambled_causal=4&num_scrambled_schematic=4&participantId=5C303E45693340C0ADD2ACF2963D6BF7&assignmentId=bf126769-5b55-48d5-8792-913e291d0d9b&projectId=a9f3d40c-5730-405c-b25e-1034c4c56f3f","5C303E45693340C0ADD2ACF2963D6BF7-2025-08-07-18-57-00","","null","","[]","null","",""
"","","","","","image-button-response","113","511482","0.0-14.0-1.0-0.8","5C303E45693340C0ADD2ACF2963D6BF7","5C303E45693340C0ADD2ACF2963D6BF7","bf126769-5b55-48d5-8792-913e291d0d9b","a9f3d40c-5730-405c-b25e-1034c4c56f3f","{""num_scrambled_semantic"":""8"",""num_scrambled_causal"":""4"",""num_scrambled_schematic"":""4"",""participantId"":""5C303E45693340C0ADD2ACF2963D6BF7"",""assignmentId"":""bf126769-5b55-48d5-8792-913e291d0d9b"",""projectId"":""a9f3d40c-5730-405c-b25e-1034c4c56f3f""}","https://test12345.live/?num_scrambled_semantic=8&num_scrambled_causal=4&num_scrambled_schematic=4&participantId=5C303E45693340C0ADD2ACF2963D6BF7&assignmentId=bf126769-5b55-48d5-8792-913e291d0d9b&projectId=a9f3d40c-5730-405c-b25e-1034c4c56f3f","5C303E45693340C0ADD2ACF2963D6BF7-2025-08-07-18-57-00","","null","","images/semantic_sequence/self_care_activities_semantic/self_care_activities_semantic_2.png","null","",""
