"success","timeout","failed_images","failed_audio","failed_video","trial_type","trial_index","time_elapsed","internal_node_id","subject","subject_id","study_id","session_id","urlvar","current_url","audio_id","view_history","rt","device_id","stimulus","response","estimated_stimulus_onset","seq_name"
"true","false","[]","[]","[]","preload","0","18126","0.0-0.0","5C598EC41BCB461B95A75E8D255C46C8","5C598EC41BCB461B95A75E8D255C46C8","77561901-afa2-4d78-86dc-d4fbc074c95f","051c06f1-75cc-4548-856d-4923ddaba0dc","{""num_scrambled_semantic"":""8"",""num_scrambled_causal"":""4"",""num_scrambled_schematic"":""4"",""participantId"":""5C598EC41BCB461B95A75E8D255C46C8"",""assignmentId"":""77561901-afa2-4d78-86dc-d4fbc074c95f"",""projectId"":""051c06f1-75cc-4548-856d-4923ddaba0dc""}","https://test12345.live/?num_scrambled_semantic=8&num_scrambled_causal=4&num_scrambled_schematic=4&participantId=5C598EC41BCB461B95A75E8D255C46C8&assignmentId=77561901-afa2-4d78-86dc-d4fbc074c95f&projectId=051c06f1-75cc-4548-856d-4923ddaba0dc","5C598EC41BCB461B95A75E8D255C46C8-2025-05-15-19-17-58","","","","","","",""
"","","","","","instructions","1","74360","0.0-1.0","5C598EC41BCB461B95A75E8D255C46C8","5C598EC41BCB461B95A75E8D255C46C8","77561901-afa2-4d78-86dc-d4fbc074c95f","051c06f1-75cc-4548-856d-4923ddaba0dc","{""num_scrambled_semantic"":""8"",""num_scrambled_causal"":""4"",""num_scrambled_schematic"":""4"",""participantId"":""5C598EC41BCB461B95A75E8D255C46C8"",""assignmentId"":""77561901-afa2-4d78-86dc-d4fbc074c95f"",""projectId"":""051c06f1-75cc-4548-856d-4923ddaba0dc""}","https://test12345.live/?num_scrambled_semantic=8&num_scrambled_causal=4&num_scrambled_schematic=4&participantId=5C598EC41BCB461B95A75E8D255C46C8&assignmentId=77561901-afa2-4d78-86dc-d4fbc074c95f&projectId=051c06f1-75cc-4548-856d-4923ddaba0dc","5C598EC41BCB461B95A75E8D255C46C8-2025-05-15-19-17-58","[{""page_index"":0,""viewing_time"":56233}]","56233","","","","",""
"","","","","","instructions","2","99797","0.0-2.0","5C598EC41BCB461B95A75E8D255C46C8","5C598EC41BCB461B95A75E8D255C46C8","77561901-afa2-4d78-86dc-d4fbc074c95f","051c06f1-75cc-4548-856d-4923ddaba0dc","{""num_scrambled_semantic"":""8"",""num_scrambled_causal"":""4"",""num_scrambled_schematic"":""4"",""participantId"":""5C598EC41BCB461B95A75E8D255C46C8"",""assignmentId"":""77561901-afa2-4d78-86dc-d4fbc074c95f"",""projectId"":""051c06f1-75cc-4548-856d-4923ddaba0dc""}","https://test12345.live/?num_scrambled_semantic=8&num_scrambled_causal=4&num_scrambled_schematic=4&participantId=5C598EC41BCB461B95A75E8D255C46C8&assignmentId=77561901-afa2-4d78-86dc-d4fbc074c95f&projectId=051c06f1-75cc-4548-856d-4923ddaba0dc","5C598EC41BCB461B95A75E8D255C46C8-2025-05-15-19-17-58","[{""page_index"":0,""viewing_time"":25437}]","25437","","","","",""
"true","","","","","fullscreen","3","119405","0.0-3.0","5C598EC41BCB461B95A75E8D255C46C8","5C598EC41BCB461B95A75E8D255C46C8","77561901-afa2-4d78-86dc-d4fbc074c95f","051c06f1-75cc-4548-856d-4923ddaba0dc","{""num_scrambled_semantic"":""8"",""num_scrambled_causal"":""4"",""num_scrambled_schematic"":""4"",""participantId"":""5C598EC41BCB461B95A75E8D255C46C8"",""assignmentId"":""77561901-afa2-4d78-86dc-d4fbc074c95f"",""projectId"":""051c06f1-75cc-4548-856d-4923ddaba0dc""}","https://test12345.live/?num_scrambled_semantic=8&num_scrambled_causal=4&num_scrambled_schematic=4&participantId=5C598EC41BCB461B95A75E8D255C46C8&assignmentId=77561901-afa2-4d78-86dc-d4fbc074c95f&projectId=051c06f1-75cc-4548-856d-4923ddaba0dc","5C598EC41BCB461B95A75E8D255C46C8-2025-05-15-19-17-58","","18600","","","","",""
"","","","","","initialize-microphone","4","124612","0.0-4.0-0.0","5C598EC41BCB461B95A75E8D255C46C8","5C598EC41BCB461B95A75E8D255C46C8","77561901-afa2-4d78-86dc-d4fbc074c95f","051c06f1-75cc-4548-856d-4923ddaba0dc","{""num_scrambled_semantic"":""8"",""num_scrambled_causal"":""4"",""num_scrambled_schematic"":""4"",""participantId"":""5C598EC41BCB461B95A75E8D255C46C8"",""assignmentId"":""77561901-afa2-4d78-86dc-d4fbc074c95f"",""projectId"":""051c06f1-75cc-4548-856d-4923ddaba0dc""}","https://test12345.live/?num_scrambled_semantic=8&num_scrambled_causal=4&num_scrambled_schematic=4&participantId=5C598EC41BCB461B95A75E8D255C46C8&assignmentId=77561901-afa2-4d78-86dc-d4fbc074c95f&projectId=051c06f1-75cc-4548-856d-4923ddaba0dc","5C598EC41BCB461B95A75E8D255C46C8-2025-05-15-19-17-58","","","1b802214110328d9680ee27780b6469bf02c996bcf33a02f5f4574f4124994fc","","","",""
"","","","","","html-audio-response","5","141206","0.0-4.0-1.0","5C598EC41BCB461B95A75E8D255C46C8","5C598EC41BCB461B95A75E8D255C46C8","77561901-afa2-4d78-86dc-d4fbc074c95f","051c06f1-75cc-4548-856d-4923ddaba0dc","{""num_scrambled_semantic"":""8"",""num_scrambled_causal"":""4"",""num_scrambled_schematic"":""4"",""participantId"":""5C598EC41BCB461B95A75E8D255C46C8"",""assignmentId"":""77561901-afa2-4d78-86dc-d4fbc074c95f"",""projectId"":""051c06f1-75cc-4548-856d-4923ddaba0dc""}","https://test12345.live/?num_scrambled_semantic=8&num_scrambled_causal=4&num_scrambled_schematic=4&participantId=5C598EC41BCB461B95A75E8D255C46C8&assignmentId=77561901-afa2-4d78-86dc-d4fbc074c95f&projectId=051c06f1-75cc-4548-856d-4923ddaba0dc","5C598EC41BCB461B95A75E8D255C46C8-2025-05-15-19-17-58","","6639","","<span style=""color: red; font-size: 24px""> NOW RECORDING</span>
        <p>Please test Microphone</p>","","2",""
"","","","","","html-button-response","6","143316","0.0-4.0-2.0","5C598EC41BCB461B95A75E8D255C46C8","5C598EC41BCB461B95A75E8D255C46C8","77561901-afa2-4d78-86dc-d4fbc074c95f","051c06f1-75cc-4548-856d-4923ddaba0dc","{""num_scrambled_semantic"":""8"",""num_scrambled_causal"":""4"",""num_scrambled_schematic"":""4"",""participantId"":""5C598EC41BCB461B95A75E8D255C46C8"",""assignmentId"":""77561901-afa2-4d78-86dc-d4fbc074c95f"",""projectId"":""051c06f1-75cc-4548-856d-4923ddaba0dc""}","https://test12345.live/?num_scrambled_semantic=8&num_scrambled_causal=4&num_scrambled_schematic=4&participantId=5C598EC41BCB461B95A75E8D255C46C8&assignmentId=77561901-afa2-4d78-86dc-d4fbc074c95f&projectId=051c06f1-75cc-4548-856d-4923ddaba0dc","5C598EC41BCB461B95A75E8D255C46C8-2025-05-15-19-17-58","","2110","","<p style=""font-size:48px; color:red;"">Is Microphone OK?</p>","1","",""
"","","","","","instructions","7","160148","0.0-5.0","5C598EC41BCB461B95A75E8D255C46C8","5C598EC41BCB461B95A75E8D255C46C8","77561901-afa2-4d78-86dc-d4fbc074c95f","051c06f1-75cc-4548-856d-4923ddaba0dc","{""num_scrambled_semantic"":""8"",""num_scrambled_causal"":""4"",""num_scrambled_schematic"":""4"",""participantId"":""5C598EC41BCB461B95A75E8D255C46C8"",""assignmentId"":""77561901-afa2-4d78-86dc-d4fbc074c95f"",""projectId"":""051c06f1-75cc-4548-856d-4923ddaba0dc""}","https://test12345.live/?num_scrambled_semantic=8&num_scrambled_causal=4&num_scrambled_schematic=4&participantId=5C598EC41BCB461B95A75E8D255C46C8&assignmentId=77561901-afa2-4d78-86dc-d4fbc074c95f&projectId=051c06f1-75cc-4548-856d-4923ddaba0dc","5C598EC41BCB461B95A75E8D255C46C8-2025-05-15-19-17-58","[{""page_index"":0,""viewing_time"":5253},{""page_index"":1,""viewing_time"":11579}]","16832","","","","",""
"","","","","","image-button-response","8","166153","0.0-6.0-0.0","5C598EC41BCB461B95A75E8D255C46C8","5C598EC41BCB461B95A75E8D255C46C8","77561901-afa2-4d78-86dc-d4fbc074c95f","051c06f1-75cc-4548-856d-4923ddaba0dc","{""num_scrambled_semantic"":""8"",""num_scrambled_causal"":""4"",""num_scrambled_schematic"":""4"",""participantId"":""5C598EC41BCB461B95A75E8D255C46C8"",""assignmentId"":""77561901-afa2-4d78-86dc-d4fbc074c95f"",""projectId"":""051c06f1-75cc-4548-856d-4923ddaba0dc""}","https://test12345.live/?num_scrambled_semantic=8&num_scrambled_causal=4&num_scrambled_schematic=4&participantId=5C598EC41BCB461B95A75E8D255C46C8&assignmentId=77561901-afa2-4d78-86dc-d4fbc074c95f&projectId=051c06f1-75cc-4548-856d-4923ddaba0dc","5C598EC41BCB461B95A75E8D255C46C8-2025-05-15-19-17-58","","null","","images/instructions/movie_0.png","null","",""
"","","","","","image-button-response","9","170663","0.0-6.0-1.0-0.0","5C598EC41BCB461B95A75E8D255C46C8","5C598EC41BCB461B95A75E8D255C46C8","77561901-afa2-4d78-86dc-d4fbc074c95f","051c06f1-75cc-4548-856d-4923ddaba0dc","{""num_scrambled_semantic"":""8"",""num_scrambled_causal"":""4"",""num_scrambled_schematic"":""4"",""participantId"":""5C598EC41BCB461B95A75E8D255C46C8"",""assignmentId"":""77561901-afa2-4d78-86dc-d4fbc074c95f"",""projectId"":""051c06f1-75cc-4548-856d-4923ddaba0dc""}","https://test12345.live/?num_scrambled_semantic=8&num_scrambled_causal=4&num_scrambled_schematic=4&participantId=5C598EC41BCB461B95A75E8D255C46C8&assignmentId=77561901-afa2-4d78-86dc-d4fbc074c95f&projectId=051c06f1-75cc-4548-856d-4923ddaba0dc","5C598EC41BCB461B95A75E8D255C46C8-2025-05-15-19-17-58","","null","","images/instructions/movie_1.png","null","",""
"","","","","","image-button-response","10","174671","0.0-6.0-1.0-1.0","5C598EC41BCB461B95A75E8D255C46C8","5C598EC41BCB461B95A75E8D255C46C8","77561901-afa2-4d78-86dc-d4fbc074c95f","051c06f1-75cc-4548-856d-4923ddaba0dc","{""num_scrambled_semantic"":""8"",""num_scrambled_causal"":""4"",""num_scrambled_schematic"":""4"",""participantId"":""5C598EC41BCB461B95A75E8D255C46C8"",""assignmentId"":""77561901-afa2-4d78-86dc-d4fbc074c95f"",""projectId"":""051c06f1-75cc-4548-856d-4923ddaba0dc""}","https://test12345.live/?num_scrambled_semantic=8&num_scrambled_causal=4&num_scrambled_schematic=4&participantId=5C598EC41BCB461B95A75E8D255C46C8&assignmentId=77561901-afa2-4d78-86dc-d4fbc074c95f&projectId=051c06f1-75cc-4548-856d-4923ddaba0dc","5C598EC41BCB461B95A75E8D255C46C8-2025-05-15-19-17-58","","null","","images/instructions/movie_1.png","null","",""
"","","","","","image-button-response","11","176487","0.0-6.0-1.0-2.0","5C598EC41BCB461B95A75E8D255C46C8","5C598EC41BCB461B95A75E8D255C46C8","77561901-afa2-4d78-86dc-d4fbc074c95f","051c06f1-75cc-4548-856d-4923ddaba0dc","{""num_scrambled_semantic"":""8"",""num_scrambled_causal"":""4"",""num_scrambled_schematic"":""4"",""participantId"":""5C598EC41BCB461B95A75E8D255C46C8"",""assignmentId"":""77561901-afa2-4d78-86dc-d4fbc074c95f"",""projectId"":""051c06f1-75cc-4548-856d-4923ddaba0dc""}","https://test12345.live/?num_scrambled_semantic=8&num_scrambled_causal=4&num_scrambled_schematic=4&participantId=5C598EC41BCB461B95A75E8D255C46C8&assignmentId=77561901-afa2-4d78-86dc-d4fbc074c95f&projectId=051c06f1-75cc-4548-856d-4923ddaba0dc","5C598EC41BCB461B95A75E8D255C46C8-2025-05-15-19-17-58","","null","","[]","null","",""
"","","","","","image-button-response","12","181001","0.0-6.0-1.0-0.1","5C598EC41BCB461B95A75E8D255C46C8","5C598EC41BCB461B95A75E8D255C46C8","77561901-afa2-4d78-86dc-d4fbc074c95f","051c06f1-75cc-4548-856d-4923ddaba0dc","{""num_scrambled_semantic"":""8"",""num_scrambled_causal"":""4"",""num_scrambled_schematic"":""4"",""participantId"":""5C598EC41BCB461B95A75E8D255C46C8"",""assignmentId"":""77561901-afa2-4d78-86dc-d4fbc074c95f"",""projectId"":""051c06f1-75cc-4548-856d-4923ddaba0dc""}","https://test12345.live/?num_scrambled_semantic=8&num_scrambled_causal=4&num_scrambled_schematic=4&participantId=5C598EC41BCB461B95A75E8D255C46C8&assignmentId=77561901-afa2-4d78-86dc-d4fbc074c95f&projectId=051c06f1-75cc-4548-856d-4923ddaba0dc","5C598EC41BCB461B95A75E8D255C46C8-2025-05-15-19-17-58","","null","","images/instructions/movie_2.png","null","",""
"","","","","","image-button-response","13","183957","0.0-6.0-1.0-1.1","5C598EC41BCB461B95A75E8D255C46C8","5C598EC41BCB461B95A75E8D255C46C8","77561901-afa2-4d78-86dc-d4fbc074c95f","051c06f1-75cc-4548-856d-4923ddaba0dc","{""num_scrambled_semantic"":""8"",""num_scrambled_causal"":""4"",""num_scrambled_schematic"":""4"",""participantId"":""5C598EC41BCB461B95A75E8D255C46C8"",""assignmentId"":""77561901-afa2-4d78-86dc-d4fbc074c95f"",""projectId"":""051c06f1-75cc-4548-856d-4923ddaba0dc""}","https://test12345.live/?num_scrambled_semantic=8&num_scrambled_causal=4&num_scrambled_schematic=4&participantId=5C598EC41BCB461B95A75E8D255C46C8&assignmentId=77561901-afa2-4d78-86dc-d4fbc074c95f&projectId=051c06f1-75cc-4548-856d-4923ddaba0dc","5C598EC41BCB461B95A75E8D255C46C8-2025-05-15-19-17-58","","2956","","images/instructions/movie_2.png","0","",""
"","","","","","image-button-response","14","185768","0.0-6.0-1.0-2.1","5C598EC41BCB461B95A75E8D255C46C8","5C598EC41BCB461B95A75E8D255C46C8","77561901-afa2-4d78-86dc-d4fbc074c95f","051c06f1-75cc-4548-856d-4923ddaba0dc","{""num_scrambled_semantic"":""8"",""num_scrambled_causal"":""4"",""num_scrambled_schematic"":""4"",""participantId"":""5C598EC41BCB461B95A75E8D255C46C8"",""assignmentId"":""77561901-afa2-4d78-86dc-d4fbc074c95f"",""projectId"":""051c06f1-75cc-4548-856d-4923ddaba0dc""}","https://test12345.live/?num_scrambled_semantic=8&num_scrambled_causal=4&num_scrambled_schematic=4&participantId=5C598EC41BCB461B95A75E8D255C46C8&assignmentId=77561901-afa2-4d78-86dc-d4fbc074c95f&projectId=051c06f1-75cc-4548-856d-4923ddaba0dc","5C598EC41BCB461B95A75E8D255C46C8-2025-05-15-19-17-58","","null","","[]","null","",""
"","","","","","image-button-response","15","190279","0.0-6.0-1.0-0.2","5C598EC41BCB461B95A75E8D255C46C8","5C598EC41BCB461B95A75E8D255C46C8","77561901-afa2-4d78-86dc-d4fbc074c95f","051c06f1-75cc-4548-856d-4923ddaba0dc","{""num_scrambled_semantic"":""8"",""num_scrambled_causal"":""4"",""num_scrambled_schematic"":""4"",""participantId"":""5C598EC41BCB461B95A75E8D255C46C8"",""assignmentId"":""77561901-afa2-4d78-86dc-d4fbc074c95f"",""projectId"":""051c06f1-75cc-4548-856d-4923ddaba0dc""}","https://test12345.live/?num_scrambled_semantic=8&num_scrambled_causal=4&num_scrambled_schematic=4&participantId=5C598EC41BCB461B95A75E8D255C46C8&assignmentId=77561901-afa2-4d78-86dc-d4fbc074c95f&projectId=051c06f1-75cc-4548-856d-4923ddaba0dc","5C598EC41BCB461B95A75E8D255C46C8-2025-05-15-19-17-58","","null","","images/instructions/movie_3.png","null","",""
"","","","","","image-button-response","16","191321","0.0-6.0-1.0-1.2","5C598EC41BCB461B95A75E8D255C46C8","5C598EC41BCB461B95A75E8D255C46C8","77561901-afa2-4d78-86dc-d4fbc074c95f","051c06f1-75cc-4548-856d-4923ddaba0dc","{""num_scrambled_semantic"":""8"",""num_scrambled_causal"":""4"",""num_scrambled_schematic"":""4"",""participantId"":""5C598EC41BCB461B95A75E8D255C46C8"",""assignmentId"":""77561901-afa2-4d78-86dc-d4fbc074c95f"",""projectId"":""051c06f1-75cc-4548-856d-4923ddaba0dc""}","https://test12345.live/?num_scrambled_semantic=8&num_scrambled_causal=4&num_scrambled_schematic=4&participantId=5C598EC41BCB461B95A75E8D255C46C8&assignmentId=77561901-afa2-4d78-86dc-d4fbc074c95f&projectId=051c06f1-75cc-4548-856d-4923ddaba0dc","5C598EC41BCB461B95A75E8D255C46C8-2025-05-15-19-17-58","","1041","","images/instructions/movie_3.png","0","",""
"","","","","","image-button-response","17","193133","0.0-6.0-1.0-2.2","5C598EC41BCB461B95A75E8D255C46C8","5C598EC41BCB461B95A75E8D255C46C8","77561901-afa2-4d78-86dc-d4fbc074c95f","051c06f1-75cc-4548-856d-4923ddaba0dc","{""num_scrambled_semantic"":""8"",""num_scrambled_causal"":""4"",""num_scrambled_schematic"":""4"",""participantId"":""5C598EC41BCB461B95A75E8D255C46C8"",""assignmentId"":""77561901-afa2-4d78-86dc-d4fbc074c95f"",""projectId"":""051c06f1-75cc-4548-856d-4923ddaba0dc""}","https://test12345.live/?num_scrambled_semantic=8&num_scrambled_causal=4&num_scrambled_schematic=4&participantId=5C598EC41BCB461B95A75E8D255C46C8&assignmentId=77561901-afa2-4d78-86dc-d4fbc074c95f&projectId=051c06f1-75cc-4548-856d-4923ddaba0dc","5C598EC41BCB461B95A75E8D255C46C8-2025-05-15-19-17-58","","null","","[]","null","",""
"","","","","","image-button-response","18","197636","0.0-6.0-1.0-0.3","5C598EC41BCB461B95A75E8D255C46C8","5C598EC41BCB461B95A75E8D255C46C8","77561901-afa2-4d78-86dc-d4fbc074c95f","051c06f1-75cc-4548-856d-4923ddaba0dc","{""num_scrambled_semantic"":""8"",""num_scrambled_causal"":""4"",""num_scrambled_schematic"":""4"",""participantId"":""5C598EC41BCB461B95A75E8D255C46C8"",""assignmentId"":""77561901-afa2-4d78-86dc-d4fbc074c95f"",""projectId"":""051c06f1-75cc-4548-856d-4923ddaba0dc""}","https://test12345.live/?num_scrambled_semantic=8&num_scrambled_causal=4&num_scrambled_schematic=4&participantId=5C598EC41BCB461B95A75E8D255C46C8&assignmentId=77561901-afa2-4d78-86dc-d4fbc074c95f&projectId=051c06f1-75cc-4548-856d-4923ddaba0dc","5C598EC41BCB461B95A75E8D255C46C8-2025-05-15-19-17-58","","null","","images/instructions/movie_4.png","null","",""
"","","","","","image-button-response","19","198706","0.0-6.0-1.0-1.3","5C598EC41BCB461B95A75E8D255C46C8","5C598EC41BCB461B95A75E8D255C46C8","77561901-afa2-4d78-86dc-d4fbc074c95f","051c06f1-75cc-4548-856d-4923ddaba0dc","{""num_scrambled_semantic"":""8"",""num_scrambled_causal"":""4"",""num_scrambled_schematic"":""4"",""participantId"":""5C598EC41BCB461B95A75E8D255C46C8"",""assignmentId"":""77561901-afa2-4d78-86dc-d4fbc074c95f"",""projectId"":""051c06f1-75cc-4548-856d-4923ddaba0dc""}","https://test12345.live/?num_scrambled_semantic=8&num_scrambled_causal=4&num_scrambled_schematic=4&participantId=5C598EC41BCB461B95A75E8D255C46C8&assignmentId=77561901-afa2-4d78-86dc-d4fbc074c95f&projectId=051c06f1-75cc-4548-856d-4923ddaba0dc","5C598EC41BCB461B95A75E8D255C46C8-2025-05-15-19-17-58","","1070","","images/instructions/movie_4.png","0","",""
"","","","","","image-button-response","20","200519","0.0-6.0-1.0-2.3","5C598EC41BCB461B95A75E8D255C46C8","5C598EC41BCB461B95A75E8D255C46C8","77561901-afa2-4d78-86dc-d4fbc074c95f","051c06f1-75cc-4548-856d-4923ddaba0dc","{""num_scrambled_semantic"":""8"",""num_scrambled_causal"":""4"",""num_scrambled_schematic"":""4"",""participantId"":""5C598EC41BCB461B95A75E8D255C46C8"",""assignmentId"":""77561901-afa2-4d78-86dc-d4fbc074c95f"",""projectId"":""051c06f1-75cc-4548-856d-4923ddaba0dc""}","https://test12345.live/?num_scrambled_semantic=8&num_scrambled_causal=4&num_scrambled_schematic=4&participantId=5C598EC41BCB461B95A75E8D255C46C8&assignmentId=77561901-afa2-4d78-86dc-d4fbc074c95f&projectId=051c06f1-75cc-4548-856d-4923ddaba0dc","5C598EC41BCB461B95A75E8D255C46C8-2025-05-15-19-17-58","","null","","[]","null","",""
"","","","","","instructions","21","208847","0.0-7.0","5C598EC41BCB461B95A75E8D255C46C8","5C598EC41BCB461B95A75E8D255C46C8","77561901-afa2-4d78-86dc-d4fbc074c95f","051c06f1-75cc-4548-856d-4923ddaba0dc","{""num_scrambled_semantic"":""8"",""num_scrambled_causal"":""4"",""num_scrambled_schematic"":""4"",""participantId"":""5C598EC41BCB461B95A75E8D255C46C8"",""assignmentId"":""77561901-afa2-4d78-86dc-d4fbc074c95f"",""projectId"":""051c06f1-75cc-4548-856d-4923ddaba0dc""}","https://test12345.live/?num_scrambled_semantic=8&num_scrambled_causal=4&num_scrambled_schematic=4&participantId=5C598EC41BCB461B95A75E8D255C46C8&assignmentId=77561901-afa2-4d78-86dc-d4fbc074c95f&projectId=051c06f1-75cc-4548-856d-4923ddaba0dc","5C598EC41BCB461B95A75E8D255C46C8-2025-05-15-19-17-58","[{""page_index"":0,""viewing_time"":6794},{""page_index"":1,""viewing_time"":1534}]","8328","","","","",""
"","","","","","html-audio-response","22","305993","0.0-8.0","5C598EC41BCB461B95A75E8D255C46C8","5C598EC41BCB461B95A75E8D255C46C8","77561901-afa2-4d78-86dc-d4fbc074c95f","051c06f1-75cc-4548-856d-4923ddaba0dc","{""num_scrambled_semantic"":""8"",""num_scrambled_causal"":""4"",""num_scrambled_schematic"":""4"",""participantId"":""5C598EC41BCB461B95A75E8D255C46C8"",""assignmentId"":""77561901-afa2-4d78-86dc-d4fbc074c95f"",""projectId"":""051c06f1-75cc-4548-856d-4923ddaba0dc""}","https://test12345.live/?num_scrambled_semantic=8&num_scrambled_causal=4&num_scrambled_schematic=4&participantId=5C598EC41BCB461B95A75E8D255C46C8&assignmentId=77561901-afa2-4d78-86dc-d4fbc074c95f&projectId=051c06f1-75cc-4548-856d-4923ddaba0dc","5C598EC41BCB461B95A75E8D255C46C8-2025-05-15-19-17-58","","46975","","[""<span style=\""color: red; font-size: 24px\""> NOW RECORDING</span><p>Please say out loud all the images you saw, as many as you can remember. The images can be said in any order.</p>""]","","10",""
"","","","","","instructions","23","307862","0.0-9.0","5C598EC41BCB461B95A75E8D255C46C8","5C598EC41BCB461B95A75E8D255C46C8","77561901-afa2-4d78-86dc-d4fbc074c95f","051c06f1-75cc-4548-856d-4923ddaba0dc","{""num_scrambled_semantic"":""8"",""num_scrambled_causal"":""4"",""num_scrambled_schematic"":""4"",""participantId"":""5C598EC41BCB461B95A75E8D255C46C8"",""assignmentId"":""77561901-afa2-4d78-86dc-d4fbc074c95f"",""projectId"":""051c06f1-75cc-4548-856d-4923ddaba0dc""}","https://test12345.live/?num_scrambled_semantic=8&num_scrambled_causal=4&num_scrambled_schematic=4&participantId=5C598EC41BCB461B95A75E8D255C46C8&assignmentId=77561901-afa2-4d78-86dc-d4fbc074c95f&projectId=051c06f1-75cc-4548-856d-4923ddaba0dc","5C598EC41BCB461B95A75E8D255C46C8-2025-05-15-19-17-58","[{""page_index"":0,""viewing_time"":1866}]","1866","","","","",""
"","","","","","image-button-response","24","313875","0.0-10.0-0.0","5C598EC41BCB461B95A75E8D255C46C8","5C598EC41BCB461B95A75E8D255C46C8","77561901-afa2-4d78-86dc-d4fbc074c95f","051c06f1-75cc-4548-856d-4923ddaba0dc","{""num_scrambled_semantic"":""8"",""num_scrambled_causal"":""4"",""num_scrambled_schematic"":""4"",""participantId"":""5C598EC41BCB461B95A75E8D255C46C8"",""assignmentId"":""77561901-afa2-4d78-86dc-d4fbc074c95f"",""projectId"":""051c06f1-75cc-4548-856d-4923ddaba0dc""}","https://test12345.live/?num_scrambled_semantic=8&num_scrambled_causal=4&num_scrambled_schematic=4&participantId=5C598EC41BCB461B95A75E8D255C46C8&assignmentId=77561901-afa2-4d78-86dc-d4fbc074c95f&projectId=051c06f1-75cc-4548-856d-4923ddaba0dc","5C598EC41BCB461B95A75E8D255C46C8-2025-05-15-19-17-58","","null","","images/semantic_sequence/kitchen_operations_semantic/kitchen_operations_semantic_0.png","null","",""
"","","","","","image-button-response","25","318381","0.0-10.0-1.0-0.0","5C598EC41BCB461B95A75E8D255C46C8","5C598EC41BCB461B95A75E8D255C46C8","77561901-afa2-4d78-86dc-d4fbc074c95f","051c06f1-75cc-4548-856d-4923ddaba0dc","{""num_scrambled_semantic"":""8"",""num_scrambled_causal"":""4"",""num_scrambled_schematic"":""4"",""participantId"":""5C598EC41BCB461B95A75E8D255C46C8"",""assignmentId"":""77561901-afa2-4d78-86dc-d4fbc074c95f"",""projectId"":""051c06f1-75cc-4548-856d-4923ddaba0dc""}","https://test12345.live/?num_scrambled_semantic=8&num_scrambled_causal=4&num_scrambled_schematic=4&participantId=5C598EC41BCB461B95A75E8D255C46C8&assignmentId=77561901-afa2-4d78-86dc-d4fbc074c95f&projectId=051c06f1-75cc-4548-856d-4923ddaba0dc","5C598EC41BCB461B95A75E8D255C46C8-2025-05-15-19-17-58","","null","","images/semantic_sequence/kitchen_operations_semantic/kitchen_operations_semantic_9.png","null","",""
"","","","","","image-button-response","26","319526","0.0-10.0-1.0-1.0","5C598EC41BCB461B95A75E8D255C46C8","5C598EC41BCB461B95A75E8D255C46C8","77561901-afa2-4d78-86dc-d4fbc074c95f","051c06f1-75cc-4548-856d-4923ddaba0dc","{""num_scrambled_semantic"":""8"",""num_scrambled_causal"":""4"",""num_scrambled_schematic"":""4"",""participantId"":""5C598EC41BCB461B95A75E8D255C46C8"",""assignmentId"":""77561901-afa2-4d78-86dc-d4fbc074c95f"",""projectId"":""051c06f1-75cc-4548-856d-4923ddaba0dc""}","https://test12345.live/?num_scrambled_semantic=8&num_scrambled_causal=4&num_scrambled_schematic=4&participantId=5C598EC41BCB461B95A75E8D255C46C8&assignmentId=77561901-afa2-4d78-86dc-d4fbc074c95f&projectId=051c06f1-75cc-4548-856d-4923ddaba0dc","5C598EC41BCB461B95A75E8D255C46C8-2025-05-15-19-17-58","","1145","","images/semantic_sequence/kitchen_operations_semantic/kitchen_operations_semantic_9.png","0","",""
"","","","","","image-button-response","27","321329","0.0-10.0-1.0-2.0","5C598EC41BCB461B95A75E8D255C46C8","5C598EC41BCB461B95A75E8D255C46C8","77561901-afa2-4d78-86dc-d4fbc074c95f","051c06f1-75cc-4548-856d-4923ddaba0dc","{""num_scrambled_semantic"":""8"",""num_scrambled_causal"":""4"",""num_scrambled_schematic"":""4"",""participantId"":""5C598EC41BCB461B95A75E8D255C46C8"",""assignmentId"":""77561901-afa2-4d78-86dc-d4fbc074c95f"",""projectId"":""051c06f1-75cc-4548-856d-4923ddaba0dc""}","https://test12345.live/?num_scrambled_semantic=8&num_scrambled_causal=4&num_scrambled_schematic=4&participantId=5C598EC41BCB461B95A75E8D255C46C8&assignmentId=77561901-afa2-4d78-86dc-d4fbc074c95f&projectId=051c06f1-75cc-4548-856d-4923ddaba0dc","5C598EC41BCB461B95A75E8D255C46C8-2025-05-15-19-17-58","","null","","[]","null","",""
"","","","","","image-button-response","28","325830","0.0-10.0-1.0-0.1","5C598EC41BCB461B95A75E8D255C46C8","5C598EC41BCB461B95A75E8D255C46C8","77561901-afa2-4d78-86dc-d4fbc074c95f","051c06f1-75cc-4548-856d-4923ddaba0dc","{""num_scrambled_semantic"":""8"",""num_scrambled_causal"":""4"",""num_scrambled_schematic"":""4"",""participantId"":""5C598EC41BCB461B95A75E8D255C46C8"",""assignmentId"":""77561901-afa2-4d78-86dc-d4fbc074c95f"",""projectId"":""051c06f1-75cc-4548-856d-4923ddaba0dc""}","https://test12345.live/?num_scrambled_semantic=8&num_scrambled_causal=4&num_scrambled_schematic=4&participantId=5C598EC41BCB461B95A75E8D255C46C8&assignmentId=77561901-afa2-4d78-86dc-d4fbc074c95f&projectId=051c06f1-75cc-4548-856d-4923ddaba0dc","5C598EC41BCB461B95A75E8D255C46C8-2025-05-15-19-17-58","","null","","images/semantic_sequence/kitchen_operations_semantic/kitchen_operations_semantic_6.png","null","",""
"","","","","","image-button-response","29","326885","0.0-10.0-1.0-1.1","5C598EC41BCB461B95A75E8D255C46C8","5C598EC41BCB461B95A75E8D255C46C8","77561901-afa2-4d78-86dc-d4fbc074c95f","051c06f1-75cc-4548-856d-4923ddaba0dc","{""num_scrambled_semantic"":""8"",""num_scrambled_causal"":""4"",""num_scrambled_schematic"":""4"",""participantId"":""5C598EC41BCB461B95A75E8D255C46C8"",""assignmentId"":""77561901-afa2-4d78-86dc-d4fbc074c95f"",""projectId"":""051c06f1-75cc-4548-856d-4923ddaba0dc""}","https://test12345.live/?num_scrambled_semantic=8&num_scrambled_causal=4&num_scrambled_schematic=4&participantId=5C598EC41BCB461B95A75E8D255C46C8&assignmentId=77561901-afa2-4d78-86dc-d4fbc074c95f&projectId=051c06f1-75cc-4548-856d-4923ddaba0dc","5C598EC41BCB461B95A75E8D255C46C8-2025-05-15-19-17-58","","1054","","images/semantic_sequence/kitchen_operations_semantic/kitchen_operations_semantic_6.png","0","",""
"","","","","","image-button-response","30","328695","0.0-10.0-1.0-2.1","5C598EC41BCB461B95A75E8D255C46C8","5C598EC41BCB461B95A75E8D255C46C8","77561901-afa2-4d78-86dc-d4fbc074c95f","051c06f1-75cc-4548-856d-4923ddaba0dc","{""num_scrambled_semantic"":""8"",""num_scrambled_causal"":""4"",""num_scrambled_schematic"":""4"",""participantId"":""5C598EC41BCB461B95A75E8D255C46C8"",""assignmentId"":""77561901-afa2-4d78-86dc-d4fbc074c95f"",""projectId"":""051c06f1-75cc-4548-856d-4923ddaba0dc""}","https://test12345.live/?num_scrambled_semantic=8&num_scrambled_causal=4&num_scrambled_schematic=4&participantId=5C598EC41BCB461B95A75E8D255C46C8&assignmentId=77561901-afa2-4d78-86dc-d4fbc074c95f&projectId=051c06f1-75cc-4548-856d-4923ddaba0dc","5C598EC41BCB461B95A75E8D255C46C8-2025-05-15-19-17-58","","null","","[]","null","",""
"","","","","","image-button-response","31","333201","0.0-10.0-1.0-0.2","5C598EC41BCB461B95A75E8D255C46C8","5C598EC41BCB461B95A75E8D255C46C8","77561901-afa2-4d78-86dc-d4fbc074c95f","051c06f1-75cc-4548-856d-4923ddaba0dc","{""num_scrambled_semantic"":""8"",""num_scrambled_causal"":""4"",""num_scrambled_schematic"":""4"",""participantId"":""5C598EC41BCB461B95A75E8D255C46C8"",""assignmentId"":""77561901-afa2-4d78-86dc-d4fbc074c95f"",""projectId"":""051c06f1-75cc-4548-856d-4923ddaba0dc""}","https://test12345.live/?num_scrambled_semantic=8&num_scrambled_causal=4&num_scrambled_schematic=4&participantId=5C598EC41BCB461B95A75E8D255C46C8&assignmentId=77561901-afa2-4d78-86dc-d4fbc074c95f&projectId=051c06f1-75cc-4548-856d-4923ddaba0dc","5C598EC41BCB461B95A75E8D255C46C8-2025-05-15-19-17-58","","null","","images/semantic_sequence/kitchen_operations_semantic/kitchen_operations_semantic_4.png","null","",""
"","","","","","image-button-response","32","334235","0.0-10.0-1.0-1.2","5C598EC41BCB461B95A75E8D255C46C8","5C598EC41BCB461B95A75E8D255C46C8","77561901-afa2-4d78-86dc-d4fbc074c95f","051c06f1-75cc-4548-856d-4923ddaba0dc","{""num_scrambled_semantic"":""8"",""num_scrambled_causal"":""4"",""num_scrambled_schematic"":""4"",""participantId"":""5C598EC41BCB461B95A75E8D255C46C8"",""assignmentId"":""77561901-afa2-4d78-86dc-d4fbc074c95f"",""projectId"":""051c06f1-75cc-4548-856d-4923ddaba0dc""}","https://test12345.live/?num_scrambled_semantic=8&num_scrambled_causal=4&num_scrambled_schematic=4&participantId=5C598EC41BCB461B95A75E8D255C46C8&assignmentId=77561901-afa2-4d78-86dc-d4fbc074c95f&projectId=051c06f1-75cc-4548-856d-4923ddaba0dc","5C598EC41BCB461B95A75E8D255C46C8-2025-05-15-19-17-58","","1034","","images/semantic_sequence/kitchen_operations_semantic/kitchen_operations_semantic_4.png","0","",""
"","","","","","image-button-response","33","336050","0.0-10.0-1.0-2.2","5C598EC41BCB461B95A75E8D255C46C8","5C598EC41BCB461B95A75E8D255C46C8","77561901-afa2-4d78-86dc-d4fbc074c95f","051c06f1-75cc-4548-856d-4923ddaba0dc","{""num_scrambled_semantic"":""8"",""num_scrambled_causal"":""4"",""num_scrambled_schematic"":""4"",""participantId"":""5C598EC41BCB461B95A75E8D255C46C8"",""assignmentId"":""77561901-afa2-4d78-86dc-d4fbc074c95f"",""projectId"":""051c06f1-75cc-4548-856d-4923ddaba0dc""}","https://test12345.live/?num_scrambled_semantic=8&num_scrambled_causal=4&num_scrambled_schematic=4&participantId=5C598EC41BCB461B95A75E8D255C46C8&assignmentId=77561901-afa2-4d78-86dc-d4fbc074c95f&projectId=051c06f1-75cc-4548-856d-4923ddaba0dc","5C598EC41BCB461B95A75E8D255C46C8-2025-05-15-19-17-58","","null","","[]","null","",""
"","","","","","image-button-response","34","340555","0.0-10.0-1.0-0.3","5C598EC41BCB461B95A75E8D255C46C8","5C598EC41BCB461B95A75E8D255C46C8","77561901-afa2-4d78-86dc-d4fbc074c95f","051c06f1-75cc-4548-856d-4923ddaba0dc","{""num_scrambled_semantic"":""8"",""num_scrambled_causal"":""4"",""num_scrambled_schematic"":""4"",""participantId"":""5C598EC41BCB461B95A75E8D255C46C8"",""assignmentId"":""77561901-afa2-4d78-86dc-d4fbc074c95f"",""projectId"":""051c06f1-75cc-4548-856d-4923ddaba0dc""}","https://test12345.live/?num_scrambled_semantic=8&num_scrambled_causal=4&num_scrambled_schematic=4&participantId=5C598EC41BCB461B95A75E8D255C46C8&assignmentId=77561901-afa2-4d78-86dc-d4fbc074c95f&projectId=051c06f1-75cc-4548-856d-4923ddaba0dc","5C598EC41BCB461B95A75E8D255C46C8-2025-05-15-19-17-58","","null","","images/semantic_sequence/kitchen_operations_semantic/kitchen_operations_semantic_7.png","null","",""
"","","","","","image-button-response","35","342430","0.0-10.0-1.0-1.3","5C598EC41BCB461B95A75E8D255C46C8","5C598EC41BCB461B95A75E8D255C46C8","77561901-afa2-4d78-86dc-d4fbc074c95f","051c06f1-75cc-4548-856d-4923ddaba0dc","{""num_scrambled_semantic"":""8"",""num_scrambled_causal"":""4"",""num_scrambled_schematic"":""4"",""participantId"":""5C598EC41BCB461B95A75E8D255C46C8"",""assignmentId"":""77561901-afa2-4d78-86dc-d4fbc074c95f"",""projectId"":""051c06f1-75cc-4548-856d-4923ddaba0dc""}","https://test12345.live/?num_scrambled_semantic=8&num_scrambled_causal=4&num_scrambled_schematic=4&participantId=5C598EC41BCB461B95A75E8D255C46C8&assignmentId=77561901-afa2-4d78-86dc-d4fbc074c95f&projectId=051c06f1-75cc-4548-856d-4923ddaba0dc","5C598EC41BCB461B95A75E8D255C46C8-2025-05-15-19-17-58","","1875","","images/semantic_sequence/kitchen_operations_semantic/kitchen_operations_semantic_7.png","0","",""
"","","","","","image-button-response","36","344238","0.0-10.0-1.0-2.3","5C598EC41BCB461B95A75E8D255C46C8","5C598EC41BCB461B95A75E8D255C46C8","77561901-afa2-4d78-86dc-d4fbc074c95f","051c06f1-75cc-4548-856d-4923ddaba0dc","{""num_scrambled_semantic"":""8"",""num_scrambled_causal"":""4"",""num_scrambled_schematic"":""4"",""participantId"":""5C598EC41BCB461B95A75E8D255C46C8"",""assignmentId"":""77561901-afa2-4d78-86dc-d4fbc074c95f"",""projectId"":""051c06f1-75cc-4548-856d-4923ddaba0dc""}","https://test12345.live/?num_scrambled_semantic=8&num_scrambled_causal=4&num_scrambled_schematic=4&participantId=5C598EC41BCB461B95A75E8D255C46C8&assignmentId=77561901-afa2-4d78-86dc-d4fbc074c95f&projectId=051c06f1-75cc-4548-856d-4923ddaba0dc","5C598EC41BCB461B95A75E8D255C46C8-2025-05-15-19-17-58","","null","","[]","null","",""
"","","","","","image-button-response","37","348740","0.0-10.0-1.0-0.4","5C598EC41BCB461B95A75E8D255C46C8","5C598EC41BCB461B95A75E8D255C46C8","77561901-afa2-4d78-86dc-d4fbc074c95f","051c06f1-75cc-4548-856d-4923ddaba0dc","{""num_scrambled_semantic"":""8"",""num_scrambled_causal"":""4"",""num_scrambled_schematic"":""4"",""participantId"":""5C598EC41BCB461B95A75E8D255C46C8"",""assignmentId"":""77561901-afa2-4d78-86dc-d4fbc074c95f"",""projectId"":""051c06f1-75cc-4548-856d-4923ddaba0dc""}","https://test12345.live/?num_scrambled_semantic=8&num_scrambled_causal=4&num_scrambled_schematic=4&participantId=5C598EC41BCB461B95A75E8D255C46C8&assignmentId=77561901-afa2-4d78-86dc-d4fbc074c95f&projectId=051c06f1-75cc-4548-856d-4923ddaba0dc","5C598EC41BCB461B95A75E8D255C46C8-2025-05-15-19-17-58","","null","","images/semantic_sequence/kitchen_operations_semantic/kitchen_operations_semantic_8.png","null","",""
"","","","","","image-button-response","38","350840","0.0-10.0-1.0-1.4","5C598EC41BCB461B95A75E8D255C46C8","5C598EC41BCB461B95A75E8D255C46C8","77561901-afa2-4d78-86dc-d4fbc074c95f","051c06f1-75cc-4548-856d-4923ddaba0dc","{""num_scrambled_semantic"":""8"",""num_scrambled_causal"":""4"",""num_scrambled_schematic"":""4"",""participantId"":""5C598EC41BCB461B95A75E8D255C46C8"",""assignmentId"":""77561901-afa2-4d78-86dc-d4fbc074c95f"",""projectId"":""051c06f1-75cc-4548-856d-4923ddaba0dc""}","https://test12345.live/?num_scrambled_semantic=8&num_scrambled_causal=4&num_scrambled_schematic=4&participantId=5C598EC41BCB461B95A75E8D255C46C8&assignmentId=77561901-afa2-4d78-86dc-d4fbc074c95f&projectId=051c06f1-75cc-4548-856d-4923ddaba0dc","5C598EC41BCB461B95A75E8D255C46C8-2025-05-15-19-17-58","","2100","","images/semantic_sequence/kitchen_operations_semantic/kitchen_operations_semantic_8.png","0","",""
"","","","","","image-button-response","39","352650","0.0-10.0-1.0-2.4","5C598EC41BCB461B95A75E8D255C46C8","5C598EC41BCB461B95A75E8D255C46C8","77561901-afa2-4d78-86dc-d4fbc074c95f","051c06f1-75cc-4548-856d-4923ddaba0dc","{""num_scrambled_semantic"":""8"",""num_scrambled_causal"":""4"",""num_scrambled_schematic"":""4"",""participantId"":""5C598EC41BCB461B95A75E8D255C46C8"",""assignmentId"":""77561901-afa2-4d78-86dc-d4fbc074c95f"",""projectId"":""051c06f1-75cc-4548-856d-4923ddaba0dc""}","https://test12345.live/?num_scrambled_semantic=8&num_scrambled_causal=4&num_scrambled_schematic=4&participantId=5C598EC41BCB461B95A75E8D255C46C8&assignmentId=77561901-afa2-4d78-86dc-d4fbc074c95f&projectId=051c06f1-75cc-4548-856d-4923ddaba0dc","5C598EC41BCB461B95A75E8D255C46C8-2025-05-15-19-17-58","","null","","[]","null","",""
"","","","","","image-button-response","40","357156","0.0-10.0-1.0-0.5","5C598EC41BCB461B95A75E8D255C46C8","5C598EC41BCB461B95A75E8D255C46C8","77561901-afa2-4d78-86dc-d4fbc074c95f","051c06f1-75cc-4548-856d-4923ddaba0dc","{""num_scrambled_semantic"":""8"",""num_scrambled_causal"":""4"",""num_scrambled_schematic"":""4"",""participantId"":""5C598EC41BCB461B95A75E8D255C46C8"",""assignmentId"":""77561901-afa2-4d78-86dc-d4fbc074c95f"",""projectId"":""051c06f1-75cc-4548-856d-4923ddaba0dc""}","https://test12345.live/?num_scrambled_semantic=8&num_scrambled_causal=4&num_scrambled_schematic=4&participantId=5C598EC41BCB461B95A75E8D255C46C8&assignmentId=77561901-afa2-4d78-86dc-d4fbc074c95f&projectId=051c06f1-75cc-4548-856d-4923ddaba0dc","5C598EC41BCB461B95A75E8D255C46C8-2025-05-15-19-17-58","","null","","images/semantic_sequence/kitchen_operations_semantic/kitchen_operations_semantic_5.png","null","",""
"","","","","","image-button-response","41","358251","0.0-10.0-1.0-1.5","5C598EC41BCB461B95A75E8D255C46C8","5C598EC41BCB461B95A75E8D255C46C8","77561901-afa2-4d78-86dc-d4fbc074c95f","051c06f1-75cc-4548-856d-4923ddaba0dc","{""num_scrambled_semantic"":""8"",""num_scrambled_causal"":""4"",""num_scrambled_schematic"":""4"",""participantId"":""5C598EC41BCB461B95A75E8D255C46C8"",""assignmentId"":""77561901-afa2-4d78-86dc-d4fbc074c95f"",""projectId"":""051c06f1-75cc-4548-856d-4923ddaba0dc""}","https://test12345.live/?num_scrambled_semantic=8&num_scrambled_causal=4&num_scrambled_schematic=4&participantId=5C598EC41BCB461B95A75E8D255C46C8&assignmentId=77561901-afa2-4d78-86dc-d4fbc074c95f&projectId=051c06f1-75cc-4548-856d-4923ddaba0dc","5C598EC41BCB461B95A75E8D255C46C8-2025-05-15-19-17-58","","1094","","images/semantic_sequence/kitchen_operations_semantic/kitchen_operations_semantic_5.png","0","",""
"","","","","","image-button-response","42","360058","0.0-10.0-1.0-2.5","5C598EC41BCB461B95A75E8D255C46C8","5C598EC41BCB461B95A75E8D255C46C8","77561901-afa2-4d78-86dc-d4fbc074c95f","051c06f1-75cc-4548-856d-4923ddaba0dc","{""num_scrambled_semantic"":""8"",""num_scrambled_causal"":""4"",""num_scrambled_schematic"":""4"",""participantId"":""5C598EC41BCB461B95A75E8D255C46C8"",""assignmentId"":""77561901-afa2-4d78-86dc-d4fbc074c95f"",""projectId"":""051c06f1-75cc-4548-856d-4923ddaba0dc""}","https://test12345.live/?num_scrambled_semantic=8&num_scrambled_causal=4&num_scrambled_schematic=4&participantId=5C598EC41BCB461B95A75E8D255C46C8&assignmentId=77561901-afa2-4d78-86dc-d4fbc074c95f&projectId=051c06f1-75cc-4548-856d-4923ddaba0dc","5C598EC41BCB461B95A75E8D255C46C8-2025-05-15-19-17-58","","null","","[]","null","",""
"","","","","","image-button-response","43","364566","0.0-10.0-1.0-0.6","5C598EC41BCB461B95A75E8D255C46C8","5C598EC41BCB461B95A75E8D255C46C8","77561901-afa2-4d78-86dc-d4fbc074c95f","051c06f1-75cc-4548-856d-4923ddaba0dc","{""num_scrambled_semantic"":""8"",""num_scrambled_causal"":""4"",""num_scrambled_schematic"":""4"",""participantId"":""5C598EC41BCB461B95A75E8D255C46C8"",""assignmentId"":""77561901-afa2-4d78-86dc-d4fbc074c95f"",""projectId"":""051c06f1-75cc-4548-856d-4923ddaba0dc""}","https://test12345.live/?num_scrambled_semantic=8&num_scrambled_causal=4&num_scrambled_schematic=4&participantId=5C598EC41BCB461B95A75E8D255C46C8&assignmentId=77561901-afa2-4d78-86dc-d4fbc074c95f&projectId=051c06f1-75cc-4548-856d-4923ddaba0dc","5C598EC41BCB461B95A75E8D255C46C8-2025-05-15-19-17-58","","null","","images/semantic_sequence/kitchen_operations_semantic/kitchen_operations_semantic_3.png","null","",""
"","","","","","image-button-response","44","365476","0.0-10.0-1.0-1.6","5C598EC41BCB461B95A75E8D255C46C8","5C598EC41BCB461B95A75E8D255C46C8","77561901-afa2-4d78-86dc-d4fbc074c95f","051c06f1-75cc-4548-856d-4923ddaba0dc","{""num_scrambled_semantic"":""8"",""num_scrambled_causal"":""4"",""num_scrambled_schematic"":""4"",""participantId"":""5C598EC41BCB461B95A75E8D255C46C8"",""assignmentId"":""77561901-afa2-4d78-86dc-d4fbc074c95f"",""projectId"":""051c06f1-75cc-4548-856d-4923ddaba0dc""}","https://test12345.live/?num_scrambled_semantic=8&num_scrambled_causal=4&num_scrambled_schematic=4&participantId=5C598EC41BCB461B95A75E8D255C46C8&assignmentId=77561901-afa2-4d78-86dc-d4fbc074c95f&projectId=051c06f1-75cc-4548-856d-4923ddaba0dc","5C598EC41BCB461B95A75E8D255C46C8-2025-05-15-19-17-58","","909","","images/semantic_sequence/kitchen_operations_semantic/kitchen_operations_semantic_3.png","0","",""
"","","","","","image-button-response","45","367279","0.0-10.0-1.0-2.6","5C598EC41BCB461B95A75E8D255C46C8","5C598EC41BCB461B95A75E8D255C46C8","77561901-afa2-4d78-86dc-d4fbc074c95f","051c06f1-75cc-4548-856d-4923ddaba0dc","{""num_scrambled_semantic"":""8"",""num_scrambled_causal"":""4"",""num_scrambled_schematic"":""4"",""participantId"":""5C598EC41BCB461B95A75E8D255C46C8"",""assignmentId"":""77561901-afa2-4d78-86dc-d4fbc074c95f"",""projectId"":""051c06f1-75cc-4548-856d-4923ddaba0dc""}","https://test12345.live/?num_scrambled_semantic=8&num_scrambled_causal=4&num_scrambled_schematic=4&participantId=5C598EC41BCB461B95A75E8D255C46C8&assignmentId=77561901-afa2-4d78-86dc-d4fbc074c95f&projectId=051c06f1-75cc-4548-856d-4923ddaba0dc","5C598EC41BCB461B95A75E8D255C46C8-2025-05-15-19-17-58","","null","","[]","null","",""
"","","","","","image-button-response","46","371780","0.0-10.0-1.0-0.7","5C598EC41BCB461B95A75E8D255C46C8","5C598EC41BCB461B95A75E8D255C46C8","77561901-afa2-4d78-86dc-d4fbc074c95f","051c06f1-75cc-4548-856d-4923ddaba0dc","{""num_scrambled_semantic"":""8"",""num_scrambled_causal"":""4"",""num_scrambled_schematic"":""4"",""participantId"":""5C598EC41BCB461B95A75E8D255C46C8"",""assignmentId"":""77561901-afa2-4d78-86dc-d4fbc074c95f"",""projectId"":""051c06f1-75cc-4548-856d-4923ddaba0dc""}","https://test12345.live/?num_scrambled_semantic=8&num_scrambled_causal=4&num_scrambled_schematic=4&participantId=5C598EC41BCB461B95A75E8D255C46C8&assignmentId=77561901-afa2-4d78-86dc-d4fbc074c95f&projectId=051c06f1-75cc-4548-856d-4923ddaba0dc","5C598EC41BCB461B95A75E8D255C46C8-2025-05-15-19-17-58","","null","","images/semantic_sequence/kitchen_operations_semantic/kitchen_operations_semantic_ten.png","null","",""
"","","","","","image-button-response","47","372639","0.0-10.0-1.0-1.7","5C598EC41BCB461B95A75E8D255C46C8","5C598EC41BCB461B95A75E8D255C46C8","77561901-afa2-4d78-86dc-d4fbc074c95f","051c06f1-75cc-4548-856d-4923ddaba0dc","{""num_scrambled_semantic"":""8"",""num_scrambled_causal"":""4"",""num_scrambled_schematic"":""4"",""participantId"":""5C598EC41BCB461B95A75E8D255C46C8"",""assignmentId"":""77561901-afa2-4d78-86dc-d4fbc074c95f"",""projectId"":""051c06f1-75cc-4548-856d-4923ddaba0dc""}","https://test12345.live/?num_scrambled_semantic=8&num_scrambled_causal=4&num_scrambled_schematic=4&participantId=5C598EC41BCB461B95A75E8D255C46C8&assignmentId=77561901-afa2-4d78-86dc-d4fbc074c95f&projectId=051c06f1-75cc-4548-856d-4923ddaba0dc","5C598EC41BCB461B95A75E8D255C46C8-2025-05-15-19-17-58","","858","","images/semantic_sequence/kitchen_operations_semantic/kitchen_operations_semantic_ten.png","0","",""
"","","","","","image-button-response","48","374448","0.0-10.0-1.0-2.7","5C598EC41BCB461B95A75E8D255C46C8","5C598EC41BCB461B95A75E8D255C46C8","77561901-afa2-4d78-86dc-d4fbc074c95f","051c06f1-75cc-4548-856d-4923ddaba0dc","{""num_scrambled_semantic"":""8"",""num_scrambled_causal"":""4"",""num_scrambled_schematic"":""4"",""participantId"":""5C598EC41BCB461B95A75E8D255C46C8"",""assignmentId"":""77561901-afa2-4d78-86dc-d4fbc074c95f"",""projectId"":""051c06f1-75cc-4548-856d-4923ddaba0dc""}","https://test12345.live/?num_scrambled_semantic=8&num_scrambled_causal=4&num_scrambled_schematic=4&participantId=5C598EC41BCB461B95A75E8D255C46C8&assignmentId=77561901-afa2-4d78-86dc-d4fbc074c95f&projectId=051c06f1-75cc-4548-856d-4923ddaba0dc","5C598EC41BCB461B95A75E8D255C46C8-2025-05-15-19-17-58","","null","","[]","null","",""
"","","","","","image-button-response","49","378952","0.0-10.0-1.0-0.8","5C598EC41BCB461B95A75E8D255C46C8","5C598EC41BCB461B95A75E8D255C46C8","77561901-afa2-4d78-86dc-d4fbc074c95f","051c06f1-75cc-4548-856d-4923ddaba0dc","{""num_scrambled_semantic"":""8"",""num_scrambled_causal"":""4"",""num_scrambled_schematic"":""4"",""participantId"":""5C598EC41BCB461B95A75E8D255C46C8"",""assignmentId"":""77561901-afa2-4d78-86dc-d4fbc074c95f"",""projectId"":""051c06f1-75cc-4548-856d-4923ddaba0dc""}","https://test12345.live/?num_scrambled_semantic=8&num_scrambled_causal=4&num_scrambled_schematic=4&participantId=5C598EC41BCB461B95A75E8D255C46C8&assignmentId=77561901-afa2-4d78-86dc-d4fbc074c95f&projectId=051c06f1-75cc-4548-856d-4923ddaba0dc","5C598EC41BCB461B95A75E8D255C46C8-2025-05-15-19-17-58","","null","","images/semantic_sequence/kitchen_operations_semantic/kitchen_operations_semantic_2.png","null","",""
"","","","","","image-button-response","50","379652","0.0-10.0-1.0-1.8","5C598EC41BCB461B95A75E8D255C46C8","5C598EC41BCB461B95A75E8D255C46C8","77561901-afa2-4d78-86dc-d4fbc074c95f","051c06f1-75cc-4548-856d-4923ddaba0dc","{""num_scrambled_semantic"":""8"",""num_scrambled_causal"":""4"",""num_scrambled_schematic"":""4"",""participantId"":""5C598EC41BCB461B95A75E8D255C46C8"",""assignmentId"":""77561901-afa2-4d78-86dc-d4fbc074c95f"",""projectId"":""051c06f1-75cc-4548-856d-4923ddaba0dc""}","https://test12345.live/?num_scrambled_semantic=8&num_scrambled_causal=4&num_scrambled_schematic=4&participantId=5C598EC41BCB461B95A75E8D255C46C8&assignmentId=77561901-afa2-4d78-86dc-d4fbc074c95f&projectId=051c06f1-75cc-4548-856d-4923ddaba0dc","5C598EC41BCB461B95A75E8D255C46C8-2025-05-15-19-17-58","","699","","images/semantic_sequence/kitchen_operations_semantic/kitchen_operations_semantic_2.png","0","",""
"","","","","","image-button-response","51","381467","0.0-10.0-1.0-2.8","5C598EC41BCB461B95A75E8D255C46C8","5C598EC41BCB461B95A75E8D255C46C8","77561901-afa2-4d78-86dc-d4fbc074c95f","051c06f1-75cc-4548-856d-4923ddaba0dc","{""num_scrambled_semantic"":""8"",""num_scrambled_causal"":""4"",""num_scrambled_schematic"":""4"",""participantId"":""5C598EC41BCB461B95A75E8D255C46C8"",""assignmentId"":""77561901-afa2-4d78-86dc-d4fbc074c95f"",""projectId"":""051c06f1-75cc-4548-856d-4923ddaba0dc""}","https://test12345.live/?num_scrambled_semantic=8&num_scrambled_causal=4&num_scrambled_schematic=4&participantId=5C598EC41BCB461B95A75E8D255C46C8&assignmentId=77561901-afa2-4d78-86dc-d4fbc074c95f&projectId=051c06f1-75cc-4548-856d-4923ddaba0dc","5C598EC41BCB461B95A75E8D255C46C8-2025-05-15-19-17-58","","null","","[]","null","",""
"","","","","","image-button-response","52","385981","0.0-10.0-1.0-0.9","5C598EC41BCB461B95A75E8D255C46C8","5C598EC41BCB461B95A75E8D255C46C8","77561901-afa2-4d78-86dc-d4fbc074c95f","051c06f1-75cc-4548-856d-4923ddaba0dc","{""num_scrambled_semantic"":""8"",""num_scrambled_causal"":""4"",""num_scrambled_schematic"":""4"",""participantId"":""5C598EC41BCB461B95A75E8D255C46C8"",""assignmentId"":""77561901-afa2-4d78-86dc-d4fbc074c95f"",""projectId"":""051c06f1-75cc-4548-856d-4923ddaba0dc""}","https://test12345.live/?num_scrambled_semantic=8&num_scrambled_causal=4&num_scrambled_schematic=4&participantId=5C598EC41BCB461B95A75E8D255C46C8&assignmentId=77561901-afa2-4d78-86dc-d4fbc074c95f&projectId=051c06f1-75cc-4548-856d-4923ddaba0dc","5C598EC41BCB461B95A75E8D255C46C8-2025-05-15-19-17-58","","null","","images/semantic_sequence/kitchen_operations_semantic/kitchen_operations_semantic_1.png","null","",""
"","","","","","image-button-response","53","387269","0.0-10.0-1.0-1.9","5C598EC41BCB461B95A75E8D255C46C8","5C598EC41BCB461B95A75E8D255C46C8","77561901-afa2-4d78-86dc-d4fbc074c95f","051c06f1-75cc-4548-856d-4923ddaba0dc","{""num_scrambled_semantic"":""8"",""num_scrambled_causal"":""4"",""num_scrambled_schematic"":""4"",""participantId"":""5C598EC41BCB461B95A75E8D255C46C8"",""assignmentId"":""77561901-afa2-4d78-86dc-d4fbc074c95f"",""projectId"":""051c06f1-75cc-4548-856d-4923ddaba0dc""}","https://test12345.live/?num_scrambled_semantic=8&num_scrambled_causal=4&num_scrambled_schematic=4&participantId=5C598EC41BCB461B95A75E8D255C46C8&assignmentId=77561901-afa2-4d78-86dc-d4fbc074c95f&projectId=051c06f1-75cc-4548-856d-4923ddaba0dc","5C598EC41BCB461B95A75E8D255C46C8-2025-05-15-19-17-58","","1288","","images/semantic_sequence/kitchen_operations_semantic/kitchen_operations_semantic_1.png","0","",""
"","","","","","image-button-response","54","389078","0.0-10.0-1.0-2.9","5C598EC41BCB461B95A75E8D255C46C8","5C598EC41BCB461B95A75E8D255C46C8","77561901-afa2-4d78-86dc-d4fbc074c95f","051c06f1-75cc-4548-856d-4923ddaba0dc","{""num_scrambled_semantic"":""8"",""num_scrambled_causal"":""4"",""num_scrambled_schematic"":""4"",""participantId"":""5C598EC41BCB461B95A75E8D255C46C8"",""assignmentId"":""77561901-afa2-4d78-86dc-d4fbc074c95f"",""projectId"":""051c06f1-75cc-4548-856d-4923ddaba0dc""}","https://test12345.live/?num_scrambled_semantic=8&num_scrambled_causal=4&num_scrambled_schematic=4&participantId=5C598EC41BCB461B95A75E8D255C46C8&assignmentId=77561901-afa2-4d78-86dc-d4fbc074c95f&projectId=051c06f1-75cc-4548-856d-4923ddaba0dc","5C598EC41BCB461B95A75E8D255C46C8-2025-05-15-19-17-58","","null","","[]","null","",""
"","","","","","html-audio-response","55","480115","0.0-11.0","5C598EC41BCB461B95A75E8D255C46C8","5C598EC41BCB461B95A75E8D255C46C8","77561901-afa2-4d78-86dc-d4fbc074c95f","051c06f1-75cc-4548-856d-4923ddaba0dc","{""num_scrambled_semantic"":""8"",""num_scrambled_causal"":""4"",""num_scrambled_schematic"":""4"",""participantId"":""5C598EC41BCB461B95A75E8D255C46C8"",""assignmentId"":""77561901-afa2-4d78-86dc-d4fbc074c95f"",""projectId"":""051c06f1-75cc-4548-856d-4923ddaba0dc""}","https://test12345.live/?num_scrambled_semantic=8&num_scrambled_causal=4&num_scrambled_schematic=4&participantId=5C598EC41BCB461B95A75E8D255C46C8&assignmentId=77561901-afa2-4d78-86dc-d4fbc074c95f&projectId=051c06f1-75cc-4548-856d-4923ddaba0dc","5C598EC41BCB461B95A75E8D255C46C8-2025-05-15-19-17-58","","44274","","[""<span style=\""color: red; font-size: 24px\""> NOW RECORDING</span><p>Please say out loud all the images you saw, as many as you can remember. The images can be said in any order.</p>""]","","0","kitchen_operations_semantic"
"","","","","","image-button-response","56","486127","0.0-12.0-0.0","5C598EC41BCB461B95A75E8D255C46C8","5C598EC41BCB461B95A75E8D255C46C8","77561901-afa2-4d78-86dc-d4fbc074c95f","051c06f1-75cc-4548-856d-4923ddaba0dc","{""num_scrambled_semantic"":""8"",""num_scrambled_causal"":""4"",""num_scrambled_schematic"":""4"",""participantId"":""5C598EC41BCB461B95A75E8D255C46C8"",""assignmentId"":""77561901-afa2-4d78-86dc-d4fbc074c95f"",""projectId"":""051c06f1-75cc-4548-856d-4923ddaba0dc""}","https://test12345.live/?num_scrambled_semantic=8&num_scrambled_causal=4&num_scrambled_schematic=4&participantId=5C598EC41BCB461B95A75E8D255C46C8&assignmentId=77561901-afa2-4d78-86dc-d4fbc074c95f&projectId=051c06f1-75cc-4548-856d-4923ddaba0dc","5C598EC41BCB461B95A75E8D255C46C8-2025-05-15-19-17-58","","null","","images/semantic_sequence/using_technology_semantic/using_technology_semantic_0.png","null","",""
"","","","","","image-button-response","57","490633","0.0-12.0-1.0-0.0","5C598EC41BCB461B95A75E8D255C46C8","5C598EC41BCB461B95A75E8D255C46C8","77561901-afa2-4d78-86dc-d4fbc074c95f","051c06f1-75cc-4548-856d-4923ddaba0dc","{""num_scrambled_semantic"":""8"",""num_scrambled_causal"":""4"",""num_scrambled_schematic"":""4"",""participantId"":""5C598EC41BCB461B95A75E8D255C46C8"",""assignmentId"":""77561901-afa2-4d78-86dc-d4fbc074c95f"",""projectId"":""051c06f1-75cc-4548-856d-4923ddaba0dc""}","https://test12345.live/?num_scrambled_semantic=8&num_scrambled_causal=4&num_scrambled_schematic=4&participantId=5C598EC41BCB461B95A75E8D255C46C8&assignmentId=77561901-afa2-4d78-86dc-d4fbc074c95f&projectId=051c06f1-75cc-4548-856d-4923ddaba0dc","5C598EC41BCB461B95A75E8D255C46C8-2025-05-15-19-17-58","","null","","images/semantic_sequence/using_technology_semantic/using_technology_semantic_5.png","null","",""
"","","","","","image-button-response","58","491770","0.0-12.0-1.0-1.0","5C598EC41BCB461B95A75E8D255C46C8","5C598EC41BCB461B95A75E8D255C46C8","77561901-afa2-4d78-86dc-d4fbc074c95f","051c06f1-75cc-4548-856d-4923ddaba0dc","{""num_scrambled_semantic"":""8"",""num_scrambled_causal"":""4"",""num_scrambled_schematic"":""4"",""participantId"":""5C598EC41BCB461B95A75E8D255C46C8"",""assignmentId"":""77561901-afa2-4d78-86dc-d4fbc074c95f"",""projectId"":""051c06f1-75cc-4548-856d-4923ddaba0dc""}","https://test12345.live/?num_scrambled_semantic=8&num_scrambled_causal=4&num_scrambled_schematic=4&participantId=5C598EC41BCB461B95A75E8D255C46C8&assignmentId=77561901-afa2-4d78-86dc-d4fbc074c95f&projectId=051c06f1-75cc-4548-856d-4923ddaba0dc","5C598EC41BCB461B95A75E8D255C46C8-2025-05-15-19-17-58","","1137","","images/semantic_sequence/using_technology_semantic/using_technology_semantic_5.png","0","",""
"","","","","","image-button-response","59","493581","0.0-12.0-1.0-2.0","5C598EC41BCB461B95A75E8D255C46C8","5C598EC41BCB461B95A75E8D255C46C8","77561901-afa2-4d78-86dc-d4fbc074c95f","051c06f1-75cc-4548-856d-4923ddaba0dc","{""num_scrambled_semantic"":""8"",""num_scrambled_causal"":""4"",""num_scrambled_schematic"":""4"",""participantId"":""5C598EC41BCB461B95A75E8D255C46C8"",""assignmentId"":""77561901-afa2-4d78-86dc-d4fbc074c95f"",""projectId"":""051c06f1-75cc-4548-856d-4923ddaba0dc""}","https://test12345.live/?num_scrambled_semantic=8&num_scrambled_causal=4&num_scrambled_schematic=4&participantId=5C598EC41BCB461B95A75E8D255C46C8&assignmentId=77561901-afa2-4d78-86dc-d4fbc074c95f&projectId=051c06f1-75cc-4548-856d-4923ddaba0dc","5C598EC41BCB461B95A75E8D255C46C8-2025-05-15-19-17-58","","null","","[]","null","",""
"","","","","","image-button-response","60","498082","0.0-12.0-1.0-0.1","5C598EC41BCB461B95A75E8D255C46C8","5C598EC41BCB461B95A75E8D255C46C8","77561901-afa2-4d78-86dc-d4fbc074c95f","051c06f1-75cc-4548-856d-4923ddaba0dc","{""num_scrambled_semantic"":""8"",""num_scrambled_causal"":""4"",""num_scrambled_schematic"":""4"",""participantId"":""5C598EC41BCB461B95A75E8D255C46C8"",""assignmentId"":""77561901-afa2-4d78-86dc-d4fbc074c95f"",""projectId"":""051c06f1-75cc-4548-856d-4923ddaba0dc""}","https://test12345.live/?num_scrambled_semantic=8&num_scrambled_causal=4&num_scrambled_schematic=4&participantId=5C598EC41BCB461B95A75E8D255C46C8&assignmentId=77561901-afa2-4d78-86dc-d4fbc074c95f&projectId=051c06f1-75cc-4548-856d-4923ddaba0dc","5C598EC41BCB461B95A75E8D255C46C8-2025-05-15-19-17-58","","null","","images/semantic_sequence/using_technology_semantic/using_technology_semantic_6.png","null","",""
"","","","","","image-button-response","61","499208","0.0-12.0-1.0-1.1","5C598EC41BCB461B95A75E8D255C46C8","5C598EC41BCB461B95A75E8D255C46C8","77561901-afa2-4d78-86dc-d4fbc074c95f","051c06f1-75cc-4548-856d-4923ddaba0dc","{""num_scrambled_semantic"":""8"",""num_scrambled_causal"":""4"",""num_scrambled_schematic"":""4"",""participantId"":""5C598EC41BCB461B95A75E8D255C46C8"",""assignmentId"":""77561901-afa2-4d78-86dc-d4fbc074c95f"",""projectId"":""051c06f1-75cc-4548-856d-4923ddaba0dc""}","https://test12345.live/?num_scrambled_semantic=8&num_scrambled_causal=4&num_scrambled_schematic=4&participantId=5C598EC41BCB461B95A75E8D255C46C8&assignmentId=77561901-afa2-4d78-86dc-d4fbc074c95f&projectId=051c06f1-75cc-4548-856d-4923ddaba0dc","5C598EC41BCB461B95A75E8D255C46C8-2025-05-15-19-17-58","","1125","","images/semantic_sequence/using_technology_semantic/using_technology_semantic_6.png","0","",""
"","","","","","image-button-response","62","501013","0.0-12.0-1.0-2.1","5C598EC41BCB461B95A75E8D255C46C8","5C598EC41BCB461B95A75E8D255C46C8","77561901-afa2-4d78-86dc-d4fbc074c95f","051c06f1-75cc-4548-856d-4923ddaba0dc","{""num_scrambled_semantic"":""8"",""num_scrambled_causal"":""4"",""num_scrambled_schematic"":""4"",""participantId"":""5C598EC41BCB461B95A75E8D255C46C8"",""assignmentId"":""77561901-afa2-4d78-86dc-d4fbc074c95f"",""projectId"":""051c06f1-75cc-4548-856d-4923ddaba0dc""}","https://test12345.live/?num_scrambled_semantic=8&num_scrambled_causal=4&num_scrambled_schematic=4&participantId=5C598EC41BCB461B95A75E8D255C46C8&assignmentId=77561901-afa2-4d78-86dc-d4fbc074c95f&projectId=051c06f1-75cc-4548-856d-4923ddaba0dc","5C598EC41BCB461B95A75E8D255C46C8-2025-05-15-19-17-58","","null","","[]","null","",""
"","","","","","image-button-response","63","505514","0.0-12.0-1.0-0.2","5C598EC41BCB461B95A75E8D255C46C8","5C598EC41BCB461B95A75E8D255C46C8","77561901-afa2-4d78-86dc-d4fbc074c95f","051c06f1-75cc-4548-856d-4923ddaba0dc","{""num_scrambled_semantic"":""8"",""num_scrambled_causal"":""4"",""num_scrambled_schematic"":""4"",""participantId"":""5C598EC41BCB461B95A75E8D255C46C8"",""assignmentId"":""77561901-afa2-4d78-86dc-d4fbc074c95f"",""projectId"":""051c06f1-75cc-4548-856d-4923ddaba0dc""}","https://test12345.live/?num_scrambled_semantic=8&num_scrambled_causal=4&num_scrambled_schematic=4&participantId=5C598EC41BCB461B95A75E8D255C46C8&assignmentId=77561901-afa2-4d78-86dc-d4fbc074c95f&projectId=051c06f1-75cc-4548-856d-4923ddaba0dc","5C598EC41BCB461B95A75E8D255C46C8-2025-05-15-19-17-58","","null","","images/semantic_sequence/using_technology_semantic/using_technology_semantic_9.png","null","",""
"","","","","","image-button-response","64","506338","0.0-12.0-1.0-1.2","5C598EC41BCB461B95A75E8D255C46C8","5C598EC41BCB461B95A75E8D255C46C8","77561901-afa2-4d78-86dc-d4fbc074c95f","051c06f1-75cc-4548-856d-4923ddaba0dc","{""num_scrambled_semantic"":""8"",""num_scrambled_causal"":""4"",""num_scrambled_schematic"":""4"",""participantId"":""5C598EC41BCB461B95A75E8D255C46C8"",""assignmentId"":""77561901-afa2-4d78-86dc-d4fbc074c95f"",""projectId"":""051c06f1-75cc-4548-856d-4923ddaba0dc""}","https://test12345.live/?num_scrambled_semantic=8&num_scrambled_causal=4&num_scrambled_schematic=4&participantId=5C598EC41BCB461B95A75E8D255C46C8&assignmentId=77561901-afa2-4d78-86dc-d4fbc074c95f&projectId=051c06f1-75cc-4548-856d-4923ddaba0dc","5C598EC41BCB461B95A75E8D255C46C8-2025-05-15-19-17-58","","823","","images/semantic_sequence/using_technology_semantic/using_technology_semantic_9.png","0","",""
"","","","","","image-button-response","65","508152","0.0-12.0-1.0-2.2","5C598EC41BCB461B95A75E8D255C46C8","5C598EC41BCB461B95A75E8D255C46C8","77561901-afa2-4d78-86dc-d4fbc074c95f","051c06f1-75cc-4548-856d-4923ddaba0dc","{""num_scrambled_semantic"":""8"",""num_scrambled_causal"":""4"",""num_scrambled_schematic"":""4"",""participantId"":""5C598EC41BCB461B95A75E8D255C46C8"",""assignmentId"":""77561901-afa2-4d78-86dc-d4fbc074c95f"",""projectId"":""051c06f1-75cc-4548-856d-4923ddaba0dc""}","https://test12345.live/?num_scrambled_semantic=8&num_scrambled_causal=4&num_scrambled_schematic=4&participantId=5C598EC41BCB461B95A75E8D255C46C8&assignmentId=77561901-afa2-4d78-86dc-d4fbc074c95f&projectId=051c06f1-75cc-4548-856d-4923ddaba0dc","5C598EC41BCB461B95A75E8D255C46C8-2025-05-15-19-17-58","","null","","[]","null","",""
"","","","","","image-button-response","66","512662","0.0-12.0-1.0-0.3","5C598EC41BCB461B95A75E8D255C46C8","5C598EC41BCB461B95A75E8D255C46C8","77561901-afa2-4d78-86dc-d4fbc074c95f","051c06f1-75cc-4548-856d-4923ddaba0dc","{""num_scrambled_semantic"":""8"",""num_scrambled_causal"":""4"",""num_scrambled_schematic"":""4"",""participantId"":""5C598EC41BCB461B95A75E8D255C46C8"",""assignmentId"":""77561901-afa2-4d78-86dc-d4fbc074c95f"",""projectId"":""051c06f1-75cc-4548-856d-4923ddaba0dc""}","https://test12345.live/?num_scrambled_semantic=8&num_scrambled_causal=4&num_scrambled_schematic=4&participantId=5C598EC41BCB461B95A75E8D255C46C8&assignmentId=77561901-afa2-4d78-86dc-d4fbc074c95f&projectId=051c06f1-75cc-4548-856d-4923ddaba0dc","5C598EC41BCB461B95A75E8D255C46C8-2025-05-15-19-17-58","","null","","images/semantic_sequence/using_technology_semantic/using_technology_semantic_4.png","null","",""
"","","","","","image-button-response","67","513414","0.0-12.0-1.0-1.3","5C598EC41BCB461B95A75E8D255C46C8","5C598EC41BCB461B95A75E8D255C46C8","77561901-afa2-4d78-86dc-d4fbc074c95f","051c06f1-75cc-4548-856d-4923ddaba0dc","{""num_scrambled_semantic"":""8"",""num_scrambled_causal"":""4"",""num_scrambled_schematic"":""4"",""participantId"":""5C598EC41BCB461B95A75E8D255C46C8"",""assignmentId"":""77561901-afa2-4d78-86dc-d4fbc074c95f"",""projectId"":""051c06f1-75cc-4548-856d-4923ddaba0dc""}","https://test12345.live/?num_scrambled_semantic=8&num_scrambled_causal=4&num_scrambled_schematic=4&participantId=5C598EC41BCB461B95A75E8D255C46C8&assignmentId=77561901-afa2-4d78-86dc-d4fbc074c95f&projectId=051c06f1-75cc-4548-856d-4923ddaba0dc","5C598EC41BCB461B95A75E8D255C46C8-2025-05-15-19-17-58","","752","","images/semantic_sequence/using_technology_semantic/using_technology_semantic_4.png","0","",""
"","","","","","image-button-response","68","515224","0.0-12.0-1.0-2.3","5C598EC41BCB461B95A75E8D255C46C8","5C598EC41BCB461B95A75E8D255C46C8","77561901-afa2-4d78-86dc-d4fbc074c95f","051c06f1-75cc-4548-856d-4923ddaba0dc","{""num_scrambled_semantic"":""8"",""num_scrambled_causal"":""4"",""num_scrambled_schematic"":""4"",""participantId"":""5C598EC41BCB461B95A75E8D255C46C8"",""assignmentId"":""77561901-afa2-4d78-86dc-d4fbc074c95f"",""projectId"":""051c06f1-75cc-4548-856d-4923ddaba0dc""}","https://test12345.live/?num_scrambled_semantic=8&num_scrambled_causal=4&num_scrambled_schematic=4&participantId=5C598EC41BCB461B95A75E8D255C46C8&assignmentId=77561901-afa2-4d78-86dc-d4fbc074c95f&projectId=051c06f1-75cc-4548-856d-4923ddaba0dc","5C598EC41BCB461B95A75E8D255C46C8-2025-05-15-19-17-58","","null","","[]","null","",""
"","","","","","image-button-response","69","519725","0.0-12.0-1.0-0.4","5C598EC41BCB461B95A75E8D255C46C8","5C598EC41BCB461B95A75E8D255C46C8","77561901-afa2-4d78-86dc-d4fbc074c95f","051c06f1-75cc-4548-856d-4923ddaba0dc","{""num_scrambled_semantic"":""8"",""num_scrambled_causal"":""4"",""num_scrambled_schematic"":""4"",""participantId"":""5C598EC41BCB461B95A75E8D255C46C8"",""assignmentId"":""77561901-afa2-4d78-86dc-d4fbc074c95f"",""projectId"":""051c06f1-75cc-4548-856d-4923ddaba0dc""}","https://test12345.live/?num_scrambled_semantic=8&num_scrambled_causal=4&num_scrambled_schematic=4&participantId=5C598EC41BCB461B95A75E8D255C46C8&assignmentId=77561901-afa2-4d78-86dc-d4fbc074c95f&projectId=051c06f1-75cc-4548-856d-4923ddaba0dc","5C598EC41BCB461B95A75E8D255C46C8-2025-05-15-19-17-58","","null","","images/semantic_sequence/using_technology_semantic/using_technology_semantic_1.png","null","",""
"","","","","","image-button-response","70","520735","0.0-12.0-1.0-1.4","5C598EC41BCB461B95A75E8D255C46C8","5C598EC41BCB461B95A75E8D255C46C8","77561901-afa2-4d78-86dc-d4fbc074c95f","051c06f1-75cc-4548-856d-4923ddaba0dc","{""num_scrambled_semantic"":""8"",""num_scrambled_causal"":""4"",""num_scrambled_schematic"":""4"",""participantId"":""5C598EC41BCB461B95A75E8D255C46C8"",""assignmentId"":""77561901-afa2-4d78-86dc-d4fbc074c95f"",""projectId"":""051c06f1-75cc-4548-856d-4923ddaba0dc""}","https://test12345.live/?num_scrambled_semantic=8&num_scrambled_causal=4&num_scrambled_schematic=4&participantId=5C598EC41BCB461B95A75E8D255C46C8&assignmentId=77561901-afa2-4d78-86dc-d4fbc074c95f&projectId=051c06f1-75cc-4548-856d-4923ddaba0dc","5C598EC41BCB461B95A75E8D255C46C8-2025-05-15-19-17-58","","1010","","images/semantic_sequence/using_technology_semantic/using_technology_semantic_1.png","0","",""
"","","","","","image-button-response","71","522551","0.0-12.0-1.0-2.4","5C598EC41BCB461B95A75E8D255C46C8","5C598EC41BCB461B95A75E8D255C46C8","77561901-afa2-4d78-86dc-d4fbc074c95f","051c06f1-75cc-4548-856d-4923ddaba0dc","{""num_scrambled_semantic"":""8"",""num_scrambled_causal"":""4"",""num_scrambled_schematic"":""4"",""participantId"":""5C598EC41BCB461B95A75E8D255C46C8"",""assignmentId"":""77561901-afa2-4d78-86dc-d4fbc074c95f"",""projectId"":""051c06f1-75cc-4548-856d-4923ddaba0dc""}","https://test12345.live/?num_scrambled_semantic=8&num_scrambled_causal=4&num_scrambled_schematic=4&participantId=5C598EC41BCB461B95A75E8D255C46C8&assignmentId=77561901-afa2-4d78-86dc-d4fbc074c95f&projectId=051c06f1-75cc-4548-856d-4923ddaba0dc","5C598EC41BCB461B95A75E8D255C46C8-2025-05-15-19-17-58","","null","","[]","null","",""
"","","","","","image-button-response","72","527052","0.0-12.0-1.0-0.5","5C598EC41BCB461B95A75E8D255C46C8","5C598EC41BCB461B95A75E8D255C46C8","77561901-afa2-4d78-86dc-d4fbc074c95f","051c06f1-75cc-4548-856d-4923ddaba0dc","{""num_scrambled_semantic"":""8"",""num_scrambled_causal"":""4"",""num_scrambled_schematic"":""4"",""participantId"":""5C598EC41BCB461B95A75E8D255C46C8"",""assignmentId"":""77561901-afa2-4d78-86dc-d4fbc074c95f"",""projectId"":""051c06f1-75cc-4548-856d-4923ddaba0dc""}","https://test12345.live/?num_scrambled_semantic=8&num_scrambled_causal=4&num_scrambled_schematic=4&participantId=5C598EC41BCB461B95A75E8D255C46C8&assignmentId=77561901-afa2-4d78-86dc-d4fbc074c95f&projectId=051c06f1-75cc-4548-856d-4923ddaba0dc","5C598EC41BCB461B95A75E8D255C46C8-2025-05-15-19-17-58","","null","","images/semantic_sequence/using_technology_semantic/using_technology_semantic_7.png","null","",""
"","","","","","image-button-response","73","528104","0.0-12.0-1.0-1.5","5C598EC41BCB461B95A75E8D255C46C8","5C598EC41BCB461B95A75E8D255C46C8","77561901-afa2-4d78-86dc-d4fbc074c95f","051c06f1-75cc-4548-856d-4923ddaba0dc","{""num_scrambled_semantic"":""8"",""num_scrambled_causal"":""4"",""num_scrambled_schematic"":""4"",""participantId"":""5C598EC41BCB461B95A75E8D255C46C8"",""assignmentId"":""77561901-afa2-4d78-86dc-d4fbc074c95f"",""projectId"":""051c06f1-75cc-4548-856d-4923ddaba0dc""}","https://test12345.live/?num_scrambled_semantic=8&num_scrambled_causal=4&num_scrambled_schematic=4&participantId=5C598EC41BCB461B95A75E8D255C46C8&assignmentId=77561901-afa2-4d78-86dc-d4fbc074c95f&projectId=051c06f1-75cc-4548-856d-4923ddaba0dc","5C598EC41BCB461B95A75E8D255C46C8-2025-05-15-19-17-58","","1052","","images/semantic_sequence/using_technology_semantic/using_technology_semantic_7.png","0","",""
"","","","","","image-button-response","74","529919","0.0-12.0-1.0-2.5","5C598EC41BCB461B95A75E8D255C46C8","5C598EC41BCB461B95A75E8D255C46C8","77561901-afa2-4d78-86dc-d4fbc074c95f","051c06f1-75cc-4548-856d-4923ddaba0dc","{""num_scrambled_semantic"":""8"",""num_scrambled_causal"":""4"",""num_scrambled_schematic"":""4"",""participantId"":""5C598EC41BCB461B95A75E8D255C46C8"",""assignmentId"":""77561901-afa2-4d78-86dc-d4fbc074c95f"",""projectId"":""051c06f1-75cc-4548-856d-4923ddaba0dc""}","https://test12345.live/?num_scrambled_semantic=8&num_scrambled_causal=4&num_scrambled_schematic=4&participantId=5C598EC41BCB461B95A75E8D255C46C8&assignmentId=77561901-afa2-4d78-86dc-d4fbc074c95f&projectId=051c06f1-75cc-4548-856d-4923ddaba0dc","5C598EC41BCB461B95A75E8D255C46C8-2025-05-15-19-17-58","","null","","[]","null","",""
"","","","","","image-button-response","75","534426","0.0-12.0-1.0-0.6","5C598EC41BCB461B95A75E8D255C46C8","5C598EC41BCB461B95A75E8D255C46C8","77561901-afa2-4d78-86dc-d4fbc074c95f","051c06f1-75cc-4548-856d-4923ddaba0dc","{""num_scrambled_semantic"":""8"",""num_scrambled_causal"":""4"",""num_scrambled_schematic"":""4"",""participantId"":""5C598EC41BCB461B95A75E8D255C46C8"",""assignmentId"":""77561901-afa2-4d78-86dc-d4fbc074c95f"",""projectId"":""051c06f1-75cc-4548-856d-4923ddaba0dc""}","https://test12345.live/?num_scrambled_semantic=8&num_scrambled_causal=4&num_scrambled_schematic=4&participantId=5C598EC41BCB461B95A75E8D255C46C8&assignmentId=77561901-afa2-4d78-86dc-d4fbc074c95f&projectId=051c06f1-75cc-4548-856d-4923ddaba0dc","5C598EC41BCB461B95A75E8D255C46C8-2025-05-15-19-17-58","","null","","images/semantic_sequence/using_technology_semantic/using_technology_semantic_8.png","null","",""
"","","","","","image-button-response","76","535192","0.0-12.0-1.0-1.6","5C598EC41BCB461B95A75E8D255C46C8","5C598EC41BCB461B95A75E8D255C46C8","77561901-afa2-4d78-86dc-d4fbc074c95f","051c06f1-75cc-4548-856d-4923ddaba0dc","{""num_scrambled_semantic"":""8"",""num_scrambled_causal"":""4"",""num_scrambled_schematic"":""4"",""participantId"":""5C598EC41BCB461B95A75E8D255C46C8"",""assignmentId"":""77561901-afa2-4d78-86dc-d4fbc074c95f"",""projectId"":""051c06f1-75cc-4548-856d-4923ddaba0dc""}","https://test12345.live/?num_scrambled_semantic=8&num_scrambled_causal=4&num_scrambled_schematic=4&participantId=5C598EC41BCB461B95A75E8D255C46C8&assignmentId=77561901-afa2-4d78-86dc-d4fbc074c95f&projectId=051c06f1-75cc-4548-856d-4923ddaba0dc","5C598EC41BCB461B95A75E8D255C46C8-2025-05-15-19-17-58","","766","","images/semantic_sequence/using_technology_semantic/using_technology_semantic_8.png","0","",""
"","","","","","image-button-response","77","537005","0.0-12.0-1.0-2.6","5C598EC41BCB461B95A75E8D255C46C8","5C598EC41BCB461B95A75E8D255C46C8","77561901-afa2-4d78-86dc-d4fbc074c95f","051c06f1-75cc-4548-856d-4923ddaba0dc","{""num_scrambled_semantic"":""8"",""num_scrambled_causal"":""4"",""num_scrambled_schematic"":""4"",""participantId"":""5C598EC41BCB461B95A75E8D255C46C8"",""assignmentId"":""77561901-afa2-4d78-86dc-d4fbc074c95f"",""projectId"":""051c06f1-75cc-4548-856d-4923ddaba0dc""}","https://test12345.live/?num_scrambled_semantic=8&num_scrambled_causal=4&num_scrambled_schematic=4&participantId=5C598EC41BCB461B95A75E8D255C46C8&assignmentId=77561901-afa2-4d78-86dc-d4fbc074c95f&projectId=051c06f1-75cc-4548-856d-4923ddaba0dc","5C598EC41BCB461B95A75E8D255C46C8-2025-05-15-19-17-58","","null","","[]","null","",""
"","","","","","image-button-response","78","541511","0.0-12.0-1.0-0.7","5C598EC41BCB461B95A75E8D255C46C8","5C598EC41BCB461B95A75E8D255C46C8","77561901-afa2-4d78-86dc-d4fbc074c95f","051c06f1-75cc-4548-856d-4923ddaba0dc","{""num_scrambled_semantic"":""8"",""num_scrambled_causal"":""4"",""num_scrambled_schematic"":""4"",""participantId"":""5C598EC41BCB461B95A75E8D255C46C8"",""assignmentId"":""77561901-afa2-4d78-86dc-d4fbc074c95f"",""projectId"":""051c06f1-75cc-4548-856d-4923ddaba0dc""}","https://test12345.live/?num_scrambled_semantic=8&num_scrambled_causal=4&num_scrambled_schematic=4&participantId=5C598EC41BCB461B95A75E8D255C46C8&assignmentId=77561901-afa2-4d78-86dc-d4fbc074c95f&projectId=051c06f1-75cc-4548-856d-4923ddaba0dc","5C598EC41BCB461B95A75E8D255C46C8-2025-05-15-19-17-58","","null","","images/semantic_sequence/using_technology_semantic/using_technology_semantic_3.png","null","",""
"","","","","","image-button-response","79","542313","0.0-12.0-1.0-1.7","5C598EC41BCB461B95A75E8D255C46C8","5C598EC41BCB461B95A75E8D255C46C8","77561901-afa2-4d78-86dc-d4fbc074c95f","051c06f1-75cc-4548-856d-4923ddaba0dc","{""num_scrambled_semantic"":""8"",""num_scrambled_causal"":""4"",""num_scrambled_schematic"":""4"",""participantId"":""5C598EC41BCB461B95A75E8D255C46C8"",""assignmentId"":""77561901-afa2-4d78-86dc-d4fbc074c95f"",""projectId"":""051c06f1-75cc-4548-856d-4923ddaba0dc""}","https://test12345.live/?num_scrambled_semantic=8&num_scrambled_causal=4&num_scrambled_schematic=4&participantId=5C598EC41BCB461B95A75E8D255C46C8&assignmentId=77561901-afa2-4d78-86dc-d4fbc074c95f&projectId=051c06f1-75cc-4548-856d-4923ddaba0dc","5C598EC41BCB461B95A75E8D255C46C8-2025-05-15-19-17-58","","801","","images/semantic_sequence/using_technology_semantic/using_technology_semantic_3.png","0","",""
"","","","","","image-button-response","80","544115","0.0-12.0-1.0-2.7","5C598EC41BCB461B95A75E8D255C46C8","5C598EC41BCB461B95A75E8D255C46C8","77561901-afa2-4d78-86dc-d4fbc074c95f","051c06f1-75cc-4548-856d-4923ddaba0dc","{""num_scrambled_semantic"":""8"",""num_scrambled_causal"":""4"",""num_scrambled_schematic"":""4"",""participantId"":""5C598EC41BCB461B95A75E8D255C46C8"",""assignmentId"":""77561901-afa2-4d78-86dc-d4fbc074c95f"",""projectId"":""051c06f1-75cc-4548-856d-4923ddaba0dc""}","https://test12345.live/?num_scrambled_semantic=8&num_scrambled_causal=4&num_scrambled_schematic=4&participantId=5C598EC41BCB461B95A75E8D255C46C8&assignmentId=77561901-afa2-4d78-86dc-d4fbc074c95f&projectId=051c06f1-75cc-4548-856d-4923ddaba0dc","5C598EC41BCB461B95A75E8D255C46C8-2025-05-15-19-17-58","","null","","[]","null","",""
"","","","","","image-button-response","81","548616","0.0-12.0-1.0-0.8","5C598EC41BCB461B95A75E8D255C46C8","5C598EC41BCB461B95A75E8D255C46C8","77561901-afa2-4d78-86dc-d4fbc074c95f","051c06f1-75cc-4548-856d-4923ddaba0dc","{""num_scrambled_semantic"":""8"",""num_scrambled_causal"":""4"",""num_scrambled_schematic"":""4"",""participantId"":""5C598EC41BCB461B95A75E8D255C46C8"",""assignmentId"":""77561901-afa2-4d78-86dc-d4fbc074c95f"",""projectId"":""051c06f1-75cc-4548-856d-4923ddaba0dc""}","https://test12345.live/?num_scrambled_semantic=8&num_scrambled_causal=4&num_scrambled_schematic=4&participantId=5C598EC41BCB461B95A75E8D255C46C8&assignmentId=77561901-afa2-4d78-86dc-d4fbc074c95f&projectId=051c06f1-75cc-4548-856d-4923ddaba0dc","5C598EC41BCB461B95A75E8D255C46C8-2025-05-15-19-17-58","","null","","images/semantic_sequence/using_technology_semantic/using_technology_semantic_2.png","null","",""
"","","","","","image-button-response","82","549792","0.0-12.0-1.0-1.8","5C598EC41BCB461B95A75E8D255C46C8","5C598EC41BCB461B95A75E8D255C46C8","77561901-afa2-4d78-86dc-d4fbc074c95f","051c06f1-75cc-4548-856d-4923ddaba0dc","{""num_scrambled_semantic"":""8"",""num_scrambled_causal"":""4"",""num_scrambled_schematic"":""4"",""participantId"":""5C598EC41BCB461B95A75E8D255C46C8"",""assignmentId"":""77561901-afa2-4d78-86dc-d4fbc074c95f"",""projectId"":""051c06f1-75cc-4548-856d-4923ddaba0dc""}","https://test12345.live/?num_scrambled_semantic=8&num_scrambled_causal=4&num_scrambled_schematic=4&participantId=5C598EC41BCB461B95A75E8D255C46C8&assignmentId=77561901-afa2-4d78-86dc-d4fbc074c95f&projectId=051c06f1-75cc-4548-856d-4923ddaba0dc","5C598EC41BCB461B95A75E8D255C46C8-2025-05-15-19-17-58","","1175","","images/semantic_sequence/using_technology_semantic/using_technology_semantic_2.png","0","",""
"","","","","","image-button-response","83","551604","0.0-12.0-1.0-2.8","5C598EC41BCB461B95A75E8D255C46C8","5C598EC41BCB461B95A75E8D255C46C8","77561901-afa2-4d78-86dc-d4fbc074c95f","051c06f1-75cc-4548-856d-4923ddaba0dc","{""num_scrambled_semantic"":""8"",""num_scrambled_causal"":""4"",""num_scrambled_schematic"":""4"",""participantId"":""5C598EC41BCB461B95A75E8D255C46C8"",""assignmentId"":""77561901-afa2-4d78-86dc-d4fbc074c95f"",""projectId"":""051c06f1-75cc-4548-856d-4923ddaba0dc""}","https://test12345.live/?num_scrambled_semantic=8&num_scrambled_causal=4&num_scrambled_schematic=4&participantId=5C598EC41BCB461B95A75E8D255C46C8&assignmentId=77561901-afa2-4d78-86dc-d4fbc074c95f&projectId=051c06f1-75cc-4548-856d-4923ddaba0dc","5C598EC41BCB461B95A75E8D255C46C8-2025-05-15-19-17-58","","null","","[]","null","",""
"","","","","","image-button-response","84","556105","0.0-12.0-1.0-0.9","5C598EC41BCB461B95A75E8D255C46C8","5C598EC41BCB461B95A75E8D255C46C8","77561901-afa2-4d78-86dc-d4fbc074c95f","051c06f1-75cc-4548-856d-4923ddaba0dc","{""num_scrambled_semantic"":""8"",""num_scrambled_causal"":""4"",""num_scrambled_schematic"":""4"",""participantId"":""5C598EC41BCB461B95A75E8D255C46C8"",""assignmentId"":""77561901-afa2-4d78-86dc-d4fbc074c95f"",""projectId"":""051c06f1-75cc-4548-856d-4923ddaba0dc""}","https://test12345.live/?num_scrambled_semantic=8&num_scrambled_causal=4&num_scrambled_schematic=4&participantId=5C598EC41BCB461B95A75E8D255C46C8&assignmentId=77561901-afa2-4d78-86dc-d4fbc074c95f&projectId=051c06f1-75cc-4548-856d-4923ddaba0dc","5C598EC41BCB461B95A75E8D255C46C8-2025-05-15-19-17-58","","null","","images/semantic_sequence/using_technology_semantic/using_technology_semantic_ten.png","null","",""
"","","","","","image-button-response","85","557507","0.0-12.0-1.0-1.9","5C598EC41BCB461B95A75E8D255C46C8","5C598EC41BCB461B95A75E8D255C46C8","77561901-afa2-4d78-86dc-d4fbc074c95f","051c06f1-75cc-4548-856d-4923ddaba0dc","{""num_scrambled_semantic"":""8"",""num_scrambled_causal"":""4"",""num_scrambled_schematic"":""4"",""participantId"":""5C598EC41BCB461B95A75E8D255C46C8"",""assignmentId"":""77561901-afa2-4d78-86dc-d4fbc074c95f"",""projectId"":""051c06f1-75cc-4548-856d-4923ddaba0dc""}","https://test12345.live/?num_scrambled_semantic=8&num_scrambled_causal=4&num_scrambled_schematic=4&participantId=5C598EC41BCB461B95A75E8D255C46C8&assignmentId=77561901-afa2-4d78-86dc-d4fbc074c95f&projectId=051c06f1-75cc-4548-856d-4923ddaba0dc","5C598EC41BCB461B95A75E8D255C46C8-2025-05-15-19-17-58","","1402","","images/semantic_sequence/using_technology_semantic/using_technology_semantic_ten.png","0","",""
"","","","","","image-button-response","86","559321","0.0-12.0-1.0-2.9","5C598EC41BCB461B95A75E8D255C46C8","5C598EC41BCB461B95A75E8D255C46C8","77561901-afa2-4d78-86dc-d4fbc074c95f","051c06f1-75cc-4548-856d-4923ddaba0dc","{""num_scrambled_semantic"":""8"",""num_scrambled_causal"":""4"",""num_scrambled_schematic"":""4"",""participantId"":""5C598EC41BCB461B95A75E8D255C46C8"",""assignmentId"":""77561901-afa2-4d78-86dc-d4fbc074c95f"",""projectId"":""051c06f1-75cc-4548-856d-4923ddaba0dc""}","https://test12345.live/?num_scrambled_semantic=8&num_scrambled_causal=4&num_scrambled_schematic=4&participantId=5C598EC41BCB461B95A75E8D255C46C8&assignmentId=77561901-afa2-4d78-86dc-d4fbc074c95f&projectId=051c06f1-75cc-4548-856d-4923ddaba0dc","5C598EC41BCB461B95A75E8D255C46C8-2025-05-15-19-17-58","","null","","[]","null","",""
"","","","","","html-audio-response","87","636976","0.0-13.0","5C598EC41BCB461B95A75E8D255C46C8","5C598EC41BCB461B95A75E8D255C46C8","77561901-afa2-4d78-86dc-d4fbc074c95f","051c06f1-75cc-4548-856d-4923ddaba0dc","{""num_scrambled_semantic"":""8"",""num_scrambled_causal"":""4"",""num_scrambled_schematic"":""4"",""participantId"":""5C598EC41BCB461B95A75E8D255C46C8"",""assignmentId"":""77561901-afa2-4d78-86dc-d4fbc074c95f"",""projectId"":""051c06f1-75cc-4548-856d-4923ddaba0dc""}","https://test12345.live/?num_scrambled_semantic=8&num_scrambled_causal=4&num_scrambled_schematic=4&participantId=5C598EC41BCB461B95A75E8D255C46C8&assignmentId=77561901-afa2-4d78-86dc-d4fbc074c95f&projectId=051c06f1-75cc-4548-856d-4923ddaba0dc","5C598EC41BCB461B95A75E8D255C46C8-2025-05-15-19-17-58","","37461","","[""<span style=\""color: red; font-size: 24px\""> NOW RECORDING</span><p>Please say out loud all the images you saw, as many as you can remember. The images can be said in any order.</p>""]","","11","using_technology_semantic"
"","","","","","image-button-response","88","642992","0.0-14.0-0.0","5C598EC41BCB461B95A75E8D255C46C8","5C598EC41BCB461B95A75E8D255C46C8","77561901-afa2-4d78-86dc-d4fbc074c95f","051c06f1-75cc-4548-856d-4923ddaba0dc","{""num_scrambled_semantic"":""8"",""num_scrambled_causal"":""4"",""num_scrambled_schematic"":""4"",""participantId"":""5C598EC41BCB461B95A75E8D255C46C8"",""assignmentId"":""77561901-afa2-4d78-86dc-d4fbc074c95f"",""projectId"":""051c06f1-75cc-4548-856d-4923ddaba0dc""}","https://test12345.live/?num_scrambled_semantic=8&num_scrambled_causal=4&num_scrambled_schematic=4&participantId=5C598EC41BCB461B95A75E8D255C46C8&assignmentId=77561901-afa2-4d78-86dc-d4fbc074c95f&projectId=051c06f1-75cc-4548-856d-4923ddaba0dc","5C598EC41BCB461B95A75E8D255C46C8-2025-05-15-19-17-58","","null","","images/semantic_sequence/cat_care_semantic/cat_care_semantic_0.png","null","",""
"","","","","","image-button-response","89","647492","0.0-14.0-1.0-0.0","5C598EC41BCB461B95A75E8D255C46C8","5C598EC41BCB461B95A75E8D255C46C8","77561901-afa2-4d78-86dc-d4fbc074c95f","051c06f1-75cc-4548-856d-4923ddaba0dc","{""num_scrambled_semantic"":""8"",""num_scrambled_causal"":""4"",""num_scrambled_schematic"":""4"",""participantId"":""5C598EC41BCB461B95A75E8D255C46C8"",""assignmentId"":""77561901-afa2-4d78-86dc-d4fbc074c95f"",""projectId"":""051c06f1-75cc-4548-856d-4923ddaba0dc""}","https://test12345.live/?num_scrambled_semantic=8&num_scrambled_causal=4&num_scrambled_schematic=4&participantId=5C598EC41BCB461B95A75E8D255C46C8&assignmentId=77561901-afa2-4d78-86dc-d4fbc074c95f&projectId=051c06f1-75cc-4548-856d-4923ddaba0dc","5C598EC41BCB461B95A75E8D255C46C8-2025-05-15-19-17-58","","null","","images/semantic_sequence/cat_care_semantic/cat_care_semantic_1.png","null","",""
"","","","","","image-button-response","90","649303","0.0-14.0-1.0-1.0","5C598EC41BCB461B95A75E8D255C46C8","5C598EC41BCB461B95A75E8D255C46C8","77561901-afa2-4d78-86dc-d4fbc074c95f","051c06f1-75cc-4548-856d-4923ddaba0dc","{""num_scrambled_semantic"":""8"",""num_scrambled_causal"":""4"",""num_scrambled_schematic"":""4"",""participantId"":""5C598EC41BCB461B95A75E8D255C46C8"",""assignmentId"":""77561901-afa2-4d78-86dc-d4fbc074c95f"",""projectId"":""051c06f1-75cc-4548-856d-4923ddaba0dc""}","https://test12345.live/?num_scrambled_semantic=8&num_scrambled_causal=4&num_scrambled_schematic=4&participantId=5C598EC41BCB461B95A75E8D255C46C8&assignmentId=77561901-afa2-4d78-86dc-d4fbc074c95f&projectId=051c06f1-75cc-4548-856d-4923ddaba0dc","5C598EC41BCB461B95A75E8D255C46C8-2025-05-15-19-17-58","","1810","","images/semantic_sequence/cat_care_semantic/cat_care_semantic_1.png","0","",""
"","","","","","image-button-response","91","651104","0.0-14.0-1.0-2.0","5C598EC41BCB461B95A75E8D255C46C8","5C598EC41BCB461B95A75E8D255C46C8","77561901-afa2-4d78-86dc-d4fbc074c95f","051c06f1-75cc-4548-856d-4923ddaba0dc","{""num_scrambled_semantic"":""8"",""num_scrambled_causal"":""4"",""num_scrambled_schematic"":""4"",""participantId"":""5C598EC41BCB461B95A75E8D255C46C8"",""assignmentId"":""77561901-afa2-4d78-86dc-d4fbc074c95f"",""projectId"":""051c06f1-75cc-4548-856d-4923ddaba0dc""}","https://test12345.live/?num_scrambled_semantic=8&num_scrambled_causal=4&num_scrambled_schematic=4&participantId=5C598EC41BCB461B95A75E8D255C46C8&assignmentId=77561901-afa2-4d78-86dc-d4fbc074c95f&projectId=051c06f1-75cc-4548-856d-4923ddaba0dc","5C598EC41BCB461B95A75E8D255C46C8-2025-05-15-19-17-58","","null","","[]","null","",""
"","","","","","image-button-response","92","655615","0.0-14.0-1.0-0.1","5C598EC41BCB461B95A75E8D255C46C8","5C598EC41BCB461B95A75E8D255C46C8","77561901-afa2-4d78-86dc-d4fbc074c95f","051c06f1-75cc-4548-856d-4923ddaba0dc","{""num_scrambled_semantic"":""8"",""num_scrambled_causal"":""4"",""num_scrambled_schematic"":""4"",""participantId"":""5C598EC41BCB461B95A75E8D255C46C8"",""assignmentId"":""77561901-afa2-4d78-86dc-d4fbc074c95f"",""projectId"":""051c06f1-75cc-4548-856d-4923ddaba0dc""}","https://test12345.live/?num_scrambled_semantic=8&num_scrambled_causal=4&num_scrambled_schematic=4&participantId=5C598EC41BCB461B95A75E8D255C46C8&assignmentId=77561901-afa2-4d78-86dc-d4fbc074c95f&projectId=051c06f1-75cc-4548-856d-4923ddaba0dc","5C598EC41BCB461B95A75E8D255C46C8-2025-05-15-19-17-58","","null","","images/semantic_sequence/cat_care_semantic/cat_care_semantic_2.png","null","",""
"","","","","","image-button-response","93","659236","0.0-14.0-1.0-1.1","5C598EC41BCB461B95A75E8D255C46C8","5C598EC41BCB461B95A75E8D255C46C8","77561901-afa2-4d78-86dc-d4fbc074c95f","051c06f1-75cc-4548-856d-4923ddaba0dc","{""num_scrambled_semantic"":""8"",""num_scrambled_causal"":""4"",""num_scrambled_schematic"":""4"",""participantId"":""5C598EC41BCB461B95A75E8D255C46C8"",""assignmentId"":""77561901-afa2-4d78-86dc-d4fbc074c95f"",""projectId"":""051c06f1-75cc-4548-856d-4923ddaba0dc""}","https://test12345.live/?num_scrambled_semantic=8&num_scrambled_causal=4&num_scrambled_schematic=4&participantId=5C598EC41BCB461B95A75E8D255C46C8&assignmentId=77561901-afa2-4d78-86dc-d4fbc074c95f&projectId=051c06f1-75cc-4548-856d-4923ddaba0dc","5C598EC41BCB461B95A75E8D255C46C8-2025-05-15-19-17-58","","3621","","images/semantic_sequence/cat_care_semantic/cat_care_semantic_2.png","0","",""
"","","","","","image-button-response","94","661041","0.0-14.0-1.0-2.1","5C598EC41BCB461B95A75E8D255C46C8","5C598EC41BCB461B95A75E8D255C46C8","77561901-afa2-4d78-86dc-d4fbc074c95f","051c06f1-75cc-4548-856d-4923ddaba0dc","{""num_scrambled_semantic"":""8"",""num_scrambled_causal"":""4"",""num_scrambled_schematic"":""4"",""participantId"":""5C598EC41BCB461B95A75E8D255C46C8"",""assignmentId"":""77561901-afa2-4d78-86dc-d4fbc074c95f"",""projectId"":""051c06f1-75cc-4548-856d-4923ddaba0dc""}","https://test12345.live/?num_scrambled_semantic=8&num_scrambled_causal=4&num_scrambled_schematic=4&participantId=5C598EC41BCB461B95A75E8D255C46C8&assignmentId=77561901-afa2-4d78-86dc-d4fbc074c95f&projectId=051c06f1-75cc-4548-856d-4923ddaba0dc","5C598EC41BCB461B95A75E8D255C46C8-2025-05-15-19-17-58","","null","","[]","null","",""
"","","","","","image-button-response","95","665545","0.0-14.0-1.0-0.2","5C598EC41BCB461B95A75E8D255C46C8","5C598EC41BCB461B95A75E8D255C46C8","77561901-afa2-4d78-86dc-d4fbc074c95f","051c06f1-75cc-4548-856d-4923ddaba0dc","{""num_scrambled_semantic"":""8"",""num_scrambled_causal"":""4"",""num_scrambled_schematic"":""4"",""participantId"":""5C598EC41BCB461B95A75E8D255C46C8"",""assignmentId"":""77561901-afa2-4d78-86dc-d4fbc074c95f"",""projectId"":""051c06f1-75cc-4548-856d-4923ddaba0dc""}","https://test12345.live/?num_scrambled_semantic=8&num_scrambled_causal=4&num_scrambled_schematic=4&participantId=5C598EC41BCB461B95A75E8D255C46C8&assignmentId=77561901-afa2-4d78-86dc-d4fbc074c95f&projectId=051c06f1-75cc-4548-856d-4923ddaba0dc","5C598EC41BCB461B95A75E8D255C46C8-2025-05-15-19-17-58","","null","","images/semantic_sequence/cat_care_semantic/cat_care_semantic_3.png","null","",""
"","","","","","image-button-response","96","667422","0.0-14.0-1.0-1.2","5C598EC41BCB461B95A75E8D255C46C8","5C598EC41BCB461B95A75E8D255C46C8","77561901-afa2-4d78-86dc-d4fbc074c95f","051c06f1-75cc-4548-856d-4923ddaba0dc","{""num_scrambled_semantic"":""8"",""num_scrambled_causal"":""4"",""num_scrambled_schematic"":""4"",""participantId"":""5C598EC41BCB461B95A75E8D255C46C8"",""assignmentId"":""77561901-afa2-4d78-86dc-d4fbc074c95f"",""projectId"":""051c06f1-75cc-4548-856d-4923ddaba0dc""}","https://test12345.live/?num_scrambled_semantic=8&num_scrambled_causal=4&num_scrambled_schematic=4&participantId=5C598EC41BCB461B95A75E8D255C46C8&assignmentId=77561901-afa2-4d78-86dc-d4fbc074c95f&projectId=051c06f1-75cc-4548-856d-4923ddaba0dc","5C598EC41BCB461B95A75E8D255C46C8-2025-05-15-19-17-58","","1877","","images/semantic_sequence/cat_care_semantic/cat_care_semantic_3.png","0","",""
"","","","","","image-button-response","97","669229","0.0-14.0-1.0-2.2","5C598EC41BCB461B95A75E8D255C46C8","5C598EC41BCB461B95A75E8D255C46C8","77561901-afa2-4d78-86dc-d4fbc074c95f","051c06f1-75cc-4548-856d-4923ddaba0dc","{""num_scrambled_semantic"":""8"",""num_scrambled_causal"":""4"",""num_scrambled_schematic"":""4"",""participantId"":""5C598EC41BCB461B95A75E8D255C46C8"",""assignmentId"":""77561901-afa2-4d78-86dc-d4fbc074c95f"",""projectId"":""051c06f1-75cc-4548-856d-4923ddaba0dc""}","https://test12345.live/?num_scrambled_semantic=8&num_scrambled_causal=4&num_scrambled_schematic=4&participantId=5C598EC41BCB461B95A75E8D255C46C8&assignmentId=77561901-afa2-4d78-86dc-d4fbc074c95f&projectId=051c06f1-75cc-4548-856d-4923ddaba0dc","5C598EC41BCB461B95A75E8D255C46C8-2025-05-15-19-17-58","","null","","[]","null","",""
"","","","","","image-button-response","98","673731","0.0-14.0-1.0-0.3","5C598EC41BCB461B95A75E8D255C46C8","5C598EC41BCB461B95A75E8D255C46C8","77561901-afa2-4d78-86dc-d4fbc074c95f","051c06f1-75cc-4548-856d-4923ddaba0dc","{""num_scrambled_semantic"":""8"",""num_scrambled_causal"":""4"",""num_scrambled_schematic"":""4"",""participantId"":""5C598EC41BCB461B95A75E8D255C46C8"",""assignmentId"":""77561901-afa2-4d78-86dc-d4fbc074c95f"",""projectId"":""051c06f1-75cc-4548-856d-4923ddaba0dc""}","https://test12345.live/?num_scrambled_semantic=8&num_scrambled_causal=4&num_scrambled_schematic=4&participantId=5C598EC41BCB461B95A75E8D255C46C8&assignmentId=77561901-afa2-4d78-86dc-d4fbc074c95f&projectId=051c06f1-75cc-4548-856d-4923ddaba0dc","5C598EC41BCB461B95A75E8D255C46C8-2025-05-15-19-17-58","","null","","images/semantic_sequence/cat_care_semantic/cat_care_semantic_4.png","null","",""
"","","","","","image-button-response","99","675039","0.0-14.0-1.0-1.3","5C598EC41BCB461B95A75E8D255C46C8","5C598EC41BCB461B95A75E8D255C46C8","77561901-afa2-4d78-86dc-d4fbc074c95f","051c06f1-75cc-4548-856d-4923ddaba0dc","{""num_scrambled_semantic"":""8"",""num_scrambled_causal"":""4"",""num_scrambled_schematic"":""4"",""participantId"":""5C598EC41BCB461B95A75E8D255C46C8"",""assignmentId"":""77561901-afa2-4d78-86dc-d4fbc074c95f"",""projectId"":""051c06f1-75cc-4548-856d-4923ddaba0dc""}","https://test12345.live/?num_scrambled_semantic=8&num_scrambled_causal=4&num_scrambled_schematic=4&participantId=5C598EC41BCB461B95A75E8D255C46C8&assignmentId=77561901-afa2-4d78-86dc-d4fbc074c95f&projectId=051c06f1-75cc-4548-856d-4923ddaba0dc","5C598EC41BCB461B95A75E8D255C46C8-2025-05-15-19-17-58","","1308","","images/semantic_sequence/cat_care_semantic/cat_care_semantic_4.png","0","",""
"","","","","","image-button-response","100","676847","0.0-14.0-1.0-2.3","5C598EC41BCB461B95A75E8D255C46C8","5C598EC41BCB461B95A75E8D255C46C8","77561901-afa2-4d78-86dc-d4fbc074c95f","051c06f1-75cc-4548-856d-4923ddaba0dc","{""num_scrambled_semantic"":""8"",""num_scrambled_causal"":""4"",""num_scrambled_schematic"":""4"",""participantId"":""5C598EC41BCB461B95A75E8D255C46C8"",""assignmentId"":""77561901-afa2-4d78-86dc-d4fbc074c95f"",""projectId"":""051c06f1-75cc-4548-856d-4923ddaba0dc""}","https://test12345.live/?num_scrambled_semantic=8&num_scrambled_causal=4&num_scrambled_schematic=4&participantId=5C598EC41BCB461B95A75E8D255C46C8&assignmentId=77561901-afa2-4d78-86dc-d4fbc074c95f&projectId=051c06f1-75cc-4548-856d-4923ddaba0dc","5C598EC41BCB461B95A75E8D255C46C8-2025-05-15-19-17-58","","null","","[]","null","",""
"","","","","","image-button-response","101","681357","0.0-14.0-1.0-0.4","5C598EC41BCB461B95A75E8D255C46C8","5C598EC41BCB461B95A75E8D255C46C8","77561901-afa2-4d78-86dc-d4fbc074c95f","051c06f1-75cc-4548-856d-4923ddaba0dc","{""num_scrambled_semantic"":""8"",""num_scrambled_causal"":""4"",""num_scrambled_schematic"":""4"",""participantId"":""5C598EC41BCB461B95A75E8D255C46C8"",""assignmentId"":""77561901-afa2-4d78-86dc-d4fbc074c95f"",""projectId"":""051c06f1-75cc-4548-856d-4923ddaba0dc""}","https://test12345.live/?num_scrambled_semantic=8&num_scrambled_causal=4&num_scrambled_schematic=4&participantId=5C598EC41BCB461B95A75E8D255C46C8&assignmentId=77561901-afa2-4d78-86dc-d4fbc074c95f&projectId=051c06f1-75cc-4548-856d-4923ddaba0dc","5C598EC41BCB461B95A75E8D255C46C8-2025-05-15-19-17-58","","null","","images/semantic_sequence/cat_care_semantic/cat_care_semantic_5.png","null","",""
"","","","","","image-button-response","102","682220","0.0-14.0-1.0-1.4","5C598EC41BCB461B95A75E8D255C46C8","5C598EC41BCB461B95A75E8D255C46C8","77561901-afa2-4d78-86dc-d4fbc074c95f","051c06f1-75cc-4548-856d-4923ddaba0dc","{""num_scrambled_semantic"":""8"",""num_scrambled_causal"":""4"",""num_scrambled_schematic"":""4"",""participantId"":""5C598EC41BCB461B95A75E8D255C46C8"",""assignmentId"":""77561901-afa2-4d78-86dc-d4fbc074c95f"",""projectId"":""051c06f1-75cc-4548-856d-4923ddaba0dc""}","https://test12345.live/?num_scrambled_semantic=8&num_scrambled_causal=4&num_scrambled_schematic=4&participantId=5C598EC41BCB461B95A75E8D255C46C8&assignmentId=77561901-afa2-4d78-86dc-d4fbc074c95f&projectId=051c06f1-75cc-4548-856d-4923ddaba0dc","5C598EC41BCB461B95A75E8D255C46C8-2025-05-15-19-17-58","","863","","images/semantic_sequence/cat_care_semantic/cat_care_semantic_5.png","0","",""
"","","","","","image-button-response","103","684035","0.0-14.0-1.0-2.4","5C598EC41BCB461B95A75E8D255C46C8","5C598EC41BCB461B95A75E8D255C46C8","77561901-afa2-4d78-86dc-d4fbc074c95f","051c06f1-75cc-4548-856d-4923ddaba0dc","{""num_scrambled_semantic"":""8"",""num_scrambled_causal"":""4"",""num_scrambled_schematic"":""4"",""participantId"":""5C598EC41BCB461B95A75E8D255C46C8"",""assignmentId"":""77561901-afa2-4d78-86dc-d4fbc074c95f"",""projectId"":""051c06f1-75cc-4548-856d-4923ddaba0dc""}","https://test12345.live/?num_scrambled_semantic=8&num_scrambled_causal=4&num_scrambled_schematic=4&participantId=5C598EC41BCB461B95A75E8D255C46C8&assignmentId=77561901-afa2-4d78-86dc-d4fbc074c95f&projectId=051c06f1-75cc-4548-856d-4923ddaba0dc","5C598EC41BCB461B95A75E8D255C46C8-2025-05-15-19-17-58","","null","","[]","null","",""
"","","","","","image-button-response","104","688544","0.0-14.0-1.0-0.5","5C598EC41BCB461B95A75E8D255C46C8","5C598EC41BCB461B95A75E8D255C46C8","77561901-afa2-4d78-86dc-d4fbc074c95f","051c06f1-75cc-4548-856d-4923ddaba0dc","{""num_scrambled_semantic"":""8"",""num_scrambled_causal"":""4"",""num_scrambled_schematic"":""4"",""participantId"":""5C598EC41BCB461B95A75E8D255C46C8"",""assignmentId"":""77561901-afa2-4d78-86dc-d4fbc074c95f"",""projectId"":""051c06f1-75cc-4548-856d-4923ddaba0dc""}","https://test12345.live/?num_scrambled_semantic=8&num_scrambled_causal=4&num_scrambled_schematic=4&participantId=5C598EC41BCB461B95A75E8D255C46C8&assignmentId=77561901-afa2-4d78-86dc-d4fbc074c95f&projectId=051c06f1-75cc-4548-856d-4923ddaba0dc","5C598EC41BCB461B95A75E8D255C46C8-2025-05-15-19-17-58","","null","","images/semantic_sequence/cat_care_semantic/cat_care_semantic_6.png","null","",""
"","","","","","image-button-response","105","689667","0.0-14.0-1.0-1.5","5C598EC41BCB461B95A75E8D255C46C8","5C598EC41BCB461B95A75E8D255C46C8","77561901-afa2-4d78-86dc-d4fbc074c95f","051c06f1-75cc-4548-856d-4923ddaba0dc","{""num_scrambled_semantic"":""8"",""num_scrambled_causal"":""4"",""num_scrambled_schematic"":""4"",""participantId"":""5C598EC41BCB461B95A75E8D255C46C8"",""assignmentId"":""77561901-afa2-4d78-86dc-d4fbc074c95f"",""projectId"":""051c06f1-75cc-4548-856d-4923ddaba0dc""}","https://test12345.live/?num_scrambled_semantic=8&num_scrambled_causal=4&num_scrambled_schematic=4&participantId=5C598EC41BCB461B95A75E8D255C46C8&assignmentId=77561901-afa2-4d78-86dc-d4fbc074c95f&projectId=051c06f1-75cc-4548-856d-4923ddaba0dc","5C598EC41BCB461B95A75E8D255C46C8-2025-05-15-19-17-58","","1122","","images/semantic_sequence/cat_care_semantic/cat_care_semantic_6.png","0","",""
"","","","","","image-button-response","106","691477","0.0-14.0-1.0-2.5","5C598EC41BCB461B95A75E8D255C46C8","5C598EC41BCB461B95A75E8D255C46C8","77561901-afa2-4d78-86dc-d4fbc074c95f","051c06f1-75cc-4548-856d-4923ddaba0dc","{""num_scrambled_semantic"":""8"",""num_scrambled_causal"":""4"",""num_scrambled_schematic"":""4"",""participantId"":""5C598EC41BCB461B95A75E8D255C46C8"",""assignmentId"":""77561901-afa2-4d78-86dc-d4fbc074c95f"",""projectId"":""051c06f1-75cc-4548-856d-4923ddaba0dc""}","https://test12345.live/?num_scrambled_semantic=8&num_scrambled_causal=4&num_scrambled_schematic=4&participantId=5C598EC41BCB461B95A75E8D255C46C8&assignmentId=77561901-afa2-4d78-86dc-d4fbc074c95f&projectId=051c06f1-75cc-4548-856d-4923ddaba0dc","5C598EC41BCB461B95A75E8D255C46C8-2025-05-15-19-17-58","","null","","[]","null","",""
"","","","","","image-button-response","107","695978","0.0-14.0-1.0-0.6","5C598EC41BCB461B95A75E8D255C46C8","5C598EC41BCB461B95A75E8D255C46C8","77561901-afa2-4d78-86dc-d4fbc074c95f","051c06f1-75cc-4548-856d-4923ddaba0dc","{""num_scrambled_semantic"":""8"",""num_scrambled_causal"":""4"",""num_scrambled_schematic"":""4"",""participantId"":""5C598EC41BCB461B95A75E8D255C46C8"",""assignmentId"":""77561901-afa2-4d78-86dc-d4fbc074c95f"",""projectId"":""051c06f1-75cc-4548-856d-4923ddaba0dc""}","https://test12345.live/?num_scrambled_semantic=8&num_scrambled_causal=4&num_scrambled_schematic=4&participantId=5C598EC41BCB461B95A75E8D255C46C8&assignmentId=77561901-afa2-4d78-86dc-d4fbc074c95f&projectId=051c06f1-75cc-4548-856d-4923ddaba0dc","5C598EC41BCB461B95A75E8D255C46C8-2025-05-15-19-17-58","","null","","images/semantic_sequence/cat_care_semantic/cat_care_semantic_7.png","null","",""
"","","","","","image-button-response","108","697334","0.0-14.0-1.0-1.6","5C598EC41BCB461B95A75E8D255C46C8","5C598EC41BCB461B95A75E8D255C46C8","77561901-afa2-4d78-86dc-d4fbc074c95f","051c06f1-75cc-4548-856d-4923ddaba0dc","{""num_scrambled_semantic"":""8"",""num_scrambled_causal"":""4"",""num_scrambled_schematic"":""4"",""participantId"":""5C598EC41BCB461B95A75E8D255C46C8"",""assignmentId"":""77561901-afa2-4d78-86dc-d4fbc074c95f"",""projectId"":""051c06f1-75cc-4548-856d-4923ddaba0dc""}","https://test12345.live/?num_scrambled_semantic=8&num_scrambled_causal=4&num_scrambled_schematic=4&participantId=5C598EC41BCB461B95A75E8D255C46C8&assignmentId=77561901-afa2-4d78-86dc-d4fbc074c95f&projectId=051c06f1-75cc-4548-856d-4923ddaba0dc","5C598EC41BCB461B95A75E8D255C46C8-2025-05-15-19-17-58","","1356","","images/semantic_sequence/cat_care_semantic/cat_care_semantic_7.png","0","",""
"","","","","","image-button-response","109","699140","0.0-14.0-1.0-2.6","5C598EC41BCB461B95A75E8D255C46C8","5C598EC41BCB461B95A75E8D255C46C8","77561901-afa2-4d78-86dc-d4fbc074c95f","051c06f1-75cc-4548-856d-4923ddaba0dc","{""num_scrambled_semantic"":""8"",""num_scrambled_causal"":""4"",""num_scrambled_schematic"":""4"",""participantId"":""5C598EC41BCB461B95A75E8D255C46C8"",""assignmentId"":""77561901-afa2-4d78-86dc-d4fbc074c95f"",""projectId"":""051c06f1-75cc-4548-856d-4923ddaba0dc""}","https://test12345.live/?num_scrambled_semantic=8&num_scrambled_causal=4&num_scrambled_schematic=4&participantId=5C598EC41BCB461B95A75E8D255C46C8&assignmentId=77561901-afa2-4d78-86dc-d4fbc074c95f&projectId=051c06f1-75cc-4548-856d-4923ddaba0dc","5C598EC41BCB461B95A75E8D255C46C8-2025-05-15-19-17-58","","null","","[]","null","",""
"","","","","","image-button-response","110","703642","0.0-14.0-1.0-0.7","5C598EC41BCB461B95A75E8D255C46C8","5C598EC41BCB461B95A75E8D255C46C8","77561901-afa2-4d78-86dc-d4fbc074c95f","051c06f1-75cc-4548-856d-4923ddaba0dc","{""num_scrambled_semantic"":""8"",""num_scrambled_causal"":""4"",""num_scrambled_schematic"":""4"",""participantId"":""5C598EC41BCB461B95A75E8D255C46C8"",""assignmentId"":""77561901-afa2-4d78-86dc-d4fbc074c95f"",""projectId"":""051c06f1-75cc-4548-856d-4923ddaba0dc""}","https://test12345.live/?num_scrambled_semantic=8&num_scrambled_causal=4&num_scrambled_schematic=4&participantId=5C598EC41BCB461B95A75E8D255C46C8&assignmentId=77561901-afa2-4d78-86dc-d4fbc074c95f&projectId=051c06f1-75cc-4548-856d-4923ddaba0dc","5C598EC41BCB461B95A75E8D255C46C8-2025-05-15-19-17-58","","null","","images/semantic_sequence/cat_care_semantic/cat_care_semantic_8.png","null","",""
"","","","","","image-button-response","111","706032","0.0-14.0-1.0-1.7","5C598EC41BCB461B95A75E8D255C46C8","5C598EC41BCB461B95A75E8D255C46C8","77561901-afa2-4d78-86dc-d4fbc074c95f","051c06f1-75cc-4548-856d-4923ddaba0dc","{""num_scrambled_semantic"":""8"",""num_scrambled_causal"":""4"",""num_scrambled_schematic"":""4"",""participantId"":""5C598EC41BCB461B95A75E8D255C46C8"",""assignmentId"":""77561901-afa2-4d78-86dc-d4fbc074c95f"",""projectId"":""051c06f1-75cc-4548-856d-4923ddaba0dc""}","https://test12345.live/?num_scrambled_semantic=8&num_scrambled_causal=4&num_scrambled_schematic=4&participantId=5C598EC41BCB461B95A75E8D255C46C8&assignmentId=77561901-afa2-4d78-86dc-d4fbc074c95f&projectId=051c06f1-75cc-4548-856d-4923ddaba0dc","5C598EC41BCB461B95A75E8D255C46C8-2025-05-15-19-17-58","","2390","","images/semantic_sequence/cat_care_semantic/cat_care_semantic_8.png","0","",""
"","","","","","image-button-response","112","707834","0.0-14.0-1.0-2.7","5C598EC41BCB461B95A75E8D255C46C8","5C598EC41BCB461B95A75E8D255C46C8","77561901-afa2-4d78-86dc-d4fbc074c95f","051c06f1-75cc-4548-856d-4923ddaba0dc","{""num_scrambled_semantic"":""8"",""num_scrambled_causal"":""4"",""num_scrambled_schematic"":""4"",""participantId"":""5C598EC41BCB461B95A75E8D255C46C8"",""assignmentId"":""77561901-afa2-4d78-86dc-d4fbc074c95f"",""projectId"":""051c06f1-75cc-4548-856d-4923ddaba0dc""}","https://test12345.live/?num_scrambled_semantic=8&num_scrambled_causal=4&num_scrambled_schematic=4&participantId=5C598EC41BCB461B95A75E8D255C46C8&assignmentId=77561901-afa2-4d78-86dc-d4fbc074c95f&projectId=051c06f1-75cc-4548-856d-4923ddaba0dc","5C598EC41BCB461B95A75E8D255C46C8-2025-05-15-19-17-58","","null","","[]","null","",""
"","","","","","image-button-response","113","712344","0.0-14.0-1.0-0.8","5C598EC41BCB461B95A75E8D255C46C8","5C598EC41BCB461B95A75E8D255C46C8","77561901-afa2-4d78-86dc-d4fbc074c95f","051c06f1-75cc-4548-856d-4923ddaba0dc","{""num_scrambled_semantic"":""8"",""num_scrambled_causal"":""4"",""num_scrambled_schematic"":""4"",""participantId"":""5C598EC41BCB461B95A75E8D255C46C8"",""assignmentId"":""77561901-afa2-4d78-86dc-d4fbc074c95f"",""projectId"":""051c06f1-75cc-4548-856d-4923ddaba0dc""}","https://test12345.live/?num_scrambled_semantic=8&num_scrambled_causal=4&num_scrambled_schematic=4&participantId=5C598EC41BCB461B95A75E8D255C46C8&assignmentId=77561901-afa2-4d78-86dc-d4fbc074c95f&projectId=051c06f1-75cc-4548-856d-4923ddaba0dc","5C598EC41BCB461B95A75E8D255C46C8-2025-05-15-19-17-58","","null","","images/semantic_sequence/cat_care_semantic/cat_care_semantic_9.png","null","",""
