"success","timeout","failed_images","failed_audio","failed_video","trial_type","trial_index","time_elapsed","internal_node_id","subject","subject_id","study_id","session_id","urlvar","current_url","audio_id","view_history","rt","device_id","stimulus","response","estimated_stimulus_onset","seq_name"
"true","false","[]","[]","[]","preload","0","3626","0.0-0.0","5DD51B2714F64E6F93B7896DFB166E77","5DD51B2714F64E6F93B7896DFB166E77","6d938ed6-bc88-409f-9b01-dce458ba9711","051c06f1-75cc-4548-856d-4923ddaba0dc","{""num_scrambled_semantic"":""8"",""num_scrambled_causal"":""4"",""num_scrambled_schematic"":""4"",""participantId"":""5DD51B2714F64E6F93B7896DFB166E77"",""assignmentId"":""6d938ed6-bc88-409f-9b01-dce458ba9711"",""projectId"":""051c06f1-75cc-4548-856d-4923ddaba0dc""}","https://test12345.live/?num_scrambled_semantic=8&num_scrambled_causal=4&num_scrambled_schematic=4&participantId=5DD51B2714F64E6F93B7896DFB166E77&assignmentId=6d938ed6-bc88-409f-9b01-dce458ba9711&projectId=051c06f1-75cc-4548-856d-4923ddaba0dc","5DD51B2714F64E6F93B7896DFB166E77-2025-05-15-19-23-22","","","","","","",""
"","","","","","instructions","1","41271","0.0-1.0","5DD51B2714F64E6F93B7896DFB166E77","5DD51B2714F64E6F93B7896DFB166E77","6d938ed6-bc88-409f-9b01-dce458ba9711","051c06f1-75cc-4548-856d-4923ddaba0dc","{""num_scrambled_semantic"":""8"",""num_scrambled_causal"":""4"",""num_scrambled_schematic"":""4"",""participantId"":""5DD51B2714F64E6F93B7896DFB166E77"",""assignmentId"":""6d938ed6-bc88-409f-9b01-dce458ba9711"",""projectId"":""051c06f1-75cc-4548-856d-4923ddaba0dc""}","https://test12345.live/?num_scrambled_semantic=8&num_scrambled_causal=4&num_scrambled_schematic=4&participantId=5DD51B2714F64E6F93B7896DFB166E77&assignmentId=6d938ed6-bc88-409f-9b01-dce458ba9711&projectId=051c06f1-75cc-4548-856d-4923ddaba0dc","5DD51B2714F64E6F93B7896DFB166E77-2025-05-15-19-23-22","[{""page_index"":0,""viewing_time"":37644}]","37645","","","","",""
"","","","","","instructions","2","53108","0.0-2.0","5DD51B2714F64E6F93B7896DFB166E77","5DD51B2714F64E6F93B7896DFB166E77","6d938ed6-bc88-409f-9b01-dce458ba9711","051c06f1-75cc-4548-856d-4923ddaba0dc","{""num_scrambled_semantic"":""8"",""num_scrambled_causal"":""4"",""num_scrambled_schematic"":""4"",""participantId"":""5DD51B2714F64E6F93B7896DFB166E77"",""assignmentId"":""6d938ed6-bc88-409f-9b01-dce458ba9711"",""projectId"":""051c06f1-75cc-4548-856d-4923ddaba0dc""}","https://test12345.live/?num_scrambled_semantic=8&num_scrambled_causal=4&num_scrambled_schematic=4&participantId=5DD51B2714F64E6F93B7896DFB166E77&assignmentId=6d938ed6-bc88-409f-9b01-dce458ba9711&projectId=051c06f1-75cc-4548-856d-4923ddaba0dc","5DD51B2714F64E6F93B7896DFB166E77-2025-05-15-19-23-22","[{""page_index"":0,""viewing_time"":11835}]","11836","","","","",""
"true","","","","","fullscreen","3","56683","0.0-3.0","5DD51B2714F64E6F93B7896DFB166E77","5DD51B2714F64E6F93B7896DFB166E77","6d938ed6-bc88-409f-9b01-dce458ba9711","051c06f1-75cc-4548-856d-4923ddaba0dc","{""num_scrambled_semantic"":""8"",""num_scrambled_causal"":""4"",""num_scrambled_schematic"":""4"",""participantId"":""5DD51B2714F64E6F93B7896DFB166E77"",""assignmentId"":""6d938ed6-bc88-409f-9b01-dce458ba9711"",""projectId"":""051c06f1-75cc-4548-856d-4923ddaba0dc""}","https://test12345.live/?num_scrambled_semantic=8&num_scrambled_causal=4&num_scrambled_schematic=4&participantId=5DD51B2714F64E6F93B7896DFB166E77&assignmentId=6d938ed6-bc88-409f-9b01-dce458ba9711&projectId=051c06f1-75cc-4548-856d-4923ddaba0dc","5DD51B2714F64E6F93B7896DFB166E77-2025-05-15-19-23-22","","2528","","","","",""
"","","","","","initialize-microphone","4","64524","0.0-4.0-0.0","5DD51B2714F64E6F93B7896DFB166E77","5DD51B2714F64E6F93B7896DFB166E77","6d938ed6-bc88-409f-9b01-dce458ba9711","051c06f1-75cc-4548-856d-4923ddaba0dc","{""num_scrambled_semantic"":""8"",""num_scrambled_causal"":""4"",""num_scrambled_schematic"":""4"",""participantId"":""5DD51B2714F64E6F93B7896DFB166E77"",""assignmentId"":""6d938ed6-bc88-409f-9b01-dce458ba9711"",""projectId"":""051c06f1-75cc-4548-856d-4923ddaba0dc""}","https://test12345.live/?num_scrambled_semantic=8&num_scrambled_causal=4&num_scrambled_schematic=4&participantId=5DD51B2714F64E6F93B7896DFB166E77&assignmentId=6d938ed6-bc88-409f-9b01-dce458ba9711&projectId=051c06f1-75cc-4548-856d-4923ddaba0dc","5DD51B2714F64E6F93B7896DFB166E77-2025-05-15-19-23-22","","","4a6360b0af3c1acfc98184ddcba72f4d3a7e6c8da761dcc050abf9c3f0b72367","","","",""
"","","","","","html-audio-response","5","96017","0.0-4.0-1.0","5DD51B2714F64E6F93B7896DFB166E77","5DD51B2714F64E6F93B7896DFB166E77","6d938ed6-bc88-409f-9b01-dce458ba9711","051c06f1-75cc-4548-856d-4923ddaba0dc","{""num_scrambled_semantic"":""8"",""num_scrambled_causal"":""4"",""num_scrambled_schematic"":""4"",""participantId"":""5DD51B2714F64E6F93B7896DFB166E77"",""assignmentId"":""6d938ed6-bc88-409f-9b01-dce458ba9711"",""projectId"":""051c06f1-75cc-4548-856d-4923ddaba0dc""}","https://test12345.live/?num_scrambled_semantic=8&num_scrambled_causal=4&num_scrambled_schematic=4&participantId=5DD51B2714F64E6F93B7896DFB166E77&assignmentId=6d938ed6-bc88-409f-9b01-dce458ba9711&projectId=051c06f1-75cc-4548-856d-4923ddaba0dc","5DD51B2714F64E6F93B7896DFB166E77-2025-05-15-19-23-22","","6875","","<span style=""color: red; font-size: 24px""> NOW RECORDING</span>
        <p>Please test Microphone</p>","","5",""
"","","","","","html-button-response","6","98168","0.0-4.0-2.0","5DD51B2714F64E6F93B7896DFB166E77","5DD51B2714F64E6F93B7896DFB166E77","6d938ed6-bc88-409f-9b01-dce458ba9711","051c06f1-75cc-4548-856d-4923ddaba0dc","{""num_scrambled_semantic"":""8"",""num_scrambled_causal"":""4"",""num_scrambled_schematic"":""4"",""participantId"":""5DD51B2714F64E6F93B7896DFB166E77"",""assignmentId"":""6d938ed6-bc88-409f-9b01-dce458ba9711"",""projectId"":""051c06f1-75cc-4548-856d-4923ddaba0dc""}","https://test12345.live/?num_scrambled_semantic=8&num_scrambled_causal=4&num_scrambled_schematic=4&participantId=5DD51B2714F64E6F93B7896DFB166E77&assignmentId=6d938ed6-bc88-409f-9b01-dce458ba9711&projectId=051c06f1-75cc-4548-856d-4923ddaba0dc","5DD51B2714F64E6F93B7896DFB166E77-2025-05-15-19-23-22","","2149","","<p style=""font-size:48px; color:red;"">Is Microphone OK?</p>","1","",""
"","","","","","instructions","7","111452","0.0-5.0","5DD51B2714F64E6F93B7896DFB166E77","5DD51B2714F64E6F93B7896DFB166E77","6d938ed6-bc88-409f-9b01-dce458ba9711","051c06f1-75cc-4548-856d-4923ddaba0dc","{""num_scrambled_semantic"":""8"",""num_scrambled_causal"":""4"",""num_scrambled_schematic"":""4"",""participantId"":""5DD51B2714F64E6F93B7896DFB166E77"",""assignmentId"":""6d938ed6-bc88-409f-9b01-dce458ba9711"",""projectId"":""051c06f1-75cc-4548-856d-4923ddaba0dc""}","https://test12345.live/?num_scrambled_semantic=8&num_scrambled_causal=4&num_scrambled_schematic=4&participantId=5DD51B2714F64E6F93B7896DFB166E77&assignmentId=6d938ed6-bc88-409f-9b01-dce458ba9711&projectId=051c06f1-75cc-4548-856d-4923ddaba0dc","5DD51B2714F64E6F93B7896DFB166E77-2025-05-15-19-23-22","[{""page_index"":0,""viewing_time"":6655},{""page_index"":1,""viewing_time"":6627}]","13283","","","","",""
"","","","","","image-button-response","8","117510","0.0-6.0-0.0","5DD51B2714F64E6F93B7896DFB166E77","5DD51B2714F64E6F93B7896DFB166E77","6d938ed6-bc88-409f-9b01-dce458ba9711","051c06f1-75cc-4548-856d-4923ddaba0dc","{""num_scrambled_semantic"":""8"",""num_scrambled_causal"":""4"",""num_scrambled_schematic"":""4"",""participantId"":""5DD51B2714F64E6F93B7896DFB166E77"",""assignmentId"":""6d938ed6-bc88-409f-9b01-dce458ba9711"",""projectId"":""051c06f1-75cc-4548-856d-4923ddaba0dc""}","https://test12345.live/?num_scrambled_semantic=8&num_scrambled_causal=4&num_scrambled_schematic=4&participantId=5DD51B2714F64E6F93B7896DFB166E77&assignmentId=6d938ed6-bc88-409f-9b01-dce458ba9711&projectId=051c06f1-75cc-4548-856d-4923ddaba0dc","5DD51B2714F64E6F93B7896DFB166E77-2025-05-15-19-23-22","","null","","images/instructions/movie_0.png","null","",""
"","","","","","image-button-response","9","122017","0.0-6.0-1.0-0.0","5DD51B2714F64E6F93B7896DFB166E77","5DD51B2714F64E6F93B7896DFB166E77","6d938ed6-bc88-409f-9b01-dce458ba9711","051c06f1-75cc-4548-856d-4923ddaba0dc","{""num_scrambled_semantic"":""8"",""num_scrambled_causal"":""4"",""num_scrambled_schematic"":""4"",""participantId"":""5DD51B2714F64E6F93B7896DFB166E77"",""assignmentId"":""6d938ed6-bc88-409f-9b01-dce458ba9711"",""projectId"":""051c06f1-75cc-4548-856d-4923ddaba0dc""}","https://test12345.live/?num_scrambled_semantic=8&num_scrambled_causal=4&num_scrambled_schematic=4&participantId=5DD51B2714F64E6F93B7896DFB166E77&assignmentId=6d938ed6-bc88-409f-9b01-dce458ba9711&projectId=051c06f1-75cc-4548-856d-4923ddaba0dc","5DD51B2714F64E6F93B7896DFB166E77-2025-05-15-19-23-22","","null","","images/instructions/movie_1.png","null","",""
"","","","","","image-button-response","10","124584","0.0-6.0-1.0-1.0","5DD51B2714F64E6F93B7896DFB166E77","5DD51B2714F64E6F93B7896DFB166E77","6d938ed6-bc88-409f-9b01-dce458ba9711","051c06f1-75cc-4548-856d-4923ddaba0dc","{""num_scrambled_semantic"":""8"",""num_scrambled_causal"":""4"",""num_scrambled_schematic"":""4"",""participantId"":""5DD51B2714F64E6F93B7896DFB166E77"",""assignmentId"":""6d938ed6-bc88-409f-9b01-dce458ba9711"",""projectId"":""051c06f1-75cc-4548-856d-4923ddaba0dc""}","https://test12345.live/?num_scrambled_semantic=8&num_scrambled_causal=4&num_scrambled_schematic=4&participantId=5DD51B2714F64E6F93B7896DFB166E77&assignmentId=6d938ed6-bc88-409f-9b01-dce458ba9711&projectId=051c06f1-75cc-4548-856d-4923ddaba0dc","5DD51B2714F64E6F93B7896DFB166E77-2025-05-15-19-23-22","","2565","","images/instructions/movie_1.png","0","",""
"","","","","","image-button-response","11","126389","0.0-6.0-1.0-2.0","5DD51B2714F64E6F93B7896DFB166E77","5DD51B2714F64E6F93B7896DFB166E77","6d938ed6-bc88-409f-9b01-dce458ba9711","051c06f1-75cc-4548-856d-4923ddaba0dc","{""num_scrambled_semantic"":""8"",""num_scrambled_causal"":""4"",""num_scrambled_schematic"":""4"",""participantId"":""5DD51B2714F64E6F93B7896DFB166E77"",""assignmentId"":""6d938ed6-bc88-409f-9b01-dce458ba9711"",""projectId"":""051c06f1-75cc-4548-856d-4923ddaba0dc""}","https://test12345.live/?num_scrambled_semantic=8&num_scrambled_causal=4&num_scrambled_schematic=4&participantId=5DD51B2714F64E6F93B7896DFB166E77&assignmentId=6d938ed6-bc88-409f-9b01-dce458ba9711&projectId=051c06f1-75cc-4548-856d-4923ddaba0dc","5DD51B2714F64E6F93B7896DFB166E77-2025-05-15-19-23-22","","null","","[]","null","",""
"","","","","","image-button-response","12","130900","0.0-6.0-1.0-0.1","5DD51B2714F64E6F93B7896DFB166E77","5DD51B2714F64E6F93B7896DFB166E77","6d938ed6-bc88-409f-9b01-dce458ba9711","051c06f1-75cc-4548-856d-4923ddaba0dc","{""num_scrambled_semantic"":""8"",""num_scrambled_causal"":""4"",""num_scrambled_schematic"":""4"",""participantId"":""5DD51B2714F64E6F93B7896DFB166E77"",""assignmentId"":""6d938ed6-bc88-409f-9b01-dce458ba9711"",""projectId"":""051c06f1-75cc-4548-856d-4923ddaba0dc""}","https://test12345.live/?num_scrambled_semantic=8&num_scrambled_causal=4&num_scrambled_schematic=4&participantId=5DD51B2714F64E6F93B7896DFB166E77&assignmentId=6d938ed6-bc88-409f-9b01-dce458ba9711&projectId=051c06f1-75cc-4548-856d-4923ddaba0dc","5DD51B2714F64E6F93B7896DFB166E77-2025-05-15-19-23-22","","null","","images/instructions/movie_2.png","null","",""
"","","","","","image-button-response","13","132594","0.0-6.0-1.0-1.1","5DD51B2714F64E6F93B7896DFB166E77","5DD51B2714F64E6F93B7896DFB166E77","6d938ed6-bc88-409f-9b01-dce458ba9711","051c06f1-75cc-4548-856d-4923ddaba0dc","{""num_scrambled_semantic"":""8"",""num_scrambled_causal"":""4"",""num_scrambled_schematic"":""4"",""participantId"":""5DD51B2714F64E6F93B7896DFB166E77"",""assignmentId"":""6d938ed6-bc88-409f-9b01-dce458ba9711"",""projectId"":""051c06f1-75cc-4548-856d-4923ddaba0dc""}","https://test12345.live/?num_scrambled_semantic=8&num_scrambled_causal=4&num_scrambled_schematic=4&participantId=5DD51B2714F64E6F93B7896DFB166E77&assignmentId=6d938ed6-bc88-409f-9b01-dce458ba9711&projectId=051c06f1-75cc-4548-856d-4923ddaba0dc","5DD51B2714F64E6F93B7896DFB166E77-2025-05-15-19-23-22","","1692","","images/instructions/movie_2.png","1","",""
"","","","","","image-button-response","14","134400","0.0-6.0-1.0-2.1","5DD51B2714F64E6F93B7896DFB166E77","5DD51B2714F64E6F93B7896DFB166E77","6d938ed6-bc88-409f-9b01-dce458ba9711","051c06f1-75cc-4548-856d-4923ddaba0dc","{""num_scrambled_semantic"":""8"",""num_scrambled_causal"":""4"",""num_scrambled_schematic"":""4"",""participantId"":""5DD51B2714F64E6F93B7896DFB166E77"",""assignmentId"":""6d938ed6-bc88-409f-9b01-dce458ba9711"",""projectId"":""051c06f1-75cc-4548-856d-4923ddaba0dc""}","https://test12345.live/?num_scrambled_semantic=8&num_scrambled_causal=4&num_scrambled_schematic=4&participantId=5DD51B2714F64E6F93B7896DFB166E77&assignmentId=6d938ed6-bc88-409f-9b01-dce458ba9711&projectId=051c06f1-75cc-4548-856d-4923ddaba0dc","5DD51B2714F64E6F93B7896DFB166E77-2025-05-15-19-23-22","","null","","[]","null","",""
"","","","","","image-button-response","15","138914","0.0-6.0-1.0-0.2","5DD51B2714F64E6F93B7896DFB166E77","5DD51B2714F64E6F93B7896DFB166E77","6d938ed6-bc88-409f-9b01-dce458ba9711","051c06f1-75cc-4548-856d-4923ddaba0dc","{""num_scrambled_semantic"":""8"",""num_scrambled_causal"":""4"",""num_scrambled_schematic"":""4"",""participantId"":""5DD51B2714F64E6F93B7896DFB166E77"",""assignmentId"":""6d938ed6-bc88-409f-9b01-dce458ba9711"",""projectId"":""051c06f1-75cc-4548-856d-4923ddaba0dc""}","https://test12345.live/?num_scrambled_semantic=8&num_scrambled_causal=4&num_scrambled_schematic=4&participantId=5DD51B2714F64E6F93B7896DFB166E77&assignmentId=6d938ed6-bc88-409f-9b01-dce458ba9711&projectId=051c06f1-75cc-4548-856d-4923ddaba0dc","5DD51B2714F64E6F93B7896DFB166E77-2025-05-15-19-23-22","","null","","images/instructions/movie_3.png","null","",""
"","","","","","image-button-response","16","140494","0.0-6.0-1.0-1.2","5DD51B2714F64E6F93B7896DFB166E77","5DD51B2714F64E6F93B7896DFB166E77","6d938ed6-bc88-409f-9b01-dce458ba9711","051c06f1-75cc-4548-856d-4923ddaba0dc","{""num_scrambled_semantic"":""8"",""num_scrambled_causal"":""4"",""num_scrambled_schematic"":""4"",""participantId"":""5DD51B2714F64E6F93B7896DFB166E77"",""assignmentId"":""6d938ed6-bc88-409f-9b01-dce458ba9711"",""projectId"":""051c06f1-75cc-4548-856d-4923ddaba0dc""}","https://test12345.live/?num_scrambled_semantic=8&num_scrambled_causal=4&num_scrambled_schematic=4&participantId=5DD51B2714F64E6F93B7896DFB166E77&assignmentId=6d938ed6-bc88-409f-9b01-dce458ba9711&projectId=051c06f1-75cc-4548-856d-4923ddaba0dc","5DD51B2714F64E6F93B7896DFB166E77-2025-05-15-19-23-22","","1578","","images/instructions/movie_3.png","0","",""
"","","","","","image-button-response","17","142299","0.0-6.0-1.0-2.2","5DD51B2714F64E6F93B7896DFB166E77","5DD51B2714F64E6F93B7896DFB166E77","6d938ed6-bc88-409f-9b01-dce458ba9711","051c06f1-75cc-4548-856d-4923ddaba0dc","{""num_scrambled_semantic"":""8"",""num_scrambled_causal"":""4"",""num_scrambled_schematic"":""4"",""participantId"":""5DD51B2714F64E6F93B7896DFB166E77"",""assignmentId"":""6d938ed6-bc88-409f-9b01-dce458ba9711"",""projectId"":""051c06f1-75cc-4548-856d-4923ddaba0dc""}","https://test12345.live/?num_scrambled_semantic=8&num_scrambled_causal=4&num_scrambled_schematic=4&participantId=5DD51B2714F64E6F93B7896DFB166E77&assignmentId=6d938ed6-bc88-409f-9b01-dce458ba9711&projectId=051c06f1-75cc-4548-856d-4923ddaba0dc","5DD51B2714F64E6F93B7896DFB166E77-2025-05-15-19-23-22","","null","","[]","null","",""
"","","","","","image-button-response","18","146822","0.0-6.0-1.0-0.3","5DD51B2714F64E6F93B7896DFB166E77","5DD51B2714F64E6F93B7896DFB166E77","6d938ed6-bc88-409f-9b01-dce458ba9711","051c06f1-75cc-4548-856d-4923ddaba0dc","{""num_scrambled_semantic"":""8"",""num_scrambled_causal"":""4"",""num_scrambled_schematic"":""4"",""participantId"":""5DD51B2714F64E6F93B7896DFB166E77"",""assignmentId"":""6d938ed6-bc88-409f-9b01-dce458ba9711"",""projectId"":""051c06f1-75cc-4548-856d-4923ddaba0dc""}","https://test12345.live/?num_scrambled_semantic=8&num_scrambled_causal=4&num_scrambled_schematic=4&participantId=5DD51B2714F64E6F93B7896DFB166E77&assignmentId=6d938ed6-bc88-409f-9b01-dce458ba9711&projectId=051c06f1-75cc-4548-856d-4923ddaba0dc","5DD51B2714F64E6F93B7896DFB166E77-2025-05-15-19-23-22","","null","","images/instructions/movie_4.png","null","",""
"","","","","","image-button-response","19","147677","0.0-6.0-1.0-1.3","5DD51B2714F64E6F93B7896DFB166E77","5DD51B2714F64E6F93B7896DFB166E77","6d938ed6-bc88-409f-9b01-dce458ba9711","051c06f1-75cc-4548-856d-4923ddaba0dc","{""num_scrambled_semantic"":""8"",""num_scrambled_causal"":""4"",""num_scrambled_schematic"":""4"",""participantId"":""5DD51B2714F64E6F93B7896DFB166E77"",""assignmentId"":""6d938ed6-bc88-409f-9b01-dce458ba9711"",""projectId"":""051c06f1-75cc-4548-856d-4923ddaba0dc""}","https://test12345.live/?num_scrambled_semantic=8&num_scrambled_causal=4&num_scrambled_schematic=4&participantId=5DD51B2714F64E6F93B7896DFB166E77&assignmentId=6d938ed6-bc88-409f-9b01-dce458ba9711&projectId=051c06f1-75cc-4548-856d-4923ddaba0dc","5DD51B2714F64E6F93B7896DFB166E77-2025-05-15-19-23-22","","853","","images/instructions/movie_4.png","0","",""
"","","","","","image-button-response","20","149495","0.0-6.0-1.0-2.3","5DD51B2714F64E6F93B7896DFB166E77","5DD51B2714F64E6F93B7896DFB166E77","6d938ed6-bc88-409f-9b01-dce458ba9711","051c06f1-75cc-4548-856d-4923ddaba0dc","{""num_scrambled_semantic"":""8"",""num_scrambled_causal"":""4"",""num_scrambled_schematic"":""4"",""participantId"":""5DD51B2714F64E6F93B7896DFB166E77"",""assignmentId"":""6d938ed6-bc88-409f-9b01-dce458ba9711"",""projectId"":""051c06f1-75cc-4548-856d-4923ddaba0dc""}","https://test12345.live/?num_scrambled_semantic=8&num_scrambled_causal=4&num_scrambled_schematic=4&participantId=5DD51B2714F64E6F93B7896DFB166E77&assignmentId=6d938ed6-bc88-409f-9b01-dce458ba9711&projectId=051c06f1-75cc-4548-856d-4923ddaba0dc","5DD51B2714F64E6F93B7896DFB166E77-2025-05-15-19-23-22","","null","","[]","null","",""
"","","","","","instructions","21","162598","0.0-7.0","5DD51B2714F64E6F93B7896DFB166E77","5DD51B2714F64E6F93B7896DFB166E77","6d938ed6-bc88-409f-9b01-dce458ba9711","051c06f1-75cc-4548-856d-4923ddaba0dc","{""num_scrambled_semantic"":""8"",""num_scrambled_causal"":""4"",""num_scrambled_schematic"":""4"",""participantId"":""5DD51B2714F64E6F93B7896DFB166E77"",""assignmentId"":""6d938ed6-bc88-409f-9b01-dce458ba9711"",""projectId"":""051c06f1-75cc-4548-856d-4923ddaba0dc""}","https://test12345.live/?num_scrambled_semantic=8&num_scrambled_causal=4&num_scrambled_schematic=4&participantId=5DD51B2714F64E6F93B7896DFB166E77&assignmentId=6d938ed6-bc88-409f-9b01-dce458ba9711&projectId=051c06f1-75cc-4548-856d-4923ddaba0dc","5DD51B2714F64E6F93B7896DFB166E77-2025-05-15-19-23-22","[{""page_index"":0,""viewing_time"":11391},{""page_index"":1,""viewing_time"":1710}]","13102","","","","",""
"","","","","","html-audio-response","22","203095","0.0-8.0","5DD51B2714F64E6F93B7896DFB166E77","5DD51B2714F64E6F93B7896DFB166E77","6d938ed6-bc88-409f-9b01-dce458ba9711","051c06f1-75cc-4548-856d-4923ddaba0dc","{""num_scrambled_semantic"":""8"",""num_scrambled_causal"":""4"",""num_scrambled_schematic"":""4"",""participantId"":""5DD51B2714F64E6F93B7896DFB166E77"",""assignmentId"":""6d938ed6-bc88-409f-9b01-dce458ba9711"",""projectId"":""051c06f1-75cc-4548-856d-4923ddaba0dc""}","https://test12345.live/?num_scrambled_semantic=8&num_scrambled_causal=4&num_scrambled_schematic=4&participantId=5DD51B2714F64E6F93B7896DFB166E77&assignmentId=6d938ed6-bc88-409f-9b01-dce458ba9711&projectId=051c06f1-75cc-4548-856d-4923ddaba0dc","5DD51B2714F64E6F93B7896DFB166E77-2025-05-15-19-23-22","","19827","","[""<span style=\""color: red; font-size: 24px\""> NOW RECORDING</span><p>Please say out loud all the images you saw, as many as you can remember. The images can be said in any order.</p>""]","","2",""
"","","","","","instructions","23","205222","0.0-9.0","5DD51B2714F64E6F93B7896DFB166E77","5DD51B2714F64E6F93B7896DFB166E77","6d938ed6-bc88-409f-9b01-dce458ba9711","051c06f1-75cc-4548-856d-4923ddaba0dc","{""num_scrambled_semantic"":""8"",""num_scrambled_causal"":""4"",""num_scrambled_schematic"":""4"",""participantId"":""5DD51B2714F64E6F93B7896DFB166E77"",""assignmentId"":""6d938ed6-bc88-409f-9b01-dce458ba9711"",""projectId"":""051c06f1-75cc-4548-856d-4923ddaba0dc""}","https://test12345.live/?num_scrambled_semantic=8&num_scrambled_causal=4&num_scrambled_schematic=4&participantId=5DD51B2714F64E6F93B7896DFB166E77&assignmentId=6d938ed6-bc88-409f-9b01-dce458ba9711&projectId=051c06f1-75cc-4548-856d-4923ddaba0dc","5DD51B2714F64E6F93B7896DFB166E77-2025-05-15-19-23-22","[{""page_index"":0,""viewing_time"":2118}]","2118","","","","",""
"","","","","","image-button-response","24","211233","0.0-10.0-0.0","5DD51B2714F64E6F93B7896DFB166E77","5DD51B2714F64E6F93B7896DFB166E77","6d938ed6-bc88-409f-9b01-dce458ba9711","051c06f1-75cc-4548-856d-4923ddaba0dc","{""num_scrambled_semantic"":""8"",""num_scrambled_causal"":""4"",""num_scrambled_schematic"":""4"",""participantId"":""5DD51B2714F64E6F93B7896DFB166E77"",""assignmentId"":""6d938ed6-bc88-409f-9b01-dce458ba9711"",""projectId"":""051c06f1-75cc-4548-856d-4923ddaba0dc""}","https://test12345.live/?num_scrambled_semantic=8&num_scrambled_causal=4&num_scrambled_schematic=4&participantId=5DD51B2714F64E6F93B7896DFB166E77&assignmentId=6d938ed6-bc88-409f-9b01-dce458ba9711&projectId=051c06f1-75cc-4548-856d-4923ddaba0dc","5DD51B2714F64E6F93B7896DFB166E77-2025-05-15-19-23-22","","null","","images/semantic_sequence/self_care_activities_semantic/self_care_activities_semantic_0.png","null","",""
"","","","","","image-button-response","25","215746","0.0-10.0-1.0-0.0","5DD51B2714F64E6F93B7896DFB166E77","5DD51B2714F64E6F93B7896DFB166E77","6d938ed6-bc88-409f-9b01-dce458ba9711","051c06f1-75cc-4548-856d-4923ddaba0dc","{""num_scrambled_semantic"":""8"",""num_scrambled_causal"":""4"",""num_scrambled_schematic"":""4"",""participantId"":""5DD51B2714F64E6F93B7896DFB166E77"",""assignmentId"":""6d938ed6-bc88-409f-9b01-dce458ba9711"",""projectId"":""051c06f1-75cc-4548-856d-4923ddaba0dc""}","https://test12345.live/?num_scrambled_semantic=8&num_scrambled_causal=4&num_scrambled_schematic=4&participantId=5DD51B2714F64E6F93B7896DFB166E77&assignmentId=6d938ed6-bc88-409f-9b01-dce458ba9711&projectId=051c06f1-75cc-4548-856d-4923ddaba0dc","5DD51B2714F64E6F93B7896DFB166E77-2025-05-15-19-23-22","","null","","images/semantic_sequence/self_care_activities_semantic/self_care_activities_semantic_7.png","null","",""
"","","","","","image-button-response","26","219753","0.0-10.0-1.0-1.0","5DD51B2714F64E6F93B7896DFB166E77","5DD51B2714F64E6F93B7896DFB166E77","6d938ed6-bc88-409f-9b01-dce458ba9711","051c06f1-75cc-4548-856d-4923ddaba0dc","{""num_scrambled_semantic"":""8"",""num_scrambled_causal"":""4"",""num_scrambled_schematic"":""4"",""participantId"":""5DD51B2714F64E6F93B7896DFB166E77"",""assignmentId"":""6d938ed6-bc88-409f-9b01-dce458ba9711"",""projectId"":""051c06f1-75cc-4548-856d-4923ddaba0dc""}","https://test12345.live/?num_scrambled_semantic=8&num_scrambled_causal=4&num_scrambled_schematic=4&participantId=5DD51B2714F64E6F93B7896DFB166E77&assignmentId=6d938ed6-bc88-409f-9b01-dce458ba9711&projectId=051c06f1-75cc-4548-856d-4923ddaba0dc","5DD51B2714F64E6F93B7896DFB166E77-2025-05-15-19-23-22","","null","","images/semantic_sequence/self_care_activities_semantic/self_care_activities_semantic_7.png","null","",""
"","","","","","image-button-response","27","221557","0.0-10.0-1.0-2.0","5DD51B2714F64E6F93B7896DFB166E77","5DD51B2714F64E6F93B7896DFB166E77","6d938ed6-bc88-409f-9b01-dce458ba9711","051c06f1-75cc-4548-856d-4923ddaba0dc","{""num_scrambled_semantic"":""8"",""num_scrambled_causal"":""4"",""num_scrambled_schematic"":""4"",""participantId"":""5DD51B2714F64E6F93B7896DFB166E77"",""assignmentId"":""6d938ed6-bc88-409f-9b01-dce458ba9711"",""projectId"":""051c06f1-75cc-4548-856d-4923ddaba0dc""}","https://test12345.live/?num_scrambled_semantic=8&num_scrambled_causal=4&num_scrambled_schematic=4&participantId=5DD51B2714F64E6F93B7896DFB166E77&assignmentId=6d938ed6-bc88-409f-9b01-dce458ba9711&projectId=051c06f1-75cc-4548-856d-4923ddaba0dc","5DD51B2714F64E6F93B7896DFB166E77-2025-05-15-19-23-22","","null","","[]","null","",""
"","","","","","image-button-response","28","226072","0.0-10.0-1.0-0.1","5DD51B2714F64E6F93B7896DFB166E77","5DD51B2714F64E6F93B7896DFB166E77","6d938ed6-bc88-409f-9b01-dce458ba9711","051c06f1-75cc-4548-856d-4923ddaba0dc","{""num_scrambled_semantic"":""8"",""num_scrambled_causal"":""4"",""num_scrambled_schematic"":""4"",""participantId"":""5DD51B2714F64E6F93B7896DFB166E77"",""assignmentId"":""6d938ed6-bc88-409f-9b01-dce458ba9711"",""projectId"":""051c06f1-75cc-4548-856d-4923ddaba0dc""}","https://test12345.live/?num_scrambled_semantic=8&num_scrambled_causal=4&num_scrambled_schematic=4&participantId=5DD51B2714F64E6F93B7896DFB166E77&assignmentId=6d938ed6-bc88-409f-9b01-dce458ba9711&projectId=051c06f1-75cc-4548-856d-4923ddaba0dc","5DD51B2714F64E6F93B7896DFB166E77-2025-05-15-19-23-22","","null","","images/semantic_sequence/self_care_activities_semantic/self_care_activities_semantic_1.png","null","",""
"","","","","","image-button-response","29","228149","0.0-10.0-1.0-1.1","5DD51B2714F64E6F93B7896DFB166E77","5DD51B2714F64E6F93B7896DFB166E77","6d938ed6-bc88-409f-9b01-dce458ba9711","051c06f1-75cc-4548-856d-4923ddaba0dc","{""num_scrambled_semantic"":""8"",""num_scrambled_causal"":""4"",""num_scrambled_schematic"":""4"",""participantId"":""5DD51B2714F64E6F93B7896DFB166E77"",""assignmentId"":""6d938ed6-bc88-409f-9b01-dce458ba9711"",""projectId"":""051c06f1-75cc-4548-856d-4923ddaba0dc""}","https://test12345.live/?num_scrambled_semantic=8&num_scrambled_causal=4&num_scrambled_schematic=4&participantId=5DD51B2714F64E6F93B7896DFB166E77&assignmentId=6d938ed6-bc88-409f-9b01-dce458ba9711&projectId=051c06f1-75cc-4548-856d-4923ddaba0dc","5DD51B2714F64E6F93B7896DFB166E77-2025-05-15-19-23-22","","2075","","images/semantic_sequence/self_care_activities_semantic/self_care_activities_semantic_1.png","0","",""
"","","","","","image-button-response","30","229959","0.0-10.0-1.0-2.1","5DD51B2714F64E6F93B7896DFB166E77","5DD51B2714F64E6F93B7896DFB166E77","6d938ed6-bc88-409f-9b01-dce458ba9711","051c06f1-75cc-4548-856d-4923ddaba0dc","{""num_scrambled_semantic"":""8"",""num_scrambled_causal"":""4"",""num_scrambled_schematic"":""4"",""participantId"":""5DD51B2714F64E6F93B7896DFB166E77"",""assignmentId"":""6d938ed6-bc88-409f-9b01-dce458ba9711"",""projectId"":""051c06f1-75cc-4548-856d-4923ddaba0dc""}","https://test12345.live/?num_scrambled_semantic=8&num_scrambled_causal=4&num_scrambled_schematic=4&participantId=5DD51B2714F64E6F93B7896DFB166E77&assignmentId=6d938ed6-bc88-409f-9b01-dce458ba9711&projectId=051c06f1-75cc-4548-856d-4923ddaba0dc","5DD51B2714F64E6F93B7896DFB166E77-2025-05-15-19-23-22","","null","","[]","null","",""
"","","","","","image-button-response","31","234465","0.0-10.0-1.0-0.2","5DD51B2714F64E6F93B7896DFB166E77","5DD51B2714F64E6F93B7896DFB166E77","6d938ed6-bc88-409f-9b01-dce458ba9711","051c06f1-75cc-4548-856d-4923ddaba0dc","{""num_scrambled_semantic"":""8"",""num_scrambled_causal"":""4"",""num_scrambled_schematic"":""4"",""participantId"":""5DD51B2714F64E6F93B7896DFB166E77"",""assignmentId"":""6d938ed6-bc88-409f-9b01-dce458ba9711"",""projectId"":""051c06f1-75cc-4548-856d-4923ddaba0dc""}","https://test12345.live/?num_scrambled_semantic=8&num_scrambled_causal=4&num_scrambled_schematic=4&participantId=5DD51B2714F64E6F93B7896DFB166E77&assignmentId=6d938ed6-bc88-409f-9b01-dce458ba9711&projectId=051c06f1-75cc-4548-856d-4923ddaba0dc","5DD51B2714F64E6F93B7896DFB166E77-2025-05-15-19-23-22","","null","","images/semantic_sequence/self_care_activities_semantic/self_care_activities_semantic_9.png","null","",""
"","","","","","image-button-response","32","237694","0.0-10.0-1.0-1.2","5DD51B2714F64E6F93B7896DFB166E77","5DD51B2714F64E6F93B7896DFB166E77","6d938ed6-bc88-409f-9b01-dce458ba9711","051c06f1-75cc-4548-856d-4923ddaba0dc","{""num_scrambled_semantic"":""8"",""num_scrambled_causal"":""4"",""num_scrambled_schematic"":""4"",""participantId"":""5DD51B2714F64E6F93B7896DFB166E77"",""assignmentId"":""6d938ed6-bc88-409f-9b01-dce458ba9711"",""projectId"":""051c06f1-75cc-4548-856d-4923ddaba0dc""}","https://test12345.live/?num_scrambled_semantic=8&num_scrambled_causal=4&num_scrambled_schematic=4&participantId=5DD51B2714F64E6F93B7896DFB166E77&assignmentId=6d938ed6-bc88-409f-9b01-dce458ba9711&projectId=051c06f1-75cc-4548-856d-4923ddaba0dc","5DD51B2714F64E6F93B7896DFB166E77-2025-05-15-19-23-22","","3226","","images/semantic_sequence/self_care_activities_semantic/self_care_activities_semantic_9.png","0","",""
"","","","","","image-button-response","33","239497","0.0-10.0-1.0-2.2","5DD51B2714F64E6F93B7896DFB166E77","5DD51B2714F64E6F93B7896DFB166E77","6d938ed6-bc88-409f-9b01-dce458ba9711","051c06f1-75cc-4548-856d-4923ddaba0dc","{""num_scrambled_semantic"":""8"",""num_scrambled_causal"":""4"",""num_scrambled_schematic"":""4"",""participantId"":""5DD51B2714F64E6F93B7896DFB166E77"",""assignmentId"":""6d938ed6-bc88-409f-9b01-dce458ba9711"",""projectId"":""051c06f1-75cc-4548-856d-4923ddaba0dc""}","https://test12345.live/?num_scrambled_semantic=8&num_scrambled_causal=4&num_scrambled_schematic=4&participantId=5DD51B2714F64E6F93B7896DFB166E77&assignmentId=6d938ed6-bc88-409f-9b01-dce458ba9711&projectId=051c06f1-75cc-4548-856d-4923ddaba0dc","5DD51B2714F64E6F93B7896DFB166E77-2025-05-15-19-23-22","","null","","[]","null","",""
"","","","","","image-button-response","34","244011","0.0-10.0-1.0-0.3","5DD51B2714F64E6F93B7896DFB166E77","5DD51B2714F64E6F93B7896DFB166E77","6d938ed6-bc88-409f-9b01-dce458ba9711","051c06f1-75cc-4548-856d-4923ddaba0dc","{""num_scrambled_semantic"":""8"",""num_scrambled_causal"":""4"",""num_scrambled_schematic"":""4"",""participantId"":""5DD51B2714F64E6F93B7896DFB166E77"",""assignmentId"":""6d938ed6-bc88-409f-9b01-dce458ba9711"",""projectId"":""051c06f1-75cc-4548-856d-4923ddaba0dc""}","https://test12345.live/?num_scrambled_semantic=8&num_scrambled_causal=4&num_scrambled_schematic=4&participantId=5DD51B2714F64E6F93B7896DFB166E77&assignmentId=6d938ed6-bc88-409f-9b01-dce458ba9711&projectId=051c06f1-75cc-4548-856d-4923ddaba0dc","5DD51B2714F64E6F93B7896DFB166E77-2025-05-15-19-23-22","","null","","images/semantic_sequence/self_care_activities_semantic/self_care_activities_semantic_ten.png","null","",""
"","","","","","image-button-response","35","245724","0.0-10.0-1.0-1.3","5DD51B2714F64E6F93B7896DFB166E77","5DD51B2714F64E6F93B7896DFB166E77","6d938ed6-bc88-409f-9b01-dce458ba9711","051c06f1-75cc-4548-856d-4923ddaba0dc","{""num_scrambled_semantic"":""8"",""num_scrambled_causal"":""4"",""num_scrambled_schematic"":""4"",""participantId"":""5DD51B2714F64E6F93B7896DFB166E77"",""assignmentId"":""6d938ed6-bc88-409f-9b01-dce458ba9711"",""projectId"":""051c06f1-75cc-4548-856d-4923ddaba0dc""}","https://test12345.live/?num_scrambled_semantic=8&num_scrambled_causal=4&num_scrambled_schematic=4&participantId=5DD51B2714F64E6F93B7896DFB166E77&assignmentId=6d938ed6-bc88-409f-9b01-dce458ba9711&projectId=051c06f1-75cc-4548-856d-4923ddaba0dc","5DD51B2714F64E6F93B7896DFB166E77-2025-05-15-19-23-22","","1712","","images/semantic_sequence/self_care_activities_semantic/self_care_activities_semantic_ten.png","0","",""
"","","","","","image-button-response","36","247542","0.0-10.0-1.0-2.3","5DD51B2714F64E6F93B7896DFB166E77","5DD51B2714F64E6F93B7896DFB166E77","6d938ed6-bc88-409f-9b01-dce458ba9711","051c06f1-75cc-4548-856d-4923ddaba0dc","{""num_scrambled_semantic"":""8"",""num_scrambled_causal"":""4"",""num_scrambled_schematic"":""4"",""participantId"":""5DD51B2714F64E6F93B7896DFB166E77"",""assignmentId"":""6d938ed6-bc88-409f-9b01-dce458ba9711"",""projectId"":""051c06f1-75cc-4548-856d-4923ddaba0dc""}","https://test12345.live/?num_scrambled_semantic=8&num_scrambled_causal=4&num_scrambled_schematic=4&participantId=5DD51B2714F64E6F93B7896DFB166E77&assignmentId=6d938ed6-bc88-409f-9b01-dce458ba9711&projectId=051c06f1-75cc-4548-856d-4923ddaba0dc","5DD51B2714F64E6F93B7896DFB166E77-2025-05-15-19-23-22","","null","","[]","null","",""
"","","","","","image-button-response","37","252046","0.0-10.0-1.0-0.4","5DD51B2714F64E6F93B7896DFB166E77","5DD51B2714F64E6F93B7896DFB166E77","6d938ed6-bc88-409f-9b01-dce458ba9711","051c06f1-75cc-4548-856d-4923ddaba0dc","{""num_scrambled_semantic"":""8"",""num_scrambled_causal"":""4"",""num_scrambled_schematic"":""4"",""participantId"":""5DD51B2714F64E6F93B7896DFB166E77"",""assignmentId"":""6d938ed6-bc88-409f-9b01-dce458ba9711"",""projectId"":""051c06f1-75cc-4548-856d-4923ddaba0dc""}","https://test12345.live/?num_scrambled_semantic=8&num_scrambled_causal=4&num_scrambled_schematic=4&participantId=5DD51B2714F64E6F93B7896DFB166E77&assignmentId=6d938ed6-bc88-409f-9b01-dce458ba9711&projectId=051c06f1-75cc-4548-856d-4923ddaba0dc","5DD51B2714F64E6F93B7896DFB166E77-2025-05-15-19-23-22","","null","","images/semantic_sequence/self_care_activities_semantic/self_care_activities_semantic_5.png","null","",""
"","","","","","image-button-response","38","253482","0.0-10.0-1.0-1.4","5DD51B2714F64E6F93B7896DFB166E77","5DD51B2714F64E6F93B7896DFB166E77","6d938ed6-bc88-409f-9b01-dce458ba9711","051c06f1-75cc-4548-856d-4923ddaba0dc","{""num_scrambled_semantic"":""8"",""num_scrambled_causal"":""4"",""num_scrambled_schematic"":""4"",""participantId"":""5DD51B2714F64E6F93B7896DFB166E77"",""assignmentId"":""6d938ed6-bc88-409f-9b01-dce458ba9711"",""projectId"":""051c06f1-75cc-4548-856d-4923ddaba0dc""}","https://test12345.live/?num_scrambled_semantic=8&num_scrambled_causal=4&num_scrambled_schematic=4&participantId=5DD51B2714F64E6F93B7896DFB166E77&assignmentId=6d938ed6-bc88-409f-9b01-dce458ba9711&projectId=051c06f1-75cc-4548-856d-4923ddaba0dc","5DD51B2714F64E6F93B7896DFB166E77-2025-05-15-19-23-22","","1434","","images/semantic_sequence/self_care_activities_semantic/self_care_activities_semantic_5.png","0","",""
"","","","","","image-button-response","39","255289","0.0-10.0-1.0-2.4","5DD51B2714F64E6F93B7896DFB166E77","5DD51B2714F64E6F93B7896DFB166E77","6d938ed6-bc88-409f-9b01-dce458ba9711","051c06f1-75cc-4548-856d-4923ddaba0dc","{""num_scrambled_semantic"":""8"",""num_scrambled_causal"":""4"",""num_scrambled_schematic"":""4"",""participantId"":""5DD51B2714F64E6F93B7896DFB166E77"",""assignmentId"":""6d938ed6-bc88-409f-9b01-dce458ba9711"",""projectId"":""051c06f1-75cc-4548-856d-4923ddaba0dc""}","https://test12345.live/?num_scrambled_semantic=8&num_scrambled_causal=4&num_scrambled_schematic=4&participantId=5DD51B2714F64E6F93B7896DFB166E77&assignmentId=6d938ed6-bc88-409f-9b01-dce458ba9711&projectId=051c06f1-75cc-4548-856d-4923ddaba0dc","5DD51B2714F64E6F93B7896DFB166E77-2025-05-15-19-23-22","","null","","[]","null","",""
"","","","","","image-button-response","40","259805","0.0-10.0-1.0-0.5","5DD51B2714F64E6F93B7896DFB166E77","5DD51B2714F64E6F93B7896DFB166E77","6d938ed6-bc88-409f-9b01-dce458ba9711","051c06f1-75cc-4548-856d-4923ddaba0dc","{""num_scrambled_semantic"":""8"",""num_scrambled_causal"":""4"",""num_scrambled_schematic"":""4"",""participantId"":""5DD51B2714F64E6F93B7896DFB166E77"",""assignmentId"":""6d938ed6-bc88-409f-9b01-dce458ba9711"",""projectId"":""051c06f1-75cc-4548-856d-4923ddaba0dc""}","https://test12345.live/?num_scrambled_semantic=8&num_scrambled_causal=4&num_scrambled_schematic=4&participantId=5DD51B2714F64E6F93B7896DFB166E77&assignmentId=6d938ed6-bc88-409f-9b01-dce458ba9711&projectId=051c06f1-75cc-4548-856d-4923ddaba0dc","5DD51B2714F64E6F93B7896DFB166E77-2025-05-15-19-23-22","","null","","images/semantic_sequence/self_care_activities_semantic/self_care_activities_semantic_6.png","null","",""
"","","","","","image-button-response","41","263255","0.0-10.0-1.0-1.5","5DD51B2714F64E6F93B7896DFB166E77","5DD51B2714F64E6F93B7896DFB166E77","6d938ed6-bc88-409f-9b01-dce458ba9711","051c06f1-75cc-4548-856d-4923ddaba0dc","{""num_scrambled_semantic"":""8"",""num_scrambled_causal"":""4"",""num_scrambled_schematic"":""4"",""participantId"":""5DD51B2714F64E6F93B7896DFB166E77"",""assignmentId"":""6d938ed6-bc88-409f-9b01-dce458ba9711"",""projectId"":""051c06f1-75cc-4548-856d-4923ddaba0dc""}","https://test12345.live/?num_scrambled_semantic=8&num_scrambled_causal=4&num_scrambled_schematic=4&participantId=5DD51B2714F64E6F93B7896DFB166E77&assignmentId=6d938ed6-bc88-409f-9b01-dce458ba9711&projectId=051c06f1-75cc-4548-856d-4923ddaba0dc","5DD51B2714F64E6F93B7896DFB166E77-2025-05-15-19-23-22","","3447","","images/semantic_sequence/self_care_activities_semantic/self_care_activities_semantic_6.png","1","",""
"","","","","","image-button-response","42","265063","0.0-10.0-1.0-2.5","5DD51B2714F64E6F93B7896DFB166E77","5DD51B2714F64E6F93B7896DFB166E77","6d938ed6-bc88-409f-9b01-dce458ba9711","051c06f1-75cc-4548-856d-4923ddaba0dc","{""num_scrambled_semantic"":""8"",""num_scrambled_causal"":""4"",""num_scrambled_schematic"":""4"",""participantId"":""5DD51B2714F64E6F93B7896DFB166E77"",""assignmentId"":""6d938ed6-bc88-409f-9b01-dce458ba9711"",""projectId"":""051c06f1-75cc-4548-856d-4923ddaba0dc""}","https://test12345.live/?num_scrambled_semantic=8&num_scrambled_causal=4&num_scrambled_schematic=4&participantId=5DD51B2714F64E6F93B7896DFB166E77&assignmentId=6d938ed6-bc88-409f-9b01-dce458ba9711&projectId=051c06f1-75cc-4548-856d-4923ddaba0dc","5DD51B2714F64E6F93B7896DFB166E77-2025-05-15-19-23-22","","null","","[]","null","",""
"","","","","","image-button-response","43","269575","0.0-10.0-1.0-0.6","5DD51B2714F64E6F93B7896DFB166E77","5DD51B2714F64E6F93B7896DFB166E77","6d938ed6-bc88-409f-9b01-dce458ba9711","051c06f1-75cc-4548-856d-4923ddaba0dc","{""num_scrambled_semantic"":""8"",""num_scrambled_causal"":""4"",""num_scrambled_schematic"":""4"",""participantId"":""5DD51B2714F64E6F93B7896DFB166E77"",""assignmentId"":""6d938ed6-bc88-409f-9b01-dce458ba9711"",""projectId"":""051c06f1-75cc-4548-856d-4923ddaba0dc""}","https://test12345.live/?num_scrambled_semantic=8&num_scrambled_causal=4&num_scrambled_schematic=4&participantId=5DD51B2714F64E6F93B7896DFB166E77&assignmentId=6d938ed6-bc88-409f-9b01-dce458ba9711&projectId=051c06f1-75cc-4548-856d-4923ddaba0dc","5DD51B2714F64E6F93B7896DFB166E77-2025-05-15-19-23-22","","null","","images/semantic_sequence/self_care_activities_semantic/self_care_activities_semantic_2.png","null","",""
"","","","","","image-button-response","44","272456","0.0-10.0-1.0-1.6","5DD51B2714F64E6F93B7896DFB166E77","5DD51B2714F64E6F93B7896DFB166E77","6d938ed6-bc88-409f-9b01-dce458ba9711","051c06f1-75cc-4548-856d-4923ddaba0dc","{""num_scrambled_semantic"":""8"",""num_scrambled_causal"":""4"",""num_scrambled_schematic"":""4"",""participantId"":""5DD51B2714F64E6F93B7896DFB166E77"",""assignmentId"":""6d938ed6-bc88-409f-9b01-dce458ba9711"",""projectId"":""051c06f1-75cc-4548-856d-4923ddaba0dc""}","https://test12345.live/?num_scrambled_semantic=8&num_scrambled_causal=4&num_scrambled_schematic=4&participantId=5DD51B2714F64E6F93B7896DFB166E77&assignmentId=6d938ed6-bc88-409f-9b01-dce458ba9711&projectId=051c06f1-75cc-4548-856d-4923ddaba0dc","5DD51B2714F64E6F93B7896DFB166E77-2025-05-15-19-23-22","","2878","","images/semantic_sequence/self_care_activities_semantic/self_care_activities_semantic_2.png","0","",""
"","","","","","image-button-response","45","274266","0.0-10.0-1.0-2.6","5DD51B2714F64E6F93B7896DFB166E77","5DD51B2714F64E6F93B7896DFB166E77","6d938ed6-bc88-409f-9b01-dce458ba9711","051c06f1-75cc-4548-856d-4923ddaba0dc","{""num_scrambled_semantic"":""8"",""num_scrambled_causal"":""4"",""num_scrambled_schematic"":""4"",""participantId"":""5DD51B2714F64E6F93B7896DFB166E77"",""assignmentId"":""6d938ed6-bc88-409f-9b01-dce458ba9711"",""projectId"":""051c06f1-75cc-4548-856d-4923ddaba0dc""}","https://test12345.live/?num_scrambled_semantic=8&num_scrambled_causal=4&num_scrambled_schematic=4&participantId=5DD51B2714F64E6F93B7896DFB166E77&assignmentId=6d938ed6-bc88-409f-9b01-dce458ba9711&projectId=051c06f1-75cc-4548-856d-4923ddaba0dc","5DD51B2714F64E6F93B7896DFB166E77-2025-05-15-19-23-22","","null","","[]","null","",""
"","","","","","image-button-response","46","278778","0.0-10.0-1.0-0.7","5DD51B2714F64E6F93B7896DFB166E77","5DD51B2714F64E6F93B7896DFB166E77","6d938ed6-bc88-409f-9b01-dce458ba9711","051c06f1-75cc-4548-856d-4923ddaba0dc","{""num_scrambled_semantic"":""8"",""num_scrambled_causal"":""4"",""num_scrambled_schematic"":""4"",""participantId"":""5DD51B2714F64E6F93B7896DFB166E77"",""assignmentId"":""6d938ed6-bc88-409f-9b01-dce458ba9711"",""projectId"":""051c06f1-75cc-4548-856d-4923ddaba0dc""}","https://test12345.live/?num_scrambled_semantic=8&num_scrambled_causal=4&num_scrambled_schematic=4&participantId=5DD51B2714F64E6F93B7896DFB166E77&assignmentId=6d938ed6-bc88-409f-9b01-dce458ba9711&projectId=051c06f1-75cc-4548-856d-4923ddaba0dc","5DD51B2714F64E6F93B7896DFB166E77-2025-05-15-19-23-22","","null","","images/semantic_sequence/self_care_activities_semantic/self_care_activities_semantic_8.png","null","",""
"","","","","","image-button-response","47","280514","0.0-10.0-1.0-1.7","5DD51B2714F64E6F93B7896DFB166E77","5DD51B2714F64E6F93B7896DFB166E77","6d938ed6-bc88-409f-9b01-dce458ba9711","051c06f1-75cc-4548-856d-4923ddaba0dc","{""num_scrambled_semantic"":""8"",""num_scrambled_causal"":""4"",""num_scrambled_schematic"":""4"",""participantId"":""5DD51B2714F64E6F93B7896DFB166E77"",""assignmentId"":""6d938ed6-bc88-409f-9b01-dce458ba9711"",""projectId"":""051c06f1-75cc-4548-856d-4923ddaba0dc""}","https://test12345.live/?num_scrambled_semantic=8&num_scrambled_causal=4&num_scrambled_schematic=4&participantId=5DD51B2714F64E6F93B7896DFB166E77&assignmentId=6d938ed6-bc88-409f-9b01-dce458ba9711&projectId=051c06f1-75cc-4548-856d-4923ddaba0dc","5DD51B2714F64E6F93B7896DFB166E77-2025-05-15-19-23-22","","1734","","images/semantic_sequence/self_care_activities_semantic/self_care_activities_semantic_8.png","0","",""
"","","","","","image-button-response","48","282330","0.0-10.0-1.0-2.7","5DD51B2714F64E6F93B7896DFB166E77","5DD51B2714F64E6F93B7896DFB166E77","6d938ed6-bc88-409f-9b01-dce458ba9711","051c06f1-75cc-4548-856d-4923ddaba0dc","{""num_scrambled_semantic"":""8"",""num_scrambled_causal"":""4"",""num_scrambled_schematic"":""4"",""participantId"":""5DD51B2714F64E6F93B7896DFB166E77"",""assignmentId"":""6d938ed6-bc88-409f-9b01-dce458ba9711"",""projectId"":""051c06f1-75cc-4548-856d-4923ddaba0dc""}","https://test12345.live/?num_scrambled_semantic=8&num_scrambled_causal=4&num_scrambled_schematic=4&participantId=5DD51B2714F64E6F93B7896DFB166E77&assignmentId=6d938ed6-bc88-409f-9b01-dce458ba9711&projectId=051c06f1-75cc-4548-856d-4923ddaba0dc","5DD51B2714F64E6F93B7896DFB166E77-2025-05-15-19-23-22","","null","","[]","null","",""
"","","","","","image-button-response","49","286839","0.0-10.0-1.0-0.8","5DD51B2714F64E6F93B7896DFB166E77","5DD51B2714F64E6F93B7896DFB166E77","6d938ed6-bc88-409f-9b01-dce458ba9711","051c06f1-75cc-4548-856d-4923ddaba0dc","{""num_scrambled_semantic"":""8"",""num_scrambled_causal"":""4"",""num_scrambled_schematic"":""4"",""participantId"":""5DD51B2714F64E6F93B7896DFB166E77"",""assignmentId"":""6d938ed6-bc88-409f-9b01-dce458ba9711"",""projectId"":""051c06f1-75cc-4548-856d-4923ddaba0dc""}","https://test12345.live/?num_scrambled_semantic=8&num_scrambled_causal=4&num_scrambled_schematic=4&participantId=5DD51B2714F64E6F93B7896DFB166E77&assignmentId=6d938ed6-bc88-409f-9b01-dce458ba9711&projectId=051c06f1-75cc-4548-856d-4923ddaba0dc","5DD51B2714F64E6F93B7896DFB166E77-2025-05-15-19-23-22","","null","","images/semantic_sequence/self_care_activities_semantic/self_care_activities_semantic_3.png","null","",""
"","","","","","image-button-response","50","290250","0.0-10.0-1.0-1.8","5DD51B2714F64E6F93B7896DFB166E77","5DD51B2714F64E6F93B7896DFB166E77","6d938ed6-bc88-409f-9b01-dce458ba9711","051c06f1-75cc-4548-856d-4923ddaba0dc","{""num_scrambled_semantic"":""8"",""num_scrambled_causal"":""4"",""num_scrambled_schematic"":""4"",""participantId"":""5DD51B2714F64E6F93B7896DFB166E77"",""assignmentId"":""6d938ed6-bc88-409f-9b01-dce458ba9711"",""projectId"":""051c06f1-75cc-4548-856d-4923ddaba0dc""}","https://test12345.live/?num_scrambled_semantic=8&num_scrambled_causal=4&num_scrambled_schematic=4&participantId=5DD51B2714F64E6F93B7896DFB166E77&assignmentId=6d938ed6-bc88-409f-9b01-dce458ba9711&projectId=051c06f1-75cc-4548-856d-4923ddaba0dc","5DD51B2714F64E6F93B7896DFB166E77-2025-05-15-19-23-22","","3408","","images/semantic_sequence/self_care_activities_semantic/self_care_activities_semantic_3.png","0","",""
"","","","","","image-button-response","51","292058","0.0-10.0-1.0-2.8","5DD51B2714F64E6F93B7896DFB166E77","5DD51B2714F64E6F93B7896DFB166E77","6d938ed6-bc88-409f-9b01-dce458ba9711","051c06f1-75cc-4548-856d-4923ddaba0dc","{""num_scrambled_semantic"":""8"",""num_scrambled_causal"":""4"",""num_scrambled_schematic"":""4"",""participantId"":""5DD51B2714F64E6F93B7896DFB166E77"",""assignmentId"":""6d938ed6-bc88-409f-9b01-dce458ba9711"",""projectId"":""051c06f1-75cc-4548-856d-4923ddaba0dc""}","https://test12345.live/?num_scrambled_semantic=8&num_scrambled_causal=4&num_scrambled_schematic=4&participantId=5DD51B2714F64E6F93B7896DFB166E77&assignmentId=6d938ed6-bc88-409f-9b01-dce458ba9711&projectId=051c06f1-75cc-4548-856d-4923ddaba0dc","5DD51B2714F64E6F93B7896DFB166E77-2025-05-15-19-23-22","","null","","[]","null","",""
"","","","","","image-button-response","52","296569","0.0-10.0-1.0-0.9","5DD51B2714F64E6F93B7896DFB166E77","5DD51B2714F64E6F93B7896DFB166E77","6d938ed6-bc88-409f-9b01-dce458ba9711","051c06f1-75cc-4548-856d-4923ddaba0dc","{""num_scrambled_semantic"":""8"",""num_scrambled_causal"":""4"",""num_scrambled_schematic"":""4"",""participantId"":""5DD51B2714F64E6F93B7896DFB166E77"",""assignmentId"":""6d938ed6-bc88-409f-9b01-dce458ba9711"",""projectId"":""051c06f1-75cc-4548-856d-4923ddaba0dc""}","https://test12345.live/?num_scrambled_semantic=8&num_scrambled_causal=4&num_scrambled_schematic=4&participantId=5DD51B2714F64E6F93B7896DFB166E77&assignmentId=6d938ed6-bc88-409f-9b01-dce458ba9711&projectId=051c06f1-75cc-4548-856d-4923ddaba0dc","5DD51B2714F64E6F93B7896DFB166E77-2025-05-15-19-23-22","","null","","images/semantic_sequence/self_care_activities_semantic/self_care_activities_semantic_4.png","null","",""
"","","","","","image-button-response","53","298777","0.0-10.0-1.0-1.9","5DD51B2714F64E6F93B7896DFB166E77","5DD51B2714F64E6F93B7896DFB166E77","6d938ed6-bc88-409f-9b01-dce458ba9711","051c06f1-75cc-4548-856d-4923ddaba0dc","{""num_scrambled_semantic"":""8"",""num_scrambled_causal"":""4"",""num_scrambled_schematic"":""4"",""participantId"":""5DD51B2714F64E6F93B7896DFB166E77"",""assignmentId"":""6d938ed6-bc88-409f-9b01-dce458ba9711"",""projectId"":""051c06f1-75cc-4548-856d-4923ddaba0dc""}","https://test12345.live/?num_scrambled_semantic=8&num_scrambled_causal=4&num_scrambled_schematic=4&participantId=5DD51B2714F64E6F93B7896DFB166E77&assignmentId=6d938ed6-bc88-409f-9b01-dce458ba9711&projectId=051c06f1-75cc-4548-856d-4923ddaba0dc","5DD51B2714F64E6F93B7896DFB166E77-2025-05-15-19-23-22","","2206","","images/semantic_sequence/self_care_activities_semantic/self_care_activities_semantic_4.png","0","",""
"","","","","","image-button-response","54","300581","0.0-10.0-1.0-2.9","5DD51B2714F64E6F93B7896DFB166E77","5DD51B2714F64E6F93B7896DFB166E77","6d938ed6-bc88-409f-9b01-dce458ba9711","051c06f1-75cc-4548-856d-4923ddaba0dc","{""num_scrambled_semantic"":""8"",""num_scrambled_causal"":""4"",""num_scrambled_schematic"":""4"",""participantId"":""5DD51B2714F64E6F93B7896DFB166E77"",""assignmentId"":""6d938ed6-bc88-409f-9b01-dce458ba9711"",""projectId"":""051c06f1-75cc-4548-856d-4923ddaba0dc""}","https://test12345.live/?num_scrambled_semantic=8&num_scrambled_causal=4&num_scrambled_schematic=4&participantId=5DD51B2714F64E6F93B7896DFB166E77&assignmentId=6d938ed6-bc88-409f-9b01-dce458ba9711&projectId=051c06f1-75cc-4548-856d-4923ddaba0dc","5DD51B2714F64E6F93B7896DFB166E77-2025-05-15-19-23-22","","null","","[]","null","",""
"","","","","","html-audio-response","55","385988","0.0-11.0","5DD51B2714F64E6F93B7896DFB166E77","5DD51B2714F64E6F93B7896DFB166E77","6d938ed6-bc88-409f-9b01-dce458ba9711","051c06f1-75cc-4548-856d-4923ddaba0dc","{""num_scrambled_semantic"":""8"",""num_scrambled_causal"":""4"",""num_scrambled_schematic"":""4"",""participantId"":""5DD51B2714F64E6F93B7896DFB166E77"",""assignmentId"":""6d938ed6-bc88-409f-9b01-dce458ba9711"",""projectId"":""051c06f1-75cc-4548-856d-4923ddaba0dc""}","https://test12345.live/?num_scrambled_semantic=8&num_scrambled_causal=4&num_scrambled_schematic=4&participantId=5DD51B2714F64E6F93B7896DFB166E77&assignmentId=6d938ed6-bc88-409f-9b01-dce458ba9711&projectId=051c06f1-75cc-4548-856d-4923ddaba0dc","5DD51B2714F64E6F93B7896DFB166E77-2025-05-15-19-23-22","","11888","","[""<span style=\""color: red; font-size: 24px\""> NOW RECORDING</span><p>Please say out loud all the images you saw, as many as you can remember. The images can be said in any order.</p>""]","","2","self_care_activities_semantic"
"","","","","","image-button-response","56","391997","0.0-12.0-0.0","5DD51B2714F64E6F93B7896DFB166E77","5DD51B2714F64E6F93B7896DFB166E77","6d938ed6-bc88-409f-9b01-dce458ba9711","051c06f1-75cc-4548-856d-4923ddaba0dc","{""num_scrambled_semantic"":""8"",""num_scrambled_causal"":""4"",""num_scrambled_schematic"":""4"",""participantId"":""5DD51B2714F64E6F93B7896DFB166E77"",""assignmentId"":""6d938ed6-bc88-409f-9b01-dce458ba9711"",""projectId"":""051c06f1-75cc-4548-856d-4923ddaba0dc""}","https://test12345.live/?num_scrambled_semantic=8&num_scrambled_causal=4&num_scrambled_schematic=4&participantId=5DD51B2714F64E6F93B7896DFB166E77&assignmentId=6d938ed6-bc88-409f-9b01-dce458ba9711&projectId=051c06f1-75cc-4548-856d-4923ddaba0dc","5DD51B2714F64E6F93B7896DFB166E77-2025-05-15-19-23-22","","null","","images/schematic_sequence/restaurant_scheme/restaurant_scheme_0.png","null","",""
"","","","","","image-button-response","57","396509","0.0-12.0-1.0-0.0","5DD51B2714F64E6F93B7896DFB166E77","5DD51B2714F64E6F93B7896DFB166E77","6d938ed6-bc88-409f-9b01-dce458ba9711","051c06f1-75cc-4548-856d-4923ddaba0dc","{""num_scrambled_semantic"":""8"",""num_scrambled_causal"":""4"",""num_scrambled_schematic"":""4"",""participantId"":""5DD51B2714F64E6F93B7896DFB166E77"",""assignmentId"":""6d938ed6-bc88-409f-9b01-dce458ba9711"",""projectId"":""051c06f1-75cc-4548-856d-4923ddaba0dc""}","https://test12345.live/?num_scrambled_semantic=8&num_scrambled_causal=4&num_scrambled_schematic=4&participantId=5DD51B2714F64E6F93B7896DFB166E77&assignmentId=6d938ed6-bc88-409f-9b01-dce458ba9711&projectId=051c06f1-75cc-4548-856d-4923ddaba0dc","5DD51B2714F64E6F93B7896DFB166E77-2025-05-15-19-23-22","","null","","images/schematic_sequence/restaurant_scheme/restaurant_scheme_7.png","null","",""
"","","","","","image-button-response","58","398888","0.0-12.0-1.0-1.0","5DD51B2714F64E6F93B7896DFB166E77","5DD51B2714F64E6F93B7896DFB166E77","6d938ed6-bc88-409f-9b01-dce458ba9711","051c06f1-75cc-4548-856d-4923ddaba0dc","{""num_scrambled_semantic"":""8"",""num_scrambled_causal"":""4"",""num_scrambled_schematic"":""4"",""participantId"":""5DD51B2714F64E6F93B7896DFB166E77"",""assignmentId"":""6d938ed6-bc88-409f-9b01-dce458ba9711"",""projectId"":""051c06f1-75cc-4548-856d-4923ddaba0dc""}","https://test12345.live/?num_scrambled_semantic=8&num_scrambled_causal=4&num_scrambled_schematic=4&participantId=5DD51B2714F64E6F93B7896DFB166E77&assignmentId=6d938ed6-bc88-409f-9b01-dce458ba9711&projectId=051c06f1-75cc-4548-856d-4923ddaba0dc","5DD51B2714F64E6F93B7896DFB166E77-2025-05-15-19-23-22","","2376","","images/schematic_sequence/restaurant_scheme/restaurant_scheme_7.png","1","",""
"","","","","","image-button-response","59","400694","0.0-12.0-1.0-2.0","5DD51B2714F64E6F93B7896DFB166E77","5DD51B2714F64E6F93B7896DFB166E77","6d938ed6-bc88-409f-9b01-dce458ba9711","051c06f1-75cc-4548-856d-4923ddaba0dc","{""num_scrambled_semantic"":""8"",""num_scrambled_causal"":""4"",""num_scrambled_schematic"":""4"",""participantId"":""5DD51B2714F64E6F93B7896DFB166E77"",""assignmentId"":""6d938ed6-bc88-409f-9b01-dce458ba9711"",""projectId"":""051c06f1-75cc-4548-856d-4923ddaba0dc""}","https://test12345.live/?num_scrambled_semantic=8&num_scrambled_causal=4&num_scrambled_schematic=4&participantId=5DD51B2714F64E6F93B7896DFB166E77&assignmentId=6d938ed6-bc88-409f-9b01-dce458ba9711&projectId=051c06f1-75cc-4548-856d-4923ddaba0dc","5DD51B2714F64E6F93B7896DFB166E77-2025-05-15-19-23-22","","null","","[]","null","",""
"","","","","","image-button-response","60","405209","0.0-12.0-1.0-0.1","5DD51B2714F64E6F93B7896DFB166E77","5DD51B2714F64E6F93B7896DFB166E77","6d938ed6-bc88-409f-9b01-dce458ba9711","051c06f1-75cc-4548-856d-4923ddaba0dc","{""num_scrambled_semantic"":""8"",""num_scrambled_causal"":""4"",""num_scrambled_schematic"":""4"",""participantId"":""5DD51B2714F64E6F93B7896DFB166E77"",""assignmentId"":""6d938ed6-bc88-409f-9b01-dce458ba9711"",""projectId"":""051c06f1-75cc-4548-856d-4923ddaba0dc""}","https://test12345.live/?num_scrambled_semantic=8&num_scrambled_causal=4&num_scrambled_schematic=4&participantId=5DD51B2714F64E6F93B7896DFB166E77&assignmentId=6d938ed6-bc88-409f-9b01-dce458ba9711&projectId=051c06f1-75cc-4548-856d-4923ddaba0dc","5DD51B2714F64E6F93B7896DFB166E77-2025-05-15-19-23-22","","null","","images/schematic_sequence/restaurant_scheme/restaurant_scheme_6.png","null","",""
"","","","","","image-button-response","61","408466","0.0-12.0-1.0-1.1","5DD51B2714F64E6F93B7896DFB166E77","5DD51B2714F64E6F93B7896DFB166E77","6d938ed6-bc88-409f-9b01-dce458ba9711","051c06f1-75cc-4548-856d-4923ddaba0dc","{""num_scrambled_semantic"":""8"",""num_scrambled_causal"":""4"",""num_scrambled_schematic"":""4"",""participantId"":""5DD51B2714F64E6F93B7896DFB166E77"",""assignmentId"":""6d938ed6-bc88-409f-9b01-dce458ba9711"",""projectId"":""051c06f1-75cc-4548-856d-4923ddaba0dc""}","https://test12345.live/?num_scrambled_semantic=8&num_scrambled_causal=4&num_scrambled_schematic=4&participantId=5DD51B2714F64E6F93B7896DFB166E77&assignmentId=6d938ed6-bc88-409f-9b01-dce458ba9711&projectId=051c06f1-75cc-4548-856d-4923ddaba0dc","5DD51B2714F64E6F93B7896DFB166E77-2025-05-15-19-23-22","","3255","","images/schematic_sequence/restaurant_scheme/restaurant_scheme_6.png","1","",""
"","","","","","image-button-response","62","410269","0.0-12.0-1.0-2.1","5DD51B2714F64E6F93B7896DFB166E77","5DD51B2714F64E6F93B7896DFB166E77","6d938ed6-bc88-409f-9b01-dce458ba9711","051c06f1-75cc-4548-856d-4923ddaba0dc","{""num_scrambled_semantic"":""8"",""num_scrambled_causal"":""4"",""num_scrambled_schematic"":""4"",""participantId"":""5DD51B2714F64E6F93B7896DFB166E77"",""assignmentId"":""6d938ed6-bc88-409f-9b01-dce458ba9711"",""projectId"":""051c06f1-75cc-4548-856d-4923ddaba0dc""}","https://test12345.live/?num_scrambled_semantic=8&num_scrambled_causal=4&num_scrambled_schematic=4&participantId=5DD51B2714F64E6F93B7896DFB166E77&assignmentId=6d938ed6-bc88-409f-9b01-dce458ba9711&projectId=051c06f1-75cc-4548-856d-4923ddaba0dc","5DD51B2714F64E6F93B7896DFB166E77-2025-05-15-19-23-22","","null","","[]","null","",""
"","","","","","image-button-response","63","414783","0.0-12.0-1.0-0.2","5DD51B2714F64E6F93B7896DFB166E77","5DD51B2714F64E6F93B7896DFB166E77","6d938ed6-bc88-409f-9b01-dce458ba9711","051c06f1-75cc-4548-856d-4923ddaba0dc","{""num_scrambled_semantic"":""8"",""num_scrambled_causal"":""4"",""num_scrambled_schematic"":""4"",""participantId"":""5DD51B2714F64E6F93B7896DFB166E77"",""assignmentId"":""6d938ed6-bc88-409f-9b01-dce458ba9711"",""projectId"":""051c06f1-75cc-4548-856d-4923ddaba0dc""}","https://test12345.live/?num_scrambled_semantic=8&num_scrambled_causal=4&num_scrambled_schematic=4&participantId=5DD51B2714F64E6F93B7896DFB166E77&assignmentId=6d938ed6-bc88-409f-9b01-dce458ba9711&projectId=051c06f1-75cc-4548-856d-4923ddaba0dc","5DD51B2714F64E6F93B7896DFB166E77-2025-05-15-19-23-22","","null","","images/schematic_sequence/restaurant_scheme/restaurant_scheme_9.png","null","",""
"","","","","","image-button-response","64","417521","0.0-12.0-1.0-1.2","5DD51B2714F64E6F93B7896DFB166E77","5DD51B2714F64E6F93B7896DFB166E77","6d938ed6-bc88-409f-9b01-dce458ba9711","051c06f1-75cc-4548-856d-4923ddaba0dc","{""num_scrambled_semantic"":""8"",""num_scrambled_causal"":""4"",""num_scrambled_schematic"":""4"",""participantId"":""5DD51B2714F64E6F93B7896DFB166E77"",""assignmentId"":""6d938ed6-bc88-409f-9b01-dce458ba9711"",""projectId"":""051c06f1-75cc-4548-856d-4923ddaba0dc""}","https://test12345.live/?num_scrambled_semantic=8&num_scrambled_causal=4&num_scrambled_schematic=4&participantId=5DD51B2714F64E6F93B7896DFB166E77&assignmentId=6d938ed6-bc88-409f-9b01-dce458ba9711&projectId=051c06f1-75cc-4548-856d-4923ddaba0dc","5DD51B2714F64E6F93B7896DFB166E77-2025-05-15-19-23-22","","2736","","images/schematic_sequence/restaurant_scheme/restaurant_scheme_9.png","0","",""
"","","","","","image-button-response","65","419332","0.0-12.0-1.0-2.2","5DD51B2714F64E6F93B7896DFB166E77","5DD51B2714F64E6F93B7896DFB166E77","6d938ed6-bc88-409f-9b01-dce458ba9711","051c06f1-75cc-4548-856d-4923ddaba0dc","{""num_scrambled_semantic"":""8"",""num_scrambled_causal"":""4"",""num_scrambled_schematic"":""4"",""participantId"":""5DD51B2714F64E6F93B7896DFB166E77"",""assignmentId"":""6d938ed6-bc88-409f-9b01-dce458ba9711"",""projectId"":""051c06f1-75cc-4548-856d-4923ddaba0dc""}","https://test12345.live/?num_scrambled_semantic=8&num_scrambled_causal=4&num_scrambled_schematic=4&participantId=5DD51B2714F64E6F93B7896DFB166E77&assignmentId=6d938ed6-bc88-409f-9b01-dce458ba9711&projectId=051c06f1-75cc-4548-856d-4923ddaba0dc","5DD51B2714F64E6F93B7896DFB166E77-2025-05-15-19-23-22","","null","","[]","null","",""
"","","","","","image-button-response","66","423844","0.0-12.0-1.0-0.3","5DD51B2714F64E6F93B7896DFB166E77","5DD51B2714F64E6F93B7896DFB166E77","6d938ed6-bc88-409f-9b01-dce458ba9711","051c06f1-75cc-4548-856d-4923ddaba0dc","{""num_scrambled_semantic"":""8"",""num_scrambled_causal"":""4"",""num_scrambled_schematic"":""4"",""participantId"":""5DD51B2714F64E6F93B7896DFB166E77"",""assignmentId"":""6d938ed6-bc88-409f-9b01-dce458ba9711"",""projectId"":""051c06f1-75cc-4548-856d-4923ddaba0dc""}","https://test12345.live/?num_scrambled_semantic=8&num_scrambled_causal=4&num_scrambled_schematic=4&participantId=5DD51B2714F64E6F93B7896DFB166E77&assignmentId=6d938ed6-bc88-409f-9b01-dce458ba9711&projectId=051c06f1-75cc-4548-856d-4923ddaba0dc","5DD51B2714F64E6F93B7896DFB166E77-2025-05-15-19-23-22","","null","","images/schematic_sequence/restaurant_scheme/restaurant_scheme_ten.png","null","",""
"","","","","","image-button-response","67","425460","0.0-12.0-1.0-1.3","5DD51B2714F64E6F93B7896DFB166E77","5DD51B2714F64E6F93B7896DFB166E77","6d938ed6-bc88-409f-9b01-dce458ba9711","051c06f1-75cc-4548-856d-4923ddaba0dc","{""num_scrambled_semantic"":""8"",""num_scrambled_causal"":""4"",""num_scrambled_schematic"":""4"",""participantId"":""5DD51B2714F64E6F93B7896DFB166E77"",""assignmentId"":""6d938ed6-bc88-409f-9b01-dce458ba9711"",""projectId"":""051c06f1-75cc-4548-856d-4923ddaba0dc""}","https://test12345.live/?num_scrambled_semantic=8&num_scrambled_causal=4&num_scrambled_schematic=4&participantId=5DD51B2714F64E6F93B7896DFB166E77&assignmentId=6d938ed6-bc88-409f-9b01-dce458ba9711&projectId=051c06f1-75cc-4548-856d-4923ddaba0dc","5DD51B2714F64E6F93B7896DFB166E77-2025-05-15-19-23-22","","1613","","images/schematic_sequence/restaurant_scheme/restaurant_scheme_ten.png","0","",""
"","","","","","image-button-response","68","427272","0.0-12.0-1.0-2.3","5DD51B2714F64E6F93B7896DFB166E77","5DD51B2714F64E6F93B7896DFB166E77","6d938ed6-bc88-409f-9b01-dce458ba9711","051c06f1-75cc-4548-856d-4923ddaba0dc","{""num_scrambled_semantic"":""8"",""num_scrambled_causal"":""4"",""num_scrambled_schematic"":""4"",""participantId"":""5DD51B2714F64E6F93B7896DFB166E77"",""assignmentId"":""6d938ed6-bc88-409f-9b01-dce458ba9711"",""projectId"":""051c06f1-75cc-4548-856d-4923ddaba0dc""}","https://test12345.live/?num_scrambled_semantic=8&num_scrambled_causal=4&num_scrambled_schematic=4&participantId=5DD51B2714F64E6F93B7896DFB166E77&assignmentId=6d938ed6-bc88-409f-9b01-dce458ba9711&projectId=051c06f1-75cc-4548-856d-4923ddaba0dc","5DD51B2714F64E6F93B7896DFB166E77-2025-05-15-19-23-22","","null","","[]","null","",""
"","","","","","image-button-response","69","431778","0.0-12.0-1.0-0.4","5DD51B2714F64E6F93B7896DFB166E77","5DD51B2714F64E6F93B7896DFB166E77","6d938ed6-bc88-409f-9b01-dce458ba9711","051c06f1-75cc-4548-856d-4923ddaba0dc","{""num_scrambled_semantic"":""8"",""num_scrambled_causal"":""4"",""num_scrambled_schematic"":""4"",""participantId"":""5DD51B2714F64E6F93B7896DFB166E77"",""assignmentId"":""6d938ed6-bc88-409f-9b01-dce458ba9711"",""projectId"":""051c06f1-75cc-4548-856d-4923ddaba0dc""}","https://test12345.live/?num_scrambled_semantic=8&num_scrambled_causal=4&num_scrambled_schematic=4&participantId=5DD51B2714F64E6F93B7896DFB166E77&assignmentId=6d938ed6-bc88-409f-9b01-dce458ba9711&projectId=051c06f1-75cc-4548-856d-4923ddaba0dc","5DD51B2714F64E6F93B7896DFB166E77-2025-05-15-19-23-22","","null","","images/schematic_sequence/restaurant_scheme/restaurant_scheme_2.png","null","",""
"","","","","","image-button-response","70","435786","0.0-12.0-1.0-1.4","5DD51B2714F64E6F93B7896DFB166E77","5DD51B2714F64E6F93B7896DFB166E77","6d938ed6-bc88-409f-9b01-dce458ba9711","051c06f1-75cc-4548-856d-4923ddaba0dc","{""num_scrambled_semantic"":""8"",""num_scrambled_causal"":""4"",""num_scrambled_schematic"":""4"",""participantId"":""5DD51B2714F64E6F93B7896DFB166E77"",""assignmentId"":""6d938ed6-bc88-409f-9b01-dce458ba9711"",""projectId"":""051c06f1-75cc-4548-856d-4923ddaba0dc""}","https://test12345.live/?num_scrambled_semantic=8&num_scrambled_causal=4&num_scrambled_schematic=4&participantId=5DD51B2714F64E6F93B7896DFB166E77&assignmentId=6d938ed6-bc88-409f-9b01-dce458ba9711&projectId=051c06f1-75cc-4548-856d-4923ddaba0dc","5DD51B2714F64E6F93B7896DFB166E77-2025-05-15-19-23-22","","null","","images/schematic_sequence/restaurant_scheme/restaurant_scheme_2.png","null","",""
"","","","","","image-button-response","71","437594","0.0-12.0-1.0-2.4","5DD51B2714F64E6F93B7896DFB166E77","5DD51B2714F64E6F93B7896DFB166E77","6d938ed6-bc88-409f-9b01-dce458ba9711","051c06f1-75cc-4548-856d-4923ddaba0dc","{""num_scrambled_semantic"":""8"",""num_scrambled_causal"":""4"",""num_scrambled_schematic"":""4"",""participantId"":""5DD51B2714F64E6F93B7896DFB166E77"",""assignmentId"":""6d938ed6-bc88-409f-9b01-dce458ba9711"",""projectId"":""051c06f1-75cc-4548-856d-4923ddaba0dc""}","https://test12345.live/?num_scrambled_semantic=8&num_scrambled_causal=4&num_scrambled_schematic=4&participantId=5DD51B2714F64E6F93B7896DFB166E77&assignmentId=6d938ed6-bc88-409f-9b01-dce458ba9711&projectId=051c06f1-75cc-4548-856d-4923ddaba0dc","5DD51B2714F64E6F93B7896DFB166E77-2025-05-15-19-23-22","","null","","[]","null","",""
"","","","","","image-button-response","72","442098","0.0-12.0-1.0-0.5","5DD51B2714F64E6F93B7896DFB166E77","5DD51B2714F64E6F93B7896DFB166E77","6d938ed6-bc88-409f-9b01-dce458ba9711","051c06f1-75cc-4548-856d-4923ddaba0dc","{""num_scrambled_semantic"":""8"",""num_scrambled_causal"":""4"",""num_scrambled_schematic"":""4"",""participantId"":""5DD51B2714F64E6F93B7896DFB166E77"",""assignmentId"":""6d938ed6-bc88-409f-9b01-dce458ba9711"",""projectId"":""051c06f1-75cc-4548-856d-4923ddaba0dc""}","https://test12345.live/?num_scrambled_semantic=8&num_scrambled_causal=4&num_scrambled_schematic=4&participantId=5DD51B2714F64E6F93B7896DFB166E77&assignmentId=6d938ed6-bc88-409f-9b01-dce458ba9711&projectId=051c06f1-75cc-4548-856d-4923ddaba0dc","5DD51B2714F64E6F93B7896DFB166E77-2025-05-15-19-23-22","","null","","images/schematic_sequence/restaurant_scheme/restaurant_scheme_1.png","null","",""
"","","","","","image-button-response","73","443570","0.0-12.0-1.0-1.5","5DD51B2714F64E6F93B7896DFB166E77","5DD51B2714F64E6F93B7896DFB166E77","6d938ed6-bc88-409f-9b01-dce458ba9711","051c06f1-75cc-4548-856d-4923ddaba0dc","{""num_scrambled_semantic"":""8"",""num_scrambled_causal"":""4"",""num_scrambled_schematic"":""4"",""participantId"":""5DD51B2714F64E6F93B7896DFB166E77"",""assignmentId"":""6d938ed6-bc88-409f-9b01-dce458ba9711"",""projectId"":""051c06f1-75cc-4548-856d-4923ddaba0dc""}","https://test12345.live/?num_scrambled_semantic=8&num_scrambled_causal=4&num_scrambled_schematic=4&participantId=5DD51B2714F64E6F93B7896DFB166E77&assignmentId=6d938ed6-bc88-409f-9b01-dce458ba9711&projectId=051c06f1-75cc-4548-856d-4923ddaba0dc","5DD51B2714F64E6F93B7896DFB166E77-2025-05-15-19-23-22","","1470","","images/schematic_sequence/restaurant_scheme/restaurant_scheme_1.png","0","",""
"","","","","","image-button-response","74","445378","0.0-12.0-1.0-2.5","5DD51B2714F64E6F93B7896DFB166E77","5DD51B2714F64E6F93B7896DFB166E77","6d938ed6-bc88-409f-9b01-dce458ba9711","051c06f1-75cc-4548-856d-4923ddaba0dc","{""num_scrambled_semantic"":""8"",""num_scrambled_causal"":""4"",""num_scrambled_schematic"":""4"",""participantId"":""5DD51B2714F64E6F93B7896DFB166E77"",""assignmentId"":""6d938ed6-bc88-409f-9b01-dce458ba9711"",""projectId"":""051c06f1-75cc-4548-856d-4923ddaba0dc""}","https://test12345.live/?num_scrambled_semantic=8&num_scrambled_causal=4&num_scrambled_schematic=4&participantId=5DD51B2714F64E6F93B7896DFB166E77&assignmentId=6d938ed6-bc88-409f-9b01-dce458ba9711&projectId=051c06f1-75cc-4548-856d-4923ddaba0dc","5DD51B2714F64E6F93B7896DFB166E77-2025-05-15-19-23-22","","null","","[]","null","",""
"","","","","","image-button-response","75","449896","0.0-12.0-1.0-0.6","5DD51B2714F64E6F93B7896DFB166E77","5DD51B2714F64E6F93B7896DFB166E77","6d938ed6-bc88-409f-9b01-dce458ba9711","051c06f1-75cc-4548-856d-4923ddaba0dc","{""num_scrambled_semantic"":""8"",""num_scrambled_causal"":""4"",""num_scrambled_schematic"":""4"",""participantId"":""5DD51B2714F64E6F93B7896DFB166E77"",""assignmentId"":""6d938ed6-bc88-409f-9b01-dce458ba9711"",""projectId"":""051c06f1-75cc-4548-856d-4923ddaba0dc""}","https://test12345.live/?num_scrambled_semantic=8&num_scrambled_causal=4&num_scrambled_schematic=4&participantId=5DD51B2714F64E6F93B7896DFB166E77&assignmentId=6d938ed6-bc88-409f-9b01-dce458ba9711&projectId=051c06f1-75cc-4548-856d-4923ddaba0dc","5DD51B2714F64E6F93B7896DFB166E77-2025-05-15-19-23-22","","null","","images/schematic_sequence/restaurant_scheme/restaurant_scheme_8.png","null","",""
"","","","","","image-button-response","76","452663","0.0-12.0-1.0-1.6","5DD51B2714F64E6F93B7896DFB166E77","5DD51B2714F64E6F93B7896DFB166E77","6d938ed6-bc88-409f-9b01-dce458ba9711","051c06f1-75cc-4548-856d-4923ddaba0dc","{""num_scrambled_semantic"":""8"",""num_scrambled_causal"":""4"",""num_scrambled_schematic"":""4"",""participantId"":""5DD51B2714F64E6F93B7896DFB166E77"",""assignmentId"":""6d938ed6-bc88-409f-9b01-dce458ba9711"",""projectId"":""051c06f1-75cc-4548-856d-4923ddaba0dc""}","https://test12345.live/?num_scrambled_semantic=8&num_scrambled_causal=4&num_scrambled_schematic=4&participantId=5DD51B2714F64E6F93B7896DFB166E77&assignmentId=6d938ed6-bc88-409f-9b01-dce458ba9711&projectId=051c06f1-75cc-4548-856d-4923ddaba0dc","5DD51B2714F64E6F93B7896DFB166E77-2025-05-15-19-23-22","","2764","","images/schematic_sequence/restaurant_scheme/restaurant_scheme_8.png","0","",""
"","","","","","image-button-response","77","454466","0.0-12.0-1.0-2.6","5DD51B2714F64E6F93B7896DFB166E77","5DD51B2714F64E6F93B7896DFB166E77","6d938ed6-bc88-409f-9b01-dce458ba9711","051c06f1-75cc-4548-856d-4923ddaba0dc","{""num_scrambled_semantic"":""8"",""num_scrambled_causal"":""4"",""num_scrambled_schematic"":""4"",""participantId"":""5DD51B2714F64E6F93B7896DFB166E77"",""assignmentId"":""6d938ed6-bc88-409f-9b01-dce458ba9711"",""projectId"":""051c06f1-75cc-4548-856d-4923ddaba0dc""}","https://test12345.live/?num_scrambled_semantic=8&num_scrambled_causal=4&num_scrambled_schematic=4&participantId=5DD51B2714F64E6F93B7896DFB166E77&assignmentId=6d938ed6-bc88-409f-9b01-dce458ba9711&projectId=051c06f1-75cc-4548-856d-4923ddaba0dc","5DD51B2714F64E6F93B7896DFB166E77-2025-05-15-19-23-22","","null","","[]","null","",""
"","","","","","image-button-response","78","458984","0.0-12.0-1.0-0.7","5DD51B2714F64E6F93B7896DFB166E77","5DD51B2714F64E6F93B7896DFB166E77","6d938ed6-bc88-409f-9b01-dce458ba9711","051c06f1-75cc-4548-856d-4923ddaba0dc","{""num_scrambled_semantic"":""8"",""num_scrambled_causal"":""4"",""num_scrambled_schematic"":""4"",""participantId"":""5DD51B2714F64E6F93B7896DFB166E77"",""assignmentId"":""6d938ed6-bc88-409f-9b01-dce458ba9711"",""projectId"":""051c06f1-75cc-4548-856d-4923ddaba0dc""}","https://test12345.live/?num_scrambled_semantic=8&num_scrambled_causal=4&num_scrambled_schematic=4&participantId=5DD51B2714F64E6F93B7896DFB166E77&assignmentId=6d938ed6-bc88-409f-9b01-dce458ba9711&projectId=051c06f1-75cc-4548-856d-4923ddaba0dc","5DD51B2714F64E6F93B7896DFB166E77-2025-05-15-19-23-22","","null","","images/schematic_sequence/restaurant_scheme/restaurant_scheme_5.png","null","",""
"","","","","","image-button-response","79","461767","0.0-12.0-1.0-1.7","5DD51B2714F64E6F93B7896DFB166E77","5DD51B2714F64E6F93B7896DFB166E77","6d938ed6-bc88-409f-9b01-dce458ba9711","051c06f1-75cc-4548-856d-4923ddaba0dc","{""num_scrambled_semantic"":""8"",""num_scrambled_causal"":""4"",""num_scrambled_schematic"":""4"",""participantId"":""5DD51B2714F64E6F93B7896DFB166E77"",""assignmentId"":""6d938ed6-bc88-409f-9b01-dce458ba9711"",""projectId"":""051c06f1-75cc-4548-856d-4923ddaba0dc""}","https://test12345.live/?num_scrambled_semantic=8&num_scrambled_causal=4&num_scrambled_schematic=4&participantId=5DD51B2714F64E6F93B7896DFB166E77&assignmentId=6d938ed6-bc88-409f-9b01-dce458ba9711&projectId=051c06f1-75cc-4548-856d-4923ddaba0dc","5DD51B2714F64E6F93B7896DFB166E77-2025-05-15-19-23-22","","2781","","images/schematic_sequence/restaurant_scheme/restaurant_scheme_5.png","0","",""
"","","","","","image-button-response","80","463578","0.0-12.0-1.0-2.7","5DD51B2714F64E6F93B7896DFB166E77","5DD51B2714F64E6F93B7896DFB166E77","6d938ed6-bc88-409f-9b01-dce458ba9711","051c06f1-75cc-4548-856d-4923ddaba0dc","{""num_scrambled_semantic"":""8"",""num_scrambled_causal"":""4"",""num_scrambled_schematic"":""4"",""participantId"":""5DD51B2714F64E6F93B7896DFB166E77"",""assignmentId"":""6d938ed6-bc88-409f-9b01-dce458ba9711"",""projectId"":""051c06f1-75cc-4548-856d-4923ddaba0dc""}","https://test12345.live/?num_scrambled_semantic=8&num_scrambled_causal=4&num_scrambled_schematic=4&participantId=5DD51B2714F64E6F93B7896DFB166E77&assignmentId=6d938ed6-bc88-409f-9b01-dce458ba9711&projectId=051c06f1-75cc-4548-856d-4923ddaba0dc","5DD51B2714F64E6F93B7896DFB166E77-2025-05-15-19-23-22","","null","","[]","null","",""
"","","","","","image-button-response","81","468086","0.0-12.0-1.0-0.8","5DD51B2714F64E6F93B7896DFB166E77","5DD51B2714F64E6F93B7896DFB166E77","6d938ed6-bc88-409f-9b01-dce458ba9711","051c06f1-75cc-4548-856d-4923ddaba0dc","{""num_scrambled_semantic"":""8"",""num_scrambled_causal"":""4"",""num_scrambled_schematic"":""4"",""participantId"":""5DD51B2714F64E6F93B7896DFB166E77"",""assignmentId"":""6d938ed6-bc88-409f-9b01-dce458ba9711"",""projectId"":""051c06f1-75cc-4548-856d-4923ddaba0dc""}","https://test12345.live/?num_scrambled_semantic=8&num_scrambled_causal=4&num_scrambled_schematic=4&participantId=5DD51B2714F64E6F93B7896DFB166E77&assignmentId=6d938ed6-bc88-409f-9b01-dce458ba9711&projectId=051c06f1-75cc-4548-856d-4923ddaba0dc","5DD51B2714F64E6F93B7896DFB166E77-2025-05-15-19-23-22","","null","","images/schematic_sequence/restaurant_scheme/restaurant_scheme_4.png","null","",""
"","","","","","image-button-response","82","469960","0.0-12.0-1.0-1.8","5DD51B2714F64E6F93B7896DFB166E77","5DD51B2714F64E6F93B7896DFB166E77","6d938ed6-bc88-409f-9b01-dce458ba9711","051c06f1-75cc-4548-856d-4923ddaba0dc","{""num_scrambled_semantic"":""8"",""num_scrambled_causal"":""4"",""num_scrambled_schematic"":""4"",""participantId"":""5DD51B2714F64E6F93B7896DFB166E77"",""assignmentId"":""6d938ed6-bc88-409f-9b01-dce458ba9711"",""projectId"":""051c06f1-75cc-4548-856d-4923ddaba0dc""}","https://test12345.live/?num_scrambled_semantic=8&num_scrambled_causal=4&num_scrambled_schematic=4&participantId=5DD51B2714F64E6F93B7896DFB166E77&assignmentId=6d938ed6-bc88-409f-9b01-dce458ba9711&projectId=051c06f1-75cc-4548-856d-4923ddaba0dc","5DD51B2714F64E6F93B7896DFB166E77-2025-05-15-19-23-22","","1871","","images/schematic_sequence/restaurant_scheme/restaurant_scheme_4.png","0","",""
"","","","","","image-button-response","83","471779","0.0-12.0-1.0-2.8","5DD51B2714F64E6F93B7896DFB166E77","5DD51B2714F64E6F93B7896DFB166E77","6d938ed6-bc88-409f-9b01-dce458ba9711","051c06f1-75cc-4548-856d-4923ddaba0dc","{""num_scrambled_semantic"":""8"",""num_scrambled_causal"":""4"",""num_scrambled_schematic"":""4"",""participantId"":""5DD51B2714F64E6F93B7896DFB166E77"",""assignmentId"":""6d938ed6-bc88-409f-9b01-dce458ba9711"",""projectId"":""051c06f1-75cc-4548-856d-4923ddaba0dc""}","https://test12345.live/?num_scrambled_semantic=8&num_scrambled_causal=4&num_scrambled_schematic=4&participantId=5DD51B2714F64E6F93B7896DFB166E77&assignmentId=6d938ed6-bc88-409f-9b01-dce458ba9711&projectId=051c06f1-75cc-4548-856d-4923ddaba0dc","5DD51B2714F64E6F93B7896DFB166E77-2025-05-15-19-23-22","","null","","[]","null","",""
"","","","","","image-button-response","84","476285","0.0-12.0-1.0-0.9","5DD51B2714F64E6F93B7896DFB166E77","5DD51B2714F64E6F93B7896DFB166E77","6d938ed6-bc88-409f-9b01-dce458ba9711","051c06f1-75cc-4548-856d-4923ddaba0dc","{""num_scrambled_semantic"":""8"",""num_scrambled_causal"":""4"",""num_scrambled_schematic"":""4"",""participantId"":""5DD51B2714F64E6F93B7896DFB166E77"",""assignmentId"":""6d938ed6-bc88-409f-9b01-dce458ba9711"",""projectId"":""051c06f1-75cc-4548-856d-4923ddaba0dc""}","https://test12345.live/?num_scrambled_semantic=8&num_scrambled_causal=4&num_scrambled_schematic=4&participantId=5DD51B2714F64E6F93B7896DFB166E77&assignmentId=6d938ed6-bc88-409f-9b01-dce458ba9711&projectId=051c06f1-75cc-4548-856d-4923ddaba0dc","5DD51B2714F64E6F93B7896DFB166E77-2025-05-15-19-23-22","","null","","images/schematic_sequence/restaurant_scheme/restaurant_scheme_3.png","null","",""
"","","","","","image-button-response","85","480290","0.0-12.0-1.0-1.9","5DD51B2714F64E6F93B7896DFB166E77","5DD51B2714F64E6F93B7896DFB166E77","6d938ed6-bc88-409f-9b01-dce458ba9711","051c06f1-75cc-4548-856d-4923ddaba0dc","{""num_scrambled_semantic"":""8"",""num_scrambled_causal"":""4"",""num_scrambled_schematic"":""4"",""participantId"":""5DD51B2714F64E6F93B7896DFB166E77"",""assignmentId"":""6d938ed6-bc88-409f-9b01-dce458ba9711"",""projectId"":""051c06f1-75cc-4548-856d-4923ddaba0dc""}","https://test12345.live/?num_scrambled_semantic=8&num_scrambled_causal=4&num_scrambled_schematic=4&participantId=5DD51B2714F64E6F93B7896DFB166E77&assignmentId=6d938ed6-bc88-409f-9b01-dce458ba9711&projectId=051c06f1-75cc-4548-856d-4923ddaba0dc","5DD51B2714F64E6F93B7896DFB166E77-2025-05-15-19-23-22","","null","","images/schematic_sequence/restaurant_scheme/restaurant_scheme_3.png","null","",""
"","","","","","image-button-response","86","482097","0.0-12.0-1.0-2.9","5DD51B2714F64E6F93B7896DFB166E77","5DD51B2714F64E6F93B7896DFB166E77","6d938ed6-bc88-409f-9b01-dce458ba9711","051c06f1-75cc-4548-856d-4923ddaba0dc","{""num_scrambled_semantic"":""8"",""num_scrambled_causal"":""4"",""num_scrambled_schematic"":""4"",""participantId"":""5DD51B2714F64E6F93B7896DFB166E77"",""assignmentId"":""6d938ed6-bc88-409f-9b01-dce458ba9711"",""projectId"":""051c06f1-75cc-4548-856d-4923ddaba0dc""}","https://test12345.live/?num_scrambled_semantic=8&num_scrambled_causal=4&num_scrambled_schematic=4&participantId=5DD51B2714F64E6F93B7896DFB166E77&assignmentId=6d938ed6-bc88-409f-9b01-dce458ba9711&projectId=051c06f1-75cc-4548-856d-4923ddaba0dc","5DD51B2714F64E6F93B7896DFB166E77-2025-05-15-19-23-22","","null","","[]","null","",""
"","","","","","html-audio-response","87","541628","0.0-13.0","5DD51B2714F64E6F93B7896DFB166E77","5DD51B2714F64E6F93B7896DFB166E77","6d938ed6-bc88-409f-9b01-dce458ba9711","051c06f1-75cc-4548-856d-4923ddaba0dc","{""num_scrambled_semantic"":""8"",""num_scrambled_causal"":""4"",""num_scrambled_schematic"":""4"",""participantId"":""5DD51B2714F64E6F93B7896DFB166E77"",""assignmentId"":""6d938ed6-bc88-409f-9b01-dce458ba9711"",""projectId"":""051c06f1-75cc-4548-856d-4923ddaba0dc""}","https://test12345.live/?num_scrambled_semantic=8&num_scrambled_causal=4&num_scrambled_schematic=4&participantId=5DD51B2714F64E6F93B7896DFB166E77&assignmentId=6d938ed6-bc88-409f-9b01-dce458ba9711&projectId=051c06f1-75cc-4548-856d-4923ddaba0dc","5DD51B2714F64E6F93B7896DFB166E77-2025-05-15-19-23-22","","22601","","[""<span style=\""color: red; font-size: 24px\""> NOW RECORDING</span><p>Please say out loud all the images you saw, as many as you can remember. The images can be said in any order.</p>""]","","2","restaurant_scheme"
"","","","","","image-button-response","88","547645","0.0-14.0-0.0","5DD51B2714F64E6F93B7896DFB166E77","5DD51B2714F64E6F93B7896DFB166E77","6d938ed6-bc88-409f-9b01-dce458ba9711","051c06f1-75cc-4548-856d-4923ddaba0dc","{""num_scrambled_semantic"":""8"",""num_scrambled_causal"":""4"",""num_scrambled_schematic"":""4"",""participantId"":""5DD51B2714F64E6F93B7896DFB166E77"",""assignmentId"":""6d938ed6-bc88-409f-9b01-dce458ba9711"",""projectId"":""051c06f1-75cc-4548-856d-4923ddaba0dc""}","https://test12345.live/?num_scrambled_semantic=8&num_scrambled_causal=4&num_scrambled_schematic=4&participantId=5DD51B2714F64E6F93B7896DFB166E77&assignmentId=6d938ed6-bc88-409f-9b01-dce458ba9711&projectId=051c06f1-75cc-4548-856d-4923ddaba0dc","5DD51B2714F64E6F93B7896DFB166E77-2025-05-15-19-23-22","","null","","images/semantic_sequence/cat_care_semantic/cat_care_semantic_0.png","null","",""
"","","","","","image-button-response","89","552162","0.0-14.0-1.0-0.0","5DD51B2714F64E6F93B7896DFB166E77","5DD51B2714F64E6F93B7896DFB166E77","6d938ed6-bc88-409f-9b01-dce458ba9711","051c06f1-75cc-4548-856d-4923ddaba0dc","{""num_scrambled_semantic"":""8"",""num_scrambled_causal"":""4"",""num_scrambled_schematic"":""4"",""participantId"":""5DD51B2714F64E6F93B7896DFB166E77"",""assignmentId"":""6d938ed6-bc88-409f-9b01-dce458ba9711"",""projectId"":""051c06f1-75cc-4548-856d-4923ddaba0dc""}","https://test12345.live/?num_scrambled_semantic=8&num_scrambled_causal=4&num_scrambled_schematic=4&participantId=5DD51B2714F64E6F93B7896DFB166E77&assignmentId=6d938ed6-bc88-409f-9b01-dce458ba9711&projectId=051c06f1-75cc-4548-856d-4923ddaba0dc","5DD51B2714F64E6F93B7896DFB166E77-2025-05-15-19-23-22","","null","","images/semantic_sequence/cat_care_semantic/cat_care_semantic_1.png","null","",""
"","","","","","image-button-response","90","555809","0.0-14.0-1.0-1.0","5DD51B2714F64E6F93B7896DFB166E77","5DD51B2714F64E6F93B7896DFB166E77","6d938ed6-bc88-409f-9b01-dce458ba9711","051c06f1-75cc-4548-856d-4923ddaba0dc","{""num_scrambled_semantic"":""8"",""num_scrambled_causal"":""4"",""num_scrambled_schematic"":""4"",""participantId"":""5DD51B2714F64E6F93B7896DFB166E77"",""assignmentId"":""6d938ed6-bc88-409f-9b01-dce458ba9711"",""projectId"":""051c06f1-75cc-4548-856d-4923ddaba0dc""}","https://test12345.live/?num_scrambled_semantic=8&num_scrambled_causal=4&num_scrambled_schematic=4&participantId=5DD51B2714F64E6F93B7896DFB166E77&assignmentId=6d938ed6-bc88-409f-9b01-dce458ba9711&projectId=051c06f1-75cc-4548-856d-4923ddaba0dc","5DD51B2714F64E6F93B7896DFB166E77-2025-05-15-19-23-22","","3645","","images/semantic_sequence/cat_care_semantic/cat_care_semantic_1.png","0","",""
"","","","","","image-button-response","91","557616","0.0-14.0-1.0-2.0","5DD51B2714F64E6F93B7896DFB166E77","5DD51B2714F64E6F93B7896DFB166E77","6d938ed6-bc88-409f-9b01-dce458ba9711","051c06f1-75cc-4548-856d-4923ddaba0dc","{""num_scrambled_semantic"":""8"",""num_scrambled_causal"":""4"",""num_scrambled_schematic"":""4"",""participantId"":""5DD51B2714F64E6F93B7896DFB166E77"",""assignmentId"":""6d938ed6-bc88-409f-9b01-dce458ba9711"",""projectId"":""051c06f1-75cc-4548-856d-4923ddaba0dc""}","https://test12345.live/?num_scrambled_semantic=8&num_scrambled_causal=4&num_scrambled_schematic=4&participantId=5DD51B2714F64E6F93B7896DFB166E77&assignmentId=6d938ed6-bc88-409f-9b01-dce458ba9711&projectId=051c06f1-75cc-4548-856d-4923ddaba0dc","5DD51B2714F64E6F93B7896DFB166E77-2025-05-15-19-23-22","","null","","[]","null","",""
"","","","","","image-button-response","92","562121","0.0-14.0-1.0-0.1","5DD51B2714F64E6F93B7896DFB166E77","5DD51B2714F64E6F93B7896DFB166E77","6d938ed6-bc88-409f-9b01-dce458ba9711","051c06f1-75cc-4548-856d-4923ddaba0dc","{""num_scrambled_semantic"":""8"",""num_scrambled_causal"":""4"",""num_scrambled_schematic"":""4"",""participantId"":""5DD51B2714F64E6F93B7896DFB166E77"",""assignmentId"":""6d938ed6-bc88-409f-9b01-dce458ba9711"",""projectId"":""051c06f1-75cc-4548-856d-4923ddaba0dc""}","https://test12345.live/?num_scrambled_semantic=8&num_scrambled_causal=4&num_scrambled_schematic=4&participantId=5DD51B2714F64E6F93B7896DFB166E77&assignmentId=6d938ed6-bc88-409f-9b01-dce458ba9711&projectId=051c06f1-75cc-4548-856d-4923ddaba0dc","5DD51B2714F64E6F93B7896DFB166E77-2025-05-15-19-23-22","","null","","images/semantic_sequence/cat_care_semantic/cat_care_semantic_2.png","null","",""
"","","","","","image-button-response","93","566138","0.0-14.0-1.0-1.1","5DD51B2714F64E6F93B7896DFB166E77","5DD51B2714F64E6F93B7896DFB166E77","6d938ed6-bc88-409f-9b01-dce458ba9711","051c06f1-75cc-4548-856d-4923ddaba0dc","{""num_scrambled_semantic"":""8"",""num_scrambled_causal"":""4"",""num_scrambled_schematic"":""4"",""participantId"":""5DD51B2714F64E6F93B7896DFB166E77"",""assignmentId"":""6d938ed6-bc88-409f-9b01-dce458ba9711"",""projectId"":""051c06f1-75cc-4548-856d-4923ddaba0dc""}","https://test12345.live/?num_scrambled_semantic=8&num_scrambled_causal=4&num_scrambled_schematic=4&participantId=5DD51B2714F64E6F93B7896DFB166E77&assignmentId=6d938ed6-bc88-409f-9b01-dce458ba9711&projectId=051c06f1-75cc-4548-856d-4923ddaba0dc","5DD51B2714F64E6F93B7896DFB166E77-2025-05-15-19-23-22","","null","","images/semantic_sequence/cat_care_semantic/cat_care_semantic_2.png","null","",""
"","","","","","image-button-response","94","567946","0.0-14.0-1.0-2.1","5DD51B2714F64E6F93B7896DFB166E77","5DD51B2714F64E6F93B7896DFB166E77","6d938ed6-bc88-409f-9b01-dce458ba9711","051c06f1-75cc-4548-856d-4923ddaba0dc","{""num_scrambled_semantic"":""8"",""num_scrambled_causal"":""4"",""num_scrambled_schematic"":""4"",""participantId"":""5DD51B2714F64E6F93B7896DFB166E77"",""assignmentId"":""6d938ed6-bc88-409f-9b01-dce458ba9711"",""projectId"":""051c06f1-75cc-4548-856d-4923ddaba0dc""}","https://test12345.live/?num_scrambled_semantic=8&num_scrambled_causal=4&num_scrambled_schematic=4&participantId=5DD51B2714F64E6F93B7896DFB166E77&assignmentId=6d938ed6-bc88-409f-9b01-dce458ba9711&projectId=051c06f1-75cc-4548-856d-4923ddaba0dc","5DD51B2714F64E6F93B7896DFB166E77-2025-05-15-19-23-22","","null","","[]","null","",""
"","","","","","image-button-response","95","572449","0.0-14.0-1.0-0.2","5DD51B2714F64E6F93B7896DFB166E77","5DD51B2714F64E6F93B7896DFB166E77","6d938ed6-bc88-409f-9b01-dce458ba9711","051c06f1-75cc-4548-856d-4923ddaba0dc","{""num_scrambled_semantic"":""8"",""num_scrambled_causal"":""4"",""num_scrambled_schematic"":""4"",""participantId"":""5DD51B2714F64E6F93B7896DFB166E77"",""assignmentId"":""6d938ed6-bc88-409f-9b01-dce458ba9711"",""projectId"":""051c06f1-75cc-4548-856d-4923ddaba0dc""}","https://test12345.live/?num_scrambled_semantic=8&num_scrambled_causal=4&num_scrambled_schematic=4&participantId=5DD51B2714F64E6F93B7896DFB166E77&assignmentId=6d938ed6-bc88-409f-9b01-dce458ba9711&projectId=051c06f1-75cc-4548-856d-4923ddaba0dc","5DD51B2714F64E6F93B7896DFB166E77-2025-05-15-19-23-22","","null","","images/semantic_sequence/cat_care_semantic/cat_care_semantic_3.png","null","",""
"","","","","","image-button-response","96","576461","0.0-14.0-1.0-1.2","5DD51B2714F64E6F93B7896DFB166E77","5DD51B2714F64E6F93B7896DFB166E77","6d938ed6-bc88-409f-9b01-dce458ba9711","051c06f1-75cc-4548-856d-4923ddaba0dc","{""num_scrambled_semantic"":""8"",""num_scrambled_causal"":""4"",""num_scrambled_schematic"":""4"",""participantId"":""5DD51B2714F64E6F93B7896DFB166E77"",""assignmentId"":""6d938ed6-bc88-409f-9b01-dce458ba9711"",""projectId"":""051c06f1-75cc-4548-856d-4923ddaba0dc""}","https://test12345.live/?num_scrambled_semantic=8&num_scrambled_causal=4&num_scrambled_schematic=4&participantId=5DD51B2714F64E6F93B7896DFB166E77&assignmentId=6d938ed6-bc88-409f-9b01-dce458ba9711&projectId=051c06f1-75cc-4548-856d-4923ddaba0dc","5DD51B2714F64E6F93B7896DFB166E77-2025-05-15-19-23-22","","null","","images/semantic_sequence/cat_care_semantic/cat_care_semantic_3.png","null","",""
"","","","","","image-button-response","97","578269","0.0-14.0-1.0-2.2","5DD51B2714F64E6F93B7896DFB166E77","5DD51B2714F64E6F93B7896DFB166E77","6d938ed6-bc88-409f-9b01-dce458ba9711","051c06f1-75cc-4548-856d-4923ddaba0dc","{""num_scrambled_semantic"":""8"",""num_scrambled_causal"":""4"",""num_scrambled_schematic"":""4"",""participantId"":""5DD51B2714F64E6F93B7896DFB166E77"",""assignmentId"":""6d938ed6-bc88-409f-9b01-dce458ba9711"",""projectId"":""051c06f1-75cc-4548-856d-4923ddaba0dc""}","https://test12345.live/?num_scrambled_semantic=8&num_scrambled_causal=4&num_scrambled_schematic=4&participantId=5DD51B2714F64E6F93B7896DFB166E77&assignmentId=6d938ed6-bc88-409f-9b01-dce458ba9711&projectId=051c06f1-75cc-4548-856d-4923ddaba0dc","5DD51B2714F64E6F93B7896DFB166E77-2025-05-15-19-23-22","","null","","[]","null","",""
"","","","","","image-button-response","98","582775","0.0-14.0-1.0-0.3","5DD51B2714F64E6F93B7896DFB166E77","5DD51B2714F64E6F93B7896DFB166E77","6d938ed6-bc88-409f-9b01-dce458ba9711","051c06f1-75cc-4548-856d-4923ddaba0dc","{""num_scrambled_semantic"":""8"",""num_scrambled_causal"":""4"",""num_scrambled_schematic"":""4"",""participantId"":""5DD51B2714F64E6F93B7896DFB166E77"",""assignmentId"":""6d938ed6-bc88-409f-9b01-dce458ba9711"",""projectId"":""051c06f1-75cc-4548-856d-4923ddaba0dc""}","https://test12345.live/?num_scrambled_semantic=8&num_scrambled_causal=4&num_scrambled_schematic=4&participantId=5DD51B2714F64E6F93B7896DFB166E77&assignmentId=6d938ed6-bc88-409f-9b01-dce458ba9711&projectId=051c06f1-75cc-4548-856d-4923ddaba0dc","5DD51B2714F64E6F93B7896DFB166E77-2025-05-15-19-23-22","","null","","images/semantic_sequence/cat_care_semantic/cat_care_semantic_4.png","null","",""
"","","","","","image-button-response","99","584904","0.0-14.0-1.0-1.3","5DD51B2714F64E6F93B7896DFB166E77","5DD51B2714F64E6F93B7896DFB166E77","6d938ed6-bc88-409f-9b01-dce458ba9711","051c06f1-75cc-4548-856d-4923ddaba0dc","{""num_scrambled_semantic"":""8"",""num_scrambled_causal"":""4"",""num_scrambled_schematic"":""4"",""participantId"":""5DD51B2714F64E6F93B7896DFB166E77"",""assignmentId"":""6d938ed6-bc88-409f-9b01-dce458ba9711"",""projectId"":""051c06f1-75cc-4548-856d-4923ddaba0dc""}","https://test12345.live/?num_scrambled_semantic=8&num_scrambled_causal=4&num_scrambled_schematic=4&participantId=5DD51B2714F64E6F93B7896DFB166E77&assignmentId=6d938ed6-bc88-409f-9b01-dce458ba9711&projectId=051c06f1-75cc-4548-856d-4923ddaba0dc","5DD51B2714F64E6F93B7896DFB166E77-2025-05-15-19-23-22","","2127","","images/semantic_sequence/cat_care_semantic/cat_care_semantic_4.png","0","",""
"","","","","","image-button-response","100","586717","0.0-14.0-1.0-2.3","5DD51B2714F64E6F93B7896DFB166E77","5DD51B2714F64E6F93B7896DFB166E77","6d938ed6-bc88-409f-9b01-dce458ba9711","051c06f1-75cc-4548-856d-4923ddaba0dc","{""num_scrambled_semantic"":""8"",""num_scrambled_causal"":""4"",""num_scrambled_schematic"":""4"",""participantId"":""5DD51B2714F64E6F93B7896DFB166E77"",""assignmentId"":""6d938ed6-bc88-409f-9b01-dce458ba9711"",""projectId"":""051c06f1-75cc-4548-856d-4923ddaba0dc""}","https://test12345.live/?num_scrambled_semantic=8&num_scrambled_causal=4&num_scrambled_schematic=4&participantId=5DD51B2714F64E6F93B7896DFB166E77&assignmentId=6d938ed6-bc88-409f-9b01-dce458ba9711&projectId=051c06f1-75cc-4548-856d-4923ddaba0dc","5DD51B2714F64E6F93B7896DFB166E77-2025-05-15-19-23-22","","null","","[]","null","",""
"","","","","","image-button-response","101","591230","0.0-14.0-1.0-0.4","5DD51B2714F64E6F93B7896DFB166E77","5DD51B2714F64E6F93B7896DFB166E77","6d938ed6-bc88-409f-9b01-dce458ba9711","051c06f1-75cc-4548-856d-4923ddaba0dc","{""num_scrambled_semantic"":""8"",""num_scrambled_causal"":""4"",""num_scrambled_schematic"":""4"",""participantId"":""5DD51B2714F64E6F93B7896DFB166E77"",""assignmentId"":""6d938ed6-bc88-409f-9b01-dce458ba9711"",""projectId"":""051c06f1-75cc-4548-856d-4923ddaba0dc""}","https://test12345.live/?num_scrambled_semantic=8&num_scrambled_causal=4&num_scrambled_schematic=4&participantId=5DD51B2714F64E6F93B7896DFB166E77&assignmentId=6d938ed6-bc88-409f-9b01-dce458ba9711&projectId=051c06f1-75cc-4548-856d-4923ddaba0dc","5DD51B2714F64E6F93B7896DFB166E77-2025-05-15-19-23-22","","null","","images/semantic_sequence/cat_care_semantic/cat_care_semantic_5.png","null","",""
"","","","","","image-button-response","102","593025","0.0-14.0-1.0-1.4","5DD51B2714F64E6F93B7896DFB166E77","5DD51B2714F64E6F93B7896DFB166E77","6d938ed6-bc88-409f-9b01-dce458ba9711","051c06f1-75cc-4548-856d-4923ddaba0dc","{""num_scrambled_semantic"":""8"",""num_scrambled_causal"":""4"",""num_scrambled_schematic"":""4"",""participantId"":""5DD51B2714F64E6F93B7896DFB166E77"",""assignmentId"":""6d938ed6-bc88-409f-9b01-dce458ba9711"",""projectId"":""051c06f1-75cc-4548-856d-4923ddaba0dc""}","https://test12345.live/?num_scrambled_semantic=8&num_scrambled_causal=4&num_scrambled_schematic=4&participantId=5DD51B2714F64E6F93B7896DFB166E77&assignmentId=6d938ed6-bc88-409f-9b01-dce458ba9711&projectId=051c06f1-75cc-4548-856d-4923ddaba0dc","5DD51B2714F64E6F93B7896DFB166E77-2025-05-15-19-23-22","","1792","","images/semantic_sequence/cat_care_semantic/cat_care_semantic_5.png","0","",""
"","","","","","image-button-response","103","594829","0.0-14.0-1.0-2.4","5DD51B2714F64E6F93B7896DFB166E77","5DD51B2714F64E6F93B7896DFB166E77","6d938ed6-bc88-409f-9b01-dce458ba9711","051c06f1-75cc-4548-856d-4923ddaba0dc","{""num_scrambled_semantic"":""8"",""num_scrambled_causal"":""4"",""num_scrambled_schematic"":""4"",""participantId"":""5DD51B2714F64E6F93B7896DFB166E77"",""assignmentId"":""6d938ed6-bc88-409f-9b01-dce458ba9711"",""projectId"":""051c06f1-75cc-4548-856d-4923ddaba0dc""}","https://test12345.live/?num_scrambled_semantic=8&num_scrambled_causal=4&num_scrambled_schematic=4&participantId=5DD51B2714F64E6F93B7896DFB166E77&assignmentId=6d938ed6-bc88-409f-9b01-dce458ba9711&projectId=051c06f1-75cc-4548-856d-4923ddaba0dc","5DD51B2714F64E6F93B7896DFB166E77-2025-05-15-19-23-22","","null","","[]","null","",""
"","","","","","image-button-response","104","599345","0.0-14.0-1.0-0.5","5DD51B2714F64E6F93B7896DFB166E77","5DD51B2714F64E6F93B7896DFB166E77","6d938ed6-bc88-409f-9b01-dce458ba9711","051c06f1-75cc-4548-856d-4923ddaba0dc","{""num_scrambled_semantic"":""8"",""num_scrambled_causal"":""4"",""num_scrambled_schematic"":""4"",""participantId"":""5DD51B2714F64E6F93B7896DFB166E77"",""assignmentId"":""6d938ed6-bc88-409f-9b01-dce458ba9711"",""projectId"":""051c06f1-75cc-4548-856d-4923ddaba0dc""}","https://test12345.live/?num_scrambled_semantic=8&num_scrambled_causal=4&num_scrambled_schematic=4&participantId=5DD51B2714F64E6F93B7896DFB166E77&assignmentId=6d938ed6-bc88-409f-9b01-dce458ba9711&projectId=051c06f1-75cc-4548-856d-4923ddaba0dc","5DD51B2714F64E6F93B7896DFB166E77-2025-05-15-19-23-22","","null","","images/semantic_sequence/cat_care_semantic/cat_care_semantic_6.png","null","",""
"","","","","","image-button-response","105","601243","0.0-14.0-1.0-1.5","5DD51B2714F64E6F93B7896DFB166E77","5DD51B2714F64E6F93B7896DFB166E77","6d938ed6-bc88-409f-9b01-dce458ba9711","051c06f1-75cc-4548-856d-4923ddaba0dc","{""num_scrambled_semantic"":""8"",""num_scrambled_causal"":""4"",""num_scrambled_schematic"":""4"",""participantId"":""5DD51B2714F64E6F93B7896DFB166E77"",""assignmentId"":""6d938ed6-bc88-409f-9b01-dce458ba9711"",""projectId"":""051c06f1-75cc-4548-856d-4923ddaba0dc""}","https://test12345.live/?num_scrambled_semantic=8&num_scrambled_causal=4&num_scrambled_schematic=4&participantId=5DD51B2714F64E6F93B7896DFB166E77&assignmentId=6d938ed6-bc88-409f-9b01-dce458ba9711&projectId=051c06f1-75cc-4548-856d-4923ddaba0dc","5DD51B2714F64E6F93B7896DFB166E77-2025-05-15-19-23-22","","1896","","images/semantic_sequence/cat_care_semantic/cat_care_semantic_6.png","0","",""
"","","","","","image-button-response","106","603055","0.0-14.0-1.0-2.5","5DD51B2714F64E6F93B7896DFB166E77","5DD51B2714F64E6F93B7896DFB166E77","6d938ed6-bc88-409f-9b01-dce458ba9711","051c06f1-75cc-4548-856d-4923ddaba0dc","{""num_scrambled_semantic"":""8"",""num_scrambled_causal"":""4"",""num_scrambled_schematic"":""4"",""participantId"":""5DD51B2714F64E6F93B7896DFB166E77"",""assignmentId"":""6d938ed6-bc88-409f-9b01-dce458ba9711"",""projectId"":""051c06f1-75cc-4548-856d-4923ddaba0dc""}","https://test12345.live/?num_scrambled_semantic=8&num_scrambled_causal=4&num_scrambled_schematic=4&participantId=5DD51B2714F64E6F93B7896DFB166E77&assignmentId=6d938ed6-bc88-409f-9b01-dce458ba9711&projectId=051c06f1-75cc-4548-856d-4923ddaba0dc","5DD51B2714F64E6F93B7896DFB166E77-2025-05-15-19-23-22","","null","","[]","null","",""
"","","","","","image-button-response","107","607571","0.0-14.0-1.0-0.6","5DD51B2714F64E6F93B7896DFB166E77","5DD51B2714F64E6F93B7896DFB166E77","6d938ed6-bc88-409f-9b01-dce458ba9711","051c06f1-75cc-4548-856d-4923ddaba0dc","{""num_scrambled_semantic"":""8"",""num_scrambled_causal"":""4"",""num_scrambled_schematic"":""4"",""participantId"":""5DD51B2714F64E6F93B7896DFB166E77"",""assignmentId"":""6d938ed6-bc88-409f-9b01-dce458ba9711"",""projectId"":""051c06f1-75cc-4548-856d-4923ddaba0dc""}","https://test12345.live/?num_scrambled_semantic=8&num_scrambled_causal=4&num_scrambled_schematic=4&participantId=5DD51B2714F64E6F93B7896DFB166E77&assignmentId=6d938ed6-bc88-409f-9b01-dce458ba9711&projectId=051c06f1-75cc-4548-856d-4923ddaba0dc","5DD51B2714F64E6F93B7896DFB166E77-2025-05-15-19-23-22","","null","","images/semantic_sequence/cat_care_semantic/cat_care_semantic_7.png","null","",""
"","","","","","image-button-response","108","611572","0.0-14.0-1.0-1.6","5DD51B2714F64E6F93B7896DFB166E77","5DD51B2714F64E6F93B7896DFB166E77","6d938ed6-bc88-409f-9b01-dce458ba9711","051c06f1-75cc-4548-856d-4923ddaba0dc","{""num_scrambled_semantic"":""8"",""num_scrambled_causal"":""4"",""num_scrambled_schematic"":""4"",""participantId"":""5DD51B2714F64E6F93B7896DFB166E77"",""assignmentId"":""6d938ed6-bc88-409f-9b01-dce458ba9711"",""projectId"":""051c06f1-75cc-4548-856d-4923ddaba0dc""}","https://test12345.live/?num_scrambled_semantic=8&num_scrambled_causal=4&num_scrambled_schematic=4&participantId=5DD51B2714F64E6F93B7896DFB166E77&assignmentId=6d938ed6-bc88-409f-9b01-dce458ba9711&projectId=051c06f1-75cc-4548-856d-4923ddaba0dc","5DD51B2714F64E6F93B7896DFB166E77-2025-05-15-19-23-22","","null","","images/semantic_sequence/cat_care_semantic/cat_care_semantic_7.png","null","",""
"","","","","","image-button-response","109","613379","0.0-14.0-1.0-2.6","5DD51B2714F64E6F93B7896DFB166E77","5DD51B2714F64E6F93B7896DFB166E77","6d938ed6-bc88-409f-9b01-dce458ba9711","051c06f1-75cc-4548-856d-4923ddaba0dc","{""num_scrambled_semantic"":""8"",""num_scrambled_causal"":""4"",""num_scrambled_schematic"":""4"",""participantId"":""5DD51B2714F64E6F93B7896DFB166E77"",""assignmentId"":""6d938ed6-bc88-409f-9b01-dce458ba9711"",""projectId"":""051c06f1-75cc-4548-856d-4923ddaba0dc""}","https://test12345.live/?num_scrambled_semantic=8&num_scrambled_causal=4&num_scrambled_schematic=4&participantId=5DD51B2714F64E6F93B7896DFB166E77&assignmentId=6d938ed6-bc88-409f-9b01-dce458ba9711&projectId=051c06f1-75cc-4548-856d-4923ddaba0dc","5DD51B2714F64E6F93B7896DFB166E77-2025-05-15-19-23-22","","null","","[]","null","",""
"","","","","","image-button-response","110","617891","0.0-14.0-1.0-0.7","5DD51B2714F64E6F93B7896DFB166E77","5DD51B2714F64E6F93B7896DFB166E77","6d938ed6-bc88-409f-9b01-dce458ba9711","051c06f1-75cc-4548-856d-4923ddaba0dc","{""num_scrambled_semantic"":""8"",""num_scrambled_causal"":""4"",""num_scrambled_schematic"":""4"",""participantId"":""5DD51B2714F64E6F93B7896DFB166E77"",""assignmentId"":""6d938ed6-bc88-409f-9b01-dce458ba9711"",""projectId"":""051c06f1-75cc-4548-856d-4923ddaba0dc""}","https://test12345.live/?num_scrambled_semantic=8&num_scrambled_causal=4&num_scrambled_schematic=4&participantId=5DD51B2714F64E6F93B7896DFB166E77&assignmentId=6d938ed6-bc88-409f-9b01-dce458ba9711&projectId=051c06f1-75cc-4548-856d-4923ddaba0dc","5DD51B2714F64E6F93B7896DFB166E77-2025-05-15-19-23-22","","null","","images/semantic_sequence/cat_care_semantic/cat_care_semantic_8.png","null","",""
"","","","","","image-button-response","111","620549","0.0-14.0-1.0-1.7","5DD51B2714F64E6F93B7896DFB166E77","5DD51B2714F64E6F93B7896DFB166E77","6d938ed6-bc88-409f-9b01-dce458ba9711","051c06f1-75cc-4548-856d-4923ddaba0dc","{""num_scrambled_semantic"":""8"",""num_scrambled_causal"":""4"",""num_scrambled_schematic"":""4"",""participantId"":""5DD51B2714F64E6F93B7896DFB166E77"",""assignmentId"":""6d938ed6-bc88-409f-9b01-dce458ba9711"",""projectId"":""051c06f1-75cc-4548-856d-4923ddaba0dc""}","https://test12345.live/?num_scrambled_semantic=8&num_scrambled_causal=4&num_scrambled_schematic=4&participantId=5DD51B2714F64E6F93B7896DFB166E77&assignmentId=6d938ed6-bc88-409f-9b01-dce458ba9711&projectId=051c06f1-75cc-4548-856d-4923ddaba0dc","5DD51B2714F64E6F93B7896DFB166E77-2025-05-15-19-23-22","","2656","","images/semantic_sequence/cat_care_semantic/cat_care_semantic_8.png","0","",""
"","","","","","image-button-response","112","622370","0.0-14.0-1.0-2.7","5DD51B2714F64E6F93B7896DFB166E77","5DD51B2714F64E6F93B7896DFB166E77","6d938ed6-bc88-409f-9b01-dce458ba9711","051c06f1-75cc-4548-856d-4923ddaba0dc","{""num_scrambled_semantic"":""8"",""num_scrambled_causal"":""4"",""num_scrambled_schematic"":""4"",""participantId"":""5DD51B2714F64E6F93B7896DFB166E77"",""assignmentId"":""6d938ed6-bc88-409f-9b01-dce458ba9711"",""projectId"":""051c06f1-75cc-4548-856d-4923ddaba0dc""}","https://test12345.live/?num_scrambled_semantic=8&num_scrambled_causal=4&num_scrambled_schematic=4&participantId=5DD51B2714F64E6F93B7896DFB166E77&assignmentId=6d938ed6-bc88-409f-9b01-dce458ba9711&projectId=051c06f1-75cc-4548-856d-4923ddaba0dc","5DD51B2714F64E6F93B7896DFB166E77-2025-05-15-19-23-22","","null","","[]","null","",""
"","","","","","image-button-response","113","626876","0.0-14.0-1.0-0.8","5DD51B2714F64E6F93B7896DFB166E77","5DD51B2714F64E6F93B7896DFB166E77","6d938ed6-bc88-409f-9b01-dce458ba9711","051c06f1-75cc-4548-856d-4923ddaba0dc","{""num_scrambled_semantic"":""8"",""num_scrambled_causal"":""4"",""num_scrambled_schematic"":""4"",""participantId"":""5DD51B2714F64E6F93B7896DFB166E77"",""assignmentId"":""6d938ed6-bc88-409f-9b01-dce458ba9711"",""projectId"":""051c06f1-75cc-4548-856d-4923ddaba0dc""}","https://test12345.live/?num_scrambled_semantic=8&num_scrambled_causal=4&num_scrambled_schematic=4&participantId=5DD51B2714F64E6F93B7896DFB166E77&assignmentId=6d938ed6-bc88-409f-9b01-dce458ba9711&projectId=051c06f1-75cc-4548-856d-4923ddaba0dc","5DD51B2714F64E6F93B7896DFB166E77-2025-05-15-19-23-22","","null","","images/semantic_sequence/cat_care_semantic/cat_care_semantic_9.png","null","",""
