"success","timeout","failed_images","failed_audio","failed_video","trial_type","trial_index","time_elapsed","internal_node_id","subject","subject_id","study_id","session_id","urlvar","current_url","audio_id","view_history","rt","device_id","stimulus","response","estimated_stimulus_onset","seq_name"
"true","false","[]","[]","[]","preload","0","17290","0.0-0.0","5E2B0A5B51304D2E8D269FF2C271BE76","5E2B0A5B51304D2E8D269FF2C271BE76","26dff941-b4e8-4710-b707-7c3531d4ef3c","ba640c14-69c5-453e-80b2-29051492c0e0","{""num_scrambled_semantic"":""8"",""num_scrambled_causal"":""4"",""num_scrambled_schematic"":""4"",""participantId"":""5E2B0A5B51304D2E8D269FF2C271BE76"",""assignmentId"":""26dff941-b4e8-4710-b707-7c3531d4ef3c"",""projectId"":""ba640c14-69c5-453e-80b2-29051492c0e0""}","https://test12345.live/?num_scrambled_semantic=8&num_scrambled_causal=4&num_scrambled_schematic=4&participantId=5E2B0A5B51304D2E8D269FF2C271BE76&assignmentId=26dff941-b4e8-4710-b707-7c3531d4ef3c&projectId=ba640c14-69c5-453e-80b2-29051492c0e0","5E2B0A5B51304D2E8D269FF2C271BE76-2025-05-14-21-04-33","","","","","","",""
"","","","","","instructions","1","192037","0.0-1.0","5E2B0A5B51304D2E8D269FF2C271BE76","5E2B0A5B51304D2E8D269FF2C271BE76","26dff941-b4e8-4710-b707-7c3531d4ef3c","ba640c14-69c5-453e-80b2-29051492c0e0","{""num_scrambled_semantic"":""8"",""num_scrambled_causal"":""4"",""num_scrambled_schematic"":""4"",""participantId"":""5E2B0A5B51304D2E8D269FF2C271BE76"",""assignmentId"":""26dff941-b4e8-4710-b707-7c3531d4ef3c"",""projectId"":""ba640c14-69c5-453e-80b2-29051492c0e0""}","https://test12345.live/?num_scrambled_semantic=8&num_scrambled_causal=4&num_scrambled_schematic=4&participantId=5E2B0A5B51304D2E8D269FF2C271BE76&assignmentId=26dff941-b4e8-4710-b707-7c3531d4ef3c&projectId=ba640c14-69c5-453e-80b2-29051492c0e0","5E2B0A5B51304D2E8D269FF2C271BE76-2025-05-14-21-04-33","[{""page_index"":0,""viewing_time"":174748}]","174748","","","","",""
"","","","","","instructions","2","372770","0.0-2.0","5E2B0A5B51304D2E8D269FF2C271BE76","5E2B0A5B51304D2E8D269FF2C271BE76","26dff941-b4e8-4710-b707-7c3531d4ef3c","ba640c14-69c5-453e-80b2-29051492c0e0","{""num_scrambled_semantic"":""8"",""num_scrambled_causal"":""4"",""num_scrambled_schematic"":""4"",""participantId"":""5E2B0A5B51304D2E8D269FF2C271BE76"",""assignmentId"":""26dff941-b4e8-4710-b707-7c3531d4ef3c"",""projectId"":""ba640c14-69c5-453e-80b2-29051492c0e0""}","https://test12345.live/?num_scrambled_semantic=8&num_scrambled_causal=4&num_scrambled_schematic=4&participantId=5E2B0A5B51304D2E8D269FF2C271BE76&assignmentId=26dff941-b4e8-4710-b707-7c3531d4ef3c&projectId=ba640c14-69c5-453e-80b2-29051492c0e0","5E2B0A5B51304D2E8D269FF2C271BE76-2025-05-14-21-04-33","[{""page_index"":0,""viewing_time"":180733}]","180733","","","","",""
"true","","","","","fullscreen","3","375001","0.0-3.0","5E2B0A5B51304D2E8D269FF2C271BE76","5E2B0A5B51304D2E8D269FF2C271BE76","26dff941-b4e8-4710-b707-7c3531d4ef3c","ba640c14-69c5-453e-80b2-29051492c0e0","{""num_scrambled_semantic"":""8"",""num_scrambled_causal"":""4"",""num_scrambled_schematic"":""4"",""participantId"":""5E2B0A5B51304D2E8D269FF2C271BE76"",""assignmentId"":""26dff941-b4e8-4710-b707-7c3531d4ef3c"",""projectId"":""ba640c14-69c5-453e-80b2-29051492c0e0""}","https://test12345.live/?num_scrambled_semantic=8&num_scrambled_causal=4&num_scrambled_schematic=4&participantId=5E2B0A5B51304D2E8D269FF2C271BE76&assignmentId=26dff941-b4e8-4710-b707-7c3531d4ef3c&projectId=ba640c14-69c5-453e-80b2-29051492c0e0","5E2B0A5B51304D2E8D269FF2C271BE76-2025-05-14-21-04-33","","1228","","","","",""
"","","","","","initialize-microphone","4","385409","0.0-4.0-0.0","5E2B0A5B51304D2E8D269FF2C271BE76","5E2B0A5B51304D2E8D269FF2C271BE76","26dff941-b4e8-4710-b707-7c3531d4ef3c","ba640c14-69c5-453e-80b2-29051492c0e0","{""num_scrambled_semantic"":""8"",""num_scrambled_causal"":""4"",""num_scrambled_schematic"":""4"",""participantId"":""5E2B0A5B51304D2E8D269FF2C271BE76"",""assignmentId"":""26dff941-b4e8-4710-b707-7c3531d4ef3c"",""projectId"":""ba640c14-69c5-453e-80b2-29051492c0e0""}","https://test12345.live/?num_scrambled_semantic=8&num_scrambled_causal=4&num_scrambled_schematic=4&participantId=5E2B0A5B51304D2E8D269FF2C271BE76&assignmentId=26dff941-b4e8-4710-b707-7c3531d4ef3c&projectId=ba640c14-69c5-453e-80b2-29051492c0e0","5E2B0A5B51304D2E8D269FF2C271BE76-2025-05-14-21-04-33","","","822eae3680453d5d0389937437c31bdf1f8a2d69873b70ad3e0b4a8fc59c2ed8","","","",""
"","","","","","html-audio-response","5","392438","0.0-4.0-1.0","5E2B0A5B51304D2E8D269FF2C271BE76","5E2B0A5B51304D2E8D269FF2C271BE76","26dff941-b4e8-4710-b707-7c3531d4ef3c","ba640c14-69c5-453e-80b2-29051492c0e0","{""num_scrambled_semantic"":""8"",""num_scrambled_causal"":""4"",""num_scrambled_schematic"":""4"",""participantId"":""5E2B0A5B51304D2E8D269FF2C271BE76"",""assignmentId"":""26dff941-b4e8-4710-b707-7c3531d4ef3c"",""projectId"":""ba640c14-69c5-453e-80b2-29051492c0e0""}","https://test12345.live/?num_scrambled_semantic=8&num_scrambled_causal=4&num_scrambled_schematic=4&participantId=5E2B0A5B51304D2E8D269FF2C271BE76&assignmentId=26dff941-b4e8-4710-b707-7c3531d4ef3c&projectId=ba640c14-69c5-453e-80b2-29051492c0e0","5E2B0A5B51304D2E8D269FF2C271BE76-2025-05-14-21-04-33","","2522","","<span style=""color: red; font-size: 24px""> NOW RECORDING</span>
        <p>Please test Microphone</p>","","8",""
"","","","","","html-button-response","6","393911","0.0-4.0-2.0","5E2B0A5B51304D2E8D269FF2C271BE76","5E2B0A5B51304D2E8D269FF2C271BE76","26dff941-b4e8-4710-b707-7c3531d4ef3c","ba640c14-69c5-453e-80b2-29051492c0e0","{""num_scrambled_semantic"":""8"",""num_scrambled_causal"":""4"",""num_scrambled_schematic"":""4"",""participantId"":""5E2B0A5B51304D2E8D269FF2C271BE76"",""assignmentId"":""26dff941-b4e8-4710-b707-7c3531d4ef3c"",""projectId"":""ba640c14-69c5-453e-80b2-29051492c0e0""}","https://test12345.live/?num_scrambled_semantic=8&num_scrambled_causal=4&num_scrambled_schematic=4&participantId=5E2B0A5B51304D2E8D269FF2C271BE76&assignmentId=26dff941-b4e8-4710-b707-7c3531d4ef3c&projectId=ba640c14-69c5-453e-80b2-29051492c0e0","5E2B0A5B51304D2E8D269FF2C271BE76-2025-05-14-21-04-33","","1472","","<p style=""font-size:48px; color:red;"">Is Microphone OK?</p>","1","",""
"","","","","","instructions","7","553316","0.0-5.0","5E2B0A5B51304D2E8D269FF2C271BE76","5E2B0A5B51304D2E8D269FF2C271BE76","26dff941-b4e8-4710-b707-7c3531d4ef3c","ba640c14-69c5-453e-80b2-29051492c0e0","{""num_scrambled_semantic"":""8"",""num_scrambled_causal"":""4"",""num_scrambled_schematic"":""4"",""participantId"":""5E2B0A5B51304D2E8D269FF2C271BE76"",""assignmentId"":""26dff941-b4e8-4710-b707-7c3531d4ef3c"",""projectId"":""ba640c14-69c5-453e-80b2-29051492c0e0""}","https://test12345.live/?num_scrambled_semantic=8&num_scrambled_causal=4&num_scrambled_schematic=4&participantId=5E2B0A5B51304D2E8D269FF2C271BE76&assignmentId=26dff941-b4e8-4710-b707-7c3531d4ef3c&projectId=ba640c14-69c5-453e-80b2-29051492c0e0","5E2B0A5B51304D2E8D269FF2C271BE76-2025-05-14-21-04-33","[{""page_index"":0,""viewing_time"":152832},{""page_index"":1,""viewing_time"":6574}]","159405","","","","",""
"","","","","","image-button-response","8","559320","0.0-6.0-0.0","5E2B0A5B51304D2E8D269FF2C271BE76","5E2B0A5B51304D2E8D269FF2C271BE76","26dff941-b4e8-4710-b707-7c3531d4ef3c","ba640c14-69c5-453e-80b2-29051492c0e0","{""num_scrambled_semantic"":""8"",""num_scrambled_causal"":""4"",""num_scrambled_schematic"":""4"",""participantId"":""5E2B0A5B51304D2E8D269FF2C271BE76"",""assignmentId"":""26dff941-b4e8-4710-b707-7c3531d4ef3c"",""projectId"":""ba640c14-69c5-453e-80b2-29051492c0e0""}","https://test12345.live/?num_scrambled_semantic=8&num_scrambled_causal=4&num_scrambled_schematic=4&participantId=5E2B0A5B51304D2E8D269FF2C271BE76&assignmentId=26dff941-b4e8-4710-b707-7c3531d4ef3c&projectId=ba640c14-69c5-453e-80b2-29051492c0e0","5E2B0A5B51304D2E8D269FF2C271BE76-2025-05-14-21-04-33","","null","","images/instructions/movie_0.png","null","",""
"","","","","","image-button-response","9","563827","0.0-6.0-1.0-0.0","5E2B0A5B51304D2E8D269FF2C271BE76","5E2B0A5B51304D2E8D269FF2C271BE76","26dff941-b4e8-4710-b707-7c3531d4ef3c","ba640c14-69c5-453e-80b2-29051492c0e0","{""num_scrambled_semantic"":""8"",""num_scrambled_causal"":""4"",""num_scrambled_schematic"":""4"",""participantId"":""5E2B0A5B51304D2E8D269FF2C271BE76"",""assignmentId"":""26dff941-b4e8-4710-b707-7c3531d4ef3c"",""projectId"":""ba640c14-69c5-453e-80b2-29051492c0e0""}","https://test12345.live/?num_scrambled_semantic=8&num_scrambled_causal=4&num_scrambled_schematic=4&participantId=5E2B0A5B51304D2E8D269FF2C271BE76&assignmentId=26dff941-b4e8-4710-b707-7c3531d4ef3c&projectId=ba640c14-69c5-453e-80b2-29051492c0e0","5E2B0A5B51304D2E8D269FF2C271BE76-2025-05-14-21-04-33","","null","","images/instructions/movie_1.png","null","",""
"","","","","","image-button-response","10","567068","0.0-6.0-1.0-1.0","5E2B0A5B51304D2E8D269FF2C271BE76","5E2B0A5B51304D2E8D269FF2C271BE76","26dff941-b4e8-4710-b707-7c3531d4ef3c","ba640c14-69c5-453e-80b2-29051492c0e0","{""num_scrambled_semantic"":""8"",""num_scrambled_causal"":""4"",""num_scrambled_schematic"":""4"",""participantId"":""5E2B0A5B51304D2E8D269FF2C271BE76"",""assignmentId"":""26dff941-b4e8-4710-b707-7c3531d4ef3c"",""projectId"":""ba640c14-69c5-453e-80b2-29051492c0e0""}","https://test12345.live/?num_scrambled_semantic=8&num_scrambled_causal=4&num_scrambled_schematic=4&participantId=5E2B0A5B51304D2E8D269FF2C271BE76&assignmentId=26dff941-b4e8-4710-b707-7c3531d4ef3c&projectId=ba640c14-69c5-453e-80b2-29051492c0e0","5E2B0A5B51304D2E8D269FF2C271BE76-2025-05-14-21-04-33","","3238","","images/instructions/movie_1.png","0","",""
"","","","","","image-button-response","11","568874","0.0-6.0-1.0-2.0","5E2B0A5B51304D2E8D269FF2C271BE76","5E2B0A5B51304D2E8D269FF2C271BE76","26dff941-b4e8-4710-b707-7c3531d4ef3c","ba640c14-69c5-453e-80b2-29051492c0e0","{""num_scrambled_semantic"":""8"",""num_scrambled_causal"":""4"",""num_scrambled_schematic"":""4"",""participantId"":""5E2B0A5B51304D2E8D269FF2C271BE76"",""assignmentId"":""26dff941-b4e8-4710-b707-7c3531d4ef3c"",""projectId"":""ba640c14-69c5-453e-80b2-29051492c0e0""}","https://test12345.live/?num_scrambled_semantic=8&num_scrambled_causal=4&num_scrambled_schematic=4&participantId=5E2B0A5B51304D2E8D269FF2C271BE76&assignmentId=26dff941-b4e8-4710-b707-7c3531d4ef3c&projectId=ba640c14-69c5-453e-80b2-29051492c0e0","5E2B0A5B51304D2E8D269FF2C271BE76-2025-05-14-21-04-33","","null","","[]","null","",""
"","","","","","image-button-response","12","573383","0.0-6.0-1.0-0.1","5E2B0A5B51304D2E8D269FF2C271BE76","5E2B0A5B51304D2E8D269FF2C271BE76","26dff941-b4e8-4710-b707-7c3531d4ef3c","ba640c14-69c5-453e-80b2-29051492c0e0","{""num_scrambled_semantic"":""8"",""num_scrambled_causal"":""4"",""num_scrambled_schematic"":""4"",""participantId"":""5E2B0A5B51304D2E8D269FF2C271BE76"",""assignmentId"":""26dff941-b4e8-4710-b707-7c3531d4ef3c"",""projectId"":""ba640c14-69c5-453e-80b2-29051492c0e0""}","https://test12345.live/?num_scrambled_semantic=8&num_scrambled_causal=4&num_scrambled_schematic=4&participantId=5E2B0A5B51304D2E8D269FF2C271BE76&assignmentId=26dff941-b4e8-4710-b707-7c3531d4ef3c&projectId=ba640c14-69c5-453e-80b2-29051492c0e0","5E2B0A5B51304D2E8D269FF2C271BE76-2025-05-14-21-04-33","","null","","images/instructions/movie_2.png","null","",""
"","","","","","image-button-response","13","575288","0.0-6.0-1.0-1.1","5E2B0A5B51304D2E8D269FF2C271BE76","5E2B0A5B51304D2E8D269FF2C271BE76","26dff941-b4e8-4710-b707-7c3531d4ef3c","ba640c14-69c5-453e-80b2-29051492c0e0","{""num_scrambled_semantic"":""8"",""num_scrambled_causal"":""4"",""num_scrambled_schematic"":""4"",""participantId"":""5E2B0A5B51304D2E8D269FF2C271BE76"",""assignmentId"":""26dff941-b4e8-4710-b707-7c3531d4ef3c"",""projectId"":""ba640c14-69c5-453e-80b2-29051492c0e0""}","https://test12345.live/?num_scrambled_semantic=8&num_scrambled_causal=4&num_scrambled_schematic=4&participantId=5E2B0A5B51304D2E8D269FF2C271BE76&assignmentId=26dff941-b4e8-4710-b707-7c3531d4ef3c&projectId=ba640c14-69c5-453e-80b2-29051492c0e0","5E2B0A5B51304D2E8D269FF2C271BE76-2025-05-14-21-04-33","","1903","","images/instructions/movie_2.png","1","",""
"","","","","","image-button-response","14","577091","0.0-6.0-1.0-2.1","5E2B0A5B51304D2E8D269FF2C271BE76","5E2B0A5B51304D2E8D269FF2C271BE76","26dff941-b4e8-4710-b707-7c3531d4ef3c","ba640c14-69c5-453e-80b2-29051492c0e0","{""num_scrambled_semantic"":""8"",""num_scrambled_causal"":""4"",""num_scrambled_schematic"":""4"",""participantId"":""5E2B0A5B51304D2E8D269FF2C271BE76"",""assignmentId"":""26dff941-b4e8-4710-b707-7c3531d4ef3c"",""projectId"":""ba640c14-69c5-453e-80b2-29051492c0e0""}","https://test12345.live/?num_scrambled_semantic=8&num_scrambled_causal=4&num_scrambled_schematic=4&participantId=5E2B0A5B51304D2E8D269FF2C271BE76&assignmentId=26dff941-b4e8-4710-b707-7c3531d4ef3c&projectId=ba640c14-69c5-453e-80b2-29051492c0e0","5E2B0A5B51304D2E8D269FF2C271BE76-2025-05-14-21-04-33","","null","","[]","null","",""
"","","","","","image-button-response","15","581597","0.0-6.0-1.0-0.2","5E2B0A5B51304D2E8D269FF2C271BE76","5E2B0A5B51304D2E8D269FF2C271BE76","26dff941-b4e8-4710-b707-7c3531d4ef3c","ba640c14-69c5-453e-80b2-29051492c0e0","{""num_scrambled_semantic"":""8"",""num_scrambled_causal"":""4"",""num_scrambled_schematic"":""4"",""participantId"":""5E2B0A5B51304D2E8D269FF2C271BE76"",""assignmentId"":""26dff941-b4e8-4710-b707-7c3531d4ef3c"",""projectId"":""ba640c14-69c5-453e-80b2-29051492c0e0""}","https://test12345.live/?num_scrambled_semantic=8&num_scrambled_causal=4&num_scrambled_schematic=4&participantId=5E2B0A5B51304D2E8D269FF2C271BE76&assignmentId=26dff941-b4e8-4710-b707-7c3531d4ef3c&projectId=ba640c14-69c5-453e-80b2-29051492c0e0","5E2B0A5B51304D2E8D269FF2C271BE76-2025-05-14-21-04-33","","null","","images/instructions/movie_3.png","null","",""
"","","","","","image-button-response","16","583478","0.0-6.0-1.0-1.2","5E2B0A5B51304D2E8D269FF2C271BE76","5E2B0A5B51304D2E8D269FF2C271BE76","26dff941-b4e8-4710-b707-7c3531d4ef3c","ba640c14-69c5-453e-80b2-29051492c0e0","{""num_scrambled_semantic"":""8"",""num_scrambled_causal"":""4"",""num_scrambled_schematic"":""4"",""participantId"":""5E2B0A5B51304D2E8D269FF2C271BE76"",""assignmentId"":""26dff941-b4e8-4710-b707-7c3531d4ef3c"",""projectId"":""ba640c14-69c5-453e-80b2-29051492c0e0""}","https://test12345.live/?num_scrambled_semantic=8&num_scrambled_causal=4&num_scrambled_schematic=4&participantId=5E2B0A5B51304D2E8D269FF2C271BE76&assignmentId=26dff941-b4e8-4710-b707-7c3531d4ef3c&projectId=ba640c14-69c5-453e-80b2-29051492c0e0","5E2B0A5B51304D2E8D269FF2C271BE76-2025-05-14-21-04-33","","1879","","images/instructions/movie_3.png","0","",""
"","","","","","image-button-response","17","585281","0.0-6.0-1.0-2.2","5E2B0A5B51304D2E8D269FF2C271BE76","5E2B0A5B51304D2E8D269FF2C271BE76","26dff941-b4e8-4710-b707-7c3531d4ef3c","ba640c14-69c5-453e-80b2-29051492c0e0","{""num_scrambled_semantic"":""8"",""num_scrambled_causal"":""4"",""num_scrambled_schematic"":""4"",""participantId"":""5E2B0A5B51304D2E8D269FF2C271BE76"",""assignmentId"":""26dff941-b4e8-4710-b707-7c3531d4ef3c"",""projectId"":""ba640c14-69c5-453e-80b2-29051492c0e0""}","https://test12345.live/?num_scrambled_semantic=8&num_scrambled_causal=4&num_scrambled_schematic=4&participantId=5E2B0A5B51304D2E8D269FF2C271BE76&assignmentId=26dff941-b4e8-4710-b707-7c3531d4ef3c&projectId=ba640c14-69c5-453e-80b2-29051492c0e0","5E2B0A5B51304D2E8D269FF2C271BE76-2025-05-14-21-04-33","","null","","[]","null","",""
"","","","","","image-button-response","18","589789","0.0-6.0-1.0-0.3","5E2B0A5B51304D2E8D269FF2C271BE76","5E2B0A5B51304D2E8D269FF2C271BE76","26dff941-b4e8-4710-b707-7c3531d4ef3c","ba640c14-69c5-453e-80b2-29051492c0e0","{""num_scrambled_semantic"":""8"",""num_scrambled_causal"":""4"",""num_scrambled_schematic"":""4"",""participantId"":""5E2B0A5B51304D2E8D269FF2C271BE76"",""assignmentId"":""26dff941-b4e8-4710-b707-7c3531d4ef3c"",""projectId"":""ba640c14-69c5-453e-80b2-29051492c0e0""}","https://test12345.live/?num_scrambled_semantic=8&num_scrambled_causal=4&num_scrambled_schematic=4&participantId=5E2B0A5B51304D2E8D269FF2C271BE76&assignmentId=26dff941-b4e8-4710-b707-7c3531d4ef3c&projectId=ba640c14-69c5-453e-80b2-29051492c0e0","5E2B0A5B51304D2E8D269FF2C271BE76-2025-05-14-21-04-33","","null","","images/instructions/movie_4.png","null","",""
"","","","","","image-button-response","19","590947","0.0-6.0-1.0-1.3","5E2B0A5B51304D2E8D269FF2C271BE76","5E2B0A5B51304D2E8D269FF2C271BE76","26dff941-b4e8-4710-b707-7c3531d4ef3c","ba640c14-69c5-453e-80b2-29051492c0e0","{""num_scrambled_semantic"":""8"",""num_scrambled_causal"":""4"",""num_scrambled_schematic"":""4"",""participantId"":""5E2B0A5B51304D2E8D269FF2C271BE76"",""assignmentId"":""26dff941-b4e8-4710-b707-7c3531d4ef3c"",""projectId"":""ba640c14-69c5-453e-80b2-29051492c0e0""}","https://test12345.live/?num_scrambled_semantic=8&num_scrambled_causal=4&num_scrambled_schematic=4&participantId=5E2B0A5B51304D2E8D269FF2C271BE76&assignmentId=26dff941-b4e8-4710-b707-7c3531d4ef3c&projectId=ba640c14-69c5-453e-80b2-29051492c0e0","5E2B0A5B51304D2E8D269FF2C271BE76-2025-05-14-21-04-33","","1157","","images/instructions/movie_4.png","0","",""
"","","","","","image-button-response","20","592754","0.0-6.0-1.0-2.3","5E2B0A5B51304D2E8D269FF2C271BE76","5E2B0A5B51304D2E8D269FF2C271BE76","26dff941-b4e8-4710-b707-7c3531d4ef3c","ba640c14-69c5-453e-80b2-29051492c0e0","{""num_scrambled_semantic"":""8"",""num_scrambled_causal"":""4"",""num_scrambled_schematic"":""4"",""participantId"":""5E2B0A5B51304D2E8D269FF2C271BE76"",""assignmentId"":""26dff941-b4e8-4710-b707-7c3531d4ef3c"",""projectId"":""ba640c14-69c5-453e-80b2-29051492c0e0""}","https://test12345.live/?num_scrambled_semantic=8&num_scrambled_causal=4&num_scrambled_schematic=4&participantId=5E2B0A5B51304D2E8D269FF2C271BE76&assignmentId=26dff941-b4e8-4710-b707-7c3531d4ef3c&projectId=ba640c14-69c5-453e-80b2-29051492c0e0","5E2B0A5B51304D2E8D269FF2C271BE76-2025-05-14-21-04-33","","null","","[]","null","",""
"","","","","","instructions","21","793124","0.0-7.0","5E2B0A5B51304D2E8D269FF2C271BE76","5E2B0A5B51304D2E8D269FF2C271BE76","26dff941-b4e8-4710-b707-7c3531d4ef3c","ba640c14-69c5-453e-80b2-29051492c0e0","{""num_scrambled_semantic"":""8"",""num_scrambled_causal"":""4"",""num_scrambled_schematic"":""4"",""participantId"":""5E2B0A5B51304D2E8D269FF2C271BE76"",""assignmentId"":""26dff941-b4e8-4710-b707-7c3531d4ef3c"",""projectId"":""ba640c14-69c5-453e-80b2-29051492c0e0""}","https://test12345.live/?num_scrambled_semantic=8&num_scrambled_causal=4&num_scrambled_schematic=4&participantId=5E2B0A5B51304D2E8D269FF2C271BE76&assignmentId=26dff941-b4e8-4710-b707-7c3531d4ef3c&projectId=ba640c14-69c5-453e-80b2-29051492c0e0","5E2B0A5B51304D2E8D269FF2C271BE76-2025-05-14-21-04-33","[{""page_index"":0,""viewing_time"":198173},{""page_index"":1,""viewing_time"":2197}]","200371","","","","",""
"","","","","","html-audio-response","22","841910","0.0-8.0","5E2B0A5B51304D2E8D269FF2C271BE76","5E2B0A5B51304D2E8D269FF2C271BE76","26dff941-b4e8-4710-b707-7c3531d4ef3c","ba640c14-69c5-453e-80b2-29051492c0e0","{""num_scrambled_semantic"":""8"",""num_scrambled_causal"":""4"",""num_scrambled_schematic"":""4"",""participantId"":""5E2B0A5B51304D2E8D269FF2C271BE76"",""assignmentId"":""26dff941-b4e8-4710-b707-7c3531d4ef3c"",""projectId"":""ba640c14-69c5-453e-80b2-29051492c0e0""}","https://test12345.live/?num_scrambled_semantic=8&num_scrambled_causal=4&num_scrambled_schematic=4&participantId=5E2B0A5B51304D2E8D269FF2C271BE76&assignmentId=26dff941-b4e8-4710-b707-7c3531d4ef3c&projectId=ba640c14-69c5-453e-80b2-29051492c0e0","5E2B0A5B51304D2E8D269FF2C271BE76-2025-05-14-21-04-33","","13991","","[""<span style=\""color: red; font-size: 24px\""> NOW RECORDING</span><p>Please say out loud all the images you saw, as many as you can remember. The images can be said in any order.</p>""]","","1",""
"","","","","","instructions","23","844503","0.0-9.0","5E2B0A5B51304D2E8D269FF2C271BE76","5E2B0A5B51304D2E8D269FF2C271BE76","26dff941-b4e8-4710-b707-7c3531d4ef3c","ba640c14-69c5-453e-80b2-29051492c0e0","{""num_scrambled_semantic"":""8"",""num_scrambled_causal"":""4"",""num_scrambled_schematic"":""4"",""participantId"":""5E2B0A5B51304D2E8D269FF2C271BE76"",""assignmentId"":""26dff941-b4e8-4710-b707-7c3531d4ef3c"",""projectId"":""ba640c14-69c5-453e-80b2-29051492c0e0""}","https://test12345.live/?num_scrambled_semantic=8&num_scrambled_causal=4&num_scrambled_schematic=4&participantId=5E2B0A5B51304D2E8D269FF2C271BE76&assignmentId=26dff941-b4e8-4710-b707-7c3531d4ef3c&projectId=ba640c14-69c5-453e-80b2-29051492c0e0","5E2B0A5B51304D2E8D269FF2C271BE76-2025-05-14-21-04-33","[{""page_index"":0,""viewing_time"":2591}]","2591","","","","",""
"","","","","","image-button-response","24","850507","0.0-10.0-0.0","5E2B0A5B51304D2E8D269FF2C271BE76","5E2B0A5B51304D2E8D269FF2C271BE76","26dff941-b4e8-4710-b707-7c3531d4ef3c","ba640c14-69c5-453e-80b2-29051492c0e0","{""num_scrambled_semantic"":""8"",""num_scrambled_causal"":""4"",""num_scrambled_schematic"":""4"",""participantId"":""5E2B0A5B51304D2E8D269FF2C271BE76"",""assignmentId"":""26dff941-b4e8-4710-b707-7c3531d4ef3c"",""projectId"":""ba640c14-69c5-453e-80b2-29051492c0e0""}","https://test12345.live/?num_scrambled_semantic=8&num_scrambled_causal=4&num_scrambled_schematic=4&participantId=5E2B0A5B51304D2E8D269FF2C271BE76&assignmentId=26dff941-b4e8-4710-b707-7c3531d4ef3c&projectId=ba640c14-69c5-453e-80b2-29051492c0e0","5E2B0A5B51304D2E8D269FF2C271BE76-2025-05-14-21-04-33","","null","","images/schematic_sequence/restaurant_scheme/restaurant_scheme_0.png","null","",""
"","","","","","image-button-response","25","855014","0.0-10.0-1.0-0.0","5E2B0A5B51304D2E8D269FF2C271BE76","5E2B0A5B51304D2E8D269FF2C271BE76","26dff941-b4e8-4710-b707-7c3531d4ef3c","ba640c14-69c5-453e-80b2-29051492c0e0","{""num_scrambled_semantic"":""8"",""num_scrambled_causal"":""4"",""num_scrambled_schematic"":""4"",""participantId"":""5E2B0A5B51304D2E8D269FF2C271BE76"",""assignmentId"":""26dff941-b4e8-4710-b707-7c3531d4ef3c"",""projectId"":""ba640c14-69c5-453e-80b2-29051492c0e0""}","https://test12345.live/?num_scrambled_semantic=8&num_scrambled_causal=4&num_scrambled_schematic=4&participantId=5E2B0A5B51304D2E8D269FF2C271BE76&assignmentId=26dff941-b4e8-4710-b707-7c3531d4ef3c&projectId=ba640c14-69c5-453e-80b2-29051492c0e0","5E2B0A5B51304D2E8D269FF2C271BE76-2025-05-14-21-04-33","","null","","images/schematic_sequence/restaurant_scheme/restaurant_scheme_8.png","null","",""
"","","","","","image-button-response","26","859022","0.0-10.0-1.0-1.0","5E2B0A5B51304D2E8D269FF2C271BE76","5E2B0A5B51304D2E8D269FF2C271BE76","26dff941-b4e8-4710-b707-7c3531d4ef3c","ba640c14-69c5-453e-80b2-29051492c0e0","{""num_scrambled_semantic"":""8"",""num_scrambled_causal"":""4"",""num_scrambled_schematic"":""4"",""participantId"":""5E2B0A5B51304D2E8D269FF2C271BE76"",""assignmentId"":""26dff941-b4e8-4710-b707-7c3531d4ef3c"",""projectId"":""ba640c14-69c5-453e-80b2-29051492c0e0""}","https://test12345.live/?num_scrambled_semantic=8&num_scrambled_causal=4&num_scrambled_schematic=4&participantId=5E2B0A5B51304D2E8D269FF2C271BE76&assignmentId=26dff941-b4e8-4710-b707-7c3531d4ef3c&projectId=ba640c14-69c5-453e-80b2-29051492c0e0","5E2B0A5B51304D2E8D269FF2C271BE76-2025-05-14-21-04-33","","null","","images/schematic_sequence/restaurant_scheme/restaurant_scheme_8.png","null","",""
"","","","","","image-button-response","27","860824","0.0-10.0-1.0-2.0","5E2B0A5B51304D2E8D269FF2C271BE76","5E2B0A5B51304D2E8D269FF2C271BE76","26dff941-b4e8-4710-b707-7c3531d4ef3c","ba640c14-69c5-453e-80b2-29051492c0e0","{""num_scrambled_semantic"":""8"",""num_scrambled_causal"":""4"",""num_scrambled_schematic"":""4"",""participantId"":""5E2B0A5B51304D2E8D269FF2C271BE76"",""assignmentId"":""26dff941-b4e8-4710-b707-7c3531d4ef3c"",""projectId"":""ba640c14-69c5-453e-80b2-29051492c0e0""}","https://test12345.live/?num_scrambled_semantic=8&num_scrambled_causal=4&num_scrambled_schematic=4&participantId=5E2B0A5B51304D2E8D269FF2C271BE76&assignmentId=26dff941-b4e8-4710-b707-7c3531d4ef3c&projectId=ba640c14-69c5-453e-80b2-29051492c0e0","5E2B0A5B51304D2E8D269FF2C271BE76-2025-05-14-21-04-33","","null","","[]","null","",""
"","","","","","image-button-response","28","865330","0.0-10.0-1.0-0.1","5E2B0A5B51304D2E8D269FF2C271BE76","5E2B0A5B51304D2E8D269FF2C271BE76","26dff941-b4e8-4710-b707-7c3531d4ef3c","ba640c14-69c5-453e-80b2-29051492c0e0","{""num_scrambled_semantic"":""8"",""num_scrambled_causal"":""4"",""num_scrambled_schematic"":""4"",""participantId"":""5E2B0A5B51304D2E8D269FF2C271BE76"",""assignmentId"":""26dff941-b4e8-4710-b707-7c3531d4ef3c"",""projectId"":""ba640c14-69c5-453e-80b2-29051492c0e0""}","https://test12345.live/?num_scrambled_semantic=8&num_scrambled_causal=4&num_scrambled_schematic=4&participantId=5E2B0A5B51304D2E8D269FF2C271BE76&assignmentId=26dff941-b4e8-4710-b707-7c3531d4ef3c&projectId=ba640c14-69c5-453e-80b2-29051492c0e0","5E2B0A5B51304D2E8D269FF2C271BE76-2025-05-14-21-04-33","","null","","images/schematic_sequence/restaurant_scheme/restaurant_scheme_7.png","null","",""
"","","","","","image-button-response","29","867119","0.0-10.0-1.0-1.1","5E2B0A5B51304D2E8D269FF2C271BE76","5E2B0A5B51304D2E8D269FF2C271BE76","26dff941-b4e8-4710-b707-7c3531d4ef3c","ba640c14-69c5-453e-80b2-29051492c0e0","{""num_scrambled_semantic"":""8"",""num_scrambled_causal"":""4"",""num_scrambled_schematic"":""4"",""participantId"":""5E2B0A5B51304D2E8D269FF2C271BE76"",""assignmentId"":""26dff941-b4e8-4710-b707-7c3531d4ef3c"",""projectId"":""ba640c14-69c5-453e-80b2-29051492c0e0""}","https://test12345.live/?num_scrambled_semantic=8&num_scrambled_causal=4&num_scrambled_schematic=4&participantId=5E2B0A5B51304D2E8D269FF2C271BE76&assignmentId=26dff941-b4e8-4710-b707-7c3531d4ef3c&projectId=ba640c14-69c5-453e-80b2-29051492c0e0","5E2B0A5B51304D2E8D269FF2C271BE76-2025-05-14-21-04-33","","1787","","images/schematic_sequence/restaurant_scheme/restaurant_scheme_7.png","1","",""
"","","","","","image-button-response","30","868925","0.0-10.0-1.0-2.1","5E2B0A5B51304D2E8D269FF2C271BE76","5E2B0A5B51304D2E8D269FF2C271BE76","26dff941-b4e8-4710-b707-7c3531d4ef3c","ba640c14-69c5-453e-80b2-29051492c0e0","{""num_scrambled_semantic"":""8"",""num_scrambled_causal"":""4"",""num_scrambled_schematic"":""4"",""participantId"":""5E2B0A5B51304D2E8D269FF2C271BE76"",""assignmentId"":""26dff941-b4e8-4710-b707-7c3531d4ef3c"",""projectId"":""ba640c14-69c5-453e-80b2-29051492c0e0""}","https://test12345.live/?num_scrambled_semantic=8&num_scrambled_causal=4&num_scrambled_schematic=4&participantId=5E2B0A5B51304D2E8D269FF2C271BE76&assignmentId=26dff941-b4e8-4710-b707-7c3531d4ef3c&projectId=ba640c14-69c5-453e-80b2-29051492c0e0","5E2B0A5B51304D2E8D269FF2C271BE76-2025-05-14-21-04-33","","null","","[]","null","",""
"","","","","","image-button-response","31","873429","0.0-10.0-1.0-0.2","5E2B0A5B51304D2E8D269FF2C271BE76","5E2B0A5B51304D2E8D269FF2C271BE76","26dff941-b4e8-4710-b707-7c3531d4ef3c","ba640c14-69c5-453e-80b2-29051492c0e0","{""num_scrambled_semantic"":""8"",""num_scrambled_causal"":""4"",""num_scrambled_schematic"":""4"",""participantId"":""5E2B0A5B51304D2E8D269FF2C271BE76"",""assignmentId"":""26dff941-b4e8-4710-b707-7c3531d4ef3c"",""projectId"":""ba640c14-69c5-453e-80b2-29051492c0e0""}","https://test12345.live/?num_scrambled_semantic=8&num_scrambled_causal=4&num_scrambled_schematic=4&participantId=5E2B0A5B51304D2E8D269FF2C271BE76&assignmentId=26dff941-b4e8-4710-b707-7c3531d4ef3c&projectId=ba640c14-69c5-453e-80b2-29051492c0e0","5E2B0A5B51304D2E8D269FF2C271BE76-2025-05-14-21-04-33","","null","","images/schematic_sequence/restaurant_scheme/restaurant_scheme_9.png","null","",""
"","","","","","image-button-response","32","874461","0.0-10.0-1.0-1.2","5E2B0A5B51304D2E8D269FF2C271BE76","5E2B0A5B51304D2E8D269FF2C271BE76","26dff941-b4e8-4710-b707-7c3531d4ef3c","ba640c14-69c5-453e-80b2-29051492c0e0","{""num_scrambled_semantic"":""8"",""num_scrambled_causal"":""4"",""num_scrambled_schematic"":""4"",""participantId"":""5E2B0A5B51304D2E8D269FF2C271BE76"",""assignmentId"":""26dff941-b4e8-4710-b707-7c3531d4ef3c"",""projectId"":""ba640c14-69c5-453e-80b2-29051492c0e0""}","https://test12345.live/?num_scrambled_semantic=8&num_scrambled_causal=4&num_scrambled_schematic=4&participantId=5E2B0A5B51304D2E8D269FF2C271BE76&assignmentId=26dff941-b4e8-4710-b707-7c3531d4ef3c&projectId=ba640c14-69c5-453e-80b2-29051492c0e0","5E2B0A5B51304D2E8D269FF2C271BE76-2025-05-14-21-04-33","","1031","","images/schematic_sequence/restaurant_scheme/restaurant_scheme_9.png","0","",""
"","","","","","image-button-response","33","876267","0.0-10.0-1.0-2.2","5E2B0A5B51304D2E8D269FF2C271BE76","5E2B0A5B51304D2E8D269FF2C271BE76","26dff941-b4e8-4710-b707-7c3531d4ef3c","ba640c14-69c5-453e-80b2-29051492c0e0","{""num_scrambled_semantic"":""8"",""num_scrambled_causal"":""4"",""num_scrambled_schematic"":""4"",""participantId"":""5E2B0A5B51304D2E8D269FF2C271BE76"",""assignmentId"":""26dff941-b4e8-4710-b707-7c3531d4ef3c"",""projectId"":""ba640c14-69c5-453e-80b2-29051492c0e0""}","https://test12345.live/?num_scrambled_semantic=8&num_scrambled_causal=4&num_scrambled_schematic=4&participantId=5E2B0A5B51304D2E8D269FF2C271BE76&assignmentId=26dff941-b4e8-4710-b707-7c3531d4ef3c&projectId=ba640c14-69c5-453e-80b2-29051492c0e0","5E2B0A5B51304D2E8D269FF2C271BE76-2025-05-14-21-04-33","","null","","[]","null","",""
"","","","","","image-button-response","34","880775","0.0-10.0-1.0-0.3","5E2B0A5B51304D2E8D269FF2C271BE76","5E2B0A5B51304D2E8D269FF2C271BE76","26dff941-b4e8-4710-b707-7c3531d4ef3c","ba640c14-69c5-453e-80b2-29051492c0e0","{""num_scrambled_semantic"":""8"",""num_scrambled_causal"":""4"",""num_scrambled_schematic"":""4"",""participantId"":""5E2B0A5B51304D2E8D269FF2C271BE76"",""assignmentId"":""26dff941-b4e8-4710-b707-7c3531d4ef3c"",""projectId"":""ba640c14-69c5-453e-80b2-29051492c0e0""}","https://test12345.live/?num_scrambled_semantic=8&num_scrambled_causal=4&num_scrambled_schematic=4&participantId=5E2B0A5B51304D2E8D269FF2C271BE76&assignmentId=26dff941-b4e8-4710-b707-7c3531d4ef3c&projectId=ba640c14-69c5-453e-80b2-29051492c0e0","5E2B0A5B51304D2E8D269FF2C271BE76-2025-05-14-21-04-33","","null","","images/schematic_sequence/restaurant_scheme/restaurant_scheme_1.png","null","",""
"","","","","","image-button-response","35","883093","0.0-10.0-1.0-1.3","5E2B0A5B51304D2E8D269FF2C271BE76","5E2B0A5B51304D2E8D269FF2C271BE76","26dff941-b4e8-4710-b707-7c3531d4ef3c","ba640c14-69c5-453e-80b2-29051492c0e0","{""num_scrambled_semantic"":""8"",""num_scrambled_causal"":""4"",""num_scrambled_schematic"":""4"",""participantId"":""5E2B0A5B51304D2E8D269FF2C271BE76"",""assignmentId"":""26dff941-b4e8-4710-b707-7c3531d4ef3c"",""projectId"":""ba640c14-69c5-453e-80b2-29051492c0e0""}","https://test12345.live/?num_scrambled_semantic=8&num_scrambled_causal=4&num_scrambled_schematic=4&participantId=5E2B0A5B51304D2E8D269FF2C271BE76&assignmentId=26dff941-b4e8-4710-b707-7c3531d4ef3c&projectId=ba640c14-69c5-453e-80b2-29051492c0e0","5E2B0A5B51304D2E8D269FF2C271BE76-2025-05-14-21-04-33","","2316","","images/schematic_sequence/restaurant_scheme/restaurant_scheme_1.png","0","",""
"","","","","","image-button-response","36","884899","0.0-10.0-1.0-2.3","5E2B0A5B51304D2E8D269FF2C271BE76","5E2B0A5B51304D2E8D269FF2C271BE76","26dff941-b4e8-4710-b707-7c3531d4ef3c","ba640c14-69c5-453e-80b2-29051492c0e0","{""num_scrambled_semantic"":""8"",""num_scrambled_causal"":""4"",""num_scrambled_schematic"":""4"",""participantId"":""5E2B0A5B51304D2E8D269FF2C271BE76"",""assignmentId"":""26dff941-b4e8-4710-b707-7c3531d4ef3c"",""projectId"":""ba640c14-69c5-453e-80b2-29051492c0e0""}","https://test12345.live/?num_scrambled_semantic=8&num_scrambled_causal=4&num_scrambled_schematic=4&participantId=5E2B0A5B51304D2E8D269FF2C271BE76&assignmentId=26dff941-b4e8-4710-b707-7c3531d4ef3c&projectId=ba640c14-69c5-453e-80b2-29051492c0e0","5E2B0A5B51304D2E8D269FF2C271BE76-2025-05-14-21-04-33","","null","","[]","null","",""
"","","","","","image-button-response","37","889402","0.0-10.0-1.0-0.4","5E2B0A5B51304D2E8D269FF2C271BE76","5E2B0A5B51304D2E8D269FF2C271BE76","26dff941-b4e8-4710-b707-7c3531d4ef3c","ba640c14-69c5-453e-80b2-29051492c0e0","{""num_scrambled_semantic"":""8"",""num_scrambled_causal"":""4"",""num_scrambled_schematic"":""4"",""participantId"":""5E2B0A5B51304D2E8D269FF2C271BE76"",""assignmentId"":""26dff941-b4e8-4710-b707-7c3531d4ef3c"",""projectId"":""ba640c14-69c5-453e-80b2-29051492c0e0""}","https://test12345.live/?num_scrambled_semantic=8&num_scrambled_causal=4&num_scrambled_schematic=4&participantId=5E2B0A5B51304D2E8D269FF2C271BE76&assignmentId=26dff941-b4e8-4710-b707-7c3531d4ef3c&projectId=ba640c14-69c5-453e-80b2-29051492c0e0","5E2B0A5B51304D2E8D269FF2C271BE76-2025-05-14-21-04-33","","null","","images/schematic_sequence/restaurant_scheme/restaurant_scheme_ten.png","null","",""
"","","","","","image-button-response","38","890850","0.0-10.0-1.0-1.4","5E2B0A5B51304D2E8D269FF2C271BE76","5E2B0A5B51304D2E8D269FF2C271BE76","26dff941-b4e8-4710-b707-7c3531d4ef3c","ba640c14-69c5-453e-80b2-29051492c0e0","{""num_scrambled_semantic"":""8"",""num_scrambled_causal"":""4"",""num_scrambled_schematic"":""4"",""participantId"":""5E2B0A5B51304D2E8D269FF2C271BE76"",""assignmentId"":""26dff941-b4e8-4710-b707-7c3531d4ef3c"",""projectId"":""ba640c14-69c5-453e-80b2-29051492c0e0""}","https://test12345.live/?num_scrambled_semantic=8&num_scrambled_causal=4&num_scrambled_schematic=4&participantId=5E2B0A5B51304D2E8D269FF2C271BE76&assignmentId=26dff941-b4e8-4710-b707-7c3531d4ef3c&projectId=ba640c14-69c5-453e-80b2-29051492c0e0","5E2B0A5B51304D2E8D269FF2C271BE76-2025-05-14-21-04-33","","1448","","images/schematic_sequence/restaurant_scheme/restaurant_scheme_ten.png","0","",""
"","","","","","image-button-response","39","892656","0.0-10.0-1.0-2.4","5E2B0A5B51304D2E8D269FF2C271BE76","5E2B0A5B51304D2E8D269FF2C271BE76","26dff941-b4e8-4710-b707-7c3531d4ef3c","ba640c14-69c5-453e-80b2-29051492c0e0","{""num_scrambled_semantic"":""8"",""num_scrambled_causal"":""4"",""num_scrambled_schematic"":""4"",""participantId"":""5E2B0A5B51304D2E8D269FF2C271BE76"",""assignmentId"":""26dff941-b4e8-4710-b707-7c3531d4ef3c"",""projectId"":""ba640c14-69c5-453e-80b2-29051492c0e0""}","https://test12345.live/?num_scrambled_semantic=8&num_scrambled_causal=4&num_scrambled_schematic=4&participantId=5E2B0A5B51304D2E8D269FF2C271BE76&assignmentId=26dff941-b4e8-4710-b707-7c3531d4ef3c&projectId=ba640c14-69c5-453e-80b2-29051492c0e0","5E2B0A5B51304D2E8D269FF2C271BE76-2025-05-14-21-04-33","","null","","[]","null","",""
"","","","","","image-button-response","40","897159","0.0-10.0-1.0-0.5","5E2B0A5B51304D2E8D269FF2C271BE76","5E2B0A5B51304D2E8D269FF2C271BE76","26dff941-b4e8-4710-b707-7c3531d4ef3c","ba640c14-69c5-453e-80b2-29051492c0e0","{""num_scrambled_semantic"":""8"",""num_scrambled_causal"":""4"",""num_scrambled_schematic"":""4"",""participantId"":""5E2B0A5B51304D2E8D269FF2C271BE76"",""assignmentId"":""26dff941-b4e8-4710-b707-7c3531d4ef3c"",""projectId"":""ba640c14-69c5-453e-80b2-29051492c0e0""}","https://test12345.live/?num_scrambled_semantic=8&num_scrambled_causal=4&num_scrambled_schematic=4&participantId=5E2B0A5B51304D2E8D269FF2C271BE76&assignmentId=26dff941-b4e8-4710-b707-7c3531d4ef3c&projectId=ba640c14-69c5-453e-80b2-29051492c0e0","5E2B0A5B51304D2E8D269FF2C271BE76-2025-05-14-21-04-33","","null","","images/schematic_sequence/restaurant_scheme/restaurant_scheme_5.png","null","",""
"","","","","","image-button-response","41","898251","0.0-10.0-1.0-1.5","5E2B0A5B51304D2E8D269FF2C271BE76","5E2B0A5B51304D2E8D269FF2C271BE76","26dff941-b4e8-4710-b707-7c3531d4ef3c","ba640c14-69c5-453e-80b2-29051492c0e0","{""num_scrambled_semantic"":""8"",""num_scrambled_causal"":""4"",""num_scrambled_schematic"":""4"",""participantId"":""5E2B0A5B51304D2E8D269FF2C271BE76"",""assignmentId"":""26dff941-b4e8-4710-b707-7c3531d4ef3c"",""projectId"":""ba640c14-69c5-453e-80b2-29051492c0e0""}","https://test12345.live/?num_scrambled_semantic=8&num_scrambled_causal=4&num_scrambled_schematic=4&participantId=5E2B0A5B51304D2E8D269FF2C271BE76&assignmentId=26dff941-b4e8-4710-b707-7c3531d4ef3c&projectId=ba640c14-69c5-453e-80b2-29051492c0e0","5E2B0A5B51304D2E8D269FF2C271BE76-2025-05-14-21-04-33","","1091","","images/schematic_sequence/restaurant_scheme/restaurant_scheme_5.png","0","",""
"","","","","","image-button-response","42","900054","0.0-10.0-1.0-2.5","5E2B0A5B51304D2E8D269FF2C271BE76","5E2B0A5B51304D2E8D269FF2C271BE76","26dff941-b4e8-4710-b707-7c3531d4ef3c","ba640c14-69c5-453e-80b2-29051492c0e0","{""num_scrambled_semantic"":""8"",""num_scrambled_causal"":""4"",""num_scrambled_schematic"":""4"",""participantId"":""5E2B0A5B51304D2E8D269FF2C271BE76"",""assignmentId"":""26dff941-b4e8-4710-b707-7c3531d4ef3c"",""projectId"":""ba640c14-69c5-453e-80b2-29051492c0e0""}","https://test12345.live/?num_scrambled_semantic=8&num_scrambled_causal=4&num_scrambled_schematic=4&participantId=5E2B0A5B51304D2E8D269FF2C271BE76&assignmentId=26dff941-b4e8-4710-b707-7c3531d4ef3c&projectId=ba640c14-69c5-453e-80b2-29051492c0e0","5E2B0A5B51304D2E8D269FF2C271BE76-2025-05-14-21-04-33","","null","","[]","null","",""
"","","","","","image-button-response","43","904561","0.0-10.0-1.0-0.6","5E2B0A5B51304D2E8D269FF2C271BE76","5E2B0A5B51304D2E8D269FF2C271BE76","26dff941-b4e8-4710-b707-7c3531d4ef3c","ba640c14-69c5-453e-80b2-29051492c0e0","{""num_scrambled_semantic"":""8"",""num_scrambled_causal"":""4"",""num_scrambled_schematic"":""4"",""participantId"":""5E2B0A5B51304D2E8D269FF2C271BE76"",""assignmentId"":""26dff941-b4e8-4710-b707-7c3531d4ef3c"",""projectId"":""ba640c14-69c5-453e-80b2-29051492c0e0""}","https://test12345.live/?num_scrambled_semantic=8&num_scrambled_causal=4&num_scrambled_schematic=4&participantId=5E2B0A5B51304D2E8D269FF2C271BE76&assignmentId=26dff941-b4e8-4710-b707-7c3531d4ef3c&projectId=ba640c14-69c5-453e-80b2-29051492c0e0","5E2B0A5B51304D2E8D269FF2C271BE76-2025-05-14-21-04-33","","null","","images/schematic_sequence/restaurant_scheme/restaurant_scheme_6.png","null","",""
"","","","","","image-button-response","44","905849","0.0-10.0-1.0-1.6","5E2B0A5B51304D2E8D269FF2C271BE76","5E2B0A5B51304D2E8D269FF2C271BE76","26dff941-b4e8-4710-b707-7c3531d4ef3c","ba640c14-69c5-453e-80b2-29051492c0e0","{""num_scrambled_semantic"":""8"",""num_scrambled_causal"":""4"",""num_scrambled_schematic"":""4"",""participantId"":""5E2B0A5B51304D2E8D269FF2C271BE76"",""assignmentId"":""26dff941-b4e8-4710-b707-7c3531d4ef3c"",""projectId"":""ba640c14-69c5-453e-80b2-29051492c0e0""}","https://test12345.live/?num_scrambled_semantic=8&num_scrambled_causal=4&num_scrambled_schematic=4&participantId=5E2B0A5B51304D2E8D269FF2C271BE76&assignmentId=26dff941-b4e8-4710-b707-7c3531d4ef3c&projectId=ba640c14-69c5-453e-80b2-29051492c0e0","5E2B0A5B51304D2E8D269FF2C271BE76-2025-05-14-21-04-33","","1286","","images/schematic_sequence/restaurant_scheme/restaurant_scheme_6.png","1","",""
"","","","","","image-button-response","45","907655","0.0-10.0-1.0-2.6","5E2B0A5B51304D2E8D269FF2C271BE76","5E2B0A5B51304D2E8D269FF2C271BE76","26dff941-b4e8-4710-b707-7c3531d4ef3c","ba640c14-69c5-453e-80b2-29051492c0e0","{""num_scrambled_semantic"":""8"",""num_scrambled_causal"":""4"",""num_scrambled_schematic"":""4"",""participantId"":""5E2B0A5B51304D2E8D269FF2C271BE76"",""assignmentId"":""26dff941-b4e8-4710-b707-7c3531d4ef3c"",""projectId"":""ba640c14-69c5-453e-80b2-29051492c0e0""}","https://test12345.live/?num_scrambled_semantic=8&num_scrambled_causal=4&num_scrambled_schematic=4&participantId=5E2B0A5B51304D2E8D269FF2C271BE76&assignmentId=26dff941-b4e8-4710-b707-7c3531d4ef3c&projectId=ba640c14-69c5-453e-80b2-29051492c0e0","5E2B0A5B51304D2E8D269FF2C271BE76-2025-05-14-21-04-33","","null","","[]","null","",""
"","","","","","image-button-response","46","912158","0.0-10.0-1.0-0.7","5E2B0A5B51304D2E8D269FF2C271BE76","5E2B0A5B51304D2E8D269FF2C271BE76","26dff941-b4e8-4710-b707-7c3531d4ef3c","ba640c14-69c5-453e-80b2-29051492c0e0","{""num_scrambled_semantic"":""8"",""num_scrambled_causal"":""4"",""num_scrambled_schematic"":""4"",""participantId"":""5E2B0A5B51304D2E8D269FF2C271BE76"",""assignmentId"":""26dff941-b4e8-4710-b707-7c3531d4ef3c"",""projectId"":""ba640c14-69c5-453e-80b2-29051492c0e0""}","https://test12345.live/?num_scrambled_semantic=8&num_scrambled_causal=4&num_scrambled_schematic=4&participantId=5E2B0A5B51304D2E8D269FF2C271BE76&assignmentId=26dff941-b4e8-4710-b707-7c3531d4ef3c&projectId=ba640c14-69c5-453e-80b2-29051492c0e0","5E2B0A5B51304D2E8D269FF2C271BE76-2025-05-14-21-04-33","","null","","images/schematic_sequence/restaurant_scheme/restaurant_scheme_4.png","null","",""
"","","","","","image-button-response","47","913572","0.0-10.0-1.0-1.7","5E2B0A5B51304D2E8D269FF2C271BE76","5E2B0A5B51304D2E8D269FF2C271BE76","26dff941-b4e8-4710-b707-7c3531d4ef3c","ba640c14-69c5-453e-80b2-29051492c0e0","{""num_scrambled_semantic"":""8"",""num_scrambled_causal"":""4"",""num_scrambled_schematic"":""4"",""participantId"":""5E2B0A5B51304D2E8D269FF2C271BE76"",""assignmentId"":""26dff941-b4e8-4710-b707-7c3531d4ef3c"",""projectId"":""ba640c14-69c5-453e-80b2-29051492c0e0""}","https://test12345.live/?num_scrambled_semantic=8&num_scrambled_causal=4&num_scrambled_schematic=4&participantId=5E2B0A5B51304D2E8D269FF2C271BE76&assignmentId=26dff941-b4e8-4710-b707-7c3531d4ef3c&projectId=ba640c14-69c5-453e-80b2-29051492c0e0","5E2B0A5B51304D2E8D269FF2C271BE76-2025-05-14-21-04-33","","1413","","images/schematic_sequence/restaurant_scheme/restaurant_scheme_4.png","0","",""
"","","","","","image-button-response","48","915378","0.0-10.0-1.0-2.7","5E2B0A5B51304D2E8D269FF2C271BE76","5E2B0A5B51304D2E8D269FF2C271BE76","26dff941-b4e8-4710-b707-7c3531d4ef3c","ba640c14-69c5-453e-80b2-29051492c0e0","{""num_scrambled_semantic"":""8"",""num_scrambled_causal"":""4"",""num_scrambled_schematic"":""4"",""participantId"":""5E2B0A5B51304D2E8D269FF2C271BE76"",""assignmentId"":""26dff941-b4e8-4710-b707-7c3531d4ef3c"",""projectId"":""ba640c14-69c5-453e-80b2-29051492c0e0""}","https://test12345.live/?num_scrambled_semantic=8&num_scrambled_causal=4&num_scrambled_schematic=4&participantId=5E2B0A5B51304D2E8D269FF2C271BE76&assignmentId=26dff941-b4e8-4710-b707-7c3531d4ef3c&projectId=ba640c14-69c5-453e-80b2-29051492c0e0","5E2B0A5B51304D2E8D269FF2C271BE76-2025-05-14-21-04-33","","null","","[]","null","",""
"","","","","","image-button-response","49","919881","0.0-10.0-1.0-0.8","5E2B0A5B51304D2E8D269FF2C271BE76","5E2B0A5B51304D2E8D269FF2C271BE76","26dff941-b4e8-4710-b707-7c3531d4ef3c","ba640c14-69c5-453e-80b2-29051492c0e0","{""num_scrambled_semantic"":""8"",""num_scrambled_causal"":""4"",""num_scrambled_schematic"":""4"",""participantId"":""5E2B0A5B51304D2E8D269FF2C271BE76"",""assignmentId"":""26dff941-b4e8-4710-b707-7c3531d4ef3c"",""projectId"":""ba640c14-69c5-453e-80b2-29051492c0e0""}","https://test12345.live/?num_scrambled_semantic=8&num_scrambled_causal=4&num_scrambled_schematic=4&participantId=5E2B0A5B51304D2E8D269FF2C271BE76&assignmentId=26dff941-b4e8-4710-b707-7c3531d4ef3c&projectId=ba640c14-69c5-453e-80b2-29051492c0e0","5E2B0A5B51304D2E8D269FF2C271BE76-2025-05-14-21-04-33","","null","","images/schematic_sequence/restaurant_scheme/restaurant_scheme_3.png","null","",""
"","","","","","image-button-response","50","921048","0.0-10.0-1.0-1.8","5E2B0A5B51304D2E8D269FF2C271BE76","5E2B0A5B51304D2E8D269FF2C271BE76","26dff941-b4e8-4710-b707-7c3531d4ef3c","ba640c14-69c5-453e-80b2-29051492c0e0","{""num_scrambled_semantic"":""8"",""num_scrambled_causal"":""4"",""num_scrambled_schematic"":""4"",""participantId"":""5E2B0A5B51304D2E8D269FF2C271BE76"",""assignmentId"":""26dff941-b4e8-4710-b707-7c3531d4ef3c"",""projectId"":""ba640c14-69c5-453e-80b2-29051492c0e0""}","https://test12345.live/?num_scrambled_semantic=8&num_scrambled_causal=4&num_scrambled_schematic=4&participantId=5E2B0A5B51304D2E8D269FF2C271BE76&assignmentId=26dff941-b4e8-4710-b707-7c3531d4ef3c&projectId=ba640c14-69c5-453e-80b2-29051492c0e0","5E2B0A5B51304D2E8D269FF2C271BE76-2025-05-14-21-04-33","","1166","","images/schematic_sequence/restaurant_scheme/restaurant_scheme_3.png","1","",""
"","","","","","image-button-response","51","922854","0.0-10.0-1.0-2.8","5E2B0A5B51304D2E8D269FF2C271BE76","5E2B0A5B51304D2E8D269FF2C271BE76","26dff941-b4e8-4710-b707-7c3531d4ef3c","ba640c14-69c5-453e-80b2-29051492c0e0","{""num_scrambled_semantic"":""8"",""num_scrambled_causal"":""4"",""num_scrambled_schematic"":""4"",""participantId"":""5E2B0A5B51304D2E8D269FF2C271BE76"",""assignmentId"":""26dff941-b4e8-4710-b707-7c3531d4ef3c"",""projectId"":""ba640c14-69c5-453e-80b2-29051492c0e0""}","https://test12345.live/?num_scrambled_semantic=8&num_scrambled_causal=4&num_scrambled_schematic=4&participantId=5E2B0A5B51304D2E8D269FF2C271BE76&assignmentId=26dff941-b4e8-4710-b707-7c3531d4ef3c&projectId=ba640c14-69c5-453e-80b2-29051492c0e0","5E2B0A5B51304D2E8D269FF2C271BE76-2025-05-14-21-04-33","","null","","[]","null","",""
"","","","","","image-button-response","52","927357","0.0-10.0-1.0-0.9","5E2B0A5B51304D2E8D269FF2C271BE76","5E2B0A5B51304D2E8D269FF2C271BE76","26dff941-b4e8-4710-b707-7c3531d4ef3c","ba640c14-69c5-453e-80b2-29051492c0e0","{""num_scrambled_semantic"":""8"",""num_scrambled_causal"":""4"",""num_scrambled_schematic"":""4"",""participantId"":""5E2B0A5B51304D2E8D269FF2C271BE76"",""assignmentId"":""26dff941-b4e8-4710-b707-7c3531d4ef3c"",""projectId"":""ba640c14-69c5-453e-80b2-29051492c0e0""}","https://test12345.live/?num_scrambled_semantic=8&num_scrambled_causal=4&num_scrambled_schematic=4&participantId=5E2B0A5B51304D2E8D269FF2C271BE76&assignmentId=26dff941-b4e8-4710-b707-7c3531d4ef3c&projectId=ba640c14-69c5-453e-80b2-29051492c0e0","5E2B0A5B51304D2E8D269FF2C271BE76-2025-05-14-21-04-33","","null","","images/schematic_sequence/restaurant_scheme/restaurant_scheme_2.png","null","",""
"","","","","","image-button-response","53","930341","0.0-10.0-1.0-1.9","5E2B0A5B51304D2E8D269FF2C271BE76","5E2B0A5B51304D2E8D269FF2C271BE76","26dff941-b4e8-4710-b707-7c3531d4ef3c","ba640c14-69c5-453e-80b2-29051492c0e0","{""num_scrambled_semantic"":""8"",""num_scrambled_causal"":""4"",""num_scrambled_schematic"":""4"",""participantId"":""5E2B0A5B51304D2E8D269FF2C271BE76"",""assignmentId"":""26dff941-b4e8-4710-b707-7c3531d4ef3c"",""projectId"":""ba640c14-69c5-453e-80b2-29051492c0e0""}","https://test12345.live/?num_scrambled_semantic=8&num_scrambled_causal=4&num_scrambled_schematic=4&participantId=5E2B0A5B51304D2E8D269FF2C271BE76&assignmentId=26dff941-b4e8-4710-b707-7c3531d4ef3c&projectId=ba640c14-69c5-453e-80b2-29051492c0e0","5E2B0A5B51304D2E8D269FF2C271BE76-2025-05-14-21-04-33","","2982","","images/schematic_sequence/restaurant_scheme/restaurant_scheme_2.png","1","",""
"","","","","","image-button-response","54","932142","0.0-10.0-1.0-2.9","5E2B0A5B51304D2E8D269FF2C271BE76","5E2B0A5B51304D2E8D269FF2C271BE76","26dff941-b4e8-4710-b707-7c3531d4ef3c","ba640c14-69c5-453e-80b2-29051492c0e0","{""num_scrambled_semantic"":""8"",""num_scrambled_causal"":""4"",""num_scrambled_schematic"":""4"",""participantId"":""5E2B0A5B51304D2E8D269FF2C271BE76"",""assignmentId"":""26dff941-b4e8-4710-b707-7c3531d4ef3c"",""projectId"":""ba640c14-69c5-453e-80b2-29051492c0e0""}","https://test12345.live/?num_scrambled_semantic=8&num_scrambled_causal=4&num_scrambled_schematic=4&participantId=5E2B0A5B51304D2E8D269FF2C271BE76&assignmentId=26dff941-b4e8-4710-b707-7c3531d4ef3c&projectId=ba640c14-69c5-453e-80b2-29051492c0e0","5E2B0A5B51304D2E8D269FF2C271BE76-2025-05-14-21-04-33","","null","","[]","null","",""
"","","","","","html-audio-response","55","1022438","0.0-11.0","5E2B0A5B51304D2E8D269FF2C271BE76","5E2B0A5B51304D2E8D269FF2C271BE76","26dff941-b4e8-4710-b707-7c3531d4ef3c","ba640c14-69c5-453e-80b2-29051492c0e0","{""num_scrambled_semantic"":""8"",""num_scrambled_causal"":""4"",""num_scrambled_schematic"":""4"",""participantId"":""5E2B0A5B51304D2E8D269FF2C271BE76"",""assignmentId"":""26dff941-b4e8-4710-b707-7c3531d4ef3c"",""projectId"":""ba640c14-69c5-453e-80b2-29051492c0e0""}","https://test12345.live/?num_scrambled_semantic=8&num_scrambled_causal=4&num_scrambled_schematic=4&participantId=5E2B0A5B51304D2E8D269FF2C271BE76&assignmentId=26dff941-b4e8-4710-b707-7c3531d4ef3c&projectId=ba640c14-69c5-453e-80b2-29051492c0e0","5E2B0A5B51304D2E8D269FF2C271BE76-2025-05-14-21-04-33","","11932","","[""<span style=\""color: red; font-size: 24px\""> NOW RECORDING</span><p>Please say out loud all the images you saw, as many as you can remember. The images can be said in any order.</p>""]","","11","restaurant_scheme"
"","","","","","image-button-response","56","1028441","0.0-12.0-0.0","5E2B0A5B51304D2E8D269FF2C271BE76","5E2B0A5B51304D2E8D269FF2C271BE76","26dff941-b4e8-4710-b707-7c3531d4ef3c","ba640c14-69c5-453e-80b2-29051492c0e0","{""num_scrambled_semantic"":""8"",""num_scrambled_causal"":""4"",""num_scrambled_schematic"":""4"",""participantId"":""5E2B0A5B51304D2E8D269FF2C271BE76"",""assignmentId"":""26dff941-b4e8-4710-b707-7c3531d4ef3c"",""projectId"":""ba640c14-69c5-453e-80b2-29051492c0e0""}","https://test12345.live/?num_scrambled_semantic=8&num_scrambled_causal=4&num_scrambled_schematic=4&participantId=5E2B0A5B51304D2E8D269FF2C271BE76&assignmentId=26dff941-b4e8-4710-b707-7c3531d4ef3c&projectId=ba640c14-69c5-453e-80b2-29051492c0e0","5E2B0A5B51304D2E8D269FF2C271BE76-2025-05-14-21-04-33","","null","","images/causal_sequence/package_causal/package_causal_0.png","null","",""
"","","","","","image-button-response","57","1032945","0.0-12.0-1.0-0.0","5E2B0A5B51304D2E8D269FF2C271BE76","5E2B0A5B51304D2E8D269FF2C271BE76","26dff941-b4e8-4710-b707-7c3531d4ef3c","ba640c14-69c5-453e-80b2-29051492c0e0","{""num_scrambled_semantic"":""8"",""num_scrambled_causal"":""4"",""num_scrambled_schematic"":""4"",""participantId"":""5E2B0A5B51304D2E8D269FF2C271BE76"",""assignmentId"":""26dff941-b4e8-4710-b707-7c3531d4ef3c"",""projectId"":""ba640c14-69c5-453e-80b2-29051492c0e0""}","https://test12345.live/?num_scrambled_semantic=8&num_scrambled_causal=4&num_scrambled_schematic=4&participantId=5E2B0A5B51304D2E8D269FF2C271BE76&assignmentId=26dff941-b4e8-4710-b707-7c3531d4ef3c&projectId=ba640c14-69c5-453e-80b2-29051492c0e0","5E2B0A5B51304D2E8D269FF2C271BE76-2025-05-14-21-04-33","","null","","images/causal_sequence/package_causal/package_causal_1.png","null","",""
"","","","","","image-button-response","58","1034131","0.0-12.0-1.0-1.0","5E2B0A5B51304D2E8D269FF2C271BE76","5E2B0A5B51304D2E8D269FF2C271BE76","26dff941-b4e8-4710-b707-7c3531d4ef3c","ba640c14-69c5-453e-80b2-29051492c0e0","{""num_scrambled_semantic"":""8"",""num_scrambled_causal"":""4"",""num_scrambled_schematic"":""4"",""participantId"":""5E2B0A5B51304D2E8D269FF2C271BE76"",""assignmentId"":""26dff941-b4e8-4710-b707-7c3531d4ef3c"",""projectId"":""ba640c14-69c5-453e-80b2-29051492c0e0""}","https://test12345.live/?num_scrambled_semantic=8&num_scrambled_causal=4&num_scrambled_schematic=4&participantId=5E2B0A5B51304D2E8D269FF2C271BE76&assignmentId=26dff941-b4e8-4710-b707-7c3531d4ef3c&projectId=ba640c14-69c5-453e-80b2-29051492c0e0","5E2B0A5B51304D2E8D269FF2C271BE76-2025-05-14-21-04-33","","1185","","images/causal_sequence/package_causal/package_causal_1.png","0","",""
"","","","","","image-button-response","59","1035938","0.0-12.0-1.0-2.0","5E2B0A5B51304D2E8D269FF2C271BE76","5E2B0A5B51304D2E8D269FF2C271BE76","26dff941-b4e8-4710-b707-7c3531d4ef3c","ba640c14-69c5-453e-80b2-29051492c0e0","{""num_scrambled_semantic"":""8"",""num_scrambled_causal"":""4"",""num_scrambled_schematic"":""4"",""participantId"":""5E2B0A5B51304D2E8D269FF2C271BE76"",""assignmentId"":""26dff941-b4e8-4710-b707-7c3531d4ef3c"",""projectId"":""ba640c14-69c5-453e-80b2-29051492c0e0""}","https://test12345.live/?num_scrambled_semantic=8&num_scrambled_causal=4&num_scrambled_schematic=4&participantId=5E2B0A5B51304D2E8D269FF2C271BE76&assignmentId=26dff941-b4e8-4710-b707-7c3531d4ef3c&projectId=ba640c14-69c5-453e-80b2-29051492c0e0","5E2B0A5B51304D2E8D269FF2C271BE76-2025-05-14-21-04-33","","null","","[]","null","",""
"","","","","","image-button-response","60","1040443","0.0-12.0-1.0-0.1","5E2B0A5B51304D2E8D269FF2C271BE76","5E2B0A5B51304D2E8D269FF2C271BE76","26dff941-b4e8-4710-b707-7c3531d4ef3c","ba640c14-69c5-453e-80b2-29051492c0e0","{""num_scrambled_semantic"":""8"",""num_scrambled_causal"":""4"",""num_scrambled_schematic"":""4"",""participantId"":""5E2B0A5B51304D2E8D269FF2C271BE76"",""assignmentId"":""26dff941-b4e8-4710-b707-7c3531d4ef3c"",""projectId"":""ba640c14-69c5-453e-80b2-29051492c0e0""}","https://test12345.live/?num_scrambled_semantic=8&num_scrambled_causal=4&num_scrambled_schematic=4&participantId=5E2B0A5B51304D2E8D269FF2C271BE76&assignmentId=26dff941-b4e8-4710-b707-7c3531d4ef3c&projectId=ba640c14-69c5-453e-80b2-29051492c0e0","5E2B0A5B51304D2E8D269FF2C271BE76-2025-05-14-21-04-33","","null","","images/causal_sequence/package_causal/package_causal_2.png","null","",""
"","","","","","image-button-response","61","1044450","0.0-12.0-1.0-1.1","5E2B0A5B51304D2E8D269FF2C271BE76","5E2B0A5B51304D2E8D269FF2C271BE76","26dff941-b4e8-4710-b707-7c3531d4ef3c","ba640c14-69c5-453e-80b2-29051492c0e0","{""num_scrambled_semantic"":""8"",""num_scrambled_causal"":""4"",""num_scrambled_schematic"":""4"",""participantId"":""5E2B0A5B51304D2E8D269FF2C271BE76"",""assignmentId"":""26dff941-b4e8-4710-b707-7c3531d4ef3c"",""projectId"":""ba640c14-69c5-453e-80b2-29051492c0e0""}","https://test12345.live/?num_scrambled_semantic=8&num_scrambled_causal=4&num_scrambled_schematic=4&participantId=5E2B0A5B51304D2E8D269FF2C271BE76&assignmentId=26dff941-b4e8-4710-b707-7c3531d4ef3c&projectId=ba640c14-69c5-453e-80b2-29051492c0e0","5E2B0A5B51304D2E8D269FF2C271BE76-2025-05-14-21-04-33","","null","","images/causal_sequence/package_causal/package_causal_2.png","null","",""
"","","","","","image-button-response","62","1046256","0.0-12.0-1.0-2.1","5E2B0A5B51304D2E8D269FF2C271BE76","5E2B0A5B51304D2E8D269FF2C271BE76","26dff941-b4e8-4710-b707-7c3531d4ef3c","ba640c14-69c5-453e-80b2-29051492c0e0","{""num_scrambled_semantic"":""8"",""num_scrambled_causal"":""4"",""num_scrambled_schematic"":""4"",""participantId"":""5E2B0A5B51304D2E8D269FF2C271BE76"",""assignmentId"":""26dff941-b4e8-4710-b707-7c3531d4ef3c"",""projectId"":""ba640c14-69c5-453e-80b2-29051492c0e0""}","https://test12345.live/?num_scrambled_semantic=8&num_scrambled_causal=4&num_scrambled_schematic=4&participantId=5E2B0A5B51304D2E8D269FF2C271BE76&assignmentId=26dff941-b4e8-4710-b707-7c3531d4ef3c&projectId=ba640c14-69c5-453e-80b2-29051492c0e0","5E2B0A5B51304D2E8D269FF2C271BE76-2025-05-14-21-04-33","","null","","[]","null","",""
"","","","","","image-button-response","63","1050758","0.0-12.0-1.0-0.2","5E2B0A5B51304D2E8D269FF2C271BE76","5E2B0A5B51304D2E8D269FF2C271BE76","26dff941-b4e8-4710-b707-7c3531d4ef3c","ba640c14-69c5-453e-80b2-29051492c0e0","{""num_scrambled_semantic"":""8"",""num_scrambled_causal"":""4"",""num_scrambled_schematic"":""4"",""participantId"":""5E2B0A5B51304D2E8D269FF2C271BE76"",""assignmentId"":""26dff941-b4e8-4710-b707-7c3531d4ef3c"",""projectId"":""ba640c14-69c5-453e-80b2-29051492c0e0""}","https://test12345.live/?num_scrambled_semantic=8&num_scrambled_causal=4&num_scrambled_schematic=4&participantId=5E2B0A5B51304D2E8D269FF2C271BE76&assignmentId=26dff941-b4e8-4710-b707-7c3531d4ef3c&projectId=ba640c14-69c5-453e-80b2-29051492c0e0","5E2B0A5B51304D2E8D269FF2C271BE76-2025-05-14-21-04-33","","null","","images/causal_sequence/package_causal/package_causal_3.png","null","",""
"","","","","","image-button-response","64","1051408","0.0-12.0-1.0-1.2","5E2B0A5B51304D2E8D269FF2C271BE76","5E2B0A5B51304D2E8D269FF2C271BE76","26dff941-b4e8-4710-b707-7c3531d4ef3c","ba640c14-69c5-453e-80b2-29051492c0e0","{""num_scrambled_semantic"":""8"",""num_scrambled_causal"":""4"",""num_scrambled_schematic"":""4"",""participantId"":""5E2B0A5B51304D2E8D269FF2C271BE76"",""assignmentId"":""26dff941-b4e8-4710-b707-7c3531d4ef3c"",""projectId"":""ba640c14-69c5-453e-80b2-29051492c0e0""}","https://test12345.live/?num_scrambled_semantic=8&num_scrambled_causal=4&num_scrambled_schematic=4&participantId=5E2B0A5B51304D2E8D269FF2C271BE76&assignmentId=26dff941-b4e8-4710-b707-7c3531d4ef3c&projectId=ba640c14-69c5-453e-80b2-29051492c0e0","5E2B0A5B51304D2E8D269FF2C271BE76-2025-05-14-21-04-33","","649","","images/causal_sequence/package_causal/package_causal_3.png","0","",""
"","","","","","image-button-response","65","1053214","0.0-12.0-1.0-2.2","5E2B0A5B51304D2E8D269FF2C271BE76","5E2B0A5B51304D2E8D269FF2C271BE76","26dff941-b4e8-4710-b707-7c3531d4ef3c","ba640c14-69c5-453e-80b2-29051492c0e0","{""num_scrambled_semantic"":""8"",""num_scrambled_causal"":""4"",""num_scrambled_schematic"":""4"",""participantId"":""5E2B0A5B51304D2E8D269FF2C271BE76"",""assignmentId"":""26dff941-b4e8-4710-b707-7c3531d4ef3c"",""projectId"":""ba640c14-69c5-453e-80b2-29051492c0e0""}","https://test12345.live/?num_scrambled_semantic=8&num_scrambled_causal=4&num_scrambled_schematic=4&participantId=5E2B0A5B51304D2E8D269FF2C271BE76&assignmentId=26dff941-b4e8-4710-b707-7c3531d4ef3c&projectId=ba640c14-69c5-453e-80b2-29051492c0e0","5E2B0A5B51304D2E8D269FF2C271BE76-2025-05-14-21-04-33","","null","","[]","null","",""
"","","","","","image-button-response","66","1057719","0.0-12.0-1.0-0.3","5E2B0A5B51304D2E8D269FF2C271BE76","5E2B0A5B51304D2E8D269FF2C271BE76","26dff941-b4e8-4710-b707-7c3531d4ef3c","ba640c14-69c5-453e-80b2-29051492c0e0","{""num_scrambled_semantic"":""8"",""num_scrambled_causal"":""4"",""num_scrambled_schematic"":""4"",""participantId"":""5E2B0A5B51304D2E8D269FF2C271BE76"",""assignmentId"":""26dff941-b4e8-4710-b707-7c3531d4ef3c"",""projectId"":""ba640c14-69c5-453e-80b2-29051492c0e0""}","https://test12345.live/?num_scrambled_semantic=8&num_scrambled_causal=4&num_scrambled_schematic=4&participantId=5E2B0A5B51304D2E8D269FF2C271BE76&assignmentId=26dff941-b4e8-4710-b707-7c3531d4ef3c&projectId=ba640c14-69c5-453e-80b2-29051492c0e0","5E2B0A5B51304D2E8D269FF2C271BE76-2025-05-14-21-04-33","","null","","images/causal_sequence/package_causal/package_causal_4.png","null","",""
"","","","","","image-button-response","67","1059076","0.0-12.0-1.0-1.3","5E2B0A5B51304D2E8D269FF2C271BE76","5E2B0A5B51304D2E8D269FF2C271BE76","26dff941-b4e8-4710-b707-7c3531d4ef3c","ba640c14-69c5-453e-80b2-29051492c0e0","{""num_scrambled_semantic"":""8"",""num_scrambled_causal"":""4"",""num_scrambled_schematic"":""4"",""participantId"":""5E2B0A5B51304D2E8D269FF2C271BE76"",""assignmentId"":""26dff941-b4e8-4710-b707-7c3531d4ef3c"",""projectId"":""ba640c14-69c5-453e-80b2-29051492c0e0""}","https://test12345.live/?num_scrambled_semantic=8&num_scrambled_causal=4&num_scrambled_schematic=4&participantId=5E2B0A5B51304D2E8D269FF2C271BE76&assignmentId=26dff941-b4e8-4710-b707-7c3531d4ef3c&projectId=ba640c14-69c5-453e-80b2-29051492c0e0","5E2B0A5B51304D2E8D269FF2C271BE76-2025-05-14-21-04-33","","1356","","images/causal_sequence/package_causal/package_causal_4.png","1","",""
"","","","","","image-button-response","68","1060879","0.0-12.0-1.0-2.3","5E2B0A5B51304D2E8D269FF2C271BE76","5E2B0A5B51304D2E8D269FF2C271BE76","26dff941-b4e8-4710-b707-7c3531d4ef3c","ba640c14-69c5-453e-80b2-29051492c0e0","{""num_scrambled_semantic"":""8"",""num_scrambled_causal"":""4"",""num_scrambled_schematic"":""4"",""participantId"":""5E2B0A5B51304D2E8D269FF2C271BE76"",""assignmentId"":""26dff941-b4e8-4710-b707-7c3531d4ef3c"",""projectId"":""ba640c14-69c5-453e-80b2-29051492c0e0""}","https://test12345.live/?num_scrambled_semantic=8&num_scrambled_causal=4&num_scrambled_schematic=4&participantId=5E2B0A5B51304D2E8D269FF2C271BE76&assignmentId=26dff941-b4e8-4710-b707-7c3531d4ef3c&projectId=ba640c14-69c5-453e-80b2-29051492c0e0","5E2B0A5B51304D2E8D269FF2C271BE76-2025-05-14-21-04-33","","null","","[]","null","",""
"","","","","","image-button-response","69","1065381","0.0-12.0-1.0-0.4","5E2B0A5B51304D2E8D269FF2C271BE76","5E2B0A5B51304D2E8D269FF2C271BE76","26dff941-b4e8-4710-b707-7c3531d4ef3c","ba640c14-69c5-453e-80b2-29051492c0e0","{""num_scrambled_semantic"":""8"",""num_scrambled_causal"":""4"",""num_scrambled_schematic"":""4"",""participantId"":""5E2B0A5B51304D2E8D269FF2C271BE76"",""assignmentId"":""26dff941-b4e8-4710-b707-7c3531d4ef3c"",""projectId"":""ba640c14-69c5-453e-80b2-29051492c0e0""}","https://test12345.live/?num_scrambled_semantic=8&num_scrambled_causal=4&num_scrambled_schematic=4&participantId=5E2B0A5B51304D2E8D269FF2C271BE76&assignmentId=26dff941-b4e8-4710-b707-7c3531d4ef3c&projectId=ba640c14-69c5-453e-80b2-29051492c0e0","5E2B0A5B51304D2E8D269FF2C271BE76-2025-05-14-21-04-33","","null","","images/causal_sequence/package_causal/package_causal_5.png","null","",""
"","","","","","image-button-response","70","1066185","0.0-12.0-1.0-1.4","5E2B0A5B51304D2E8D269FF2C271BE76","5E2B0A5B51304D2E8D269FF2C271BE76","26dff941-b4e8-4710-b707-7c3531d4ef3c","ba640c14-69c5-453e-80b2-29051492c0e0","{""num_scrambled_semantic"":""8"",""num_scrambled_causal"":""4"",""num_scrambled_schematic"":""4"",""participantId"":""5E2B0A5B51304D2E8D269FF2C271BE76"",""assignmentId"":""26dff941-b4e8-4710-b707-7c3531d4ef3c"",""projectId"":""ba640c14-69c5-453e-80b2-29051492c0e0""}","https://test12345.live/?num_scrambled_semantic=8&num_scrambled_causal=4&num_scrambled_schematic=4&participantId=5E2B0A5B51304D2E8D269FF2C271BE76&assignmentId=26dff941-b4e8-4710-b707-7c3531d4ef3c&projectId=ba640c14-69c5-453e-80b2-29051492c0e0","5E2B0A5B51304D2E8D269FF2C271BE76-2025-05-14-21-04-33","","803","","images/causal_sequence/package_causal/package_causal_5.png","0","",""
"","","","","","image-button-response","71","1067991","0.0-12.0-1.0-2.4","5E2B0A5B51304D2E8D269FF2C271BE76","5E2B0A5B51304D2E8D269FF2C271BE76","26dff941-b4e8-4710-b707-7c3531d4ef3c","ba640c14-69c5-453e-80b2-29051492c0e0","{""num_scrambled_semantic"":""8"",""num_scrambled_causal"":""4"",""num_scrambled_schematic"":""4"",""participantId"":""5E2B0A5B51304D2E8D269FF2C271BE76"",""assignmentId"":""26dff941-b4e8-4710-b707-7c3531d4ef3c"",""projectId"":""ba640c14-69c5-453e-80b2-29051492c0e0""}","https://test12345.live/?num_scrambled_semantic=8&num_scrambled_causal=4&num_scrambled_schematic=4&participantId=5E2B0A5B51304D2E8D269FF2C271BE76&assignmentId=26dff941-b4e8-4710-b707-7c3531d4ef3c&projectId=ba640c14-69c5-453e-80b2-29051492c0e0","5E2B0A5B51304D2E8D269FF2C271BE76-2025-05-14-21-04-33","","null","","[]","null","",""
"","","","","","image-button-response","72","1072495","0.0-12.0-1.0-0.5","5E2B0A5B51304D2E8D269FF2C271BE76","5E2B0A5B51304D2E8D269FF2C271BE76","26dff941-b4e8-4710-b707-7c3531d4ef3c","ba640c14-69c5-453e-80b2-29051492c0e0","{""num_scrambled_semantic"":""8"",""num_scrambled_causal"":""4"",""num_scrambled_schematic"":""4"",""participantId"":""5E2B0A5B51304D2E8D269FF2C271BE76"",""assignmentId"":""26dff941-b4e8-4710-b707-7c3531d4ef3c"",""projectId"":""ba640c14-69c5-453e-80b2-29051492c0e0""}","https://test12345.live/?num_scrambled_semantic=8&num_scrambled_causal=4&num_scrambled_schematic=4&participantId=5E2B0A5B51304D2E8D269FF2C271BE76&assignmentId=26dff941-b4e8-4710-b707-7c3531d4ef3c&projectId=ba640c14-69c5-453e-80b2-29051492c0e0","5E2B0A5B51304D2E8D269FF2C271BE76-2025-05-14-21-04-33","","null","","images/causal_sequence/package_causal/package_causal_6.png","null","",""
"","","","","","image-button-response","73","1073780","0.0-12.0-1.0-1.5","5E2B0A5B51304D2E8D269FF2C271BE76","5E2B0A5B51304D2E8D269FF2C271BE76","26dff941-b4e8-4710-b707-7c3531d4ef3c","ba640c14-69c5-453e-80b2-29051492c0e0","{""num_scrambled_semantic"":""8"",""num_scrambled_causal"":""4"",""num_scrambled_schematic"":""4"",""participantId"":""5E2B0A5B51304D2E8D269FF2C271BE76"",""assignmentId"":""26dff941-b4e8-4710-b707-7c3531d4ef3c"",""projectId"":""ba640c14-69c5-453e-80b2-29051492c0e0""}","https://test12345.live/?num_scrambled_semantic=8&num_scrambled_causal=4&num_scrambled_schematic=4&participantId=5E2B0A5B51304D2E8D269FF2C271BE76&assignmentId=26dff941-b4e8-4710-b707-7c3531d4ef3c&projectId=ba640c14-69c5-453e-80b2-29051492c0e0","5E2B0A5B51304D2E8D269FF2C271BE76-2025-05-14-21-04-33","","1287","","images/causal_sequence/package_causal/package_causal_6.png","0","",""
"","","","","","image-button-response","74","1075581","0.0-12.0-1.0-2.5","5E2B0A5B51304D2E8D269FF2C271BE76","5E2B0A5B51304D2E8D269FF2C271BE76","26dff941-b4e8-4710-b707-7c3531d4ef3c","ba640c14-69c5-453e-80b2-29051492c0e0","{""num_scrambled_semantic"":""8"",""num_scrambled_causal"":""4"",""num_scrambled_schematic"":""4"",""participantId"":""5E2B0A5B51304D2E8D269FF2C271BE76"",""assignmentId"":""26dff941-b4e8-4710-b707-7c3531d4ef3c"",""projectId"":""ba640c14-69c5-453e-80b2-29051492c0e0""}","https://test12345.live/?num_scrambled_semantic=8&num_scrambled_causal=4&num_scrambled_schematic=4&participantId=5E2B0A5B51304D2E8D269FF2C271BE76&assignmentId=26dff941-b4e8-4710-b707-7c3531d4ef3c&projectId=ba640c14-69c5-453e-80b2-29051492c0e0","5E2B0A5B51304D2E8D269FF2C271BE76-2025-05-14-21-04-33","","null","","[]","null","",""
"","","","","","image-button-response","75","1080081","0.0-12.0-1.0-0.6","5E2B0A5B51304D2E8D269FF2C271BE76","5E2B0A5B51304D2E8D269FF2C271BE76","26dff941-b4e8-4710-b707-7c3531d4ef3c","ba640c14-69c5-453e-80b2-29051492c0e0","{""num_scrambled_semantic"":""8"",""num_scrambled_causal"":""4"",""num_scrambled_schematic"":""4"",""participantId"":""5E2B0A5B51304D2E8D269FF2C271BE76"",""assignmentId"":""26dff941-b4e8-4710-b707-7c3531d4ef3c"",""projectId"":""ba640c14-69c5-453e-80b2-29051492c0e0""}","https://test12345.live/?num_scrambled_semantic=8&num_scrambled_causal=4&num_scrambled_schematic=4&participantId=5E2B0A5B51304D2E8D269FF2C271BE76&assignmentId=26dff941-b4e8-4710-b707-7c3531d4ef3c&projectId=ba640c14-69c5-453e-80b2-29051492c0e0","5E2B0A5B51304D2E8D269FF2C271BE76-2025-05-14-21-04-33","","null","","images/causal_sequence/package_causal/package_causal_7.png","null","",""
"","","","","","image-button-response","76","1081485","0.0-12.0-1.0-1.6","5E2B0A5B51304D2E8D269FF2C271BE76","5E2B0A5B51304D2E8D269FF2C271BE76","26dff941-b4e8-4710-b707-7c3531d4ef3c","ba640c14-69c5-453e-80b2-29051492c0e0","{""num_scrambled_semantic"":""8"",""num_scrambled_causal"":""4"",""num_scrambled_schematic"":""4"",""participantId"":""5E2B0A5B51304D2E8D269FF2C271BE76"",""assignmentId"":""26dff941-b4e8-4710-b707-7c3531d4ef3c"",""projectId"":""ba640c14-69c5-453e-80b2-29051492c0e0""}","https://test12345.live/?num_scrambled_semantic=8&num_scrambled_causal=4&num_scrambled_schematic=4&participantId=5E2B0A5B51304D2E8D269FF2C271BE76&assignmentId=26dff941-b4e8-4710-b707-7c3531d4ef3c&projectId=ba640c14-69c5-453e-80b2-29051492c0e0","5E2B0A5B51304D2E8D269FF2C271BE76-2025-05-14-21-04-33","","1404","","images/causal_sequence/package_causal/package_causal_7.png","0","",""
"","","","","","image-button-response","77","1083285","0.0-12.0-1.0-2.6","5E2B0A5B51304D2E8D269FF2C271BE76","5E2B0A5B51304D2E8D269FF2C271BE76","26dff941-b4e8-4710-b707-7c3531d4ef3c","ba640c14-69c5-453e-80b2-29051492c0e0","{""num_scrambled_semantic"":""8"",""num_scrambled_causal"":""4"",""num_scrambled_schematic"":""4"",""participantId"":""5E2B0A5B51304D2E8D269FF2C271BE76"",""assignmentId"":""26dff941-b4e8-4710-b707-7c3531d4ef3c"",""projectId"":""ba640c14-69c5-453e-80b2-29051492c0e0""}","https://test12345.live/?num_scrambled_semantic=8&num_scrambled_causal=4&num_scrambled_schematic=4&participantId=5E2B0A5B51304D2E8D269FF2C271BE76&assignmentId=26dff941-b4e8-4710-b707-7c3531d4ef3c&projectId=ba640c14-69c5-453e-80b2-29051492c0e0","5E2B0A5B51304D2E8D269FF2C271BE76-2025-05-14-21-04-33","","null","","[]","null","",""
"","","","","","image-button-response","78","1087790","0.0-12.0-1.0-0.7","5E2B0A5B51304D2E8D269FF2C271BE76","5E2B0A5B51304D2E8D269FF2C271BE76","26dff941-b4e8-4710-b707-7c3531d4ef3c","ba640c14-69c5-453e-80b2-29051492c0e0","{""num_scrambled_semantic"":""8"",""num_scrambled_causal"":""4"",""num_scrambled_schematic"":""4"",""participantId"":""5E2B0A5B51304D2E8D269FF2C271BE76"",""assignmentId"":""26dff941-b4e8-4710-b707-7c3531d4ef3c"",""projectId"":""ba640c14-69c5-453e-80b2-29051492c0e0""}","https://test12345.live/?num_scrambled_semantic=8&num_scrambled_causal=4&num_scrambled_schematic=4&participantId=5E2B0A5B51304D2E8D269FF2C271BE76&assignmentId=26dff941-b4e8-4710-b707-7c3531d4ef3c&projectId=ba640c14-69c5-453e-80b2-29051492c0e0","5E2B0A5B51304D2E8D269FF2C271BE76-2025-05-14-21-04-33","","null","","images/causal_sequence/package_causal/package_causal_8.png","null","",""
"","","","","","image-button-response","79","1089236","0.0-12.0-1.0-1.7","5E2B0A5B51304D2E8D269FF2C271BE76","5E2B0A5B51304D2E8D269FF2C271BE76","26dff941-b4e8-4710-b707-7c3531d4ef3c","ba640c14-69c5-453e-80b2-29051492c0e0","{""num_scrambled_semantic"":""8"",""num_scrambled_causal"":""4"",""num_scrambled_schematic"":""4"",""participantId"":""5E2B0A5B51304D2E8D269FF2C271BE76"",""assignmentId"":""26dff941-b4e8-4710-b707-7c3531d4ef3c"",""projectId"":""ba640c14-69c5-453e-80b2-29051492c0e0""}","https://test12345.live/?num_scrambled_semantic=8&num_scrambled_causal=4&num_scrambled_schematic=4&participantId=5E2B0A5B51304D2E8D269FF2C271BE76&assignmentId=26dff941-b4e8-4710-b707-7c3531d4ef3c&projectId=ba640c14-69c5-453e-80b2-29051492c0e0","5E2B0A5B51304D2E8D269FF2C271BE76-2025-05-14-21-04-33","","1445","","images/causal_sequence/package_causal/package_causal_8.png","0","",""
"","","","","","image-button-response","80","1091038","0.0-12.0-1.0-2.7","5E2B0A5B51304D2E8D269FF2C271BE76","5E2B0A5B51304D2E8D269FF2C271BE76","26dff941-b4e8-4710-b707-7c3531d4ef3c","ba640c14-69c5-453e-80b2-29051492c0e0","{""num_scrambled_semantic"":""8"",""num_scrambled_causal"":""4"",""num_scrambled_schematic"":""4"",""participantId"":""5E2B0A5B51304D2E8D269FF2C271BE76"",""assignmentId"":""26dff941-b4e8-4710-b707-7c3531d4ef3c"",""projectId"":""ba640c14-69c5-453e-80b2-29051492c0e0""}","https://test12345.live/?num_scrambled_semantic=8&num_scrambled_causal=4&num_scrambled_schematic=4&participantId=5E2B0A5B51304D2E8D269FF2C271BE76&assignmentId=26dff941-b4e8-4710-b707-7c3531d4ef3c&projectId=ba640c14-69c5-453e-80b2-29051492c0e0","5E2B0A5B51304D2E8D269FF2C271BE76-2025-05-14-21-04-33","","null","","[]","null","",""
"","","","","","image-button-response","81","1095539","0.0-12.0-1.0-0.8","5E2B0A5B51304D2E8D269FF2C271BE76","5E2B0A5B51304D2E8D269FF2C271BE76","26dff941-b4e8-4710-b707-7c3531d4ef3c","ba640c14-69c5-453e-80b2-29051492c0e0","{""num_scrambled_semantic"":""8"",""num_scrambled_causal"":""4"",""num_scrambled_schematic"":""4"",""participantId"":""5E2B0A5B51304D2E8D269FF2C271BE76"",""assignmentId"":""26dff941-b4e8-4710-b707-7c3531d4ef3c"",""projectId"":""ba640c14-69c5-453e-80b2-29051492c0e0""}","https://test12345.live/?num_scrambled_semantic=8&num_scrambled_causal=4&num_scrambled_schematic=4&participantId=5E2B0A5B51304D2E8D269FF2C271BE76&assignmentId=26dff941-b4e8-4710-b707-7c3531d4ef3c&projectId=ba640c14-69c5-453e-80b2-29051492c0e0","5E2B0A5B51304D2E8D269FF2C271BE76-2025-05-14-21-04-33","","null","","images/causal_sequence/package_causal/package_causal_9.png","null","",""
"","","","","","image-button-response","82","1096387","0.0-12.0-1.0-1.8","5E2B0A5B51304D2E8D269FF2C271BE76","5E2B0A5B51304D2E8D269FF2C271BE76","26dff941-b4e8-4710-b707-7c3531d4ef3c","ba640c14-69c5-453e-80b2-29051492c0e0","{""num_scrambled_semantic"":""8"",""num_scrambled_causal"":""4"",""num_scrambled_schematic"":""4"",""participantId"":""5E2B0A5B51304D2E8D269FF2C271BE76"",""assignmentId"":""26dff941-b4e8-4710-b707-7c3531d4ef3c"",""projectId"":""ba640c14-69c5-453e-80b2-29051492c0e0""}","https://test12345.live/?num_scrambled_semantic=8&num_scrambled_causal=4&num_scrambled_schematic=4&participantId=5E2B0A5B51304D2E8D269FF2C271BE76&assignmentId=26dff941-b4e8-4710-b707-7c3531d4ef3c&projectId=ba640c14-69c5-453e-80b2-29051492c0e0","5E2B0A5B51304D2E8D269FF2C271BE76-2025-05-14-21-04-33","","848","","images/causal_sequence/package_causal/package_causal_9.png","0","",""
"","","","","","image-button-response","83","1098193","0.0-12.0-1.0-2.8","5E2B0A5B51304D2E8D269FF2C271BE76","5E2B0A5B51304D2E8D269FF2C271BE76","26dff941-b4e8-4710-b707-7c3531d4ef3c","ba640c14-69c5-453e-80b2-29051492c0e0","{""num_scrambled_semantic"":""8"",""num_scrambled_causal"":""4"",""num_scrambled_schematic"":""4"",""participantId"":""5E2B0A5B51304D2E8D269FF2C271BE76"",""assignmentId"":""26dff941-b4e8-4710-b707-7c3531d4ef3c"",""projectId"":""ba640c14-69c5-453e-80b2-29051492c0e0""}","https://test12345.live/?num_scrambled_semantic=8&num_scrambled_causal=4&num_scrambled_schematic=4&participantId=5E2B0A5B51304D2E8D269FF2C271BE76&assignmentId=26dff941-b4e8-4710-b707-7c3531d4ef3c&projectId=ba640c14-69c5-453e-80b2-29051492c0e0","5E2B0A5B51304D2E8D269FF2C271BE76-2025-05-14-21-04-33","","null","","[]","null","",""
"","","","","","image-button-response","84","1102696","0.0-12.0-1.0-0.9","5E2B0A5B51304D2E8D269FF2C271BE76","5E2B0A5B51304D2E8D269FF2C271BE76","26dff941-b4e8-4710-b707-7c3531d4ef3c","ba640c14-69c5-453e-80b2-29051492c0e0","{""num_scrambled_semantic"":""8"",""num_scrambled_causal"":""4"",""num_scrambled_schematic"":""4"",""participantId"":""5E2B0A5B51304D2E8D269FF2C271BE76"",""assignmentId"":""26dff941-b4e8-4710-b707-7c3531d4ef3c"",""projectId"":""ba640c14-69c5-453e-80b2-29051492c0e0""}","https://test12345.live/?num_scrambled_semantic=8&num_scrambled_causal=4&num_scrambled_schematic=4&participantId=5E2B0A5B51304D2E8D269FF2C271BE76&assignmentId=26dff941-b4e8-4710-b707-7c3531d4ef3c&projectId=ba640c14-69c5-453e-80b2-29051492c0e0","5E2B0A5B51304D2E8D269FF2C271BE76-2025-05-14-21-04-33","","null","","images/causal_sequence/package_causal/package_causal_ten.png","null","",""
"","","","","","image-button-response","85","1103725","0.0-12.0-1.0-1.9","5E2B0A5B51304D2E8D269FF2C271BE76","5E2B0A5B51304D2E8D269FF2C271BE76","26dff941-b4e8-4710-b707-7c3531d4ef3c","ba640c14-69c5-453e-80b2-29051492c0e0","{""num_scrambled_semantic"":""8"",""num_scrambled_causal"":""4"",""num_scrambled_schematic"":""4"",""participantId"":""5E2B0A5B51304D2E8D269FF2C271BE76"",""assignmentId"":""26dff941-b4e8-4710-b707-7c3531d4ef3c"",""projectId"":""ba640c14-69c5-453e-80b2-29051492c0e0""}","https://test12345.live/?num_scrambled_semantic=8&num_scrambled_causal=4&num_scrambled_schematic=4&participantId=5E2B0A5B51304D2E8D269FF2C271BE76&assignmentId=26dff941-b4e8-4710-b707-7c3531d4ef3c&projectId=ba640c14-69c5-453e-80b2-29051492c0e0","5E2B0A5B51304D2E8D269FF2C271BE76-2025-05-14-21-04-33","","1029","","images/causal_sequence/package_causal/package_causal_ten.png","0","",""
"","","","","","image-button-response","86","1105531","0.0-12.0-1.0-2.9","5E2B0A5B51304D2E8D269FF2C271BE76","5E2B0A5B51304D2E8D269FF2C271BE76","26dff941-b4e8-4710-b707-7c3531d4ef3c","ba640c14-69c5-453e-80b2-29051492c0e0","{""num_scrambled_semantic"":""8"",""num_scrambled_causal"":""4"",""num_scrambled_schematic"":""4"",""participantId"":""5E2B0A5B51304D2E8D269FF2C271BE76"",""assignmentId"":""26dff941-b4e8-4710-b707-7c3531d4ef3c"",""projectId"":""ba640c14-69c5-453e-80b2-29051492c0e0""}","https://test12345.live/?num_scrambled_semantic=8&num_scrambled_causal=4&num_scrambled_schematic=4&participantId=5E2B0A5B51304D2E8D269FF2C271BE76&assignmentId=26dff941-b4e8-4710-b707-7c3531d4ef3c&projectId=ba640c14-69c5-453e-80b2-29051492c0e0","5E2B0A5B51304D2E8D269FF2C271BE76-2025-05-14-21-04-33","","null","","[]","null","",""
"","","","","","html-audio-response","87","1152203","0.0-13.0","5E2B0A5B51304D2E8D269FF2C271BE76","5E2B0A5B51304D2E8D269FF2C271BE76","26dff941-b4e8-4710-b707-7c3531d4ef3c","ba640c14-69c5-453e-80b2-29051492c0e0","{""num_scrambled_semantic"":""8"",""num_scrambled_causal"":""4"",""num_scrambled_schematic"":""4"",""participantId"":""5E2B0A5B51304D2E8D269FF2C271BE76"",""assignmentId"":""26dff941-b4e8-4710-b707-7c3531d4ef3c"",""projectId"":""ba640c14-69c5-453e-80b2-29051492c0e0""}","https://test12345.live/?num_scrambled_semantic=8&num_scrambled_causal=4&num_scrambled_schematic=4&participantId=5E2B0A5B51304D2E8D269FF2C271BE76&assignmentId=26dff941-b4e8-4710-b707-7c3531d4ef3c&projectId=ba640c14-69c5-453e-80b2-29051492c0e0","5E2B0A5B51304D2E8D269FF2C271BE76-2025-05-14-21-04-33","","31287","","[""<span style=\""color: red; font-size: 24px\""> NOW RECORDING</span><p>Please say out loud all the images you saw, as many as you can remember. The images can be said in any order.</p>""]","","14","package_causal"
"","","","","","image-button-response","88","1158210","0.0-14.0-0.0","5E2B0A5B51304D2E8D269FF2C271BE76","5E2B0A5B51304D2E8D269FF2C271BE76","26dff941-b4e8-4710-b707-7c3531d4ef3c","ba640c14-69c5-453e-80b2-29051492c0e0","{""num_scrambled_semantic"":""8"",""num_scrambled_causal"":""4"",""num_scrambled_schematic"":""4"",""participantId"":""5E2B0A5B51304D2E8D269FF2C271BE76"",""assignmentId"":""26dff941-b4e8-4710-b707-7c3531d4ef3c"",""projectId"":""ba640c14-69c5-453e-80b2-29051492c0e0""}","https://test12345.live/?num_scrambled_semantic=8&num_scrambled_causal=4&num_scrambled_schematic=4&participantId=5E2B0A5B51304D2E8D269FF2C271BE76&assignmentId=26dff941-b4e8-4710-b707-7c3531d4ef3c&projectId=ba640c14-69c5-453e-80b2-29051492c0e0","5E2B0A5B51304D2E8D269FF2C271BE76-2025-05-14-21-04-33","","null","","images/semantic_sequence/kitchen_operations_semantic/kitchen_operations_semantic_0.png","null","",""
"","","","","","image-button-response","89","1162716","0.0-14.0-1.0-0.0","5E2B0A5B51304D2E8D269FF2C271BE76","5E2B0A5B51304D2E8D269FF2C271BE76","26dff941-b4e8-4710-b707-7c3531d4ef3c","ba640c14-69c5-453e-80b2-29051492c0e0","{""num_scrambled_semantic"":""8"",""num_scrambled_causal"":""4"",""num_scrambled_schematic"":""4"",""participantId"":""5E2B0A5B51304D2E8D269FF2C271BE76"",""assignmentId"":""26dff941-b4e8-4710-b707-7c3531d4ef3c"",""projectId"":""ba640c14-69c5-453e-80b2-29051492c0e0""}","https://test12345.live/?num_scrambled_semantic=8&num_scrambled_causal=4&num_scrambled_schematic=4&participantId=5E2B0A5B51304D2E8D269FF2C271BE76&assignmentId=26dff941-b4e8-4710-b707-7c3531d4ef3c&projectId=ba640c14-69c5-453e-80b2-29051492c0e0","5E2B0A5B51304D2E8D269FF2C271BE76-2025-05-14-21-04-33","","null","","images/semantic_sequence/kitchen_operations_semantic/kitchen_operations_semantic_1.png","null","",""
"","","","","","image-button-response","90","1164425","0.0-14.0-1.0-1.0","5E2B0A5B51304D2E8D269FF2C271BE76","5E2B0A5B51304D2E8D269FF2C271BE76","26dff941-b4e8-4710-b707-7c3531d4ef3c","ba640c14-69c5-453e-80b2-29051492c0e0","{""num_scrambled_semantic"":""8"",""num_scrambled_causal"":""4"",""num_scrambled_schematic"":""4"",""participantId"":""5E2B0A5B51304D2E8D269FF2C271BE76"",""assignmentId"":""26dff941-b4e8-4710-b707-7c3531d4ef3c"",""projectId"":""ba640c14-69c5-453e-80b2-29051492c0e0""}","https://test12345.live/?num_scrambled_semantic=8&num_scrambled_causal=4&num_scrambled_schematic=4&participantId=5E2B0A5B51304D2E8D269FF2C271BE76&assignmentId=26dff941-b4e8-4710-b707-7c3531d4ef3c&projectId=ba640c14-69c5-453e-80b2-29051492c0e0","5E2B0A5B51304D2E8D269FF2C271BE76-2025-05-14-21-04-33","","1707","","images/semantic_sequence/kitchen_operations_semantic/kitchen_operations_semantic_1.png","0","",""
"","","","","","image-button-response","91","1166228","0.0-14.0-1.0-2.0","5E2B0A5B51304D2E8D269FF2C271BE76","5E2B0A5B51304D2E8D269FF2C271BE76","26dff941-b4e8-4710-b707-7c3531d4ef3c","ba640c14-69c5-453e-80b2-29051492c0e0","{""num_scrambled_semantic"":""8"",""num_scrambled_causal"":""4"",""num_scrambled_schematic"":""4"",""participantId"":""5E2B0A5B51304D2E8D269FF2C271BE76"",""assignmentId"":""26dff941-b4e8-4710-b707-7c3531d4ef3c"",""projectId"":""ba640c14-69c5-453e-80b2-29051492c0e0""}","https://test12345.live/?num_scrambled_semantic=8&num_scrambled_causal=4&num_scrambled_schematic=4&participantId=5E2B0A5B51304D2E8D269FF2C271BE76&assignmentId=26dff941-b4e8-4710-b707-7c3531d4ef3c&projectId=ba640c14-69c5-453e-80b2-29051492c0e0","5E2B0A5B51304D2E8D269FF2C271BE76-2025-05-14-21-04-33","","null","","[]","null","",""
"","","","","","image-button-response","92","1170734","0.0-14.0-1.0-0.1","5E2B0A5B51304D2E8D269FF2C271BE76","5E2B0A5B51304D2E8D269FF2C271BE76","26dff941-b4e8-4710-b707-7c3531d4ef3c","ba640c14-69c5-453e-80b2-29051492c0e0","{""num_scrambled_semantic"":""8"",""num_scrambled_causal"":""4"",""num_scrambled_schematic"":""4"",""participantId"":""5E2B0A5B51304D2E8D269FF2C271BE76"",""assignmentId"":""26dff941-b4e8-4710-b707-7c3531d4ef3c"",""projectId"":""ba640c14-69c5-453e-80b2-29051492c0e0""}","https://test12345.live/?num_scrambled_semantic=8&num_scrambled_causal=4&num_scrambled_schematic=4&participantId=5E2B0A5B51304D2E8D269FF2C271BE76&assignmentId=26dff941-b4e8-4710-b707-7c3531d4ef3c&projectId=ba640c14-69c5-453e-80b2-29051492c0e0","5E2B0A5B51304D2E8D269FF2C271BE76-2025-05-14-21-04-33","","null","","images/semantic_sequence/kitchen_operations_semantic/kitchen_operations_semantic_3.png","null","",""
"","","","","","image-button-response","93","1172319","0.0-14.0-1.0-1.1","5E2B0A5B51304D2E8D269FF2C271BE76","5E2B0A5B51304D2E8D269FF2C271BE76","26dff941-b4e8-4710-b707-7c3531d4ef3c","ba640c14-69c5-453e-80b2-29051492c0e0","{""num_scrambled_semantic"":""8"",""num_scrambled_causal"":""4"",""num_scrambled_schematic"":""4"",""participantId"":""5E2B0A5B51304D2E8D269FF2C271BE76"",""assignmentId"":""26dff941-b4e8-4710-b707-7c3531d4ef3c"",""projectId"":""ba640c14-69c5-453e-80b2-29051492c0e0""}","https://test12345.live/?num_scrambled_semantic=8&num_scrambled_causal=4&num_scrambled_schematic=4&participantId=5E2B0A5B51304D2E8D269FF2C271BE76&assignmentId=26dff941-b4e8-4710-b707-7c3531d4ef3c&projectId=ba640c14-69c5-453e-80b2-29051492c0e0","5E2B0A5B51304D2E8D269FF2C271BE76-2025-05-14-21-04-33","","1584","","images/semantic_sequence/kitchen_operations_semantic/kitchen_operations_semantic_3.png","0","",""
"","","","","","image-button-response","94","1174122","0.0-14.0-1.0-2.1","5E2B0A5B51304D2E8D269FF2C271BE76","5E2B0A5B51304D2E8D269FF2C271BE76","26dff941-b4e8-4710-b707-7c3531d4ef3c","ba640c14-69c5-453e-80b2-29051492c0e0","{""num_scrambled_semantic"":""8"",""num_scrambled_causal"":""4"",""num_scrambled_schematic"":""4"",""participantId"":""5E2B0A5B51304D2E8D269FF2C271BE76"",""assignmentId"":""26dff941-b4e8-4710-b707-7c3531d4ef3c"",""projectId"":""ba640c14-69c5-453e-80b2-29051492c0e0""}","https://test12345.live/?num_scrambled_semantic=8&num_scrambled_causal=4&num_scrambled_schematic=4&participantId=5E2B0A5B51304D2E8D269FF2C271BE76&assignmentId=26dff941-b4e8-4710-b707-7c3531d4ef3c&projectId=ba640c14-69c5-453e-80b2-29051492c0e0","5E2B0A5B51304D2E8D269FF2C271BE76-2025-05-14-21-04-33","","null","","[]","null","",""
"","","","","","image-button-response","95","1178626","0.0-14.0-1.0-0.2","5E2B0A5B51304D2E8D269FF2C271BE76","5E2B0A5B51304D2E8D269FF2C271BE76","26dff941-b4e8-4710-b707-7c3531d4ef3c","ba640c14-69c5-453e-80b2-29051492c0e0","{""num_scrambled_semantic"":""8"",""num_scrambled_causal"":""4"",""num_scrambled_schematic"":""4"",""participantId"":""5E2B0A5B51304D2E8D269FF2C271BE76"",""assignmentId"":""26dff941-b4e8-4710-b707-7c3531d4ef3c"",""projectId"":""ba640c14-69c5-453e-80b2-29051492c0e0""}","https://test12345.live/?num_scrambled_semantic=8&num_scrambled_causal=4&num_scrambled_schematic=4&participantId=5E2B0A5B51304D2E8D269FF2C271BE76&assignmentId=26dff941-b4e8-4710-b707-7c3531d4ef3c&projectId=ba640c14-69c5-453e-80b2-29051492c0e0","5E2B0A5B51304D2E8D269FF2C271BE76-2025-05-14-21-04-33","","null","","images/semantic_sequence/kitchen_operations_semantic/kitchen_operations_semantic_2.png","null","",""
"","","","","","image-button-response","96","1179225","0.0-14.0-1.0-1.2","5E2B0A5B51304D2E8D269FF2C271BE76","5E2B0A5B51304D2E8D269FF2C271BE76","26dff941-b4e8-4710-b707-7c3531d4ef3c","ba640c14-69c5-453e-80b2-29051492c0e0","{""num_scrambled_semantic"":""8"",""num_scrambled_causal"":""4"",""num_scrambled_schematic"":""4"",""participantId"":""5E2B0A5B51304D2E8D269FF2C271BE76"",""assignmentId"":""26dff941-b4e8-4710-b707-7c3531d4ef3c"",""projectId"":""ba640c14-69c5-453e-80b2-29051492c0e0""}","https://test12345.live/?num_scrambled_semantic=8&num_scrambled_causal=4&num_scrambled_schematic=4&participantId=5E2B0A5B51304D2E8D269FF2C271BE76&assignmentId=26dff941-b4e8-4710-b707-7c3531d4ef3c&projectId=ba640c14-69c5-453e-80b2-29051492c0e0","5E2B0A5B51304D2E8D269FF2C271BE76-2025-05-14-21-04-33","","598","","images/semantic_sequence/kitchen_operations_semantic/kitchen_operations_semantic_2.png","0","",""
"","","","","","image-button-response","97","1181026","0.0-14.0-1.0-2.2","5E2B0A5B51304D2E8D269FF2C271BE76","5E2B0A5B51304D2E8D269FF2C271BE76","26dff941-b4e8-4710-b707-7c3531d4ef3c","ba640c14-69c5-453e-80b2-29051492c0e0","{""num_scrambled_semantic"":""8"",""num_scrambled_causal"":""4"",""num_scrambled_schematic"":""4"",""participantId"":""5E2B0A5B51304D2E8D269FF2C271BE76"",""assignmentId"":""26dff941-b4e8-4710-b707-7c3531d4ef3c"",""projectId"":""ba640c14-69c5-453e-80b2-29051492c0e0""}","https://test12345.live/?num_scrambled_semantic=8&num_scrambled_causal=4&num_scrambled_schematic=4&participantId=5E2B0A5B51304D2E8D269FF2C271BE76&assignmentId=26dff941-b4e8-4710-b707-7c3531d4ef3c&projectId=ba640c14-69c5-453e-80b2-29051492c0e0","5E2B0A5B51304D2E8D269FF2C271BE76-2025-05-14-21-04-33","","null","","[]","null","",""
"","","","","","image-button-response","98","1185531","0.0-14.0-1.0-0.3","5E2B0A5B51304D2E8D269FF2C271BE76","5E2B0A5B51304D2E8D269FF2C271BE76","26dff941-b4e8-4710-b707-7c3531d4ef3c","ba640c14-69c5-453e-80b2-29051492c0e0","{""num_scrambled_semantic"":""8"",""num_scrambled_causal"":""4"",""num_scrambled_schematic"":""4"",""participantId"":""5E2B0A5B51304D2E8D269FF2C271BE76"",""assignmentId"":""26dff941-b4e8-4710-b707-7c3531d4ef3c"",""projectId"":""ba640c14-69c5-453e-80b2-29051492c0e0""}","https://test12345.live/?num_scrambled_semantic=8&num_scrambled_causal=4&num_scrambled_schematic=4&participantId=5E2B0A5B51304D2E8D269FF2C271BE76&assignmentId=26dff941-b4e8-4710-b707-7c3531d4ef3c&projectId=ba640c14-69c5-453e-80b2-29051492c0e0","5E2B0A5B51304D2E8D269FF2C271BE76-2025-05-14-21-04-33","","null","","images/semantic_sequence/kitchen_operations_semantic/kitchen_operations_semantic_7.png","null","",""
"","","","","","image-button-response","99","1186584","0.0-14.0-1.0-1.3","5E2B0A5B51304D2E8D269FF2C271BE76","5E2B0A5B51304D2E8D269FF2C271BE76","26dff941-b4e8-4710-b707-7c3531d4ef3c","ba640c14-69c5-453e-80b2-29051492c0e0","{""num_scrambled_semantic"":""8"",""num_scrambled_causal"":""4"",""num_scrambled_schematic"":""4"",""participantId"":""5E2B0A5B51304D2E8D269FF2C271BE76"",""assignmentId"":""26dff941-b4e8-4710-b707-7c3531d4ef3c"",""projectId"":""ba640c14-69c5-453e-80b2-29051492c0e0""}","https://test12345.live/?num_scrambled_semantic=8&num_scrambled_causal=4&num_scrambled_schematic=4&participantId=5E2B0A5B51304D2E8D269FF2C271BE76&assignmentId=26dff941-b4e8-4710-b707-7c3531d4ef3c&projectId=ba640c14-69c5-453e-80b2-29051492c0e0","5E2B0A5B51304D2E8D269FF2C271BE76-2025-05-14-21-04-33","","1052","","images/semantic_sequence/kitchen_operations_semantic/kitchen_operations_semantic_7.png","0","",""
"","","","","","image-button-response","100","1188385","0.0-14.0-1.0-2.3","5E2B0A5B51304D2E8D269FF2C271BE76","5E2B0A5B51304D2E8D269FF2C271BE76","26dff941-b4e8-4710-b707-7c3531d4ef3c","ba640c14-69c5-453e-80b2-29051492c0e0","{""num_scrambled_semantic"":""8"",""num_scrambled_causal"":""4"",""num_scrambled_schematic"":""4"",""participantId"":""5E2B0A5B51304D2E8D269FF2C271BE76"",""assignmentId"":""26dff941-b4e8-4710-b707-7c3531d4ef3c"",""projectId"":""ba640c14-69c5-453e-80b2-29051492c0e0""}","https://test12345.live/?num_scrambled_semantic=8&num_scrambled_causal=4&num_scrambled_schematic=4&participantId=5E2B0A5B51304D2E8D269FF2C271BE76&assignmentId=26dff941-b4e8-4710-b707-7c3531d4ef3c&projectId=ba640c14-69c5-453e-80b2-29051492c0e0","5E2B0A5B51304D2E8D269FF2C271BE76-2025-05-14-21-04-33","","null","","[]","null","",""
"","","","","","image-button-response","101","1192892","0.0-14.0-1.0-0.4","5E2B0A5B51304D2E8D269FF2C271BE76","5E2B0A5B51304D2E8D269FF2C271BE76","26dff941-b4e8-4710-b707-7c3531d4ef3c","ba640c14-69c5-453e-80b2-29051492c0e0","{""num_scrambled_semantic"":""8"",""num_scrambled_causal"":""4"",""num_scrambled_schematic"":""4"",""participantId"":""5E2B0A5B51304D2E8D269FF2C271BE76"",""assignmentId"":""26dff941-b4e8-4710-b707-7c3531d4ef3c"",""projectId"":""ba640c14-69c5-453e-80b2-29051492c0e0""}","https://test12345.live/?num_scrambled_semantic=8&num_scrambled_causal=4&num_scrambled_schematic=4&participantId=5E2B0A5B51304D2E8D269FF2C271BE76&assignmentId=26dff941-b4e8-4710-b707-7c3531d4ef3c&projectId=ba640c14-69c5-453e-80b2-29051492c0e0","5E2B0A5B51304D2E8D269FF2C271BE76-2025-05-14-21-04-33","","null","","images/semantic_sequence/kitchen_operations_semantic/kitchen_operations_semantic_9.png","null","",""
"","","","","","image-button-response","102","1194456","0.0-14.0-1.0-1.4","5E2B0A5B51304D2E8D269FF2C271BE76","5E2B0A5B51304D2E8D269FF2C271BE76","26dff941-b4e8-4710-b707-7c3531d4ef3c","ba640c14-69c5-453e-80b2-29051492c0e0","{""num_scrambled_semantic"":""8"",""num_scrambled_causal"":""4"",""num_scrambled_schematic"":""4"",""participantId"":""5E2B0A5B51304D2E8D269FF2C271BE76"",""assignmentId"":""26dff941-b4e8-4710-b707-7c3531d4ef3c"",""projectId"":""ba640c14-69c5-453e-80b2-29051492c0e0""}","https://test12345.live/?num_scrambled_semantic=8&num_scrambled_causal=4&num_scrambled_schematic=4&participantId=5E2B0A5B51304D2E8D269FF2C271BE76&assignmentId=26dff941-b4e8-4710-b707-7c3531d4ef3c&projectId=ba640c14-69c5-453e-80b2-29051492c0e0","5E2B0A5B51304D2E8D269FF2C271BE76-2025-05-14-21-04-33","","1564","","images/semantic_sequence/kitchen_operations_semantic/kitchen_operations_semantic_9.png","0","",""
"","","","","","image-button-response","103","1196262","0.0-14.0-1.0-2.4","5E2B0A5B51304D2E8D269FF2C271BE76","5E2B0A5B51304D2E8D269FF2C271BE76","26dff941-b4e8-4710-b707-7c3531d4ef3c","ba640c14-69c5-453e-80b2-29051492c0e0","{""num_scrambled_semantic"":""8"",""num_scrambled_causal"":""4"",""num_scrambled_schematic"":""4"",""participantId"":""5E2B0A5B51304D2E8D269FF2C271BE76"",""assignmentId"":""26dff941-b4e8-4710-b707-7c3531d4ef3c"",""projectId"":""ba640c14-69c5-453e-80b2-29051492c0e0""}","https://test12345.live/?num_scrambled_semantic=8&num_scrambled_causal=4&num_scrambled_schematic=4&participantId=5E2B0A5B51304D2E8D269FF2C271BE76&assignmentId=26dff941-b4e8-4710-b707-7c3531d4ef3c&projectId=ba640c14-69c5-453e-80b2-29051492c0e0","5E2B0A5B51304D2E8D269FF2C271BE76-2025-05-14-21-04-33","","null","","[]","null","",""
"","","","","","image-button-response","104","1200767","0.0-14.0-1.0-0.5","5E2B0A5B51304D2E8D269FF2C271BE76","5E2B0A5B51304D2E8D269FF2C271BE76","26dff941-b4e8-4710-b707-7c3531d4ef3c","ba640c14-69c5-453e-80b2-29051492c0e0","{""num_scrambled_semantic"":""8"",""num_scrambled_causal"":""4"",""num_scrambled_schematic"":""4"",""participantId"":""5E2B0A5B51304D2E8D269FF2C271BE76"",""assignmentId"":""26dff941-b4e8-4710-b707-7c3531d4ef3c"",""projectId"":""ba640c14-69c5-453e-80b2-29051492c0e0""}","https://test12345.live/?num_scrambled_semantic=8&num_scrambled_causal=4&num_scrambled_schematic=4&participantId=5E2B0A5B51304D2E8D269FF2C271BE76&assignmentId=26dff941-b4e8-4710-b707-7c3531d4ef3c&projectId=ba640c14-69c5-453e-80b2-29051492c0e0","5E2B0A5B51304D2E8D269FF2C271BE76-2025-05-14-21-04-33","","null","","images/semantic_sequence/kitchen_operations_semantic/kitchen_operations_semantic_6.png","null","",""
"","","","","","image-button-response","105","1202867","0.0-14.0-1.0-1.5","5E2B0A5B51304D2E8D269FF2C271BE76","5E2B0A5B51304D2E8D269FF2C271BE76","26dff941-b4e8-4710-b707-7c3531d4ef3c","ba640c14-69c5-453e-80b2-29051492c0e0","{""num_scrambled_semantic"":""8"",""num_scrambled_causal"":""4"",""num_scrambled_schematic"":""4"",""participantId"":""5E2B0A5B51304D2E8D269FF2C271BE76"",""assignmentId"":""26dff941-b4e8-4710-b707-7c3531d4ef3c"",""projectId"":""ba640c14-69c5-453e-80b2-29051492c0e0""}","https://test12345.live/?num_scrambled_semantic=8&num_scrambled_causal=4&num_scrambled_schematic=4&participantId=5E2B0A5B51304D2E8D269FF2C271BE76&assignmentId=26dff941-b4e8-4710-b707-7c3531d4ef3c&projectId=ba640c14-69c5-453e-80b2-29051492c0e0","5E2B0A5B51304D2E8D269FF2C271BE76-2025-05-14-21-04-33","","2098","","images/semantic_sequence/kitchen_operations_semantic/kitchen_operations_semantic_6.png","0","",""
"","","","","","image-button-response","106","1204673","0.0-14.0-1.0-2.5","5E2B0A5B51304D2E8D269FF2C271BE76","5E2B0A5B51304D2E8D269FF2C271BE76","26dff941-b4e8-4710-b707-7c3531d4ef3c","ba640c14-69c5-453e-80b2-29051492c0e0","{""num_scrambled_semantic"":""8"",""num_scrambled_causal"":""4"",""num_scrambled_schematic"":""4"",""participantId"":""5E2B0A5B51304D2E8D269FF2C271BE76"",""assignmentId"":""26dff941-b4e8-4710-b707-7c3531d4ef3c"",""projectId"":""ba640c14-69c5-453e-80b2-29051492c0e0""}","https://test12345.live/?num_scrambled_semantic=8&num_scrambled_causal=4&num_scrambled_schematic=4&participantId=5E2B0A5B51304D2E8D269FF2C271BE76&assignmentId=26dff941-b4e8-4710-b707-7c3531d4ef3c&projectId=ba640c14-69c5-453e-80b2-29051492c0e0","5E2B0A5B51304D2E8D269FF2C271BE76-2025-05-14-21-04-33","","null","","[]","null","",""
"","","","","","image-button-response","107","1209181","0.0-14.0-1.0-0.6","5E2B0A5B51304D2E8D269FF2C271BE76","5E2B0A5B51304D2E8D269FF2C271BE76","26dff941-b4e8-4710-b707-7c3531d4ef3c","ba640c14-69c5-453e-80b2-29051492c0e0","{""num_scrambled_semantic"":""8"",""num_scrambled_causal"":""4"",""num_scrambled_schematic"":""4"",""participantId"":""5E2B0A5B51304D2E8D269FF2C271BE76"",""assignmentId"":""26dff941-b4e8-4710-b707-7c3531d4ef3c"",""projectId"":""ba640c14-69c5-453e-80b2-29051492c0e0""}","https://test12345.live/?num_scrambled_semantic=8&num_scrambled_causal=4&num_scrambled_schematic=4&participantId=5E2B0A5B51304D2E8D269FF2C271BE76&assignmentId=26dff941-b4e8-4710-b707-7c3531d4ef3c&projectId=ba640c14-69c5-453e-80b2-29051492c0e0","5E2B0A5B51304D2E8D269FF2C271BE76-2025-05-14-21-04-33","","null","","images/semantic_sequence/kitchen_operations_semantic/kitchen_operations_semantic_5.png","null","",""
"","","","","","image-button-response","108","1211036","0.0-14.0-1.0-1.6","5E2B0A5B51304D2E8D269FF2C271BE76","5E2B0A5B51304D2E8D269FF2C271BE76","26dff941-b4e8-4710-b707-7c3531d4ef3c","ba640c14-69c5-453e-80b2-29051492c0e0","{""num_scrambled_semantic"":""8"",""num_scrambled_causal"":""4"",""num_scrambled_schematic"":""4"",""participantId"":""5E2B0A5B51304D2E8D269FF2C271BE76"",""assignmentId"":""26dff941-b4e8-4710-b707-7c3531d4ef3c"",""projectId"":""ba640c14-69c5-453e-80b2-29051492c0e0""}","https://test12345.live/?num_scrambled_semantic=8&num_scrambled_causal=4&num_scrambled_schematic=4&participantId=5E2B0A5B51304D2E8D269FF2C271BE76&assignmentId=26dff941-b4e8-4710-b707-7c3531d4ef3c&projectId=ba640c14-69c5-453e-80b2-29051492c0e0","5E2B0A5B51304D2E8D269FF2C271BE76-2025-05-14-21-04-33","","1853","","images/semantic_sequence/kitchen_operations_semantic/kitchen_operations_semantic_5.png","0","",""
"","","","","","image-button-response","109","1212841","0.0-14.0-1.0-2.6","5E2B0A5B51304D2E8D269FF2C271BE76","5E2B0A5B51304D2E8D269FF2C271BE76","26dff941-b4e8-4710-b707-7c3531d4ef3c","ba640c14-69c5-453e-80b2-29051492c0e0","{""num_scrambled_semantic"":""8"",""num_scrambled_causal"":""4"",""num_scrambled_schematic"":""4"",""participantId"":""5E2B0A5B51304D2E8D269FF2C271BE76"",""assignmentId"":""26dff941-b4e8-4710-b707-7c3531d4ef3c"",""projectId"":""ba640c14-69c5-453e-80b2-29051492c0e0""}","https://test12345.live/?num_scrambled_semantic=8&num_scrambled_causal=4&num_scrambled_schematic=4&participantId=5E2B0A5B51304D2E8D269FF2C271BE76&assignmentId=26dff941-b4e8-4710-b707-7c3531d4ef3c&projectId=ba640c14-69c5-453e-80b2-29051492c0e0","5E2B0A5B51304D2E8D269FF2C271BE76-2025-05-14-21-04-33","","null","","[]","null","",""
"","","","","","image-button-response","110","1217345","0.0-14.0-1.0-0.7","5E2B0A5B51304D2E8D269FF2C271BE76","5E2B0A5B51304D2E8D269FF2C271BE76","26dff941-b4e8-4710-b707-7c3531d4ef3c","ba640c14-69c5-453e-80b2-29051492c0e0","{""num_scrambled_semantic"":""8"",""num_scrambled_causal"":""4"",""num_scrambled_schematic"":""4"",""participantId"":""5E2B0A5B51304D2E8D269FF2C271BE76"",""assignmentId"":""26dff941-b4e8-4710-b707-7c3531d4ef3c"",""projectId"":""ba640c14-69c5-453e-80b2-29051492c0e0""}","https://test12345.live/?num_scrambled_semantic=8&num_scrambled_causal=4&num_scrambled_schematic=4&participantId=5E2B0A5B51304D2E8D269FF2C271BE76&assignmentId=26dff941-b4e8-4710-b707-7c3531d4ef3c&projectId=ba640c14-69c5-453e-80b2-29051492c0e0","5E2B0A5B51304D2E8D269FF2C271BE76-2025-05-14-21-04-33","","null","","images/semantic_sequence/kitchen_operations_semantic/kitchen_operations_semantic_8.png","null","",""
"","","","","","image-button-response","111","1218334","0.0-14.0-1.0-1.7","5E2B0A5B51304D2E8D269FF2C271BE76","5E2B0A5B51304D2E8D269FF2C271BE76","26dff941-b4e8-4710-b707-7c3531d4ef3c","ba640c14-69c5-453e-80b2-29051492c0e0","{""num_scrambled_semantic"":""8"",""num_scrambled_causal"":""4"",""num_scrambled_schematic"":""4"",""participantId"":""5E2B0A5B51304D2E8D269FF2C271BE76"",""assignmentId"":""26dff941-b4e8-4710-b707-7c3531d4ef3c"",""projectId"":""ba640c14-69c5-453e-80b2-29051492c0e0""}","https://test12345.live/?num_scrambled_semantic=8&num_scrambled_causal=4&num_scrambled_schematic=4&participantId=5E2B0A5B51304D2E8D269FF2C271BE76&assignmentId=26dff941-b4e8-4710-b707-7c3531d4ef3c&projectId=ba640c14-69c5-453e-80b2-29051492c0e0","5E2B0A5B51304D2E8D269FF2C271BE76-2025-05-14-21-04-33","","989","","images/semantic_sequence/kitchen_operations_semantic/kitchen_operations_semantic_8.png","0","",""
"","","","","","image-button-response","112","1220140","0.0-14.0-1.0-2.7","5E2B0A5B51304D2E8D269FF2C271BE76","5E2B0A5B51304D2E8D269FF2C271BE76","26dff941-b4e8-4710-b707-7c3531d4ef3c","ba640c14-69c5-453e-80b2-29051492c0e0","{""num_scrambled_semantic"":""8"",""num_scrambled_causal"":""4"",""num_scrambled_schematic"":""4"",""participantId"":""5E2B0A5B51304D2E8D269FF2C271BE76"",""assignmentId"":""26dff941-b4e8-4710-b707-7c3531d4ef3c"",""projectId"":""ba640c14-69c5-453e-80b2-29051492c0e0""}","https://test12345.live/?num_scrambled_semantic=8&num_scrambled_causal=4&num_scrambled_schematic=4&participantId=5E2B0A5B51304D2E8D269FF2C271BE76&assignmentId=26dff941-b4e8-4710-b707-7c3531d4ef3c&projectId=ba640c14-69c5-453e-80b2-29051492c0e0","5E2B0A5B51304D2E8D269FF2C271BE76-2025-05-14-21-04-33","","null","","[]","null","",""
"","","","","","image-button-response","113","1224647","0.0-14.0-1.0-0.8","5E2B0A5B51304D2E8D269FF2C271BE76","5E2B0A5B51304D2E8D269FF2C271BE76","26dff941-b4e8-4710-b707-7c3531d4ef3c","ba640c14-69c5-453e-80b2-29051492c0e0","{""num_scrambled_semantic"":""8"",""num_scrambled_causal"":""4"",""num_scrambled_schematic"":""4"",""participantId"":""5E2B0A5B51304D2E8D269FF2C271BE76"",""assignmentId"":""26dff941-b4e8-4710-b707-7c3531d4ef3c"",""projectId"":""ba640c14-69c5-453e-80b2-29051492c0e0""}","https://test12345.live/?num_scrambled_semantic=8&num_scrambled_causal=4&num_scrambled_schematic=4&participantId=5E2B0A5B51304D2E8D269FF2C271BE76&assignmentId=26dff941-b4e8-4710-b707-7c3531d4ef3c&projectId=ba640c14-69c5-453e-80b2-29051492c0e0","5E2B0A5B51304D2E8D269FF2C271BE76-2025-05-14-21-04-33","","null","","images/semantic_sequence/kitchen_operations_semantic/kitchen_operations_semantic_ten.png","null","",""
"","","","","","image-button-response","114","1225484","0.0-14.0-1.0-1.8","5E2B0A5B51304D2E8D269FF2C271BE76","5E2B0A5B51304D2E8D269FF2C271BE76","26dff941-b4e8-4710-b707-7c3531d4ef3c","ba640c14-69c5-453e-80b2-29051492c0e0","{""num_scrambled_semantic"":""8"",""num_scrambled_causal"":""4"",""num_scrambled_schematic"":""4"",""participantId"":""5E2B0A5B51304D2E8D269FF2C271BE76"",""assignmentId"":""26dff941-b4e8-4710-b707-7c3531d4ef3c"",""projectId"":""ba640c14-69c5-453e-80b2-29051492c0e0""}","https://test12345.live/?num_scrambled_semantic=8&num_scrambled_causal=4&num_scrambled_schematic=4&participantId=5E2B0A5B51304D2E8D269FF2C271BE76&assignmentId=26dff941-b4e8-4710-b707-7c3531d4ef3c&projectId=ba640c14-69c5-453e-80b2-29051492c0e0","5E2B0A5B51304D2E8D269FF2C271BE76-2025-05-14-21-04-33","","837","","images/semantic_sequence/kitchen_operations_semantic/kitchen_operations_semantic_ten.png","0","",""
