"success","timeout","failed_images","failed_audio","failed_video","trial_type","trial_index","time_elapsed","internal_node_id","subject","subject_id","study_id","session_id","urlvar","current_url","audio_id","view_history","rt","device_id","stimulus","response","estimated_stimulus_onset","seq_name"
"true","false","[]","[]","[]","preload","0","2860","0.0-0.0","5EF44FDA4E464CDEA4370DB69E23EBC7","5EF44FDA4E464CDEA4370DB69E23EBC7","219ad81b-dd4d-493b-a2d3-09e52d351185","9076ac92-be42-43a2-9634-8b67c7fe93a7","{""num_scrambled_semantic"":""8"",""num_scrambled_causal"":""4"",""num_scrambled_schematic"":""4"",""participantId"":""5EF44FDA4E464CDEA4370DB69E23EBC7"",""assignmentId"":""219ad81b-dd4d-493b-a2d3-09e52d351185"",""projectId"":""9076ac92-be42-43a2-9634-8b67c7fe93a7""}","https://test12345.live/?num_scrambled_semantic=8&num_scrambled_causal=4&num_scrambled_schematic=4&participantId=5EF44FDA4E464CDEA4370DB69E23EBC7&assignmentId=219ad81b-dd4d-493b-a2d3-09e52d351185&projectId=9076ac92-be42-43a2-9634-8b67c7fe93a7","5EF44FDA4E464CDEA4370DB69E23EBC7-2025-05-22-20-15-28","","","","","","",""
"","","","","","instructions","1","43437","0.0-1.0","5EF44FDA4E464CDEA4370DB69E23EBC7","5EF44FDA4E464CDEA4370DB69E23EBC7","219ad81b-dd4d-493b-a2d3-09e52d351185","9076ac92-be42-43a2-9634-8b67c7fe93a7","{""num_scrambled_semantic"":""8"",""num_scrambled_causal"":""4"",""num_scrambled_schematic"":""4"",""participantId"":""5EF44FDA4E464CDEA4370DB69E23EBC7"",""assignmentId"":""219ad81b-dd4d-493b-a2d3-09e52d351185"",""projectId"":""9076ac92-be42-43a2-9634-8b67c7fe93a7""}","https://test12345.live/?num_scrambled_semantic=8&num_scrambled_causal=4&num_scrambled_schematic=4&participantId=5EF44FDA4E464CDEA4370DB69E23EBC7&assignmentId=219ad81b-dd4d-493b-a2d3-09e52d351185&projectId=9076ac92-be42-43a2-9634-8b67c7fe93a7","5EF44FDA4E464CDEA4370DB69E23EBC7-2025-05-22-20-15-28","[{""page_index"":0,""viewing_time"":40576}]","40577","","","","",""
"","","","","","instructions","2","52136","0.0-2.0","5EF44FDA4E464CDEA4370DB69E23EBC7","5EF44FDA4E464CDEA4370DB69E23EBC7","219ad81b-dd4d-493b-a2d3-09e52d351185","9076ac92-be42-43a2-9634-8b67c7fe93a7","{""num_scrambled_semantic"":""8"",""num_scrambled_causal"":""4"",""num_scrambled_schematic"":""4"",""participantId"":""5EF44FDA4E464CDEA4370DB69E23EBC7"",""assignmentId"":""219ad81b-dd4d-493b-a2d3-09e52d351185"",""projectId"":""9076ac92-be42-43a2-9634-8b67c7fe93a7""}","https://test12345.live/?num_scrambled_semantic=8&num_scrambled_causal=4&num_scrambled_schematic=4&participantId=5EF44FDA4E464CDEA4370DB69E23EBC7&assignmentId=219ad81b-dd4d-493b-a2d3-09e52d351185&projectId=9076ac92-be42-43a2-9634-8b67c7fe93a7","5EF44FDA4E464CDEA4370DB69E23EBC7-2025-05-22-20-15-28","[{""page_index"":0,""viewing_time"":8699}]","8699","","","","",""
"true","","","","","fullscreen","3","54970","0.0-3.0","5EF44FDA4E464CDEA4370DB69E23EBC7","5EF44FDA4E464CDEA4370DB69E23EBC7","219ad81b-dd4d-493b-a2d3-09e52d351185","9076ac92-be42-43a2-9634-8b67c7fe93a7","{""num_scrambled_semantic"":""8"",""num_scrambled_causal"":""4"",""num_scrambled_schematic"":""4"",""participantId"":""5EF44FDA4E464CDEA4370DB69E23EBC7"",""assignmentId"":""219ad81b-dd4d-493b-a2d3-09e52d351185"",""projectId"":""9076ac92-be42-43a2-9634-8b67c7fe93a7""}","https://test12345.live/?num_scrambled_semantic=8&num_scrambled_causal=4&num_scrambled_schematic=4&participantId=5EF44FDA4E464CDEA4370DB69E23EBC7&assignmentId=219ad81b-dd4d-493b-a2d3-09e52d351185&projectId=9076ac92-be42-43a2-9634-8b67c7fe93a7","5EF44FDA4E464CDEA4370DB69E23EBC7-2025-05-22-20-15-28","","1817","","","","",""
"","","","","","initialize-microphone","4","61619","0.0-4.0-0.0","5EF44FDA4E464CDEA4370DB69E23EBC7","5EF44FDA4E464CDEA4370DB69E23EBC7","219ad81b-dd4d-493b-a2d3-09e52d351185","9076ac92-be42-43a2-9634-8b67c7fe93a7","{""num_scrambled_semantic"":""8"",""num_scrambled_causal"":""4"",""num_scrambled_schematic"":""4"",""participantId"":""5EF44FDA4E464CDEA4370DB69E23EBC7"",""assignmentId"":""219ad81b-dd4d-493b-a2d3-09e52d351185"",""projectId"":""9076ac92-be42-43a2-9634-8b67c7fe93a7""}","https://test12345.live/?num_scrambled_semantic=8&num_scrambled_causal=4&num_scrambled_schematic=4&participantId=5EF44FDA4E464CDEA4370DB69E23EBC7&assignmentId=219ad81b-dd4d-493b-a2d3-09e52d351185&projectId=9076ac92-be42-43a2-9634-8b67c7fe93a7","5EF44FDA4E464CDEA4370DB69E23EBC7-2025-05-22-20-15-28","","","42437de09b7557a2297b37fafc5e8bb9a2e8521a0065b7766ee8f86dd156f618","","","",""
"","","","","","html-audio-response","5","69981","0.0-4.0-1.0","5EF44FDA4E464CDEA4370DB69E23EBC7","5EF44FDA4E464CDEA4370DB69E23EBC7","219ad81b-dd4d-493b-a2d3-09e52d351185","9076ac92-be42-43a2-9634-8b67c7fe93a7","{""num_scrambled_semantic"":""8"",""num_scrambled_causal"":""4"",""num_scrambled_schematic"":""4"",""participantId"":""5EF44FDA4E464CDEA4370DB69E23EBC7"",""assignmentId"":""219ad81b-dd4d-493b-a2d3-09e52d351185"",""projectId"":""9076ac92-be42-43a2-9634-8b67c7fe93a7""}","https://test12345.live/?num_scrambled_semantic=8&num_scrambled_causal=4&num_scrambled_schematic=4&participantId=5EF44FDA4E464CDEA4370DB69E23EBC7&assignmentId=219ad81b-dd4d-493b-a2d3-09e52d351185&projectId=9076ac92-be42-43a2-9634-8b67c7fe93a7","5EF44FDA4E464CDEA4370DB69E23EBC7-2025-05-22-20-15-28","","3423","","<span style=""color: red; font-size: 24px""> NOW RECORDING</span>
        <p>Please test Microphone</p>","","2",""
"","","","","","html-button-response","6","71949","0.0-4.0-2.0","5EF44FDA4E464CDEA4370DB69E23EBC7","5EF44FDA4E464CDEA4370DB69E23EBC7","219ad81b-dd4d-493b-a2d3-09e52d351185","9076ac92-be42-43a2-9634-8b67c7fe93a7","{""num_scrambled_semantic"":""8"",""num_scrambled_causal"":""4"",""num_scrambled_schematic"":""4"",""participantId"":""5EF44FDA4E464CDEA4370DB69E23EBC7"",""assignmentId"":""219ad81b-dd4d-493b-a2d3-09e52d351185"",""projectId"":""9076ac92-be42-43a2-9634-8b67c7fe93a7""}","https://test12345.live/?num_scrambled_semantic=8&num_scrambled_causal=4&num_scrambled_schematic=4&participantId=5EF44FDA4E464CDEA4370DB69E23EBC7&assignmentId=219ad81b-dd4d-493b-a2d3-09e52d351185&projectId=9076ac92-be42-43a2-9634-8b67c7fe93a7","5EF44FDA4E464CDEA4370DB69E23EBC7-2025-05-22-20-15-28","","1967","","<p style=""font-size:48px; color:red;"">Is Microphone OK?</p>","1","",""
"","","","","","instructions","7","88773","0.0-5.0","5EF44FDA4E464CDEA4370DB69E23EBC7","5EF44FDA4E464CDEA4370DB69E23EBC7","219ad81b-dd4d-493b-a2d3-09e52d351185","9076ac92-be42-43a2-9634-8b67c7fe93a7","{""num_scrambled_semantic"":""8"",""num_scrambled_causal"":""4"",""num_scrambled_schematic"":""4"",""participantId"":""5EF44FDA4E464CDEA4370DB69E23EBC7"",""assignmentId"":""219ad81b-dd4d-493b-a2d3-09e52d351185"",""projectId"":""9076ac92-be42-43a2-9634-8b67c7fe93a7""}","https://test12345.live/?num_scrambled_semantic=8&num_scrambled_causal=4&num_scrambled_schematic=4&participantId=5EF44FDA4E464CDEA4370DB69E23EBC7&assignmentId=219ad81b-dd4d-493b-a2d3-09e52d351185&projectId=9076ac92-be42-43a2-9634-8b67c7fe93a7","5EF44FDA4E464CDEA4370DB69E23EBC7-2025-05-22-20-15-28","[{""page_index"":0,""viewing_time"":9830},{""page_index"":1,""viewing_time"":6993}]","16824","","","","",""
"","","","","","image-button-response","8","94778","0.0-6.0-0.0","5EF44FDA4E464CDEA4370DB69E23EBC7","5EF44FDA4E464CDEA4370DB69E23EBC7","219ad81b-dd4d-493b-a2d3-09e52d351185","9076ac92-be42-43a2-9634-8b67c7fe93a7","{""num_scrambled_semantic"":""8"",""num_scrambled_causal"":""4"",""num_scrambled_schematic"":""4"",""participantId"":""5EF44FDA4E464CDEA4370DB69E23EBC7"",""assignmentId"":""219ad81b-dd4d-493b-a2d3-09e52d351185"",""projectId"":""9076ac92-be42-43a2-9634-8b67c7fe93a7""}","https://test12345.live/?num_scrambled_semantic=8&num_scrambled_causal=4&num_scrambled_schematic=4&participantId=5EF44FDA4E464CDEA4370DB69E23EBC7&assignmentId=219ad81b-dd4d-493b-a2d3-09e52d351185&projectId=9076ac92-be42-43a2-9634-8b67c7fe93a7","5EF44FDA4E464CDEA4370DB69E23EBC7-2025-05-22-20-15-28","","null","","images/instructions/movie_0.png","null","",""
"","","","","","image-button-response","9","99285","0.0-6.0-1.0-0.0","5EF44FDA4E464CDEA4370DB69E23EBC7","5EF44FDA4E464CDEA4370DB69E23EBC7","219ad81b-dd4d-493b-a2d3-09e52d351185","9076ac92-be42-43a2-9634-8b67c7fe93a7","{""num_scrambled_semantic"":""8"",""num_scrambled_causal"":""4"",""num_scrambled_schematic"":""4"",""participantId"":""5EF44FDA4E464CDEA4370DB69E23EBC7"",""assignmentId"":""219ad81b-dd4d-493b-a2d3-09e52d351185"",""projectId"":""9076ac92-be42-43a2-9634-8b67c7fe93a7""}","https://test12345.live/?num_scrambled_semantic=8&num_scrambled_causal=4&num_scrambled_schematic=4&participantId=5EF44FDA4E464CDEA4370DB69E23EBC7&assignmentId=219ad81b-dd4d-493b-a2d3-09e52d351185&projectId=9076ac92-be42-43a2-9634-8b67c7fe93a7","5EF44FDA4E464CDEA4370DB69E23EBC7-2025-05-22-20-15-28","","null","","images/instructions/movie_1.png","null","",""
"","","","","","image-button-response","10","102899","0.0-6.0-1.0-1.0","5EF44FDA4E464CDEA4370DB69E23EBC7","5EF44FDA4E464CDEA4370DB69E23EBC7","219ad81b-dd4d-493b-a2d3-09e52d351185","9076ac92-be42-43a2-9634-8b67c7fe93a7","{""num_scrambled_semantic"":""8"",""num_scrambled_causal"":""4"",""num_scrambled_schematic"":""4"",""participantId"":""5EF44FDA4E464CDEA4370DB69E23EBC7"",""assignmentId"":""219ad81b-dd4d-493b-a2d3-09e52d351185"",""projectId"":""9076ac92-be42-43a2-9634-8b67c7fe93a7""}","https://test12345.live/?num_scrambled_semantic=8&num_scrambled_causal=4&num_scrambled_schematic=4&participantId=5EF44FDA4E464CDEA4370DB69E23EBC7&assignmentId=219ad81b-dd4d-493b-a2d3-09e52d351185&projectId=9076ac92-be42-43a2-9634-8b67c7fe93a7","5EF44FDA4E464CDEA4370DB69E23EBC7-2025-05-22-20-15-28","","3613","","images/instructions/movie_1.png","0","",""
"","","","","","image-button-response","11","104713","0.0-6.0-1.0-2.0","5EF44FDA4E464CDEA4370DB69E23EBC7","5EF44FDA4E464CDEA4370DB69E23EBC7","219ad81b-dd4d-493b-a2d3-09e52d351185","9076ac92-be42-43a2-9634-8b67c7fe93a7","{""num_scrambled_semantic"":""8"",""num_scrambled_causal"":""4"",""num_scrambled_schematic"":""4"",""participantId"":""5EF44FDA4E464CDEA4370DB69E23EBC7"",""assignmentId"":""219ad81b-dd4d-493b-a2d3-09e52d351185"",""projectId"":""9076ac92-be42-43a2-9634-8b67c7fe93a7""}","https://test12345.live/?num_scrambled_semantic=8&num_scrambled_causal=4&num_scrambled_schematic=4&participantId=5EF44FDA4E464CDEA4370DB69E23EBC7&assignmentId=219ad81b-dd4d-493b-a2d3-09e52d351185&projectId=9076ac92-be42-43a2-9634-8b67c7fe93a7","5EF44FDA4E464CDEA4370DB69E23EBC7-2025-05-22-20-15-28","","null","","[]","null","",""
"","","","","","image-button-response","12","109215","0.0-6.0-1.0-0.1","5EF44FDA4E464CDEA4370DB69E23EBC7","5EF44FDA4E464CDEA4370DB69E23EBC7","219ad81b-dd4d-493b-a2d3-09e52d351185","9076ac92-be42-43a2-9634-8b67c7fe93a7","{""num_scrambled_semantic"":""8"",""num_scrambled_causal"":""4"",""num_scrambled_schematic"":""4"",""participantId"":""5EF44FDA4E464CDEA4370DB69E23EBC7"",""assignmentId"":""219ad81b-dd4d-493b-a2d3-09e52d351185"",""projectId"":""9076ac92-be42-43a2-9634-8b67c7fe93a7""}","https://test12345.live/?num_scrambled_semantic=8&num_scrambled_causal=4&num_scrambled_schematic=4&participantId=5EF44FDA4E464CDEA4370DB69E23EBC7&assignmentId=219ad81b-dd4d-493b-a2d3-09e52d351185&projectId=9076ac92-be42-43a2-9634-8b67c7fe93a7","5EF44FDA4E464CDEA4370DB69E23EBC7-2025-05-22-20-15-28","","null","","images/instructions/movie_2.png","null","",""
"","","","","","image-button-response","13","111203","0.0-6.0-1.0-1.1","5EF44FDA4E464CDEA4370DB69E23EBC7","5EF44FDA4E464CDEA4370DB69E23EBC7","219ad81b-dd4d-493b-a2d3-09e52d351185","9076ac92-be42-43a2-9634-8b67c7fe93a7","{""num_scrambled_semantic"":""8"",""num_scrambled_causal"":""4"",""num_scrambled_schematic"":""4"",""participantId"":""5EF44FDA4E464CDEA4370DB69E23EBC7"",""assignmentId"":""219ad81b-dd4d-493b-a2d3-09e52d351185"",""projectId"":""9076ac92-be42-43a2-9634-8b67c7fe93a7""}","https://test12345.live/?num_scrambled_semantic=8&num_scrambled_causal=4&num_scrambled_schematic=4&participantId=5EF44FDA4E464CDEA4370DB69E23EBC7&assignmentId=219ad81b-dd4d-493b-a2d3-09e52d351185&projectId=9076ac92-be42-43a2-9634-8b67c7fe93a7","5EF44FDA4E464CDEA4370DB69E23EBC7-2025-05-22-20-15-28","","1986","","images/instructions/movie_2.png","1","",""
"","","","","","image-button-response","14","113008","0.0-6.0-1.0-2.1","5EF44FDA4E464CDEA4370DB69E23EBC7","5EF44FDA4E464CDEA4370DB69E23EBC7","219ad81b-dd4d-493b-a2d3-09e52d351185","9076ac92-be42-43a2-9634-8b67c7fe93a7","{""num_scrambled_semantic"":""8"",""num_scrambled_causal"":""4"",""num_scrambled_schematic"":""4"",""participantId"":""5EF44FDA4E464CDEA4370DB69E23EBC7"",""assignmentId"":""219ad81b-dd4d-493b-a2d3-09e52d351185"",""projectId"":""9076ac92-be42-43a2-9634-8b67c7fe93a7""}","https://test12345.live/?num_scrambled_semantic=8&num_scrambled_causal=4&num_scrambled_schematic=4&participantId=5EF44FDA4E464CDEA4370DB69E23EBC7&assignmentId=219ad81b-dd4d-493b-a2d3-09e52d351185&projectId=9076ac92-be42-43a2-9634-8b67c7fe93a7","5EF44FDA4E464CDEA4370DB69E23EBC7-2025-05-22-20-15-28","","null","","[]","null","",""
"","","","","","image-button-response","15","117524","0.0-6.0-1.0-0.2","5EF44FDA4E464CDEA4370DB69E23EBC7","5EF44FDA4E464CDEA4370DB69E23EBC7","219ad81b-dd4d-493b-a2d3-09e52d351185","9076ac92-be42-43a2-9634-8b67c7fe93a7","{""num_scrambled_semantic"":""8"",""num_scrambled_causal"":""4"",""num_scrambled_schematic"":""4"",""participantId"":""5EF44FDA4E464CDEA4370DB69E23EBC7"",""assignmentId"":""219ad81b-dd4d-493b-a2d3-09e52d351185"",""projectId"":""9076ac92-be42-43a2-9634-8b67c7fe93a7""}","https://test12345.live/?num_scrambled_semantic=8&num_scrambled_causal=4&num_scrambled_schematic=4&participantId=5EF44FDA4E464CDEA4370DB69E23EBC7&assignmentId=219ad81b-dd4d-493b-a2d3-09e52d351185&projectId=9076ac92-be42-43a2-9634-8b67c7fe93a7","5EF44FDA4E464CDEA4370DB69E23EBC7-2025-05-22-20-15-28","","null","","images/instructions/movie_3.png","null","",""
"","","","","","image-button-response","16","119516","0.0-6.0-1.0-1.2","5EF44FDA4E464CDEA4370DB69E23EBC7","5EF44FDA4E464CDEA4370DB69E23EBC7","219ad81b-dd4d-493b-a2d3-09e52d351185","9076ac92-be42-43a2-9634-8b67c7fe93a7","{""num_scrambled_semantic"":""8"",""num_scrambled_causal"":""4"",""num_scrambled_schematic"":""4"",""participantId"":""5EF44FDA4E464CDEA4370DB69E23EBC7"",""assignmentId"":""219ad81b-dd4d-493b-a2d3-09e52d351185"",""projectId"":""9076ac92-be42-43a2-9634-8b67c7fe93a7""}","https://test12345.live/?num_scrambled_semantic=8&num_scrambled_causal=4&num_scrambled_schematic=4&participantId=5EF44FDA4E464CDEA4370DB69E23EBC7&assignmentId=219ad81b-dd4d-493b-a2d3-09e52d351185&projectId=9076ac92-be42-43a2-9634-8b67c7fe93a7","5EF44FDA4E464CDEA4370DB69E23EBC7-2025-05-22-20-15-28","","1991","","images/instructions/movie_3.png","0","",""
"","","","","","image-button-response","17","121320","0.0-6.0-1.0-2.2","5EF44FDA4E464CDEA4370DB69E23EBC7","5EF44FDA4E464CDEA4370DB69E23EBC7","219ad81b-dd4d-493b-a2d3-09e52d351185","9076ac92-be42-43a2-9634-8b67c7fe93a7","{""num_scrambled_semantic"":""8"",""num_scrambled_causal"":""4"",""num_scrambled_schematic"":""4"",""participantId"":""5EF44FDA4E464CDEA4370DB69E23EBC7"",""assignmentId"":""219ad81b-dd4d-493b-a2d3-09e52d351185"",""projectId"":""9076ac92-be42-43a2-9634-8b67c7fe93a7""}","https://test12345.live/?num_scrambled_semantic=8&num_scrambled_causal=4&num_scrambled_schematic=4&participantId=5EF44FDA4E464CDEA4370DB69E23EBC7&assignmentId=219ad81b-dd4d-493b-a2d3-09e52d351185&projectId=9076ac92-be42-43a2-9634-8b67c7fe93a7","5EF44FDA4E464CDEA4370DB69E23EBC7-2025-05-22-20-15-28","","null","","[]","null","",""
"","","","","","image-button-response","18","125834","0.0-6.0-1.0-0.3","5EF44FDA4E464CDEA4370DB69E23EBC7","5EF44FDA4E464CDEA4370DB69E23EBC7","219ad81b-dd4d-493b-a2d3-09e52d351185","9076ac92-be42-43a2-9634-8b67c7fe93a7","{""num_scrambled_semantic"":""8"",""num_scrambled_causal"":""4"",""num_scrambled_schematic"":""4"",""participantId"":""5EF44FDA4E464CDEA4370DB69E23EBC7"",""assignmentId"":""219ad81b-dd4d-493b-a2d3-09e52d351185"",""projectId"":""9076ac92-be42-43a2-9634-8b67c7fe93a7""}","https://test12345.live/?num_scrambled_semantic=8&num_scrambled_causal=4&num_scrambled_schematic=4&participantId=5EF44FDA4E464CDEA4370DB69E23EBC7&assignmentId=219ad81b-dd4d-493b-a2d3-09e52d351185&projectId=9076ac92-be42-43a2-9634-8b67c7fe93a7","5EF44FDA4E464CDEA4370DB69E23EBC7-2025-05-22-20-15-28","","null","","images/instructions/movie_4.png","null","",""
"","","","","","image-button-response","19","127213","0.0-6.0-1.0-1.3","5EF44FDA4E464CDEA4370DB69E23EBC7","5EF44FDA4E464CDEA4370DB69E23EBC7","219ad81b-dd4d-493b-a2d3-09e52d351185","9076ac92-be42-43a2-9634-8b67c7fe93a7","{""num_scrambled_semantic"":""8"",""num_scrambled_causal"":""4"",""num_scrambled_schematic"":""4"",""participantId"":""5EF44FDA4E464CDEA4370DB69E23EBC7"",""assignmentId"":""219ad81b-dd4d-493b-a2d3-09e52d351185"",""projectId"":""9076ac92-be42-43a2-9634-8b67c7fe93a7""}","https://test12345.live/?num_scrambled_semantic=8&num_scrambled_causal=4&num_scrambled_schematic=4&participantId=5EF44FDA4E464CDEA4370DB69E23EBC7&assignmentId=219ad81b-dd4d-493b-a2d3-09e52d351185&projectId=9076ac92-be42-43a2-9634-8b67c7fe93a7","5EF44FDA4E464CDEA4370DB69E23EBC7-2025-05-22-20-15-28","","1378","","images/instructions/movie_4.png","0","",""
"","","","","","image-button-response","20","129029","0.0-6.0-1.0-2.3","5EF44FDA4E464CDEA4370DB69E23EBC7","5EF44FDA4E464CDEA4370DB69E23EBC7","219ad81b-dd4d-493b-a2d3-09e52d351185","9076ac92-be42-43a2-9634-8b67c7fe93a7","{""num_scrambled_semantic"":""8"",""num_scrambled_causal"":""4"",""num_scrambled_schematic"":""4"",""participantId"":""5EF44FDA4E464CDEA4370DB69E23EBC7"",""assignmentId"":""219ad81b-dd4d-493b-a2d3-09e52d351185"",""projectId"":""9076ac92-be42-43a2-9634-8b67c7fe93a7""}","https://test12345.live/?num_scrambled_semantic=8&num_scrambled_causal=4&num_scrambled_schematic=4&participantId=5EF44FDA4E464CDEA4370DB69E23EBC7&assignmentId=219ad81b-dd4d-493b-a2d3-09e52d351185&projectId=9076ac92-be42-43a2-9634-8b67c7fe93a7","5EF44FDA4E464CDEA4370DB69E23EBC7-2025-05-22-20-15-28","","null","","[]","null","",""
"","","","","","instructions","21","142662","0.0-7.0","5EF44FDA4E464CDEA4370DB69E23EBC7","5EF44FDA4E464CDEA4370DB69E23EBC7","219ad81b-dd4d-493b-a2d3-09e52d351185","9076ac92-be42-43a2-9634-8b67c7fe93a7","{""num_scrambled_semantic"":""8"",""num_scrambled_causal"":""4"",""num_scrambled_schematic"":""4"",""participantId"":""5EF44FDA4E464CDEA4370DB69E23EBC7"",""assignmentId"":""219ad81b-dd4d-493b-a2d3-09e52d351185"",""projectId"":""9076ac92-be42-43a2-9634-8b67c7fe93a7""}","https://test12345.live/?num_scrambled_semantic=8&num_scrambled_causal=4&num_scrambled_schematic=4&participantId=5EF44FDA4E464CDEA4370DB69E23EBC7&assignmentId=219ad81b-dd4d-493b-a2d3-09e52d351185&projectId=9076ac92-be42-43a2-9634-8b67c7fe93a7","5EF44FDA4E464CDEA4370DB69E23EBC7-2025-05-22-20-15-28","[{""page_index"":0,""viewing_time"":12352},{""page_index"":1,""viewing_time"":1281}]","13633","","","","",""
"","","","","","html-audio-response","22","208976","0.0-8.0","5EF44FDA4E464CDEA4370DB69E23EBC7","5EF44FDA4E464CDEA4370DB69E23EBC7","219ad81b-dd4d-493b-a2d3-09e52d351185","9076ac92-be42-43a2-9634-8b67c7fe93a7","{""num_scrambled_semantic"":""8"",""num_scrambled_causal"":""4"",""num_scrambled_schematic"":""4"",""participantId"":""5EF44FDA4E464CDEA4370DB69E23EBC7"",""assignmentId"":""219ad81b-dd4d-493b-a2d3-09e52d351185"",""projectId"":""9076ac92-be42-43a2-9634-8b67c7fe93a7""}","https://test12345.live/?num_scrambled_semantic=8&num_scrambled_causal=4&num_scrambled_schematic=4&participantId=5EF44FDA4E464CDEA4370DB69E23EBC7&assignmentId=219ad81b-dd4d-493b-a2d3-09e52d351185&projectId=9076ac92-be42-43a2-9634-8b67c7fe93a7","5EF44FDA4E464CDEA4370DB69E23EBC7-2025-05-22-20-15-28","","25991","","[""<span style=\""color: red; font-size: 24px\""> NOW RECORDING</span><p>Please say out loud all the images you saw in the exact order you saw them. Try to recall as many images as you can, but remember: getting the order right is more important than the number of images you recall.</p>""]","","1",""
"","","","","","instructions","23","210572","0.0-9.0","5EF44FDA4E464CDEA4370DB69E23EBC7","5EF44FDA4E464CDEA4370DB69E23EBC7","219ad81b-dd4d-493b-a2d3-09e52d351185","9076ac92-be42-43a2-9634-8b67c7fe93a7","{""num_scrambled_semantic"":""8"",""num_scrambled_causal"":""4"",""num_scrambled_schematic"":""4"",""participantId"":""5EF44FDA4E464CDEA4370DB69E23EBC7"",""assignmentId"":""219ad81b-dd4d-493b-a2d3-09e52d351185"",""projectId"":""9076ac92-be42-43a2-9634-8b67c7fe93a7""}","https://test12345.live/?num_scrambled_semantic=8&num_scrambled_causal=4&num_scrambled_schematic=4&participantId=5EF44FDA4E464CDEA4370DB69E23EBC7&assignmentId=219ad81b-dd4d-493b-a2d3-09e52d351185&projectId=9076ac92-be42-43a2-9634-8b67c7fe93a7","5EF44FDA4E464CDEA4370DB69E23EBC7-2025-05-22-20-15-28","[{""page_index"":0,""viewing_time"":1592}]","1592","","","","",""
"","","","","","image-button-response","24","216580","0.0-10.0-0.0","5EF44FDA4E464CDEA4370DB69E23EBC7","5EF44FDA4E464CDEA4370DB69E23EBC7","219ad81b-dd4d-493b-a2d3-09e52d351185","9076ac92-be42-43a2-9634-8b67c7fe93a7","{""num_scrambled_semantic"":""8"",""num_scrambled_causal"":""4"",""num_scrambled_schematic"":""4"",""participantId"":""5EF44FDA4E464CDEA4370DB69E23EBC7"",""assignmentId"":""219ad81b-dd4d-493b-a2d3-09e52d351185"",""projectId"":""9076ac92-be42-43a2-9634-8b67c7fe93a7""}","https://test12345.live/?num_scrambled_semantic=8&num_scrambled_causal=4&num_scrambled_schematic=4&participantId=5EF44FDA4E464CDEA4370DB69E23EBC7&assignmentId=219ad81b-dd4d-493b-a2d3-09e52d351185&projectId=9076ac92-be42-43a2-9634-8b67c7fe93a7","5EF44FDA4E464CDEA4370DB69E23EBC7-2025-05-22-20-15-28","","null","","images/semantic_sequence/cat_care_semantic/cat_care_semantic_0.png","null","",""
"","","","","","image-button-response","25","221090","0.0-10.0-1.0-0.0","5EF44FDA4E464CDEA4370DB69E23EBC7","5EF44FDA4E464CDEA4370DB69E23EBC7","219ad81b-dd4d-493b-a2d3-09e52d351185","9076ac92-be42-43a2-9634-8b67c7fe93a7","{""num_scrambled_semantic"":""8"",""num_scrambled_causal"":""4"",""num_scrambled_schematic"":""4"",""participantId"":""5EF44FDA4E464CDEA4370DB69E23EBC7"",""assignmentId"":""219ad81b-dd4d-493b-a2d3-09e52d351185"",""projectId"":""9076ac92-be42-43a2-9634-8b67c7fe93a7""}","https://test12345.live/?num_scrambled_semantic=8&num_scrambled_causal=4&num_scrambled_schematic=4&participantId=5EF44FDA4E464CDEA4370DB69E23EBC7&assignmentId=219ad81b-dd4d-493b-a2d3-09e52d351185&projectId=9076ac92-be42-43a2-9634-8b67c7fe93a7","5EF44FDA4E464CDEA4370DB69E23EBC7-2025-05-22-20-15-28","","null","","images/semantic_sequence/cat_care_semantic/cat_care_semantic_3.png","null","",""
"","","","","","image-button-response","26","223902","0.0-10.0-1.0-1.0","5EF44FDA4E464CDEA4370DB69E23EBC7","5EF44FDA4E464CDEA4370DB69E23EBC7","219ad81b-dd4d-493b-a2d3-09e52d351185","9076ac92-be42-43a2-9634-8b67c7fe93a7","{""num_scrambled_semantic"":""8"",""num_scrambled_causal"":""4"",""num_scrambled_schematic"":""4"",""participantId"":""5EF44FDA4E464CDEA4370DB69E23EBC7"",""assignmentId"":""219ad81b-dd4d-493b-a2d3-09e52d351185"",""projectId"":""9076ac92-be42-43a2-9634-8b67c7fe93a7""}","https://test12345.live/?num_scrambled_semantic=8&num_scrambled_causal=4&num_scrambled_schematic=4&participantId=5EF44FDA4E464CDEA4370DB69E23EBC7&assignmentId=219ad81b-dd4d-493b-a2d3-09e52d351185&projectId=9076ac92-be42-43a2-9634-8b67c7fe93a7","5EF44FDA4E464CDEA4370DB69E23EBC7-2025-05-22-20-15-28","","2811","","images/semantic_sequence/cat_care_semantic/cat_care_semantic_3.png","0","",""
"","","","","","image-button-response","27","225704","0.0-10.0-1.0-2.0","5EF44FDA4E464CDEA4370DB69E23EBC7","5EF44FDA4E464CDEA4370DB69E23EBC7","219ad81b-dd4d-493b-a2d3-09e52d351185","9076ac92-be42-43a2-9634-8b67c7fe93a7","{""num_scrambled_semantic"":""8"",""num_scrambled_causal"":""4"",""num_scrambled_schematic"":""4"",""participantId"":""5EF44FDA4E464CDEA4370DB69E23EBC7"",""assignmentId"":""219ad81b-dd4d-493b-a2d3-09e52d351185"",""projectId"":""9076ac92-be42-43a2-9634-8b67c7fe93a7""}","https://test12345.live/?num_scrambled_semantic=8&num_scrambled_causal=4&num_scrambled_schematic=4&participantId=5EF44FDA4E464CDEA4370DB69E23EBC7&assignmentId=219ad81b-dd4d-493b-a2d3-09e52d351185&projectId=9076ac92-be42-43a2-9634-8b67c7fe93a7","5EF44FDA4E464CDEA4370DB69E23EBC7-2025-05-22-20-15-28","","null","","[]","null","",""
"","","","","","image-button-response","28","230214","0.0-10.0-1.0-0.1","5EF44FDA4E464CDEA4370DB69E23EBC7","5EF44FDA4E464CDEA4370DB69E23EBC7","219ad81b-dd4d-493b-a2d3-09e52d351185","9076ac92-be42-43a2-9634-8b67c7fe93a7","{""num_scrambled_semantic"":""8"",""num_scrambled_causal"":""4"",""num_scrambled_schematic"":""4"",""participantId"":""5EF44FDA4E464CDEA4370DB69E23EBC7"",""assignmentId"":""219ad81b-dd4d-493b-a2d3-09e52d351185"",""projectId"":""9076ac92-be42-43a2-9634-8b67c7fe93a7""}","https://test12345.live/?num_scrambled_semantic=8&num_scrambled_causal=4&num_scrambled_schematic=4&participantId=5EF44FDA4E464CDEA4370DB69E23EBC7&assignmentId=219ad81b-dd4d-493b-a2d3-09e52d351185&projectId=9076ac92-be42-43a2-9634-8b67c7fe93a7","5EF44FDA4E464CDEA4370DB69E23EBC7-2025-05-22-20-15-28","","null","","images/semantic_sequence/cat_care_semantic/cat_care_semantic_8.png","null","",""
"","","","","","image-button-response","29","231921","0.0-10.0-1.0-1.1","5EF44FDA4E464CDEA4370DB69E23EBC7","5EF44FDA4E464CDEA4370DB69E23EBC7","219ad81b-dd4d-493b-a2d3-09e52d351185","9076ac92-be42-43a2-9634-8b67c7fe93a7","{""num_scrambled_semantic"":""8"",""num_scrambled_causal"":""4"",""num_scrambled_schematic"":""4"",""participantId"":""5EF44FDA4E464CDEA4370DB69E23EBC7"",""assignmentId"":""219ad81b-dd4d-493b-a2d3-09e52d351185"",""projectId"":""9076ac92-be42-43a2-9634-8b67c7fe93a7""}","https://test12345.live/?num_scrambled_semantic=8&num_scrambled_causal=4&num_scrambled_schematic=4&participantId=5EF44FDA4E464CDEA4370DB69E23EBC7&assignmentId=219ad81b-dd4d-493b-a2d3-09e52d351185&projectId=9076ac92-be42-43a2-9634-8b67c7fe93a7","5EF44FDA4E464CDEA4370DB69E23EBC7-2025-05-22-20-15-28","","1706","","images/semantic_sequence/cat_care_semantic/cat_care_semantic_8.png","0","",""
"","","","","","image-button-response","30","233730","0.0-10.0-1.0-2.1","5EF44FDA4E464CDEA4370DB69E23EBC7","5EF44FDA4E464CDEA4370DB69E23EBC7","219ad81b-dd4d-493b-a2d3-09e52d351185","9076ac92-be42-43a2-9634-8b67c7fe93a7","{""num_scrambled_semantic"":""8"",""num_scrambled_causal"":""4"",""num_scrambled_schematic"":""4"",""participantId"":""5EF44FDA4E464CDEA4370DB69E23EBC7"",""assignmentId"":""219ad81b-dd4d-493b-a2d3-09e52d351185"",""projectId"":""9076ac92-be42-43a2-9634-8b67c7fe93a7""}","https://test12345.live/?num_scrambled_semantic=8&num_scrambled_causal=4&num_scrambled_schematic=4&participantId=5EF44FDA4E464CDEA4370DB69E23EBC7&assignmentId=219ad81b-dd4d-493b-a2d3-09e52d351185&projectId=9076ac92-be42-43a2-9634-8b67c7fe93a7","5EF44FDA4E464CDEA4370DB69E23EBC7-2025-05-22-20-15-28","","null","","[]","null","",""
"","","","","","image-button-response","31","238234","0.0-10.0-1.0-0.2","5EF44FDA4E464CDEA4370DB69E23EBC7","5EF44FDA4E464CDEA4370DB69E23EBC7","219ad81b-dd4d-493b-a2d3-09e52d351185","9076ac92-be42-43a2-9634-8b67c7fe93a7","{""num_scrambled_semantic"":""8"",""num_scrambled_causal"":""4"",""num_scrambled_schematic"":""4"",""participantId"":""5EF44FDA4E464CDEA4370DB69E23EBC7"",""assignmentId"":""219ad81b-dd4d-493b-a2d3-09e52d351185"",""projectId"":""9076ac92-be42-43a2-9634-8b67c7fe93a7""}","https://test12345.live/?num_scrambled_semantic=8&num_scrambled_causal=4&num_scrambled_schematic=4&participantId=5EF44FDA4E464CDEA4370DB69E23EBC7&assignmentId=219ad81b-dd4d-493b-a2d3-09e52d351185&projectId=9076ac92-be42-43a2-9634-8b67c7fe93a7","5EF44FDA4E464CDEA4370DB69E23EBC7-2025-05-22-20-15-28","","null","","images/semantic_sequence/cat_care_semantic/cat_care_semantic_1.png","null","",""
"","","","","","image-button-response","32","239080","0.0-10.0-1.0-1.2","5EF44FDA4E464CDEA4370DB69E23EBC7","5EF44FDA4E464CDEA4370DB69E23EBC7","219ad81b-dd4d-493b-a2d3-09e52d351185","9076ac92-be42-43a2-9634-8b67c7fe93a7","{""num_scrambled_semantic"":""8"",""num_scrambled_causal"":""4"",""num_scrambled_schematic"":""4"",""participantId"":""5EF44FDA4E464CDEA4370DB69E23EBC7"",""assignmentId"":""219ad81b-dd4d-493b-a2d3-09e52d351185"",""projectId"":""9076ac92-be42-43a2-9634-8b67c7fe93a7""}","https://test12345.live/?num_scrambled_semantic=8&num_scrambled_causal=4&num_scrambled_schematic=4&participantId=5EF44FDA4E464CDEA4370DB69E23EBC7&assignmentId=219ad81b-dd4d-493b-a2d3-09e52d351185&projectId=9076ac92-be42-43a2-9634-8b67c7fe93a7","5EF44FDA4E464CDEA4370DB69E23EBC7-2025-05-22-20-15-28","","845","","images/semantic_sequence/cat_care_semantic/cat_care_semantic_1.png","0","",""
"","","","","","image-button-response","33","240885","0.0-10.0-1.0-2.2","5EF44FDA4E464CDEA4370DB69E23EBC7","5EF44FDA4E464CDEA4370DB69E23EBC7","219ad81b-dd4d-493b-a2d3-09e52d351185","9076ac92-be42-43a2-9634-8b67c7fe93a7","{""num_scrambled_semantic"":""8"",""num_scrambled_causal"":""4"",""num_scrambled_schematic"":""4"",""participantId"":""5EF44FDA4E464CDEA4370DB69E23EBC7"",""assignmentId"":""219ad81b-dd4d-493b-a2d3-09e52d351185"",""projectId"":""9076ac92-be42-43a2-9634-8b67c7fe93a7""}","https://test12345.live/?num_scrambled_semantic=8&num_scrambled_causal=4&num_scrambled_schematic=4&participantId=5EF44FDA4E464CDEA4370DB69E23EBC7&assignmentId=219ad81b-dd4d-493b-a2d3-09e52d351185&projectId=9076ac92-be42-43a2-9634-8b67c7fe93a7","5EF44FDA4E464CDEA4370DB69E23EBC7-2025-05-22-20-15-28","","null","","[]","null","",""
"","","","","","image-button-response","34","245386","0.0-10.0-1.0-0.3","5EF44FDA4E464CDEA4370DB69E23EBC7","5EF44FDA4E464CDEA4370DB69E23EBC7","219ad81b-dd4d-493b-a2d3-09e52d351185","9076ac92-be42-43a2-9634-8b67c7fe93a7","{""num_scrambled_semantic"":""8"",""num_scrambled_causal"":""4"",""num_scrambled_schematic"":""4"",""participantId"":""5EF44FDA4E464CDEA4370DB69E23EBC7"",""assignmentId"":""219ad81b-dd4d-493b-a2d3-09e52d351185"",""projectId"":""9076ac92-be42-43a2-9634-8b67c7fe93a7""}","https://test12345.live/?num_scrambled_semantic=8&num_scrambled_causal=4&num_scrambled_schematic=4&participantId=5EF44FDA4E464CDEA4370DB69E23EBC7&assignmentId=219ad81b-dd4d-493b-a2d3-09e52d351185&projectId=9076ac92-be42-43a2-9634-8b67c7fe93a7","5EF44FDA4E464CDEA4370DB69E23EBC7-2025-05-22-20-15-28","","null","","images/semantic_sequence/cat_care_semantic/cat_care_semantic_2.png","null","",""
"","","","","","image-button-response","35","246453","0.0-10.0-1.0-1.3","5EF44FDA4E464CDEA4370DB69E23EBC7","5EF44FDA4E464CDEA4370DB69E23EBC7","219ad81b-dd4d-493b-a2d3-09e52d351185","9076ac92-be42-43a2-9634-8b67c7fe93a7","{""num_scrambled_semantic"":""8"",""num_scrambled_causal"":""4"",""num_scrambled_schematic"":""4"",""participantId"":""5EF44FDA4E464CDEA4370DB69E23EBC7"",""assignmentId"":""219ad81b-dd4d-493b-a2d3-09e52d351185"",""projectId"":""9076ac92-be42-43a2-9634-8b67c7fe93a7""}","https://test12345.live/?num_scrambled_semantic=8&num_scrambled_causal=4&num_scrambled_schematic=4&participantId=5EF44FDA4E464CDEA4370DB69E23EBC7&assignmentId=219ad81b-dd4d-493b-a2d3-09e52d351185&projectId=9076ac92-be42-43a2-9634-8b67c7fe93a7","5EF44FDA4E464CDEA4370DB69E23EBC7-2025-05-22-20-15-28","","1066","","images/semantic_sequence/cat_care_semantic/cat_care_semantic_2.png","0","",""
"","","","","","image-button-response","36","248262","0.0-10.0-1.0-2.3","5EF44FDA4E464CDEA4370DB69E23EBC7","5EF44FDA4E464CDEA4370DB69E23EBC7","219ad81b-dd4d-493b-a2d3-09e52d351185","9076ac92-be42-43a2-9634-8b67c7fe93a7","{""num_scrambled_semantic"":""8"",""num_scrambled_causal"":""4"",""num_scrambled_schematic"":""4"",""participantId"":""5EF44FDA4E464CDEA4370DB69E23EBC7"",""assignmentId"":""219ad81b-dd4d-493b-a2d3-09e52d351185"",""projectId"":""9076ac92-be42-43a2-9634-8b67c7fe93a7""}","https://test12345.live/?num_scrambled_semantic=8&num_scrambled_causal=4&num_scrambled_schematic=4&participantId=5EF44FDA4E464CDEA4370DB69E23EBC7&assignmentId=219ad81b-dd4d-493b-a2d3-09e52d351185&projectId=9076ac92-be42-43a2-9634-8b67c7fe93a7","5EF44FDA4E464CDEA4370DB69E23EBC7-2025-05-22-20-15-28","","null","","[]","null","",""
"","","","","","image-button-response","37","252771","0.0-10.0-1.0-0.4","5EF44FDA4E464CDEA4370DB69E23EBC7","5EF44FDA4E464CDEA4370DB69E23EBC7","219ad81b-dd4d-493b-a2d3-09e52d351185","9076ac92-be42-43a2-9634-8b67c7fe93a7","{""num_scrambled_semantic"":""8"",""num_scrambled_causal"":""4"",""num_scrambled_schematic"":""4"",""participantId"":""5EF44FDA4E464CDEA4370DB69E23EBC7"",""assignmentId"":""219ad81b-dd4d-493b-a2d3-09e52d351185"",""projectId"":""9076ac92-be42-43a2-9634-8b67c7fe93a7""}","https://test12345.live/?num_scrambled_semantic=8&num_scrambled_causal=4&num_scrambled_schematic=4&participantId=5EF44FDA4E464CDEA4370DB69E23EBC7&assignmentId=219ad81b-dd4d-493b-a2d3-09e52d351185&projectId=9076ac92-be42-43a2-9634-8b67c7fe93a7","5EF44FDA4E464CDEA4370DB69E23EBC7-2025-05-22-20-15-28","","null","","images/semantic_sequence/cat_care_semantic/cat_care_semantic_6.png","null","",""
"","","","","","image-button-response","38","253733","0.0-10.0-1.0-1.4","5EF44FDA4E464CDEA4370DB69E23EBC7","5EF44FDA4E464CDEA4370DB69E23EBC7","219ad81b-dd4d-493b-a2d3-09e52d351185","9076ac92-be42-43a2-9634-8b67c7fe93a7","{""num_scrambled_semantic"":""8"",""num_scrambled_causal"":""4"",""num_scrambled_schematic"":""4"",""participantId"":""5EF44FDA4E464CDEA4370DB69E23EBC7"",""assignmentId"":""219ad81b-dd4d-493b-a2d3-09e52d351185"",""projectId"":""9076ac92-be42-43a2-9634-8b67c7fe93a7""}","https://test12345.live/?num_scrambled_semantic=8&num_scrambled_causal=4&num_scrambled_schematic=4&participantId=5EF44FDA4E464CDEA4370DB69E23EBC7&assignmentId=219ad81b-dd4d-493b-a2d3-09e52d351185&projectId=9076ac92-be42-43a2-9634-8b67c7fe93a7","5EF44FDA4E464CDEA4370DB69E23EBC7-2025-05-22-20-15-28","","962","","images/semantic_sequence/cat_care_semantic/cat_care_semantic_6.png","0","",""
"","","","","","image-button-response","39","255537","0.0-10.0-1.0-2.4","5EF44FDA4E464CDEA4370DB69E23EBC7","5EF44FDA4E464CDEA4370DB69E23EBC7","219ad81b-dd4d-493b-a2d3-09e52d351185","9076ac92-be42-43a2-9634-8b67c7fe93a7","{""num_scrambled_semantic"":""8"",""num_scrambled_causal"":""4"",""num_scrambled_schematic"":""4"",""participantId"":""5EF44FDA4E464CDEA4370DB69E23EBC7"",""assignmentId"":""219ad81b-dd4d-493b-a2d3-09e52d351185"",""projectId"":""9076ac92-be42-43a2-9634-8b67c7fe93a7""}","https://test12345.live/?num_scrambled_semantic=8&num_scrambled_causal=4&num_scrambled_schematic=4&participantId=5EF44FDA4E464CDEA4370DB69E23EBC7&assignmentId=219ad81b-dd4d-493b-a2d3-09e52d351185&projectId=9076ac92-be42-43a2-9634-8b67c7fe93a7","5EF44FDA4E464CDEA4370DB69E23EBC7-2025-05-22-20-15-28","","null","","[]","null","",""
"","","","","","image-button-response","40","260038","0.0-10.0-1.0-0.5","5EF44FDA4E464CDEA4370DB69E23EBC7","5EF44FDA4E464CDEA4370DB69E23EBC7","219ad81b-dd4d-493b-a2d3-09e52d351185","9076ac92-be42-43a2-9634-8b67c7fe93a7","{""num_scrambled_semantic"":""8"",""num_scrambled_causal"":""4"",""num_scrambled_schematic"":""4"",""participantId"":""5EF44FDA4E464CDEA4370DB69E23EBC7"",""assignmentId"":""219ad81b-dd4d-493b-a2d3-09e52d351185"",""projectId"":""9076ac92-be42-43a2-9634-8b67c7fe93a7""}","https://test12345.live/?num_scrambled_semantic=8&num_scrambled_causal=4&num_scrambled_schematic=4&participantId=5EF44FDA4E464CDEA4370DB69E23EBC7&assignmentId=219ad81b-dd4d-493b-a2d3-09e52d351185&projectId=9076ac92-be42-43a2-9634-8b67c7fe93a7","5EF44FDA4E464CDEA4370DB69E23EBC7-2025-05-22-20-15-28","","null","","images/semantic_sequence/cat_care_semantic/cat_care_semantic_7.png","null","",""
"","","","","","image-button-response","41","261057","0.0-10.0-1.0-1.5","5EF44FDA4E464CDEA4370DB69E23EBC7","5EF44FDA4E464CDEA4370DB69E23EBC7","219ad81b-dd4d-493b-a2d3-09e52d351185","9076ac92-be42-43a2-9634-8b67c7fe93a7","{""num_scrambled_semantic"":""8"",""num_scrambled_causal"":""4"",""num_scrambled_schematic"":""4"",""participantId"":""5EF44FDA4E464CDEA4370DB69E23EBC7"",""assignmentId"":""219ad81b-dd4d-493b-a2d3-09e52d351185"",""projectId"":""9076ac92-be42-43a2-9634-8b67c7fe93a7""}","https://test12345.live/?num_scrambled_semantic=8&num_scrambled_causal=4&num_scrambled_schematic=4&participantId=5EF44FDA4E464CDEA4370DB69E23EBC7&assignmentId=219ad81b-dd4d-493b-a2d3-09e52d351185&projectId=9076ac92-be42-43a2-9634-8b67c7fe93a7","5EF44FDA4E464CDEA4370DB69E23EBC7-2025-05-22-20-15-28","","1019","","images/semantic_sequence/cat_care_semantic/cat_care_semantic_7.png","0","",""
"","","","","","image-button-response","42","262858","0.0-10.0-1.0-2.5","5EF44FDA4E464CDEA4370DB69E23EBC7","5EF44FDA4E464CDEA4370DB69E23EBC7","219ad81b-dd4d-493b-a2d3-09e52d351185","9076ac92-be42-43a2-9634-8b67c7fe93a7","{""num_scrambled_semantic"":""8"",""num_scrambled_causal"":""4"",""num_scrambled_schematic"":""4"",""participantId"":""5EF44FDA4E464CDEA4370DB69E23EBC7"",""assignmentId"":""219ad81b-dd4d-493b-a2d3-09e52d351185"",""projectId"":""9076ac92-be42-43a2-9634-8b67c7fe93a7""}","https://test12345.live/?num_scrambled_semantic=8&num_scrambled_causal=4&num_scrambled_schematic=4&participantId=5EF44FDA4E464CDEA4370DB69E23EBC7&assignmentId=219ad81b-dd4d-493b-a2d3-09e52d351185&projectId=9076ac92-be42-43a2-9634-8b67c7fe93a7","5EF44FDA4E464CDEA4370DB69E23EBC7-2025-05-22-20-15-28","","null","","[]","null","",""
"","","","","","image-button-response","43","267365","0.0-10.0-1.0-0.6","5EF44FDA4E464CDEA4370DB69E23EBC7","5EF44FDA4E464CDEA4370DB69E23EBC7","219ad81b-dd4d-493b-a2d3-09e52d351185","9076ac92-be42-43a2-9634-8b67c7fe93a7","{""num_scrambled_semantic"":""8"",""num_scrambled_causal"":""4"",""num_scrambled_schematic"":""4"",""participantId"":""5EF44FDA4E464CDEA4370DB69E23EBC7"",""assignmentId"":""219ad81b-dd4d-493b-a2d3-09e52d351185"",""projectId"":""9076ac92-be42-43a2-9634-8b67c7fe93a7""}","https://test12345.live/?num_scrambled_semantic=8&num_scrambled_causal=4&num_scrambled_schematic=4&participantId=5EF44FDA4E464CDEA4370DB69E23EBC7&assignmentId=219ad81b-dd4d-493b-a2d3-09e52d351185&projectId=9076ac92-be42-43a2-9634-8b67c7fe93a7","5EF44FDA4E464CDEA4370DB69E23EBC7-2025-05-22-20-15-28","","null","","images/semantic_sequence/cat_care_semantic/cat_care_semantic_5.png","null","",""
"","","","","","image-button-response","44","268721","0.0-10.0-1.0-1.6","5EF44FDA4E464CDEA4370DB69E23EBC7","5EF44FDA4E464CDEA4370DB69E23EBC7","219ad81b-dd4d-493b-a2d3-09e52d351185","9076ac92-be42-43a2-9634-8b67c7fe93a7","{""num_scrambled_semantic"":""8"",""num_scrambled_causal"":""4"",""num_scrambled_schematic"":""4"",""participantId"":""5EF44FDA4E464CDEA4370DB69E23EBC7"",""assignmentId"":""219ad81b-dd4d-493b-a2d3-09e52d351185"",""projectId"":""9076ac92-be42-43a2-9634-8b67c7fe93a7""}","https://test12345.live/?num_scrambled_semantic=8&num_scrambled_causal=4&num_scrambled_schematic=4&participantId=5EF44FDA4E464CDEA4370DB69E23EBC7&assignmentId=219ad81b-dd4d-493b-a2d3-09e52d351185&projectId=9076ac92-be42-43a2-9634-8b67c7fe93a7","5EF44FDA4E464CDEA4370DB69E23EBC7-2025-05-22-20-15-28","","1355","","images/semantic_sequence/cat_care_semantic/cat_care_semantic_5.png","0","",""
"","","","","","image-button-response","45","270536","0.0-10.0-1.0-2.6","5EF44FDA4E464CDEA4370DB69E23EBC7","5EF44FDA4E464CDEA4370DB69E23EBC7","219ad81b-dd4d-493b-a2d3-09e52d351185","9076ac92-be42-43a2-9634-8b67c7fe93a7","{""num_scrambled_semantic"":""8"",""num_scrambled_causal"":""4"",""num_scrambled_schematic"":""4"",""participantId"":""5EF44FDA4E464CDEA4370DB69E23EBC7"",""assignmentId"":""219ad81b-dd4d-493b-a2d3-09e52d351185"",""projectId"":""9076ac92-be42-43a2-9634-8b67c7fe93a7""}","https://test12345.live/?num_scrambled_semantic=8&num_scrambled_causal=4&num_scrambled_schematic=4&participantId=5EF44FDA4E464CDEA4370DB69E23EBC7&assignmentId=219ad81b-dd4d-493b-a2d3-09e52d351185&projectId=9076ac92-be42-43a2-9634-8b67c7fe93a7","5EF44FDA4E464CDEA4370DB69E23EBC7-2025-05-22-20-15-28","","null","","[]","null","",""
"","","","","","image-button-response","46","275043","0.0-10.0-1.0-0.7","5EF44FDA4E464CDEA4370DB69E23EBC7","5EF44FDA4E464CDEA4370DB69E23EBC7","219ad81b-dd4d-493b-a2d3-09e52d351185","9076ac92-be42-43a2-9634-8b67c7fe93a7","{""num_scrambled_semantic"":""8"",""num_scrambled_causal"":""4"",""num_scrambled_schematic"":""4"",""participantId"":""5EF44FDA4E464CDEA4370DB69E23EBC7"",""assignmentId"":""219ad81b-dd4d-493b-a2d3-09e52d351185"",""projectId"":""9076ac92-be42-43a2-9634-8b67c7fe93a7""}","https://test12345.live/?num_scrambled_semantic=8&num_scrambled_causal=4&num_scrambled_schematic=4&participantId=5EF44FDA4E464CDEA4370DB69E23EBC7&assignmentId=219ad81b-dd4d-493b-a2d3-09e52d351185&projectId=9076ac92-be42-43a2-9634-8b67c7fe93a7","5EF44FDA4E464CDEA4370DB69E23EBC7-2025-05-22-20-15-28","","null","","images/semantic_sequence/cat_care_semantic/cat_care_semantic_9.png","null","",""
"","","","","","image-button-response","47","276568","0.0-10.0-1.0-1.7","5EF44FDA4E464CDEA4370DB69E23EBC7","5EF44FDA4E464CDEA4370DB69E23EBC7","219ad81b-dd4d-493b-a2d3-09e52d351185","9076ac92-be42-43a2-9634-8b67c7fe93a7","{""num_scrambled_semantic"":""8"",""num_scrambled_causal"":""4"",""num_scrambled_schematic"":""4"",""participantId"":""5EF44FDA4E464CDEA4370DB69E23EBC7"",""assignmentId"":""219ad81b-dd4d-493b-a2d3-09e52d351185"",""projectId"":""9076ac92-be42-43a2-9634-8b67c7fe93a7""}","https://test12345.live/?num_scrambled_semantic=8&num_scrambled_causal=4&num_scrambled_schematic=4&participantId=5EF44FDA4E464CDEA4370DB69E23EBC7&assignmentId=219ad81b-dd4d-493b-a2d3-09e52d351185&projectId=9076ac92-be42-43a2-9634-8b67c7fe93a7","5EF44FDA4E464CDEA4370DB69E23EBC7-2025-05-22-20-15-28","","1525","","images/semantic_sequence/cat_care_semantic/cat_care_semantic_9.png","0","",""
"","","","","","image-button-response","48","278374","0.0-10.0-1.0-2.7","5EF44FDA4E464CDEA4370DB69E23EBC7","5EF44FDA4E464CDEA4370DB69E23EBC7","219ad81b-dd4d-493b-a2d3-09e52d351185","9076ac92-be42-43a2-9634-8b67c7fe93a7","{""num_scrambled_semantic"":""8"",""num_scrambled_causal"":""4"",""num_scrambled_schematic"":""4"",""participantId"":""5EF44FDA4E464CDEA4370DB69E23EBC7"",""assignmentId"":""219ad81b-dd4d-493b-a2d3-09e52d351185"",""projectId"":""9076ac92-be42-43a2-9634-8b67c7fe93a7""}","https://test12345.live/?num_scrambled_semantic=8&num_scrambled_causal=4&num_scrambled_schematic=4&participantId=5EF44FDA4E464CDEA4370DB69E23EBC7&assignmentId=219ad81b-dd4d-493b-a2d3-09e52d351185&projectId=9076ac92-be42-43a2-9634-8b67c7fe93a7","5EF44FDA4E464CDEA4370DB69E23EBC7-2025-05-22-20-15-28","","null","","[]","null","",""
"","","","","","image-button-response","49","282878","0.0-10.0-1.0-0.8","5EF44FDA4E464CDEA4370DB69E23EBC7","5EF44FDA4E464CDEA4370DB69E23EBC7","219ad81b-dd4d-493b-a2d3-09e52d351185","9076ac92-be42-43a2-9634-8b67c7fe93a7","{""num_scrambled_semantic"":""8"",""num_scrambled_causal"":""4"",""num_scrambled_schematic"":""4"",""participantId"":""5EF44FDA4E464CDEA4370DB69E23EBC7"",""assignmentId"":""219ad81b-dd4d-493b-a2d3-09e52d351185"",""projectId"":""9076ac92-be42-43a2-9634-8b67c7fe93a7""}","https://test12345.live/?num_scrambled_semantic=8&num_scrambled_causal=4&num_scrambled_schematic=4&participantId=5EF44FDA4E464CDEA4370DB69E23EBC7&assignmentId=219ad81b-dd4d-493b-a2d3-09e52d351185&projectId=9076ac92-be42-43a2-9634-8b67c7fe93a7","5EF44FDA4E464CDEA4370DB69E23EBC7-2025-05-22-20-15-28","","null","","images/semantic_sequence/cat_care_semantic/cat_care_semantic_4.png","null","",""
"","","","","","image-button-response","50","284328","0.0-10.0-1.0-1.8","5EF44FDA4E464CDEA4370DB69E23EBC7","5EF44FDA4E464CDEA4370DB69E23EBC7","219ad81b-dd4d-493b-a2d3-09e52d351185","9076ac92-be42-43a2-9634-8b67c7fe93a7","{""num_scrambled_semantic"":""8"",""num_scrambled_causal"":""4"",""num_scrambled_schematic"":""4"",""participantId"":""5EF44FDA4E464CDEA4370DB69E23EBC7"",""assignmentId"":""219ad81b-dd4d-493b-a2d3-09e52d351185"",""projectId"":""9076ac92-be42-43a2-9634-8b67c7fe93a7""}","https://test12345.live/?num_scrambled_semantic=8&num_scrambled_causal=4&num_scrambled_schematic=4&participantId=5EF44FDA4E464CDEA4370DB69E23EBC7&assignmentId=219ad81b-dd4d-493b-a2d3-09e52d351185&projectId=9076ac92-be42-43a2-9634-8b67c7fe93a7","5EF44FDA4E464CDEA4370DB69E23EBC7-2025-05-22-20-15-28","","1449","","images/semantic_sequence/cat_care_semantic/cat_care_semantic_4.png","0","",""
"","","","","","image-button-response","51","286139","0.0-10.0-1.0-2.8","5EF44FDA4E464CDEA4370DB69E23EBC7","5EF44FDA4E464CDEA4370DB69E23EBC7","219ad81b-dd4d-493b-a2d3-09e52d351185","9076ac92-be42-43a2-9634-8b67c7fe93a7","{""num_scrambled_semantic"":""8"",""num_scrambled_causal"":""4"",""num_scrambled_schematic"":""4"",""participantId"":""5EF44FDA4E464CDEA4370DB69E23EBC7"",""assignmentId"":""219ad81b-dd4d-493b-a2d3-09e52d351185"",""projectId"":""9076ac92-be42-43a2-9634-8b67c7fe93a7""}","https://test12345.live/?num_scrambled_semantic=8&num_scrambled_causal=4&num_scrambled_schematic=4&participantId=5EF44FDA4E464CDEA4370DB69E23EBC7&assignmentId=219ad81b-dd4d-493b-a2d3-09e52d351185&projectId=9076ac92-be42-43a2-9634-8b67c7fe93a7","5EF44FDA4E464CDEA4370DB69E23EBC7-2025-05-22-20-15-28","","null","","[]","null","",""
"","","","","","image-button-response","52","290654","0.0-10.0-1.0-0.9","5EF44FDA4E464CDEA4370DB69E23EBC7","5EF44FDA4E464CDEA4370DB69E23EBC7","219ad81b-dd4d-493b-a2d3-09e52d351185","9076ac92-be42-43a2-9634-8b67c7fe93a7","{""num_scrambled_semantic"":""8"",""num_scrambled_causal"":""4"",""num_scrambled_schematic"":""4"",""participantId"":""5EF44FDA4E464CDEA4370DB69E23EBC7"",""assignmentId"":""219ad81b-dd4d-493b-a2d3-09e52d351185"",""projectId"":""9076ac92-be42-43a2-9634-8b67c7fe93a7""}","https://test12345.live/?num_scrambled_semantic=8&num_scrambled_causal=4&num_scrambled_schematic=4&participantId=5EF44FDA4E464CDEA4370DB69E23EBC7&assignmentId=219ad81b-dd4d-493b-a2d3-09e52d351185&projectId=9076ac92-be42-43a2-9634-8b67c7fe93a7","5EF44FDA4E464CDEA4370DB69E23EBC7-2025-05-22-20-15-28","","null","","images/semantic_sequence/cat_care_semantic/cat_care_semantic_ten.png","null","",""
"","","","","","image-button-response","53","291393","0.0-10.0-1.0-1.9","5EF44FDA4E464CDEA4370DB69E23EBC7","5EF44FDA4E464CDEA4370DB69E23EBC7","219ad81b-dd4d-493b-a2d3-09e52d351185","9076ac92-be42-43a2-9634-8b67c7fe93a7","{""num_scrambled_semantic"":""8"",""num_scrambled_causal"":""4"",""num_scrambled_schematic"":""4"",""participantId"":""5EF44FDA4E464CDEA4370DB69E23EBC7"",""assignmentId"":""219ad81b-dd4d-493b-a2d3-09e52d351185"",""projectId"":""9076ac92-be42-43a2-9634-8b67c7fe93a7""}","https://test12345.live/?num_scrambled_semantic=8&num_scrambled_causal=4&num_scrambled_schematic=4&participantId=5EF44FDA4E464CDEA4370DB69E23EBC7&assignmentId=219ad81b-dd4d-493b-a2d3-09e52d351185&projectId=9076ac92-be42-43a2-9634-8b67c7fe93a7","5EF44FDA4E464CDEA4370DB69E23EBC7-2025-05-22-20-15-28","","738","","images/semantic_sequence/cat_care_semantic/cat_care_semantic_ten.png","1","",""
"","","","","","image-button-response","54","293207","0.0-10.0-1.0-2.9","5EF44FDA4E464CDEA4370DB69E23EBC7","5EF44FDA4E464CDEA4370DB69E23EBC7","219ad81b-dd4d-493b-a2d3-09e52d351185","9076ac92-be42-43a2-9634-8b67c7fe93a7","{""num_scrambled_semantic"":""8"",""num_scrambled_causal"":""4"",""num_scrambled_schematic"":""4"",""participantId"":""5EF44FDA4E464CDEA4370DB69E23EBC7"",""assignmentId"":""219ad81b-dd4d-493b-a2d3-09e52d351185"",""projectId"":""9076ac92-be42-43a2-9634-8b67c7fe93a7""}","https://test12345.live/?num_scrambled_semantic=8&num_scrambled_causal=4&num_scrambled_schematic=4&participantId=5EF44FDA4E464CDEA4370DB69E23EBC7&assignmentId=219ad81b-dd4d-493b-a2d3-09e52d351185&projectId=9076ac92-be42-43a2-9634-8b67c7fe93a7","5EF44FDA4E464CDEA4370DB69E23EBC7-2025-05-22-20-15-28","","null","","[]","null","",""
"","","","","","html-audio-response","55","332104","0.0-11.0","5EF44FDA4E464CDEA4370DB69E23EBC7","5EF44FDA4E464CDEA4370DB69E23EBC7","219ad81b-dd4d-493b-a2d3-09e52d351185","9076ac92-be42-43a2-9634-8b67c7fe93a7","{""num_scrambled_semantic"":""8"",""num_scrambled_causal"":""4"",""num_scrambled_schematic"":""4"",""participantId"":""5EF44FDA4E464CDEA4370DB69E23EBC7"",""assignmentId"":""219ad81b-dd4d-493b-a2d3-09e52d351185"",""projectId"":""9076ac92-be42-43a2-9634-8b67c7fe93a7""}","https://test12345.live/?num_scrambled_semantic=8&num_scrambled_causal=4&num_scrambled_schematic=4&participantId=5EF44FDA4E464CDEA4370DB69E23EBC7&assignmentId=219ad81b-dd4d-493b-a2d3-09e52d351185&projectId=9076ac92-be42-43a2-9634-8b67c7fe93a7","5EF44FDA4E464CDEA4370DB69E23EBC7-2025-05-22-20-15-28","","34188","","[""<span style=\""color: red; font-size: 24px\""> NOW RECORDING</span><p>Please say out loud all the images you saw, in the exact order you saw them. Try to recall as many images as you can, but remember: getting the order right is more important than the number of images you recall.</p>""]","","1","cat_care_semantic"
"","","","","","image-button-response","56","338114","0.0-12.0-0.0","5EF44FDA4E464CDEA4370DB69E23EBC7","5EF44FDA4E464CDEA4370DB69E23EBC7","219ad81b-dd4d-493b-a2d3-09e52d351185","9076ac92-be42-43a2-9634-8b67c7fe93a7","{""num_scrambled_semantic"":""8"",""num_scrambled_causal"":""4"",""num_scrambled_schematic"":""4"",""participantId"":""5EF44FDA4E464CDEA4370DB69E23EBC7"",""assignmentId"":""219ad81b-dd4d-493b-a2d3-09e52d351185"",""projectId"":""9076ac92-be42-43a2-9634-8b67c7fe93a7""}","https://test12345.live/?num_scrambled_semantic=8&num_scrambled_causal=4&num_scrambled_schematic=4&participantId=5EF44FDA4E464CDEA4370DB69E23EBC7&assignmentId=219ad81b-dd4d-493b-a2d3-09e52d351185&projectId=9076ac92-be42-43a2-9634-8b67c7fe93a7","5EF44FDA4E464CDEA4370DB69E23EBC7-2025-05-22-20-15-28","","null","","images/causal_sequence/the_performance_causal/the_performance_causal_0.png","null","",""
"","","","","","image-button-response","57","342628","0.0-12.0-1.0-0.0","5EF44FDA4E464CDEA4370DB69E23EBC7","5EF44FDA4E464CDEA4370DB69E23EBC7","219ad81b-dd4d-493b-a2d3-09e52d351185","9076ac92-be42-43a2-9634-8b67c7fe93a7","{""num_scrambled_semantic"":""8"",""num_scrambled_causal"":""4"",""num_scrambled_schematic"":""4"",""participantId"":""5EF44FDA4E464CDEA4370DB69E23EBC7"",""assignmentId"":""219ad81b-dd4d-493b-a2d3-09e52d351185"",""projectId"":""9076ac92-be42-43a2-9634-8b67c7fe93a7""}","https://test12345.live/?num_scrambled_semantic=8&num_scrambled_causal=4&num_scrambled_schematic=4&participantId=5EF44FDA4E464CDEA4370DB69E23EBC7&assignmentId=219ad81b-dd4d-493b-a2d3-09e52d351185&projectId=9076ac92-be42-43a2-9634-8b67c7fe93a7","5EF44FDA4E464CDEA4370DB69E23EBC7-2025-05-22-20-15-28","","null","","images/causal_sequence/the_performance_causal/the_performance_causal_1.png","null","",""
"","","","","","image-button-response","58","345190","0.0-12.0-1.0-1.0","5EF44FDA4E464CDEA4370DB69E23EBC7","5EF44FDA4E464CDEA4370DB69E23EBC7","219ad81b-dd4d-493b-a2d3-09e52d351185","9076ac92-be42-43a2-9634-8b67c7fe93a7","{""num_scrambled_semantic"":""8"",""num_scrambled_causal"":""4"",""num_scrambled_schematic"":""4"",""participantId"":""5EF44FDA4E464CDEA4370DB69E23EBC7"",""assignmentId"":""219ad81b-dd4d-493b-a2d3-09e52d351185"",""projectId"":""9076ac92-be42-43a2-9634-8b67c7fe93a7""}","https://test12345.live/?num_scrambled_semantic=8&num_scrambled_causal=4&num_scrambled_schematic=4&participantId=5EF44FDA4E464CDEA4370DB69E23EBC7&assignmentId=219ad81b-dd4d-493b-a2d3-09e52d351185&projectId=9076ac92-be42-43a2-9634-8b67c7fe93a7","5EF44FDA4E464CDEA4370DB69E23EBC7-2025-05-22-20-15-28","","2561","","images/causal_sequence/the_performance_causal/the_performance_causal_1.png","0","",""
"","","","","","image-button-response","59","346993","0.0-12.0-1.0-2.0","5EF44FDA4E464CDEA4370DB69E23EBC7","5EF44FDA4E464CDEA4370DB69E23EBC7","219ad81b-dd4d-493b-a2d3-09e52d351185","9076ac92-be42-43a2-9634-8b67c7fe93a7","{""num_scrambled_semantic"":""8"",""num_scrambled_causal"":""4"",""num_scrambled_schematic"":""4"",""participantId"":""5EF44FDA4E464CDEA4370DB69E23EBC7"",""assignmentId"":""219ad81b-dd4d-493b-a2d3-09e52d351185"",""projectId"":""9076ac92-be42-43a2-9634-8b67c7fe93a7""}","https://test12345.live/?num_scrambled_semantic=8&num_scrambled_causal=4&num_scrambled_schematic=4&participantId=5EF44FDA4E464CDEA4370DB69E23EBC7&assignmentId=219ad81b-dd4d-493b-a2d3-09e52d351185&projectId=9076ac92-be42-43a2-9634-8b67c7fe93a7","5EF44FDA4E464CDEA4370DB69E23EBC7-2025-05-22-20-15-28","","null","","[]","null","",""
"","","","","","image-button-response","60","351499","0.0-12.0-1.0-0.1","5EF44FDA4E464CDEA4370DB69E23EBC7","5EF44FDA4E464CDEA4370DB69E23EBC7","219ad81b-dd4d-493b-a2d3-09e52d351185","9076ac92-be42-43a2-9634-8b67c7fe93a7","{""num_scrambled_semantic"":""8"",""num_scrambled_causal"":""4"",""num_scrambled_schematic"":""4"",""participantId"":""5EF44FDA4E464CDEA4370DB69E23EBC7"",""assignmentId"":""219ad81b-dd4d-493b-a2d3-09e52d351185"",""projectId"":""9076ac92-be42-43a2-9634-8b67c7fe93a7""}","https://test12345.live/?num_scrambled_semantic=8&num_scrambled_causal=4&num_scrambled_schematic=4&participantId=5EF44FDA4E464CDEA4370DB69E23EBC7&assignmentId=219ad81b-dd4d-493b-a2d3-09e52d351185&projectId=9076ac92-be42-43a2-9634-8b67c7fe93a7","5EF44FDA4E464CDEA4370DB69E23EBC7-2025-05-22-20-15-28","","null","","images/causal_sequence/the_performance_causal/the_performance_causal_2.png","null","",""
"","","","","","image-button-response","61","352451","0.0-12.0-1.0-1.1","5EF44FDA4E464CDEA4370DB69E23EBC7","5EF44FDA4E464CDEA4370DB69E23EBC7","219ad81b-dd4d-493b-a2d3-09e52d351185","9076ac92-be42-43a2-9634-8b67c7fe93a7","{""num_scrambled_semantic"":""8"",""num_scrambled_causal"":""4"",""num_scrambled_schematic"":""4"",""participantId"":""5EF44FDA4E464CDEA4370DB69E23EBC7"",""assignmentId"":""219ad81b-dd4d-493b-a2d3-09e52d351185"",""projectId"":""9076ac92-be42-43a2-9634-8b67c7fe93a7""}","https://test12345.live/?num_scrambled_semantic=8&num_scrambled_causal=4&num_scrambled_schematic=4&participantId=5EF44FDA4E464CDEA4370DB69E23EBC7&assignmentId=219ad81b-dd4d-493b-a2d3-09e52d351185&projectId=9076ac92-be42-43a2-9634-8b67c7fe93a7","5EF44FDA4E464CDEA4370DB69E23EBC7-2025-05-22-20-15-28","","951","","images/causal_sequence/the_performance_causal/the_performance_causal_2.png","0","",""
"","","","","","image-button-response","62","354260","0.0-12.0-1.0-2.1","5EF44FDA4E464CDEA4370DB69E23EBC7","5EF44FDA4E464CDEA4370DB69E23EBC7","219ad81b-dd4d-493b-a2d3-09e52d351185","9076ac92-be42-43a2-9634-8b67c7fe93a7","{""num_scrambled_semantic"":""8"",""num_scrambled_causal"":""4"",""num_scrambled_schematic"":""4"",""participantId"":""5EF44FDA4E464CDEA4370DB69E23EBC7"",""assignmentId"":""219ad81b-dd4d-493b-a2d3-09e52d351185"",""projectId"":""9076ac92-be42-43a2-9634-8b67c7fe93a7""}","https://test12345.live/?num_scrambled_semantic=8&num_scrambled_causal=4&num_scrambled_schematic=4&participantId=5EF44FDA4E464CDEA4370DB69E23EBC7&assignmentId=219ad81b-dd4d-493b-a2d3-09e52d351185&projectId=9076ac92-be42-43a2-9634-8b67c7fe93a7","5EF44FDA4E464CDEA4370DB69E23EBC7-2025-05-22-20-15-28","","null","","[]","null","",""
"","","","","","image-button-response","63","358765","0.0-12.0-1.0-0.2","5EF44FDA4E464CDEA4370DB69E23EBC7","5EF44FDA4E464CDEA4370DB69E23EBC7","219ad81b-dd4d-493b-a2d3-09e52d351185","9076ac92-be42-43a2-9634-8b67c7fe93a7","{""num_scrambled_semantic"":""8"",""num_scrambled_causal"":""4"",""num_scrambled_schematic"":""4"",""participantId"":""5EF44FDA4E464CDEA4370DB69E23EBC7"",""assignmentId"":""219ad81b-dd4d-493b-a2d3-09e52d351185"",""projectId"":""9076ac92-be42-43a2-9634-8b67c7fe93a7""}","https://test12345.live/?num_scrambled_semantic=8&num_scrambled_causal=4&num_scrambled_schematic=4&participantId=5EF44FDA4E464CDEA4370DB69E23EBC7&assignmentId=219ad81b-dd4d-493b-a2d3-09e52d351185&projectId=9076ac92-be42-43a2-9634-8b67c7fe93a7","5EF44FDA4E464CDEA4370DB69E23EBC7-2025-05-22-20-15-28","","null","","images/causal_sequence/the_performance_causal/the_performance_causal_3.png","null","",""
"","","","","","image-button-response","64","359461","0.0-12.0-1.0-1.2","5EF44FDA4E464CDEA4370DB69E23EBC7","5EF44FDA4E464CDEA4370DB69E23EBC7","219ad81b-dd4d-493b-a2d3-09e52d351185","9076ac92-be42-43a2-9634-8b67c7fe93a7","{""num_scrambled_semantic"":""8"",""num_scrambled_causal"":""4"",""num_scrambled_schematic"":""4"",""participantId"":""5EF44FDA4E464CDEA4370DB69E23EBC7"",""assignmentId"":""219ad81b-dd4d-493b-a2d3-09e52d351185"",""projectId"":""9076ac92-be42-43a2-9634-8b67c7fe93a7""}","https://test12345.live/?num_scrambled_semantic=8&num_scrambled_causal=4&num_scrambled_schematic=4&participantId=5EF44FDA4E464CDEA4370DB69E23EBC7&assignmentId=219ad81b-dd4d-493b-a2d3-09e52d351185&projectId=9076ac92-be42-43a2-9634-8b67c7fe93a7","5EF44FDA4E464CDEA4370DB69E23EBC7-2025-05-22-20-15-28","","695","","images/causal_sequence/the_performance_causal/the_performance_causal_3.png","0","",""
"","","","","","image-button-response","65","361271","0.0-12.0-1.0-2.2","5EF44FDA4E464CDEA4370DB69E23EBC7","5EF44FDA4E464CDEA4370DB69E23EBC7","219ad81b-dd4d-493b-a2d3-09e52d351185","9076ac92-be42-43a2-9634-8b67c7fe93a7","{""num_scrambled_semantic"":""8"",""num_scrambled_causal"":""4"",""num_scrambled_schematic"":""4"",""participantId"":""5EF44FDA4E464CDEA4370DB69E23EBC7"",""assignmentId"":""219ad81b-dd4d-493b-a2d3-09e52d351185"",""projectId"":""9076ac92-be42-43a2-9634-8b67c7fe93a7""}","https://test12345.live/?num_scrambled_semantic=8&num_scrambled_causal=4&num_scrambled_schematic=4&participantId=5EF44FDA4E464CDEA4370DB69E23EBC7&assignmentId=219ad81b-dd4d-493b-a2d3-09e52d351185&projectId=9076ac92-be42-43a2-9634-8b67c7fe93a7","5EF44FDA4E464CDEA4370DB69E23EBC7-2025-05-22-20-15-28","","null","","[]","null","",""
"","","","","","image-button-response","66","365781","0.0-12.0-1.0-0.3","5EF44FDA4E464CDEA4370DB69E23EBC7","5EF44FDA4E464CDEA4370DB69E23EBC7","219ad81b-dd4d-493b-a2d3-09e52d351185","9076ac92-be42-43a2-9634-8b67c7fe93a7","{""num_scrambled_semantic"":""8"",""num_scrambled_causal"":""4"",""num_scrambled_schematic"":""4"",""participantId"":""5EF44FDA4E464CDEA4370DB69E23EBC7"",""assignmentId"":""219ad81b-dd4d-493b-a2d3-09e52d351185"",""projectId"":""9076ac92-be42-43a2-9634-8b67c7fe93a7""}","https://test12345.live/?num_scrambled_semantic=8&num_scrambled_causal=4&num_scrambled_schematic=4&participantId=5EF44FDA4E464CDEA4370DB69E23EBC7&assignmentId=219ad81b-dd4d-493b-a2d3-09e52d351185&projectId=9076ac92-be42-43a2-9634-8b67c7fe93a7","5EF44FDA4E464CDEA4370DB69E23EBC7-2025-05-22-20-15-28","","null","","images/causal_sequence/the_performance_causal/the_performance_causal_4.png","null","",""
"","","","","","image-button-response","67","367123","0.0-12.0-1.0-1.3","5EF44FDA4E464CDEA4370DB69E23EBC7","5EF44FDA4E464CDEA4370DB69E23EBC7","219ad81b-dd4d-493b-a2d3-09e52d351185","9076ac92-be42-43a2-9634-8b67c7fe93a7","{""num_scrambled_semantic"":""8"",""num_scrambled_causal"":""4"",""num_scrambled_schematic"":""4"",""participantId"":""5EF44FDA4E464CDEA4370DB69E23EBC7"",""assignmentId"":""219ad81b-dd4d-493b-a2d3-09e52d351185"",""projectId"":""9076ac92-be42-43a2-9634-8b67c7fe93a7""}","https://test12345.live/?num_scrambled_semantic=8&num_scrambled_causal=4&num_scrambled_schematic=4&participantId=5EF44FDA4E464CDEA4370DB69E23EBC7&assignmentId=219ad81b-dd4d-493b-a2d3-09e52d351185&projectId=9076ac92-be42-43a2-9634-8b67c7fe93a7","5EF44FDA4E464CDEA4370DB69E23EBC7-2025-05-22-20-15-28","","1341","","images/causal_sequence/the_performance_causal/the_performance_causal_4.png","0","",""
"","","","","","image-button-response","68","368927","0.0-12.0-1.0-2.3","5EF44FDA4E464CDEA4370DB69E23EBC7","5EF44FDA4E464CDEA4370DB69E23EBC7","219ad81b-dd4d-493b-a2d3-09e52d351185","9076ac92-be42-43a2-9634-8b67c7fe93a7","{""num_scrambled_semantic"":""8"",""num_scrambled_causal"":""4"",""num_scrambled_schematic"":""4"",""participantId"":""5EF44FDA4E464CDEA4370DB69E23EBC7"",""assignmentId"":""219ad81b-dd4d-493b-a2d3-09e52d351185"",""projectId"":""9076ac92-be42-43a2-9634-8b67c7fe93a7""}","https://test12345.live/?num_scrambled_semantic=8&num_scrambled_causal=4&num_scrambled_schematic=4&participantId=5EF44FDA4E464CDEA4370DB69E23EBC7&assignmentId=219ad81b-dd4d-493b-a2d3-09e52d351185&projectId=9076ac92-be42-43a2-9634-8b67c7fe93a7","5EF44FDA4E464CDEA4370DB69E23EBC7-2025-05-22-20-15-28","","null","","[]","null","",""
"","","","","","image-button-response","69","373430","0.0-12.0-1.0-0.4","5EF44FDA4E464CDEA4370DB69E23EBC7","5EF44FDA4E464CDEA4370DB69E23EBC7","219ad81b-dd4d-493b-a2d3-09e52d351185","9076ac92-be42-43a2-9634-8b67c7fe93a7","{""num_scrambled_semantic"":""8"",""num_scrambled_causal"":""4"",""num_scrambled_schematic"":""4"",""participantId"":""5EF44FDA4E464CDEA4370DB69E23EBC7"",""assignmentId"":""219ad81b-dd4d-493b-a2d3-09e52d351185"",""projectId"":""9076ac92-be42-43a2-9634-8b67c7fe93a7""}","https://test12345.live/?num_scrambled_semantic=8&num_scrambled_causal=4&num_scrambled_schematic=4&participantId=5EF44FDA4E464CDEA4370DB69E23EBC7&assignmentId=219ad81b-dd4d-493b-a2d3-09e52d351185&projectId=9076ac92-be42-43a2-9634-8b67c7fe93a7","5EF44FDA4E464CDEA4370DB69E23EBC7-2025-05-22-20-15-28","","null","","images/causal_sequence/the_performance_causal/the_performance_causal_5.png","null","",""
"","","","","","image-button-response","70","374348","0.0-12.0-1.0-1.4","5EF44FDA4E464CDEA4370DB69E23EBC7","5EF44FDA4E464CDEA4370DB69E23EBC7","219ad81b-dd4d-493b-a2d3-09e52d351185","9076ac92-be42-43a2-9634-8b67c7fe93a7","{""num_scrambled_semantic"":""8"",""num_scrambled_causal"":""4"",""num_scrambled_schematic"":""4"",""participantId"":""5EF44FDA4E464CDEA4370DB69E23EBC7"",""assignmentId"":""219ad81b-dd4d-493b-a2d3-09e52d351185"",""projectId"":""9076ac92-be42-43a2-9634-8b67c7fe93a7""}","https://test12345.live/?num_scrambled_semantic=8&num_scrambled_causal=4&num_scrambled_schematic=4&participantId=5EF44FDA4E464CDEA4370DB69E23EBC7&assignmentId=219ad81b-dd4d-493b-a2d3-09e52d351185&projectId=9076ac92-be42-43a2-9634-8b67c7fe93a7","5EF44FDA4E464CDEA4370DB69E23EBC7-2025-05-22-20-15-28","","918","","images/causal_sequence/the_performance_causal/the_performance_causal_5.png","0","",""
"","","","","","image-button-response","71","376155","0.0-12.0-1.0-2.4","5EF44FDA4E464CDEA4370DB69E23EBC7","5EF44FDA4E464CDEA4370DB69E23EBC7","219ad81b-dd4d-493b-a2d3-09e52d351185","9076ac92-be42-43a2-9634-8b67c7fe93a7","{""num_scrambled_semantic"":""8"",""num_scrambled_causal"":""4"",""num_scrambled_schematic"":""4"",""participantId"":""5EF44FDA4E464CDEA4370DB69E23EBC7"",""assignmentId"":""219ad81b-dd4d-493b-a2d3-09e52d351185"",""projectId"":""9076ac92-be42-43a2-9634-8b67c7fe93a7""}","https://test12345.live/?num_scrambled_semantic=8&num_scrambled_causal=4&num_scrambled_schematic=4&participantId=5EF44FDA4E464CDEA4370DB69E23EBC7&assignmentId=219ad81b-dd4d-493b-a2d3-09e52d351185&projectId=9076ac92-be42-43a2-9634-8b67c7fe93a7","5EF44FDA4E464CDEA4370DB69E23EBC7-2025-05-22-20-15-28","","null","","[]","null","",""
"","","","","","image-button-response","72","380658","0.0-12.0-1.0-0.5","5EF44FDA4E464CDEA4370DB69E23EBC7","5EF44FDA4E464CDEA4370DB69E23EBC7","219ad81b-dd4d-493b-a2d3-09e52d351185","9076ac92-be42-43a2-9634-8b67c7fe93a7","{""num_scrambled_semantic"":""8"",""num_scrambled_causal"":""4"",""num_scrambled_schematic"":""4"",""participantId"":""5EF44FDA4E464CDEA4370DB69E23EBC7"",""assignmentId"":""219ad81b-dd4d-493b-a2d3-09e52d351185"",""projectId"":""9076ac92-be42-43a2-9634-8b67c7fe93a7""}","https://test12345.live/?num_scrambled_semantic=8&num_scrambled_causal=4&num_scrambled_schematic=4&participantId=5EF44FDA4E464CDEA4370DB69E23EBC7&assignmentId=219ad81b-dd4d-493b-a2d3-09e52d351185&projectId=9076ac92-be42-43a2-9634-8b67c7fe93a7","5EF44FDA4E464CDEA4370DB69E23EBC7-2025-05-22-20-15-28","","null","","images/causal_sequence/the_performance_causal/the_performance_causal_6.png","null","",""
"","","","","","image-button-response","73","381484","0.0-12.0-1.0-1.5","5EF44FDA4E464CDEA4370DB69E23EBC7","5EF44FDA4E464CDEA4370DB69E23EBC7","219ad81b-dd4d-493b-a2d3-09e52d351185","9076ac92-be42-43a2-9634-8b67c7fe93a7","{""num_scrambled_semantic"":""8"",""num_scrambled_causal"":""4"",""num_scrambled_schematic"":""4"",""participantId"":""5EF44FDA4E464CDEA4370DB69E23EBC7"",""assignmentId"":""219ad81b-dd4d-493b-a2d3-09e52d351185"",""projectId"":""9076ac92-be42-43a2-9634-8b67c7fe93a7""}","https://test12345.live/?num_scrambled_semantic=8&num_scrambled_causal=4&num_scrambled_schematic=4&participantId=5EF44FDA4E464CDEA4370DB69E23EBC7&assignmentId=219ad81b-dd4d-493b-a2d3-09e52d351185&projectId=9076ac92-be42-43a2-9634-8b67c7fe93a7","5EF44FDA4E464CDEA4370DB69E23EBC7-2025-05-22-20-15-28","","825","","images/causal_sequence/the_performance_causal/the_performance_causal_6.png","0","",""
"","","","","","image-button-response","74","383298","0.0-12.0-1.0-2.5","5EF44FDA4E464CDEA4370DB69E23EBC7","5EF44FDA4E464CDEA4370DB69E23EBC7","219ad81b-dd4d-493b-a2d3-09e52d351185","9076ac92-be42-43a2-9634-8b67c7fe93a7","{""num_scrambled_semantic"":""8"",""num_scrambled_causal"":""4"",""num_scrambled_schematic"":""4"",""participantId"":""5EF44FDA4E464CDEA4370DB69E23EBC7"",""assignmentId"":""219ad81b-dd4d-493b-a2d3-09e52d351185"",""projectId"":""9076ac92-be42-43a2-9634-8b67c7fe93a7""}","https://test12345.live/?num_scrambled_semantic=8&num_scrambled_causal=4&num_scrambled_schematic=4&participantId=5EF44FDA4E464CDEA4370DB69E23EBC7&assignmentId=219ad81b-dd4d-493b-a2d3-09e52d351185&projectId=9076ac92-be42-43a2-9634-8b67c7fe93a7","5EF44FDA4E464CDEA4370DB69E23EBC7-2025-05-22-20-15-28","","null","","[]","null","",""
"","","","","","image-button-response","75","387812","0.0-12.0-1.0-0.6","5EF44FDA4E464CDEA4370DB69E23EBC7","5EF44FDA4E464CDEA4370DB69E23EBC7","219ad81b-dd4d-493b-a2d3-09e52d351185","9076ac92-be42-43a2-9634-8b67c7fe93a7","{""num_scrambled_semantic"":""8"",""num_scrambled_causal"":""4"",""num_scrambled_schematic"":""4"",""participantId"":""5EF44FDA4E464CDEA4370DB69E23EBC7"",""assignmentId"":""219ad81b-dd4d-493b-a2d3-09e52d351185"",""projectId"":""9076ac92-be42-43a2-9634-8b67c7fe93a7""}","https://test12345.live/?num_scrambled_semantic=8&num_scrambled_causal=4&num_scrambled_schematic=4&participantId=5EF44FDA4E464CDEA4370DB69E23EBC7&assignmentId=219ad81b-dd4d-493b-a2d3-09e52d351185&projectId=9076ac92-be42-43a2-9634-8b67c7fe93a7","5EF44FDA4E464CDEA4370DB69E23EBC7-2025-05-22-20-15-28","","null","","images/causal_sequence/the_performance_causal/the_performance_causal_7.png","null","",""
"","","","","","image-button-response","76","388897","0.0-12.0-1.0-1.6","5EF44FDA4E464CDEA4370DB69E23EBC7","5EF44FDA4E464CDEA4370DB69E23EBC7","219ad81b-dd4d-493b-a2d3-09e52d351185","9076ac92-be42-43a2-9634-8b67c7fe93a7","{""num_scrambled_semantic"":""8"",""num_scrambled_causal"":""4"",""num_scrambled_schematic"":""4"",""participantId"":""5EF44FDA4E464CDEA4370DB69E23EBC7"",""assignmentId"":""219ad81b-dd4d-493b-a2d3-09e52d351185"",""projectId"":""9076ac92-be42-43a2-9634-8b67c7fe93a7""}","https://test12345.live/?num_scrambled_semantic=8&num_scrambled_causal=4&num_scrambled_schematic=4&participantId=5EF44FDA4E464CDEA4370DB69E23EBC7&assignmentId=219ad81b-dd4d-493b-a2d3-09e52d351185&projectId=9076ac92-be42-43a2-9634-8b67c7fe93a7","5EF44FDA4E464CDEA4370DB69E23EBC7-2025-05-22-20-15-28","","1084","","images/causal_sequence/the_performance_causal/the_performance_causal_7.png","0","",""
"","","","","","image-button-response","77","390699","0.0-12.0-1.0-2.6","5EF44FDA4E464CDEA4370DB69E23EBC7","5EF44FDA4E464CDEA4370DB69E23EBC7","219ad81b-dd4d-493b-a2d3-09e52d351185","9076ac92-be42-43a2-9634-8b67c7fe93a7","{""num_scrambled_semantic"":""8"",""num_scrambled_causal"":""4"",""num_scrambled_schematic"":""4"",""participantId"":""5EF44FDA4E464CDEA4370DB69E23EBC7"",""assignmentId"":""219ad81b-dd4d-493b-a2d3-09e52d351185"",""projectId"":""9076ac92-be42-43a2-9634-8b67c7fe93a7""}","https://test12345.live/?num_scrambled_semantic=8&num_scrambled_causal=4&num_scrambled_schematic=4&participantId=5EF44FDA4E464CDEA4370DB69E23EBC7&assignmentId=219ad81b-dd4d-493b-a2d3-09e52d351185&projectId=9076ac92-be42-43a2-9634-8b67c7fe93a7","5EF44FDA4E464CDEA4370DB69E23EBC7-2025-05-22-20-15-28","","null","","[]","null","",""
"","","","","","image-button-response","78","395207","0.0-12.0-1.0-0.7","5EF44FDA4E464CDEA4370DB69E23EBC7","5EF44FDA4E464CDEA4370DB69E23EBC7","219ad81b-dd4d-493b-a2d3-09e52d351185","9076ac92-be42-43a2-9634-8b67c7fe93a7","{""num_scrambled_semantic"":""8"",""num_scrambled_causal"":""4"",""num_scrambled_schematic"":""4"",""participantId"":""5EF44FDA4E464CDEA4370DB69E23EBC7"",""assignmentId"":""219ad81b-dd4d-493b-a2d3-09e52d351185"",""projectId"":""9076ac92-be42-43a2-9634-8b67c7fe93a7""}","https://test12345.live/?num_scrambled_semantic=8&num_scrambled_causal=4&num_scrambled_schematic=4&participantId=5EF44FDA4E464CDEA4370DB69E23EBC7&assignmentId=219ad81b-dd4d-493b-a2d3-09e52d351185&projectId=9076ac92-be42-43a2-9634-8b67c7fe93a7","5EF44FDA4E464CDEA4370DB69E23EBC7-2025-05-22-20-15-28","","null","","images/causal_sequence/the_performance_causal/the_performance_causal_8.png","null","",""
"","","","","","image-button-response","79","396066","0.0-12.0-1.0-1.7","5EF44FDA4E464CDEA4370DB69E23EBC7","5EF44FDA4E464CDEA4370DB69E23EBC7","219ad81b-dd4d-493b-a2d3-09e52d351185","9076ac92-be42-43a2-9634-8b67c7fe93a7","{""num_scrambled_semantic"":""8"",""num_scrambled_causal"":""4"",""num_scrambled_schematic"":""4"",""participantId"":""5EF44FDA4E464CDEA4370DB69E23EBC7"",""assignmentId"":""219ad81b-dd4d-493b-a2d3-09e52d351185"",""projectId"":""9076ac92-be42-43a2-9634-8b67c7fe93a7""}","https://test12345.live/?num_scrambled_semantic=8&num_scrambled_causal=4&num_scrambled_schematic=4&participantId=5EF44FDA4E464CDEA4370DB69E23EBC7&assignmentId=219ad81b-dd4d-493b-a2d3-09e52d351185&projectId=9076ac92-be42-43a2-9634-8b67c7fe93a7","5EF44FDA4E464CDEA4370DB69E23EBC7-2025-05-22-20-15-28","","858","","images/causal_sequence/the_performance_causal/the_performance_causal_8.png","0","",""
"","","","","","image-button-response","80","397880","0.0-12.0-1.0-2.7","5EF44FDA4E464CDEA4370DB69E23EBC7","5EF44FDA4E464CDEA4370DB69E23EBC7","219ad81b-dd4d-493b-a2d3-09e52d351185","9076ac92-be42-43a2-9634-8b67c7fe93a7","{""num_scrambled_semantic"":""8"",""num_scrambled_causal"":""4"",""num_scrambled_schematic"":""4"",""participantId"":""5EF44FDA4E464CDEA4370DB69E23EBC7"",""assignmentId"":""219ad81b-dd4d-493b-a2d3-09e52d351185"",""projectId"":""9076ac92-be42-43a2-9634-8b67c7fe93a7""}","https://test12345.live/?num_scrambled_semantic=8&num_scrambled_causal=4&num_scrambled_schematic=4&participantId=5EF44FDA4E464CDEA4370DB69E23EBC7&assignmentId=219ad81b-dd4d-493b-a2d3-09e52d351185&projectId=9076ac92-be42-43a2-9634-8b67c7fe93a7","5EF44FDA4E464CDEA4370DB69E23EBC7-2025-05-22-20-15-28","","null","","[]","null","",""
"","","","","","image-button-response","81","402385","0.0-12.0-1.0-0.8","5EF44FDA4E464CDEA4370DB69E23EBC7","5EF44FDA4E464CDEA4370DB69E23EBC7","219ad81b-dd4d-493b-a2d3-09e52d351185","9076ac92-be42-43a2-9634-8b67c7fe93a7","{""num_scrambled_semantic"":""8"",""num_scrambled_causal"":""4"",""num_scrambled_schematic"":""4"",""participantId"":""5EF44FDA4E464CDEA4370DB69E23EBC7"",""assignmentId"":""219ad81b-dd4d-493b-a2d3-09e52d351185"",""projectId"":""9076ac92-be42-43a2-9634-8b67c7fe93a7""}","https://test12345.live/?num_scrambled_semantic=8&num_scrambled_causal=4&num_scrambled_schematic=4&participantId=5EF44FDA4E464CDEA4370DB69E23EBC7&assignmentId=219ad81b-dd4d-493b-a2d3-09e52d351185&projectId=9076ac92-be42-43a2-9634-8b67c7fe93a7","5EF44FDA4E464CDEA4370DB69E23EBC7-2025-05-22-20-15-28","","null","","images/causal_sequence/the_performance_causal/the_performance_causal_9.png","null","",""
"","","","","","image-button-response","82","403433","0.0-12.0-1.0-1.8","5EF44FDA4E464CDEA4370DB69E23EBC7","5EF44FDA4E464CDEA4370DB69E23EBC7","219ad81b-dd4d-493b-a2d3-09e52d351185","9076ac92-be42-43a2-9634-8b67c7fe93a7","{""num_scrambled_semantic"":""8"",""num_scrambled_causal"":""4"",""num_scrambled_schematic"":""4"",""participantId"":""5EF44FDA4E464CDEA4370DB69E23EBC7"",""assignmentId"":""219ad81b-dd4d-493b-a2d3-09e52d351185"",""projectId"":""9076ac92-be42-43a2-9634-8b67c7fe93a7""}","https://test12345.live/?num_scrambled_semantic=8&num_scrambled_causal=4&num_scrambled_schematic=4&participantId=5EF44FDA4E464CDEA4370DB69E23EBC7&assignmentId=219ad81b-dd4d-493b-a2d3-09e52d351185&projectId=9076ac92-be42-43a2-9634-8b67c7fe93a7","5EF44FDA4E464CDEA4370DB69E23EBC7-2025-05-22-20-15-28","","1047","","images/causal_sequence/the_performance_causal/the_performance_causal_9.png","0","",""
"","","","","","image-button-response","83","405249","0.0-12.0-1.0-2.8","5EF44FDA4E464CDEA4370DB69E23EBC7","5EF44FDA4E464CDEA4370DB69E23EBC7","219ad81b-dd4d-493b-a2d3-09e52d351185","9076ac92-be42-43a2-9634-8b67c7fe93a7","{""num_scrambled_semantic"":""8"",""num_scrambled_causal"":""4"",""num_scrambled_schematic"":""4"",""participantId"":""5EF44FDA4E464CDEA4370DB69E23EBC7"",""assignmentId"":""219ad81b-dd4d-493b-a2d3-09e52d351185"",""projectId"":""9076ac92-be42-43a2-9634-8b67c7fe93a7""}","https://test12345.live/?num_scrambled_semantic=8&num_scrambled_causal=4&num_scrambled_schematic=4&participantId=5EF44FDA4E464CDEA4370DB69E23EBC7&assignmentId=219ad81b-dd4d-493b-a2d3-09e52d351185&projectId=9076ac92-be42-43a2-9634-8b67c7fe93a7","5EF44FDA4E464CDEA4370DB69E23EBC7-2025-05-22-20-15-28","","null","","[]","null","",""
"","","","","","image-button-response","84","409755","0.0-12.0-1.0-0.9","5EF44FDA4E464CDEA4370DB69E23EBC7","5EF44FDA4E464CDEA4370DB69E23EBC7","219ad81b-dd4d-493b-a2d3-09e52d351185","9076ac92-be42-43a2-9634-8b67c7fe93a7","{""num_scrambled_semantic"":""8"",""num_scrambled_causal"":""4"",""num_scrambled_schematic"":""4"",""participantId"":""5EF44FDA4E464CDEA4370DB69E23EBC7"",""assignmentId"":""219ad81b-dd4d-493b-a2d3-09e52d351185"",""projectId"":""9076ac92-be42-43a2-9634-8b67c7fe93a7""}","https://test12345.live/?num_scrambled_semantic=8&num_scrambled_causal=4&num_scrambled_schematic=4&participantId=5EF44FDA4E464CDEA4370DB69E23EBC7&assignmentId=219ad81b-dd4d-493b-a2d3-09e52d351185&projectId=9076ac92-be42-43a2-9634-8b67c7fe93a7","5EF44FDA4E464CDEA4370DB69E23EBC7-2025-05-22-20-15-28","","null","","images/causal_sequence/the_performance_causal/the_performance_causal_ten.png","null","",""
"","","","","","image-button-response","85","410420","0.0-12.0-1.0-1.9","5EF44FDA4E464CDEA4370DB69E23EBC7","5EF44FDA4E464CDEA4370DB69E23EBC7","219ad81b-dd4d-493b-a2d3-09e52d351185","9076ac92-be42-43a2-9634-8b67c7fe93a7","{""num_scrambled_semantic"":""8"",""num_scrambled_causal"":""4"",""num_scrambled_schematic"":""4"",""participantId"":""5EF44FDA4E464CDEA4370DB69E23EBC7"",""assignmentId"":""219ad81b-dd4d-493b-a2d3-09e52d351185"",""projectId"":""9076ac92-be42-43a2-9634-8b67c7fe93a7""}","https://test12345.live/?num_scrambled_semantic=8&num_scrambled_causal=4&num_scrambled_schematic=4&participantId=5EF44FDA4E464CDEA4370DB69E23EBC7&assignmentId=219ad81b-dd4d-493b-a2d3-09e52d351185&projectId=9076ac92-be42-43a2-9634-8b67c7fe93a7","5EF44FDA4E464CDEA4370DB69E23EBC7-2025-05-22-20-15-28","","664","","images/causal_sequence/the_performance_causal/the_performance_causal_ten.png","0","",""
"","","","","","image-button-response","86","412224","0.0-12.0-1.0-2.9","5EF44FDA4E464CDEA4370DB69E23EBC7","5EF44FDA4E464CDEA4370DB69E23EBC7","219ad81b-dd4d-493b-a2d3-09e52d351185","9076ac92-be42-43a2-9634-8b67c7fe93a7","{""num_scrambled_semantic"":""8"",""num_scrambled_causal"":""4"",""num_scrambled_schematic"":""4"",""participantId"":""5EF44FDA4E464CDEA4370DB69E23EBC7"",""assignmentId"":""219ad81b-dd4d-493b-a2d3-09e52d351185"",""projectId"":""9076ac92-be42-43a2-9634-8b67c7fe93a7""}","https://test12345.live/?num_scrambled_semantic=8&num_scrambled_causal=4&num_scrambled_schematic=4&participantId=5EF44FDA4E464CDEA4370DB69E23EBC7&assignmentId=219ad81b-dd4d-493b-a2d3-09e52d351185&projectId=9076ac92-be42-43a2-9634-8b67c7fe93a7","5EF44FDA4E464CDEA4370DB69E23EBC7-2025-05-22-20-15-28","","null","","[]","null","",""
"","","","","","html-audio-response","87","446800","0.0-13.0","5EF44FDA4E464CDEA4370DB69E23EBC7","5EF44FDA4E464CDEA4370DB69E23EBC7","219ad81b-dd4d-493b-a2d3-09e52d351185","9076ac92-be42-43a2-9634-8b67c7fe93a7","{""num_scrambled_semantic"":""8"",""num_scrambled_causal"":""4"",""num_scrambled_schematic"":""4"",""participantId"":""5EF44FDA4E464CDEA4370DB69E23EBC7"",""assignmentId"":""219ad81b-dd4d-493b-a2d3-09e52d351185"",""projectId"":""9076ac92-be42-43a2-9634-8b67c7fe93a7""}","https://test12345.live/?num_scrambled_semantic=8&num_scrambled_causal=4&num_scrambled_schematic=4&participantId=5EF44FDA4E464CDEA4370DB69E23EBC7&assignmentId=219ad81b-dd4d-493b-a2d3-09e52d351185&projectId=9076ac92-be42-43a2-9634-8b67c7fe93a7","5EF44FDA4E464CDEA4370DB69E23EBC7-2025-05-22-20-15-28","","32859","","[""<span style=\""color: red; font-size: 24px\""> NOW RECORDING</span><p>Please say out loud all the images you saw, in the exact order you saw them. Try to recall as many images as you can, but remember: getting the order right is more important than the number of images you recall.</p>""]","","1","the_performance_causal"
"","","","","","image-button-response","88","452807","0.0-14.0-0.0","5EF44FDA4E464CDEA4370DB69E23EBC7","5EF44FDA4E464CDEA4370DB69E23EBC7","219ad81b-dd4d-493b-a2d3-09e52d351185","9076ac92-be42-43a2-9634-8b67c7fe93a7","{""num_scrambled_semantic"":""8"",""num_scrambled_causal"":""4"",""num_scrambled_schematic"":""4"",""participantId"":""5EF44FDA4E464CDEA4370DB69E23EBC7"",""assignmentId"":""219ad81b-dd4d-493b-a2d3-09e52d351185"",""projectId"":""9076ac92-be42-43a2-9634-8b67c7fe93a7""}","https://test12345.live/?num_scrambled_semantic=8&num_scrambled_causal=4&num_scrambled_schematic=4&participantId=5EF44FDA4E464CDEA4370DB69E23EBC7&assignmentId=219ad81b-dd4d-493b-a2d3-09e52d351185&projectId=9076ac92-be42-43a2-9634-8b67c7fe93a7","5EF44FDA4E464CDEA4370DB69E23EBC7-2025-05-22-20-15-28","","null","","images/semantic_sequence/redecorating_semantic/redecorating_semantic_0.png","null","",""
"","","","","","image-button-response","89","457316","0.0-14.0-1.0-0.0","5EF44FDA4E464CDEA4370DB69E23EBC7","5EF44FDA4E464CDEA4370DB69E23EBC7","219ad81b-dd4d-493b-a2d3-09e52d351185","9076ac92-be42-43a2-9634-8b67c7fe93a7","{""num_scrambled_semantic"":""8"",""num_scrambled_causal"":""4"",""num_scrambled_schematic"":""4"",""participantId"":""5EF44FDA4E464CDEA4370DB69E23EBC7"",""assignmentId"":""219ad81b-dd4d-493b-a2d3-09e52d351185"",""projectId"":""9076ac92-be42-43a2-9634-8b67c7fe93a7""}","https://test12345.live/?num_scrambled_semantic=8&num_scrambled_causal=4&num_scrambled_schematic=4&participantId=5EF44FDA4E464CDEA4370DB69E23EBC7&assignmentId=219ad81b-dd4d-493b-a2d3-09e52d351185&projectId=9076ac92-be42-43a2-9634-8b67c7fe93a7","5EF44FDA4E464CDEA4370DB69E23EBC7-2025-05-22-20-15-28","","null","","images/semantic_sequence/redecorating_semantic/redecorating_semantic_1.png","null","",""
"","","","","","image-button-response","90","459451","0.0-14.0-1.0-1.0","5EF44FDA4E464CDEA4370DB69E23EBC7","5EF44FDA4E464CDEA4370DB69E23EBC7","219ad81b-dd4d-493b-a2d3-09e52d351185","9076ac92-be42-43a2-9634-8b67c7fe93a7","{""num_scrambled_semantic"":""8"",""num_scrambled_causal"":""4"",""num_scrambled_schematic"":""4"",""participantId"":""5EF44FDA4E464CDEA4370DB69E23EBC7"",""assignmentId"":""219ad81b-dd4d-493b-a2d3-09e52d351185"",""projectId"":""9076ac92-be42-43a2-9634-8b67c7fe93a7""}","https://test12345.live/?num_scrambled_semantic=8&num_scrambled_causal=4&num_scrambled_schematic=4&participantId=5EF44FDA4E464CDEA4370DB69E23EBC7&assignmentId=219ad81b-dd4d-493b-a2d3-09e52d351185&projectId=9076ac92-be42-43a2-9634-8b67c7fe93a7","5EF44FDA4E464CDEA4370DB69E23EBC7-2025-05-22-20-15-28","","2135","","images/semantic_sequence/redecorating_semantic/redecorating_semantic_1.png","0","",""
"","","","","","image-button-response","91","461253","0.0-14.0-1.0-2.0","5EF44FDA4E464CDEA4370DB69E23EBC7","5EF44FDA4E464CDEA4370DB69E23EBC7","219ad81b-dd4d-493b-a2d3-09e52d351185","9076ac92-be42-43a2-9634-8b67c7fe93a7","{""num_scrambled_semantic"":""8"",""num_scrambled_causal"":""4"",""num_scrambled_schematic"":""4"",""participantId"":""5EF44FDA4E464CDEA4370DB69E23EBC7"",""assignmentId"":""219ad81b-dd4d-493b-a2d3-09e52d351185"",""projectId"":""9076ac92-be42-43a2-9634-8b67c7fe93a7""}","https://test12345.live/?num_scrambled_semantic=8&num_scrambled_causal=4&num_scrambled_schematic=4&participantId=5EF44FDA4E464CDEA4370DB69E23EBC7&assignmentId=219ad81b-dd4d-493b-a2d3-09e52d351185&projectId=9076ac92-be42-43a2-9634-8b67c7fe93a7","5EF44FDA4E464CDEA4370DB69E23EBC7-2025-05-22-20-15-28","","null","","[]","null","",""
"","","","","","image-button-response","92","465765","0.0-14.0-1.0-0.1","5EF44FDA4E464CDEA4370DB69E23EBC7","5EF44FDA4E464CDEA4370DB69E23EBC7","219ad81b-dd4d-493b-a2d3-09e52d351185","9076ac92-be42-43a2-9634-8b67c7fe93a7","{""num_scrambled_semantic"":""8"",""num_scrambled_causal"":""4"",""num_scrambled_schematic"":""4"",""participantId"":""5EF44FDA4E464CDEA4370DB69E23EBC7"",""assignmentId"":""219ad81b-dd4d-493b-a2d3-09e52d351185"",""projectId"":""9076ac92-be42-43a2-9634-8b67c7fe93a7""}","https://test12345.live/?num_scrambled_semantic=8&num_scrambled_causal=4&num_scrambled_schematic=4&participantId=5EF44FDA4E464CDEA4370DB69E23EBC7&assignmentId=219ad81b-dd4d-493b-a2d3-09e52d351185&projectId=9076ac92-be42-43a2-9634-8b67c7fe93a7","5EF44FDA4E464CDEA4370DB69E23EBC7-2025-05-22-20-15-28","","null","","images/semantic_sequence/redecorating_semantic/redecorating_semantic_2.png","null","",""
"","","","","","image-button-response","93","467743","0.0-14.0-1.0-1.1","5EF44FDA4E464CDEA4370DB69E23EBC7","5EF44FDA4E464CDEA4370DB69E23EBC7","219ad81b-dd4d-493b-a2d3-09e52d351185","9076ac92-be42-43a2-9634-8b67c7fe93a7","{""num_scrambled_semantic"":""8"",""num_scrambled_causal"":""4"",""num_scrambled_schematic"":""4"",""participantId"":""5EF44FDA4E464CDEA4370DB69E23EBC7"",""assignmentId"":""219ad81b-dd4d-493b-a2d3-09e52d351185"",""projectId"":""9076ac92-be42-43a2-9634-8b67c7fe93a7""}","https://test12345.live/?num_scrambled_semantic=8&num_scrambled_causal=4&num_scrambled_schematic=4&participantId=5EF44FDA4E464CDEA4370DB69E23EBC7&assignmentId=219ad81b-dd4d-493b-a2d3-09e52d351185&projectId=9076ac92-be42-43a2-9634-8b67c7fe93a7","5EF44FDA4E464CDEA4370DB69E23EBC7-2025-05-22-20-15-28","","1978","","images/semantic_sequence/redecorating_semantic/redecorating_semantic_2.png","0","",""
"","","","","","image-button-response","94","469544","0.0-14.0-1.0-2.1","5EF44FDA4E464CDEA4370DB69E23EBC7","5EF44FDA4E464CDEA4370DB69E23EBC7","219ad81b-dd4d-493b-a2d3-09e52d351185","9076ac92-be42-43a2-9634-8b67c7fe93a7","{""num_scrambled_semantic"":""8"",""num_scrambled_causal"":""4"",""num_scrambled_schematic"":""4"",""participantId"":""5EF44FDA4E464CDEA4370DB69E23EBC7"",""assignmentId"":""219ad81b-dd4d-493b-a2d3-09e52d351185"",""projectId"":""9076ac92-be42-43a2-9634-8b67c7fe93a7""}","https://test12345.live/?num_scrambled_semantic=8&num_scrambled_causal=4&num_scrambled_schematic=4&participantId=5EF44FDA4E464CDEA4370DB69E23EBC7&assignmentId=219ad81b-dd4d-493b-a2d3-09e52d351185&projectId=9076ac92-be42-43a2-9634-8b67c7fe93a7","5EF44FDA4E464CDEA4370DB69E23EBC7-2025-05-22-20-15-28","","null","","[]","null","",""
"","","","","","image-button-response","95","474050","0.0-14.0-1.0-0.2","5EF44FDA4E464CDEA4370DB69E23EBC7","5EF44FDA4E464CDEA4370DB69E23EBC7","219ad81b-dd4d-493b-a2d3-09e52d351185","9076ac92-be42-43a2-9634-8b67c7fe93a7","{""num_scrambled_semantic"":""8"",""num_scrambled_causal"":""4"",""num_scrambled_schematic"":""4"",""participantId"":""5EF44FDA4E464CDEA4370DB69E23EBC7"",""assignmentId"":""219ad81b-dd4d-493b-a2d3-09e52d351185"",""projectId"":""9076ac92-be42-43a2-9634-8b67c7fe93a7""}","https://test12345.live/?num_scrambled_semantic=8&num_scrambled_causal=4&num_scrambled_schematic=4&participantId=5EF44FDA4E464CDEA4370DB69E23EBC7&assignmentId=219ad81b-dd4d-493b-a2d3-09e52d351185&projectId=9076ac92-be42-43a2-9634-8b67c7fe93a7","5EF44FDA4E464CDEA4370DB69E23EBC7-2025-05-22-20-15-28","","null","","images/semantic_sequence/redecorating_semantic/redecorating_semantic_3.png","null","",""
"","","","","","image-button-response","96","475421","0.0-14.0-1.0-1.2","5EF44FDA4E464CDEA4370DB69E23EBC7","5EF44FDA4E464CDEA4370DB69E23EBC7","219ad81b-dd4d-493b-a2d3-09e52d351185","9076ac92-be42-43a2-9634-8b67c7fe93a7","{""num_scrambled_semantic"":""8"",""num_scrambled_causal"":""4"",""num_scrambled_schematic"":""4"",""participantId"":""5EF44FDA4E464CDEA4370DB69E23EBC7"",""assignmentId"":""219ad81b-dd4d-493b-a2d3-09e52d351185"",""projectId"":""9076ac92-be42-43a2-9634-8b67c7fe93a7""}","https://test12345.live/?num_scrambled_semantic=8&num_scrambled_causal=4&num_scrambled_schematic=4&participantId=5EF44FDA4E464CDEA4370DB69E23EBC7&assignmentId=219ad81b-dd4d-493b-a2d3-09e52d351185&projectId=9076ac92-be42-43a2-9634-8b67c7fe93a7","5EF44FDA4E464CDEA4370DB69E23EBC7-2025-05-22-20-15-28","","1370","","images/semantic_sequence/redecorating_semantic/redecorating_semantic_3.png","0","",""
"","","","","","image-button-response","97","477227","0.0-14.0-1.0-2.2","5EF44FDA4E464CDEA4370DB69E23EBC7","5EF44FDA4E464CDEA4370DB69E23EBC7","219ad81b-dd4d-493b-a2d3-09e52d351185","9076ac92-be42-43a2-9634-8b67c7fe93a7","{""num_scrambled_semantic"":""8"",""num_scrambled_causal"":""4"",""num_scrambled_schematic"":""4"",""participantId"":""5EF44FDA4E464CDEA4370DB69E23EBC7"",""assignmentId"":""219ad81b-dd4d-493b-a2d3-09e52d351185"",""projectId"":""9076ac92-be42-43a2-9634-8b67c7fe93a7""}","https://test12345.live/?num_scrambled_semantic=8&num_scrambled_causal=4&num_scrambled_schematic=4&participantId=5EF44FDA4E464CDEA4370DB69E23EBC7&assignmentId=219ad81b-dd4d-493b-a2d3-09e52d351185&projectId=9076ac92-be42-43a2-9634-8b67c7fe93a7","5EF44FDA4E464CDEA4370DB69E23EBC7-2025-05-22-20-15-28","","null","","[]","null","",""
"","","","","","image-button-response","98","481734","0.0-14.0-1.0-0.3","5EF44FDA4E464CDEA4370DB69E23EBC7","5EF44FDA4E464CDEA4370DB69E23EBC7","219ad81b-dd4d-493b-a2d3-09e52d351185","9076ac92-be42-43a2-9634-8b67c7fe93a7","{""num_scrambled_semantic"":""8"",""num_scrambled_causal"":""4"",""num_scrambled_schematic"":""4"",""participantId"":""5EF44FDA4E464CDEA4370DB69E23EBC7"",""assignmentId"":""219ad81b-dd4d-493b-a2d3-09e52d351185"",""projectId"":""9076ac92-be42-43a2-9634-8b67c7fe93a7""}","https://test12345.live/?num_scrambled_semantic=8&num_scrambled_causal=4&num_scrambled_schematic=4&participantId=5EF44FDA4E464CDEA4370DB69E23EBC7&assignmentId=219ad81b-dd4d-493b-a2d3-09e52d351185&projectId=9076ac92-be42-43a2-9634-8b67c7fe93a7","5EF44FDA4E464CDEA4370DB69E23EBC7-2025-05-22-20-15-28","","null","","images/semantic_sequence/redecorating_semantic/redecorating_semantic_4.png","null","",""
"","","","","","image-button-response","99","484631","0.0-14.0-1.0-1.3","5EF44FDA4E464CDEA4370DB69E23EBC7","5EF44FDA4E464CDEA4370DB69E23EBC7","219ad81b-dd4d-493b-a2d3-09e52d351185","9076ac92-be42-43a2-9634-8b67c7fe93a7","{""num_scrambled_semantic"":""8"",""num_scrambled_causal"":""4"",""num_scrambled_schematic"":""4"",""participantId"":""5EF44FDA4E464CDEA4370DB69E23EBC7"",""assignmentId"":""219ad81b-dd4d-493b-a2d3-09e52d351185"",""projectId"":""9076ac92-be42-43a2-9634-8b67c7fe93a7""}","https://test12345.live/?num_scrambled_semantic=8&num_scrambled_causal=4&num_scrambled_schematic=4&participantId=5EF44FDA4E464CDEA4370DB69E23EBC7&assignmentId=219ad81b-dd4d-493b-a2d3-09e52d351185&projectId=9076ac92-be42-43a2-9634-8b67c7fe93a7","5EF44FDA4E464CDEA4370DB69E23EBC7-2025-05-22-20-15-28","","2896","","images/semantic_sequence/redecorating_semantic/redecorating_semantic_4.png","0","",""
"","","","","","image-button-response","100","486437","0.0-14.0-1.0-2.3","5EF44FDA4E464CDEA4370DB69E23EBC7","5EF44FDA4E464CDEA4370DB69E23EBC7","219ad81b-dd4d-493b-a2d3-09e52d351185","9076ac92-be42-43a2-9634-8b67c7fe93a7","{""num_scrambled_semantic"":""8"",""num_scrambled_causal"":""4"",""num_scrambled_schematic"":""4"",""participantId"":""5EF44FDA4E464CDEA4370DB69E23EBC7"",""assignmentId"":""219ad81b-dd4d-493b-a2d3-09e52d351185"",""projectId"":""9076ac92-be42-43a2-9634-8b67c7fe93a7""}","https://test12345.live/?num_scrambled_semantic=8&num_scrambled_causal=4&num_scrambled_schematic=4&participantId=5EF44FDA4E464CDEA4370DB69E23EBC7&assignmentId=219ad81b-dd4d-493b-a2d3-09e52d351185&projectId=9076ac92-be42-43a2-9634-8b67c7fe93a7","5EF44FDA4E464CDEA4370DB69E23EBC7-2025-05-22-20-15-28","","null","","[]","null","",""
"","","","","","image-button-response","101","490950","0.0-14.0-1.0-0.4","5EF44FDA4E464CDEA4370DB69E23EBC7","5EF44FDA4E464CDEA4370DB69E23EBC7","219ad81b-dd4d-493b-a2d3-09e52d351185","9076ac92-be42-43a2-9634-8b67c7fe93a7","{""num_scrambled_semantic"":""8"",""num_scrambled_causal"":""4"",""num_scrambled_schematic"":""4"",""participantId"":""5EF44FDA4E464CDEA4370DB69E23EBC7"",""assignmentId"":""219ad81b-dd4d-493b-a2d3-09e52d351185"",""projectId"":""9076ac92-be42-43a2-9634-8b67c7fe93a7""}","https://test12345.live/?num_scrambled_semantic=8&num_scrambled_causal=4&num_scrambled_schematic=4&participantId=5EF44FDA4E464CDEA4370DB69E23EBC7&assignmentId=219ad81b-dd4d-493b-a2d3-09e52d351185&projectId=9076ac92-be42-43a2-9634-8b67c7fe93a7","5EF44FDA4E464CDEA4370DB69E23EBC7-2025-05-22-20-15-28","","null","","images/semantic_sequence/redecorating_semantic/redecorating_semantic_5.png","null","",""
"","","","","","image-button-response","102","491847","0.0-14.0-1.0-1.4","5EF44FDA4E464CDEA4370DB69E23EBC7","5EF44FDA4E464CDEA4370DB69E23EBC7","219ad81b-dd4d-493b-a2d3-09e52d351185","9076ac92-be42-43a2-9634-8b67c7fe93a7","{""num_scrambled_semantic"":""8"",""num_scrambled_causal"":""4"",""num_scrambled_schematic"":""4"",""participantId"":""5EF44FDA4E464CDEA4370DB69E23EBC7"",""assignmentId"":""219ad81b-dd4d-493b-a2d3-09e52d351185"",""projectId"":""9076ac92-be42-43a2-9634-8b67c7fe93a7""}","https://test12345.live/?num_scrambled_semantic=8&num_scrambled_causal=4&num_scrambled_schematic=4&participantId=5EF44FDA4E464CDEA4370DB69E23EBC7&assignmentId=219ad81b-dd4d-493b-a2d3-09e52d351185&projectId=9076ac92-be42-43a2-9634-8b67c7fe93a7","5EF44FDA4E464CDEA4370DB69E23EBC7-2025-05-22-20-15-28","","896","","images/semantic_sequence/redecorating_semantic/redecorating_semantic_5.png","0","",""
"","","","","","image-button-response","103","493651","0.0-14.0-1.0-2.4","5EF44FDA4E464CDEA4370DB69E23EBC7","5EF44FDA4E464CDEA4370DB69E23EBC7","219ad81b-dd4d-493b-a2d3-09e52d351185","9076ac92-be42-43a2-9634-8b67c7fe93a7","{""num_scrambled_semantic"":""8"",""num_scrambled_causal"":""4"",""num_scrambled_schematic"":""4"",""participantId"":""5EF44FDA4E464CDEA4370DB69E23EBC7"",""assignmentId"":""219ad81b-dd4d-493b-a2d3-09e52d351185"",""projectId"":""9076ac92-be42-43a2-9634-8b67c7fe93a7""}","https://test12345.live/?num_scrambled_semantic=8&num_scrambled_causal=4&num_scrambled_schematic=4&participantId=5EF44FDA4E464CDEA4370DB69E23EBC7&assignmentId=219ad81b-dd4d-493b-a2d3-09e52d351185&projectId=9076ac92-be42-43a2-9634-8b67c7fe93a7","5EF44FDA4E464CDEA4370DB69E23EBC7-2025-05-22-20-15-28","","null","","[]","null","",""
"","","","","","image-button-response","104","498157","0.0-14.0-1.0-0.5","5EF44FDA4E464CDEA4370DB69E23EBC7","5EF44FDA4E464CDEA4370DB69E23EBC7","219ad81b-dd4d-493b-a2d3-09e52d351185","9076ac92-be42-43a2-9634-8b67c7fe93a7","{""num_scrambled_semantic"":""8"",""num_scrambled_causal"":""4"",""num_scrambled_schematic"":""4"",""participantId"":""5EF44FDA4E464CDEA4370DB69E23EBC7"",""assignmentId"":""219ad81b-dd4d-493b-a2d3-09e52d351185"",""projectId"":""9076ac92-be42-43a2-9634-8b67c7fe93a7""}","https://test12345.live/?num_scrambled_semantic=8&num_scrambled_causal=4&num_scrambled_schematic=4&participantId=5EF44FDA4E464CDEA4370DB69E23EBC7&assignmentId=219ad81b-dd4d-493b-a2d3-09e52d351185&projectId=9076ac92-be42-43a2-9634-8b67c7fe93a7","5EF44FDA4E464CDEA4370DB69E23EBC7-2025-05-22-20-15-28","","null","","images/semantic_sequence/redecorating_semantic/redecorating_semantic_6.png","null","",""
"","","","","","image-button-response","105","500603","0.0-14.0-1.0-1.5","5EF44FDA4E464CDEA4370DB69E23EBC7","5EF44FDA4E464CDEA4370DB69E23EBC7","219ad81b-dd4d-493b-a2d3-09e52d351185","9076ac92-be42-43a2-9634-8b67c7fe93a7","{""num_scrambled_semantic"":""8"",""num_scrambled_causal"":""4"",""num_scrambled_schematic"":""4"",""participantId"":""5EF44FDA4E464CDEA4370DB69E23EBC7"",""assignmentId"":""219ad81b-dd4d-493b-a2d3-09e52d351185"",""projectId"":""9076ac92-be42-43a2-9634-8b67c7fe93a7""}","https://test12345.live/?num_scrambled_semantic=8&num_scrambled_causal=4&num_scrambled_schematic=4&participantId=5EF44FDA4E464CDEA4370DB69E23EBC7&assignmentId=219ad81b-dd4d-493b-a2d3-09e52d351185&projectId=9076ac92-be42-43a2-9634-8b67c7fe93a7","5EF44FDA4E464CDEA4370DB69E23EBC7-2025-05-22-20-15-28","","2444","","images/semantic_sequence/redecorating_semantic/redecorating_semantic_6.png","0","",""
"","","","","","image-button-response","106","502419","0.0-14.0-1.0-2.5","5EF44FDA4E464CDEA4370DB69E23EBC7","5EF44FDA4E464CDEA4370DB69E23EBC7","219ad81b-dd4d-493b-a2d3-09e52d351185","9076ac92-be42-43a2-9634-8b67c7fe93a7","{""num_scrambled_semantic"":""8"",""num_scrambled_causal"":""4"",""num_scrambled_schematic"":""4"",""participantId"":""5EF44FDA4E464CDEA4370DB69E23EBC7"",""assignmentId"":""219ad81b-dd4d-493b-a2d3-09e52d351185"",""projectId"":""9076ac92-be42-43a2-9634-8b67c7fe93a7""}","https://test12345.live/?num_scrambled_semantic=8&num_scrambled_causal=4&num_scrambled_schematic=4&participantId=5EF44FDA4E464CDEA4370DB69E23EBC7&assignmentId=219ad81b-dd4d-493b-a2d3-09e52d351185&projectId=9076ac92-be42-43a2-9634-8b67c7fe93a7","5EF44FDA4E464CDEA4370DB69E23EBC7-2025-05-22-20-15-28","","null","","[]","null","",""
"","","","","","image-button-response","107","506934","0.0-14.0-1.0-0.6","5EF44FDA4E464CDEA4370DB69E23EBC7","5EF44FDA4E464CDEA4370DB69E23EBC7","219ad81b-dd4d-493b-a2d3-09e52d351185","9076ac92-be42-43a2-9634-8b67c7fe93a7","{""num_scrambled_semantic"":""8"",""num_scrambled_causal"":""4"",""num_scrambled_schematic"":""4"",""participantId"":""5EF44FDA4E464CDEA4370DB69E23EBC7"",""assignmentId"":""219ad81b-dd4d-493b-a2d3-09e52d351185"",""projectId"":""9076ac92-be42-43a2-9634-8b67c7fe93a7""}","https://test12345.live/?num_scrambled_semantic=8&num_scrambled_causal=4&num_scrambled_schematic=4&participantId=5EF44FDA4E464CDEA4370DB69E23EBC7&assignmentId=219ad81b-dd4d-493b-a2d3-09e52d351185&projectId=9076ac92-be42-43a2-9634-8b67c7fe93a7","5EF44FDA4E464CDEA4370DB69E23EBC7-2025-05-22-20-15-28","","null","","images/semantic_sequence/redecorating_semantic/redecorating_semantic_7.png","null","",""
"","","","","","image-button-response","108","507993","0.0-14.0-1.0-1.6","5EF44FDA4E464CDEA4370DB69E23EBC7","5EF44FDA4E464CDEA4370DB69E23EBC7","219ad81b-dd4d-493b-a2d3-09e52d351185","9076ac92-be42-43a2-9634-8b67c7fe93a7","{""num_scrambled_semantic"":""8"",""num_scrambled_causal"":""4"",""num_scrambled_schematic"":""4"",""participantId"":""5EF44FDA4E464CDEA4370DB69E23EBC7"",""assignmentId"":""219ad81b-dd4d-493b-a2d3-09e52d351185"",""projectId"":""9076ac92-be42-43a2-9634-8b67c7fe93a7""}","https://test12345.live/?num_scrambled_semantic=8&num_scrambled_causal=4&num_scrambled_schematic=4&participantId=5EF44FDA4E464CDEA4370DB69E23EBC7&assignmentId=219ad81b-dd4d-493b-a2d3-09e52d351185&projectId=9076ac92-be42-43a2-9634-8b67c7fe93a7","5EF44FDA4E464CDEA4370DB69E23EBC7-2025-05-22-20-15-28","","1058","","images/semantic_sequence/redecorating_semantic/redecorating_semantic_7.png","0","",""
"","","","","","image-button-response","109","509808","0.0-14.0-1.0-2.6","5EF44FDA4E464CDEA4370DB69E23EBC7","5EF44FDA4E464CDEA4370DB69E23EBC7","219ad81b-dd4d-493b-a2d3-09e52d351185","9076ac92-be42-43a2-9634-8b67c7fe93a7","{""num_scrambled_semantic"":""8"",""num_scrambled_causal"":""4"",""num_scrambled_schematic"":""4"",""participantId"":""5EF44FDA4E464CDEA4370DB69E23EBC7"",""assignmentId"":""219ad81b-dd4d-493b-a2d3-09e52d351185"",""projectId"":""9076ac92-be42-43a2-9634-8b67c7fe93a7""}","https://test12345.live/?num_scrambled_semantic=8&num_scrambled_causal=4&num_scrambled_schematic=4&participantId=5EF44FDA4E464CDEA4370DB69E23EBC7&assignmentId=219ad81b-dd4d-493b-a2d3-09e52d351185&projectId=9076ac92-be42-43a2-9634-8b67c7fe93a7","5EF44FDA4E464CDEA4370DB69E23EBC7-2025-05-22-20-15-28","","null","","[]","null","",""
"","","","","","image-button-response","110","514309","0.0-14.0-1.0-0.7","5EF44FDA4E464CDEA4370DB69E23EBC7","5EF44FDA4E464CDEA4370DB69E23EBC7","219ad81b-dd4d-493b-a2d3-09e52d351185","9076ac92-be42-43a2-9634-8b67c7fe93a7","{""num_scrambled_semantic"":""8"",""num_scrambled_causal"":""4"",""num_scrambled_schematic"":""4"",""participantId"":""5EF44FDA4E464CDEA4370DB69E23EBC7"",""assignmentId"":""219ad81b-dd4d-493b-a2d3-09e52d351185"",""projectId"":""9076ac92-be42-43a2-9634-8b67c7fe93a7""}","https://test12345.live/?num_scrambled_semantic=8&num_scrambled_causal=4&num_scrambled_schematic=4&participantId=5EF44FDA4E464CDEA4370DB69E23EBC7&assignmentId=219ad81b-dd4d-493b-a2d3-09e52d351185&projectId=9076ac92-be42-43a2-9634-8b67c7fe93a7","5EF44FDA4E464CDEA4370DB69E23EBC7-2025-05-22-20-15-28","","null","","images/semantic_sequence/redecorating_semantic/redecorating_semantic_8.png","null","",""
"","","","","","image-button-response","111","514951","0.0-14.0-1.0-1.7","5EF44FDA4E464CDEA4370DB69E23EBC7","5EF44FDA4E464CDEA4370DB69E23EBC7","219ad81b-dd4d-493b-a2d3-09e52d351185","9076ac92-be42-43a2-9634-8b67c7fe93a7","{""num_scrambled_semantic"":""8"",""num_scrambled_causal"":""4"",""num_scrambled_schematic"":""4"",""participantId"":""5EF44FDA4E464CDEA4370DB69E23EBC7"",""assignmentId"":""219ad81b-dd4d-493b-a2d3-09e52d351185"",""projectId"":""9076ac92-be42-43a2-9634-8b67c7fe93a7""}","https://test12345.live/?num_scrambled_semantic=8&num_scrambled_causal=4&num_scrambled_schematic=4&participantId=5EF44FDA4E464CDEA4370DB69E23EBC7&assignmentId=219ad81b-dd4d-493b-a2d3-09e52d351185&projectId=9076ac92-be42-43a2-9634-8b67c7fe93a7","5EF44FDA4E464CDEA4370DB69E23EBC7-2025-05-22-20-15-28","","642","","images/semantic_sequence/redecorating_semantic/redecorating_semantic_8.png","0","",""
"","","","","","image-button-response","112","516762","0.0-14.0-1.0-2.7","5EF44FDA4E464CDEA4370DB69E23EBC7","5EF44FDA4E464CDEA4370DB69E23EBC7","219ad81b-dd4d-493b-a2d3-09e52d351185","9076ac92-be42-43a2-9634-8b67c7fe93a7","{""num_scrambled_semantic"":""8"",""num_scrambled_causal"":""4"",""num_scrambled_schematic"":""4"",""participantId"":""5EF44FDA4E464CDEA4370DB69E23EBC7"",""assignmentId"":""219ad81b-dd4d-493b-a2d3-09e52d351185"",""projectId"":""9076ac92-be42-43a2-9634-8b67c7fe93a7""}","https://test12345.live/?num_scrambled_semantic=8&num_scrambled_causal=4&num_scrambled_schematic=4&participantId=5EF44FDA4E464CDEA4370DB69E23EBC7&assignmentId=219ad81b-dd4d-493b-a2d3-09e52d351185&projectId=9076ac92-be42-43a2-9634-8b67c7fe93a7","5EF44FDA4E464CDEA4370DB69E23EBC7-2025-05-22-20-15-28","","null","","[]","null","",""
"","","","","","image-button-response","113","521275","0.0-14.0-1.0-0.8","5EF44FDA4E464CDEA4370DB69E23EBC7","5EF44FDA4E464CDEA4370DB69E23EBC7","219ad81b-dd4d-493b-a2d3-09e52d351185","9076ac92-be42-43a2-9634-8b67c7fe93a7","{""num_scrambled_semantic"":""8"",""num_scrambled_causal"":""4"",""num_scrambled_schematic"":""4"",""participantId"":""5EF44FDA4E464CDEA4370DB69E23EBC7"",""assignmentId"":""219ad81b-dd4d-493b-a2d3-09e52d351185"",""projectId"":""9076ac92-be42-43a2-9634-8b67c7fe93a7""}","https://test12345.live/?num_scrambled_semantic=8&num_scrambled_causal=4&num_scrambled_schematic=4&participantId=5EF44FDA4E464CDEA4370DB69E23EBC7&assignmentId=219ad81b-dd4d-493b-a2d3-09e52d351185&projectId=9076ac92-be42-43a2-9634-8b67c7fe93a7","5EF44FDA4E464CDEA4370DB69E23EBC7-2025-05-22-20-15-28","","null","","images/semantic_sequence/redecorating_semantic/redecorating_semantic_9.png","null","",""
