"success","timeout","failed_images","failed_audio","failed_video","trial_type","trial_index","time_elapsed","internal_node_id","subject","subject_id","study_id","session_id","urlvar","current_url","audio_id","view_history","rt","device_id","stimulus","response","estimated_stimulus_onset","seq_name"
"true","false","[]","[]","[]","preload","0","4414","0.0-0.0","5F1A52C86AF248B5BE88E6175692917B","5F1A52C86AF248B5BE88E6175692917B","0198be20-ac77-7156-aed4-df2f5ede3935","0198be1d-574a-752e-ae53-1d263a30e856","{""num_scrambled_semantic"":""8"",""num_scrambled_causal"":""4"",""num_scrambled_schematic"":""4"",""participantId"":""5F1A52C86AF248B5BE88E6175692917B"",""assignmentId"":""0198be20-ac77-7156-aed4-df2f5ede3935"",""projectId"":""0198be1d-574a-752e-ae53-1d263a30e856""}","https://test12345.live/?num_scrambled_semantic=8&num_scrambled_causal=4&num_scrambled_schematic=4&participantId=5F1A52C86AF248B5BE88E6175692917B&assignmentId=0198be20-ac77-7156-aed4-df2f5ede3935&projectId=0198be1d-574a-752e-ae53-1d263a30e856","5F1A52C86AF248B5BE88E6175692917B-2025-08-18-17-35-31","","","","","","",""
"","","","","","instructions","1","16859","0.0-1.0","5F1A52C86AF248B5BE88E6175692917B","5F1A52C86AF248B5BE88E6175692917B","0198be20-ac77-7156-aed4-df2f5ede3935","0198be1d-574a-752e-ae53-1d263a30e856","{""num_scrambled_semantic"":""8"",""num_scrambled_causal"":""4"",""num_scrambled_schematic"":""4"",""participantId"":""5F1A52C86AF248B5BE88E6175692917B"",""assignmentId"":""0198be20-ac77-7156-aed4-df2f5ede3935"",""projectId"":""0198be1d-574a-752e-ae53-1d263a30e856""}","https://test12345.live/?num_scrambled_semantic=8&num_scrambled_causal=4&num_scrambled_schematic=4&participantId=5F1A52C86AF248B5BE88E6175692917B&assignmentId=0198be20-ac77-7156-aed4-df2f5ede3935&projectId=0198be1d-574a-752e-ae53-1d263a30e856","5F1A52C86AF248B5BE88E6175692917B-2025-08-18-17-35-31","[{""page_index"":0,""viewing_time"":12444}]","12445","","","","",""
"","","","","","instructions","2","20930","0.0-2.0","5F1A52C86AF248B5BE88E6175692917B","5F1A52C86AF248B5BE88E6175692917B","0198be20-ac77-7156-aed4-df2f5ede3935","0198be1d-574a-752e-ae53-1d263a30e856","{""num_scrambled_semantic"":""8"",""num_scrambled_causal"":""4"",""num_scrambled_schematic"":""4"",""participantId"":""5F1A52C86AF248B5BE88E6175692917B"",""assignmentId"":""0198be20-ac77-7156-aed4-df2f5ede3935"",""projectId"":""0198be1d-574a-752e-ae53-1d263a30e856""}","https://test12345.live/?num_scrambled_semantic=8&num_scrambled_causal=4&num_scrambled_schematic=4&participantId=5F1A52C86AF248B5BE88E6175692917B&assignmentId=0198be20-ac77-7156-aed4-df2f5ede3935&projectId=0198be1d-574a-752e-ae53-1d263a30e856","5F1A52C86AF248B5BE88E6175692917B-2025-08-18-17-35-31","[{""page_index"":0,""viewing_time"":4071}]","4071","","","","",""
"true","","","","","fullscreen","3","23392","0.0-3.0","5F1A52C86AF248B5BE88E6175692917B","5F1A52C86AF248B5BE88E6175692917B","0198be20-ac77-7156-aed4-df2f5ede3935","0198be1d-574a-752e-ae53-1d263a30e856","{""num_scrambled_semantic"":""8"",""num_scrambled_causal"":""4"",""num_scrambled_schematic"":""4"",""participantId"":""5F1A52C86AF248B5BE88E6175692917B"",""assignmentId"":""0198be20-ac77-7156-aed4-df2f5ede3935"",""projectId"":""0198be1d-574a-752e-ae53-1d263a30e856""}","https://test12345.live/?num_scrambled_semantic=8&num_scrambled_causal=4&num_scrambled_schematic=4&participantId=5F1A52C86AF248B5BE88E6175692917B&assignmentId=0198be20-ac77-7156-aed4-df2f5ede3935&projectId=0198be1d-574a-752e-ae53-1d263a30e856","5F1A52C86AF248B5BE88E6175692917B-2025-08-18-17-35-31","","1448","","","","",""
"","","","","","initialize-microphone","4","28335","0.0-4.0-0.0","5F1A52C86AF248B5BE88E6175692917B","5F1A52C86AF248B5BE88E6175692917B","0198be20-ac77-7156-aed4-df2f5ede3935","0198be1d-574a-752e-ae53-1d263a30e856","{""num_scrambled_semantic"":""8"",""num_scrambled_causal"":""4"",""num_scrambled_schematic"":""4"",""participantId"":""5F1A52C86AF248B5BE88E6175692917B"",""assignmentId"":""0198be20-ac77-7156-aed4-df2f5ede3935"",""projectId"":""0198be1d-574a-752e-ae53-1d263a30e856""}","https://test12345.live/?num_scrambled_semantic=8&num_scrambled_causal=4&num_scrambled_schematic=4&participantId=5F1A52C86AF248B5BE88E6175692917B&assignmentId=0198be20-ac77-7156-aed4-df2f5ede3935&projectId=0198be1d-574a-752e-ae53-1d263a30e856","5F1A52C86AF248B5BE88E6175692917B-2025-08-18-17-35-31","","","c12f87ba56b4cfb824aa8d4a137612dfa88a7df4c28387bd2d9696fa3a0e8bc6","","","",""
"","","","","","html-audio-response","5","37262","0.0-4.0-1.0","5F1A52C86AF248B5BE88E6175692917B","5F1A52C86AF248B5BE88E6175692917B","0198be20-ac77-7156-aed4-df2f5ede3935","0198be1d-574a-752e-ae53-1d263a30e856","{""num_scrambled_semantic"":""8"",""num_scrambled_causal"":""4"",""num_scrambled_schematic"":""4"",""participantId"":""5F1A52C86AF248B5BE88E6175692917B"",""assignmentId"":""0198be20-ac77-7156-aed4-df2f5ede3935"",""projectId"":""0198be1d-574a-752e-ae53-1d263a30e856""}","https://test12345.live/?num_scrambled_semantic=8&num_scrambled_causal=4&num_scrambled_schematic=4&participantId=5F1A52C86AF248B5BE88E6175692917B&assignmentId=0198be20-ac77-7156-aed4-df2f5ede3935&projectId=0198be1d-574a-752e-ae53-1d263a30e856","5F1A52C86AF248B5BE88E6175692917B-2025-08-18-17-35-31","","4172","","<span style=""color: red; font-size: 24px""> NOW RECORDING</span>
        <p>Please test Microphone</p>","","3",""
"","","","","","html-button-response","6","38843","0.0-4.0-2.0","5F1A52C86AF248B5BE88E6175692917B","5F1A52C86AF248B5BE88E6175692917B","0198be20-ac77-7156-aed4-df2f5ede3935","0198be1d-574a-752e-ae53-1d263a30e856","{""num_scrambled_semantic"":""8"",""num_scrambled_causal"":""4"",""num_scrambled_schematic"":""4"",""participantId"":""5F1A52C86AF248B5BE88E6175692917B"",""assignmentId"":""0198be20-ac77-7156-aed4-df2f5ede3935"",""projectId"":""0198be1d-574a-752e-ae53-1d263a30e856""}","https://test12345.live/?num_scrambled_semantic=8&num_scrambled_causal=4&num_scrambled_schematic=4&participantId=5F1A52C86AF248B5BE88E6175692917B&assignmentId=0198be20-ac77-7156-aed4-df2f5ede3935&projectId=0198be1d-574a-752e-ae53-1d263a30e856","5F1A52C86AF248B5BE88E6175692917B-2025-08-18-17-35-31","","1579","","<p style=""font-size:48px; color:red;"">Is Microphone OK?</p>","1","",""
"","","","","","instructions","7","57147","0.0-5.0","5F1A52C86AF248B5BE88E6175692917B","5F1A52C86AF248B5BE88E6175692917B","0198be20-ac77-7156-aed4-df2f5ede3935","0198be1d-574a-752e-ae53-1d263a30e856","{""num_scrambled_semantic"":""8"",""num_scrambled_causal"":""4"",""num_scrambled_schematic"":""4"",""participantId"":""5F1A52C86AF248B5BE88E6175692917B"",""assignmentId"":""0198be20-ac77-7156-aed4-df2f5ede3935"",""projectId"":""0198be1d-574a-752e-ae53-1d263a30e856""}","https://test12345.live/?num_scrambled_semantic=8&num_scrambled_causal=4&num_scrambled_schematic=4&participantId=5F1A52C86AF248B5BE88E6175692917B&assignmentId=0198be20-ac77-7156-aed4-df2f5ede3935&projectId=0198be1d-574a-752e-ae53-1d263a30e856","5F1A52C86AF248B5BE88E6175692917B-2025-08-18-17-35-31","[{""page_index"":0,""viewing_time"":11223},{""page_index"":1,""viewing_time"":7080}]","18304","","","","",""
"","","","","","image-button-response","8","63152","0.0-6.0-0.0","5F1A52C86AF248B5BE88E6175692917B","5F1A52C86AF248B5BE88E6175692917B","0198be20-ac77-7156-aed4-df2f5ede3935","0198be1d-574a-752e-ae53-1d263a30e856","{""num_scrambled_semantic"":""8"",""num_scrambled_causal"":""4"",""num_scrambled_schematic"":""4"",""participantId"":""5F1A52C86AF248B5BE88E6175692917B"",""assignmentId"":""0198be20-ac77-7156-aed4-df2f5ede3935"",""projectId"":""0198be1d-574a-752e-ae53-1d263a30e856""}","https://test12345.live/?num_scrambled_semantic=8&num_scrambled_causal=4&num_scrambled_schematic=4&participantId=5F1A52C86AF248B5BE88E6175692917B&assignmentId=0198be20-ac77-7156-aed4-df2f5ede3935&projectId=0198be1d-574a-752e-ae53-1d263a30e856","5F1A52C86AF248B5BE88E6175692917B-2025-08-18-17-35-31","","null","","images/instructions/movie_0.png","null","",""
"","","","","","image-button-response","9","67662","0.0-6.0-1.0-0.0","5F1A52C86AF248B5BE88E6175692917B","5F1A52C86AF248B5BE88E6175692917B","0198be20-ac77-7156-aed4-df2f5ede3935","0198be1d-574a-752e-ae53-1d263a30e856","{""num_scrambled_semantic"":""8"",""num_scrambled_causal"":""4"",""num_scrambled_schematic"":""4"",""participantId"":""5F1A52C86AF248B5BE88E6175692917B"",""assignmentId"":""0198be20-ac77-7156-aed4-df2f5ede3935"",""projectId"":""0198be1d-574a-752e-ae53-1d263a30e856""}","https://test12345.live/?num_scrambled_semantic=8&num_scrambled_causal=4&num_scrambled_schematic=4&participantId=5F1A52C86AF248B5BE88E6175692917B&assignmentId=0198be20-ac77-7156-aed4-df2f5ede3935&projectId=0198be1d-574a-752e-ae53-1d263a30e856","5F1A52C86AF248B5BE88E6175692917B-2025-08-18-17-35-31","","null","","images/instructions/movie_1.png","null","",""
"","","","","","image-button-response","10","70315","0.0-6.0-1.0-1.0","5F1A52C86AF248B5BE88E6175692917B","5F1A52C86AF248B5BE88E6175692917B","0198be20-ac77-7156-aed4-df2f5ede3935","0198be1d-574a-752e-ae53-1d263a30e856","{""num_scrambled_semantic"":""8"",""num_scrambled_causal"":""4"",""num_scrambled_schematic"":""4"",""participantId"":""5F1A52C86AF248B5BE88E6175692917B"",""assignmentId"":""0198be20-ac77-7156-aed4-df2f5ede3935"",""projectId"":""0198be1d-574a-752e-ae53-1d263a30e856""}","https://test12345.live/?num_scrambled_semantic=8&num_scrambled_causal=4&num_scrambled_schematic=4&participantId=5F1A52C86AF248B5BE88E6175692917B&assignmentId=0198be20-ac77-7156-aed4-df2f5ede3935&projectId=0198be1d-574a-752e-ae53-1d263a30e856","5F1A52C86AF248B5BE88E6175692917B-2025-08-18-17-35-31","","2652","","images/instructions/movie_1.png","0","",""
"","","","","","image-button-response","11","81125","0.0-6.0-1.0-2.0","5F1A52C86AF248B5BE88E6175692917B","5F1A52C86AF248B5BE88E6175692917B","0198be20-ac77-7156-aed4-df2f5ede3935","0198be1d-574a-752e-ae53-1d263a30e856","{""num_scrambled_semantic"":""8"",""num_scrambled_causal"":""4"",""num_scrambled_schematic"":""4"",""participantId"":""5F1A52C86AF248B5BE88E6175692917B"",""assignmentId"":""0198be20-ac77-7156-aed4-df2f5ede3935"",""projectId"":""0198be1d-574a-752e-ae53-1d263a30e856""}","https://test12345.live/?num_scrambled_semantic=8&num_scrambled_causal=4&num_scrambled_schematic=4&participantId=5F1A52C86AF248B5BE88E6175692917B&assignmentId=0198be20-ac77-7156-aed4-df2f5ede3935&projectId=0198be1d-574a-752e-ae53-1d263a30e856","5F1A52C86AF248B5BE88E6175692917B-2025-08-18-17-35-31","","null","","[]","null","",""
"","","","","","image-button-response","12","85637","0.0-6.0-1.0-0.1","5F1A52C86AF248B5BE88E6175692917B","5F1A52C86AF248B5BE88E6175692917B","0198be20-ac77-7156-aed4-df2f5ede3935","0198be1d-574a-752e-ae53-1d263a30e856","{""num_scrambled_semantic"":""8"",""num_scrambled_causal"":""4"",""num_scrambled_schematic"":""4"",""participantId"":""5F1A52C86AF248B5BE88E6175692917B"",""assignmentId"":""0198be20-ac77-7156-aed4-df2f5ede3935"",""projectId"":""0198be1d-574a-752e-ae53-1d263a30e856""}","https://test12345.live/?num_scrambled_semantic=8&num_scrambled_causal=4&num_scrambled_schematic=4&participantId=5F1A52C86AF248B5BE88E6175692917B&assignmentId=0198be20-ac77-7156-aed4-df2f5ede3935&projectId=0198be1d-574a-752e-ae53-1d263a30e856","5F1A52C86AF248B5BE88E6175692917B-2025-08-18-17-35-31","","null","","images/instructions/movie_2.png","null","",""
"","","","","","image-button-response","13","88251","0.0-6.0-1.0-1.1","5F1A52C86AF248B5BE88E6175692917B","5F1A52C86AF248B5BE88E6175692917B","0198be20-ac77-7156-aed4-df2f5ede3935","0198be1d-574a-752e-ae53-1d263a30e856","{""num_scrambled_semantic"":""8"",""num_scrambled_causal"":""4"",""num_scrambled_schematic"":""4"",""participantId"":""5F1A52C86AF248B5BE88E6175692917B"",""assignmentId"":""0198be20-ac77-7156-aed4-df2f5ede3935"",""projectId"":""0198be1d-574a-752e-ae53-1d263a30e856""}","https://test12345.live/?num_scrambled_semantic=8&num_scrambled_causal=4&num_scrambled_schematic=4&participantId=5F1A52C86AF248B5BE88E6175692917B&assignmentId=0198be20-ac77-7156-aed4-df2f5ede3935&projectId=0198be1d-574a-752e-ae53-1d263a30e856","5F1A52C86AF248B5BE88E6175692917B-2025-08-18-17-35-31","","2612","","images/instructions/movie_2.png","0","",""
"","","","","","image-button-response","14","99056","0.0-6.0-1.0-2.1","5F1A52C86AF248B5BE88E6175692917B","5F1A52C86AF248B5BE88E6175692917B","0198be20-ac77-7156-aed4-df2f5ede3935","0198be1d-574a-752e-ae53-1d263a30e856","{""num_scrambled_semantic"":""8"",""num_scrambled_causal"":""4"",""num_scrambled_schematic"":""4"",""participantId"":""5F1A52C86AF248B5BE88E6175692917B"",""assignmentId"":""0198be20-ac77-7156-aed4-df2f5ede3935"",""projectId"":""0198be1d-574a-752e-ae53-1d263a30e856""}","https://test12345.live/?num_scrambled_semantic=8&num_scrambled_causal=4&num_scrambled_schematic=4&participantId=5F1A52C86AF248B5BE88E6175692917B&assignmentId=0198be20-ac77-7156-aed4-df2f5ede3935&projectId=0198be1d-574a-752e-ae53-1d263a30e856","5F1A52C86AF248B5BE88E6175692917B-2025-08-18-17-35-31","","null","","[]","null","",""
"","","","","","image-button-response","15","103572","0.0-6.0-1.0-0.2","5F1A52C86AF248B5BE88E6175692917B","5F1A52C86AF248B5BE88E6175692917B","0198be20-ac77-7156-aed4-df2f5ede3935","0198be1d-574a-752e-ae53-1d263a30e856","{""num_scrambled_semantic"":""8"",""num_scrambled_causal"":""4"",""num_scrambled_schematic"":""4"",""participantId"":""5F1A52C86AF248B5BE88E6175692917B"",""assignmentId"":""0198be20-ac77-7156-aed4-df2f5ede3935"",""projectId"":""0198be1d-574a-752e-ae53-1d263a30e856""}","https://test12345.live/?num_scrambled_semantic=8&num_scrambled_causal=4&num_scrambled_schematic=4&participantId=5F1A52C86AF248B5BE88E6175692917B&assignmentId=0198be20-ac77-7156-aed4-df2f5ede3935&projectId=0198be1d-574a-752e-ae53-1d263a30e856","5F1A52C86AF248B5BE88E6175692917B-2025-08-18-17-35-31","","null","","images/instructions/movie_3.png","null","",""
"","","","","","image-button-response","16","106679","0.0-6.0-1.0-1.2","5F1A52C86AF248B5BE88E6175692917B","5F1A52C86AF248B5BE88E6175692917B","0198be20-ac77-7156-aed4-df2f5ede3935","0198be1d-574a-752e-ae53-1d263a30e856","{""num_scrambled_semantic"":""8"",""num_scrambled_causal"":""4"",""num_scrambled_schematic"":""4"",""participantId"":""5F1A52C86AF248B5BE88E6175692917B"",""assignmentId"":""0198be20-ac77-7156-aed4-df2f5ede3935"",""projectId"":""0198be1d-574a-752e-ae53-1d263a30e856""}","https://test12345.live/?num_scrambled_semantic=8&num_scrambled_causal=4&num_scrambled_schematic=4&participantId=5F1A52C86AF248B5BE88E6175692917B&assignmentId=0198be20-ac77-7156-aed4-df2f5ede3935&projectId=0198be1d-574a-752e-ae53-1d263a30e856","5F1A52C86AF248B5BE88E6175692917B-2025-08-18-17-35-31","","3105","","images/instructions/movie_3.png","0","",""
"","","","","","image-button-response","17","117488","0.0-6.0-1.0-2.2","5F1A52C86AF248B5BE88E6175692917B","5F1A52C86AF248B5BE88E6175692917B","0198be20-ac77-7156-aed4-df2f5ede3935","0198be1d-574a-752e-ae53-1d263a30e856","{""num_scrambled_semantic"":""8"",""num_scrambled_causal"":""4"",""num_scrambled_schematic"":""4"",""participantId"":""5F1A52C86AF248B5BE88E6175692917B"",""assignmentId"":""0198be20-ac77-7156-aed4-df2f5ede3935"",""projectId"":""0198be1d-574a-752e-ae53-1d263a30e856""}","https://test12345.live/?num_scrambled_semantic=8&num_scrambled_causal=4&num_scrambled_schematic=4&participantId=5F1A52C86AF248B5BE88E6175692917B&assignmentId=0198be20-ac77-7156-aed4-df2f5ede3935&projectId=0198be1d-574a-752e-ae53-1d263a30e856","5F1A52C86AF248B5BE88E6175692917B-2025-08-18-17-35-31","","null","","[]","null","",""
"","","","","","image-button-response","18","121996","0.0-6.0-1.0-0.3","5F1A52C86AF248B5BE88E6175692917B","5F1A52C86AF248B5BE88E6175692917B","0198be20-ac77-7156-aed4-df2f5ede3935","0198be1d-574a-752e-ae53-1d263a30e856","{""num_scrambled_semantic"":""8"",""num_scrambled_causal"":""4"",""num_scrambled_schematic"":""4"",""participantId"":""5F1A52C86AF248B5BE88E6175692917B"",""assignmentId"":""0198be20-ac77-7156-aed4-df2f5ede3935"",""projectId"":""0198be1d-574a-752e-ae53-1d263a30e856""}","https://test12345.live/?num_scrambled_semantic=8&num_scrambled_causal=4&num_scrambled_schematic=4&participantId=5F1A52C86AF248B5BE88E6175692917B&assignmentId=0198be20-ac77-7156-aed4-df2f5ede3935&projectId=0198be1d-574a-752e-ae53-1d263a30e856","5F1A52C86AF248B5BE88E6175692917B-2025-08-18-17-35-31","","null","","images/instructions/movie_4.png","null","",""
"","","","","","image-button-response","19","123459","0.0-6.0-1.0-1.3","5F1A52C86AF248B5BE88E6175692917B","5F1A52C86AF248B5BE88E6175692917B","0198be20-ac77-7156-aed4-df2f5ede3935","0198be1d-574a-752e-ae53-1d263a30e856","{""num_scrambled_semantic"":""8"",""num_scrambled_causal"":""4"",""num_scrambled_schematic"":""4"",""participantId"":""5F1A52C86AF248B5BE88E6175692917B"",""assignmentId"":""0198be20-ac77-7156-aed4-df2f5ede3935"",""projectId"":""0198be1d-574a-752e-ae53-1d263a30e856""}","https://test12345.live/?num_scrambled_semantic=8&num_scrambled_causal=4&num_scrambled_schematic=4&participantId=5F1A52C86AF248B5BE88E6175692917B&assignmentId=0198be20-ac77-7156-aed4-df2f5ede3935&projectId=0198be1d-574a-752e-ae53-1d263a30e856","5F1A52C86AF248B5BE88E6175692917B-2025-08-18-17-35-31","","1461","","images/instructions/movie_4.png","0","",""
"","","","","","image-button-response","20","134266","0.0-6.0-1.0-2.3","5F1A52C86AF248B5BE88E6175692917B","5F1A52C86AF248B5BE88E6175692917B","0198be20-ac77-7156-aed4-df2f5ede3935","0198be1d-574a-752e-ae53-1d263a30e856","{""num_scrambled_semantic"":""8"",""num_scrambled_causal"":""4"",""num_scrambled_schematic"":""4"",""participantId"":""5F1A52C86AF248B5BE88E6175692917B"",""assignmentId"":""0198be20-ac77-7156-aed4-df2f5ede3935"",""projectId"":""0198be1d-574a-752e-ae53-1d263a30e856""}","https://test12345.live/?num_scrambled_semantic=8&num_scrambled_causal=4&num_scrambled_schematic=4&participantId=5F1A52C86AF248B5BE88E6175692917B&assignmentId=0198be20-ac77-7156-aed4-df2f5ede3935&projectId=0198be1d-574a-752e-ae53-1d263a30e856","5F1A52C86AF248B5BE88E6175692917B-2025-08-18-17-35-31","","null","","[]","null","",""
"","","","","","instructions","21","163951","0.0-7.0","5F1A52C86AF248B5BE88E6175692917B","5F1A52C86AF248B5BE88E6175692917B","0198be20-ac77-7156-aed4-df2f5ede3935","0198be1d-574a-752e-ae53-1d263a30e856","{""num_scrambled_semantic"":""8"",""num_scrambled_causal"":""4"",""num_scrambled_schematic"":""4"",""participantId"":""5F1A52C86AF248B5BE88E6175692917B"",""assignmentId"":""0198be20-ac77-7156-aed4-df2f5ede3935"",""projectId"":""0198be1d-574a-752e-ae53-1d263a30e856""}","https://test12345.live/?num_scrambled_semantic=8&num_scrambled_causal=4&num_scrambled_schematic=4&participantId=5F1A52C86AF248B5BE88E6175692917B&assignmentId=0198be20-ac77-7156-aed4-df2f5ede3935&projectId=0198be1d-574a-752e-ae53-1d263a30e856","5F1A52C86AF248B5BE88E6175692917B-2025-08-18-17-35-31","[{""page_index"":0,""viewing_time"":28152},{""page_index"":1,""viewing_time"":1532}]","29684","","","","",""
"","","","","","html-audio-response","22","192111","0.0-8.0","5F1A52C86AF248B5BE88E6175692917B","5F1A52C86AF248B5BE88E6175692917B","0198be20-ac77-7156-aed4-df2f5ede3935","0198be1d-574a-752e-ae53-1d263a30e856","{""num_scrambled_semantic"":""8"",""num_scrambled_causal"":""4"",""num_scrambled_schematic"":""4"",""participantId"":""5F1A52C86AF248B5BE88E6175692917B"",""assignmentId"":""0198be20-ac77-7156-aed4-df2f5ede3935"",""projectId"":""0198be1d-574a-752e-ae53-1d263a30e856""}","https://test12345.live/?num_scrambled_semantic=8&num_scrambled_causal=4&num_scrambled_schematic=4&participantId=5F1A52C86AF248B5BE88E6175692917B&assignmentId=0198be20-ac77-7156-aed4-df2f5ede3935&projectId=0198be1d-574a-752e-ae53-1d263a30e856","5F1A52C86AF248B5BE88E6175692917B-2025-08-18-17-35-31","","5801","","[""<span style=\""color: red; font-size: 24px\""> NOW RECORDING</span><p>Please say out loud all the images you saw in the exact order you saw them. Try to recall as many images as you can, but remember: getting the order right is more important than the number of images you recall.</p>""]","","1",""
"","","","","","instructions","23","194426","0.0-9.0","5F1A52C86AF248B5BE88E6175692917B","5F1A52C86AF248B5BE88E6175692917B","0198be20-ac77-7156-aed4-df2f5ede3935","0198be1d-574a-752e-ae53-1d263a30e856","{""num_scrambled_semantic"":""8"",""num_scrambled_causal"":""4"",""num_scrambled_schematic"":""4"",""participantId"":""5F1A52C86AF248B5BE88E6175692917B"",""assignmentId"":""0198be20-ac77-7156-aed4-df2f5ede3935"",""projectId"":""0198be1d-574a-752e-ae53-1d263a30e856""}","https://test12345.live/?num_scrambled_semantic=8&num_scrambled_causal=4&num_scrambled_schematic=4&participantId=5F1A52C86AF248B5BE88E6175692917B&assignmentId=0198be20-ac77-7156-aed4-df2f5ede3935&projectId=0198be1d-574a-752e-ae53-1d263a30e856","5F1A52C86AF248B5BE88E6175692917B-2025-08-18-17-35-31","[{""page_index"":0,""viewing_time"":2314}]","2314","","","","",""
"","","","","","image-button-response","24","200435","0.0-10.0-0.0","5F1A52C86AF248B5BE88E6175692917B","5F1A52C86AF248B5BE88E6175692917B","0198be20-ac77-7156-aed4-df2f5ede3935","0198be1d-574a-752e-ae53-1d263a30e856","{""num_scrambled_semantic"":""8"",""num_scrambled_causal"":""4"",""num_scrambled_schematic"":""4"",""participantId"":""5F1A52C86AF248B5BE88E6175692917B"",""assignmentId"":""0198be20-ac77-7156-aed4-df2f5ede3935"",""projectId"":""0198be1d-574a-752e-ae53-1d263a30e856""}","https://test12345.live/?num_scrambled_semantic=8&num_scrambled_causal=4&num_scrambled_schematic=4&participantId=5F1A52C86AF248B5BE88E6175692917B&assignmentId=0198be20-ac77-7156-aed4-df2f5ede3935&projectId=0198be1d-574a-752e-ae53-1d263a30e856","5F1A52C86AF248B5BE88E6175692917B-2025-08-18-17-35-31","","null","","images/causal_sequence/dog_causal/dog_causal_0.png","null","",""
"","","","","","image-button-response","25","204948","0.0-10.0-1.0-0.0","5F1A52C86AF248B5BE88E6175692917B","5F1A52C86AF248B5BE88E6175692917B","0198be20-ac77-7156-aed4-df2f5ede3935","0198be1d-574a-752e-ae53-1d263a30e856","{""num_scrambled_semantic"":""8"",""num_scrambled_causal"":""4"",""num_scrambled_schematic"":""4"",""participantId"":""5F1A52C86AF248B5BE88E6175692917B"",""assignmentId"":""0198be20-ac77-7156-aed4-df2f5ede3935"",""projectId"":""0198be1d-574a-752e-ae53-1d263a30e856""}","https://test12345.live/?num_scrambled_semantic=8&num_scrambled_causal=4&num_scrambled_schematic=4&participantId=5F1A52C86AF248B5BE88E6175692917B&assignmentId=0198be20-ac77-7156-aed4-df2f5ede3935&projectId=0198be1d-574a-752e-ae53-1d263a30e856","5F1A52C86AF248B5BE88E6175692917B-2025-08-18-17-35-31","","null","","images/causal_sequence/dog_causal/dog_causal_7.png","null","",""
"","","","","","image-button-response","26","208962","0.0-10.0-1.0-1.0","5F1A52C86AF248B5BE88E6175692917B","5F1A52C86AF248B5BE88E6175692917B","0198be20-ac77-7156-aed4-df2f5ede3935","0198be1d-574a-752e-ae53-1d263a30e856","{""num_scrambled_semantic"":""8"",""num_scrambled_causal"":""4"",""num_scrambled_schematic"":""4"",""participantId"":""5F1A52C86AF248B5BE88E6175692917B"",""assignmentId"":""0198be20-ac77-7156-aed4-df2f5ede3935"",""projectId"":""0198be1d-574a-752e-ae53-1d263a30e856""}","https://test12345.live/?num_scrambled_semantic=8&num_scrambled_causal=4&num_scrambled_schematic=4&participantId=5F1A52C86AF248B5BE88E6175692917B&assignmentId=0198be20-ac77-7156-aed4-df2f5ede3935&projectId=0198be1d-574a-752e-ae53-1d263a30e856","5F1A52C86AF248B5BE88E6175692917B-2025-08-18-17-35-31","","null","","images/causal_sequence/dog_causal/dog_causal_7.png","null","",""
"","","","","","image-button-response","27","219776","0.0-10.0-1.0-2.0","5F1A52C86AF248B5BE88E6175692917B","5F1A52C86AF248B5BE88E6175692917B","0198be20-ac77-7156-aed4-df2f5ede3935","0198be1d-574a-752e-ae53-1d263a30e856","{""num_scrambled_semantic"":""8"",""num_scrambled_causal"":""4"",""num_scrambled_schematic"":""4"",""participantId"":""5F1A52C86AF248B5BE88E6175692917B"",""assignmentId"":""0198be20-ac77-7156-aed4-df2f5ede3935"",""projectId"":""0198be1d-574a-752e-ae53-1d263a30e856""}","https://test12345.live/?num_scrambled_semantic=8&num_scrambled_causal=4&num_scrambled_schematic=4&participantId=5F1A52C86AF248B5BE88E6175692917B&assignmentId=0198be20-ac77-7156-aed4-df2f5ede3935&projectId=0198be1d-574a-752e-ae53-1d263a30e856","5F1A52C86AF248B5BE88E6175692917B-2025-08-18-17-35-31","","null","","[]","null","",""
"","","","","","image-button-response","28","224291","0.0-10.0-1.0-0.1","5F1A52C86AF248B5BE88E6175692917B","5F1A52C86AF248B5BE88E6175692917B","0198be20-ac77-7156-aed4-df2f5ede3935","0198be1d-574a-752e-ae53-1d263a30e856","{""num_scrambled_semantic"":""8"",""num_scrambled_causal"":""4"",""num_scrambled_schematic"":""4"",""participantId"":""5F1A52C86AF248B5BE88E6175692917B"",""assignmentId"":""0198be20-ac77-7156-aed4-df2f5ede3935"",""projectId"":""0198be1d-574a-752e-ae53-1d263a30e856""}","https://test12345.live/?num_scrambled_semantic=8&num_scrambled_causal=4&num_scrambled_schematic=4&participantId=5F1A52C86AF248B5BE88E6175692917B&assignmentId=0198be20-ac77-7156-aed4-df2f5ede3935&projectId=0198be1d-574a-752e-ae53-1d263a30e856","5F1A52C86AF248B5BE88E6175692917B-2025-08-18-17-35-31","","null","","images/causal_sequence/dog_causal/dog_causal_4.png","null","",""
"","","","","","image-button-response","29","226563","0.0-10.0-1.0-1.1","5F1A52C86AF248B5BE88E6175692917B","5F1A52C86AF248B5BE88E6175692917B","0198be20-ac77-7156-aed4-df2f5ede3935","0198be1d-574a-752e-ae53-1d263a30e856","{""num_scrambled_semantic"":""8"",""num_scrambled_causal"":""4"",""num_scrambled_schematic"":""4"",""participantId"":""5F1A52C86AF248B5BE88E6175692917B"",""assignmentId"":""0198be20-ac77-7156-aed4-df2f5ede3935"",""projectId"":""0198be1d-574a-752e-ae53-1d263a30e856""}","https://test12345.live/?num_scrambled_semantic=8&num_scrambled_causal=4&num_scrambled_schematic=4&participantId=5F1A52C86AF248B5BE88E6175692917B&assignmentId=0198be20-ac77-7156-aed4-df2f5ede3935&projectId=0198be1d-574a-752e-ae53-1d263a30e856","5F1A52C86AF248B5BE88E6175692917B-2025-08-18-17-35-31","","2270","","images/causal_sequence/dog_causal/dog_causal_4.png","0","",""
"","","","","","image-button-response","30","237381","0.0-10.0-1.0-2.1","5F1A52C86AF248B5BE88E6175692917B","5F1A52C86AF248B5BE88E6175692917B","0198be20-ac77-7156-aed4-df2f5ede3935","0198be1d-574a-752e-ae53-1d263a30e856","{""num_scrambled_semantic"":""8"",""num_scrambled_causal"":""4"",""num_scrambled_schematic"":""4"",""participantId"":""5F1A52C86AF248B5BE88E6175692917B"",""assignmentId"":""0198be20-ac77-7156-aed4-df2f5ede3935"",""projectId"":""0198be1d-574a-752e-ae53-1d263a30e856""}","https://test12345.live/?num_scrambled_semantic=8&num_scrambled_causal=4&num_scrambled_schematic=4&participantId=5F1A52C86AF248B5BE88E6175692917B&assignmentId=0198be20-ac77-7156-aed4-df2f5ede3935&projectId=0198be1d-574a-752e-ae53-1d263a30e856","5F1A52C86AF248B5BE88E6175692917B-2025-08-18-17-35-31","","null","","[]","null","",""
"","","","","","image-button-response","31","241883","0.0-10.0-1.0-0.2","5F1A52C86AF248B5BE88E6175692917B","5F1A52C86AF248B5BE88E6175692917B","0198be20-ac77-7156-aed4-df2f5ede3935","0198be1d-574a-752e-ae53-1d263a30e856","{""num_scrambled_semantic"":""8"",""num_scrambled_causal"":""4"",""num_scrambled_schematic"":""4"",""participantId"":""5F1A52C86AF248B5BE88E6175692917B"",""assignmentId"":""0198be20-ac77-7156-aed4-df2f5ede3935"",""projectId"":""0198be1d-574a-752e-ae53-1d263a30e856""}","https://test12345.live/?num_scrambled_semantic=8&num_scrambled_causal=4&num_scrambled_schematic=4&participantId=5F1A52C86AF248B5BE88E6175692917B&assignmentId=0198be20-ac77-7156-aed4-df2f5ede3935&projectId=0198be1d-574a-752e-ae53-1d263a30e856","5F1A52C86AF248B5BE88E6175692917B-2025-08-18-17-35-31","","null","","images/causal_sequence/dog_causal/dog_causal_3.png","null","",""
"","","","","","image-button-response","32","244911","0.0-10.0-1.0-1.2","5F1A52C86AF248B5BE88E6175692917B","5F1A52C86AF248B5BE88E6175692917B","0198be20-ac77-7156-aed4-df2f5ede3935","0198be1d-574a-752e-ae53-1d263a30e856","{""num_scrambled_semantic"":""8"",""num_scrambled_causal"":""4"",""num_scrambled_schematic"":""4"",""participantId"":""5F1A52C86AF248B5BE88E6175692917B"",""assignmentId"":""0198be20-ac77-7156-aed4-df2f5ede3935"",""projectId"":""0198be1d-574a-752e-ae53-1d263a30e856""}","https://test12345.live/?num_scrambled_semantic=8&num_scrambled_causal=4&num_scrambled_schematic=4&participantId=5F1A52C86AF248B5BE88E6175692917B&assignmentId=0198be20-ac77-7156-aed4-df2f5ede3935&projectId=0198be1d-574a-752e-ae53-1d263a30e856","5F1A52C86AF248B5BE88E6175692917B-2025-08-18-17-35-31","","3026","","images/causal_sequence/dog_causal/dog_causal_3.png","0","",""
"","","","","","image-button-response","33","255721","0.0-10.0-1.0-2.2","5F1A52C86AF248B5BE88E6175692917B","5F1A52C86AF248B5BE88E6175692917B","0198be20-ac77-7156-aed4-df2f5ede3935","0198be1d-574a-752e-ae53-1d263a30e856","{""num_scrambled_semantic"":""8"",""num_scrambled_causal"":""4"",""num_scrambled_schematic"":""4"",""participantId"":""5F1A52C86AF248B5BE88E6175692917B"",""assignmentId"":""0198be20-ac77-7156-aed4-df2f5ede3935"",""projectId"":""0198be1d-574a-752e-ae53-1d263a30e856""}","https://test12345.live/?num_scrambled_semantic=8&num_scrambled_causal=4&num_scrambled_schematic=4&participantId=5F1A52C86AF248B5BE88E6175692917B&assignmentId=0198be20-ac77-7156-aed4-df2f5ede3935&projectId=0198be1d-574a-752e-ae53-1d263a30e856","5F1A52C86AF248B5BE88E6175692917B-2025-08-18-17-35-31","","null","","[]","null","",""
"","","","","","image-button-response","34","260239","0.0-10.0-1.0-0.3","5F1A52C86AF248B5BE88E6175692917B","5F1A52C86AF248B5BE88E6175692917B","0198be20-ac77-7156-aed4-df2f5ede3935","0198be1d-574a-752e-ae53-1d263a30e856","{""num_scrambled_semantic"":""8"",""num_scrambled_causal"":""4"",""num_scrambled_schematic"":""4"",""participantId"":""5F1A52C86AF248B5BE88E6175692917B"",""assignmentId"":""0198be20-ac77-7156-aed4-df2f5ede3935"",""projectId"":""0198be1d-574a-752e-ae53-1d263a30e856""}","https://test12345.live/?num_scrambled_semantic=8&num_scrambled_causal=4&num_scrambled_schematic=4&participantId=5F1A52C86AF248B5BE88E6175692917B&assignmentId=0198be20-ac77-7156-aed4-df2f5ede3935&projectId=0198be1d-574a-752e-ae53-1d263a30e856","5F1A52C86AF248B5BE88E6175692917B-2025-08-18-17-35-31","","null","","images/causal_sequence/dog_causal/dog_causal_5.png","null","",""
"","","","","","image-button-response","35","263438","0.0-10.0-1.0-1.3","5F1A52C86AF248B5BE88E6175692917B","5F1A52C86AF248B5BE88E6175692917B","0198be20-ac77-7156-aed4-df2f5ede3935","0198be1d-574a-752e-ae53-1d263a30e856","{""num_scrambled_semantic"":""8"",""num_scrambled_causal"":""4"",""num_scrambled_schematic"":""4"",""participantId"":""5F1A52C86AF248B5BE88E6175692917B"",""assignmentId"":""0198be20-ac77-7156-aed4-df2f5ede3935"",""projectId"":""0198be1d-574a-752e-ae53-1d263a30e856""}","https://test12345.live/?num_scrambled_semantic=8&num_scrambled_causal=4&num_scrambled_schematic=4&participantId=5F1A52C86AF248B5BE88E6175692917B&assignmentId=0198be20-ac77-7156-aed4-df2f5ede3935&projectId=0198be1d-574a-752e-ae53-1d263a30e856","5F1A52C86AF248B5BE88E6175692917B-2025-08-18-17-35-31","","3197","","images/causal_sequence/dog_causal/dog_causal_5.png","0","",""
"","","","","","image-button-response","36","274249","0.0-10.0-1.0-2.3","5F1A52C86AF248B5BE88E6175692917B","5F1A52C86AF248B5BE88E6175692917B","0198be20-ac77-7156-aed4-df2f5ede3935","0198be1d-574a-752e-ae53-1d263a30e856","{""num_scrambled_semantic"":""8"",""num_scrambled_causal"":""4"",""num_scrambled_schematic"":""4"",""participantId"":""5F1A52C86AF248B5BE88E6175692917B"",""assignmentId"":""0198be20-ac77-7156-aed4-df2f5ede3935"",""projectId"":""0198be1d-574a-752e-ae53-1d263a30e856""}","https://test12345.live/?num_scrambled_semantic=8&num_scrambled_causal=4&num_scrambled_schematic=4&participantId=5F1A52C86AF248B5BE88E6175692917B&assignmentId=0198be20-ac77-7156-aed4-df2f5ede3935&projectId=0198be1d-574a-752e-ae53-1d263a30e856","5F1A52C86AF248B5BE88E6175692917B-2025-08-18-17-35-31","","null","","[]","null","",""
"","","","","","image-button-response","37","278752","0.0-10.0-1.0-0.4","5F1A52C86AF248B5BE88E6175692917B","5F1A52C86AF248B5BE88E6175692917B","0198be20-ac77-7156-aed4-df2f5ede3935","0198be1d-574a-752e-ae53-1d263a30e856","{""num_scrambled_semantic"":""8"",""num_scrambled_causal"":""4"",""num_scrambled_schematic"":""4"",""participantId"":""5F1A52C86AF248B5BE88E6175692917B"",""assignmentId"":""0198be20-ac77-7156-aed4-df2f5ede3935"",""projectId"":""0198be1d-574a-752e-ae53-1d263a30e856""}","https://test12345.live/?num_scrambled_semantic=8&num_scrambled_causal=4&num_scrambled_schematic=4&participantId=5F1A52C86AF248B5BE88E6175692917B&assignmentId=0198be20-ac77-7156-aed4-df2f5ede3935&projectId=0198be1d-574a-752e-ae53-1d263a30e856","5F1A52C86AF248B5BE88E6175692917B-2025-08-18-17-35-31","","null","","images/causal_sequence/dog_causal/dog_causal_6.png","null","",""
"","","","","","image-button-response","38","280490","0.0-10.0-1.0-1.4","5F1A52C86AF248B5BE88E6175692917B","5F1A52C86AF248B5BE88E6175692917B","0198be20-ac77-7156-aed4-df2f5ede3935","0198be1d-574a-752e-ae53-1d263a30e856","{""num_scrambled_semantic"":""8"",""num_scrambled_causal"":""4"",""num_scrambled_schematic"":""4"",""participantId"":""5F1A52C86AF248B5BE88E6175692917B"",""assignmentId"":""0198be20-ac77-7156-aed4-df2f5ede3935"",""projectId"":""0198be1d-574a-752e-ae53-1d263a30e856""}","https://test12345.live/?num_scrambled_semantic=8&num_scrambled_causal=4&num_scrambled_schematic=4&participantId=5F1A52C86AF248B5BE88E6175692917B&assignmentId=0198be20-ac77-7156-aed4-df2f5ede3935&projectId=0198be1d-574a-752e-ae53-1d263a30e856","5F1A52C86AF248B5BE88E6175692917B-2025-08-18-17-35-31","","1737","","images/causal_sequence/dog_causal/dog_causal_6.png","0","",""
"","","","","","image-button-response","39","291296","0.0-10.0-1.0-2.4","5F1A52C86AF248B5BE88E6175692917B","5F1A52C86AF248B5BE88E6175692917B","0198be20-ac77-7156-aed4-df2f5ede3935","0198be1d-574a-752e-ae53-1d263a30e856","{""num_scrambled_semantic"":""8"",""num_scrambled_causal"":""4"",""num_scrambled_schematic"":""4"",""participantId"":""5F1A52C86AF248B5BE88E6175692917B"",""assignmentId"":""0198be20-ac77-7156-aed4-df2f5ede3935"",""projectId"":""0198be1d-574a-752e-ae53-1d263a30e856""}","https://test12345.live/?num_scrambled_semantic=8&num_scrambled_causal=4&num_scrambled_schematic=4&participantId=5F1A52C86AF248B5BE88E6175692917B&assignmentId=0198be20-ac77-7156-aed4-df2f5ede3935&projectId=0198be1d-574a-752e-ae53-1d263a30e856","5F1A52C86AF248B5BE88E6175692917B-2025-08-18-17-35-31","","null","","[]","null","",""
"","","","","","image-button-response","40","295798","0.0-10.0-1.0-0.5","5F1A52C86AF248B5BE88E6175692917B","5F1A52C86AF248B5BE88E6175692917B","0198be20-ac77-7156-aed4-df2f5ede3935","0198be1d-574a-752e-ae53-1d263a30e856","{""num_scrambled_semantic"":""8"",""num_scrambled_causal"":""4"",""num_scrambled_schematic"":""4"",""participantId"":""5F1A52C86AF248B5BE88E6175692917B"",""assignmentId"":""0198be20-ac77-7156-aed4-df2f5ede3935"",""projectId"":""0198be1d-574a-752e-ae53-1d263a30e856""}","https://test12345.live/?num_scrambled_semantic=8&num_scrambled_causal=4&num_scrambled_schematic=4&participantId=5F1A52C86AF248B5BE88E6175692917B&assignmentId=0198be20-ac77-7156-aed4-df2f5ede3935&projectId=0198be1d-574a-752e-ae53-1d263a30e856","5F1A52C86AF248B5BE88E6175692917B-2025-08-18-17-35-31","","null","","images/causal_sequence/dog_causal/dog_causal_9.png","null","",""
"","","","","","image-button-response","41","297543","0.0-10.0-1.0-1.5","5F1A52C86AF248B5BE88E6175692917B","5F1A52C86AF248B5BE88E6175692917B","0198be20-ac77-7156-aed4-df2f5ede3935","0198be1d-574a-752e-ae53-1d263a30e856","{""num_scrambled_semantic"":""8"",""num_scrambled_causal"":""4"",""num_scrambled_schematic"":""4"",""participantId"":""5F1A52C86AF248B5BE88E6175692917B"",""assignmentId"":""0198be20-ac77-7156-aed4-df2f5ede3935"",""projectId"":""0198be1d-574a-752e-ae53-1d263a30e856""}","https://test12345.live/?num_scrambled_semantic=8&num_scrambled_causal=4&num_scrambled_schematic=4&participantId=5F1A52C86AF248B5BE88E6175692917B&assignmentId=0198be20-ac77-7156-aed4-df2f5ede3935&projectId=0198be1d-574a-752e-ae53-1d263a30e856","5F1A52C86AF248B5BE88E6175692917B-2025-08-18-17-35-31","","1743","","images/causal_sequence/dog_causal/dog_causal_9.png","0","",""
"","","","","","image-button-response","42","308346","0.0-10.0-1.0-2.5","5F1A52C86AF248B5BE88E6175692917B","5F1A52C86AF248B5BE88E6175692917B","0198be20-ac77-7156-aed4-df2f5ede3935","0198be1d-574a-752e-ae53-1d263a30e856","{""num_scrambled_semantic"":""8"",""num_scrambled_causal"":""4"",""num_scrambled_schematic"":""4"",""participantId"":""5F1A52C86AF248B5BE88E6175692917B"",""assignmentId"":""0198be20-ac77-7156-aed4-df2f5ede3935"",""projectId"":""0198be1d-574a-752e-ae53-1d263a30e856""}","https://test12345.live/?num_scrambled_semantic=8&num_scrambled_causal=4&num_scrambled_schematic=4&participantId=5F1A52C86AF248B5BE88E6175692917B&assignmentId=0198be20-ac77-7156-aed4-df2f5ede3935&projectId=0198be1d-574a-752e-ae53-1d263a30e856","5F1A52C86AF248B5BE88E6175692917B-2025-08-18-17-35-31","","null","","[]","null","",""
"","","","","","image-button-response","43","312848","0.0-10.0-1.0-0.6","5F1A52C86AF248B5BE88E6175692917B","5F1A52C86AF248B5BE88E6175692917B","0198be20-ac77-7156-aed4-df2f5ede3935","0198be1d-574a-752e-ae53-1d263a30e856","{""num_scrambled_semantic"":""8"",""num_scrambled_causal"":""4"",""num_scrambled_schematic"":""4"",""participantId"":""5F1A52C86AF248B5BE88E6175692917B"",""assignmentId"":""0198be20-ac77-7156-aed4-df2f5ede3935"",""projectId"":""0198be1d-574a-752e-ae53-1d263a30e856""}","https://test12345.live/?num_scrambled_semantic=8&num_scrambled_causal=4&num_scrambled_schematic=4&participantId=5F1A52C86AF248B5BE88E6175692917B&assignmentId=0198be20-ac77-7156-aed4-df2f5ede3935&projectId=0198be1d-574a-752e-ae53-1d263a30e856","5F1A52C86AF248B5BE88E6175692917B-2025-08-18-17-35-31","","null","","images/causal_sequence/dog_causal/dog_causal_2.png","null","",""
"","","","","","image-button-response","44","313970","0.0-10.0-1.0-1.6","5F1A52C86AF248B5BE88E6175692917B","5F1A52C86AF248B5BE88E6175692917B","0198be20-ac77-7156-aed4-df2f5ede3935","0198be1d-574a-752e-ae53-1d263a30e856","{""num_scrambled_semantic"":""8"",""num_scrambled_causal"":""4"",""num_scrambled_schematic"":""4"",""participantId"":""5F1A52C86AF248B5BE88E6175692917B"",""assignmentId"":""0198be20-ac77-7156-aed4-df2f5ede3935"",""projectId"":""0198be1d-574a-752e-ae53-1d263a30e856""}","https://test12345.live/?num_scrambled_semantic=8&num_scrambled_causal=4&num_scrambled_schematic=4&participantId=5F1A52C86AF248B5BE88E6175692917B&assignmentId=0198be20-ac77-7156-aed4-df2f5ede3935&projectId=0198be1d-574a-752e-ae53-1d263a30e856","5F1A52C86AF248B5BE88E6175692917B-2025-08-18-17-35-31","","1120","","images/causal_sequence/dog_causal/dog_causal_2.png","0","",""
"","","","","","image-button-response","45","324783","0.0-10.0-1.0-2.6","5F1A52C86AF248B5BE88E6175692917B","5F1A52C86AF248B5BE88E6175692917B","0198be20-ac77-7156-aed4-df2f5ede3935","0198be1d-574a-752e-ae53-1d263a30e856","{""num_scrambled_semantic"":""8"",""num_scrambled_causal"":""4"",""num_scrambled_schematic"":""4"",""participantId"":""5F1A52C86AF248B5BE88E6175692917B"",""assignmentId"":""0198be20-ac77-7156-aed4-df2f5ede3935"",""projectId"":""0198be1d-574a-752e-ae53-1d263a30e856""}","https://test12345.live/?num_scrambled_semantic=8&num_scrambled_causal=4&num_scrambled_schematic=4&participantId=5F1A52C86AF248B5BE88E6175692917B&assignmentId=0198be20-ac77-7156-aed4-df2f5ede3935&projectId=0198be1d-574a-752e-ae53-1d263a30e856","5F1A52C86AF248B5BE88E6175692917B-2025-08-18-17-35-31","","null","","[]","null","",""
"","","","","","image-button-response","46","329291","0.0-10.0-1.0-0.7","5F1A52C86AF248B5BE88E6175692917B","5F1A52C86AF248B5BE88E6175692917B","0198be20-ac77-7156-aed4-df2f5ede3935","0198be1d-574a-752e-ae53-1d263a30e856","{""num_scrambled_semantic"":""8"",""num_scrambled_causal"":""4"",""num_scrambled_schematic"":""4"",""participantId"":""5F1A52C86AF248B5BE88E6175692917B"",""assignmentId"":""0198be20-ac77-7156-aed4-df2f5ede3935"",""projectId"":""0198be1d-574a-752e-ae53-1d263a30e856""}","https://test12345.live/?num_scrambled_semantic=8&num_scrambled_causal=4&num_scrambled_schematic=4&participantId=5F1A52C86AF248B5BE88E6175692917B&assignmentId=0198be20-ac77-7156-aed4-df2f5ede3935&projectId=0198be1d-574a-752e-ae53-1d263a30e856","5F1A52C86AF248B5BE88E6175692917B-2025-08-18-17-35-31","","null","","images/causal_sequence/dog_causal/dog_causal_8.png","null","",""
"","","","","","image-button-response","47","330958","0.0-10.0-1.0-1.7","5F1A52C86AF248B5BE88E6175692917B","5F1A52C86AF248B5BE88E6175692917B","0198be20-ac77-7156-aed4-df2f5ede3935","0198be1d-574a-752e-ae53-1d263a30e856","{""num_scrambled_semantic"":""8"",""num_scrambled_causal"":""4"",""num_scrambled_schematic"":""4"",""participantId"":""5F1A52C86AF248B5BE88E6175692917B"",""assignmentId"":""0198be20-ac77-7156-aed4-df2f5ede3935"",""projectId"":""0198be1d-574a-752e-ae53-1d263a30e856""}","https://test12345.live/?num_scrambled_semantic=8&num_scrambled_causal=4&num_scrambled_schematic=4&participantId=5F1A52C86AF248B5BE88E6175692917B&assignmentId=0198be20-ac77-7156-aed4-df2f5ede3935&projectId=0198be1d-574a-752e-ae53-1d263a30e856","5F1A52C86AF248B5BE88E6175692917B-2025-08-18-17-35-31","","1665","","images/causal_sequence/dog_causal/dog_causal_8.png","0","",""
"","","","","","image-button-response","48","341781","0.0-10.0-1.0-2.7","5F1A52C86AF248B5BE88E6175692917B","5F1A52C86AF248B5BE88E6175692917B","0198be20-ac77-7156-aed4-df2f5ede3935","0198be1d-574a-752e-ae53-1d263a30e856","{""num_scrambled_semantic"":""8"",""num_scrambled_causal"":""4"",""num_scrambled_schematic"":""4"",""participantId"":""5F1A52C86AF248B5BE88E6175692917B"",""assignmentId"":""0198be20-ac77-7156-aed4-df2f5ede3935"",""projectId"":""0198be1d-574a-752e-ae53-1d263a30e856""}","https://test12345.live/?num_scrambled_semantic=8&num_scrambled_causal=4&num_scrambled_schematic=4&participantId=5F1A52C86AF248B5BE88E6175692917B&assignmentId=0198be20-ac77-7156-aed4-df2f5ede3935&projectId=0198be1d-574a-752e-ae53-1d263a30e856","5F1A52C86AF248B5BE88E6175692917B-2025-08-18-17-35-31","","null","","[]","null","",""
"","","","","","image-button-response","49","346288","0.0-10.0-1.0-0.8","5F1A52C86AF248B5BE88E6175692917B","5F1A52C86AF248B5BE88E6175692917B","0198be20-ac77-7156-aed4-df2f5ede3935","0198be1d-574a-752e-ae53-1d263a30e856","{""num_scrambled_semantic"":""8"",""num_scrambled_causal"":""4"",""num_scrambled_schematic"":""4"",""participantId"":""5F1A52C86AF248B5BE88E6175692917B"",""assignmentId"":""0198be20-ac77-7156-aed4-df2f5ede3935"",""projectId"":""0198be1d-574a-752e-ae53-1d263a30e856""}","https://test12345.live/?num_scrambled_semantic=8&num_scrambled_causal=4&num_scrambled_schematic=4&participantId=5F1A52C86AF248B5BE88E6175692917B&assignmentId=0198be20-ac77-7156-aed4-df2f5ede3935&projectId=0198be1d-574a-752e-ae53-1d263a30e856","5F1A52C86AF248B5BE88E6175692917B-2025-08-18-17-35-31","","null","","images/causal_sequence/dog_causal/dog_causal_1.png","null","",""
"","","","","","image-button-response","50","347730","0.0-10.0-1.0-1.8","5F1A52C86AF248B5BE88E6175692917B","5F1A52C86AF248B5BE88E6175692917B","0198be20-ac77-7156-aed4-df2f5ede3935","0198be1d-574a-752e-ae53-1d263a30e856","{""num_scrambled_semantic"":""8"",""num_scrambled_causal"":""4"",""num_scrambled_schematic"":""4"",""participantId"":""5F1A52C86AF248B5BE88E6175692917B"",""assignmentId"":""0198be20-ac77-7156-aed4-df2f5ede3935"",""projectId"":""0198be1d-574a-752e-ae53-1d263a30e856""}","https://test12345.live/?num_scrambled_semantic=8&num_scrambled_causal=4&num_scrambled_schematic=4&participantId=5F1A52C86AF248B5BE88E6175692917B&assignmentId=0198be20-ac77-7156-aed4-df2f5ede3935&projectId=0198be1d-574a-752e-ae53-1d263a30e856","5F1A52C86AF248B5BE88E6175692917B-2025-08-18-17-35-31","","1441","","images/causal_sequence/dog_causal/dog_causal_1.png","0","",""
"","","","","","image-button-response","51","358544","0.0-10.0-1.0-2.8","5F1A52C86AF248B5BE88E6175692917B","5F1A52C86AF248B5BE88E6175692917B","0198be20-ac77-7156-aed4-df2f5ede3935","0198be1d-574a-752e-ae53-1d263a30e856","{""num_scrambled_semantic"":""8"",""num_scrambled_causal"":""4"",""num_scrambled_schematic"":""4"",""participantId"":""5F1A52C86AF248B5BE88E6175692917B"",""assignmentId"":""0198be20-ac77-7156-aed4-df2f5ede3935"",""projectId"":""0198be1d-574a-752e-ae53-1d263a30e856""}","https://test12345.live/?num_scrambled_semantic=8&num_scrambled_causal=4&num_scrambled_schematic=4&participantId=5F1A52C86AF248B5BE88E6175692917B&assignmentId=0198be20-ac77-7156-aed4-df2f5ede3935&projectId=0198be1d-574a-752e-ae53-1d263a30e856","5F1A52C86AF248B5BE88E6175692917B-2025-08-18-17-35-31","","null","","[]","null","",""
"","","","","","image-button-response","52","363056","0.0-10.0-1.0-0.9","5F1A52C86AF248B5BE88E6175692917B","5F1A52C86AF248B5BE88E6175692917B","0198be20-ac77-7156-aed4-df2f5ede3935","0198be1d-574a-752e-ae53-1d263a30e856","{""num_scrambled_semantic"":""8"",""num_scrambled_causal"":""4"",""num_scrambled_schematic"":""4"",""participantId"":""5F1A52C86AF248B5BE88E6175692917B"",""assignmentId"":""0198be20-ac77-7156-aed4-df2f5ede3935"",""projectId"":""0198be1d-574a-752e-ae53-1d263a30e856""}","https://test12345.live/?num_scrambled_semantic=8&num_scrambled_causal=4&num_scrambled_schematic=4&participantId=5F1A52C86AF248B5BE88E6175692917B&assignmentId=0198be20-ac77-7156-aed4-df2f5ede3935&projectId=0198be1d-574a-752e-ae53-1d263a30e856","5F1A52C86AF248B5BE88E6175692917B-2025-08-18-17-35-31","","null","","images/causal_sequence/dog_causal/dog_causal_ten.png","null","",""
"","","","","","image-button-response","53","364295","0.0-10.0-1.0-1.9","5F1A52C86AF248B5BE88E6175692917B","5F1A52C86AF248B5BE88E6175692917B","0198be20-ac77-7156-aed4-df2f5ede3935","0198be1d-574a-752e-ae53-1d263a30e856","{""num_scrambled_semantic"":""8"",""num_scrambled_causal"":""4"",""num_scrambled_schematic"":""4"",""participantId"":""5F1A52C86AF248B5BE88E6175692917B"",""assignmentId"":""0198be20-ac77-7156-aed4-df2f5ede3935"",""projectId"":""0198be1d-574a-752e-ae53-1d263a30e856""}","https://test12345.live/?num_scrambled_semantic=8&num_scrambled_causal=4&num_scrambled_schematic=4&participantId=5F1A52C86AF248B5BE88E6175692917B&assignmentId=0198be20-ac77-7156-aed4-df2f5ede3935&projectId=0198be1d-574a-752e-ae53-1d263a30e856","5F1A52C86AF248B5BE88E6175692917B-2025-08-18-17-35-31","","1237","","images/causal_sequence/dog_causal/dog_causal_ten.png","0","",""
"","","","","","image-button-response","54","375107","0.0-10.0-1.0-2.9","5F1A52C86AF248B5BE88E6175692917B","5F1A52C86AF248B5BE88E6175692917B","0198be20-ac77-7156-aed4-df2f5ede3935","0198be1d-574a-752e-ae53-1d263a30e856","{""num_scrambled_semantic"":""8"",""num_scrambled_causal"":""4"",""num_scrambled_schematic"":""4"",""participantId"":""5F1A52C86AF248B5BE88E6175692917B"",""assignmentId"":""0198be20-ac77-7156-aed4-df2f5ede3935"",""projectId"":""0198be1d-574a-752e-ae53-1d263a30e856""}","https://test12345.live/?num_scrambled_semantic=8&num_scrambled_causal=4&num_scrambled_schematic=4&participantId=5F1A52C86AF248B5BE88E6175692917B&assignmentId=0198be20-ac77-7156-aed4-df2f5ede3935&projectId=0198be1d-574a-752e-ae53-1d263a30e856","5F1A52C86AF248B5BE88E6175692917B-2025-08-18-17-35-31","","null","","[]","null","",""
"","","","","","html-audio-response","55","474371","0.0-11.0","5F1A52C86AF248B5BE88E6175692917B","5F1A52C86AF248B5BE88E6175692917B","0198be20-ac77-7156-aed4-df2f5ede3935","0198be1d-574a-752e-ae53-1d263a30e856","{""num_scrambled_semantic"":""8"",""num_scrambled_causal"":""4"",""num_scrambled_schematic"":""4"",""participantId"":""5F1A52C86AF248B5BE88E6175692917B"",""assignmentId"":""0198be20-ac77-7156-aed4-df2f5ede3935"",""projectId"":""0198be1d-574a-752e-ae53-1d263a30e856""}","https://test12345.live/?num_scrambled_semantic=8&num_scrambled_causal=4&num_scrambled_schematic=4&participantId=5F1A52C86AF248B5BE88E6175692917B&assignmentId=0198be20-ac77-7156-aed4-df2f5ede3935&projectId=0198be1d-574a-752e-ae53-1d263a30e856","5F1A52C86AF248B5BE88E6175692917B-2025-08-18-17-35-31","","27618","","[""<span style=\""color: red; font-size: 24px\""> NOW RECORDING</span><p>Please say out loud all the images you saw, in the exact order you saw them. Try to recall as many images as you can, but remember: getting the order right is more important than the number of images you recall.</p>""]","","17","dog_causal"
"","","","","","image-button-response","56","480376","0.0-12.0-0.0","5F1A52C86AF248B5BE88E6175692917B","5F1A52C86AF248B5BE88E6175692917B","0198be20-ac77-7156-aed4-df2f5ede3935","0198be1d-574a-752e-ae53-1d263a30e856","{""num_scrambled_semantic"":""8"",""num_scrambled_causal"":""4"",""num_scrambled_schematic"":""4"",""participantId"":""5F1A52C86AF248B5BE88E6175692917B"",""assignmentId"":""0198be20-ac77-7156-aed4-df2f5ede3935"",""projectId"":""0198be1d-574a-752e-ae53-1d263a30e856""}","https://test12345.live/?num_scrambled_semantic=8&num_scrambled_causal=4&num_scrambled_schematic=4&participantId=5F1A52C86AF248B5BE88E6175692917B&assignmentId=0198be20-ac77-7156-aed4-df2f5ede3935&projectId=0198be1d-574a-752e-ae53-1d263a30e856","5F1A52C86AF248B5BE88E6175692917B-2025-08-18-17-35-31","","null","","images/semantic_sequence/physical_activity_semantic/physical_activity_semantic_0.png","null","",""
"","","","","","image-button-response","57","484888","0.0-12.0-1.0-0.0","5F1A52C86AF248B5BE88E6175692917B","5F1A52C86AF248B5BE88E6175692917B","0198be20-ac77-7156-aed4-df2f5ede3935","0198be1d-574a-752e-ae53-1d263a30e856","{""num_scrambled_semantic"":""8"",""num_scrambled_causal"":""4"",""num_scrambled_schematic"":""4"",""participantId"":""5F1A52C86AF248B5BE88E6175692917B"",""assignmentId"":""0198be20-ac77-7156-aed4-df2f5ede3935"",""projectId"":""0198be1d-574a-752e-ae53-1d263a30e856""}","https://test12345.live/?num_scrambled_semantic=8&num_scrambled_causal=4&num_scrambled_schematic=4&participantId=5F1A52C86AF248B5BE88E6175692917B&assignmentId=0198be20-ac77-7156-aed4-df2f5ede3935&projectId=0198be1d-574a-752e-ae53-1d263a30e856","5F1A52C86AF248B5BE88E6175692917B-2025-08-18-17-35-31","","null","","images/semantic_sequence/physical_activity_semantic/physical_activity_semantic_8.png","null","",""
"","","","","","image-button-response","58","487307","0.0-12.0-1.0-1.0","5F1A52C86AF248B5BE88E6175692917B","5F1A52C86AF248B5BE88E6175692917B","0198be20-ac77-7156-aed4-df2f5ede3935","0198be1d-574a-752e-ae53-1d263a30e856","{""num_scrambled_semantic"":""8"",""num_scrambled_causal"":""4"",""num_scrambled_schematic"":""4"",""participantId"":""5F1A52C86AF248B5BE88E6175692917B"",""assignmentId"":""0198be20-ac77-7156-aed4-df2f5ede3935"",""projectId"":""0198be1d-574a-752e-ae53-1d263a30e856""}","https://test12345.live/?num_scrambled_semantic=8&num_scrambled_causal=4&num_scrambled_schematic=4&participantId=5F1A52C86AF248B5BE88E6175692917B&assignmentId=0198be20-ac77-7156-aed4-df2f5ede3935&projectId=0198be1d-574a-752e-ae53-1d263a30e856","5F1A52C86AF248B5BE88E6175692917B-2025-08-18-17-35-31","","2417","","images/semantic_sequence/physical_activity_semantic/physical_activity_semantic_8.png","0","",""
"","","","","","image-button-response","59","498116","0.0-12.0-1.0-2.0","5F1A52C86AF248B5BE88E6175692917B","5F1A52C86AF248B5BE88E6175692917B","0198be20-ac77-7156-aed4-df2f5ede3935","0198be1d-574a-752e-ae53-1d263a30e856","{""num_scrambled_semantic"":""8"",""num_scrambled_causal"":""4"",""num_scrambled_schematic"":""4"",""participantId"":""5F1A52C86AF248B5BE88E6175692917B"",""assignmentId"":""0198be20-ac77-7156-aed4-df2f5ede3935"",""projectId"":""0198be1d-574a-752e-ae53-1d263a30e856""}","https://test12345.live/?num_scrambled_semantic=8&num_scrambled_causal=4&num_scrambled_schematic=4&participantId=5F1A52C86AF248B5BE88E6175692917B&assignmentId=0198be20-ac77-7156-aed4-df2f5ede3935&projectId=0198be1d-574a-752e-ae53-1d263a30e856","5F1A52C86AF248B5BE88E6175692917B-2025-08-18-17-35-31","","null","","[]","null","",""
"","","","","","image-button-response","60","502628","0.0-12.0-1.0-0.1","5F1A52C86AF248B5BE88E6175692917B","5F1A52C86AF248B5BE88E6175692917B","0198be20-ac77-7156-aed4-df2f5ede3935","0198be1d-574a-752e-ae53-1d263a30e856","{""num_scrambled_semantic"":""8"",""num_scrambled_causal"":""4"",""num_scrambled_schematic"":""4"",""participantId"":""5F1A52C86AF248B5BE88E6175692917B"",""assignmentId"":""0198be20-ac77-7156-aed4-df2f5ede3935"",""projectId"":""0198be1d-574a-752e-ae53-1d263a30e856""}","https://test12345.live/?num_scrambled_semantic=8&num_scrambled_causal=4&num_scrambled_schematic=4&participantId=5F1A52C86AF248B5BE88E6175692917B&assignmentId=0198be20-ac77-7156-aed4-df2f5ede3935&projectId=0198be1d-574a-752e-ae53-1d263a30e856","5F1A52C86AF248B5BE88E6175692917B-2025-08-18-17-35-31","","null","","images/semantic_sequence/physical_activity_semantic/physical_activity_semantic_1.png","null","",""
"","","","","","image-button-response","61","506227","0.0-12.0-1.0-1.1","5F1A52C86AF248B5BE88E6175692917B","5F1A52C86AF248B5BE88E6175692917B","0198be20-ac77-7156-aed4-df2f5ede3935","0198be1d-574a-752e-ae53-1d263a30e856","{""num_scrambled_semantic"":""8"",""num_scrambled_causal"":""4"",""num_scrambled_schematic"":""4"",""participantId"":""5F1A52C86AF248B5BE88E6175692917B"",""assignmentId"":""0198be20-ac77-7156-aed4-df2f5ede3935"",""projectId"":""0198be1d-574a-752e-ae53-1d263a30e856""}","https://test12345.live/?num_scrambled_semantic=8&num_scrambled_causal=4&num_scrambled_schematic=4&participantId=5F1A52C86AF248B5BE88E6175692917B&assignmentId=0198be20-ac77-7156-aed4-df2f5ede3935&projectId=0198be1d-574a-752e-ae53-1d263a30e856","5F1A52C86AF248B5BE88E6175692917B-2025-08-18-17-35-31","","3598","","images/semantic_sequence/physical_activity_semantic/physical_activity_semantic_1.png","0","",""
"","","","","","image-button-response","62","517041","0.0-12.0-1.0-2.1","5F1A52C86AF248B5BE88E6175692917B","5F1A52C86AF248B5BE88E6175692917B","0198be20-ac77-7156-aed4-df2f5ede3935","0198be1d-574a-752e-ae53-1d263a30e856","{""num_scrambled_semantic"":""8"",""num_scrambled_causal"":""4"",""num_scrambled_schematic"":""4"",""participantId"":""5F1A52C86AF248B5BE88E6175692917B"",""assignmentId"":""0198be20-ac77-7156-aed4-df2f5ede3935"",""projectId"":""0198be1d-574a-752e-ae53-1d263a30e856""}","https://test12345.live/?num_scrambled_semantic=8&num_scrambled_causal=4&num_scrambled_schematic=4&participantId=5F1A52C86AF248B5BE88E6175692917B&assignmentId=0198be20-ac77-7156-aed4-df2f5ede3935&projectId=0198be1d-574a-752e-ae53-1d263a30e856","5F1A52C86AF248B5BE88E6175692917B-2025-08-18-17-35-31","","null","","[]","null","",""
"","","","","","image-button-response","63","521545","0.0-12.0-1.0-0.2","5F1A52C86AF248B5BE88E6175692917B","5F1A52C86AF248B5BE88E6175692917B","0198be20-ac77-7156-aed4-df2f5ede3935","0198be1d-574a-752e-ae53-1d263a30e856","{""num_scrambled_semantic"":""8"",""num_scrambled_causal"":""4"",""num_scrambled_schematic"":""4"",""participantId"":""5F1A52C86AF248B5BE88E6175692917B"",""assignmentId"":""0198be20-ac77-7156-aed4-df2f5ede3935"",""projectId"":""0198be1d-574a-752e-ae53-1d263a30e856""}","https://test12345.live/?num_scrambled_semantic=8&num_scrambled_causal=4&num_scrambled_schematic=4&participantId=5F1A52C86AF248B5BE88E6175692917B&assignmentId=0198be20-ac77-7156-aed4-df2f5ede3935&projectId=0198be1d-574a-752e-ae53-1d263a30e856","5F1A52C86AF248B5BE88E6175692917B-2025-08-18-17-35-31","","null","","images/semantic_sequence/physical_activity_semantic/physical_activity_semantic_9.png","null","",""
"","","","","","image-button-response","64","523952","0.0-12.0-1.0-1.2","5F1A52C86AF248B5BE88E6175692917B","5F1A52C86AF248B5BE88E6175692917B","0198be20-ac77-7156-aed4-df2f5ede3935","0198be1d-574a-752e-ae53-1d263a30e856","{""num_scrambled_semantic"":""8"",""num_scrambled_causal"":""4"",""num_scrambled_schematic"":""4"",""participantId"":""5F1A52C86AF248B5BE88E6175692917B"",""assignmentId"":""0198be20-ac77-7156-aed4-df2f5ede3935"",""projectId"":""0198be1d-574a-752e-ae53-1d263a30e856""}","https://test12345.live/?num_scrambled_semantic=8&num_scrambled_causal=4&num_scrambled_schematic=4&participantId=5F1A52C86AF248B5BE88E6175692917B&assignmentId=0198be20-ac77-7156-aed4-df2f5ede3935&projectId=0198be1d-574a-752e-ae53-1d263a30e856","5F1A52C86AF248B5BE88E6175692917B-2025-08-18-17-35-31","","2406","","images/semantic_sequence/physical_activity_semantic/physical_activity_semantic_9.png","0","",""
"","","","","","image-button-response","65","534756","0.0-12.0-1.0-2.2","5F1A52C86AF248B5BE88E6175692917B","5F1A52C86AF248B5BE88E6175692917B","0198be20-ac77-7156-aed4-df2f5ede3935","0198be1d-574a-752e-ae53-1d263a30e856","{""num_scrambled_semantic"":""8"",""num_scrambled_causal"":""4"",""num_scrambled_schematic"":""4"",""participantId"":""5F1A52C86AF248B5BE88E6175692917B"",""assignmentId"":""0198be20-ac77-7156-aed4-df2f5ede3935"",""projectId"":""0198be1d-574a-752e-ae53-1d263a30e856""}","https://test12345.live/?num_scrambled_semantic=8&num_scrambled_causal=4&num_scrambled_schematic=4&participantId=5F1A52C86AF248B5BE88E6175692917B&assignmentId=0198be20-ac77-7156-aed4-df2f5ede3935&projectId=0198be1d-574a-752e-ae53-1d263a30e856","5F1A52C86AF248B5BE88E6175692917B-2025-08-18-17-35-31","","null","","[]","null","",""
"","","","","","image-button-response","66","539260","0.0-12.0-1.0-0.3","5F1A52C86AF248B5BE88E6175692917B","5F1A52C86AF248B5BE88E6175692917B","0198be20-ac77-7156-aed4-df2f5ede3935","0198be1d-574a-752e-ae53-1d263a30e856","{""num_scrambled_semantic"":""8"",""num_scrambled_causal"":""4"",""num_scrambled_schematic"":""4"",""participantId"":""5F1A52C86AF248B5BE88E6175692917B"",""assignmentId"":""0198be20-ac77-7156-aed4-df2f5ede3935"",""projectId"":""0198be1d-574a-752e-ae53-1d263a30e856""}","https://test12345.live/?num_scrambled_semantic=8&num_scrambled_causal=4&num_scrambled_schematic=4&participantId=5F1A52C86AF248B5BE88E6175692917B&assignmentId=0198be20-ac77-7156-aed4-df2f5ede3935&projectId=0198be1d-574a-752e-ae53-1d263a30e856","5F1A52C86AF248B5BE88E6175692917B-2025-08-18-17-35-31","","null","","images/semantic_sequence/physical_activity_semantic/physical_activity_semantic_6.png","null","",""
"","","","","","image-button-response","67","541315","0.0-12.0-1.0-1.3","5F1A52C86AF248B5BE88E6175692917B","5F1A52C86AF248B5BE88E6175692917B","0198be20-ac77-7156-aed4-df2f5ede3935","0198be1d-574a-752e-ae53-1d263a30e856","{""num_scrambled_semantic"":""8"",""num_scrambled_causal"":""4"",""num_scrambled_schematic"":""4"",""participantId"":""5F1A52C86AF248B5BE88E6175692917B"",""assignmentId"":""0198be20-ac77-7156-aed4-df2f5ede3935"",""projectId"":""0198be1d-574a-752e-ae53-1d263a30e856""}","https://test12345.live/?num_scrambled_semantic=8&num_scrambled_causal=4&num_scrambled_schematic=4&participantId=5F1A52C86AF248B5BE88E6175692917B&assignmentId=0198be20-ac77-7156-aed4-df2f5ede3935&projectId=0198be1d-574a-752e-ae53-1d263a30e856","5F1A52C86AF248B5BE88E6175692917B-2025-08-18-17-35-31","","2053","","images/semantic_sequence/physical_activity_semantic/physical_activity_semantic_6.png","0","",""
"","","","","","image-button-response","68","552121","0.0-12.0-1.0-2.3","5F1A52C86AF248B5BE88E6175692917B","5F1A52C86AF248B5BE88E6175692917B","0198be20-ac77-7156-aed4-df2f5ede3935","0198be1d-574a-752e-ae53-1d263a30e856","{""num_scrambled_semantic"":""8"",""num_scrambled_causal"":""4"",""num_scrambled_schematic"":""4"",""participantId"":""5F1A52C86AF248B5BE88E6175692917B"",""assignmentId"":""0198be20-ac77-7156-aed4-df2f5ede3935"",""projectId"":""0198be1d-574a-752e-ae53-1d263a30e856""}","https://test12345.live/?num_scrambled_semantic=8&num_scrambled_causal=4&num_scrambled_schematic=4&participantId=5F1A52C86AF248B5BE88E6175692917B&assignmentId=0198be20-ac77-7156-aed4-df2f5ede3935&projectId=0198be1d-574a-752e-ae53-1d263a30e856","5F1A52C86AF248B5BE88E6175692917B-2025-08-18-17-35-31","","null","","[]","null","",""
"","","","","","image-button-response","69","556627","0.0-12.0-1.0-0.4","5F1A52C86AF248B5BE88E6175692917B","5F1A52C86AF248B5BE88E6175692917B","0198be20-ac77-7156-aed4-df2f5ede3935","0198be1d-574a-752e-ae53-1d263a30e856","{""num_scrambled_semantic"":""8"",""num_scrambled_causal"":""4"",""num_scrambled_schematic"":""4"",""participantId"":""5F1A52C86AF248B5BE88E6175692917B"",""assignmentId"":""0198be20-ac77-7156-aed4-df2f5ede3935"",""projectId"":""0198be1d-574a-752e-ae53-1d263a30e856""}","https://test12345.live/?num_scrambled_semantic=8&num_scrambled_causal=4&num_scrambled_schematic=4&participantId=5F1A52C86AF248B5BE88E6175692917B&assignmentId=0198be20-ac77-7156-aed4-df2f5ede3935&projectId=0198be1d-574a-752e-ae53-1d263a30e856","5F1A52C86AF248B5BE88E6175692917B-2025-08-18-17-35-31","","null","","images/semantic_sequence/physical_activity_semantic/physical_activity_semantic_ten.png","null","",""
"","","","","","image-button-response","70","558946","0.0-12.0-1.0-1.4","5F1A52C86AF248B5BE88E6175692917B","5F1A52C86AF248B5BE88E6175692917B","0198be20-ac77-7156-aed4-df2f5ede3935","0198be1d-574a-752e-ae53-1d263a30e856","{""num_scrambled_semantic"":""8"",""num_scrambled_causal"":""4"",""num_scrambled_schematic"":""4"",""participantId"":""5F1A52C86AF248B5BE88E6175692917B"",""assignmentId"":""0198be20-ac77-7156-aed4-df2f5ede3935"",""projectId"":""0198be1d-574a-752e-ae53-1d263a30e856""}","https://test12345.live/?num_scrambled_semantic=8&num_scrambled_causal=4&num_scrambled_schematic=4&participantId=5F1A52C86AF248B5BE88E6175692917B&assignmentId=0198be20-ac77-7156-aed4-df2f5ede3935&projectId=0198be1d-574a-752e-ae53-1d263a30e856","5F1A52C86AF248B5BE88E6175692917B-2025-08-18-17-35-31","","2318","","images/semantic_sequence/physical_activity_semantic/physical_activity_semantic_ten.png","0","",""
"","","","","","image-button-response","71","569760","0.0-12.0-1.0-2.4","5F1A52C86AF248B5BE88E6175692917B","5F1A52C86AF248B5BE88E6175692917B","0198be20-ac77-7156-aed4-df2f5ede3935","0198be1d-574a-752e-ae53-1d263a30e856","{""num_scrambled_semantic"":""8"",""num_scrambled_causal"":""4"",""num_scrambled_schematic"":""4"",""participantId"":""5F1A52C86AF248B5BE88E6175692917B"",""assignmentId"":""0198be20-ac77-7156-aed4-df2f5ede3935"",""projectId"":""0198be1d-574a-752e-ae53-1d263a30e856""}","https://test12345.live/?num_scrambled_semantic=8&num_scrambled_causal=4&num_scrambled_schematic=4&participantId=5F1A52C86AF248B5BE88E6175692917B&assignmentId=0198be20-ac77-7156-aed4-df2f5ede3935&projectId=0198be1d-574a-752e-ae53-1d263a30e856","5F1A52C86AF248B5BE88E6175692917B-2025-08-18-17-35-31","","null","","[]","null","",""
"","","","","","image-button-response","72","574271","0.0-12.0-1.0-0.5","5F1A52C86AF248B5BE88E6175692917B","5F1A52C86AF248B5BE88E6175692917B","0198be20-ac77-7156-aed4-df2f5ede3935","0198be1d-574a-752e-ae53-1d263a30e856","{""num_scrambled_semantic"":""8"",""num_scrambled_causal"":""4"",""num_scrambled_schematic"":""4"",""participantId"":""5F1A52C86AF248B5BE88E6175692917B"",""assignmentId"":""0198be20-ac77-7156-aed4-df2f5ede3935"",""projectId"":""0198be1d-574a-752e-ae53-1d263a30e856""}","https://test12345.live/?num_scrambled_semantic=8&num_scrambled_causal=4&num_scrambled_schematic=4&participantId=5F1A52C86AF248B5BE88E6175692917B&assignmentId=0198be20-ac77-7156-aed4-df2f5ede3935&projectId=0198be1d-574a-752e-ae53-1d263a30e856","5F1A52C86AF248B5BE88E6175692917B-2025-08-18-17-35-31","","null","","images/semantic_sequence/physical_activity_semantic/physical_activity_semantic_7.png","null","",""
"","","","","","image-button-response","73","577491","0.0-12.0-1.0-1.5","5F1A52C86AF248B5BE88E6175692917B","5F1A52C86AF248B5BE88E6175692917B","0198be20-ac77-7156-aed4-df2f5ede3935","0198be1d-574a-752e-ae53-1d263a30e856","{""num_scrambled_semantic"":""8"",""num_scrambled_causal"":""4"",""num_scrambled_schematic"":""4"",""participantId"":""5F1A52C86AF248B5BE88E6175692917B"",""assignmentId"":""0198be20-ac77-7156-aed4-df2f5ede3935"",""projectId"":""0198be1d-574a-752e-ae53-1d263a30e856""}","https://test12345.live/?num_scrambled_semantic=8&num_scrambled_causal=4&num_scrambled_schematic=4&participantId=5F1A52C86AF248B5BE88E6175692917B&assignmentId=0198be20-ac77-7156-aed4-df2f5ede3935&projectId=0198be1d-574a-752e-ae53-1d263a30e856","5F1A52C86AF248B5BE88E6175692917B-2025-08-18-17-35-31","","3218","","images/semantic_sequence/physical_activity_semantic/physical_activity_semantic_7.png","0","",""
"","","","","","image-button-response","74","588299","0.0-12.0-1.0-2.5","5F1A52C86AF248B5BE88E6175692917B","5F1A52C86AF248B5BE88E6175692917B","0198be20-ac77-7156-aed4-df2f5ede3935","0198be1d-574a-752e-ae53-1d263a30e856","{""num_scrambled_semantic"":""8"",""num_scrambled_causal"":""4"",""num_scrambled_schematic"":""4"",""participantId"":""5F1A52C86AF248B5BE88E6175692917B"",""assignmentId"":""0198be20-ac77-7156-aed4-df2f5ede3935"",""projectId"":""0198be1d-574a-752e-ae53-1d263a30e856""}","https://test12345.live/?num_scrambled_semantic=8&num_scrambled_causal=4&num_scrambled_schematic=4&participantId=5F1A52C86AF248B5BE88E6175692917B&assignmentId=0198be20-ac77-7156-aed4-df2f5ede3935&projectId=0198be1d-574a-752e-ae53-1d263a30e856","5F1A52C86AF248B5BE88E6175692917B-2025-08-18-17-35-31","","null","","[]","null","",""
"","","","","","image-button-response","75","592812","0.0-12.0-1.0-0.6","5F1A52C86AF248B5BE88E6175692917B","5F1A52C86AF248B5BE88E6175692917B","0198be20-ac77-7156-aed4-df2f5ede3935","0198be1d-574a-752e-ae53-1d263a30e856","{""num_scrambled_semantic"":""8"",""num_scrambled_causal"":""4"",""num_scrambled_schematic"":""4"",""participantId"":""5F1A52C86AF248B5BE88E6175692917B"",""assignmentId"":""0198be20-ac77-7156-aed4-df2f5ede3935"",""projectId"":""0198be1d-574a-752e-ae53-1d263a30e856""}","https://test12345.live/?num_scrambled_semantic=8&num_scrambled_causal=4&num_scrambled_schematic=4&participantId=5F1A52C86AF248B5BE88E6175692917B&assignmentId=0198be20-ac77-7156-aed4-df2f5ede3935&projectId=0198be1d-574a-752e-ae53-1d263a30e856","5F1A52C86AF248B5BE88E6175692917B-2025-08-18-17-35-31","","null","","images/semantic_sequence/physical_activity_semantic/physical_activity_semantic_2.png","null","",""
"","","","","","image-button-response","76","595748","0.0-12.0-1.0-1.6","5F1A52C86AF248B5BE88E6175692917B","5F1A52C86AF248B5BE88E6175692917B","0198be20-ac77-7156-aed4-df2f5ede3935","0198be1d-574a-752e-ae53-1d263a30e856","{""num_scrambled_semantic"":""8"",""num_scrambled_causal"":""4"",""num_scrambled_schematic"":""4"",""participantId"":""5F1A52C86AF248B5BE88E6175692917B"",""assignmentId"":""0198be20-ac77-7156-aed4-df2f5ede3935"",""projectId"":""0198be1d-574a-752e-ae53-1d263a30e856""}","https://test12345.live/?num_scrambled_semantic=8&num_scrambled_causal=4&num_scrambled_schematic=4&participantId=5F1A52C86AF248B5BE88E6175692917B&assignmentId=0198be20-ac77-7156-aed4-df2f5ede3935&projectId=0198be1d-574a-752e-ae53-1d263a30e856","5F1A52C86AF248B5BE88E6175692917B-2025-08-18-17-35-31","","2934","","images/semantic_sequence/physical_activity_semantic/physical_activity_semantic_2.png","0","",""
"","","","","","image-button-response","77","606552","0.0-12.0-1.0-2.6","5F1A52C86AF248B5BE88E6175692917B","5F1A52C86AF248B5BE88E6175692917B","0198be20-ac77-7156-aed4-df2f5ede3935","0198be1d-574a-752e-ae53-1d263a30e856","{""num_scrambled_semantic"":""8"",""num_scrambled_causal"":""4"",""num_scrambled_schematic"":""4"",""participantId"":""5F1A52C86AF248B5BE88E6175692917B"",""assignmentId"":""0198be20-ac77-7156-aed4-df2f5ede3935"",""projectId"":""0198be1d-574a-752e-ae53-1d263a30e856""}","https://test12345.live/?num_scrambled_semantic=8&num_scrambled_causal=4&num_scrambled_schematic=4&participantId=5F1A52C86AF248B5BE88E6175692917B&assignmentId=0198be20-ac77-7156-aed4-df2f5ede3935&projectId=0198be1d-574a-752e-ae53-1d263a30e856","5F1A52C86AF248B5BE88E6175692917B-2025-08-18-17-35-31","","null","","[]","null","",""
"","","","","","image-button-response","78","611058","0.0-12.0-1.0-0.7","5F1A52C86AF248B5BE88E6175692917B","5F1A52C86AF248B5BE88E6175692917B","0198be20-ac77-7156-aed4-df2f5ede3935","0198be1d-574a-752e-ae53-1d263a30e856","{""num_scrambled_semantic"":""8"",""num_scrambled_causal"":""4"",""num_scrambled_schematic"":""4"",""participantId"":""5F1A52C86AF248B5BE88E6175692917B"",""assignmentId"":""0198be20-ac77-7156-aed4-df2f5ede3935"",""projectId"":""0198be1d-574a-752e-ae53-1d263a30e856""}","https://test12345.live/?num_scrambled_semantic=8&num_scrambled_causal=4&num_scrambled_schematic=4&participantId=5F1A52C86AF248B5BE88E6175692917B&assignmentId=0198be20-ac77-7156-aed4-df2f5ede3935&projectId=0198be1d-574a-752e-ae53-1d263a30e856","5F1A52C86AF248B5BE88E6175692917B-2025-08-18-17-35-31","","null","","images/semantic_sequence/physical_activity_semantic/physical_activity_semantic_4.png","null","",""
"","","","","","image-button-response","79","613158","0.0-12.0-1.0-1.7","5F1A52C86AF248B5BE88E6175692917B","5F1A52C86AF248B5BE88E6175692917B","0198be20-ac77-7156-aed4-df2f5ede3935","0198be1d-574a-752e-ae53-1d263a30e856","{""num_scrambled_semantic"":""8"",""num_scrambled_causal"":""4"",""num_scrambled_schematic"":""4"",""participantId"":""5F1A52C86AF248B5BE88E6175692917B"",""assignmentId"":""0198be20-ac77-7156-aed4-df2f5ede3935"",""projectId"":""0198be1d-574a-752e-ae53-1d263a30e856""}","https://test12345.live/?num_scrambled_semantic=8&num_scrambled_causal=4&num_scrambled_schematic=4&participantId=5F1A52C86AF248B5BE88E6175692917B&assignmentId=0198be20-ac77-7156-aed4-df2f5ede3935&projectId=0198be1d-574a-752e-ae53-1d263a30e856","5F1A52C86AF248B5BE88E6175692917B-2025-08-18-17-35-31","","2100","","images/semantic_sequence/physical_activity_semantic/physical_activity_semantic_4.png","0","",""
"","","","","","image-button-response","80","623962","0.0-12.0-1.0-2.7","5F1A52C86AF248B5BE88E6175692917B","5F1A52C86AF248B5BE88E6175692917B","0198be20-ac77-7156-aed4-df2f5ede3935","0198be1d-574a-752e-ae53-1d263a30e856","{""num_scrambled_semantic"":""8"",""num_scrambled_causal"":""4"",""num_scrambled_schematic"":""4"",""participantId"":""5F1A52C86AF248B5BE88E6175692917B"",""assignmentId"":""0198be20-ac77-7156-aed4-df2f5ede3935"",""projectId"":""0198be1d-574a-752e-ae53-1d263a30e856""}","https://test12345.live/?num_scrambled_semantic=8&num_scrambled_causal=4&num_scrambled_schematic=4&participantId=5F1A52C86AF248B5BE88E6175692917B&assignmentId=0198be20-ac77-7156-aed4-df2f5ede3935&projectId=0198be1d-574a-752e-ae53-1d263a30e856","5F1A52C86AF248B5BE88E6175692917B-2025-08-18-17-35-31","","null","","[]","null","",""
"","","","","","image-button-response","81","628472","0.0-12.0-1.0-0.8","5F1A52C86AF248B5BE88E6175692917B","5F1A52C86AF248B5BE88E6175692917B","0198be20-ac77-7156-aed4-df2f5ede3935","0198be1d-574a-752e-ae53-1d263a30e856","{""num_scrambled_semantic"":""8"",""num_scrambled_causal"":""4"",""num_scrambled_schematic"":""4"",""participantId"":""5F1A52C86AF248B5BE88E6175692917B"",""assignmentId"":""0198be20-ac77-7156-aed4-df2f5ede3935"",""projectId"":""0198be1d-574a-752e-ae53-1d263a30e856""}","https://test12345.live/?num_scrambled_semantic=8&num_scrambled_causal=4&num_scrambled_schematic=4&participantId=5F1A52C86AF248B5BE88E6175692917B&assignmentId=0198be20-ac77-7156-aed4-df2f5ede3935&projectId=0198be1d-574a-752e-ae53-1d263a30e856","5F1A52C86AF248B5BE88E6175692917B-2025-08-18-17-35-31","","null","","images/semantic_sequence/physical_activity_semantic/physical_activity_semantic_5.png","null","",""
"","","","","","image-button-response","82","630231","0.0-12.0-1.0-1.8","5F1A52C86AF248B5BE88E6175692917B","5F1A52C86AF248B5BE88E6175692917B","0198be20-ac77-7156-aed4-df2f5ede3935","0198be1d-574a-752e-ae53-1d263a30e856","{""num_scrambled_semantic"":""8"",""num_scrambled_causal"":""4"",""num_scrambled_schematic"":""4"",""participantId"":""5F1A52C86AF248B5BE88E6175692917B"",""assignmentId"":""0198be20-ac77-7156-aed4-df2f5ede3935"",""projectId"":""0198be1d-574a-752e-ae53-1d263a30e856""}","https://test12345.live/?num_scrambled_semantic=8&num_scrambled_causal=4&num_scrambled_schematic=4&participantId=5F1A52C86AF248B5BE88E6175692917B&assignmentId=0198be20-ac77-7156-aed4-df2f5ede3935&projectId=0198be1d-574a-752e-ae53-1d263a30e856","5F1A52C86AF248B5BE88E6175692917B-2025-08-18-17-35-31","","1751","","images/semantic_sequence/physical_activity_semantic/physical_activity_semantic_5.png","0","",""
"","","","","","image-button-response","83","641038","0.0-12.0-1.0-2.8","5F1A52C86AF248B5BE88E6175692917B","5F1A52C86AF248B5BE88E6175692917B","0198be20-ac77-7156-aed4-df2f5ede3935","0198be1d-574a-752e-ae53-1d263a30e856","{""num_scrambled_semantic"":""8"",""num_scrambled_causal"":""4"",""num_scrambled_schematic"":""4"",""participantId"":""5F1A52C86AF248B5BE88E6175692917B"",""assignmentId"":""0198be20-ac77-7156-aed4-df2f5ede3935"",""projectId"":""0198be1d-574a-752e-ae53-1d263a30e856""}","https://test12345.live/?num_scrambled_semantic=8&num_scrambled_causal=4&num_scrambled_schematic=4&participantId=5F1A52C86AF248B5BE88E6175692917B&assignmentId=0198be20-ac77-7156-aed4-df2f5ede3935&projectId=0198be1d-574a-752e-ae53-1d263a30e856","5F1A52C86AF248B5BE88E6175692917B-2025-08-18-17-35-31","","null","","[]","null","",""
"","","","","","image-button-response","84","645546","0.0-12.0-1.0-0.9","5F1A52C86AF248B5BE88E6175692917B","5F1A52C86AF248B5BE88E6175692917B","0198be20-ac77-7156-aed4-df2f5ede3935","0198be1d-574a-752e-ae53-1d263a30e856","{""num_scrambled_semantic"":""8"",""num_scrambled_causal"":""4"",""num_scrambled_schematic"":""4"",""participantId"":""5F1A52C86AF248B5BE88E6175692917B"",""assignmentId"":""0198be20-ac77-7156-aed4-df2f5ede3935"",""projectId"":""0198be1d-574a-752e-ae53-1d263a30e856""}","https://test12345.live/?num_scrambled_semantic=8&num_scrambled_causal=4&num_scrambled_schematic=4&participantId=5F1A52C86AF248B5BE88E6175692917B&assignmentId=0198be20-ac77-7156-aed4-df2f5ede3935&projectId=0198be1d-574a-752e-ae53-1d263a30e856","5F1A52C86AF248B5BE88E6175692917B-2025-08-18-17-35-31","","null","","images/semantic_sequence/physical_activity_semantic/physical_activity_semantic_3.png","null","",""
"","","","","","image-button-response","85","647887","0.0-12.0-1.0-1.9","5F1A52C86AF248B5BE88E6175692917B","5F1A52C86AF248B5BE88E6175692917B","0198be20-ac77-7156-aed4-df2f5ede3935","0198be1d-574a-752e-ae53-1d263a30e856","{""num_scrambled_semantic"":""8"",""num_scrambled_causal"":""4"",""num_scrambled_schematic"":""4"",""participantId"":""5F1A52C86AF248B5BE88E6175692917B"",""assignmentId"":""0198be20-ac77-7156-aed4-df2f5ede3935"",""projectId"":""0198be1d-574a-752e-ae53-1d263a30e856""}","https://test12345.live/?num_scrambled_semantic=8&num_scrambled_causal=4&num_scrambled_schematic=4&participantId=5F1A52C86AF248B5BE88E6175692917B&assignmentId=0198be20-ac77-7156-aed4-df2f5ede3935&projectId=0198be1d-574a-752e-ae53-1d263a30e856","5F1A52C86AF248B5BE88E6175692917B-2025-08-18-17-35-31","","2339","","images/semantic_sequence/physical_activity_semantic/physical_activity_semantic_3.png","0","",""
"","","","","","image-button-response","86","658702","0.0-12.0-1.0-2.9","5F1A52C86AF248B5BE88E6175692917B","5F1A52C86AF248B5BE88E6175692917B","0198be20-ac77-7156-aed4-df2f5ede3935","0198be1d-574a-752e-ae53-1d263a30e856","{""num_scrambled_semantic"":""8"",""num_scrambled_causal"":""4"",""num_scrambled_schematic"":""4"",""participantId"":""5F1A52C86AF248B5BE88E6175692917B"",""assignmentId"":""0198be20-ac77-7156-aed4-df2f5ede3935"",""projectId"":""0198be1d-574a-752e-ae53-1d263a30e856""}","https://test12345.live/?num_scrambled_semantic=8&num_scrambled_causal=4&num_scrambled_schematic=4&participantId=5F1A52C86AF248B5BE88E6175692917B&assignmentId=0198be20-ac77-7156-aed4-df2f5ede3935&projectId=0198be1d-574a-752e-ae53-1d263a30e856","5F1A52C86AF248B5BE88E6175692917B-2025-08-18-17-35-31","","null","","[]","null","",""
"","","","","","html-audio-response","87","685838","0.0-13.0","5F1A52C86AF248B5BE88E6175692917B","5F1A52C86AF248B5BE88E6175692917B","0198be20-ac77-7156-aed4-df2f5ede3935","0198be1d-574a-752e-ae53-1d263a30e856","{""num_scrambled_semantic"":""8"",""num_scrambled_causal"":""4"",""num_scrambled_schematic"":""4"",""participantId"":""5F1A52C86AF248B5BE88E6175692917B"",""assignmentId"":""0198be20-ac77-7156-aed4-df2f5ede3935"",""projectId"":""0198be1d-574a-752e-ae53-1d263a30e856""}","https://test12345.live/?num_scrambled_semantic=8&num_scrambled_causal=4&num_scrambled_schematic=4&participantId=5F1A52C86AF248B5BE88E6175692917B&assignmentId=0198be20-ac77-7156-aed4-df2f5ede3935&projectId=0198be1d-574a-752e-ae53-1d263a30e856","5F1A52C86AF248B5BE88E6175692917B-2025-08-18-17-35-31","","8901","","[""<span style=\""color: red; font-size: 24px\""> NOW RECORDING</span><p>Please say out loud all the images you saw, in the exact order you saw them. Try to recall as many images as you can, but remember: getting the order right is more important than the number of images you recall.</p>""]","","2","physical_activity_semantic"
"","","","","","image-button-response","88","691850","0.0-14.0-0.0","5F1A52C86AF248B5BE88E6175692917B","5F1A52C86AF248B5BE88E6175692917B","0198be20-ac77-7156-aed4-df2f5ede3935","0198be1d-574a-752e-ae53-1d263a30e856","{""num_scrambled_semantic"":""8"",""num_scrambled_causal"":""4"",""num_scrambled_schematic"":""4"",""participantId"":""5F1A52C86AF248B5BE88E6175692917B"",""assignmentId"":""0198be20-ac77-7156-aed4-df2f5ede3935"",""projectId"":""0198be1d-574a-752e-ae53-1d263a30e856""}","https://test12345.live/?num_scrambled_semantic=8&num_scrambled_causal=4&num_scrambled_schematic=4&participantId=5F1A52C86AF248B5BE88E6175692917B&assignmentId=0198be20-ac77-7156-aed4-df2f5ede3935&projectId=0198be1d-574a-752e-ae53-1d263a30e856","5F1A52C86AF248B5BE88E6175692917B-2025-08-18-17-35-31","","null","","images/causal_sequence/package_causal/package_causal_0.png","null","",""
"","","","","","image-button-response","89","696356","0.0-14.0-1.0-0.0","5F1A52C86AF248B5BE88E6175692917B","5F1A52C86AF248B5BE88E6175692917B","0198be20-ac77-7156-aed4-df2f5ede3935","0198be1d-574a-752e-ae53-1d263a30e856","{""num_scrambled_semantic"":""8"",""num_scrambled_causal"":""4"",""num_scrambled_schematic"":""4"",""participantId"":""5F1A52C86AF248B5BE88E6175692917B"",""assignmentId"":""0198be20-ac77-7156-aed4-df2f5ede3935"",""projectId"":""0198be1d-574a-752e-ae53-1d263a30e856""}","https://test12345.live/?num_scrambled_semantic=8&num_scrambled_causal=4&num_scrambled_schematic=4&participantId=5F1A52C86AF248B5BE88E6175692917B&assignmentId=0198be20-ac77-7156-aed4-df2f5ede3935&projectId=0198be1d-574a-752e-ae53-1d263a30e856","5F1A52C86AF248B5BE88E6175692917B-2025-08-18-17-35-31","","null","","images/causal_sequence/package_causal/package_causal_3.png","null","",""
"","","","","","image-button-response","90","698935","0.0-14.0-1.0-1.0","5F1A52C86AF248B5BE88E6175692917B","5F1A52C86AF248B5BE88E6175692917B","0198be20-ac77-7156-aed4-df2f5ede3935","0198be1d-574a-752e-ae53-1d263a30e856","{""num_scrambled_semantic"":""8"",""num_scrambled_causal"":""4"",""num_scrambled_schematic"":""4"",""participantId"":""5F1A52C86AF248B5BE88E6175692917B"",""assignmentId"":""0198be20-ac77-7156-aed4-df2f5ede3935"",""projectId"":""0198be1d-574a-752e-ae53-1d263a30e856""}","https://test12345.live/?num_scrambled_semantic=8&num_scrambled_causal=4&num_scrambled_schematic=4&participantId=5F1A52C86AF248B5BE88E6175692917B&assignmentId=0198be20-ac77-7156-aed4-df2f5ede3935&projectId=0198be1d-574a-752e-ae53-1d263a30e856","5F1A52C86AF248B5BE88E6175692917B-2025-08-18-17-35-31","","2577","","images/causal_sequence/package_causal/package_causal_3.png","0","",""
"","","","","","image-button-response","91","709746","0.0-14.0-1.0-2.0","5F1A52C86AF248B5BE88E6175692917B","5F1A52C86AF248B5BE88E6175692917B","0198be20-ac77-7156-aed4-df2f5ede3935","0198be1d-574a-752e-ae53-1d263a30e856","{""num_scrambled_semantic"":""8"",""num_scrambled_causal"":""4"",""num_scrambled_schematic"":""4"",""participantId"":""5F1A52C86AF248B5BE88E6175692917B"",""assignmentId"":""0198be20-ac77-7156-aed4-df2f5ede3935"",""projectId"":""0198be1d-574a-752e-ae53-1d263a30e856""}","https://test12345.live/?num_scrambled_semantic=8&num_scrambled_causal=4&num_scrambled_schematic=4&participantId=5F1A52C86AF248B5BE88E6175692917B&assignmentId=0198be20-ac77-7156-aed4-df2f5ede3935&projectId=0198be1d-574a-752e-ae53-1d263a30e856","5F1A52C86AF248B5BE88E6175692917B-2025-08-18-17-35-31","","null","","[]","null","",""
"","","","","","image-button-response","92","714256","0.0-14.0-1.0-0.1","5F1A52C86AF248B5BE88E6175692917B","5F1A52C86AF248B5BE88E6175692917B","0198be20-ac77-7156-aed4-df2f5ede3935","0198be1d-574a-752e-ae53-1d263a30e856","{""num_scrambled_semantic"":""8"",""num_scrambled_causal"":""4"",""num_scrambled_schematic"":""4"",""participantId"":""5F1A52C86AF248B5BE88E6175692917B"",""assignmentId"":""0198be20-ac77-7156-aed4-df2f5ede3935"",""projectId"":""0198be1d-574a-752e-ae53-1d263a30e856""}","https://test12345.live/?num_scrambled_semantic=8&num_scrambled_causal=4&num_scrambled_schematic=4&participantId=5F1A52C86AF248B5BE88E6175692917B&assignmentId=0198be20-ac77-7156-aed4-df2f5ede3935&projectId=0198be1d-574a-752e-ae53-1d263a30e856","5F1A52C86AF248B5BE88E6175692917B-2025-08-18-17-35-31","","null","","images/causal_sequence/package_causal/package_causal_8.png","null","",""
"","","","","","image-button-response","93","717135","0.0-14.0-1.0-1.1","5F1A52C86AF248B5BE88E6175692917B","5F1A52C86AF248B5BE88E6175692917B","0198be20-ac77-7156-aed4-df2f5ede3935","0198be1d-574a-752e-ae53-1d263a30e856","{""num_scrambled_semantic"":""8"",""num_scrambled_causal"":""4"",""num_scrambled_schematic"":""4"",""participantId"":""5F1A52C86AF248B5BE88E6175692917B"",""assignmentId"":""0198be20-ac77-7156-aed4-df2f5ede3935"",""projectId"":""0198be1d-574a-752e-ae53-1d263a30e856""}","https://test12345.live/?num_scrambled_semantic=8&num_scrambled_causal=4&num_scrambled_schematic=4&participantId=5F1A52C86AF248B5BE88E6175692917B&assignmentId=0198be20-ac77-7156-aed4-df2f5ede3935&projectId=0198be1d-574a-752e-ae53-1d263a30e856","5F1A52C86AF248B5BE88E6175692917B-2025-08-18-17-35-31","","2877","","images/causal_sequence/package_causal/package_causal_8.png","0","",""
"","","","","","image-button-response","94","727948","0.0-14.0-1.0-2.1","5F1A52C86AF248B5BE88E6175692917B","5F1A52C86AF248B5BE88E6175692917B","0198be20-ac77-7156-aed4-df2f5ede3935","0198be1d-574a-752e-ae53-1d263a30e856","{""num_scrambled_semantic"":""8"",""num_scrambled_causal"":""4"",""num_scrambled_schematic"":""4"",""participantId"":""5F1A52C86AF248B5BE88E6175692917B"",""assignmentId"":""0198be20-ac77-7156-aed4-df2f5ede3935"",""projectId"":""0198be1d-574a-752e-ae53-1d263a30e856""}","https://test12345.live/?num_scrambled_semantic=8&num_scrambled_causal=4&num_scrambled_schematic=4&participantId=5F1A52C86AF248B5BE88E6175692917B&assignmentId=0198be20-ac77-7156-aed4-df2f5ede3935&projectId=0198be1d-574a-752e-ae53-1d263a30e856","5F1A52C86AF248B5BE88E6175692917B-2025-08-18-17-35-31","","null","","[]","null","",""
"","","","","","image-button-response","95","732452","0.0-14.0-1.0-0.2","5F1A52C86AF248B5BE88E6175692917B","5F1A52C86AF248B5BE88E6175692917B","0198be20-ac77-7156-aed4-df2f5ede3935","0198be1d-574a-752e-ae53-1d263a30e856","{""num_scrambled_semantic"":""8"",""num_scrambled_causal"":""4"",""num_scrambled_schematic"":""4"",""participantId"":""5F1A52C86AF248B5BE88E6175692917B"",""assignmentId"":""0198be20-ac77-7156-aed4-df2f5ede3935"",""projectId"":""0198be1d-574a-752e-ae53-1d263a30e856""}","https://test12345.live/?num_scrambled_semantic=8&num_scrambled_causal=4&num_scrambled_schematic=4&participantId=5F1A52C86AF248B5BE88E6175692917B&assignmentId=0198be20-ac77-7156-aed4-df2f5ede3935&projectId=0198be1d-574a-752e-ae53-1d263a30e856","5F1A52C86AF248B5BE88E6175692917B-2025-08-18-17-35-31","","null","","images/causal_sequence/package_causal/package_causal_7.png","null","",""
"","","","","","image-button-response","96","735759","0.0-14.0-1.0-1.2","5F1A52C86AF248B5BE88E6175692917B","5F1A52C86AF248B5BE88E6175692917B","0198be20-ac77-7156-aed4-df2f5ede3935","0198be1d-574a-752e-ae53-1d263a30e856","{""num_scrambled_semantic"":""8"",""num_scrambled_causal"":""4"",""num_scrambled_schematic"":""4"",""participantId"":""5F1A52C86AF248B5BE88E6175692917B"",""assignmentId"":""0198be20-ac77-7156-aed4-df2f5ede3935"",""projectId"":""0198be1d-574a-752e-ae53-1d263a30e856""}","https://test12345.live/?num_scrambled_semantic=8&num_scrambled_causal=4&num_scrambled_schematic=4&participantId=5F1A52C86AF248B5BE88E6175692917B&assignmentId=0198be20-ac77-7156-aed4-df2f5ede3935&projectId=0198be1d-574a-752e-ae53-1d263a30e856","5F1A52C86AF248B5BE88E6175692917B-2025-08-18-17-35-31","","3305","","images/causal_sequence/package_causal/package_causal_7.png","0","",""
"","","","","","image-button-response","97","746581","0.0-14.0-1.0-2.2","5F1A52C86AF248B5BE88E6175692917B","5F1A52C86AF248B5BE88E6175692917B","0198be20-ac77-7156-aed4-df2f5ede3935","0198be1d-574a-752e-ae53-1d263a30e856","{""num_scrambled_semantic"":""8"",""num_scrambled_causal"":""4"",""num_scrambled_schematic"":""4"",""participantId"":""5F1A52C86AF248B5BE88E6175692917B"",""assignmentId"":""0198be20-ac77-7156-aed4-df2f5ede3935"",""projectId"":""0198be1d-574a-752e-ae53-1d263a30e856""}","https://test12345.live/?num_scrambled_semantic=8&num_scrambled_causal=4&num_scrambled_schematic=4&participantId=5F1A52C86AF248B5BE88E6175692917B&assignmentId=0198be20-ac77-7156-aed4-df2f5ede3935&projectId=0198be1d-574a-752e-ae53-1d263a30e856","5F1A52C86AF248B5BE88E6175692917B-2025-08-18-17-35-31","","null","","[]","null","",""
"","","","","","image-button-response","98","751089","0.0-14.0-1.0-0.3","5F1A52C86AF248B5BE88E6175692917B","5F1A52C86AF248B5BE88E6175692917B","0198be20-ac77-7156-aed4-df2f5ede3935","0198be1d-574a-752e-ae53-1d263a30e856","{""num_scrambled_semantic"":""8"",""num_scrambled_causal"":""4"",""num_scrambled_schematic"":""4"",""participantId"":""5F1A52C86AF248B5BE88E6175692917B"",""assignmentId"":""0198be20-ac77-7156-aed4-df2f5ede3935"",""projectId"":""0198be1d-574a-752e-ae53-1d263a30e856""}","https://test12345.live/?num_scrambled_semantic=8&num_scrambled_causal=4&num_scrambled_schematic=4&participantId=5F1A52C86AF248B5BE88E6175692917B&assignmentId=0198be20-ac77-7156-aed4-df2f5ede3935&projectId=0198be1d-574a-752e-ae53-1d263a30e856","5F1A52C86AF248B5BE88E6175692917B-2025-08-18-17-35-31","","null","","images/causal_sequence/package_causal/package_causal_6.png","null","",""
"","","","","","image-button-response","99","753590","0.0-14.0-1.0-1.3","5F1A52C86AF248B5BE88E6175692917B","5F1A52C86AF248B5BE88E6175692917B","0198be20-ac77-7156-aed4-df2f5ede3935","0198be1d-574a-752e-ae53-1d263a30e856","{""num_scrambled_semantic"":""8"",""num_scrambled_causal"":""4"",""num_scrambled_schematic"":""4"",""participantId"":""5F1A52C86AF248B5BE88E6175692917B"",""assignmentId"":""0198be20-ac77-7156-aed4-df2f5ede3935"",""projectId"":""0198be1d-574a-752e-ae53-1d263a30e856""}","https://test12345.live/?num_scrambled_semantic=8&num_scrambled_causal=4&num_scrambled_schematic=4&participantId=5F1A52C86AF248B5BE88E6175692917B&assignmentId=0198be20-ac77-7156-aed4-df2f5ede3935&projectId=0198be1d-574a-752e-ae53-1d263a30e856","5F1A52C86AF248B5BE88E6175692917B-2025-08-18-17-35-31","","2500","","images/causal_sequence/package_causal/package_causal_6.png","0","",""
"","","","","","image-button-response","100","764392","0.0-14.0-1.0-2.3","5F1A52C86AF248B5BE88E6175692917B","5F1A52C86AF248B5BE88E6175692917B","0198be20-ac77-7156-aed4-df2f5ede3935","0198be1d-574a-752e-ae53-1d263a30e856","{""num_scrambled_semantic"":""8"",""num_scrambled_causal"":""4"",""num_scrambled_schematic"":""4"",""participantId"":""5F1A52C86AF248B5BE88E6175692917B"",""assignmentId"":""0198be20-ac77-7156-aed4-df2f5ede3935"",""projectId"":""0198be1d-574a-752e-ae53-1d263a30e856""}","https://test12345.live/?num_scrambled_semantic=8&num_scrambled_causal=4&num_scrambled_schematic=4&participantId=5F1A52C86AF248B5BE88E6175692917B&assignmentId=0198be20-ac77-7156-aed4-df2f5ede3935&projectId=0198be1d-574a-752e-ae53-1d263a30e856","5F1A52C86AF248B5BE88E6175692917B-2025-08-18-17-35-31","","null","","[]","null","",""
"","","","","","image-button-response","101","768905","0.0-14.0-1.0-0.4","5F1A52C86AF248B5BE88E6175692917B","5F1A52C86AF248B5BE88E6175692917B","0198be20-ac77-7156-aed4-df2f5ede3935","0198be1d-574a-752e-ae53-1d263a30e856","{""num_scrambled_semantic"":""8"",""num_scrambled_causal"":""4"",""num_scrambled_schematic"":""4"",""participantId"":""5F1A52C86AF248B5BE88E6175692917B"",""assignmentId"":""0198be20-ac77-7156-aed4-df2f5ede3935"",""projectId"":""0198be1d-574a-752e-ae53-1d263a30e856""}","https://test12345.live/?num_scrambled_semantic=8&num_scrambled_causal=4&num_scrambled_schematic=4&participantId=5F1A52C86AF248B5BE88E6175692917B&assignmentId=0198be20-ac77-7156-aed4-df2f5ede3935&projectId=0198be1d-574a-752e-ae53-1d263a30e856","5F1A52C86AF248B5BE88E6175692917B-2025-08-18-17-35-31","","null","","images/causal_sequence/package_causal/package_causal_2.png","null","",""
"","","","","","image-button-response","102","771059","0.0-14.0-1.0-1.4","5F1A52C86AF248B5BE88E6175692917B","5F1A52C86AF248B5BE88E6175692917B","0198be20-ac77-7156-aed4-df2f5ede3935","0198be1d-574a-752e-ae53-1d263a30e856","{""num_scrambled_semantic"":""8"",""num_scrambled_causal"":""4"",""num_scrambled_schematic"":""4"",""participantId"":""5F1A52C86AF248B5BE88E6175692917B"",""assignmentId"":""0198be20-ac77-7156-aed4-df2f5ede3935"",""projectId"":""0198be1d-574a-752e-ae53-1d263a30e856""}","https://test12345.live/?num_scrambled_semantic=8&num_scrambled_causal=4&num_scrambled_schematic=4&participantId=5F1A52C86AF248B5BE88E6175692917B&assignmentId=0198be20-ac77-7156-aed4-df2f5ede3935&projectId=0198be1d-574a-752e-ae53-1d263a30e856","5F1A52C86AF248B5BE88E6175692917B-2025-08-18-17-35-31","","2153","","images/causal_sequence/package_causal/package_causal_2.png","0","",""
"","","","","","image-button-response","103","781865","0.0-14.0-1.0-2.4","5F1A52C86AF248B5BE88E6175692917B","5F1A52C86AF248B5BE88E6175692917B","0198be20-ac77-7156-aed4-df2f5ede3935","0198be1d-574a-752e-ae53-1d263a30e856","{""num_scrambled_semantic"":""8"",""num_scrambled_causal"":""4"",""num_scrambled_schematic"":""4"",""participantId"":""5F1A52C86AF248B5BE88E6175692917B"",""assignmentId"":""0198be20-ac77-7156-aed4-df2f5ede3935"",""projectId"":""0198be1d-574a-752e-ae53-1d263a30e856""}","https://test12345.live/?num_scrambled_semantic=8&num_scrambled_causal=4&num_scrambled_schematic=4&participantId=5F1A52C86AF248B5BE88E6175692917B&assignmentId=0198be20-ac77-7156-aed4-df2f5ede3935&projectId=0198be1d-574a-752e-ae53-1d263a30e856","5F1A52C86AF248B5BE88E6175692917B-2025-08-18-17-35-31","","null","","[]","null","",""
"","","","","","image-button-response","104","786375","0.0-14.0-1.0-0.5","5F1A52C86AF248B5BE88E6175692917B","5F1A52C86AF248B5BE88E6175692917B","0198be20-ac77-7156-aed4-df2f5ede3935","0198be1d-574a-752e-ae53-1d263a30e856","{""num_scrambled_semantic"":""8"",""num_scrambled_causal"":""4"",""num_scrambled_schematic"":""4"",""participantId"":""5F1A52C86AF248B5BE88E6175692917B"",""assignmentId"":""0198be20-ac77-7156-aed4-df2f5ede3935"",""projectId"":""0198be1d-574a-752e-ae53-1d263a30e856""}","https://test12345.live/?num_scrambled_semantic=8&num_scrambled_causal=4&num_scrambled_schematic=4&participantId=5F1A52C86AF248B5BE88E6175692917B&assignmentId=0198be20-ac77-7156-aed4-df2f5ede3935&projectId=0198be1d-574a-752e-ae53-1d263a30e856","5F1A52C86AF248B5BE88E6175692917B-2025-08-18-17-35-31","","null","","images/causal_sequence/package_causal/package_causal_9.png","null","",""
"","","","","","image-button-response","105","787847","0.0-14.0-1.0-1.5","5F1A52C86AF248B5BE88E6175692917B","5F1A52C86AF248B5BE88E6175692917B","0198be20-ac77-7156-aed4-df2f5ede3935","0198be1d-574a-752e-ae53-1d263a30e856","{""num_scrambled_semantic"":""8"",""num_scrambled_causal"":""4"",""num_scrambled_schematic"":""4"",""participantId"":""5F1A52C86AF248B5BE88E6175692917B"",""assignmentId"":""0198be20-ac77-7156-aed4-df2f5ede3935"",""projectId"":""0198be1d-574a-752e-ae53-1d263a30e856""}","https://test12345.live/?num_scrambled_semantic=8&num_scrambled_causal=4&num_scrambled_schematic=4&participantId=5F1A52C86AF248B5BE88E6175692917B&assignmentId=0198be20-ac77-7156-aed4-df2f5ede3935&projectId=0198be1d-574a-752e-ae53-1d263a30e856","5F1A52C86AF248B5BE88E6175692917B-2025-08-18-17-35-31","","1470","","images/causal_sequence/package_causal/package_causal_9.png","0","",""
"","","","","","image-button-response","106","798664","0.0-14.0-1.0-2.5","5F1A52C86AF248B5BE88E6175692917B","5F1A52C86AF248B5BE88E6175692917B","0198be20-ac77-7156-aed4-df2f5ede3935","0198be1d-574a-752e-ae53-1d263a30e856","{""num_scrambled_semantic"":""8"",""num_scrambled_causal"":""4"",""num_scrambled_schematic"":""4"",""participantId"":""5F1A52C86AF248B5BE88E6175692917B"",""assignmentId"":""0198be20-ac77-7156-aed4-df2f5ede3935"",""projectId"":""0198be1d-574a-752e-ae53-1d263a30e856""}","https://test12345.live/?num_scrambled_semantic=8&num_scrambled_causal=4&num_scrambled_schematic=4&participantId=5F1A52C86AF248B5BE88E6175692917B&assignmentId=0198be20-ac77-7156-aed4-df2f5ede3935&projectId=0198be1d-574a-752e-ae53-1d263a30e856","5F1A52C86AF248B5BE88E6175692917B-2025-08-18-17-35-31","","null","","[]","null","",""
"","","","","","image-button-response","107","803179","0.0-14.0-1.0-0.6","5F1A52C86AF248B5BE88E6175692917B","5F1A52C86AF248B5BE88E6175692917B","0198be20-ac77-7156-aed4-df2f5ede3935","0198be1d-574a-752e-ae53-1d263a30e856","{""num_scrambled_semantic"":""8"",""num_scrambled_causal"":""4"",""num_scrambled_schematic"":""4"",""participantId"":""5F1A52C86AF248B5BE88E6175692917B"",""assignmentId"":""0198be20-ac77-7156-aed4-df2f5ede3935"",""projectId"":""0198be1d-574a-752e-ae53-1d263a30e856""}","https://test12345.live/?num_scrambled_semantic=8&num_scrambled_causal=4&num_scrambled_schematic=4&participantId=5F1A52C86AF248B5BE88E6175692917B&assignmentId=0198be20-ac77-7156-aed4-df2f5ede3935&projectId=0198be1d-574a-752e-ae53-1d263a30e856","5F1A52C86AF248B5BE88E6175692917B-2025-08-18-17-35-31","","null","","images/causal_sequence/package_causal/package_causal_ten.png","null","",""
"","","","","","image-button-response","108","804821","0.0-14.0-1.0-1.6","5F1A52C86AF248B5BE88E6175692917B","5F1A52C86AF248B5BE88E6175692917B","0198be20-ac77-7156-aed4-df2f5ede3935","0198be1d-574a-752e-ae53-1d263a30e856","{""num_scrambled_semantic"":""8"",""num_scrambled_causal"":""4"",""num_scrambled_schematic"":""4"",""participantId"":""5F1A52C86AF248B5BE88E6175692917B"",""assignmentId"":""0198be20-ac77-7156-aed4-df2f5ede3935"",""projectId"":""0198be1d-574a-752e-ae53-1d263a30e856""}","https://test12345.live/?num_scrambled_semantic=8&num_scrambled_causal=4&num_scrambled_schematic=4&participantId=5F1A52C86AF248B5BE88E6175692917B&assignmentId=0198be20-ac77-7156-aed4-df2f5ede3935&projectId=0198be1d-574a-752e-ae53-1d263a30e856","5F1A52C86AF248B5BE88E6175692917B-2025-08-18-17-35-31","","1641","","images/causal_sequence/package_causal/package_causal_ten.png","0","",""
"","","","","","image-button-response","109","815627","0.0-14.0-1.0-2.6","5F1A52C86AF248B5BE88E6175692917B","5F1A52C86AF248B5BE88E6175692917B","0198be20-ac77-7156-aed4-df2f5ede3935","0198be1d-574a-752e-ae53-1d263a30e856","{""num_scrambled_semantic"":""8"",""num_scrambled_causal"":""4"",""num_scrambled_schematic"":""4"",""participantId"":""5F1A52C86AF248B5BE88E6175692917B"",""assignmentId"":""0198be20-ac77-7156-aed4-df2f5ede3935"",""projectId"":""0198be1d-574a-752e-ae53-1d263a30e856""}","https://test12345.live/?num_scrambled_semantic=8&num_scrambled_causal=4&num_scrambled_schematic=4&participantId=5F1A52C86AF248B5BE88E6175692917B&assignmentId=0198be20-ac77-7156-aed4-df2f5ede3935&projectId=0198be1d-574a-752e-ae53-1d263a30e856","5F1A52C86AF248B5BE88E6175692917B-2025-08-18-17-35-31","","null","","[]","null","",""
"","","","","","image-button-response","110","820143","0.0-14.0-1.0-0.7","5F1A52C86AF248B5BE88E6175692917B","5F1A52C86AF248B5BE88E6175692917B","0198be20-ac77-7156-aed4-df2f5ede3935","0198be1d-574a-752e-ae53-1d263a30e856","{""num_scrambled_semantic"":""8"",""num_scrambled_causal"":""4"",""num_scrambled_schematic"":""4"",""participantId"":""5F1A52C86AF248B5BE88E6175692917B"",""assignmentId"":""0198be20-ac77-7156-aed4-df2f5ede3935"",""projectId"":""0198be1d-574a-752e-ae53-1d263a30e856""}","https://test12345.live/?num_scrambled_semantic=8&num_scrambled_causal=4&num_scrambled_schematic=4&participantId=5F1A52C86AF248B5BE88E6175692917B&assignmentId=0198be20-ac77-7156-aed4-df2f5ede3935&projectId=0198be1d-574a-752e-ae53-1d263a30e856","5F1A52C86AF248B5BE88E6175692917B-2025-08-18-17-35-31","","null","","images/causal_sequence/package_causal/package_causal_4.png","null","",""
"","","","","","image-button-response","111","822870","0.0-14.0-1.0-1.7","5F1A52C86AF248B5BE88E6175692917B","5F1A52C86AF248B5BE88E6175692917B","0198be20-ac77-7156-aed4-df2f5ede3935","0198be1d-574a-752e-ae53-1d263a30e856","{""num_scrambled_semantic"":""8"",""num_scrambled_causal"":""4"",""num_scrambled_schematic"":""4"",""participantId"":""5F1A52C86AF248B5BE88E6175692917B"",""assignmentId"":""0198be20-ac77-7156-aed4-df2f5ede3935"",""projectId"":""0198be1d-574a-752e-ae53-1d263a30e856""}","https://test12345.live/?num_scrambled_semantic=8&num_scrambled_causal=4&num_scrambled_schematic=4&participantId=5F1A52C86AF248B5BE88E6175692917B&assignmentId=0198be20-ac77-7156-aed4-df2f5ede3935&projectId=0198be1d-574a-752e-ae53-1d263a30e856","5F1A52C86AF248B5BE88E6175692917B-2025-08-18-17-35-31","","2726","","images/causal_sequence/package_causal/package_causal_4.png","0","",""
"","","","","","image-button-response","112","833683","0.0-14.0-1.0-2.7","5F1A52C86AF248B5BE88E6175692917B","5F1A52C86AF248B5BE88E6175692917B","0198be20-ac77-7156-aed4-df2f5ede3935","0198be1d-574a-752e-ae53-1d263a30e856","{""num_scrambled_semantic"":""8"",""num_scrambled_causal"":""4"",""num_scrambled_schematic"":""4"",""participantId"":""5F1A52C86AF248B5BE88E6175692917B"",""assignmentId"":""0198be20-ac77-7156-aed4-df2f5ede3935"",""projectId"":""0198be1d-574a-752e-ae53-1d263a30e856""}","https://test12345.live/?num_scrambled_semantic=8&num_scrambled_causal=4&num_scrambled_schematic=4&participantId=5F1A52C86AF248B5BE88E6175692917B&assignmentId=0198be20-ac77-7156-aed4-df2f5ede3935&projectId=0198be1d-574a-752e-ae53-1d263a30e856","5F1A52C86AF248B5BE88E6175692917B-2025-08-18-17-35-31","","null","","[]","null","",""
"","","","","","image-button-response","113","838193","0.0-14.0-1.0-0.8","5F1A52C86AF248B5BE88E6175692917B","5F1A52C86AF248B5BE88E6175692917B","0198be20-ac77-7156-aed4-df2f5ede3935","0198be1d-574a-752e-ae53-1d263a30e856","{""num_scrambled_semantic"":""8"",""num_scrambled_causal"":""4"",""num_scrambled_schematic"":""4"",""participantId"":""5F1A52C86AF248B5BE88E6175692917B"",""assignmentId"":""0198be20-ac77-7156-aed4-df2f5ede3935"",""projectId"":""0198be1d-574a-752e-ae53-1d263a30e856""}","https://test12345.live/?num_scrambled_semantic=8&num_scrambled_causal=4&num_scrambled_schematic=4&participantId=5F1A52C86AF248B5BE88E6175692917B&assignmentId=0198be20-ac77-7156-aed4-df2f5ede3935&projectId=0198be1d-574a-752e-ae53-1d263a30e856","5F1A52C86AF248B5BE88E6175692917B-2025-08-18-17-35-31","","null","","images/causal_sequence/package_causal/package_causal_5.png","null","",""
"","","","","","image-button-response","114","839487","0.0-14.0-1.0-1.8","5F1A52C86AF248B5BE88E6175692917B","5F1A52C86AF248B5BE88E6175692917B","0198be20-ac77-7156-aed4-df2f5ede3935","0198be1d-574a-752e-ae53-1d263a30e856","{""num_scrambled_semantic"":""8"",""num_scrambled_causal"":""4"",""num_scrambled_schematic"":""4"",""participantId"":""5F1A52C86AF248B5BE88E6175692917B"",""assignmentId"":""0198be20-ac77-7156-aed4-df2f5ede3935"",""projectId"":""0198be1d-574a-752e-ae53-1d263a30e856""}","https://test12345.live/?num_scrambled_semantic=8&num_scrambled_causal=4&num_scrambled_schematic=4&participantId=5F1A52C86AF248B5BE88E6175692917B&assignmentId=0198be20-ac77-7156-aed4-df2f5ede3935&projectId=0198be1d-574a-752e-ae53-1d263a30e856","5F1A52C86AF248B5BE88E6175692917B-2025-08-18-17-35-31","","1293","","images/causal_sequence/package_causal/package_causal_5.png","0","",""
