"success","timeout","failed_images","failed_audio","failed_video","trial_type","trial_index","time_elapsed","internal_node_id","subject","subject_id","study_id","session_id","urlvar","current_url","audio_id","view_history","rt","device_id","stimulus","response","estimated_stimulus_onset","seq_name"
"true","false","[]","[]","[]","preload","0","52784","0.0-0.0","619C1DE380C64DC08BEEA5E3E1B5DA05","619C1DE380C64DC08BEEA5E3E1B5DA05","36d89e6a-b2dd-4304-8809-b4ca47a0933b","9076ac92-be42-43a2-9634-8b67c7fe93a7","{""num_scrambled_semantic"":""8"",""num_scrambled_causal"":""4"",""num_scrambled_schematic"":""4"",""participantId"":""619C1DE380C64DC08BEEA5E3E1B5DA05"",""assignmentId"":""36d89e6a-b2dd-4304-8809-b4ca47a0933b"",""projectId"":""9076ac92-be42-43a2-9634-8b67c7fe93a7""}","https://test12345.live/?num_scrambled_semantic=8&num_scrambled_causal=4&num_scrambled_schematic=4&participantId=619C1DE380C64DC08BEEA5E3E1B5DA05&assignmentId=36d89e6a-b2dd-4304-8809-b4ca47a0933b&projectId=9076ac92-be42-43a2-9634-8b67c7fe93a7","619C1DE380C64DC08BEEA5E3E1B5DA05-2025-05-22-19-31-09","","","","","","",""
"","","","","","instructions","1","68276","0.0-1.0","619C1DE380C64DC08BEEA5E3E1B5DA05","619C1DE380C64DC08BEEA5E3E1B5DA05","36d89e6a-b2dd-4304-8809-b4ca47a0933b","9076ac92-be42-43a2-9634-8b67c7fe93a7","{""num_scrambled_semantic"":""8"",""num_scrambled_causal"":""4"",""num_scrambled_schematic"":""4"",""participantId"":""619C1DE380C64DC08BEEA5E3E1B5DA05"",""assignmentId"":""36d89e6a-b2dd-4304-8809-b4ca47a0933b"",""projectId"":""9076ac92-be42-43a2-9634-8b67c7fe93a7""}","https://test12345.live/?num_scrambled_semantic=8&num_scrambled_causal=4&num_scrambled_schematic=4&participantId=619C1DE380C64DC08BEEA5E3E1B5DA05&assignmentId=36d89e6a-b2dd-4304-8809-b4ca47a0933b&projectId=9076ac92-be42-43a2-9634-8b67c7fe93a7","619C1DE380C64DC08BEEA5E3E1B5DA05-2025-05-22-19-31-09","[{""page_index"":0,""viewing_time"":15491}]","15491","","","","",""
"","","","","","instructions","2","98563","0.0-2.0","619C1DE380C64DC08BEEA5E3E1B5DA05","619C1DE380C64DC08BEEA5E3E1B5DA05","36d89e6a-b2dd-4304-8809-b4ca47a0933b","9076ac92-be42-43a2-9634-8b67c7fe93a7","{""num_scrambled_semantic"":""8"",""num_scrambled_causal"":""4"",""num_scrambled_schematic"":""4"",""participantId"":""619C1DE380C64DC08BEEA5E3E1B5DA05"",""assignmentId"":""36d89e6a-b2dd-4304-8809-b4ca47a0933b"",""projectId"":""9076ac92-be42-43a2-9634-8b67c7fe93a7""}","https://test12345.live/?num_scrambled_semantic=8&num_scrambled_causal=4&num_scrambled_schematic=4&participantId=619C1DE380C64DC08BEEA5E3E1B5DA05&assignmentId=36d89e6a-b2dd-4304-8809-b4ca47a0933b&projectId=9076ac92-be42-43a2-9634-8b67c7fe93a7","619C1DE380C64DC08BEEA5E3E1B5DA05-2025-05-22-19-31-09","[{""page_index"":0,""viewing_time"":30283}]","30283","","","","",""
"true","","","","","fullscreen","3","101766","0.0-3.0","619C1DE380C64DC08BEEA5E3E1B5DA05","619C1DE380C64DC08BEEA5E3E1B5DA05","36d89e6a-b2dd-4304-8809-b4ca47a0933b","9076ac92-be42-43a2-9634-8b67c7fe93a7","{""num_scrambled_semantic"":""8"",""num_scrambled_causal"":""4"",""num_scrambled_schematic"":""4"",""participantId"":""619C1DE380C64DC08BEEA5E3E1B5DA05"",""assignmentId"":""36d89e6a-b2dd-4304-8809-b4ca47a0933b"",""projectId"":""9076ac92-be42-43a2-9634-8b67c7fe93a7""}","https://test12345.live/?num_scrambled_semantic=8&num_scrambled_causal=4&num_scrambled_schematic=4&participantId=619C1DE380C64DC08BEEA5E3E1B5DA05&assignmentId=36d89e6a-b2dd-4304-8809-b4ca47a0933b&projectId=9076ac92-be42-43a2-9634-8b67c7fe93a7","619C1DE380C64DC08BEEA5E3E1B5DA05-2025-05-22-19-31-09","","2195","","","","",""
"","","","","","initialize-microphone","4","119833","0.0-4.0-0.0","619C1DE380C64DC08BEEA5E3E1B5DA05","619C1DE380C64DC08BEEA5E3E1B5DA05","36d89e6a-b2dd-4304-8809-b4ca47a0933b","9076ac92-be42-43a2-9634-8b67c7fe93a7","{""num_scrambled_semantic"":""8"",""num_scrambled_causal"":""4"",""num_scrambled_schematic"":""4"",""participantId"":""619C1DE380C64DC08BEEA5E3E1B5DA05"",""assignmentId"":""36d89e6a-b2dd-4304-8809-b4ca47a0933b"",""projectId"":""9076ac92-be42-43a2-9634-8b67c7fe93a7""}","https://test12345.live/?num_scrambled_semantic=8&num_scrambled_causal=4&num_scrambled_schematic=4&participantId=619C1DE380C64DC08BEEA5E3E1B5DA05&assignmentId=36d89e6a-b2dd-4304-8809-b4ca47a0933b&projectId=9076ac92-be42-43a2-9634-8b67c7fe93a7","619C1DE380C64DC08BEEA5E3E1B5DA05-2025-05-22-19-31-09","","","a6285733eaf3a186403e9ee2d3b80f85b6c3ea9df2492be980c5d0f8cf6685b4","","","",""
"","","","","","html-audio-response","5","147333","0.0-4.0-1.0","619C1DE380C64DC08BEEA5E3E1B5DA05","619C1DE380C64DC08BEEA5E3E1B5DA05","36d89e6a-b2dd-4304-8809-b4ca47a0933b","9076ac92-be42-43a2-9634-8b67c7fe93a7","{""num_scrambled_semantic"":""8"",""num_scrambled_causal"":""4"",""num_scrambled_schematic"":""4"",""participantId"":""619C1DE380C64DC08BEEA5E3E1B5DA05"",""assignmentId"":""36d89e6a-b2dd-4304-8809-b4ca47a0933b"",""projectId"":""9076ac92-be42-43a2-9634-8b67c7fe93a7""}","https://test12345.live/?num_scrambled_semantic=8&num_scrambled_causal=4&num_scrambled_schematic=4&participantId=619C1DE380C64DC08BEEA5E3E1B5DA05&assignmentId=36d89e6a-b2dd-4304-8809-b4ca47a0933b&projectId=9076ac92-be42-43a2-9634-8b67c7fe93a7","619C1DE380C64DC08BEEA5E3E1B5DA05-2025-05-22-19-31-09","","4685","","<span style=""color: red; font-size: 24px""> NOW RECORDING</span>
        <p>Please test Microphone</p>","","15",""
"","","","","","html-button-response","6","148965","0.0-4.0-2.0","619C1DE380C64DC08BEEA5E3E1B5DA05","619C1DE380C64DC08BEEA5E3E1B5DA05","36d89e6a-b2dd-4304-8809-b4ca47a0933b","9076ac92-be42-43a2-9634-8b67c7fe93a7","{""num_scrambled_semantic"":""8"",""num_scrambled_causal"":""4"",""num_scrambled_schematic"":""4"",""participantId"":""619C1DE380C64DC08BEEA5E3E1B5DA05"",""assignmentId"":""36d89e6a-b2dd-4304-8809-b4ca47a0933b"",""projectId"":""9076ac92-be42-43a2-9634-8b67c7fe93a7""}","https://test12345.live/?num_scrambled_semantic=8&num_scrambled_causal=4&num_scrambled_schematic=4&participantId=619C1DE380C64DC08BEEA5E3E1B5DA05&assignmentId=36d89e6a-b2dd-4304-8809-b4ca47a0933b&projectId=9076ac92-be42-43a2-9634-8b67c7fe93a7","619C1DE380C64DC08BEEA5E3E1B5DA05-2025-05-22-19-31-09","","1631","","<p style=""font-size:48px; color:red;"">Is Microphone OK?</p>","1","",""
"","","","","","instructions","7","172244","0.0-5.0","619C1DE380C64DC08BEEA5E3E1B5DA05","619C1DE380C64DC08BEEA5E3E1B5DA05","36d89e6a-b2dd-4304-8809-b4ca47a0933b","9076ac92-be42-43a2-9634-8b67c7fe93a7","{""num_scrambled_semantic"":""8"",""num_scrambled_causal"":""4"",""num_scrambled_schematic"":""4"",""participantId"":""619C1DE380C64DC08BEEA5E3E1B5DA05"",""assignmentId"":""36d89e6a-b2dd-4304-8809-b4ca47a0933b"",""projectId"":""9076ac92-be42-43a2-9634-8b67c7fe93a7""}","https://test12345.live/?num_scrambled_semantic=8&num_scrambled_causal=4&num_scrambled_schematic=4&participantId=619C1DE380C64DC08BEEA5E3E1B5DA05&assignmentId=36d89e6a-b2dd-4304-8809-b4ca47a0933b&projectId=9076ac92-be42-43a2-9634-8b67c7fe93a7","619C1DE380C64DC08BEEA5E3E1B5DA05-2025-05-22-19-31-09","[{""page_index"":0,""viewing_time"":16985},{""page_index"":1,""viewing_time"":6294}]","23279","","","","",""
"","","","","","image-button-response","8","178250","0.0-6.0-0.0","619C1DE380C64DC08BEEA5E3E1B5DA05","619C1DE380C64DC08BEEA5E3E1B5DA05","36d89e6a-b2dd-4304-8809-b4ca47a0933b","9076ac92-be42-43a2-9634-8b67c7fe93a7","{""num_scrambled_semantic"":""8"",""num_scrambled_causal"":""4"",""num_scrambled_schematic"":""4"",""participantId"":""619C1DE380C64DC08BEEA5E3E1B5DA05"",""assignmentId"":""36d89e6a-b2dd-4304-8809-b4ca47a0933b"",""projectId"":""9076ac92-be42-43a2-9634-8b67c7fe93a7""}","https://test12345.live/?num_scrambled_semantic=8&num_scrambled_causal=4&num_scrambled_schematic=4&participantId=619C1DE380C64DC08BEEA5E3E1B5DA05&assignmentId=36d89e6a-b2dd-4304-8809-b4ca47a0933b&projectId=9076ac92-be42-43a2-9634-8b67c7fe93a7","619C1DE380C64DC08BEEA5E3E1B5DA05-2025-05-22-19-31-09","","null","","images/instructions/movie_0.png","null","",""
"","","","","","image-button-response","9","182755","0.0-6.0-1.0-0.0","619C1DE380C64DC08BEEA5E3E1B5DA05","619C1DE380C64DC08BEEA5E3E1B5DA05","36d89e6a-b2dd-4304-8809-b4ca47a0933b","9076ac92-be42-43a2-9634-8b67c7fe93a7","{""num_scrambled_semantic"":""8"",""num_scrambled_causal"":""4"",""num_scrambled_schematic"":""4"",""participantId"":""619C1DE380C64DC08BEEA5E3E1B5DA05"",""assignmentId"":""36d89e6a-b2dd-4304-8809-b4ca47a0933b"",""projectId"":""9076ac92-be42-43a2-9634-8b67c7fe93a7""}","https://test12345.live/?num_scrambled_semantic=8&num_scrambled_causal=4&num_scrambled_schematic=4&participantId=619C1DE380C64DC08BEEA5E3E1B5DA05&assignmentId=36d89e6a-b2dd-4304-8809-b4ca47a0933b&projectId=9076ac92-be42-43a2-9634-8b67c7fe93a7","619C1DE380C64DC08BEEA5E3E1B5DA05-2025-05-22-19-31-09","","null","","images/instructions/movie_1.png","null","",""
"","","","","","image-button-response","10","186218","0.0-6.0-1.0-1.0","619C1DE380C64DC08BEEA5E3E1B5DA05","619C1DE380C64DC08BEEA5E3E1B5DA05","36d89e6a-b2dd-4304-8809-b4ca47a0933b","9076ac92-be42-43a2-9634-8b67c7fe93a7","{""num_scrambled_semantic"":""8"",""num_scrambled_causal"":""4"",""num_scrambled_schematic"":""4"",""participantId"":""619C1DE380C64DC08BEEA5E3E1B5DA05"",""assignmentId"":""36d89e6a-b2dd-4304-8809-b4ca47a0933b"",""projectId"":""9076ac92-be42-43a2-9634-8b67c7fe93a7""}","https://test12345.live/?num_scrambled_semantic=8&num_scrambled_causal=4&num_scrambled_schematic=4&participantId=619C1DE380C64DC08BEEA5E3E1B5DA05&assignmentId=36d89e6a-b2dd-4304-8809-b4ca47a0933b&projectId=9076ac92-be42-43a2-9634-8b67c7fe93a7","619C1DE380C64DC08BEEA5E3E1B5DA05-2025-05-22-19-31-09","","3462","","images/instructions/movie_1.png","0","",""
"","","","","","image-button-response","11","188032","0.0-6.0-1.0-2.0","619C1DE380C64DC08BEEA5E3E1B5DA05","619C1DE380C64DC08BEEA5E3E1B5DA05","36d89e6a-b2dd-4304-8809-b4ca47a0933b","9076ac92-be42-43a2-9634-8b67c7fe93a7","{""num_scrambled_semantic"":""8"",""num_scrambled_causal"":""4"",""num_scrambled_schematic"":""4"",""participantId"":""619C1DE380C64DC08BEEA5E3E1B5DA05"",""assignmentId"":""36d89e6a-b2dd-4304-8809-b4ca47a0933b"",""projectId"":""9076ac92-be42-43a2-9634-8b67c7fe93a7""}","https://test12345.live/?num_scrambled_semantic=8&num_scrambled_causal=4&num_scrambled_schematic=4&participantId=619C1DE380C64DC08BEEA5E3E1B5DA05&assignmentId=36d89e6a-b2dd-4304-8809-b4ca47a0933b&projectId=9076ac92-be42-43a2-9634-8b67c7fe93a7","619C1DE380C64DC08BEEA5E3E1B5DA05-2025-05-22-19-31-09","","null","","[]","null","",""
"","","","","","image-button-response","12","192541","0.0-6.0-1.0-0.1","619C1DE380C64DC08BEEA5E3E1B5DA05","619C1DE380C64DC08BEEA5E3E1B5DA05","36d89e6a-b2dd-4304-8809-b4ca47a0933b","9076ac92-be42-43a2-9634-8b67c7fe93a7","{""num_scrambled_semantic"":""8"",""num_scrambled_causal"":""4"",""num_scrambled_schematic"":""4"",""participantId"":""619C1DE380C64DC08BEEA5E3E1B5DA05"",""assignmentId"":""36d89e6a-b2dd-4304-8809-b4ca47a0933b"",""projectId"":""9076ac92-be42-43a2-9634-8b67c7fe93a7""}","https://test12345.live/?num_scrambled_semantic=8&num_scrambled_causal=4&num_scrambled_schematic=4&participantId=619C1DE380C64DC08BEEA5E3E1B5DA05&assignmentId=36d89e6a-b2dd-4304-8809-b4ca47a0933b&projectId=9076ac92-be42-43a2-9634-8b67c7fe93a7","619C1DE380C64DC08BEEA5E3E1B5DA05-2025-05-22-19-31-09","","null","","images/instructions/movie_2.png","null","",""
"","","","","","image-button-response","13","196218","0.0-6.0-1.0-1.1","619C1DE380C64DC08BEEA5E3E1B5DA05","619C1DE380C64DC08BEEA5E3E1B5DA05","36d89e6a-b2dd-4304-8809-b4ca47a0933b","9076ac92-be42-43a2-9634-8b67c7fe93a7","{""num_scrambled_semantic"":""8"",""num_scrambled_causal"":""4"",""num_scrambled_schematic"":""4"",""participantId"":""619C1DE380C64DC08BEEA5E3E1B5DA05"",""assignmentId"":""36d89e6a-b2dd-4304-8809-b4ca47a0933b"",""projectId"":""9076ac92-be42-43a2-9634-8b67c7fe93a7""}","https://test12345.live/?num_scrambled_semantic=8&num_scrambled_causal=4&num_scrambled_schematic=4&participantId=619C1DE380C64DC08BEEA5E3E1B5DA05&assignmentId=36d89e6a-b2dd-4304-8809-b4ca47a0933b&projectId=9076ac92-be42-43a2-9634-8b67c7fe93a7","619C1DE380C64DC08BEEA5E3E1B5DA05-2025-05-22-19-31-09","","3676","","images/instructions/movie_2.png","1","",""
"","","","","","image-button-response","14","198032","0.0-6.0-1.0-2.1","619C1DE380C64DC08BEEA5E3E1B5DA05","619C1DE380C64DC08BEEA5E3E1B5DA05","36d89e6a-b2dd-4304-8809-b4ca47a0933b","9076ac92-be42-43a2-9634-8b67c7fe93a7","{""num_scrambled_semantic"":""8"",""num_scrambled_causal"":""4"",""num_scrambled_schematic"":""4"",""participantId"":""619C1DE380C64DC08BEEA5E3E1B5DA05"",""assignmentId"":""36d89e6a-b2dd-4304-8809-b4ca47a0933b"",""projectId"":""9076ac92-be42-43a2-9634-8b67c7fe93a7""}","https://test12345.live/?num_scrambled_semantic=8&num_scrambled_causal=4&num_scrambled_schematic=4&participantId=619C1DE380C64DC08BEEA5E3E1B5DA05&assignmentId=36d89e6a-b2dd-4304-8809-b4ca47a0933b&projectId=9076ac92-be42-43a2-9634-8b67c7fe93a7","619C1DE380C64DC08BEEA5E3E1B5DA05-2025-05-22-19-31-09","","null","","[]","null","",""
"","","","","","image-button-response","15","202547","0.0-6.0-1.0-0.2","619C1DE380C64DC08BEEA5E3E1B5DA05","619C1DE380C64DC08BEEA5E3E1B5DA05","36d89e6a-b2dd-4304-8809-b4ca47a0933b","9076ac92-be42-43a2-9634-8b67c7fe93a7","{""num_scrambled_semantic"":""8"",""num_scrambled_causal"":""4"",""num_scrambled_schematic"":""4"",""participantId"":""619C1DE380C64DC08BEEA5E3E1B5DA05"",""assignmentId"":""36d89e6a-b2dd-4304-8809-b4ca47a0933b"",""projectId"":""9076ac92-be42-43a2-9634-8b67c7fe93a7""}","https://test12345.live/?num_scrambled_semantic=8&num_scrambled_causal=4&num_scrambled_schematic=4&participantId=619C1DE380C64DC08BEEA5E3E1B5DA05&assignmentId=36d89e6a-b2dd-4304-8809-b4ca47a0933b&projectId=9076ac92-be42-43a2-9634-8b67c7fe93a7","619C1DE380C64DC08BEEA5E3E1B5DA05-2025-05-22-19-31-09","","null","","images/instructions/movie_3.png","null","",""
"","","","","","image-button-response","16","204857","0.0-6.0-1.0-1.2","619C1DE380C64DC08BEEA5E3E1B5DA05","619C1DE380C64DC08BEEA5E3E1B5DA05","36d89e6a-b2dd-4304-8809-b4ca47a0933b","9076ac92-be42-43a2-9634-8b67c7fe93a7","{""num_scrambled_semantic"":""8"",""num_scrambled_causal"":""4"",""num_scrambled_schematic"":""4"",""participantId"":""619C1DE380C64DC08BEEA5E3E1B5DA05"",""assignmentId"":""36d89e6a-b2dd-4304-8809-b4ca47a0933b"",""projectId"":""9076ac92-be42-43a2-9634-8b67c7fe93a7""}","https://test12345.live/?num_scrambled_semantic=8&num_scrambled_causal=4&num_scrambled_schematic=4&participantId=619C1DE380C64DC08BEEA5E3E1B5DA05&assignmentId=36d89e6a-b2dd-4304-8809-b4ca47a0933b&projectId=9076ac92-be42-43a2-9634-8b67c7fe93a7","619C1DE380C64DC08BEEA5E3E1B5DA05-2025-05-22-19-31-09","","2308","","images/instructions/movie_3.png","0","",""
"","","","","","image-button-response","17","206668","0.0-6.0-1.0-2.2","619C1DE380C64DC08BEEA5E3E1B5DA05","619C1DE380C64DC08BEEA5E3E1B5DA05","36d89e6a-b2dd-4304-8809-b4ca47a0933b","9076ac92-be42-43a2-9634-8b67c7fe93a7","{""num_scrambled_semantic"":""8"",""num_scrambled_causal"":""4"",""num_scrambled_schematic"":""4"",""participantId"":""619C1DE380C64DC08BEEA5E3E1B5DA05"",""assignmentId"":""36d89e6a-b2dd-4304-8809-b4ca47a0933b"",""projectId"":""9076ac92-be42-43a2-9634-8b67c7fe93a7""}","https://test12345.live/?num_scrambled_semantic=8&num_scrambled_causal=4&num_scrambled_schematic=4&participantId=619C1DE380C64DC08BEEA5E3E1B5DA05&assignmentId=36d89e6a-b2dd-4304-8809-b4ca47a0933b&projectId=9076ac92-be42-43a2-9634-8b67c7fe93a7","619C1DE380C64DC08BEEA5E3E1B5DA05-2025-05-22-19-31-09","","null","","[]","null","",""
"","","","","","image-button-response","18","211177","0.0-6.0-1.0-0.3","619C1DE380C64DC08BEEA5E3E1B5DA05","619C1DE380C64DC08BEEA5E3E1B5DA05","36d89e6a-b2dd-4304-8809-b4ca47a0933b","9076ac92-be42-43a2-9634-8b67c7fe93a7","{""num_scrambled_semantic"":""8"",""num_scrambled_causal"":""4"",""num_scrambled_schematic"":""4"",""participantId"":""619C1DE380C64DC08BEEA5E3E1B5DA05"",""assignmentId"":""36d89e6a-b2dd-4304-8809-b4ca47a0933b"",""projectId"":""9076ac92-be42-43a2-9634-8b67c7fe93a7""}","https://test12345.live/?num_scrambled_semantic=8&num_scrambled_causal=4&num_scrambled_schematic=4&participantId=619C1DE380C64DC08BEEA5E3E1B5DA05&assignmentId=36d89e6a-b2dd-4304-8809-b4ca47a0933b&projectId=9076ac92-be42-43a2-9634-8b67c7fe93a7","619C1DE380C64DC08BEEA5E3E1B5DA05-2025-05-22-19-31-09","","null","","images/instructions/movie_4.png","null","",""
"","","","","","image-button-response","19","213157","0.0-6.0-1.0-1.3","619C1DE380C64DC08BEEA5E3E1B5DA05","619C1DE380C64DC08BEEA5E3E1B5DA05","36d89e6a-b2dd-4304-8809-b4ca47a0933b","9076ac92-be42-43a2-9634-8b67c7fe93a7","{""num_scrambled_semantic"":""8"",""num_scrambled_causal"":""4"",""num_scrambled_schematic"":""4"",""participantId"":""619C1DE380C64DC08BEEA5E3E1B5DA05"",""assignmentId"":""36d89e6a-b2dd-4304-8809-b4ca47a0933b"",""projectId"":""9076ac92-be42-43a2-9634-8b67c7fe93a7""}","https://test12345.live/?num_scrambled_semantic=8&num_scrambled_causal=4&num_scrambled_schematic=4&participantId=619C1DE380C64DC08BEEA5E3E1B5DA05&assignmentId=36d89e6a-b2dd-4304-8809-b4ca47a0933b&projectId=9076ac92-be42-43a2-9634-8b67c7fe93a7","619C1DE380C64DC08BEEA5E3E1B5DA05-2025-05-22-19-31-09","","1980","","images/instructions/movie_4.png","0","",""
"","","","","","image-button-response","20","214967","0.0-6.0-1.0-2.3","619C1DE380C64DC08BEEA5E3E1B5DA05","619C1DE380C64DC08BEEA5E3E1B5DA05","36d89e6a-b2dd-4304-8809-b4ca47a0933b","9076ac92-be42-43a2-9634-8b67c7fe93a7","{""num_scrambled_semantic"":""8"",""num_scrambled_causal"":""4"",""num_scrambled_schematic"":""4"",""participantId"":""619C1DE380C64DC08BEEA5E3E1B5DA05"",""assignmentId"":""36d89e6a-b2dd-4304-8809-b4ca47a0933b"",""projectId"":""9076ac92-be42-43a2-9634-8b67c7fe93a7""}","https://test12345.live/?num_scrambled_semantic=8&num_scrambled_causal=4&num_scrambled_schematic=4&participantId=619C1DE380C64DC08BEEA5E3E1B5DA05&assignmentId=36d89e6a-b2dd-4304-8809-b4ca47a0933b&projectId=9076ac92-be42-43a2-9634-8b67c7fe93a7","619C1DE380C64DC08BEEA5E3E1B5DA05-2025-05-22-19-31-09","","null","","[]","null","",""
"","","","","","instructions","21","267026","0.0-7.0","619C1DE380C64DC08BEEA5E3E1B5DA05","619C1DE380C64DC08BEEA5E3E1B5DA05","36d89e6a-b2dd-4304-8809-b4ca47a0933b","9076ac92-be42-43a2-9634-8b67c7fe93a7","{""num_scrambled_semantic"":""8"",""num_scrambled_causal"":""4"",""num_scrambled_schematic"":""4"",""participantId"":""619C1DE380C64DC08BEEA5E3E1B5DA05"",""assignmentId"":""36d89e6a-b2dd-4304-8809-b4ca47a0933b"",""projectId"":""9076ac92-be42-43a2-9634-8b67c7fe93a7""}","https://test12345.live/?num_scrambled_semantic=8&num_scrambled_causal=4&num_scrambled_schematic=4&participantId=619C1DE380C64DC08BEEA5E3E1B5DA05&assignmentId=36d89e6a-b2dd-4304-8809-b4ca47a0933b&projectId=9076ac92-be42-43a2-9634-8b67c7fe93a7","619C1DE380C64DC08BEEA5E3E1B5DA05-2025-05-22-19-31-09","[{""page_index"":0,""viewing_time"":50394},{""page_index"":1,""viewing_time"":1664}]","52058","","","","",""
"","","","","","html-audio-response","22","308039","0.0-8.0","619C1DE380C64DC08BEEA5E3E1B5DA05","619C1DE380C64DC08BEEA5E3E1B5DA05","36d89e6a-b2dd-4304-8809-b4ca47a0933b","9076ac92-be42-43a2-9634-8b67c7fe93a7","{""num_scrambled_semantic"":""8"",""num_scrambled_causal"":""4"",""num_scrambled_schematic"":""4"",""participantId"":""619C1DE380C64DC08BEEA5E3E1B5DA05"",""assignmentId"":""36d89e6a-b2dd-4304-8809-b4ca47a0933b"",""projectId"":""9076ac92-be42-43a2-9634-8b67c7fe93a7""}","https://test12345.live/?num_scrambled_semantic=8&num_scrambled_causal=4&num_scrambled_schematic=4&participantId=619C1DE380C64DC08BEEA5E3E1B5DA05&assignmentId=36d89e6a-b2dd-4304-8809-b4ca47a0933b&projectId=9076ac92-be42-43a2-9634-8b67c7fe93a7","619C1DE380C64DC08BEEA5E3E1B5DA05-2025-05-22-19-31-09","","13985","","[""<span style=\""color: red; font-size: 24px\""> NOW RECORDING</span><p>Please say out loud all the images you saw in the exact order you saw them. Try to recall as many images as you can, but remember: getting the order right is more important than the number of images you recall.</p>""]","","7",""
"","","","","","instructions","23","309996","0.0-9.0","619C1DE380C64DC08BEEA5E3E1B5DA05","619C1DE380C64DC08BEEA5E3E1B5DA05","36d89e6a-b2dd-4304-8809-b4ca47a0933b","9076ac92-be42-43a2-9634-8b67c7fe93a7","{""num_scrambled_semantic"":""8"",""num_scrambled_causal"":""4"",""num_scrambled_schematic"":""4"",""participantId"":""619C1DE380C64DC08BEEA5E3E1B5DA05"",""assignmentId"":""36d89e6a-b2dd-4304-8809-b4ca47a0933b"",""projectId"":""9076ac92-be42-43a2-9634-8b67c7fe93a7""}","https://test12345.live/?num_scrambled_semantic=8&num_scrambled_causal=4&num_scrambled_schematic=4&participantId=619C1DE380C64DC08BEEA5E3E1B5DA05&assignmentId=36d89e6a-b2dd-4304-8809-b4ca47a0933b&projectId=9076ac92-be42-43a2-9634-8b67c7fe93a7","619C1DE380C64DC08BEEA5E3E1B5DA05-2025-05-22-19-31-09","[{""page_index"":0,""viewing_time"":1953}]","1953","","","","",""
"","","","","","image-button-response","24","316006","0.0-10.0-0.0","619C1DE380C64DC08BEEA5E3E1B5DA05","619C1DE380C64DC08BEEA5E3E1B5DA05","36d89e6a-b2dd-4304-8809-b4ca47a0933b","9076ac92-be42-43a2-9634-8b67c7fe93a7","{""num_scrambled_semantic"":""8"",""num_scrambled_causal"":""4"",""num_scrambled_schematic"":""4"",""participantId"":""619C1DE380C64DC08BEEA5E3E1B5DA05"",""assignmentId"":""36d89e6a-b2dd-4304-8809-b4ca47a0933b"",""projectId"":""9076ac92-be42-43a2-9634-8b67c7fe93a7""}","https://test12345.live/?num_scrambled_semantic=8&num_scrambled_causal=4&num_scrambled_schematic=4&participantId=619C1DE380C64DC08BEEA5E3E1B5DA05&assignmentId=36d89e6a-b2dd-4304-8809-b4ca47a0933b&projectId=9076ac92-be42-43a2-9634-8b67c7fe93a7","619C1DE380C64DC08BEEA5E3E1B5DA05-2025-05-22-19-31-09","","null","","images/schematic_sequence/flight_scheme/flight_scheme_0.png","null","",""
"","","","","","image-button-response","25","320507","0.0-10.0-1.0-0.0","619C1DE380C64DC08BEEA5E3E1B5DA05","619C1DE380C64DC08BEEA5E3E1B5DA05","36d89e6a-b2dd-4304-8809-b4ca47a0933b","9076ac92-be42-43a2-9634-8b67c7fe93a7","{""num_scrambled_semantic"":""8"",""num_scrambled_causal"":""4"",""num_scrambled_schematic"":""4"",""participantId"":""619C1DE380C64DC08BEEA5E3E1B5DA05"",""assignmentId"":""36d89e6a-b2dd-4304-8809-b4ca47a0933b"",""projectId"":""9076ac92-be42-43a2-9634-8b67c7fe93a7""}","https://test12345.live/?num_scrambled_semantic=8&num_scrambled_causal=4&num_scrambled_schematic=4&participantId=619C1DE380C64DC08BEEA5E3E1B5DA05&assignmentId=36d89e6a-b2dd-4304-8809-b4ca47a0933b&projectId=9076ac92-be42-43a2-9634-8b67c7fe93a7","619C1DE380C64DC08BEEA5E3E1B5DA05-2025-05-22-19-31-09","","null","","images/schematic_sequence/flight_scheme/flight_scheme_1.png","null","",""
"","","","","","image-button-response","26","324528","0.0-10.0-1.0-1.0","619C1DE380C64DC08BEEA5E3E1B5DA05","619C1DE380C64DC08BEEA5E3E1B5DA05","36d89e6a-b2dd-4304-8809-b4ca47a0933b","9076ac92-be42-43a2-9634-8b67c7fe93a7","{""num_scrambled_semantic"":""8"",""num_scrambled_causal"":""4"",""num_scrambled_schematic"":""4"",""participantId"":""619C1DE380C64DC08BEEA5E3E1B5DA05"",""assignmentId"":""36d89e6a-b2dd-4304-8809-b4ca47a0933b"",""projectId"":""9076ac92-be42-43a2-9634-8b67c7fe93a7""}","https://test12345.live/?num_scrambled_semantic=8&num_scrambled_causal=4&num_scrambled_schematic=4&participantId=619C1DE380C64DC08BEEA5E3E1B5DA05&assignmentId=36d89e6a-b2dd-4304-8809-b4ca47a0933b&projectId=9076ac92-be42-43a2-9634-8b67c7fe93a7","619C1DE380C64DC08BEEA5E3E1B5DA05-2025-05-22-19-31-09","","null","","images/schematic_sequence/flight_scheme/flight_scheme_1.png","null","",""
"","","","","","image-button-response","27","326333","0.0-10.0-1.0-2.0","619C1DE380C64DC08BEEA5E3E1B5DA05","619C1DE380C64DC08BEEA5E3E1B5DA05","36d89e6a-b2dd-4304-8809-b4ca47a0933b","9076ac92-be42-43a2-9634-8b67c7fe93a7","{""num_scrambled_semantic"":""8"",""num_scrambled_causal"":""4"",""num_scrambled_schematic"":""4"",""participantId"":""619C1DE380C64DC08BEEA5E3E1B5DA05"",""assignmentId"":""36d89e6a-b2dd-4304-8809-b4ca47a0933b"",""projectId"":""9076ac92-be42-43a2-9634-8b67c7fe93a7""}","https://test12345.live/?num_scrambled_semantic=8&num_scrambled_causal=4&num_scrambled_schematic=4&participantId=619C1DE380C64DC08BEEA5E3E1B5DA05&assignmentId=36d89e6a-b2dd-4304-8809-b4ca47a0933b&projectId=9076ac92-be42-43a2-9634-8b67c7fe93a7","619C1DE380C64DC08BEEA5E3E1B5DA05-2025-05-22-19-31-09","","null","","[]","null","",""
"","","","","","image-button-response","28","330834","0.0-10.0-1.0-0.1","619C1DE380C64DC08BEEA5E3E1B5DA05","619C1DE380C64DC08BEEA5E3E1B5DA05","36d89e6a-b2dd-4304-8809-b4ca47a0933b","9076ac92-be42-43a2-9634-8b67c7fe93a7","{""num_scrambled_semantic"":""8"",""num_scrambled_causal"":""4"",""num_scrambled_schematic"":""4"",""participantId"":""619C1DE380C64DC08BEEA5E3E1B5DA05"",""assignmentId"":""36d89e6a-b2dd-4304-8809-b4ca47a0933b"",""projectId"":""9076ac92-be42-43a2-9634-8b67c7fe93a7""}","https://test12345.live/?num_scrambled_semantic=8&num_scrambled_causal=4&num_scrambled_schematic=4&participantId=619C1DE380C64DC08BEEA5E3E1B5DA05&assignmentId=36d89e6a-b2dd-4304-8809-b4ca47a0933b&projectId=9076ac92-be42-43a2-9634-8b67c7fe93a7","619C1DE380C64DC08BEEA5E3E1B5DA05-2025-05-22-19-31-09","","null","","images/schematic_sequence/flight_scheme/flight_scheme_2.png","null","",""
"","","","","","image-button-response","29","332690","0.0-10.0-1.0-1.1","619C1DE380C64DC08BEEA5E3E1B5DA05","619C1DE380C64DC08BEEA5E3E1B5DA05","36d89e6a-b2dd-4304-8809-b4ca47a0933b","9076ac92-be42-43a2-9634-8b67c7fe93a7","{""num_scrambled_semantic"":""8"",""num_scrambled_causal"":""4"",""num_scrambled_schematic"":""4"",""participantId"":""619C1DE380C64DC08BEEA5E3E1B5DA05"",""assignmentId"":""36d89e6a-b2dd-4304-8809-b4ca47a0933b"",""projectId"":""9076ac92-be42-43a2-9634-8b67c7fe93a7""}","https://test12345.live/?num_scrambled_semantic=8&num_scrambled_causal=4&num_scrambled_schematic=4&participantId=619C1DE380C64DC08BEEA5E3E1B5DA05&assignmentId=36d89e6a-b2dd-4304-8809-b4ca47a0933b&projectId=9076ac92-be42-43a2-9634-8b67c7fe93a7","619C1DE380C64DC08BEEA5E3E1B5DA05-2025-05-22-19-31-09","","1855","","images/schematic_sequence/flight_scheme/flight_scheme_2.png","1","",""
"","","","","","image-button-response","30","334500","0.0-10.0-1.0-2.1","619C1DE380C64DC08BEEA5E3E1B5DA05","619C1DE380C64DC08BEEA5E3E1B5DA05","36d89e6a-b2dd-4304-8809-b4ca47a0933b","9076ac92-be42-43a2-9634-8b67c7fe93a7","{""num_scrambled_semantic"":""8"",""num_scrambled_causal"":""4"",""num_scrambled_schematic"":""4"",""participantId"":""619C1DE380C64DC08BEEA5E3E1B5DA05"",""assignmentId"":""36d89e6a-b2dd-4304-8809-b4ca47a0933b"",""projectId"":""9076ac92-be42-43a2-9634-8b67c7fe93a7""}","https://test12345.live/?num_scrambled_semantic=8&num_scrambled_causal=4&num_scrambled_schematic=4&participantId=619C1DE380C64DC08BEEA5E3E1B5DA05&assignmentId=36d89e6a-b2dd-4304-8809-b4ca47a0933b&projectId=9076ac92-be42-43a2-9634-8b67c7fe93a7","619C1DE380C64DC08BEEA5E3E1B5DA05-2025-05-22-19-31-09","","null","","[]","null","",""
"","","","","","image-button-response","31","339011","0.0-10.0-1.0-0.2","619C1DE380C64DC08BEEA5E3E1B5DA05","619C1DE380C64DC08BEEA5E3E1B5DA05","36d89e6a-b2dd-4304-8809-b4ca47a0933b","9076ac92-be42-43a2-9634-8b67c7fe93a7","{""num_scrambled_semantic"":""8"",""num_scrambled_causal"":""4"",""num_scrambled_schematic"":""4"",""participantId"":""619C1DE380C64DC08BEEA5E3E1B5DA05"",""assignmentId"":""36d89e6a-b2dd-4304-8809-b4ca47a0933b"",""projectId"":""9076ac92-be42-43a2-9634-8b67c7fe93a7""}","https://test12345.live/?num_scrambled_semantic=8&num_scrambled_causal=4&num_scrambled_schematic=4&participantId=619C1DE380C64DC08BEEA5E3E1B5DA05&assignmentId=36d89e6a-b2dd-4304-8809-b4ca47a0933b&projectId=9076ac92-be42-43a2-9634-8b67c7fe93a7","619C1DE380C64DC08BEEA5E3E1B5DA05-2025-05-22-19-31-09","","null","","images/schematic_sequence/flight_scheme/flight_scheme_3.png","null","",""
"","","","","","image-button-response","32","340546","0.0-10.0-1.0-1.2","619C1DE380C64DC08BEEA5E3E1B5DA05","619C1DE380C64DC08BEEA5E3E1B5DA05","36d89e6a-b2dd-4304-8809-b4ca47a0933b","9076ac92-be42-43a2-9634-8b67c7fe93a7","{""num_scrambled_semantic"":""8"",""num_scrambled_causal"":""4"",""num_scrambled_schematic"":""4"",""participantId"":""619C1DE380C64DC08BEEA5E3E1B5DA05"",""assignmentId"":""36d89e6a-b2dd-4304-8809-b4ca47a0933b"",""projectId"":""9076ac92-be42-43a2-9634-8b67c7fe93a7""}","https://test12345.live/?num_scrambled_semantic=8&num_scrambled_causal=4&num_scrambled_schematic=4&participantId=619C1DE380C64DC08BEEA5E3E1B5DA05&assignmentId=36d89e6a-b2dd-4304-8809-b4ca47a0933b&projectId=9076ac92-be42-43a2-9634-8b67c7fe93a7","619C1DE380C64DC08BEEA5E3E1B5DA05-2025-05-22-19-31-09","","1534","","images/schematic_sequence/flight_scheme/flight_scheme_3.png","0","",""
"","","","","","image-button-response","33","342359","0.0-10.0-1.0-2.2","619C1DE380C64DC08BEEA5E3E1B5DA05","619C1DE380C64DC08BEEA5E3E1B5DA05","36d89e6a-b2dd-4304-8809-b4ca47a0933b","9076ac92-be42-43a2-9634-8b67c7fe93a7","{""num_scrambled_semantic"":""8"",""num_scrambled_causal"":""4"",""num_scrambled_schematic"":""4"",""participantId"":""619C1DE380C64DC08BEEA5E3E1B5DA05"",""assignmentId"":""36d89e6a-b2dd-4304-8809-b4ca47a0933b"",""projectId"":""9076ac92-be42-43a2-9634-8b67c7fe93a7""}","https://test12345.live/?num_scrambled_semantic=8&num_scrambled_causal=4&num_scrambled_schematic=4&participantId=619C1DE380C64DC08BEEA5E3E1B5DA05&assignmentId=36d89e6a-b2dd-4304-8809-b4ca47a0933b&projectId=9076ac92-be42-43a2-9634-8b67c7fe93a7","619C1DE380C64DC08BEEA5E3E1B5DA05-2025-05-22-19-31-09","","null","","[]","null","",""
"","","","","","image-button-response","34","346875","0.0-10.0-1.0-0.3","619C1DE380C64DC08BEEA5E3E1B5DA05","619C1DE380C64DC08BEEA5E3E1B5DA05","36d89e6a-b2dd-4304-8809-b4ca47a0933b","9076ac92-be42-43a2-9634-8b67c7fe93a7","{""num_scrambled_semantic"":""8"",""num_scrambled_causal"":""4"",""num_scrambled_schematic"":""4"",""participantId"":""619C1DE380C64DC08BEEA5E3E1B5DA05"",""assignmentId"":""36d89e6a-b2dd-4304-8809-b4ca47a0933b"",""projectId"":""9076ac92-be42-43a2-9634-8b67c7fe93a7""}","https://test12345.live/?num_scrambled_semantic=8&num_scrambled_causal=4&num_scrambled_schematic=4&participantId=619C1DE380C64DC08BEEA5E3E1B5DA05&assignmentId=36d89e6a-b2dd-4304-8809-b4ca47a0933b&projectId=9076ac92-be42-43a2-9634-8b67c7fe93a7","619C1DE380C64DC08BEEA5E3E1B5DA05-2025-05-22-19-31-09","","null","","images/schematic_sequence/flight_scheme/flight_scheme_4.png","null","",""
"","","","","","image-button-response","35","349295","0.0-10.0-1.0-1.3","619C1DE380C64DC08BEEA5E3E1B5DA05","619C1DE380C64DC08BEEA5E3E1B5DA05","36d89e6a-b2dd-4304-8809-b4ca47a0933b","9076ac92-be42-43a2-9634-8b67c7fe93a7","{""num_scrambled_semantic"":""8"",""num_scrambled_causal"":""4"",""num_scrambled_schematic"":""4"",""participantId"":""619C1DE380C64DC08BEEA5E3E1B5DA05"",""assignmentId"":""36d89e6a-b2dd-4304-8809-b4ca47a0933b"",""projectId"":""9076ac92-be42-43a2-9634-8b67c7fe93a7""}","https://test12345.live/?num_scrambled_semantic=8&num_scrambled_causal=4&num_scrambled_schematic=4&participantId=619C1DE380C64DC08BEEA5E3E1B5DA05&assignmentId=36d89e6a-b2dd-4304-8809-b4ca47a0933b&projectId=9076ac92-be42-43a2-9634-8b67c7fe93a7","619C1DE380C64DC08BEEA5E3E1B5DA05-2025-05-22-19-31-09","","2419","","images/schematic_sequence/flight_scheme/flight_scheme_4.png","0","",""
"","","","","","image-button-response","36","351098","0.0-10.0-1.0-2.3","619C1DE380C64DC08BEEA5E3E1B5DA05","619C1DE380C64DC08BEEA5E3E1B5DA05","36d89e6a-b2dd-4304-8809-b4ca47a0933b","9076ac92-be42-43a2-9634-8b67c7fe93a7","{""num_scrambled_semantic"":""8"",""num_scrambled_causal"":""4"",""num_scrambled_schematic"":""4"",""participantId"":""619C1DE380C64DC08BEEA5E3E1B5DA05"",""assignmentId"":""36d89e6a-b2dd-4304-8809-b4ca47a0933b"",""projectId"":""9076ac92-be42-43a2-9634-8b67c7fe93a7""}","https://test12345.live/?num_scrambled_semantic=8&num_scrambled_causal=4&num_scrambled_schematic=4&participantId=619C1DE380C64DC08BEEA5E3E1B5DA05&assignmentId=36d89e6a-b2dd-4304-8809-b4ca47a0933b&projectId=9076ac92-be42-43a2-9634-8b67c7fe93a7","619C1DE380C64DC08BEEA5E3E1B5DA05-2025-05-22-19-31-09","","null","","[]","null","",""
"","","","","","image-button-response","37","355611","0.0-10.0-1.0-0.4","619C1DE380C64DC08BEEA5E3E1B5DA05","619C1DE380C64DC08BEEA5E3E1B5DA05","36d89e6a-b2dd-4304-8809-b4ca47a0933b","9076ac92-be42-43a2-9634-8b67c7fe93a7","{""num_scrambled_semantic"":""8"",""num_scrambled_causal"":""4"",""num_scrambled_schematic"":""4"",""participantId"":""619C1DE380C64DC08BEEA5E3E1B5DA05"",""assignmentId"":""36d89e6a-b2dd-4304-8809-b4ca47a0933b"",""projectId"":""9076ac92-be42-43a2-9634-8b67c7fe93a7""}","https://test12345.live/?num_scrambled_semantic=8&num_scrambled_causal=4&num_scrambled_schematic=4&participantId=619C1DE380C64DC08BEEA5E3E1B5DA05&assignmentId=36d89e6a-b2dd-4304-8809-b4ca47a0933b&projectId=9076ac92-be42-43a2-9634-8b67c7fe93a7","619C1DE380C64DC08BEEA5E3E1B5DA05-2025-05-22-19-31-09","","null","","images/schematic_sequence/flight_scheme/flight_scheme_5.png","null","",""
"","","","","","image-button-response","38","357295","0.0-10.0-1.0-1.4","619C1DE380C64DC08BEEA5E3E1B5DA05","619C1DE380C64DC08BEEA5E3E1B5DA05","36d89e6a-b2dd-4304-8809-b4ca47a0933b","9076ac92-be42-43a2-9634-8b67c7fe93a7","{""num_scrambled_semantic"":""8"",""num_scrambled_causal"":""4"",""num_scrambled_schematic"":""4"",""participantId"":""619C1DE380C64DC08BEEA5E3E1B5DA05"",""assignmentId"":""36d89e6a-b2dd-4304-8809-b4ca47a0933b"",""projectId"":""9076ac92-be42-43a2-9634-8b67c7fe93a7""}","https://test12345.live/?num_scrambled_semantic=8&num_scrambled_causal=4&num_scrambled_schematic=4&participantId=619C1DE380C64DC08BEEA5E3E1B5DA05&assignmentId=36d89e6a-b2dd-4304-8809-b4ca47a0933b&projectId=9076ac92-be42-43a2-9634-8b67c7fe93a7","619C1DE380C64DC08BEEA5E3E1B5DA05-2025-05-22-19-31-09","","1683","","images/schematic_sequence/flight_scheme/flight_scheme_5.png","0","",""
"","","","","","image-button-response","39","359101","0.0-10.0-1.0-2.4","619C1DE380C64DC08BEEA5E3E1B5DA05","619C1DE380C64DC08BEEA5E3E1B5DA05","36d89e6a-b2dd-4304-8809-b4ca47a0933b","9076ac92-be42-43a2-9634-8b67c7fe93a7","{""num_scrambled_semantic"":""8"",""num_scrambled_causal"":""4"",""num_scrambled_schematic"":""4"",""participantId"":""619C1DE380C64DC08BEEA5E3E1B5DA05"",""assignmentId"":""36d89e6a-b2dd-4304-8809-b4ca47a0933b"",""projectId"":""9076ac92-be42-43a2-9634-8b67c7fe93a7""}","https://test12345.live/?num_scrambled_semantic=8&num_scrambled_causal=4&num_scrambled_schematic=4&participantId=619C1DE380C64DC08BEEA5E3E1B5DA05&assignmentId=36d89e6a-b2dd-4304-8809-b4ca47a0933b&projectId=9076ac92-be42-43a2-9634-8b67c7fe93a7","619C1DE380C64DC08BEEA5E3E1B5DA05-2025-05-22-19-31-09","","null","","[]","null","",""
"","","","","","image-button-response","40","363604","0.0-10.0-1.0-0.5","619C1DE380C64DC08BEEA5E3E1B5DA05","619C1DE380C64DC08BEEA5E3E1B5DA05","36d89e6a-b2dd-4304-8809-b4ca47a0933b","9076ac92-be42-43a2-9634-8b67c7fe93a7","{""num_scrambled_semantic"":""8"",""num_scrambled_causal"":""4"",""num_scrambled_schematic"":""4"",""participantId"":""619C1DE380C64DC08BEEA5E3E1B5DA05"",""assignmentId"":""36d89e6a-b2dd-4304-8809-b4ca47a0933b"",""projectId"":""9076ac92-be42-43a2-9634-8b67c7fe93a7""}","https://test12345.live/?num_scrambled_semantic=8&num_scrambled_causal=4&num_scrambled_schematic=4&participantId=619C1DE380C64DC08BEEA5E3E1B5DA05&assignmentId=36d89e6a-b2dd-4304-8809-b4ca47a0933b&projectId=9076ac92-be42-43a2-9634-8b67c7fe93a7","619C1DE380C64DC08BEEA5E3E1B5DA05-2025-05-22-19-31-09","","null","","images/schematic_sequence/flight_scheme/flight_scheme_6.png","null","",""
"","","","","","image-button-response","41","366112","0.0-10.0-1.0-1.5","619C1DE380C64DC08BEEA5E3E1B5DA05","619C1DE380C64DC08BEEA5E3E1B5DA05","36d89e6a-b2dd-4304-8809-b4ca47a0933b","9076ac92-be42-43a2-9634-8b67c7fe93a7","{""num_scrambled_semantic"":""8"",""num_scrambled_causal"":""4"",""num_scrambled_schematic"":""4"",""participantId"":""619C1DE380C64DC08BEEA5E3E1B5DA05"",""assignmentId"":""36d89e6a-b2dd-4304-8809-b4ca47a0933b"",""projectId"":""9076ac92-be42-43a2-9634-8b67c7fe93a7""}","https://test12345.live/?num_scrambled_semantic=8&num_scrambled_causal=4&num_scrambled_schematic=4&participantId=619C1DE380C64DC08BEEA5E3E1B5DA05&assignmentId=36d89e6a-b2dd-4304-8809-b4ca47a0933b&projectId=9076ac92-be42-43a2-9634-8b67c7fe93a7","619C1DE380C64DC08BEEA5E3E1B5DA05-2025-05-22-19-31-09","","2507","","images/schematic_sequence/flight_scheme/flight_scheme_6.png","1","",""
"","","","","","image-button-response","42","367912","0.0-10.0-1.0-2.5","619C1DE380C64DC08BEEA5E3E1B5DA05","619C1DE380C64DC08BEEA5E3E1B5DA05","36d89e6a-b2dd-4304-8809-b4ca47a0933b","9076ac92-be42-43a2-9634-8b67c7fe93a7","{""num_scrambled_semantic"":""8"",""num_scrambled_causal"":""4"",""num_scrambled_schematic"":""4"",""participantId"":""619C1DE380C64DC08BEEA5E3E1B5DA05"",""assignmentId"":""36d89e6a-b2dd-4304-8809-b4ca47a0933b"",""projectId"":""9076ac92-be42-43a2-9634-8b67c7fe93a7""}","https://test12345.live/?num_scrambled_semantic=8&num_scrambled_causal=4&num_scrambled_schematic=4&participantId=619C1DE380C64DC08BEEA5E3E1B5DA05&assignmentId=36d89e6a-b2dd-4304-8809-b4ca47a0933b&projectId=9076ac92-be42-43a2-9634-8b67c7fe93a7","619C1DE380C64DC08BEEA5E3E1B5DA05-2025-05-22-19-31-09","","null","","[]","null","",""
"","","","","","image-button-response","43","372419","0.0-10.0-1.0-0.6","619C1DE380C64DC08BEEA5E3E1B5DA05","619C1DE380C64DC08BEEA5E3E1B5DA05","36d89e6a-b2dd-4304-8809-b4ca47a0933b","9076ac92-be42-43a2-9634-8b67c7fe93a7","{""num_scrambled_semantic"":""8"",""num_scrambled_causal"":""4"",""num_scrambled_schematic"":""4"",""participantId"":""619C1DE380C64DC08BEEA5E3E1B5DA05"",""assignmentId"":""36d89e6a-b2dd-4304-8809-b4ca47a0933b"",""projectId"":""9076ac92-be42-43a2-9634-8b67c7fe93a7""}","https://test12345.live/?num_scrambled_semantic=8&num_scrambled_causal=4&num_scrambled_schematic=4&participantId=619C1DE380C64DC08BEEA5E3E1B5DA05&assignmentId=36d89e6a-b2dd-4304-8809-b4ca47a0933b&projectId=9076ac92-be42-43a2-9634-8b67c7fe93a7","619C1DE380C64DC08BEEA5E3E1B5DA05-2025-05-22-19-31-09","","null","","images/schematic_sequence/flight_scheme/flight_scheme_7.png","null","",""
"","","","","","image-button-response","44","374617","0.0-10.0-1.0-1.6","619C1DE380C64DC08BEEA5E3E1B5DA05","619C1DE380C64DC08BEEA5E3E1B5DA05","36d89e6a-b2dd-4304-8809-b4ca47a0933b","9076ac92-be42-43a2-9634-8b67c7fe93a7","{""num_scrambled_semantic"":""8"",""num_scrambled_causal"":""4"",""num_scrambled_schematic"":""4"",""participantId"":""619C1DE380C64DC08BEEA5E3E1B5DA05"",""assignmentId"":""36d89e6a-b2dd-4304-8809-b4ca47a0933b"",""projectId"":""9076ac92-be42-43a2-9634-8b67c7fe93a7""}","https://test12345.live/?num_scrambled_semantic=8&num_scrambled_causal=4&num_scrambled_schematic=4&participantId=619C1DE380C64DC08BEEA5E3E1B5DA05&assignmentId=36d89e6a-b2dd-4304-8809-b4ca47a0933b&projectId=9076ac92-be42-43a2-9634-8b67c7fe93a7","619C1DE380C64DC08BEEA5E3E1B5DA05-2025-05-22-19-31-09","","2198","","images/schematic_sequence/flight_scheme/flight_scheme_7.png","1","",""
"","","","","","image-button-response","45","376424","0.0-10.0-1.0-2.6","619C1DE380C64DC08BEEA5E3E1B5DA05","619C1DE380C64DC08BEEA5E3E1B5DA05","36d89e6a-b2dd-4304-8809-b4ca47a0933b","9076ac92-be42-43a2-9634-8b67c7fe93a7","{""num_scrambled_semantic"":""8"",""num_scrambled_causal"":""4"",""num_scrambled_schematic"":""4"",""participantId"":""619C1DE380C64DC08BEEA5E3E1B5DA05"",""assignmentId"":""36d89e6a-b2dd-4304-8809-b4ca47a0933b"",""projectId"":""9076ac92-be42-43a2-9634-8b67c7fe93a7""}","https://test12345.live/?num_scrambled_semantic=8&num_scrambled_causal=4&num_scrambled_schematic=4&participantId=619C1DE380C64DC08BEEA5E3E1B5DA05&assignmentId=36d89e6a-b2dd-4304-8809-b4ca47a0933b&projectId=9076ac92-be42-43a2-9634-8b67c7fe93a7","619C1DE380C64DC08BEEA5E3E1B5DA05-2025-05-22-19-31-09","","null","","[]","null","",""
"","","","","","image-button-response","46","380930","0.0-10.0-1.0-0.7","619C1DE380C64DC08BEEA5E3E1B5DA05","619C1DE380C64DC08BEEA5E3E1B5DA05","36d89e6a-b2dd-4304-8809-b4ca47a0933b","9076ac92-be42-43a2-9634-8b67c7fe93a7","{""num_scrambled_semantic"":""8"",""num_scrambled_causal"":""4"",""num_scrambled_schematic"":""4"",""participantId"":""619C1DE380C64DC08BEEA5E3E1B5DA05"",""assignmentId"":""36d89e6a-b2dd-4304-8809-b4ca47a0933b"",""projectId"":""9076ac92-be42-43a2-9634-8b67c7fe93a7""}","https://test12345.live/?num_scrambled_semantic=8&num_scrambled_causal=4&num_scrambled_schematic=4&participantId=619C1DE380C64DC08BEEA5E3E1B5DA05&assignmentId=36d89e6a-b2dd-4304-8809-b4ca47a0933b&projectId=9076ac92-be42-43a2-9634-8b67c7fe93a7","619C1DE380C64DC08BEEA5E3E1B5DA05-2025-05-22-19-31-09","","null","","images/schematic_sequence/flight_scheme/flight_scheme_8.png","null","",""
"","","","","","image-button-response","47","382064","0.0-10.0-1.0-1.7","619C1DE380C64DC08BEEA5E3E1B5DA05","619C1DE380C64DC08BEEA5E3E1B5DA05","36d89e6a-b2dd-4304-8809-b4ca47a0933b","9076ac92-be42-43a2-9634-8b67c7fe93a7","{""num_scrambled_semantic"":""8"",""num_scrambled_causal"":""4"",""num_scrambled_schematic"":""4"",""participantId"":""619C1DE380C64DC08BEEA5E3E1B5DA05"",""assignmentId"":""36d89e6a-b2dd-4304-8809-b4ca47a0933b"",""projectId"":""9076ac92-be42-43a2-9634-8b67c7fe93a7""}","https://test12345.live/?num_scrambled_semantic=8&num_scrambled_causal=4&num_scrambled_schematic=4&participantId=619C1DE380C64DC08BEEA5E3E1B5DA05&assignmentId=36d89e6a-b2dd-4304-8809-b4ca47a0933b&projectId=9076ac92-be42-43a2-9634-8b67c7fe93a7","619C1DE380C64DC08BEEA5E3E1B5DA05-2025-05-22-19-31-09","","1133","","images/schematic_sequence/flight_scheme/flight_scheme_8.png","1","",""
"","","","","","image-button-response","48","383872","0.0-10.0-1.0-2.7","619C1DE380C64DC08BEEA5E3E1B5DA05","619C1DE380C64DC08BEEA5E3E1B5DA05","36d89e6a-b2dd-4304-8809-b4ca47a0933b","9076ac92-be42-43a2-9634-8b67c7fe93a7","{""num_scrambled_semantic"":""8"",""num_scrambled_causal"":""4"",""num_scrambled_schematic"":""4"",""participantId"":""619C1DE380C64DC08BEEA5E3E1B5DA05"",""assignmentId"":""36d89e6a-b2dd-4304-8809-b4ca47a0933b"",""projectId"":""9076ac92-be42-43a2-9634-8b67c7fe93a7""}","https://test12345.live/?num_scrambled_semantic=8&num_scrambled_causal=4&num_scrambled_schematic=4&participantId=619C1DE380C64DC08BEEA5E3E1B5DA05&assignmentId=36d89e6a-b2dd-4304-8809-b4ca47a0933b&projectId=9076ac92-be42-43a2-9634-8b67c7fe93a7","619C1DE380C64DC08BEEA5E3E1B5DA05-2025-05-22-19-31-09","","null","","[]","null","",""
"","","","","","image-button-response","49","388376","0.0-10.0-1.0-0.8","619C1DE380C64DC08BEEA5E3E1B5DA05","619C1DE380C64DC08BEEA5E3E1B5DA05","36d89e6a-b2dd-4304-8809-b4ca47a0933b","9076ac92-be42-43a2-9634-8b67c7fe93a7","{""num_scrambled_semantic"":""8"",""num_scrambled_causal"":""4"",""num_scrambled_schematic"":""4"",""participantId"":""619C1DE380C64DC08BEEA5E3E1B5DA05"",""assignmentId"":""36d89e6a-b2dd-4304-8809-b4ca47a0933b"",""projectId"":""9076ac92-be42-43a2-9634-8b67c7fe93a7""}","https://test12345.live/?num_scrambled_semantic=8&num_scrambled_causal=4&num_scrambled_schematic=4&participantId=619C1DE380C64DC08BEEA5E3E1B5DA05&assignmentId=36d89e6a-b2dd-4304-8809-b4ca47a0933b&projectId=9076ac92-be42-43a2-9634-8b67c7fe93a7","619C1DE380C64DC08BEEA5E3E1B5DA05-2025-05-22-19-31-09","","null","","images/schematic_sequence/flight_scheme/flight_scheme_9.png","null","",""
"","","","","","image-button-response","50","391290","0.0-10.0-1.0-1.8","619C1DE380C64DC08BEEA5E3E1B5DA05","619C1DE380C64DC08BEEA5E3E1B5DA05","36d89e6a-b2dd-4304-8809-b4ca47a0933b","9076ac92-be42-43a2-9634-8b67c7fe93a7","{""num_scrambled_semantic"":""8"",""num_scrambled_causal"":""4"",""num_scrambled_schematic"":""4"",""participantId"":""619C1DE380C64DC08BEEA5E3E1B5DA05"",""assignmentId"":""36d89e6a-b2dd-4304-8809-b4ca47a0933b"",""projectId"":""9076ac92-be42-43a2-9634-8b67c7fe93a7""}","https://test12345.live/?num_scrambled_semantic=8&num_scrambled_causal=4&num_scrambled_schematic=4&participantId=619C1DE380C64DC08BEEA5E3E1B5DA05&assignmentId=36d89e6a-b2dd-4304-8809-b4ca47a0933b&projectId=9076ac92-be42-43a2-9634-8b67c7fe93a7","619C1DE380C64DC08BEEA5E3E1B5DA05-2025-05-22-19-31-09","","2914","","images/schematic_sequence/flight_scheme/flight_scheme_9.png","0","",""
"","","","","","image-button-response","51","393091","0.0-10.0-1.0-2.8","619C1DE380C64DC08BEEA5E3E1B5DA05","619C1DE380C64DC08BEEA5E3E1B5DA05","36d89e6a-b2dd-4304-8809-b4ca47a0933b","9076ac92-be42-43a2-9634-8b67c7fe93a7","{""num_scrambled_semantic"":""8"",""num_scrambled_causal"":""4"",""num_scrambled_schematic"":""4"",""participantId"":""619C1DE380C64DC08BEEA5E3E1B5DA05"",""assignmentId"":""36d89e6a-b2dd-4304-8809-b4ca47a0933b"",""projectId"":""9076ac92-be42-43a2-9634-8b67c7fe93a7""}","https://test12345.live/?num_scrambled_semantic=8&num_scrambled_causal=4&num_scrambled_schematic=4&participantId=619C1DE380C64DC08BEEA5E3E1B5DA05&assignmentId=36d89e6a-b2dd-4304-8809-b4ca47a0933b&projectId=9076ac92-be42-43a2-9634-8b67c7fe93a7","619C1DE380C64DC08BEEA5E3E1B5DA05-2025-05-22-19-31-09","","null","","[]","null","",""
"","","","","","image-button-response","52","397605","0.0-10.0-1.0-0.9","619C1DE380C64DC08BEEA5E3E1B5DA05","619C1DE380C64DC08BEEA5E3E1B5DA05","36d89e6a-b2dd-4304-8809-b4ca47a0933b","9076ac92-be42-43a2-9634-8b67c7fe93a7","{""num_scrambled_semantic"":""8"",""num_scrambled_causal"":""4"",""num_scrambled_schematic"":""4"",""participantId"":""619C1DE380C64DC08BEEA5E3E1B5DA05"",""assignmentId"":""36d89e6a-b2dd-4304-8809-b4ca47a0933b"",""projectId"":""9076ac92-be42-43a2-9634-8b67c7fe93a7""}","https://test12345.live/?num_scrambled_semantic=8&num_scrambled_causal=4&num_scrambled_schematic=4&participantId=619C1DE380C64DC08BEEA5E3E1B5DA05&assignmentId=36d89e6a-b2dd-4304-8809-b4ca47a0933b&projectId=9076ac92-be42-43a2-9634-8b67c7fe93a7","619C1DE380C64DC08BEEA5E3E1B5DA05-2025-05-22-19-31-09","","null","","images/schematic_sequence/flight_scheme/flight_scheme_ten.png","null","",""
"","","","","","image-button-response","53","400050","0.0-10.0-1.0-1.9","619C1DE380C64DC08BEEA5E3E1B5DA05","619C1DE380C64DC08BEEA5E3E1B5DA05","36d89e6a-b2dd-4304-8809-b4ca47a0933b","9076ac92-be42-43a2-9634-8b67c7fe93a7","{""num_scrambled_semantic"":""8"",""num_scrambled_causal"":""4"",""num_scrambled_schematic"":""4"",""participantId"":""619C1DE380C64DC08BEEA5E3E1B5DA05"",""assignmentId"":""36d89e6a-b2dd-4304-8809-b4ca47a0933b"",""projectId"":""9076ac92-be42-43a2-9634-8b67c7fe93a7""}","https://test12345.live/?num_scrambled_semantic=8&num_scrambled_causal=4&num_scrambled_schematic=4&participantId=619C1DE380C64DC08BEEA5E3E1B5DA05&assignmentId=36d89e6a-b2dd-4304-8809-b4ca47a0933b&projectId=9076ac92-be42-43a2-9634-8b67c7fe93a7","619C1DE380C64DC08BEEA5E3E1B5DA05-2025-05-22-19-31-09","","2444","","images/schematic_sequence/flight_scheme/flight_scheme_ten.png","0","",""
"","","","","","image-button-response","54","401859","0.0-10.0-1.0-2.9","619C1DE380C64DC08BEEA5E3E1B5DA05","619C1DE380C64DC08BEEA5E3E1B5DA05","36d89e6a-b2dd-4304-8809-b4ca47a0933b","9076ac92-be42-43a2-9634-8b67c7fe93a7","{""num_scrambled_semantic"":""8"",""num_scrambled_causal"":""4"",""num_scrambled_schematic"":""4"",""participantId"":""619C1DE380C64DC08BEEA5E3E1B5DA05"",""assignmentId"":""36d89e6a-b2dd-4304-8809-b4ca47a0933b"",""projectId"":""9076ac92-be42-43a2-9634-8b67c7fe93a7""}","https://test12345.live/?num_scrambled_semantic=8&num_scrambled_causal=4&num_scrambled_schematic=4&participantId=619C1DE380C64DC08BEEA5E3E1B5DA05&assignmentId=36d89e6a-b2dd-4304-8809-b4ca47a0933b&projectId=9076ac92-be42-43a2-9634-8b67c7fe93a7","619C1DE380C64DC08BEEA5E3E1B5DA05-2025-05-22-19-31-09","","null","","[]","null","",""
"","","","","","html-audio-response","55","453959","0.0-11.0","619C1DE380C64DC08BEEA5E3E1B5DA05","619C1DE380C64DC08BEEA5E3E1B5DA05","36d89e6a-b2dd-4304-8809-b4ca47a0933b","9076ac92-be42-43a2-9634-8b67c7fe93a7","{""num_scrambled_semantic"":""8"",""num_scrambled_causal"":""4"",""num_scrambled_schematic"":""4"",""participantId"":""619C1DE380C64DC08BEEA5E3E1B5DA05"",""assignmentId"":""36d89e6a-b2dd-4304-8809-b4ca47a0933b"",""projectId"":""9076ac92-be42-43a2-9634-8b67c7fe93a7""}","https://test12345.live/?num_scrambled_semantic=8&num_scrambled_causal=4&num_scrambled_schematic=4&participantId=619C1DE380C64DC08BEEA5E3E1B5DA05&assignmentId=36d89e6a-b2dd-4304-8809-b4ca47a0933b&projectId=9076ac92-be42-43a2-9634-8b67c7fe93a7","619C1DE380C64DC08BEEA5E3E1B5DA05-2025-05-22-19-31-09","","7825","","[""<span style=\""color: red; font-size: 24px\""> NOW RECORDING</span><p>Please say out loud all the images you saw, in the exact order you saw them. Try to recall as many images as you can, but remember: getting the order right is more important than the number of images you recall.</p>""]","","15","flight_scheme"
"","","","","","image-button-response","56","459981","0.0-12.0-0.0","619C1DE380C64DC08BEEA5E3E1B5DA05","619C1DE380C64DC08BEEA5E3E1B5DA05","36d89e6a-b2dd-4304-8809-b4ca47a0933b","9076ac92-be42-43a2-9634-8b67c7fe93a7","{""num_scrambled_semantic"":""8"",""num_scrambled_causal"":""4"",""num_scrambled_schematic"":""4"",""participantId"":""619C1DE380C64DC08BEEA5E3E1B5DA05"",""assignmentId"":""36d89e6a-b2dd-4304-8809-b4ca47a0933b"",""projectId"":""9076ac92-be42-43a2-9634-8b67c7fe93a7""}","https://test12345.live/?num_scrambled_semantic=8&num_scrambled_causal=4&num_scrambled_schematic=4&participantId=619C1DE380C64DC08BEEA5E3E1B5DA05&assignmentId=36d89e6a-b2dd-4304-8809-b4ca47a0933b&projectId=9076ac92-be42-43a2-9634-8b67c7fe93a7","619C1DE380C64DC08BEEA5E3E1B5DA05-2025-05-22-19-31-09","","null","","images/schematic_sequence/interview_scheme/interview_scheme_0.png","null","",""
"","","","","","image-button-response","57","464498","0.0-12.0-1.0-0.0","619C1DE380C64DC08BEEA5E3E1B5DA05","619C1DE380C64DC08BEEA5E3E1B5DA05","36d89e6a-b2dd-4304-8809-b4ca47a0933b","9076ac92-be42-43a2-9634-8b67c7fe93a7","{""num_scrambled_semantic"":""8"",""num_scrambled_causal"":""4"",""num_scrambled_schematic"":""4"",""participantId"":""619C1DE380C64DC08BEEA5E3E1B5DA05"",""assignmentId"":""36d89e6a-b2dd-4304-8809-b4ca47a0933b"",""projectId"":""9076ac92-be42-43a2-9634-8b67c7fe93a7""}","https://test12345.live/?num_scrambled_semantic=8&num_scrambled_causal=4&num_scrambled_schematic=4&participantId=619C1DE380C64DC08BEEA5E3E1B5DA05&assignmentId=36d89e6a-b2dd-4304-8809-b4ca47a0933b&projectId=9076ac92-be42-43a2-9634-8b67c7fe93a7","619C1DE380C64DC08BEEA5E3E1B5DA05-2025-05-22-19-31-09","","null","","images/schematic_sequence/interview_scheme/interview_scheme_6.png","null","",""
"","","","","","image-button-response","58","466588","0.0-12.0-1.0-1.0","619C1DE380C64DC08BEEA5E3E1B5DA05","619C1DE380C64DC08BEEA5E3E1B5DA05","36d89e6a-b2dd-4304-8809-b4ca47a0933b","9076ac92-be42-43a2-9634-8b67c7fe93a7","{""num_scrambled_semantic"":""8"",""num_scrambled_causal"":""4"",""num_scrambled_schematic"":""4"",""participantId"":""619C1DE380C64DC08BEEA5E3E1B5DA05"",""assignmentId"":""36d89e6a-b2dd-4304-8809-b4ca47a0933b"",""projectId"":""9076ac92-be42-43a2-9634-8b67c7fe93a7""}","https://test12345.live/?num_scrambled_semantic=8&num_scrambled_causal=4&num_scrambled_schematic=4&participantId=619C1DE380C64DC08BEEA5E3E1B5DA05&assignmentId=36d89e6a-b2dd-4304-8809-b4ca47a0933b&projectId=9076ac92-be42-43a2-9634-8b67c7fe93a7","619C1DE380C64DC08BEEA5E3E1B5DA05-2025-05-22-19-31-09","","2090","","images/schematic_sequence/interview_scheme/interview_scheme_6.png","0","",""
"","","","","","image-button-response","59","468398","0.0-12.0-1.0-2.0","619C1DE380C64DC08BEEA5E3E1B5DA05","619C1DE380C64DC08BEEA5E3E1B5DA05","36d89e6a-b2dd-4304-8809-b4ca47a0933b","9076ac92-be42-43a2-9634-8b67c7fe93a7","{""num_scrambled_semantic"":""8"",""num_scrambled_causal"":""4"",""num_scrambled_schematic"":""4"",""participantId"":""619C1DE380C64DC08BEEA5E3E1B5DA05"",""assignmentId"":""36d89e6a-b2dd-4304-8809-b4ca47a0933b"",""projectId"":""9076ac92-be42-43a2-9634-8b67c7fe93a7""}","https://test12345.live/?num_scrambled_semantic=8&num_scrambled_causal=4&num_scrambled_schematic=4&participantId=619C1DE380C64DC08BEEA5E3E1B5DA05&assignmentId=36d89e6a-b2dd-4304-8809-b4ca47a0933b&projectId=9076ac92-be42-43a2-9634-8b67c7fe93a7","619C1DE380C64DC08BEEA5E3E1B5DA05-2025-05-22-19-31-09","","null","","[]","null","",""
"","","","","","image-button-response","60","472908","0.0-12.0-1.0-0.1","619C1DE380C64DC08BEEA5E3E1B5DA05","619C1DE380C64DC08BEEA5E3E1B5DA05","36d89e6a-b2dd-4304-8809-b4ca47a0933b","9076ac92-be42-43a2-9634-8b67c7fe93a7","{""num_scrambled_semantic"":""8"",""num_scrambled_causal"":""4"",""num_scrambled_schematic"":""4"",""participantId"":""619C1DE380C64DC08BEEA5E3E1B5DA05"",""assignmentId"":""36d89e6a-b2dd-4304-8809-b4ca47a0933b"",""projectId"":""9076ac92-be42-43a2-9634-8b67c7fe93a7""}","https://test12345.live/?num_scrambled_semantic=8&num_scrambled_causal=4&num_scrambled_schematic=4&participantId=619C1DE380C64DC08BEEA5E3E1B5DA05&assignmentId=36d89e6a-b2dd-4304-8809-b4ca47a0933b&projectId=9076ac92-be42-43a2-9634-8b67c7fe93a7","619C1DE380C64DC08BEEA5E3E1B5DA05-2025-05-22-19-31-09","","null","","images/schematic_sequence/interview_scheme/interview_scheme_8.png","null","",""
"","","","","","image-button-response","61","474918","0.0-12.0-1.0-1.1","619C1DE380C64DC08BEEA5E3E1B5DA05","619C1DE380C64DC08BEEA5E3E1B5DA05","36d89e6a-b2dd-4304-8809-b4ca47a0933b","9076ac92-be42-43a2-9634-8b67c7fe93a7","{""num_scrambled_semantic"":""8"",""num_scrambled_causal"":""4"",""num_scrambled_schematic"":""4"",""participantId"":""619C1DE380C64DC08BEEA5E3E1B5DA05"",""assignmentId"":""36d89e6a-b2dd-4304-8809-b4ca47a0933b"",""projectId"":""9076ac92-be42-43a2-9634-8b67c7fe93a7""}","https://test12345.live/?num_scrambled_semantic=8&num_scrambled_causal=4&num_scrambled_schematic=4&participantId=619C1DE380C64DC08BEEA5E3E1B5DA05&assignmentId=36d89e6a-b2dd-4304-8809-b4ca47a0933b&projectId=9076ac92-be42-43a2-9634-8b67c7fe93a7","619C1DE380C64DC08BEEA5E3E1B5DA05-2025-05-22-19-31-09","","2009","","images/schematic_sequence/interview_scheme/interview_scheme_8.png","0","",""
"","","","","","image-button-response","62","476726","0.0-12.0-1.0-2.1","619C1DE380C64DC08BEEA5E3E1B5DA05","619C1DE380C64DC08BEEA5E3E1B5DA05","36d89e6a-b2dd-4304-8809-b4ca47a0933b","9076ac92-be42-43a2-9634-8b67c7fe93a7","{""num_scrambled_semantic"":""8"",""num_scrambled_causal"":""4"",""num_scrambled_schematic"":""4"",""participantId"":""619C1DE380C64DC08BEEA5E3E1B5DA05"",""assignmentId"":""36d89e6a-b2dd-4304-8809-b4ca47a0933b"",""projectId"":""9076ac92-be42-43a2-9634-8b67c7fe93a7""}","https://test12345.live/?num_scrambled_semantic=8&num_scrambled_causal=4&num_scrambled_schematic=4&participantId=619C1DE380C64DC08BEEA5E3E1B5DA05&assignmentId=36d89e6a-b2dd-4304-8809-b4ca47a0933b&projectId=9076ac92-be42-43a2-9634-8b67c7fe93a7","619C1DE380C64DC08BEEA5E3E1B5DA05-2025-05-22-19-31-09","","null","","[]","null","",""
"","","","","","image-button-response","63","481228","0.0-12.0-1.0-0.2","619C1DE380C64DC08BEEA5E3E1B5DA05","619C1DE380C64DC08BEEA5E3E1B5DA05","36d89e6a-b2dd-4304-8809-b4ca47a0933b","9076ac92-be42-43a2-9634-8b67c7fe93a7","{""num_scrambled_semantic"":""8"",""num_scrambled_causal"":""4"",""num_scrambled_schematic"":""4"",""participantId"":""619C1DE380C64DC08BEEA5E3E1B5DA05"",""assignmentId"":""36d89e6a-b2dd-4304-8809-b4ca47a0933b"",""projectId"":""9076ac92-be42-43a2-9634-8b67c7fe93a7""}","https://test12345.live/?num_scrambled_semantic=8&num_scrambled_causal=4&num_scrambled_schematic=4&participantId=619C1DE380C64DC08BEEA5E3E1B5DA05&assignmentId=36d89e6a-b2dd-4304-8809-b4ca47a0933b&projectId=9076ac92-be42-43a2-9634-8b67c7fe93a7","619C1DE380C64DC08BEEA5E3E1B5DA05-2025-05-22-19-31-09","","null","","images/schematic_sequence/interview_scheme/interview_scheme_ten.png","null","",""
"","","","","","image-button-response","64","484410","0.0-12.0-1.0-1.2","619C1DE380C64DC08BEEA5E3E1B5DA05","619C1DE380C64DC08BEEA5E3E1B5DA05","36d89e6a-b2dd-4304-8809-b4ca47a0933b","9076ac92-be42-43a2-9634-8b67c7fe93a7","{""num_scrambled_semantic"":""8"",""num_scrambled_causal"":""4"",""num_scrambled_schematic"":""4"",""participantId"":""619C1DE380C64DC08BEEA5E3E1B5DA05"",""assignmentId"":""36d89e6a-b2dd-4304-8809-b4ca47a0933b"",""projectId"":""9076ac92-be42-43a2-9634-8b67c7fe93a7""}","https://test12345.live/?num_scrambled_semantic=8&num_scrambled_causal=4&num_scrambled_schematic=4&participantId=619C1DE380C64DC08BEEA5E3E1B5DA05&assignmentId=36d89e6a-b2dd-4304-8809-b4ca47a0933b&projectId=9076ac92-be42-43a2-9634-8b67c7fe93a7","619C1DE380C64DC08BEEA5E3E1B5DA05-2025-05-22-19-31-09","","3182","","images/schematic_sequence/interview_scheme/interview_scheme_ten.png","0","",""
"","","","","","image-button-response","65","486217","0.0-12.0-1.0-2.2","619C1DE380C64DC08BEEA5E3E1B5DA05","619C1DE380C64DC08BEEA5E3E1B5DA05","36d89e6a-b2dd-4304-8809-b4ca47a0933b","9076ac92-be42-43a2-9634-8b67c7fe93a7","{""num_scrambled_semantic"":""8"",""num_scrambled_causal"":""4"",""num_scrambled_schematic"":""4"",""participantId"":""619C1DE380C64DC08BEEA5E3E1B5DA05"",""assignmentId"":""36d89e6a-b2dd-4304-8809-b4ca47a0933b"",""projectId"":""9076ac92-be42-43a2-9634-8b67c7fe93a7""}","https://test12345.live/?num_scrambled_semantic=8&num_scrambled_causal=4&num_scrambled_schematic=4&participantId=619C1DE380C64DC08BEEA5E3E1B5DA05&assignmentId=36d89e6a-b2dd-4304-8809-b4ca47a0933b&projectId=9076ac92-be42-43a2-9634-8b67c7fe93a7","619C1DE380C64DC08BEEA5E3E1B5DA05-2025-05-22-19-31-09","","null","","[]","null","",""
"","","","","","image-button-response","66","490725","0.0-12.0-1.0-0.3","619C1DE380C64DC08BEEA5E3E1B5DA05","619C1DE380C64DC08BEEA5E3E1B5DA05","36d89e6a-b2dd-4304-8809-b4ca47a0933b","9076ac92-be42-43a2-9634-8b67c7fe93a7","{""num_scrambled_semantic"":""8"",""num_scrambled_causal"":""4"",""num_scrambled_schematic"":""4"",""participantId"":""619C1DE380C64DC08BEEA5E3E1B5DA05"",""assignmentId"":""36d89e6a-b2dd-4304-8809-b4ca47a0933b"",""projectId"":""9076ac92-be42-43a2-9634-8b67c7fe93a7""}","https://test12345.live/?num_scrambled_semantic=8&num_scrambled_causal=4&num_scrambled_schematic=4&participantId=619C1DE380C64DC08BEEA5E3E1B5DA05&assignmentId=36d89e6a-b2dd-4304-8809-b4ca47a0933b&projectId=9076ac92-be42-43a2-9634-8b67c7fe93a7","619C1DE380C64DC08BEEA5E3E1B5DA05-2025-05-22-19-31-09","","null","","images/schematic_sequence/interview_scheme/interview_scheme_4.png","null","",""
"","","","","","image-button-response","67","492638","0.0-12.0-1.0-1.3","619C1DE380C64DC08BEEA5E3E1B5DA05","619C1DE380C64DC08BEEA5E3E1B5DA05","36d89e6a-b2dd-4304-8809-b4ca47a0933b","9076ac92-be42-43a2-9634-8b67c7fe93a7","{""num_scrambled_semantic"":""8"",""num_scrambled_causal"":""4"",""num_scrambled_schematic"":""4"",""participantId"":""619C1DE380C64DC08BEEA5E3E1B5DA05"",""assignmentId"":""36d89e6a-b2dd-4304-8809-b4ca47a0933b"",""projectId"":""9076ac92-be42-43a2-9634-8b67c7fe93a7""}","https://test12345.live/?num_scrambled_semantic=8&num_scrambled_causal=4&num_scrambled_schematic=4&participantId=619C1DE380C64DC08BEEA5E3E1B5DA05&assignmentId=36d89e6a-b2dd-4304-8809-b4ca47a0933b&projectId=9076ac92-be42-43a2-9634-8b67c7fe93a7","619C1DE380C64DC08BEEA5E3E1B5DA05-2025-05-22-19-31-09","","1913","","images/schematic_sequence/interview_scheme/interview_scheme_4.png","1","",""
"","","","","","image-button-response","68","494451","0.0-12.0-1.0-2.3","619C1DE380C64DC08BEEA5E3E1B5DA05","619C1DE380C64DC08BEEA5E3E1B5DA05","36d89e6a-b2dd-4304-8809-b4ca47a0933b","9076ac92-be42-43a2-9634-8b67c7fe93a7","{""num_scrambled_semantic"":""8"",""num_scrambled_causal"":""4"",""num_scrambled_schematic"":""4"",""participantId"":""619C1DE380C64DC08BEEA5E3E1B5DA05"",""assignmentId"":""36d89e6a-b2dd-4304-8809-b4ca47a0933b"",""projectId"":""9076ac92-be42-43a2-9634-8b67c7fe93a7""}","https://test12345.live/?num_scrambled_semantic=8&num_scrambled_causal=4&num_scrambled_schematic=4&participantId=619C1DE380C64DC08BEEA5E3E1B5DA05&assignmentId=36d89e6a-b2dd-4304-8809-b4ca47a0933b&projectId=9076ac92-be42-43a2-9634-8b67c7fe93a7","619C1DE380C64DC08BEEA5E3E1B5DA05-2025-05-22-19-31-09","","null","","[]","null","",""
"","","","","","image-button-response","69","498954","0.0-12.0-1.0-0.4","619C1DE380C64DC08BEEA5E3E1B5DA05","619C1DE380C64DC08BEEA5E3E1B5DA05","36d89e6a-b2dd-4304-8809-b4ca47a0933b","9076ac92-be42-43a2-9634-8b67c7fe93a7","{""num_scrambled_semantic"":""8"",""num_scrambled_causal"":""4"",""num_scrambled_schematic"":""4"",""participantId"":""619C1DE380C64DC08BEEA5E3E1B5DA05"",""assignmentId"":""36d89e6a-b2dd-4304-8809-b4ca47a0933b"",""projectId"":""9076ac92-be42-43a2-9634-8b67c7fe93a7""}","https://test12345.live/?num_scrambled_semantic=8&num_scrambled_causal=4&num_scrambled_schematic=4&participantId=619C1DE380C64DC08BEEA5E3E1B5DA05&assignmentId=36d89e6a-b2dd-4304-8809-b4ca47a0933b&projectId=9076ac92-be42-43a2-9634-8b67c7fe93a7","619C1DE380C64DC08BEEA5E3E1B5DA05-2025-05-22-19-31-09","","null","","images/schematic_sequence/interview_scheme/interview_scheme_2.png","null","",""
"","","","","","image-button-response","70","501896","0.0-12.0-1.0-1.4","619C1DE380C64DC08BEEA5E3E1B5DA05","619C1DE380C64DC08BEEA5E3E1B5DA05","36d89e6a-b2dd-4304-8809-b4ca47a0933b","9076ac92-be42-43a2-9634-8b67c7fe93a7","{""num_scrambled_semantic"":""8"",""num_scrambled_causal"":""4"",""num_scrambled_schematic"":""4"",""participantId"":""619C1DE380C64DC08BEEA5E3E1B5DA05"",""assignmentId"":""36d89e6a-b2dd-4304-8809-b4ca47a0933b"",""projectId"":""9076ac92-be42-43a2-9634-8b67c7fe93a7""}","https://test12345.live/?num_scrambled_semantic=8&num_scrambled_causal=4&num_scrambled_schematic=4&participantId=619C1DE380C64DC08BEEA5E3E1B5DA05&assignmentId=36d89e6a-b2dd-4304-8809-b4ca47a0933b&projectId=9076ac92-be42-43a2-9634-8b67c7fe93a7","619C1DE380C64DC08BEEA5E3E1B5DA05-2025-05-22-19-31-09","","2942","","images/schematic_sequence/interview_scheme/interview_scheme_2.png","0","",""
"","","","","","image-button-response","71","503709","0.0-12.0-1.0-2.4","619C1DE380C64DC08BEEA5E3E1B5DA05","619C1DE380C64DC08BEEA5E3E1B5DA05","36d89e6a-b2dd-4304-8809-b4ca47a0933b","9076ac92-be42-43a2-9634-8b67c7fe93a7","{""num_scrambled_semantic"":""8"",""num_scrambled_causal"":""4"",""num_scrambled_schematic"":""4"",""participantId"":""619C1DE380C64DC08BEEA5E3E1B5DA05"",""assignmentId"":""36d89e6a-b2dd-4304-8809-b4ca47a0933b"",""projectId"":""9076ac92-be42-43a2-9634-8b67c7fe93a7""}","https://test12345.live/?num_scrambled_semantic=8&num_scrambled_causal=4&num_scrambled_schematic=4&participantId=619C1DE380C64DC08BEEA5E3E1B5DA05&assignmentId=36d89e6a-b2dd-4304-8809-b4ca47a0933b&projectId=9076ac92-be42-43a2-9634-8b67c7fe93a7","619C1DE380C64DC08BEEA5E3E1B5DA05-2025-05-22-19-31-09","","null","","[]","null","",""
"","","","","","image-button-response","72","508220","0.0-12.0-1.0-0.5","619C1DE380C64DC08BEEA5E3E1B5DA05","619C1DE380C64DC08BEEA5E3E1B5DA05","36d89e6a-b2dd-4304-8809-b4ca47a0933b","9076ac92-be42-43a2-9634-8b67c7fe93a7","{""num_scrambled_semantic"":""8"",""num_scrambled_causal"":""4"",""num_scrambled_schematic"":""4"",""participantId"":""619C1DE380C64DC08BEEA5E3E1B5DA05"",""assignmentId"":""36d89e6a-b2dd-4304-8809-b4ca47a0933b"",""projectId"":""9076ac92-be42-43a2-9634-8b67c7fe93a7""}","https://test12345.live/?num_scrambled_semantic=8&num_scrambled_causal=4&num_scrambled_schematic=4&participantId=619C1DE380C64DC08BEEA5E3E1B5DA05&assignmentId=36d89e6a-b2dd-4304-8809-b4ca47a0933b&projectId=9076ac92-be42-43a2-9634-8b67c7fe93a7","619C1DE380C64DC08BEEA5E3E1B5DA05-2025-05-22-19-31-09","","null","","images/schematic_sequence/interview_scheme/interview_scheme_5.png","null","",""
"","","","","","image-button-response","73","510026","0.0-12.0-1.0-1.5","619C1DE380C64DC08BEEA5E3E1B5DA05","619C1DE380C64DC08BEEA5E3E1B5DA05","36d89e6a-b2dd-4304-8809-b4ca47a0933b","9076ac92-be42-43a2-9634-8b67c7fe93a7","{""num_scrambled_semantic"":""8"",""num_scrambled_causal"":""4"",""num_scrambled_schematic"":""4"",""participantId"":""619C1DE380C64DC08BEEA5E3E1B5DA05"",""assignmentId"":""36d89e6a-b2dd-4304-8809-b4ca47a0933b"",""projectId"":""9076ac92-be42-43a2-9634-8b67c7fe93a7""}","https://test12345.live/?num_scrambled_semantic=8&num_scrambled_causal=4&num_scrambled_schematic=4&participantId=619C1DE380C64DC08BEEA5E3E1B5DA05&assignmentId=36d89e6a-b2dd-4304-8809-b4ca47a0933b&projectId=9076ac92-be42-43a2-9634-8b67c7fe93a7","619C1DE380C64DC08BEEA5E3E1B5DA05-2025-05-22-19-31-09","","1805","","images/schematic_sequence/interview_scheme/interview_scheme_5.png","0","",""
"","","","","","image-button-response","74","511827","0.0-12.0-1.0-2.5","619C1DE380C64DC08BEEA5E3E1B5DA05","619C1DE380C64DC08BEEA5E3E1B5DA05","36d89e6a-b2dd-4304-8809-b4ca47a0933b","9076ac92-be42-43a2-9634-8b67c7fe93a7","{""num_scrambled_semantic"":""8"",""num_scrambled_causal"":""4"",""num_scrambled_schematic"":""4"",""participantId"":""619C1DE380C64DC08BEEA5E3E1B5DA05"",""assignmentId"":""36d89e6a-b2dd-4304-8809-b4ca47a0933b"",""projectId"":""9076ac92-be42-43a2-9634-8b67c7fe93a7""}","https://test12345.live/?num_scrambled_semantic=8&num_scrambled_causal=4&num_scrambled_schematic=4&participantId=619C1DE380C64DC08BEEA5E3E1B5DA05&assignmentId=36d89e6a-b2dd-4304-8809-b4ca47a0933b&projectId=9076ac92-be42-43a2-9634-8b67c7fe93a7","619C1DE380C64DC08BEEA5E3E1B5DA05-2025-05-22-19-31-09","","null","","[]","null","",""
"","","","","","image-button-response","75","516330","0.0-12.0-1.0-0.6","619C1DE380C64DC08BEEA5E3E1B5DA05","619C1DE380C64DC08BEEA5E3E1B5DA05","36d89e6a-b2dd-4304-8809-b4ca47a0933b","9076ac92-be42-43a2-9634-8b67c7fe93a7","{""num_scrambled_semantic"":""8"",""num_scrambled_causal"":""4"",""num_scrambled_schematic"":""4"",""participantId"":""619C1DE380C64DC08BEEA5E3E1B5DA05"",""assignmentId"":""36d89e6a-b2dd-4304-8809-b4ca47a0933b"",""projectId"":""9076ac92-be42-43a2-9634-8b67c7fe93a7""}","https://test12345.live/?num_scrambled_semantic=8&num_scrambled_causal=4&num_scrambled_schematic=4&participantId=619C1DE380C64DC08BEEA5E3E1B5DA05&assignmentId=36d89e6a-b2dd-4304-8809-b4ca47a0933b&projectId=9076ac92-be42-43a2-9634-8b67c7fe93a7","619C1DE380C64DC08BEEA5E3E1B5DA05-2025-05-22-19-31-09","","null","","images/schematic_sequence/interview_scheme/interview_scheme_1.png","null","",""
"","","","","","image-button-response","76","517804","0.0-12.0-1.0-1.6","619C1DE380C64DC08BEEA5E3E1B5DA05","619C1DE380C64DC08BEEA5E3E1B5DA05","36d89e6a-b2dd-4304-8809-b4ca47a0933b","9076ac92-be42-43a2-9634-8b67c7fe93a7","{""num_scrambled_semantic"":""8"",""num_scrambled_causal"":""4"",""num_scrambled_schematic"":""4"",""participantId"":""619C1DE380C64DC08BEEA5E3E1B5DA05"",""assignmentId"":""36d89e6a-b2dd-4304-8809-b4ca47a0933b"",""projectId"":""9076ac92-be42-43a2-9634-8b67c7fe93a7""}","https://test12345.live/?num_scrambled_semantic=8&num_scrambled_causal=4&num_scrambled_schematic=4&participantId=619C1DE380C64DC08BEEA5E3E1B5DA05&assignmentId=36d89e6a-b2dd-4304-8809-b4ca47a0933b&projectId=9076ac92-be42-43a2-9634-8b67c7fe93a7","619C1DE380C64DC08BEEA5E3E1B5DA05-2025-05-22-19-31-09","","1474","","images/schematic_sequence/interview_scheme/interview_scheme_1.png","1","",""
"","","","","","image-button-response","77","519616","0.0-12.0-1.0-2.6","619C1DE380C64DC08BEEA5E3E1B5DA05","619C1DE380C64DC08BEEA5E3E1B5DA05","36d89e6a-b2dd-4304-8809-b4ca47a0933b","9076ac92-be42-43a2-9634-8b67c7fe93a7","{""num_scrambled_semantic"":""8"",""num_scrambled_causal"":""4"",""num_scrambled_schematic"":""4"",""participantId"":""619C1DE380C64DC08BEEA5E3E1B5DA05"",""assignmentId"":""36d89e6a-b2dd-4304-8809-b4ca47a0933b"",""projectId"":""9076ac92-be42-43a2-9634-8b67c7fe93a7""}","https://test12345.live/?num_scrambled_semantic=8&num_scrambled_causal=4&num_scrambled_schematic=4&participantId=619C1DE380C64DC08BEEA5E3E1B5DA05&assignmentId=36d89e6a-b2dd-4304-8809-b4ca47a0933b&projectId=9076ac92-be42-43a2-9634-8b67c7fe93a7","619C1DE380C64DC08BEEA5E3E1B5DA05-2025-05-22-19-31-09","","null","","[]","null","",""
"","","","","","image-button-response","78","524125","0.0-12.0-1.0-0.7","619C1DE380C64DC08BEEA5E3E1B5DA05","619C1DE380C64DC08BEEA5E3E1B5DA05","36d89e6a-b2dd-4304-8809-b4ca47a0933b","9076ac92-be42-43a2-9634-8b67c7fe93a7","{""num_scrambled_semantic"":""8"",""num_scrambled_causal"":""4"",""num_scrambled_schematic"":""4"",""participantId"":""619C1DE380C64DC08BEEA5E3E1B5DA05"",""assignmentId"":""36d89e6a-b2dd-4304-8809-b4ca47a0933b"",""projectId"":""9076ac92-be42-43a2-9634-8b67c7fe93a7""}","https://test12345.live/?num_scrambled_semantic=8&num_scrambled_causal=4&num_scrambled_schematic=4&participantId=619C1DE380C64DC08BEEA5E3E1B5DA05&assignmentId=36d89e6a-b2dd-4304-8809-b4ca47a0933b&projectId=9076ac92-be42-43a2-9634-8b67c7fe93a7","619C1DE380C64DC08BEEA5E3E1B5DA05-2025-05-22-19-31-09","","null","","images/schematic_sequence/interview_scheme/interview_scheme_7.png","null","",""
"","","","","","image-button-response","79","525003","0.0-12.0-1.0-1.7","619C1DE380C64DC08BEEA5E3E1B5DA05","619C1DE380C64DC08BEEA5E3E1B5DA05","36d89e6a-b2dd-4304-8809-b4ca47a0933b","9076ac92-be42-43a2-9634-8b67c7fe93a7","{""num_scrambled_semantic"":""8"",""num_scrambled_causal"":""4"",""num_scrambled_schematic"":""4"",""participantId"":""619C1DE380C64DC08BEEA5E3E1B5DA05"",""assignmentId"":""36d89e6a-b2dd-4304-8809-b4ca47a0933b"",""projectId"":""9076ac92-be42-43a2-9634-8b67c7fe93a7""}","https://test12345.live/?num_scrambled_semantic=8&num_scrambled_causal=4&num_scrambled_schematic=4&participantId=619C1DE380C64DC08BEEA5E3E1B5DA05&assignmentId=36d89e6a-b2dd-4304-8809-b4ca47a0933b&projectId=9076ac92-be42-43a2-9634-8b67c7fe93a7","619C1DE380C64DC08BEEA5E3E1B5DA05-2025-05-22-19-31-09","","877","","images/schematic_sequence/interview_scheme/interview_scheme_7.png","0","",""
"","","","","","image-button-response","80","526814","0.0-12.0-1.0-2.7","619C1DE380C64DC08BEEA5E3E1B5DA05","619C1DE380C64DC08BEEA5E3E1B5DA05","36d89e6a-b2dd-4304-8809-b4ca47a0933b","9076ac92-be42-43a2-9634-8b67c7fe93a7","{""num_scrambled_semantic"":""8"",""num_scrambled_causal"":""4"",""num_scrambled_schematic"":""4"",""participantId"":""619C1DE380C64DC08BEEA5E3E1B5DA05"",""assignmentId"":""36d89e6a-b2dd-4304-8809-b4ca47a0933b"",""projectId"":""9076ac92-be42-43a2-9634-8b67c7fe93a7""}","https://test12345.live/?num_scrambled_semantic=8&num_scrambled_causal=4&num_scrambled_schematic=4&participantId=619C1DE380C64DC08BEEA5E3E1B5DA05&assignmentId=36d89e6a-b2dd-4304-8809-b4ca47a0933b&projectId=9076ac92-be42-43a2-9634-8b67c7fe93a7","619C1DE380C64DC08BEEA5E3E1B5DA05-2025-05-22-19-31-09","","null","","[]","null","",""
"","","","","","image-button-response","81","531320","0.0-12.0-1.0-0.8","619C1DE380C64DC08BEEA5E3E1B5DA05","619C1DE380C64DC08BEEA5E3E1B5DA05","36d89e6a-b2dd-4304-8809-b4ca47a0933b","9076ac92-be42-43a2-9634-8b67c7fe93a7","{""num_scrambled_semantic"":""8"",""num_scrambled_causal"":""4"",""num_scrambled_schematic"":""4"",""participantId"":""619C1DE380C64DC08BEEA5E3E1B5DA05"",""assignmentId"":""36d89e6a-b2dd-4304-8809-b4ca47a0933b"",""projectId"":""9076ac92-be42-43a2-9634-8b67c7fe93a7""}","https://test12345.live/?num_scrambled_semantic=8&num_scrambled_causal=4&num_scrambled_schematic=4&participantId=619C1DE380C64DC08BEEA5E3E1B5DA05&assignmentId=36d89e6a-b2dd-4304-8809-b4ca47a0933b&projectId=9076ac92-be42-43a2-9634-8b67c7fe93a7","619C1DE380C64DC08BEEA5E3E1B5DA05-2025-05-22-19-31-09","","null","","images/schematic_sequence/interview_scheme/interview_scheme_9.png","null","",""
"","","","","","image-button-response","82","532018","0.0-12.0-1.0-1.8","619C1DE380C64DC08BEEA5E3E1B5DA05","619C1DE380C64DC08BEEA5E3E1B5DA05","36d89e6a-b2dd-4304-8809-b4ca47a0933b","9076ac92-be42-43a2-9634-8b67c7fe93a7","{""num_scrambled_semantic"":""8"",""num_scrambled_causal"":""4"",""num_scrambled_schematic"":""4"",""participantId"":""619C1DE380C64DC08BEEA5E3E1B5DA05"",""assignmentId"":""36d89e6a-b2dd-4304-8809-b4ca47a0933b"",""projectId"":""9076ac92-be42-43a2-9634-8b67c7fe93a7""}","https://test12345.live/?num_scrambled_semantic=8&num_scrambled_causal=4&num_scrambled_schematic=4&participantId=619C1DE380C64DC08BEEA5E3E1B5DA05&assignmentId=36d89e6a-b2dd-4304-8809-b4ca47a0933b&projectId=9076ac92-be42-43a2-9634-8b67c7fe93a7","619C1DE380C64DC08BEEA5E3E1B5DA05-2025-05-22-19-31-09","","697","","images/schematic_sequence/interview_scheme/interview_scheme_9.png","0","",""
"","","","","","image-button-response","83","533832","0.0-12.0-1.0-2.8","619C1DE380C64DC08BEEA5E3E1B5DA05","619C1DE380C64DC08BEEA5E3E1B5DA05","36d89e6a-b2dd-4304-8809-b4ca47a0933b","9076ac92-be42-43a2-9634-8b67c7fe93a7","{""num_scrambled_semantic"":""8"",""num_scrambled_causal"":""4"",""num_scrambled_schematic"":""4"",""participantId"":""619C1DE380C64DC08BEEA5E3E1B5DA05"",""assignmentId"":""36d89e6a-b2dd-4304-8809-b4ca47a0933b"",""projectId"":""9076ac92-be42-43a2-9634-8b67c7fe93a7""}","https://test12345.live/?num_scrambled_semantic=8&num_scrambled_causal=4&num_scrambled_schematic=4&participantId=619C1DE380C64DC08BEEA5E3E1B5DA05&assignmentId=36d89e6a-b2dd-4304-8809-b4ca47a0933b&projectId=9076ac92-be42-43a2-9634-8b67c7fe93a7","619C1DE380C64DC08BEEA5E3E1B5DA05-2025-05-22-19-31-09","","null","","[]","null","",""
"","","","","","image-button-response","84","538333","0.0-12.0-1.0-0.9","619C1DE380C64DC08BEEA5E3E1B5DA05","619C1DE380C64DC08BEEA5E3E1B5DA05","36d89e6a-b2dd-4304-8809-b4ca47a0933b","9076ac92-be42-43a2-9634-8b67c7fe93a7","{""num_scrambled_semantic"":""8"",""num_scrambled_causal"":""4"",""num_scrambled_schematic"":""4"",""participantId"":""619C1DE380C64DC08BEEA5E3E1B5DA05"",""assignmentId"":""36d89e6a-b2dd-4304-8809-b4ca47a0933b"",""projectId"":""9076ac92-be42-43a2-9634-8b67c7fe93a7""}","https://test12345.live/?num_scrambled_semantic=8&num_scrambled_causal=4&num_scrambled_schematic=4&participantId=619C1DE380C64DC08BEEA5E3E1B5DA05&assignmentId=36d89e6a-b2dd-4304-8809-b4ca47a0933b&projectId=9076ac92-be42-43a2-9634-8b67c7fe93a7","619C1DE380C64DC08BEEA5E3E1B5DA05-2025-05-22-19-31-09","","null","","images/schematic_sequence/interview_scheme/interview_scheme_3.png","null","",""
"","","","","","image-button-response","85","540462","0.0-12.0-1.0-1.9","619C1DE380C64DC08BEEA5E3E1B5DA05","619C1DE380C64DC08BEEA5E3E1B5DA05","36d89e6a-b2dd-4304-8809-b4ca47a0933b","9076ac92-be42-43a2-9634-8b67c7fe93a7","{""num_scrambled_semantic"":""8"",""num_scrambled_causal"":""4"",""num_scrambled_schematic"":""4"",""participantId"":""619C1DE380C64DC08BEEA5E3E1B5DA05"",""assignmentId"":""36d89e6a-b2dd-4304-8809-b4ca47a0933b"",""projectId"":""9076ac92-be42-43a2-9634-8b67c7fe93a7""}","https://test12345.live/?num_scrambled_semantic=8&num_scrambled_causal=4&num_scrambled_schematic=4&participantId=619C1DE380C64DC08BEEA5E3E1B5DA05&assignmentId=36d89e6a-b2dd-4304-8809-b4ca47a0933b&projectId=9076ac92-be42-43a2-9634-8b67c7fe93a7","619C1DE380C64DC08BEEA5E3E1B5DA05-2025-05-22-19-31-09","","2128","","images/schematic_sequence/interview_scheme/interview_scheme_3.png","1","",""
"","","","","","image-button-response","86","542268","0.0-12.0-1.0-2.9","619C1DE380C64DC08BEEA5E3E1B5DA05","619C1DE380C64DC08BEEA5E3E1B5DA05","36d89e6a-b2dd-4304-8809-b4ca47a0933b","9076ac92-be42-43a2-9634-8b67c7fe93a7","{""num_scrambled_semantic"":""8"",""num_scrambled_causal"":""4"",""num_scrambled_schematic"":""4"",""participantId"":""619C1DE380C64DC08BEEA5E3E1B5DA05"",""assignmentId"":""36d89e6a-b2dd-4304-8809-b4ca47a0933b"",""projectId"":""9076ac92-be42-43a2-9634-8b67c7fe93a7""}","https://test12345.live/?num_scrambled_semantic=8&num_scrambled_causal=4&num_scrambled_schematic=4&participantId=619C1DE380C64DC08BEEA5E3E1B5DA05&assignmentId=36d89e6a-b2dd-4304-8809-b4ca47a0933b&projectId=9076ac92-be42-43a2-9634-8b67c7fe93a7","619C1DE380C64DC08BEEA5E3E1B5DA05-2025-05-22-19-31-09","","null","","[]","null","",""
"","","","","","html-audio-response","87","588320","0.0-13.0","619C1DE380C64DC08BEEA5E3E1B5DA05","619C1DE380C64DC08BEEA5E3E1B5DA05","36d89e6a-b2dd-4304-8809-b4ca47a0933b","9076ac92-be42-43a2-9634-8b67c7fe93a7","{""num_scrambled_semantic"":""8"",""num_scrambled_causal"":""4"",""num_scrambled_schematic"":""4"",""participantId"":""619C1DE380C64DC08BEEA5E3E1B5DA05"",""assignmentId"":""36d89e6a-b2dd-4304-8809-b4ca47a0933b"",""projectId"":""9076ac92-be42-43a2-9634-8b67c7fe93a7""}","https://test12345.live/?num_scrambled_semantic=8&num_scrambled_causal=4&num_scrambled_schematic=4&participantId=619C1DE380C64DC08BEEA5E3E1B5DA05&assignmentId=36d89e6a-b2dd-4304-8809-b4ca47a0933b&projectId=9076ac92-be42-43a2-9634-8b67c7fe93a7","619C1DE380C64DC08BEEA5E3E1B5DA05-2025-05-22-19-31-09","","44041","","[""<span style=\""color: red; font-size: 24px\""> NOW RECORDING</span><p>Please say out loud all the images you saw, in the exact order you saw them. Try to recall as many images as you can, but remember: getting the order right is more important than the number of images you recall.</p>""]","","1","interview_scheme"
"","","","","","image-button-response","88","594336","0.0-14.0-0.0","619C1DE380C64DC08BEEA5E3E1B5DA05","619C1DE380C64DC08BEEA5E3E1B5DA05","36d89e6a-b2dd-4304-8809-b4ca47a0933b","9076ac92-be42-43a2-9634-8b67c7fe93a7","{""num_scrambled_semantic"":""8"",""num_scrambled_causal"":""4"",""num_scrambled_schematic"":""4"",""participantId"":""619C1DE380C64DC08BEEA5E3E1B5DA05"",""assignmentId"":""36d89e6a-b2dd-4304-8809-b4ca47a0933b"",""projectId"":""9076ac92-be42-43a2-9634-8b67c7fe93a7""}","https://test12345.live/?num_scrambled_semantic=8&num_scrambled_causal=4&num_scrambled_schematic=4&participantId=619C1DE380C64DC08BEEA5E3E1B5DA05&assignmentId=36d89e6a-b2dd-4304-8809-b4ca47a0933b&projectId=9076ac92-be42-43a2-9634-8b67c7fe93a7","619C1DE380C64DC08BEEA5E3E1B5DA05-2025-05-22-19-31-09","","null","","images/semantic_sequence/exploring_nature_semantic/exploring_nature_semantic_0.png","null","",""
"","","","","","image-button-response","89","598837","0.0-14.0-1.0-0.0","619C1DE380C64DC08BEEA5E3E1B5DA05","619C1DE380C64DC08BEEA5E3E1B5DA05","36d89e6a-b2dd-4304-8809-b4ca47a0933b","9076ac92-be42-43a2-9634-8b67c7fe93a7","{""num_scrambled_semantic"":""8"",""num_scrambled_causal"":""4"",""num_scrambled_schematic"":""4"",""participantId"":""619C1DE380C64DC08BEEA5E3E1B5DA05"",""assignmentId"":""36d89e6a-b2dd-4304-8809-b4ca47a0933b"",""projectId"":""9076ac92-be42-43a2-9634-8b67c7fe93a7""}","https://test12345.live/?num_scrambled_semantic=8&num_scrambled_causal=4&num_scrambled_schematic=4&participantId=619C1DE380C64DC08BEEA5E3E1B5DA05&assignmentId=36d89e6a-b2dd-4304-8809-b4ca47a0933b&projectId=9076ac92-be42-43a2-9634-8b67c7fe93a7","619C1DE380C64DC08BEEA5E3E1B5DA05-2025-05-22-19-31-09","","null","","images/semantic_sequence/exploring_nature_semantic/exploring_nature_semantic_1.png","null","",""
"","","","","","image-button-response","90","600502","0.0-14.0-1.0-1.0","619C1DE380C64DC08BEEA5E3E1B5DA05","619C1DE380C64DC08BEEA5E3E1B5DA05","36d89e6a-b2dd-4304-8809-b4ca47a0933b","9076ac92-be42-43a2-9634-8b67c7fe93a7","{""num_scrambled_semantic"":""8"",""num_scrambled_causal"":""4"",""num_scrambled_schematic"":""4"",""participantId"":""619C1DE380C64DC08BEEA5E3E1B5DA05"",""assignmentId"":""36d89e6a-b2dd-4304-8809-b4ca47a0933b"",""projectId"":""9076ac92-be42-43a2-9634-8b67c7fe93a7""}","https://test12345.live/?num_scrambled_semantic=8&num_scrambled_causal=4&num_scrambled_schematic=4&participantId=619C1DE380C64DC08BEEA5E3E1B5DA05&assignmentId=36d89e6a-b2dd-4304-8809-b4ca47a0933b&projectId=9076ac92-be42-43a2-9634-8b67c7fe93a7","619C1DE380C64DC08BEEA5E3E1B5DA05-2025-05-22-19-31-09","","1664","","images/semantic_sequence/exploring_nature_semantic/exploring_nature_semantic_1.png","0","",""
"","","","","","image-button-response","91","602315","0.0-14.0-1.0-2.0","619C1DE380C64DC08BEEA5E3E1B5DA05","619C1DE380C64DC08BEEA5E3E1B5DA05","36d89e6a-b2dd-4304-8809-b4ca47a0933b","9076ac92-be42-43a2-9634-8b67c7fe93a7","{""num_scrambled_semantic"":""8"",""num_scrambled_causal"":""4"",""num_scrambled_schematic"":""4"",""participantId"":""619C1DE380C64DC08BEEA5E3E1B5DA05"",""assignmentId"":""36d89e6a-b2dd-4304-8809-b4ca47a0933b"",""projectId"":""9076ac92-be42-43a2-9634-8b67c7fe93a7""}","https://test12345.live/?num_scrambled_semantic=8&num_scrambled_causal=4&num_scrambled_schematic=4&participantId=619C1DE380C64DC08BEEA5E3E1B5DA05&assignmentId=36d89e6a-b2dd-4304-8809-b4ca47a0933b&projectId=9076ac92-be42-43a2-9634-8b67c7fe93a7","619C1DE380C64DC08BEEA5E3E1B5DA05-2025-05-22-19-31-09","","null","","[]","null","",""
"","","","","","image-button-response","92","606821","0.0-14.0-1.0-0.1","619C1DE380C64DC08BEEA5E3E1B5DA05","619C1DE380C64DC08BEEA5E3E1B5DA05","36d89e6a-b2dd-4304-8809-b4ca47a0933b","9076ac92-be42-43a2-9634-8b67c7fe93a7","{""num_scrambled_semantic"":""8"",""num_scrambled_causal"":""4"",""num_scrambled_schematic"":""4"",""participantId"":""619C1DE380C64DC08BEEA5E3E1B5DA05"",""assignmentId"":""36d89e6a-b2dd-4304-8809-b4ca47a0933b"",""projectId"":""9076ac92-be42-43a2-9634-8b67c7fe93a7""}","https://test12345.live/?num_scrambled_semantic=8&num_scrambled_causal=4&num_scrambled_schematic=4&participantId=619C1DE380C64DC08BEEA5E3E1B5DA05&assignmentId=36d89e6a-b2dd-4304-8809-b4ca47a0933b&projectId=9076ac92-be42-43a2-9634-8b67c7fe93a7","619C1DE380C64DC08BEEA5E3E1B5DA05-2025-05-22-19-31-09","","null","","images/semantic_sequence/exploring_nature_semantic/exploring_nature_semantic_2.png","null","",""
"","","","","","image-button-response","93","610575","0.0-14.0-1.0-1.1","619C1DE380C64DC08BEEA5E3E1B5DA05","619C1DE380C64DC08BEEA5E3E1B5DA05","36d89e6a-b2dd-4304-8809-b4ca47a0933b","9076ac92-be42-43a2-9634-8b67c7fe93a7","{""num_scrambled_semantic"":""8"",""num_scrambled_causal"":""4"",""num_scrambled_schematic"":""4"",""participantId"":""619C1DE380C64DC08BEEA5E3E1B5DA05"",""assignmentId"":""36d89e6a-b2dd-4304-8809-b4ca47a0933b"",""projectId"":""9076ac92-be42-43a2-9634-8b67c7fe93a7""}","https://test12345.live/?num_scrambled_semantic=8&num_scrambled_causal=4&num_scrambled_schematic=4&participantId=619C1DE380C64DC08BEEA5E3E1B5DA05&assignmentId=36d89e6a-b2dd-4304-8809-b4ca47a0933b&projectId=9076ac92-be42-43a2-9634-8b67c7fe93a7","619C1DE380C64DC08BEEA5E3E1B5DA05-2025-05-22-19-31-09","","3753","","images/semantic_sequence/exploring_nature_semantic/exploring_nature_semantic_2.png","0","",""
"","","","","","image-button-response","94","612392","0.0-14.0-1.0-2.1","619C1DE380C64DC08BEEA5E3E1B5DA05","619C1DE380C64DC08BEEA5E3E1B5DA05","36d89e6a-b2dd-4304-8809-b4ca47a0933b","9076ac92-be42-43a2-9634-8b67c7fe93a7","{""num_scrambled_semantic"":""8"",""num_scrambled_causal"":""4"",""num_scrambled_schematic"":""4"",""participantId"":""619C1DE380C64DC08BEEA5E3E1B5DA05"",""assignmentId"":""36d89e6a-b2dd-4304-8809-b4ca47a0933b"",""projectId"":""9076ac92-be42-43a2-9634-8b67c7fe93a7""}","https://test12345.live/?num_scrambled_semantic=8&num_scrambled_causal=4&num_scrambled_schematic=4&participantId=619C1DE380C64DC08BEEA5E3E1B5DA05&assignmentId=36d89e6a-b2dd-4304-8809-b4ca47a0933b&projectId=9076ac92-be42-43a2-9634-8b67c7fe93a7","619C1DE380C64DC08BEEA5E3E1B5DA05-2025-05-22-19-31-09","","null","","[]","null","",""
"","","","","","image-button-response","95","616899","0.0-14.0-1.0-0.2","619C1DE380C64DC08BEEA5E3E1B5DA05","619C1DE380C64DC08BEEA5E3E1B5DA05","36d89e6a-b2dd-4304-8809-b4ca47a0933b","9076ac92-be42-43a2-9634-8b67c7fe93a7","{""num_scrambled_semantic"":""8"",""num_scrambled_causal"":""4"",""num_scrambled_schematic"":""4"",""participantId"":""619C1DE380C64DC08BEEA5E3E1B5DA05"",""assignmentId"":""36d89e6a-b2dd-4304-8809-b4ca47a0933b"",""projectId"":""9076ac92-be42-43a2-9634-8b67c7fe93a7""}","https://test12345.live/?num_scrambled_semantic=8&num_scrambled_causal=4&num_scrambled_schematic=4&participantId=619C1DE380C64DC08BEEA5E3E1B5DA05&assignmentId=36d89e6a-b2dd-4304-8809-b4ca47a0933b&projectId=9076ac92-be42-43a2-9634-8b67c7fe93a7","619C1DE380C64DC08BEEA5E3E1B5DA05-2025-05-22-19-31-09","","null","","images/semantic_sequence/exploring_nature_semantic/exploring_nature_semantic_3.png","null","",""
"","","","","","image-button-response","96","618704","0.0-14.0-1.0-1.2","619C1DE380C64DC08BEEA5E3E1B5DA05","619C1DE380C64DC08BEEA5E3E1B5DA05","36d89e6a-b2dd-4304-8809-b4ca47a0933b","9076ac92-be42-43a2-9634-8b67c7fe93a7","{""num_scrambled_semantic"":""8"",""num_scrambled_causal"":""4"",""num_scrambled_schematic"":""4"",""participantId"":""619C1DE380C64DC08BEEA5E3E1B5DA05"",""assignmentId"":""36d89e6a-b2dd-4304-8809-b4ca47a0933b"",""projectId"":""9076ac92-be42-43a2-9634-8b67c7fe93a7""}","https://test12345.live/?num_scrambled_semantic=8&num_scrambled_causal=4&num_scrambled_schematic=4&participantId=619C1DE380C64DC08BEEA5E3E1B5DA05&assignmentId=36d89e6a-b2dd-4304-8809-b4ca47a0933b&projectId=9076ac92-be42-43a2-9634-8b67c7fe93a7","619C1DE380C64DC08BEEA5E3E1B5DA05-2025-05-22-19-31-09","","1805","","images/semantic_sequence/exploring_nature_semantic/exploring_nature_semantic_3.png","0","",""
"","","","","","image-button-response","97","620518","0.0-14.0-1.0-2.2","619C1DE380C64DC08BEEA5E3E1B5DA05","619C1DE380C64DC08BEEA5E3E1B5DA05","36d89e6a-b2dd-4304-8809-b4ca47a0933b","9076ac92-be42-43a2-9634-8b67c7fe93a7","{""num_scrambled_semantic"":""8"",""num_scrambled_causal"":""4"",""num_scrambled_schematic"":""4"",""participantId"":""619C1DE380C64DC08BEEA5E3E1B5DA05"",""assignmentId"":""36d89e6a-b2dd-4304-8809-b4ca47a0933b"",""projectId"":""9076ac92-be42-43a2-9634-8b67c7fe93a7""}","https://test12345.live/?num_scrambled_semantic=8&num_scrambled_causal=4&num_scrambled_schematic=4&participantId=619C1DE380C64DC08BEEA5E3E1B5DA05&assignmentId=36d89e6a-b2dd-4304-8809-b4ca47a0933b&projectId=9076ac92-be42-43a2-9634-8b67c7fe93a7","619C1DE380C64DC08BEEA5E3E1B5DA05-2025-05-22-19-31-09","","null","","[]","null","",""
"","","","","","image-button-response","98","625025","0.0-14.0-1.0-0.3","619C1DE380C64DC08BEEA5E3E1B5DA05","619C1DE380C64DC08BEEA5E3E1B5DA05","36d89e6a-b2dd-4304-8809-b4ca47a0933b","9076ac92-be42-43a2-9634-8b67c7fe93a7","{""num_scrambled_semantic"":""8"",""num_scrambled_causal"":""4"",""num_scrambled_schematic"":""4"",""participantId"":""619C1DE380C64DC08BEEA5E3E1B5DA05"",""assignmentId"":""36d89e6a-b2dd-4304-8809-b4ca47a0933b"",""projectId"":""9076ac92-be42-43a2-9634-8b67c7fe93a7""}","https://test12345.live/?num_scrambled_semantic=8&num_scrambled_causal=4&num_scrambled_schematic=4&participantId=619C1DE380C64DC08BEEA5E3E1B5DA05&assignmentId=36d89e6a-b2dd-4304-8809-b4ca47a0933b&projectId=9076ac92-be42-43a2-9634-8b67c7fe93a7","619C1DE380C64DC08BEEA5E3E1B5DA05-2025-05-22-19-31-09","","null","","images/semantic_sequence/exploring_nature_semantic/exploring_nature_semantic_4.png","null","",""
"","","","","","image-button-response","99","625902","0.0-14.0-1.0-1.3","619C1DE380C64DC08BEEA5E3E1B5DA05","619C1DE380C64DC08BEEA5E3E1B5DA05","36d89e6a-b2dd-4304-8809-b4ca47a0933b","9076ac92-be42-43a2-9634-8b67c7fe93a7","{""num_scrambled_semantic"":""8"",""num_scrambled_causal"":""4"",""num_scrambled_schematic"":""4"",""participantId"":""619C1DE380C64DC08BEEA5E3E1B5DA05"",""assignmentId"":""36d89e6a-b2dd-4304-8809-b4ca47a0933b"",""projectId"":""9076ac92-be42-43a2-9634-8b67c7fe93a7""}","https://test12345.live/?num_scrambled_semantic=8&num_scrambled_causal=4&num_scrambled_schematic=4&participantId=619C1DE380C64DC08BEEA5E3E1B5DA05&assignmentId=36d89e6a-b2dd-4304-8809-b4ca47a0933b&projectId=9076ac92-be42-43a2-9634-8b67c7fe93a7","619C1DE380C64DC08BEEA5E3E1B5DA05-2025-05-22-19-31-09","","877","","images/semantic_sequence/exploring_nature_semantic/exploring_nature_semantic_4.png","0","",""
"","","","","","image-button-response","100","627705","0.0-14.0-1.0-2.3","619C1DE380C64DC08BEEA5E3E1B5DA05","619C1DE380C64DC08BEEA5E3E1B5DA05","36d89e6a-b2dd-4304-8809-b4ca47a0933b","9076ac92-be42-43a2-9634-8b67c7fe93a7","{""num_scrambled_semantic"":""8"",""num_scrambled_causal"":""4"",""num_scrambled_schematic"":""4"",""participantId"":""619C1DE380C64DC08BEEA5E3E1B5DA05"",""assignmentId"":""36d89e6a-b2dd-4304-8809-b4ca47a0933b"",""projectId"":""9076ac92-be42-43a2-9634-8b67c7fe93a7""}","https://test12345.live/?num_scrambled_semantic=8&num_scrambled_causal=4&num_scrambled_schematic=4&participantId=619C1DE380C64DC08BEEA5E3E1B5DA05&assignmentId=36d89e6a-b2dd-4304-8809-b4ca47a0933b&projectId=9076ac92-be42-43a2-9634-8b67c7fe93a7","619C1DE380C64DC08BEEA5E3E1B5DA05-2025-05-22-19-31-09","","null","","[]","null","",""
"","","","","","image-button-response","101","632212","0.0-14.0-1.0-0.4","619C1DE380C64DC08BEEA5E3E1B5DA05","619C1DE380C64DC08BEEA5E3E1B5DA05","36d89e6a-b2dd-4304-8809-b4ca47a0933b","9076ac92-be42-43a2-9634-8b67c7fe93a7","{""num_scrambled_semantic"":""8"",""num_scrambled_causal"":""4"",""num_scrambled_schematic"":""4"",""participantId"":""619C1DE380C64DC08BEEA5E3E1B5DA05"",""assignmentId"":""36d89e6a-b2dd-4304-8809-b4ca47a0933b"",""projectId"":""9076ac92-be42-43a2-9634-8b67c7fe93a7""}","https://test12345.live/?num_scrambled_semantic=8&num_scrambled_causal=4&num_scrambled_schematic=4&participantId=619C1DE380C64DC08BEEA5E3E1B5DA05&assignmentId=36d89e6a-b2dd-4304-8809-b4ca47a0933b&projectId=9076ac92-be42-43a2-9634-8b67c7fe93a7","619C1DE380C64DC08BEEA5E3E1B5DA05-2025-05-22-19-31-09","","null","","images/semantic_sequence/exploring_nature_semantic/exploring_nature_semantic_5.png","null","",""
"","","","","","image-button-response","102","633299","0.0-14.0-1.0-1.4","619C1DE380C64DC08BEEA5E3E1B5DA05","619C1DE380C64DC08BEEA5E3E1B5DA05","36d89e6a-b2dd-4304-8809-b4ca47a0933b","9076ac92-be42-43a2-9634-8b67c7fe93a7","{""num_scrambled_semantic"":""8"",""num_scrambled_causal"":""4"",""num_scrambled_schematic"":""4"",""participantId"":""619C1DE380C64DC08BEEA5E3E1B5DA05"",""assignmentId"":""36d89e6a-b2dd-4304-8809-b4ca47a0933b"",""projectId"":""9076ac92-be42-43a2-9634-8b67c7fe93a7""}","https://test12345.live/?num_scrambled_semantic=8&num_scrambled_causal=4&num_scrambled_schematic=4&participantId=619C1DE380C64DC08BEEA5E3E1B5DA05&assignmentId=36d89e6a-b2dd-4304-8809-b4ca47a0933b&projectId=9076ac92-be42-43a2-9634-8b67c7fe93a7","619C1DE380C64DC08BEEA5E3E1B5DA05-2025-05-22-19-31-09","","1086","","images/semantic_sequence/exploring_nature_semantic/exploring_nature_semantic_5.png","0","",""
"","","","","","image-button-response","103","635101","0.0-14.0-1.0-2.4","619C1DE380C64DC08BEEA5E3E1B5DA05","619C1DE380C64DC08BEEA5E3E1B5DA05","36d89e6a-b2dd-4304-8809-b4ca47a0933b","9076ac92-be42-43a2-9634-8b67c7fe93a7","{""num_scrambled_semantic"":""8"",""num_scrambled_causal"":""4"",""num_scrambled_schematic"":""4"",""participantId"":""619C1DE380C64DC08BEEA5E3E1B5DA05"",""assignmentId"":""36d89e6a-b2dd-4304-8809-b4ca47a0933b"",""projectId"":""9076ac92-be42-43a2-9634-8b67c7fe93a7""}","https://test12345.live/?num_scrambled_semantic=8&num_scrambled_causal=4&num_scrambled_schematic=4&participantId=619C1DE380C64DC08BEEA5E3E1B5DA05&assignmentId=36d89e6a-b2dd-4304-8809-b4ca47a0933b&projectId=9076ac92-be42-43a2-9634-8b67c7fe93a7","619C1DE380C64DC08BEEA5E3E1B5DA05-2025-05-22-19-31-09","","null","","[]","null","",""
"","","","","","image-button-response","104","639610","0.0-14.0-1.0-0.5","619C1DE380C64DC08BEEA5E3E1B5DA05","619C1DE380C64DC08BEEA5E3E1B5DA05","36d89e6a-b2dd-4304-8809-b4ca47a0933b","9076ac92-be42-43a2-9634-8b67c7fe93a7","{""num_scrambled_semantic"":""8"",""num_scrambled_causal"":""4"",""num_scrambled_schematic"":""4"",""participantId"":""619C1DE380C64DC08BEEA5E3E1B5DA05"",""assignmentId"":""36d89e6a-b2dd-4304-8809-b4ca47a0933b"",""projectId"":""9076ac92-be42-43a2-9634-8b67c7fe93a7""}","https://test12345.live/?num_scrambled_semantic=8&num_scrambled_causal=4&num_scrambled_schematic=4&participantId=619C1DE380C64DC08BEEA5E3E1B5DA05&assignmentId=36d89e6a-b2dd-4304-8809-b4ca47a0933b&projectId=9076ac92-be42-43a2-9634-8b67c7fe93a7","619C1DE380C64DC08BEEA5E3E1B5DA05-2025-05-22-19-31-09","","null","","images/semantic_sequence/exploring_nature_semantic/exploring_nature_semantic_6.png","null","",""
"","","","","","image-button-response","105","640945","0.0-14.0-1.0-1.5","619C1DE380C64DC08BEEA5E3E1B5DA05","619C1DE380C64DC08BEEA5E3E1B5DA05","36d89e6a-b2dd-4304-8809-b4ca47a0933b","9076ac92-be42-43a2-9634-8b67c7fe93a7","{""num_scrambled_semantic"":""8"",""num_scrambled_causal"":""4"",""num_scrambled_schematic"":""4"",""participantId"":""619C1DE380C64DC08BEEA5E3E1B5DA05"",""assignmentId"":""36d89e6a-b2dd-4304-8809-b4ca47a0933b"",""projectId"":""9076ac92-be42-43a2-9634-8b67c7fe93a7""}","https://test12345.live/?num_scrambled_semantic=8&num_scrambled_causal=4&num_scrambled_schematic=4&participantId=619C1DE380C64DC08BEEA5E3E1B5DA05&assignmentId=36d89e6a-b2dd-4304-8809-b4ca47a0933b&projectId=9076ac92-be42-43a2-9634-8b67c7fe93a7","619C1DE380C64DC08BEEA5E3E1B5DA05-2025-05-22-19-31-09","","1335","","images/semantic_sequence/exploring_nature_semantic/exploring_nature_semantic_6.png","0","",""
"","","","","","image-button-response","106","642755","0.0-14.0-1.0-2.5","619C1DE380C64DC08BEEA5E3E1B5DA05","619C1DE380C64DC08BEEA5E3E1B5DA05","36d89e6a-b2dd-4304-8809-b4ca47a0933b","9076ac92-be42-43a2-9634-8b67c7fe93a7","{""num_scrambled_semantic"":""8"",""num_scrambled_causal"":""4"",""num_scrambled_schematic"":""4"",""participantId"":""619C1DE380C64DC08BEEA5E3E1B5DA05"",""assignmentId"":""36d89e6a-b2dd-4304-8809-b4ca47a0933b"",""projectId"":""9076ac92-be42-43a2-9634-8b67c7fe93a7""}","https://test12345.live/?num_scrambled_semantic=8&num_scrambled_causal=4&num_scrambled_schematic=4&participantId=619C1DE380C64DC08BEEA5E3E1B5DA05&assignmentId=36d89e6a-b2dd-4304-8809-b4ca47a0933b&projectId=9076ac92-be42-43a2-9634-8b67c7fe93a7","619C1DE380C64DC08BEEA5E3E1B5DA05-2025-05-22-19-31-09","","null","","[]","null","",""
"","","","","","image-button-response","107","647266","0.0-14.0-1.0-0.6","619C1DE380C64DC08BEEA5E3E1B5DA05","619C1DE380C64DC08BEEA5E3E1B5DA05","36d89e6a-b2dd-4304-8809-b4ca47a0933b","9076ac92-be42-43a2-9634-8b67c7fe93a7","{""num_scrambled_semantic"":""8"",""num_scrambled_causal"":""4"",""num_scrambled_schematic"":""4"",""participantId"":""619C1DE380C64DC08BEEA5E3E1B5DA05"",""assignmentId"":""36d89e6a-b2dd-4304-8809-b4ca47a0933b"",""projectId"":""9076ac92-be42-43a2-9634-8b67c7fe93a7""}","https://test12345.live/?num_scrambled_semantic=8&num_scrambled_causal=4&num_scrambled_schematic=4&participantId=619C1DE380C64DC08BEEA5E3E1B5DA05&assignmentId=36d89e6a-b2dd-4304-8809-b4ca47a0933b&projectId=9076ac92-be42-43a2-9634-8b67c7fe93a7","619C1DE380C64DC08BEEA5E3E1B5DA05-2025-05-22-19-31-09","","null","","images/semantic_sequence/exploring_nature_semantic/exploring_nature_semantic_7.png","null","",""
"","","","","","image-button-response","108","649473","0.0-14.0-1.0-1.6","619C1DE380C64DC08BEEA5E3E1B5DA05","619C1DE380C64DC08BEEA5E3E1B5DA05","36d89e6a-b2dd-4304-8809-b4ca47a0933b","9076ac92-be42-43a2-9634-8b67c7fe93a7","{""num_scrambled_semantic"":""8"",""num_scrambled_causal"":""4"",""num_scrambled_schematic"":""4"",""participantId"":""619C1DE380C64DC08BEEA5E3E1B5DA05"",""assignmentId"":""36d89e6a-b2dd-4304-8809-b4ca47a0933b"",""projectId"":""9076ac92-be42-43a2-9634-8b67c7fe93a7""}","https://test12345.live/?num_scrambled_semantic=8&num_scrambled_causal=4&num_scrambled_schematic=4&participantId=619C1DE380C64DC08BEEA5E3E1B5DA05&assignmentId=36d89e6a-b2dd-4304-8809-b4ca47a0933b&projectId=9076ac92-be42-43a2-9634-8b67c7fe93a7","619C1DE380C64DC08BEEA5E3E1B5DA05-2025-05-22-19-31-09","","2206","","images/semantic_sequence/exploring_nature_semantic/exploring_nature_semantic_7.png","0","",""
"","","","","","image-button-response","109","651289","0.0-14.0-1.0-2.6","619C1DE380C64DC08BEEA5E3E1B5DA05","619C1DE380C64DC08BEEA5E3E1B5DA05","36d89e6a-b2dd-4304-8809-b4ca47a0933b","9076ac92-be42-43a2-9634-8b67c7fe93a7","{""num_scrambled_semantic"":""8"",""num_scrambled_causal"":""4"",""num_scrambled_schematic"":""4"",""participantId"":""619C1DE380C64DC08BEEA5E3E1B5DA05"",""assignmentId"":""36d89e6a-b2dd-4304-8809-b4ca47a0933b"",""projectId"":""9076ac92-be42-43a2-9634-8b67c7fe93a7""}","https://test12345.live/?num_scrambled_semantic=8&num_scrambled_causal=4&num_scrambled_schematic=4&participantId=619C1DE380C64DC08BEEA5E3E1B5DA05&assignmentId=36d89e6a-b2dd-4304-8809-b4ca47a0933b&projectId=9076ac92-be42-43a2-9634-8b67c7fe93a7","619C1DE380C64DC08BEEA5E3E1B5DA05-2025-05-22-19-31-09","","null","","[]","null","",""
"","","","","","image-button-response","110","655803","0.0-14.0-1.0-0.7","619C1DE380C64DC08BEEA5E3E1B5DA05","619C1DE380C64DC08BEEA5E3E1B5DA05","36d89e6a-b2dd-4304-8809-b4ca47a0933b","9076ac92-be42-43a2-9634-8b67c7fe93a7","{""num_scrambled_semantic"":""8"",""num_scrambled_causal"":""4"",""num_scrambled_schematic"":""4"",""participantId"":""619C1DE380C64DC08BEEA5E3E1B5DA05"",""assignmentId"":""36d89e6a-b2dd-4304-8809-b4ca47a0933b"",""projectId"":""9076ac92-be42-43a2-9634-8b67c7fe93a7""}","https://test12345.live/?num_scrambled_semantic=8&num_scrambled_causal=4&num_scrambled_schematic=4&participantId=619C1DE380C64DC08BEEA5E3E1B5DA05&assignmentId=36d89e6a-b2dd-4304-8809-b4ca47a0933b&projectId=9076ac92-be42-43a2-9634-8b67c7fe93a7","619C1DE380C64DC08BEEA5E3E1B5DA05-2025-05-22-19-31-09","","null","","images/semantic_sequence/exploring_nature_semantic/exploring_nature_semantic_8.png","null","",""
"","","","","","image-button-response","111","657651","0.0-14.0-1.0-1.7","619C1DE380C64DC08BEEA5E3E1B5DA05","619C1DE380C64DC08BEEA5E3E1B5DA05","36d89e6a-b2dd-4304-8809-b4ca47a0933b","9076ac92-be42-43a2-9634-8b67c7fe93a7","{""num_scrambled_semantic"":""8"",""num_scrambled_causal"":""4"",""num_scrambled_schematic"":""4"",""participantId"":""619C1DE380C64DC08BEEA5E3E1B5DA05"",""assignmentId"":""36d89e6a-b2dd-4304-8809-b4ca47a0933b"",""projectId"":""9076ac92-be42-43a2-9634-8b67c7fe93a7""}","https://test12345.live/?num_scrambled_semantic=8&num_scrambled_causal=4&num_scrambled_schematic=4&participantId=619C1DE380C64DC08BEEA5E3E1B5DA05&assignmentId=36d89e6a-b2dd-4304-8809-b4ca47a0933b&projectId=9076ac92-be42-43a2-9634-8b67c7fe93a7","619C1DE380C64DC08BEEA5E3E1B5DA05-2025-05-22-19-31-09","","1847","","images/semantic_sequence/exploring_nature_semantic/exploring_nature_semantic_8.png","0","",""
"","","","","","image-button-response","112","659453","0.0-14.0-1.0-2.7","619C1DE380C64DC08BEEA5E3E1B5DA05","619C1DE380C64DC08BEEA5E3E1B5DA05","36d89e6a-b2dd-4304-8809-b4ca47a0933b","9076ac92-be42-43a2-9634-8b67c7fe93a7","{""num_scrambled_semantic"":""8"",""num_scrambled_causal"":""4"",""num_scrambled_schematic"":""4"",""participantId"":""619C1DE380C64DC08BEEA5E3E1B5DA05"",""assignmentId"":""36d89e6a-b2dd-4304-8809-b4ca47a0933b"",""projectId"":""9076ac92-be42-43a2-9634-8b67c7fe93a7""}","https://test12345.live/?num_scrambled_semantic=8&num_scrambled_causal=4&num_scrambled_schematic=4&participantId=619C1DE380C64DC08BEEA5E3E1B5DA05&assignmentId=36d89e6a-b2dd-4304-8809-b4ca47a0933b&projectId=9076ac92-be42-43a2-9634-8b67c7fe93a7","619C1DE380C64DC08BEEA5E3E1B5DA05-2025-05-22-19-31-09","","null","","[]","null","",""
"","","","","","image-button-response","113","663967","0.0-14.0-1.0-0.8","619C1DE380C64DC08BEEA5E3E1B5DA05","619C1DE380C64DC08BEEA5E3E1B5DA05","36d89e6a-b2dd-4304-8809-b4ca47a0933b","9076ac92-be42-43a2-9634-8b67c7fe93a7","{""num_scrambled_semantic"":""8"",""num_scrambled_causal"":""4"",""num_scrambled_schematic"":""4"",""participantId"":""619C1DE380C64DC08BEEA5E3E1B5DA05"",""assignmentId"":""36d89e6a-b2dd-4304-8809-b4ca47a0933b"",""projectId"":""9076ac92-be42-43a2-9634-8b67c7fe93a7""}","https://test12345.live/?num_scrambled_semantic=8&num_scrambled_causal=4&num_scrambled_schematic=4&participantId=619C1DE380C64DC08BEEA5E3E1B5DA05&assignmentId=36d89e6a-b2dd-4304-8809-b4ca47a0933b&projectId=9076ac92-be42-43a2-9634-8b67c7fe93a7","619C1DE380C64DC08BEEA5E3E1B5DA05-2025-05-22-19-31-09","","null","","images/semantic_sequence/exploring_nature_semantic/exploring_nature_semantic_9.png","null","",""
