"success","timeout","failed_images","failed_audio","failed_video","trial_type","trial_index","time_elapsed","internal_node_id","subject","subject_id","study_id","session_id","urlvar","current_url","audio_id","view_history","rt","device_id","stimulus","response","estimated_stimulus_onset","seq_name"
"true","false","[]","[]","[]","preload","0","16692","0.0-0.0","622E7D8A2D5041BABE739B8EFA8E3603","622E7D8A2D5041BABE739B8EFA8E3603","9253eca8-b747-47c0-8fd7-381bee18f0e0","9076ac92-be42-43a2-9634-8b67c7fe93a7","{""num_scrambled_semantic"":""8"",""num_scrambled_causal"":""4"",""num_scrambled_schematic"":""4"",""participantId"":""622E7D8A2D5041BABE739B8EFA8E3603"",""assignmentId"":""9253eca8-b747-47c0-8fd7-381bee18f0e0"",""projectId"":""9076ac92-be42-43a2-9634-8b67c7fe93a7""}","https://test12345.live/?num_scrambled_semantic=8&num_scrambled_causal=4&num_scrambled_schematic=4&participantId=622E7D8A2D5041BABE739B8EFA8E3603&assignmentId=9253eca8-b747-47c0-8fd7-381bee18f0e0&projectId=9076ac92-be42-43a2-9634-8b67c7fe93a7","622E7D8A2D5041BABE739B8EFA8E3603-2025-05-22-19-39-57","","","","","","",""
"","","","","","instructions","1","26619","0.0-1.0","622E7D8A2D5041BABE739B8EFA8E3603","622E7D8A2D5041BABE739B8EFA8E3603","9253eca8-b747-47c0-8fd7-381bee18f0e0","9076ac92-be42-43a2-9634-8b67c7fe93a7","{""num_scrambled_semantic"":""8"",""num_scrambled_causal"":""4"",""num_scrambled_schematic"":""4"",""participantId"":""622E7D8A2D5041BABE739B8EFA8E3603"",""assignmentId"":""9253eca8-b747-47c0-8fd7-381bee18f0e0"",""projectId"":""9076ac92-be42-43a2-9634-8b67c7fe93a7""}","https://test12345.live/?num_scrambled_semantic=8&num_scrambled_causal=4&num_scrambled_schematic=4&participantId=622E7D8A2D5041BABE739B8EFA8E3603&assignmentId=9253eca8-b747-47c0-8fd7-381bee18f0e0&projectId=9076ac92-be42-43a2-9634-8b67c7fe93a7","622E7D8A2D5041BABE739B8EFA8E3603-2025-05-22-19-39-57","[{""page_index"":0,""viewing_time"":9925}]","9925","","","","",""
"","","","","","instructions","2","31204","0.0-2.0","622E7D8A2D5041BABE739B8EFA8E3603","622E7D8A2D5041BABE739B8EFA8E3603","9253eca8-b747-47c0-8fd7-381bee18f0e0","9076ac92-be42-43a2-9634-8b67c7fe93a7","{""num_scrambled_semantic"":""8"",""num_scrambled_causal"":""4"",""num_scrambled_schematic"":""4"",""participantId"":""622E7D8A2D5041BABE739B8EFA8E3603"",""assignmentId"":""9253eca8-b747-47c0-8fd7-381bee18f0e0"",""projectId"":""9076ac92-be42-43a2-9634-8b67c7fe93a7""}","https://test12345.live/?num_scrambled_semantic=8&num_scrambled_causal=4&num_scrambled_schematic=4&participantId=622E7D8A2D5041BABE739B8EFA8E3603&assignmentId=9253eca8-b747-47c0-8fd7-381bee18f0e0&projectId=9076ac92-be42-43a2-9634-8b67c7fe93a7","622E7D8A2D5041BABE739B8EFA8E3603-2025-05-22-19-39-57","[{""page_index"":0,""viewing_time"":4583}]","4584","","","","",""
"true","","","","","fullscreen","3","36977","0.0-3.0","622E7D8A2D5041BABE739B8EFA8E3603","622E7D8A2D5041BABE739B8EFA8E3603","9253eca8-b747-47c0-8fd7-381bee18f0e0","9076ac92-be42-43a2-9634-8b67c7fe93a7","{""num_scrambled_semantic"":""8"",""num_scrambled_causal"":""4"",""num_scrambled_schematic"":""4"",""participantId"":""622E7D8A2D5041BABE739B8EFA8E3603"",""assignmentId"":""9253eca8-b747-47c0-8fd7-381bee18f0e0"",""projectId"":""9076ac92-be42-43a2-9634-8b67c7fe93a7""}","https://test12345.live/?num_scrambled_semantic=8&num_scrambled_causal=4&num_scrambled_schematic=4&participantId=622E7D8A2D5041BABE739B8EFA8E3603&assignmentId=9253eca8-b747-47c0-8fd7-381bee18f0e0&projectId=9076ac92-be42-43a2-9634-8b67c7fe93a7","622E7D8A2D5041BABE739B8EFA8E3603-2025-05-22-19-39-57","","4765","","","","",""
"","","","","","initialize-microphone","4","45034","0.0-4.0-0.0","622E7D8A2D5041BABE739B8EFA8E3603","622E7D8A2D5041BABE739B8EFA8E3603","9253eca8-b747-47c0-8fd7-381bee18f0e0","9076ac92-be42-43a2-9634-8b67c7fe93a7","{""num_scrambled_semantic"":""8"",""num_scrambled_causal"":""4"",""num_scrambled_schematic"":""4"",""participantId"":""622E7D8A2D5041BABE739B8EFA8E3603"",""assignmentId"":""9253eca8-b747-47c0-8fd7-381bee18f0e0"",""projectId"":""9076ac92-be42-43a2-9634-8b67c7fe93a7""}","https://test12345.live/?num_scrambled_semantic=8&num_scrambled_causal=4&num_scrambled_schematic=4&participantId=622E7D8A2D5041BABE739B8EFA8E3603&assignmentId=9253eca8-b747-47c0-8fd7-381bee18f0e0&projectId=9076ac92-be42-43a2-9634-8b67c7fe93a7","622E7D8A2D5041BABE739B8EFA8E3603-2025-05-22-19-39-57","","","6ce9167e6ef4d73569bed0a212a2d4c2111c0ab314a660a82ddf382faa32e6cd","","","",""
"","","","","","html-audio-response","5","65459","0.0-4.0-1.0","622E7D8A2D5041BABE739B8EFA8E3603","622E7D8A2D5041BABE739B8EFA8E3603","9253eca8-b747-47c0-8fd7-381bee18f0e0","9076ac92-be42-43a2-9634-8b67c7fe93a7","{""num_scrambled_semantic"":""8"",""num_scrambled_causal"":""4"",""num_scrambled_schematic"":""4"",""participantId"":""622E7D8A2D5041BABE739B8EFA8E3603"",""assignmentId"":""9253eca8-b747-47c0-8fd7-381bee18f0e0"",""projectId"":""9076ac92-be42-43a2-9634-8b67c7fe93a7""}","https://test12345.live/?num_scrambled_semantic=8&num_scrambled_causal=4&num_scrambled_schematic=4&participantId=622E7D8A2D5041BABE739B8EFA8E3603&assignmentId=9253eca8-b747-47c0-8fd7-381bee18f0e0&projectId=9076ac92-be42-43a2-9634-8b67c7fe93a7","622E7D8A2D5041BABE739B8EFA8E3603-2025-05-22-19-39-57","","2045","","<span style=""color: red; font-size: 24px""> NOW RECORDING</span>
        <p>Please test Microphone</p>","","12",""
"","","","","","html-button-response","6","67125","0.0-4.0-2.0","622E7D8A2D5041BABE739B8EFA8E3603","622E7D8A2D5041BABE739B8EFA8E3603","9253eca8-b747-47c0-8fd7-381bee18f0e0","9076ac92-be42-43a2-9634-8b67c7fe93a7","{""num_scrambled_semantic"":""8"",""num_scrambled_causal"":""4"",""num_scrambled_schematic"":""4"",""participantId"":""622E7D8A2D5041BABE739B8EFA8E3603"",""assignmentId"":""9253eca8-b747-47c0-8fd7-381bee18f0e0"",""projectId"":""9076ac92-be42-43a2-9634-8b67c7fe93a7""}","https://test12345.live/?num_scrambled_semantic=8&num_scrambled_causal=4&num_scrambled_schematic=4&participantId=622E7D8A2D5041BABE739B8EFA8E3603&assignmentId=9253eca8-b747-47c0-8fd7-381bee18f0e0&projectId=9076ac92-be42-43a2-9634-8b67c7fe93a7","622E7D8A2D5041BABE739B8EFA8E3603-2025-05-22-19-39-57","","1664","","<p style=""font-size:48px; color:red;"">Is Microphone OK?</p>","1","",""
"","","","","","instructions","7","74092","0.0-5.0","622E7D8A2D5041BABE739B8EFA8E3603","622E7D8A2D5041BABE739B8EFA8E3603","9253eca8-b747-47c0-8fd7-381bee18f0e0","9076ac92-be42-43a2-9634-8b67c7fe93a7","{""num_scrambled_semantic"":""8"",""num_scrambled_causal"":""4"",""num_scrambled_schematic"":""4"",""participantId"":""622E7D8A2D5041BABE739B8EFA8E3603"",""assignmentId"":""9253eca8-b747-47c0-8fd7-381bee18f0e0"",""projectId"":""9076ac92-be42-43a2-9634-8b67c7fe93a7""}","https://test12345.live/?num_scrambled_semantic=8&num_scrambled_causal=4&num_scrambled_schematic=4&participantId=622E7D8A2D5041BABE739B8EFA8E3603&assignmentId=9253eca8-b747-47c0-8fd7-381bee18f0e0&projectId=9076ac92-be42-43a2-9634-8b67c7fe93a7","622E7D8A2D5041BABE739B8EFA8E3603-2025-05-22-19-39-57","[{""page_index"":0,""viewing_time"":2832},{""page_index"":1,""viewing_time"":4133}]","6966","","","","",""
"","","","","","image-button-response","8","80096","0.0-6.0-0.0","622E7D8A2D5041BABE739B8EFA8E3603","622E7D8A2D5041BABE739B8EFA8E3603","9253eca8-b747-47c0-8fd7-381bee18f0e0","9076ac92-be42-43a2-9634-8b67c7fe93a7","{""num_scrambled_semantic"":""8"",""num_scrambled_causal"":""4"",""num_scrambled_schematic"":""4"",""participantId"":""622E7D8A2D5041BABE739B8EFA8E3603"",""assignmentId"":""9253eca8-b747-47c0-8fd7-381bee18f0e0"",""projectId"":""9076ac92-be42-43a2-9634-8b67c7fe93a7""}","https://test12345.live/?num_scrambled_semantic=8&num_scrambled_causal=4&num_scrambled_schematic=4&participantId=622E7D8A2D5041BABE739B8EFA8E3603&assignmentId=9253eca8-b747-47c0-8fd7-381bee18f0e0&projectId=9076ac92-be42-43a2-9634-8b67c7fe93a7","622E7D8A2D5041BABE739B8EFA8E3603-2025-05-22-19-39-57","","null","","images/instructions/movie_0.png","null","",""
"","","","","","image-button-response","9","84599","0.0-6.0-1.0-0.0","622E7D8A2D5041BABE739B8EFA8E3603","622E7D8A2D5041BABE739B8EFA8E3603","9253eca8-b747-47c0-8fd7-381bee18f0e0","9076ac92-be42-43a2-9634-8b67c7fe93a7","{""num_scrambled_semantic"":""8"",""num_scrambled_causal"":""4"",""num_scrambled_schematic"":""4"",""participantId"":""622E7D8A2D5041BABE739B8EFA8E3603"",""assignmentId"":""9253eca8-b747-47c0-8fd7-381bee18f0e0"",""projectId"":""9076ac92-be42-43a2-9634-8b67c7fe93a7""}","https://test12345.live/?num_scrambled_semantic=8&num_scrambled_causal=4&num_scrambled_schematic=4&participantId=622E7D8A2D5041BABE739B8EFA8E3603&assignmentId=9253eca8-b747-47c0-8fd7-381bee18f0e0&projectId=9076ac92-be42-43a2-9634-8b67c7fe93a7","622E7D8A2D5041BABE739B8EFA8E3603-2025-05-22-19-39-57","","null","","images/instructions/movie_1.png","null","",""
"","","","","","image-button-response","10","86492","0.0-6.0-1.0-1.0","622E7D8A2D5041BABE739B8EFA8E3603","622E7D8A2D5041BABE739B8EFA8E3603","9253eca8-b747-47c0-8fd7-381bee18f0e0","9076ac92-be42-43a2-9634-8b67c7fe93a7","{""num_scrambled_semantic"":""8"",""num_scrambled_causal"":""4"",""num_scrambled_schematic"":""4"",""participantId"":""622E7D8A2D5041BABE739B8EFA8E3603"",""assignmentId"":""9253eca8-b747-47c0-8fd7-381bee18f0e0"",""projectId"":""9076ac92-be42-43a2-9634-8b67c7fe93a7""}","https://test12345.live/?num_scrambled_semantic=8&num_scrambled_causal=4&num_scrambled_schematic=4&participantId=622E7D8A2D5041BABE739B8EFA8E3603&assignmentId=9253eca8-b747-47c0-8fd7-381bee18f0e0&projectId=9076ac92-be42-43a2-9634-8b67c7fe93a7","622E7D8A2D5041BABE739B8EFA8E3603-2025-05-22-19-39-57","","1891","","images/instructions/movie_1.png","0","",""
"","","","","","image-button-response","11","88298","0.0-6.0-1.0-2.0","622E7D8A2D5041BABE739B8EFA8E3603","622E7D8A2D5041BABE739B8EFA8E3603","9253eca8-b747-47c0-8fd7-381bee18f0e0","9076ac92-be42-43a2-9634-8b67c7fe93a7","{""num_scrambled_semantic"":""8"",""num_scrambled_causal"":""4"",""num_scrambled_schematic"":""4"",""participantId"":""622E7D8A2D5041BABE739B8EFA8E3603"",""assignmentId"":""9253eca8-b747-47c0-8fd7-381bee18f0e0"",""projectId"":""9076ac92-be42-43a2-9634-8b67c7fe93a7""}","https://test12345.live/?num_scrambled_semantic=8&num_scrambled_causal=4&num_scrambled_schematic=4&participantId=622E7D8A2D5041BABE739B8EFA8E3603&assignmentId=9253eca8-b747-47c0-8fd7-381bee18f0e0&projectId=9076ac92-be42-43a2-9634-8b67c7fe93a7","622E7D8A2D5041BABE739B8EFA8E3603-2025-05-22-19-39-57","","null","","[]","null","",""
"","","","","","image-button-response","12","92800","0.0-6.0-1.0-0.1","622E7D8A2D5041BABE739B8EFA8E3603","622E7D8A2D5041BABE739B8EFA8E3603","9253eca8-b747-47c0-8fd7-381bee18f0e0","9076ac92-be42-43a2-9634-8b67c7fe93a7","{""num_scrambled_semantic"":""8"",""num_scrambled_causal"":""4"",""num_scrambled_schematic"":""4"",""participantId"":""622E7D8A2D5041BABE739B8EFA8E3603"",""assignmentId"":""9253eca8-b747-47c0-8fd7-381bee18f0e0"",""projectId"":""9076ac92-be42-43a2-9634-8b67c7fe93a7""}","https://test12345.live/?num_scrambled_semantic=8&num_scrambled_causal=4&num_scrambled_schematic=4&participantId=622E7D8A2D5041BABE739B8EFA8E3603&assignmentId=9253eca8-b747-47c0-8fd7-381bee18f0e0&projectId=9076ac92-be42-43a2-9634-8b67c7fe93a7","622E7D8A2D5041BABE739B8EFA8E3603-2025-05-22-19-39-57","","null","","images/instructions/movie_2.png","null","",""
"","","","","","image-button-response","13","93744","0.0-6.0-1.0-1.1","622E7D8A2D5041BABE739B8EFA8E3603","622E7D8A2D5041BABE739B8EFA8E3603","9253eca8-b747-47c0-8fd7-381bee18f0e0","9076ac92-be42-43a2-9634-8b67c7fe93a7","{""num_scrambled_semantic"":""8"",""num_scrambled_causal"":""4"",""num_scrambled_schematic"":""4"",""participantId"":""622E7D8A2D5041BABE739B8EFA8E3603"",""assignmentId"":""9253eca8-b747-47c0-8fd7-381bee18f0e0"",""projectId"":""9076ac92-be42-43a2-9634-8b67c7fe93a7""}","https://test12345.live/?num_scrambled_semantic=8&num_scrambled_causal=4&num_scrambled_schematic=4&participantId=622E7D8A2D5041BABE739B8EFA8E3603&assignmentId=9253eca8-b747-47c0-8fd7-381bee18f0e0&projectId=9076ac92-be42-43a2-9634-8b67c7fe93a7","622E7D8A2D5041BABE739B8EFA8E3603-2025-05-22-19-39-57","","941","","images/instructions/movie_2.png","1","",""
"","","","","","image-button-response","14","95549","0.0-6.0-1.0-2.1","622E7D8A2D5041BABE739B8EFA8E3603","622E7D8A2D5041BABE739B8EFA8E3603","9253eca8-b747-47c0-8fd7-381bee18f0e0","9076ac92-be42-43a2-9634-8b67c7fe93a7","{""num_scrambled_semantic"":""8"",""num_scrambled_causal"":""4"",""num_scrambled_schematic"":""4"",""participantId"":""622E7D8A2D5041BABE739B8EFA8E3603"",""assignmentId"":""9253eca8-b747-47c0-8fd7-381bee18f0e0"",""projectId"":""9076ac92-be42-43a2-9634-8b67c7fe93a7""}","https://test12345.live/?num_scrambled_semantic=8&num_scrambled_causal=4&num_scrambled_schematic=4&participantId=622E7D8A2D5041BABE739B8EFA8E3603&assignmentId=9253eca8-b747-47c0-8fd7-381bee18f0e0&projectId=9076ac92-be42-43a2-9634-8b67c7fe93a7","622E7D8A2D5041BABE739B8EFA8E3603-2025-05-22-19-39-57","","null","","[]","null","",""
"","","","","","image-button-response","15","100052","0.0-6.0-1.0-0.2","622E7D8A2D5041BABE739B8EFA8E3603","622E7D8A2D5041BABE739B8EFA8E3603","9253eca8-b747-47c0-8fd7-381bee18f0e0","9076ac92-be42-43a2-9634-8b67c7fe93a7","{""num_scrambled_semantic"":""8"",""num_scrambled_causal"":""4"",""num_scrambled_schematic"":""4"",""participantId"":""622E7D8A2D5041BABE739B8EFA8E3603"",""assignmentId"":""9253eca8-b747-47c0-8fd7-381bee18f0e0"",""projectId"":""9076ac92-be42-43a2-9634-8b67c7fe93a7""}","https://test12345.live/?num_scrambled_semantic=8&num_scrambled_causal=4&num_scrambled_schematic=4&participantId=622E7D8A2D5041BABE739B8EFA8E3603&assignmentId=9253eca8-b747-47c0-8fd7-381bee18f0e0&projectId=9076ac92-be42-43a2-9634-8b67c7fe93a7","622E7D8A2D5041BABE739B8EFA8E3603-2025-05-22-19-39-57","","null","","images/instructions/movie_3.png","null","",""
"","","","","","image-button-response","16","101261","0.0-6.0-1.0-1.2","622E7D8A2D5041BABE739B8EFA8E3603","622E7D8A2D5041BABE739B8EFA8E3603","9253eca8-b747-47c0-8fd7-381bee18f0e0","9076ac92-be42-43a2-9634-8b67c7fe93a7","{""num_scrambled_semantic"":""8"",""num_scrambled_causal"":""4"",""num_scrambled_schematic"":""4"",""participantId"":""622E7D8A2D5041BABE739B8EFA8E3603"",""assignmentId"":""9253eca8-b747-47c0-8fd7-381bee18f0e0"",""projectId"":""9076ac92-be42-43a2-9634-8b67c7fe93a7""}","https://test12345.live/?num_scrambled_semantic=8&num_scrambled_causal=4&num_scrambled_schematic=4&participantId=622E7D8A2D5041BABE739B8EFA8E3603&assignmentId=9253eca8-b747-47c0-8fd7-381bee18f0e0&projectId=9076ac92-be42-43a2-9634-8b67c7fe93a7","622E7D8A2D5041BABE739B8EFA8E3603-2025-05-22-19-39-57","","1207","","images/instructions/movie_3.png","0","",""
"","","","","","image-button-response","17","103064","0.0-6.0-1.0-2.2","622E7D8A2D5041BABE739B8EFA8E3603","622E7D8A2D5041BABE739B8EFA8E3603","9253eca8-b747-47c0-8fd7-381bee18f0e0","9076ac92-be42-43a2-9634-8b67c7fe93a7","{""num_scrambled_semantic"":""8"",""num_scrambled_causal"":""4"",""num_scrambled_schematic"":""4"",""participantId"":""622E7D8A2D5041BABE739B8EFA8E3603"",""assignmentId"":""9253eca8-b747-47c0-8fd7-381bee18f0e0"",""projectId"":""9076ac92-be42-43a2-9634-8b67c7fe93a7""}","https://test12345.live/?num_scrambled_semantic=8&num_scrambled_causal=4&num_scrambled_schematic=4&participantId=622E7D8A2D5041BABE739B8EFA8E3603&assignmentId=9253eca8-b747-47c0-8fd7-381bee18f0e0&projectId=9076ac92-be42-43a2-9634-8b67c7fe93a7","622E7D8A2D5041BABE739B8EFA8E3603-2025-05-22-19-39-57","","null","","[]","null","",""
"","","","","","image-button-response","18","107569","0.0-6.0-1.0-0.3","622E7D8A2D5041BABE739B8EFA8E3603","622E7D8A2D5041BABE739B8EFA8E3603","9253eca8-b747-47c0-8fd7-381bee18f0e0","9076ac92-be42-43a2-9634-8b67c7fe93a7","{""num_scrambled_semantic"":""8"",""num_scrambled_causal"":""4"",""num_scrambled_schematic"":""4"",""participantId"":""622E7D8A2D5041BABE739B8EFA8E3603"",""assignmentId"":""9253eca8-b747-47c0-8fd7-381bee18f0e0"",""projectId"":""9076ac92-be42-43a2-9634-8b67c7fe93a7""}","https://test12345.live/?num_scrambled_semantic=8&num_scrambled_causal=4&num_scrambled_schematic=4&participantId=622E7D8A2D5041BABE739B8EFA8E3603&assignmentId=9253eca8-b747-47c0-8fd7-381bee18f0e0&projectId=9076ac92-be42-43a2-9634-8b67c7fe93a7","622E7D8A2D5041BABE739B8EFA8E3603-2025-05-22-19-39-57","","null","","images/instructions/movie_4.png","null","",""
"","","","","","image-button-response","19","108312","0.0-6.0-1.0-1.3","622E7D8A2D5041BABE739B8EFA8E3603","622E7D8A2D5041BABE739B8EFA8E3603","9253eca8-b747-47c0-8fd7-381bee18f0e0","9076ac92-be42-43a2-9634-8b67c7fe93a7","{""num_scrambled_semantic"":""8"",""num_scrambled_causal"":""4"",""num_scrambled_schematic"":""4"",""participantId"":""622E7D8A2D5041BABE739B8EFA8E3603"",""assignmentId"":""9253eca8-b747-47c0-8fd7-381bee18f0e0"",""projectId"":""9076ac92-be42-43a2-9634-8b67c7fe93a7""}","https://test12345.live/?num_scrambled_semantic=8&num_scrambled_causal=4&num_scrambled_schematic=4&participantId=622E7D8A2D5041BABE739B8EFA8E3603&assignmentId=9253eca8-b747-47c0-8fd7-381bee18f0e0&projectId=9076ac92-be42-43a2-9634-8b67c7fe93a7","622E7D8A2D5041BABE739B8EFA8E3603-2025-05-22-19-39-57","","741","","images/instructions/movie_4.png","0","",""
"","","","","","image-button-response","20","110119","0.0-6.0-1.0-2.3","622E7D8A2D5041BABE739B8EFA8E3603","622E7D8A2D5041BABE739B8EFA8E3603","9253eca8-b747-47c0-8fd7-381bee18f0e0","9076ac92-be42-43a2-9634-8b67c7fe93a7","{""num_scrambled_semantic"":""8"",""num_scrambled_causal"":""4"",""num_scrambled_schematic"":""4"",""participantId"":""622E7D8A2D5041BABE739B8EFA8E3603"",""assignmentId"":""9253eca8-b747-47c0-8fd7-381bee18f0e0"",""projectId"":""9076ac92-be42-43a2-9634-8b67c7fe93a7""}","https://test12345.live/?num_scrambled_semantic=8&num_scrambled_causal=4&num_scrambled_schematic=4&participantId=622E7D8A2D5041BABE739B8EFA8E3603&assignmentId=9253eca8-b747-47c0-8fd7-381bee18f0e0&projectId=9076ac92-be42-43a2-9634-8b67c7fe93a7","622E7D8A2D5041BABE739B8EFA8E3603-2025-05-22-19-39-57","","null","","[]","null","",""
"","","","","","instructions","21","117563","0.0-7.0","622E7D8A2D5041BABE739B8EFA8E3603","622E7D8A2D5041BABE739B8EFA8E3603","9253eca8-b747-47c0-8fd7-381bee18f0e0","9076ac92-be42-43a2-9634-8b67c7fe93a7","{""num_scrambled_semantic"":""8"",""num_scrambled_causal"":""4"",""num_scrambled_schematic"":""4"",""participantId"":""622E7D8A2D5041BABE739B8EFA8E3603"",""assignmentId"":""9253eca8-b747-47c0-8fd7-381bee18f0e0"",""projectId"":""9076ac92-be42-43a2-9634-8b67c7fe93a7""}","https://test12345.live/?num_scrambled_semantic=8&num_scrambled_causal=4&num_scrambled_schematic=4&participantId=622E7D8A2D5041BABE739B8EFA8E3603&assignmentId=9253eca8-b747-47c0-8fd7-381bee18f0e0&projectId=9076ac92-be42-43a2-9634-8b67c7fe93a7","622E7D8A2D5041BABE739B8EFA8E3603-2025-05-22-19-39-57","[{""page_index"":0,""viewing_time"":6343},{""page_index"":1,""viewing_time"":1100}]","7443","","","","",""
"","","","","","html-audio-response","22","151683","0.0-8.0","622E7D8A2D5041BABE739B8EFA8E3603","622E7D8A2D5041BABE739B8EFA8E3603","9253eca8-b747-47c0-8fd7-381bee18f0e0","9076ac92-be42-43a2-9634-8b67c7fe93a7","{""num_scrambled_semantic"":""8"",""num_scrambled_causal"":""4"",""num_scrambled_schematic"":""4"",""participantId"":""622E7D8A2D5041BABE739B8EFA8E3603"",""assignmentId"":""9253eca8-b747-47c0-8fd7-381bee18f0e0"",""projectId"":""9076ac92-be42-43a2-9634-8b67c7fe93a7""}","https://test12345.live/?num_scrambled_semantic=8&num_scrambled_causal=4&num_scrambled_schematic=4&participantId=622E7D8A2D5041BABE739B8EFA8E3603&assignmentId=9253eca8-b747-47c0-8fd7-381bee18f0e0&projectId=9076ac92-be42-43a2-9634-8b67c7fe93a7","622E7D8A2D5041BABE739B8EFA8E3603-2025-05-22-19-39-57","","24575","","[""<span style=\""color: red; font-size: 24px\""> NOW RECORDING</span><p>Please say out loud all the images you saw in the exact order you saw them. Try to recall as many images as you can, but remember: getting the order right is more important than the number of images you recall.</p>""]","","2",""
"","","","","","instructions","23","152766","0.0-9.0","622E7D8A2D5041BABE739B8EFA8E3603","622E7D8A2D5041BABE739B8EFA8E3603","9253eca8-b747-47c0-8fd7-381bee18f0e0","9076ac92-be42-43a2-9634-8b67c7fe93a7","{""num_scrambled_semantic"":""8"",""num_scrambled_causal"":""4"",""num_scrambled_schematic"":""4"",""participantId"":""622E7D8A2D5041BABE739B8EFA8E3603"",""assignmentId"":""9253eca8-b747-47c0-8fd7-381bee18f0e0"",""projectId"":""9076ac92-be42-43a2-9634-8b67c7fe93a7""}","https://test12345.live/?num_scrambled_semantic=8&num_scrambled_causal=4&num_scrambled_schematic=4&participantId=622E7D8A2D5041BABE739B8EFA8E3603&assignmentId=9253eca8-b747-47c0-8fd7-381bee18f0e0&projectId=9076ac92-be42-43a2-9634-8b67c7fe93a7","622E7D8A2D5041BABE739B8EFA8E3603-2025-05-22-19-39-57","[{""page_index"":0,""viewing_time"":1068}]","1069","","","","",""
"","","","","","image-button-response","24","158770","0.0-10.0-0.0","622E7D8A2D5041BABE739B8EFA8E3603","622E7D8A2D5041BABE739B8EFA8E3603","9253eca8-b747-47c0-8fd7-381bee18f0e0","9076ac92-be42-43a2-9634-8b67c7fe93a7","{""num_scrambled_semantic"":""8"",""num_scrambled_causal"":""4"",""num_scrambled_schematic"":""4"",""participantId"":""622E7D8A2D5041BABE739B8EFA8E3603"",""assignmentId"":""9253eca8-b747-47c0-8fd7-381bee18f0e0"",""projectId"":""9076ac92-be42-43a2-9634-8b67c7fe93a7""}","https://test12345.live/?num_scrambled_semantic=8&num_scrambled_causal=4&num_scrambled_schematic=4&participantId=622E7D8A2D5041BABE739B8EFA8E3603&assignmentId=9253eca8-b747-47c0-8fd7-381bee18f0e0&projectId=9076ac92-be42-43a2-9634-8b67c7fe93a7","622E7D8A2D5041BABE739B8EFA8E3603-2025-05-22-19-39-57","","null","","images/causal_sequence/dog_causal/dog_causal_0.png","null","",""
"","","","","","image-button-response","25","163276","0.0-10.0-1.0-0.0","622E7D8A2D5041BABE739B8EFA8E3603","622E7D8A2D5041BABE739B8EFA8E3603","9253eca8-b747-47c0-8fd7-381bee18f0e0","9076ac92-be42-43a2-9634-8b67c7fe93a7","{""num_scrambled_semantic"":""8"",""num_scrambled_causal"":""4"",""num_scrambled_schematic"":""4"",""participantId"":""622E7D8A2D5041BABE739B8EFA8E3603"",""assignmentId"":""9253eca8-b747-47c0-8fd7-381bee18f0e0"",""projectId"":""9076ac92-be42-43a2-9634-8b67c7fe93a7""}","https://test12345.live/?num_scrambled_semantic=8&num_scrambled_causal=4&num_scrambled_schematic=4&participantId=622E7D8A2D5041BABE739B8EFA8E3603&assignmentId=9253eca8-b747-47c0-8fd7-381bee18f0e0&projectId=9076ac92-be42-43a2-9634-8b67c7fe93a7","622E7D8A2D5041BABE739B8EFA8E3603-2025-05-22-19-39-57","","null","","images/causal_sequence/dog_causal/dog_causal_4.png","null","",""
"","","","","","image-button-response","26","166587","0.0-10.0-1.0-1.0","622E7D8A2D5041BABE739B8EFA8E3603","622E7D8A2D5041BABE739B8EFA8E3603","9253eca8-b747-47c0-8fd7-381bee18f0e0","9076ac92-be42-43a2-9634-8b67c7fe93a7","{""num_scrambled_semantic"":""8"",""num_scrambled_causal"":""4"",""num_scrambled_schematic"":""4"",""participantId"":""622E7D8A2D5041BABE739B8EFA8E3603"",""assignmentId"":""9253eca8-b747-47c0-8fd7-381bee18f0e0"",""projectId"":""9076ac92-be42-43a2-9634-8b67c7fe93a7""}","https://test12345.live/?num_scrambled_semantic=8&num_scrambled_causal=4&num_scrambled_schematic=4&participantId=622E7D8A2D5041BABE739B8EFA8E3603&assignmentId=9253eca8-b747-47c0-8fd7-381bee18f0e0&projectId=9076ac92-be42-43a2-9634-8b67c7fe93a7","622E7D8A2D5041BABE739B8EFA8E3603-2025-05-22-19-39-57","","3309","","images/causal_sequence/dog_causal/dog_causal_4.png","0","",""
"","","","","","image-button-response","27","168391","0.0-10.0-1.0-2.0","622E7D8A2D5041BABE739B8EFA8E3603","622E7D8A2D5041BABE739B8EFA8E3603","9253eca8-b747-47c0-8fd7-381bee18f0e0","9076ac92-be42-43a2-9634-8b67c7fe93a7","{""num_scrambled_semantic"":""8"",""num_scrambled_causal"":""4"",""num_scrambled_schematic"":""4"",""participantId"":""622E7D8A2D5041BABE739B8EFA8E3603"",""assignmentId"":""9253eca8-b747-47c0-8fd7-381bee18f0e0"",""projectId"":""9076ac92-be42-43a2-9634-8b67c7fe93a7""}","https://test12345.live/?num_scrambled_semantic=8&num_scrambled_causal=4&num_scrambled_schematic=4&participantId=622E7D8A2D5041BABE739B8EFA8E3603&assignmentId=9253eca8-b747-47c0-8fd7-381bee18f0e0&projectId=9076ac92-be42-43a2-9634-8b67c7fe93a7","622E7D8A2D5041BABE739B8EFA8E3603-2025-05-22-19-39-57","","null","","[]","null","",""
"","","","","","image-button-response","28","172896","0.0-10.0-1.0-0.1","622E7D8A2D5041BABE739B8EFA8E3603","622E7D8A2D5041BABE739B8EFA8E3603","9253eca8-b747-47c0-8fd7-381bee18f0e0","9076ac92-be42-43a2-9634-8b67c7fe93a7","{""num_scrambled_semantic"":""8"",""num_scrambled_causal"":""4"",""num_scrambled_schematic"":""4"",""participantId"":""622E7D8A2D5041BABE739B8EFA8E3603"",""assignmentId"":""9253eca8-b747-47c0-8fd7-381bee18f0e0"",""projectId"":""9076ac92-be42-43a2-9634-8b67c7fe93a7""}","https://test12345.live/?num_scrambled_semantic=8&num_scrambled_causal=4&num_scrambled_schematic=4&participantId=622E7D8A2D5041BABE739B8EFA8E3603&assignmentId=9253eca8-b747-47c0-8fd7-381bee18f0e0&projectId=9076ac92-be42-43a2-9634-8b67c7fe93a7","622E7D8A2D5041BABE739B8EFA8E3603-2025-05-22-19-39-57","","null","","images/causal_sequence/dog_causal/dog_causal_8.png","null","",""
"","","","","","image-button-response","29","175138","0.0-10.0-1.0-1.1","622E7D8A2D5041BABE739B8EFA8E3603","622E7D8A2D5041BABE739B8EFA8E3603","9253eca8-b747-47c0-8fd7-381bee18f0e0","9076ac92-be42-43a2-9634-8b67c7fe93a7","{""num_scrambled_semantic"":""8"",""num_scrambled_causal"":""4"",""num_scrambled_schematic"":""4"",""participantId"":""622E7D8A2D5041BABE739B8EFA8E3603"",""assignmentId"":""9253eca8-b747-47c0-8fd7-381bee18f0e0"",""projectId"":""9076ac92-be42-43a2-9634-8b67c7fe93a7""}","https://test12345.live/?num_scrambled_semantic=8&num_scrambled_causal=4&num_scrambled_schematic=4&participantId=622E7D8A2D5041BABE739B8EFA8E3603&assignmentId=9253eca8-b747-47c0-8fd7-381bee18f0e0&projectId=9076ac92-be42-43a2-9634-8b67c7fe93a7","622E7D8A2D5041BABE739B8EFA8E3603-2025-05-22-19-39-57","","2240","","images/causal_sequence/dog_causal/dog_causal_8.png","0","",""
"","","","","","image-button-response","30","176941","0.0-10.0-1.0-2.1","622E7D8A2D5041BABE739B8EFA8E3603","622E7D8A2D5041BABE739B8EFA8E3603","9253eca8-b747-47c0-8fd7-381bee18f0e0","9076ac92-be42-43a2-9634-8b67c7fe93a7","{""num_scrambled_semantic"":""8"",""num_scrambled_causal"":""4"",""num_scrambled_schematic"":""4"",""participantId"":""622E7D8A2D5041BABE739B8EFA8E3603"",""assignmentId"":""9253eca8-b747-47c0-8fd7-381bee18f0e0"",""projectId"":""9076ac92-be42-43a2-9634-8b67c7fe93a7""}","https://test12345.live/?num_scrambled_semantic=8&num_scrambled_causal=4&num_scrambled_schematic=4&participantId=622E7D8A2D5041BABE739B8EFA8E3603&assignmentId=9253eca8-b747-47c0-8fd7-381bee18f0e0&projectId=9076ac92-be42-43a2-9634-8b67c7fe93a7","622E7D8A2D5041BABE739B8EFA8E3603-2025-05-22-19-39-57","","null","","[]","null","",""
"","","","","","image-button-response","31","181444","0.0-10.0-1.0-0.2","622E7D8A2D5041BABE739B8EFA8E3603","622E7D8A2D5041BABE739B8EFA8E3603","9253eca8-b747-47c0-8fd7-381bee18f0e0","9076ac92-be42-43a2-9634-8b67c7fe93a7","{""num_scrambled_semantic"":""8"",""num_scrambled_causal"":""4"",""num_scrambled_schematic"":""4"",""participantId"":""622E7D8A2D5041BABE739B8EFA8E3603"",""assignmentId"":""9253eca8-b747-47c0-8fd7-381bee18f0e0"",""projectId"":""9076ac92-be42-43a2-9634-8b67c7fe93a7""}","https://test12345.live/?num_scrambled_semantic=8&num_scrambled_causal=4&num_scrambled_schematic=4&participantId=622E7D8A2D5041BABE739B8EFA8E3603&assignmentId=9253eca8-b747-47c0-8fd7-381bee18f0e0&projectId=9076ac92-be42-43a2-9634-8b67c7fe93a7","622E7D8A2D5041BABE739B8EFA8E3603-2025-05-22-19-39-57","","null","","images/causal_sequence/dog_causal/dog_causal_5.png","null","",""
"","","","","","image-button-response","32","184039","0.0-10.0-1.0-1.2","622E7D8A2D5041BABE739B8EFA8E3603","622E7D8A2D5041BABE739B8EFA8E3603","9253eca8-b747-47c0-8fd7-381bee18f0e0","9076ac92-be42-43a2-9634-8b67c7fe93a7","{""num_scrambled_semantic"":""8"",""num_scrambled_causal"":""4"",""num_scrambled_schematic"":""4"",""participantId"":""622E7D8A2D5041BABE739B8EFA8E3603"",""assignmentId"":""9253eca8-b747-47c0-8fd7-381bee18f0e0"",""projectId"":""9076ac92-be42-43a2-9634-8b67c7fe93a7""}","https://test12345.live/?num_scrambled_semantic=8&num_scrambled_causal=4&num_scrambled_schematic=4&participantId=622E7D8A2D5041BABE739B8EFA8E3603&assignmentId=9253eca8-b747-47c0-8fd7-381bee18f0e0&projectId=9076ac92-be42-43a2-9634-8b67c7fe93a7","622E7D8A2D5041BABE739B8EFA8E3603-2025-05-22-19-39-57","","2594","","images/causal_sequence/dog_causal/dog_causal_5.png","0","",""
"","","","","","image-button-response","33","185844","0.0-10.0-1.0-2.2","622E7D8A2D5041BABE739B8EFA8E3603","622E7D8A2D5041BABE739B8EFA8E3603","9253eca8-b747-47c0-8fd7-381bee18f0e0","9076ac92-be42-43a2-9634-8b67c7fe93a7","{""num_scrambled_semantic"":""8"",""num_scrambled_causal"":""4"",""num_scrambled_schematic"":""4"",""participantId"":""622E7D8A2D5041BABE739B8EFA8E3603"",""assignmentId"":""9253eca8-b747-47c0-8fd7-381bee18f0e0"",""projectId"":""9076ac92-be42-43a2-9634-8b67c7fe93a7""}","https://test12345.live/?num_scrambled_semantic=8&num_scrambled_causal=4&num_scrambled_schematic=4&participantId=622E7D8A2D5041BABE739B8EFA8E3603&assignmentId=9253eca8-b747-47c0-8fd7-381bee18f0e0&projectId=9076ac92-be42-43a2-9634-8b67c7fe93a7","622E7D8A2D5041BABE739B8EFA8E3603-2025-05-22-19-39-57","","null","","[]","null","",""
"","","","","","image-button-response","34","190352","0.0-10.0-1.0-0.3","622E7D8A2D5041BABE739B8EFA8E3603","622E7D8A2D5041BABE739B8EFA8E3603","9253eca8-b747-47c0-8fd7-381bee18f0e0","9076ac92-be42-43a2-9634-8b67c7fe93a7","{""num_scrambled_semantic"":""8"",""num_scrambled_causal"":""4"",""num_scrambled_schematic"":""4"",""participantId"":""622E7D8A2D5041BABE739B8EFA8E3603"",""assignmentId"":""9253eca8-b747-47c0-8fd7-381bee18f0e0"",""projectId"":""9076ac92-be42-43a2-9634-8b67c7fe93a7""}","https://test12345.live/?num_scrambled_semantic=8&num_scrambled_causal=4&num_scrambled_schematic=4&participantId=622E7D8A2D5041BABE739B8EFA8E3603&assignmentId=9253eca8-b747-47c0-8fd7-381bee18f0e0&projectId=9076ac92-be42-43a2-9634-8b67c7fe93a7","622E7D8A2D5041BABE739B8EFA8E3603-2025-05-22-19-39-57","","null","","images/causal_sequence/dog_causal/dog_causal_ten.png","null","",""
"","","","","","image-button-response","35","191689","0.0-10.0-1.0-1.3","622E7D8A2D5041BABE739B8EFA8E3603","622E7D8A2D5041BABE739B8EFA8E3603","9253eca8-b747-47c0-8fd7-381bee18f0e0","9076ac92-be42-43a2-9634-8b67c7fe93a7","{""num_scrambled_semantic"":""8"",""num_scrambled_causal"":""4"",""num_scrambled_schematic"":""4"",""participantId"":""622E7D8A2D5041BABE739B8EFA8E3603"",""assignmentId"":""9253eca8-b747-47c0-8fd7-381bee18f0e0"",""projectId"":""9076ac92-be42-43a2-9634-8b67c7fe93a7""}","https://test12345.live/?num_scrambled_semantic=8&num_scrambled_causal=4&num_scrambled_schematic=4&participantId=622E7D8A2D5041BABE739B8EFA8E3603&assignmentId=9253eca8-b747-47c0-8fd7-381bee18f0e0&projectId=9076ac92-be42-43a2-9634-8b67c7fe93a7","622E7D8A2D5041BABE739B8EFA8E3603-2025-05-22-19-39-57","","1336","","images/causal_sequence/dog_causal/dog_causal_ten.png","0","",""
"","","","","","image-button-response","36","193495","0.0-10.0-1.0-2.3","622E7D8A2D5041BABE739B8EFA8E3603","622E7D8A2D5041BABE739B8EFA8E3603","9253eca8-b747-47c0-8fd7-381bee18f0e0","9076ac92-be42-43a2-9634-8b67c7fe93a7","{""num_scrambled_semantic"":""8"",""num_scrambled_causal"":""4"",""num_scrambled_schematic"":""4"",""participantId"":""622E7D8A2D5041BABE739B8EFA8E3603"",""assignmentId"":""9253eca8-b747-47c0-8fd7-381bee18f0e0"",""projectId"":""9076ac92-be42-43a2-9634-8b67c7fe93a7""}","https://test12345.live/?num_scrambled_semantic=8&num_scrambled_causal=4&num_scrambled_schematic=4&participantId=622E7D8A2D5041BABE739B8EFA8E3603&assignmentId=9253eca8-b747-47c0-8fd7-381bee18f0e0&projectId=9076ac92-be42-43a2-9634-8b67c7fe93a7","622E7D8A2D5041BABE739B8EFA8E3603-2025-05-22-19-39-57","","null","","[]","null","",""
"","","","","","image-button-response","37","198051","0.0-10.0-1.0-0.4","622E7D8A2D5041BABE739B8EFA8E3603","622E7D8A2D5041BABE739B8EFA8E3603","9253eca8-b747-47c0-8fd7-381bee18f0e0","9076ac92-be42-43a2-9634-8b67c7fe93a7","{""num_scrambled_semantic"":""8"",""num_scrambled_causal"":""4"",""num_scrambled_schematic"":""4"",""participantId"":""622E7D8A2D5041BABE739B8EFA8E3603"",""assignmentId"":""9253eca8-b747-47c0-8fd7-381bee18f0e0"",""projectId"":""9076ac92-be42-43a2-9634-8b67c7fe93a7""}","https://test12345.live/?num_scrambled_semantic=8&num_scrambled_causal=4&num_scrambled_schematic=4&participantId=622E7D8A2D5041BABE739B8EFA8E3603&assignmentId=9253eca8-b747-47c0-8fd7-381bee18f0e0&projectId=9076ac92-be42-43a2-9634-8b67c7fe93a7","622E7D8A2D5041BABE739B8EFA8E3603-2025-05-22-19-39-57","","null","","images/causal_sequence/dog_causal/dog_causal_6.png","null","",""
"","","","","","image-button-response","38","199424","0.0-10.0-1.0-1.4","622E7D8A2D5041BABE739B8EFA8E3603","622E7D8A2D5041BABE739B8EFA8E3603","9253eca8-b747-47c0-8fd7-381bee18f0e0","9076ac92-be42-43a2-9634-8b67c7fe93a7","{""num_scrambled_semantic"":""8"",""num_scrambled_causal"":""4"",""num_scrambled_schematic"":""4"",""participantId"":""622E7D8A2D5041BABE739B8EFA8E3603"",""assignmentId"":""9253eca8-b747-47c0-8fd7-381bee18f0e0"",""projectId"":""9076ac92-be42-43a2-9634-8b67c7fe93a7""}","https://test12345.live/?num_scrambled_semantic=8&num_scrambled_causal=4&num_scrambled_schematic=4&participantId=622E7D8A2D5041BABE739B8EFA8E3603&assignmentId=9253eca8-b747-47c0-8fd7-381bee18f0e0&projectId=9076ac92-be42-43a2-9634-8b67c7fe93a7","622E7D8A2D5041BABE739B8EFA8E3603-2025-05-22-19-39-57","","1359","","images/causal_sequence/dog_causal/dog_causal_6.png","0","",""
"","","","","","image-button-response","39","201232","0.0-10.0-1.0-2.4","622E7D8A2D5041BABE739B8EFA8E3603","622E7D8A2D5041BABE739B8EFA8E3603","9253eca8-b747-47c0-8fd7-381bee18f0e0","9076ac92-be42-43a2-9634-8b67c7fe93a7","{""num_scrambled_semantic"":""8"",""num_scrambled_causal"":""4"",""num_scrambled_schematic"":""4"",""participantId"":""622E7D8A2D5041BABE739B8EFA8E3603"",""assignmentId"":""9253eca8-b747-47c0-8fd7-381bee18f0e0"",""projectId"":""9076ac92-be42-43a2-9634-8b67c7fe93a7""}","https://test12345.live/?num_scrambled_semantic=8&num_scrambled_causal=4&num_scrambled_schematic=4&participantId=622E7D8A2D5041BABE739B8EFA8E3603&assignmentId=9253eca8-b747-47c0-8fd7-381bee18f0e0&projectId=9076ac92-be42-43a2-9634-8b67c7fe93a7","622E7D8A2D5041BABE739B8EFA8E3603-2025-05-22-19-39-57","","null","","[]","null","",""
"","","","","","image-button-response","40","205738","0.0-10.0-1.0-0.5","622E7D8A2D5041BABE739B8EFA8E3603","622E7D8A2D5041BABE739B8EFA8E3603","9253eca8-b747-47c0-8fd7-381bee18f0e0","9076ac92-be42-43a2-9634-8b67c7fe93a7","{""num_scrambled_semantic"":""8"",""num_scrambled_causal"":""4"",""num_scrambled_schematic"":""4"",""participantId"":""622E7D8A2D5041BABE739B8EFA8E3603"",""assignmentId"":""9253eca8-b747-47c0-8fd7-381bee18f0e0"",""projectId"":""9076ac92-be42-43a2-9634-8b67c7fe93a7""}","https://test12345.live/?num_scrambled_semantic=8&num_scrambled_causal=4&num_scrambled_schematic=4&participantId=622E7D8A2D5041BABE739B8EFA8E3603&assignmentId=9253eca8-b747-47c0-8fd7-381bee18f0e0&projectId=9076ac92-be42-43a2-9634-8b67c7fe93a7","622E7D8A2D5041BABE739B8EFA8E3603-2025-05-22-19-39-57","","null","","images/causal_sequence/dog_causal/dog_causal_3.png","null","",""
"","","","","","image-button-response","41","207157","0.0-10.0-1.0-1.5","622E7D8A2D5041BABE739B8EFA8E3603","622E7D8A2D5041BABE739B8EFA8E3603","9253eca8-b747-47c0-8fd7-381bee18f0e0","9076ac92-be42-43a2-9634-8b67c7fe93a7","{""num_scrambled_semantic"":""8"",""num_scrambled_causal"":""4"",""num_scrambled_schematic"":""4"",""participantId"":""622E7D8A2D5041BABE739B8EFA8E3603"",""assignmentId"":""9253eca8-b747-47c0-8fd7-381bee18f0e0"",""projectId"":""9076ac92-be42-43a2-9634-8b67c7fe93a7""}","https://test12345.live/?num_scrambled_semantic=8&num_scrambled_causal=4&num_scrambled_schematic=4&participantId=622E7D8A2D5041BABE739B8EFA8E3603&assignmentId=9253eca8-b747-47c0-8fd7-381bee18f0e0&projectId=9076ac92-be42-43a2-9634-8b67c7fe93a7","622E7D8A2D5041BABE739B8EFA8E3603-2025-05-22-19-39-57","","1417","","images/causal_sequence/dog_causal/dog_causal_3.png","0","",""
"","","","","","image-button-response","42","208962","0.0-10.0-1.0-2.5","622E7D8A2D5041BABE739B8EFA8E3603","622E7D8A2D5041BABE739B8EFA8E3603","9253eca8-b747-47c0-8fd7-381bee18f0e0","9076ac92-be42-43a2-9634-8b67c7fe93a7","{""num_scrambled_semantic"":""8"",""num_scrambled_causal"":""4"",""num_scrambled_schematic"":""4"",""participantId"":""622E7D8A2D5041BABE739B8EFA8E3603"",""assignmentId"":""9253eca8-b747-47c0-8fd7-381bee18f0e0"",""projectId"":""9076ac92-be42-43a2-9634-8b67c7fe93a7""}","https://test12345.live/?num_scrambled_semantic=8&num_scrambled_causal=4&num_scrambled_schematic=4&participantId=622E7D8A2D5041BABE739B8EFA8E3603&assignmentId=9253eca8-b747-47c0-8fd7-381bee18f0e0&projectId=9076ac92-be42-43a2-9634-8b67c7fe93a7","622E7D8A2D5041BABE739B8EFA8E3603-2025-05-22-19-39-57","","null","","[]","null","",""
"","","","","","image-button-response","43","213463","0.0-10.0-1.0-0.6","622E7D8A2D5041BABE739B8EFA8E3603","622E7D8A2D5041BABE739B8EFA8E3603","9253eca8-b747-47c0-8fd7-381bee18f0e0","9076ac92-be42-43a2-9634-8b67c7fe93a7","{""num_scrambled_semantic"":""8"",""num_scrambled_causal"":""4"",""num_scrambled_schematic"":""4"",""participantId"":""622E7D8A2D5041BABE739B8EFA8E3603"",""assignmentId"":""9253eca8-b747-47c0-8fd7-381bee18f0e0"",""projectId"":""9076ac92-be42-43a2-9634-8b67c7fe93a7""}","https://test12345.live/?num_scrambled_semantic=8&num_scrambled_causal=4&num_scrambled_schematic=4&participantId=622E7D8A2D5041BABE739B8EFA8E3603&assignmentId=9253eca8-b747-47c0-8fd7-381bee18f0e0&projectId=9076ac92-be42-43a2-9634-8b67c7fe93a7","622E7D8A2D5041BABE739B8EFA8E3603-2025-05-22-19-39-57","","null","","images/causal_sequence/dog_causal/dog_causal_7.png","null","",""
"","","","","","image-button-response","44","215326","0.0-10.0-1.0-1.6","622E7D8A2D5041BABE739B8EFA8E3603","622E7D8A2D5041BABE739B8EFA8E3603","9253eca8-b747-47c0-8fd7-381bee18f0e0","9076ac92-be42-43a2-9634-8b67c7fe93a7","{""num_scrambled_semantic"":""8"",""num_scrambled_causal"":""4"",""num_scrambled_schematic"":""4"",""participantId"":""622E7D8A2D5041BABE739B8EFA8E3603"",""assignmentId"":""9253eca8-b747-47c0-8fd7-381bee18f0e0"",""projectId"":""9076ac92-be42-43a2-9634-8b67c7fe93a7""}","https://test12345.live/?num_scrambled_semantic=8&num_scrambled_causal=4&num_scrambled_schematic=4&participantId=622E7D8A2D5041BABE739B8EFA8E3603&assignmentId=9253eca8-b747-47c0-8fd7-381bee18f0e0&projectId=9076ac92-be42-43a2-9634-8b67c7fe93a7","622E7D8A2D5041BABE739B8EFA8E3603-2025-05-22-19-39-57","","1861","","images/causal_sequence/dog_causal/dog_causal_7.png","0","",""
"","","","","","image-button-response","45","217132","0.0-10.0-1.0-2.6","622E7D8A2D5041BABE739B8EFA8E3603","622E7D8A2D5041BABE739B8EFA8E3603","9253eca8-b747-47c0-8fd7-381bee18f0e0","9076ac92-be42-43a2-9634-8b67c7fe93a7","{""num_scrambled_semantic"":""8"",""num_scrambled_causal"":""4"",""num_scrambled_schematic"":""4"",""participantId"":""622E7D8A2D5041BABE739B8EFA8E3603"",""assignmentId"":""9253eca8-b747-47c0-8fd7-381bee18f0e0"",""projectId"":""9076ac92-be42-43a2-9634-8b67c7fe93a7""}","https://test12345.live/?num_scrambled_semantic=8&num_scrambled_causal=4&num_scrambled_schematic=4&participantId=622E7D8A2D5041BABE739B8EFA8E3603&assignmentId=9253eca8-b747-47c0-8fd7-381bee18f0e0&projectId=9076ac92-be42-43a2-9634-8b67c7fe93a7","622E7D8A2D5041BABE739B8EFA8E3603-2025-05-22-19-39-57","","null","","[]","null","",""
"","","","","","image-button-response","46","221639","0.0-10.0-1.0-0.7","622E7D8A2D5041BABE739B8EFA8E3603","622E7D8A2D5041BABE739B8EFA8E3603","9253eca8-b747-47c0-8fd7-381bee18f0e0","9076ac92-be42-43a2-9634-8b67c7fe93a7","{""num_scrambled_semantic"":""8"",""num_scrambled_causal"":""4"",""num_scrambled_schematic"":""4"",""participantId"":""622E7D8A2D5041BABE739B8EFA8E3603"",""assignmentId"":""9253eca8-b747-47c0-8fd7-381bee18f0e0"",""projectId"":""9076ac92-be42-43a2-9634-8b67c7fe93a7""}","https://test12345.live/?num_scrambled_semantic=8&num_scrambled_causal=4&num_scrambled_schematic=4&participantId=622E7D8A2D5041BABE739B8EFA8E3603&assignmentId=9253eca8-b747-47c0-8fd7-381bee18f0e0&projectId=9076ac92-be42-43a2-9634-8b67c7fe93a7","622E7D8A2D5041BABE739B8EFA8E3603-2025-05-22-19-39-57","","null","","images/causal_sequence/dog_causal/dog_causal_9.png","null","",""
"","","","","","image-button-response","47","222809","0.0-10.0-1.0-1.7","622E7D8A2D5041BABE739B8EFA8E3603","622E7D8A2D5041BABE739B8EFA8E3603","9253eca8-b747-47c0-8fd7-381bee18f0e0","9076ac92-be42-43a2-9634-8b67c7fe93a7","{""num_scrambled_semantic"":""8"",""num_scrambled_causal"":""4"",""num_scrambled_schematic"":""4"",""participantId"":""622E7D8A2D5041BABE739B8EFA8E3603"",""assignmentId"":""9253eca8-b747-47c0-8fd7-381bee18f0e0"",""projectId"":""9076ac92-be42-43a2-9634-8b67c7fe93a7""}","https://test12345.live/?num_scrambled_semantic=8&num_scrambled_causal=4&num_scrambled_schematic=4&participantId=622E7D8A2D5041BABE739B8EFA8E3603&assignmentId=9253eca8-b747-47c0-8fd7-381bee18f0e0&projectId=9076ac92-be42-43a2-9634-8b67c7fe93a7","622E7D8A2D5041BABE739B8EFA8E3603-2025-05-22-19-39-57","","1168","","images/causal_sequence/dog_causal/dog_causal_9.png","0","",""
"","","","","","image-button-response","48","224613","0.0-10.0-1.0-2.7","622E7D8A2D5041BABE739B8EFA8E3603","622E7D8A2D5041BABE739B8EFA8E3603","9253eca8-b747-47c0-8fd7-381bee18f0e0","9076ac92-be42-43a2-9634-8b67c7fe93a7","{""num_scrambled_semantic"":""8"",""num_scrambled_causal"":""4"",""num_scrambled_schematic"":""4"",""participantId"":""622E7D8A2D5041BABE739B8EFA8E3603"",""assignmentId"":""9253eca8-b747-47c0-8fd7-381bee18f0e0"",""projectId"":""9076ac92-be42-43a2-9634-8b67c7fe93a7""}","https://test12345.live/?num_scrambled_semantic=8&num_scrambled_causal=4&num_scrambled_schematic=4&participantId=622E7D8A2D5041BABE739B8EFA8E3603&assignmentId=9253eca8-b747-47c0-8fd7-381bee18f0e0&projectId=9076ac92-be42-43a2-9634-8b67c7fe93a7","622E7D8A2D5041BABE739B8EFA8E3603-2025-05-22-19-39-57","","null","","[]","null","",""
"","","","","","image-button-response","49","229116","0.0-10.0-1.0-0.8","622E7D8A2D5041BABE739B8EFA8E3603","622E7D8A2D5041BABE739B8EFA8E3603","9253eca8-b747-47c0-8fd7-381bee18f0e0","9076ac92-be42-43a2-9634-8b67c7fe93a7","{""num_scrambled_semantic"":""8"",""num_scrambled_causal"":""4"",""num_scrambled_schematic"":""4"",""participantId"":""622E7D8A2D5041BABE739B8EFA8E3603"",""assignmentId"":""9253eca8-b747-47c0-8fd7-381bee18f0e0"",""projectId"":""9076ac92-be42-43a2-9634-8b67c7fe93a7""}","https://test12345.live/?num_scrambled_semantic=8&num_scrambled_causal=4&num_scrambled_schematic=4&participantId=622E7D8A2D5041BABE739B8EFA8E3603&assignmentId=9253eca8-b747-47c0-8fd7-381bee18f0e0&projectId=9076ac92-be42-43a2-9634-8b67c7fe93a7","622E7D8A2D5041BABE739B8EFA8E3603-2025-05-22-19-39-57","","null","","images/causal_sequence/dog_causal/dog_causal_1.png","null","",""
"","","","","","image-button-response","50","230440","0.0-10.0-1.0-1.8","622E7D8A2D5041BABE739B8EFA8E3603","622E7D8A2D5041BABE739B8EFA8E3603","9253eca8-b747-47c0-8fd7-381bee18f0e0","9076ac92-be42-43a2-9634-8b67c7fe93a7","{""num_scrambled_semantic"":""8"",""num_scrambled_causal"":""4"",""num_scrambled_schematic"":""4"",""participantId"":""622E7D8A2D5041BABE739B8EFA8E3603"",""assignmentId"":""9253eca8-b747-47c0-8fd7-381bee18f0e0"",""projectId"":""9076ac92-be42-43a2-9634-8b67c7fe93a7""}","https://test12345.live/?num_scrambled_semantic=8&num_scrambled_causal=4&num_scrambled_schematic=4&participantId=622E7D8A2D5041BABE739B8EFA8E3603&assignmentId=9253eca8-b747-47c0-8fd7-381bee18f0e0&projectId=9076ac92-be42-43a2-9634-8b67c7fe93a7","622E7D8A2D5041BABE739B8EFA8E3603-2025-05-22-19-39-57","","1322","","images/causal_sequence/dog_causal/dog_causal_1.png","0","",""
"","","","","","image-button-response","51","232243","0.0-10.0-1.0-2.8","622E7D8A2D5041BABE739B8EFA8E3603","622E7D8A2D5041BABE739B8EFA8E3603","9253eca8-b747-47c0-8fd7-381bee18f0e0","9076ac92-be42-43a2-9634-8b67c7fe93a7","{""num_scrambled_semantic"":""8"",""num_scrambled_causal"":""4"",""num_scrambled_schematic"":""4"",""participantId"":""622E7D8A2D5041BABE739B8EFA8E3603"",""assignmentId"":""9253eca8-b747-47c0-8fd7-381bee18f0e0"",""projectId"":""9076ac92-be42-43a2-9634-8b67c7fe93a7""}","https://test12345.live/?num_scrambled_semantic=8&num_scrambled_causal=4&num_scrambled_schematic=4&participantId=622E7D8A2D5041BABE739B8EFA8E3603&assignmentId=9253eca8-b747-47c0-8fd7-381bee18f0e0&projectId=9076ac92-be42-43a2-9634-8b67c7fe93a7","622E7D8A2D5041BABE739B8EFA8E3603-2025-05-22-19-39-57","","null","","[]","null","",""
"","","","","","image-button-response","52","236749","0.0-10.0-1.0-0.9","622E7D8A2D5041BABE739B8EFA8E3603","622E7D8A2D5041BABE739B8EFA8E3603","9253eca8-b747-47c0-8fd7-381bee18f0e0","9076ac92-be42-43a2-9634-8b67c7fe93a7","{""num_scrambled_semantic"":""8"",""num_scrambled_causal"":""4"",""num_scrambled_schematic"":""4"",""participantId"":""622E7D8A2D5041BABE739B8EFA8E3603"",""assignmentId"":""9253eca8-b747-47c0-8fd7-381bee18f0e0"",""projectId"":""9076ac92-be42-43a2-9634-8b67c7fe93a7""}","https://test12345.live/?num_scrambled_semantic=8&num_scrambled_causal=4&num_scrambled_schematic=4&participantId=622E7D8A2D5041BABE739B8EFA8E3603&assignmentId=9253eca8-b747-47c0-8fd7-381bee18f0e0&projectId=9076ac92-be42-43a2-9634-8b67c7fe93a7","622E7D8A2D5041BABE739B8EFA8E3603-2025-05-22-19-39-57","","null","","images/causal_sequence/dog_causal/dog_causal_2.png","null","",""
"","","","","","image-button-response","53","237613","0.0-10.0-1.0-1.9","622E7D8A2D5041BABE739B8EFA8E3603","622E7D8A2D5041BABE739B8EFA8E3603","9253eca8-b747-47c0-8fd7-381bee18f0e0","9076ac92-be42-43a2-9634-8b67c7fe93a7","{""num_scrambled_semantic"":""8"",""num_scrambled_causal"":""4"",""num_scrambled_schematic"":""4"",""participantId"":""622E7D8A2D5041BABE739B8EFA8E3603"",""assignmentId"":""9253eca8-b747-47c0-8fd7-381bee18f0e0"",""projectId"":""9076ac92-be42-43a2-9634-8b67c7fe93a7""}","https://test12345.live/?num_scrambled_semantic=8&num_scrambled_causal=4&num_scrambled_schematic=4&participantId=622E7D8A2D5041BABE739B8EFA8E3603&assignmentId=9253eca8-b747-47c0-8fd7-381bee18f0e0&projectId=9076ac92-be42-43a2-9634-8b67c7fe93a7","622E7D8A2D5041BABE739B8EFA8E3603-2025-05-22-19-39-57","","862","","images/causal_sequence/dog_causal/dog_causal_2.png","0","",""
"","","","","","image-button-response","54","239420","0.0-10.0-1.0-2.9","622E7D8A2D5041BABE739B8EFA8E3603","622E7D8A2D5041BABE739B8EFA8E3603","9253eca8-b747-47c0-8fd7-381bee18f0e0","9076ac92-be42-43a2-9634-8b67c7fe93a7","{""num_scrambled_semantic"":""8"",""num_scrambled_causal"":""4"",""num_scrambled_schematic"":""4"",""participantId"":""622E7D8A2D5041BABE739B8EFA8E3603"",""assignmentId"":""9253eca8-b747-47c0-8fd7-381bee18f0e0"",""projectId"":""9076ac92-be42-43a2-9634-8b67c7fe93a7""}","https://test12345.live/?num_scrambled_semantic=8&num_scrambled_causal=4&num_scrambled_schematic=4&participantId=622E7D8A2D5041BABE739B8EFA8E3603&assignmentId=9253eca8-b747-47c0-8fd7-381bee18f0e0&projectId=9076ac92-be42-43a2-9634-8b67c7fe93a7","622E7D8A2D5041BABE739B8EFA8E3603-2025-05-22-19-39-57","","null","","[]","null","",""
"","","","","","html-audio-response","55","280232","0.0-11.0","622E7D8A2D5041BABE739B8EFA8E3603","622E7D8A2D5041BABE739B8EFA8E3603","9253eca8-b747-47c0-8fd7-381bee18f0e0","9076ac92-be42-43a2-9634-8b67c7fe93a7","{""num_scrambled_semantic"":""8"",""num_scrambled_causal"":""4"",""num_scrambled_schematic"":""4"",""participantId"":""622E7D8A2D5041BABE739B8EFA8E3603"",""assignmentId"":""9253eca8-b747-47c0-8fd7-381bee18f0e0"",""projectId"":""9076ac92-be42-43a2-9634-8b67c7fe93a7""}","https://test12345.live/?num_scrambled_semantic=8&num_scrambled_causal=4&num_scrambled_schematic=4&participantId=622E7D8A2D5041BABE739B8EFA8E3603&assignmentId=9253eca8-b747-47c0-8fd7-381bee18f0e0&projectId=9076ac92-be42-43a2-9634-8b67c7fe93a7","622E7D8A2D5041BABE739B8EFA8E3603-2025-05-22-19-39-57","","39815","","[""<span style=\""color: red; font-size: 24px\""> NOW RECORDING</span><p>Please say out loud all the images you saw, in the exact order you saw them. Try to recall as many images as you can, but remember: getting the order right is more important than the number of images you recall.</p>""]","","5","dog_causal"
"","","","","","image-button-response","56","286245","0.0-12.0-0.0","622E7D8A2D5041BABE739B8EFA8E3603","622E7D8A2D5041BABE739B8EFA8E3603","9253eca8-b747-47c0-8fd7-381bee18f0e0","9076ac92-be42-43a2-9634-8b67c7fe93a7","{""num_scrambled_semantic"":""8"",""num_scrambled_causal"":""4"",""num_scrambled_schematic"":""4"",""participantId"":""622E7D8A2D5041BABE739B8EFA8E3603"",""assignmentId"":""9253eca8-b747-47c0-8fd7-381bee18f0e0"",""projectId"":""9076ac92-be42-43a2-9634-8b67c7fe93a7""}","https://test12345.live/?num_scrambled_semantic=8&num_scrambled_causal=4&num_scrambled_schematic=4&participantId=622E7D8A2D5041BABE739B8EFA8E3603&assignmentId=9253eca8-b747-47c0-8fd7-381bee18f0e0&projectId=9076ac92-be42-43a2-9634-8b67c7fe93a7","622E7D8A2D5041BABE739B8EFA8E3603-2025-05-22-19-39-57","","null","","images/schematic_sequence/hotel_scheme/hotel_scheme_0.png","null","",""
"","","","","","image-button-response","57","290751","0.0-12.0-1.0-0.0","622E7D8A2D5041BABE739B8EFA8E3603","622E7D8A2D5041BABE739B8EFA8E3603","9253eca8-b747-47c0-8fd7-381bee18f0e0","9076ac92-be42-43a2-9634-8b67c7fe93a7","{""num_scrambled_semantic"":""8"",""num_scrambled_causal"":""4"",""num_scrambled_schematic"":""4"",""participantId"":""622E7D8A2D5041BABE739B8EFA8E3603"",""assignmentId"":""9253eca8-b747-47c0-8fd7-381bee18f0e0"",""projectId"":""9076ac92-be42-43a2-9634-8b67c7fe93a7""}","https://test12345.live/?num_scrambled_semantic=8&num_scrambled_causal=4&num_scrambled_schematic=4&participantId=622E7D8A2D5041BABE739B8EFA8E3603&assignmentId=9253eca8-b747-47c0-8fd7-381bee18f0e0&projectId=9076ac92-be42-43a2-9634-8b67c7fe93a7","622E7D8A2D5041BABE739B8EFA8E3603-2025-05-22-19-39-57","","null","","images/schematic_sequence/hotel_scheme/hotel_scheme_1.png","null","",""
"","","","","","image-button-response","58","293881","0.0-12.0-1.0-1.0","622E7D8A2D5041BABE739B8EFA8E3603","622E7D8A2D5041BABE739B8EFA8E3603","9253eca8-b747-47c0-8fd7-381bee18f0e0","9076ac92-be42-43a2-9634-8b67c7fe93a7","{""num_scrambled_semantic"":""8"",""num_scrambled_causal"":""4"",""num_scrambled_schematic"":""4"",""participantId"":""622E7D8A2D5041BABE739B8EFA8E3603"",""assignmentId"":""9253eca8-b747-47c0-8fd7-381bee18f0e0"",""projectId"":""9076ac92-be42-43a2-9634-8b67c7fe93a7""}","https://test12345.live/?num_scrambled_semantic=8&num_scrambled_causal=4&num_scrambled_schematic=4&participantId=622E7D8A2D5041BABE739B8EFA8E3603&assignmentId=9253eca8-b747-47c0-8fd7-381bee18f0e0&projectId=9076ac92-be42-43a2-9634-8b67c7fe93a7","622E7D8A2D5041BABE739B8EFA8E3603-2025-05-22-19-39-57","","3127","","images/schematic_sequence/hotel_scheme/hotel_scheme_1.png","1","",""
"","","","","","image-button-response","59","295684","0.0-12.0-1.0-2.0","622E7D8A2D5041BABE739B8EFA8E3603","622E7D8A2D5041BABE739B8EFA8E3603","9253eca8-b747-47c0-8fd7-381bee18f0e0","9076ac92-be42-43a2-9634-8b67c7fe93a7","{""num_scrambled_semantic"":""8"",""num_scrambled_causal"":""4"",""num_scrambled_schematic"":""4"",""participantId"":""622E7D8A2D5041BABE739B8EFA8E3603"",""assignmentId"":""9253eca8-b747-47c0-8fd7-381bee18f0e0"",""projectId"":""9076ac92-be42-43a2-9634-8b67c7fe93a7""}","https://test12345.live/?num_scrambled_semantic=8&num_scrambled_causal=4&num_scrambled_schematic=4&participantId=622E7D8A2D5041BABE739B8EFA8E3603&assignmentId=9253eca8-b747-47c0-8fd7-381bee18f0e0&projectId=9076ac92-be42-43a2-9634-8b67c7fe93a7","622E7D8A2D5041BABE739B8EFA8E3603-2025-05-22-19-39-57","","null","","[]","null","",""
"","","","","","image-button-response","60","300190","0.0-12.0-1.0-0.1","622E7D8A2D5041BABE739B8EFA8E3603","622E7D8A2D5041BABE739B8EFA8E3603","9253eca8-b747-47c0-8fd7-381bee18f0e0","9076ac92-be42-43a2-9634-8b67c7fe93a7","{""num_scrambled_semantic"":""8"",""num_scrambled_causal"":""4"",""num_scrambled_schematic"":""4"",""participantId"":""622E7D8A2D5041BABE739B8EFA8E3603"",""assignmentId"":""9253eca8-b747-47c0-8fd7-381bee18f0e0"",""projectId"":""9076ac92-be42-43a2-9634-8b67c7fe93a7""}","https://test12345.live/?num_scrambled_semantic=8&num_scrambled_causal=4&num_scrambled_schematic=4&participantId=622E7D8A2D5041BABE739B8EFA8E3603&assignmentId=9253eca8-b747-47c0-8fd7-381bee18f0e0&projectId=9076ac92-be42-43a2-9634-8b67c7fe93a7","622E7D8A2D5041BABE739B8EFA8E3603-2025-05-22-19-39-57","","null","","images/schematic_sequence/hotel_scheme/hotel_scheme_4.png","null","",""
"","","","","","image-button-response","61","302350","0.0-12.0-1.0-1.1","622E7D8A2D5041BABE739B8EFA8E3603","622E7D8A2D5041BABE739B8EFA8E3603","9253eca8-b747-47c0-8fd7-381bee18f0e0","9076ac92-be42-43a2-9634-8b67c7fe93a7","{""num_scrambled_semantic"":""8"",""num_scrambled_causal"":""4"",""num_scrambled_schematic"":""4"",""participantId"":""622E7D8A2D5041BABE739B8EFA8E3603"",""assignmentId"":""9253eca8-b747-47c0-8fd7-381bee18f0e0"",""projectId"":""9076ac92-be42-43a2-9634-8b67c7fe93a7""}","https://test12345.live/?num_scrambled_semantic=8&num_scrambled_causal=4&num_scrambled_schematic=4&participantId=622E7D8A2D5041BABE739B8EFA8E3603&assignmentId=9253eca8-b747-47c0-8fd7-381bee18f0e0&projectId=9076ac92-be42-43a2-9634-8b67c7fe93a7","622E7D8A2D5041BABE739B8EFA8E3603-2025-05-22-19-39-57","","2158","","images/schematic_sequence/hotel_scheme/hotel_scheme_4.png","1","",""
"","","","","","image-button-response","62","304157","0.0-12.0-1.0-2.1","622E7D8A2D5041BABE739B8EFA8E3603","622E7D8A2D5041BABE739B8EFA8E3603","9253eca8-b747-47c0-8fd7-381bee18f0e0","9076ac92-be42-43a2-9634-8b67c7fe93a7","{""num_scrambled_semantic"":""8"",""num_scrambled_causal"":""4"",""num_scrambled_schematic"":""4"",""participantId"":""622E7D8A2D5041BABE739B8EFA8E3603"",""assignmentId"":""9253eca8-b747-47c0-8fd7-381bee18f0e0"",""projectId"":""9076ac92-be42-43a2-9634-8b67c7fe93a7""}","https://test12345.live/?num_scrambled_semantic=8&num_scrambled_causal=4&num_scrambled_schematic=4&participantId=622E7D8A2D5041BABE739B8EFA8E3603&assignmentId=9253eca8-b747-47c0-8fd7-381bee18f0e0&projectId=9076ac92-be42-43a2-9634-8b67c7fe93a7","622E7D8A2D5041BABE739B8EFA8E3603-2025-05-22-19-39-57","","null","","[]","null","",""
"","","","","","image-button-response","63","308661","0.0-12.0-1.0-0.2","622E7D8A2D5041BABE739B8EFA8E3603","622E7D8A2D5041BABE739B8EFA8E3603","9253eca8-b747-47c0-8fd7-381bee18f0e0","9076ac92-be42-43a2-9634-8b67c7fe93a7","{""num_scrambled_semantic"":""8"",""num_scrambled_causal"":""4"",""num_scrambled_schematic"":""4"",""participantId"":""622E7D8A2D5041BABE739B8EFA8E3603"",""assignmentId"":""9253eca8-b747-47c0-8fd7-381bee18f0e0"",""projectId"":""9076ac92-be42-43a2-9634-8b67c7fe93a7""}","https://test12345.live/?num_scrambled_semantic=8&num_scrambled_causal=4&num_scrambled_schematic=4&participantId=622E7D8A2D5041BABE739B8EFA8E3603&assignmentId=9253eca8-b747-47c0-8fd7-381bee18f0e0&projectId=9076ac92-be42-43a2-9634-8b67c7fe93a7","622E7D8A2D5041BABE739B8EFA8E3603-2025-05-22-19-39-57","","null","","images/schematic_sequence/hotel_scheme/hotel_scheme_9.png","null","",""
"","","","","","image-button-response","64","311700","0.0-12.0-1.0-1.2","622E7D8A2D5041BABE739B8EFA8E3603","622E7D8A2D5041BABE739B8EFA8E3603","9253eca8-b747-47c0-8fd7-381bee18f0e0","9076ac92-be42-43a2-9634-8b67c7fe93a7","{""num_scrambled_semantic"":""8"",""num_scrambled_causal"":""4"",""num_scrambled_schematic"":""4"",""participantId"":""622E7D8A2D5041BABE739B8EFA8E3603"",""assignmentId"":""9253eca8-b747-47c0-8fd7-381bee18f0e0"",""projectId"":""9076ac92-be42-43a2-9634-8b67c7fe93a7""}","https://test12345.live/?num_scrambled_semantic=8&num_scrambled_causal=4&num_scrambled_schematic=4&participantId=622E7D8A2D5041BABE739B8EFA8E3603&assignmentId=9253eca8-b747-47c0-8fd7-381bee18f0e0&projectId=9076ac92-be42-43a2-9634-8b67c7fe93a7","622E7D8A2D5041BABE739B8EFA8E3603-2025-05-22-19-39-57","","3038","","images/schematic_sequence/hotel_scheme/hotel_scheme_9.png","1","",""
"","","","","","image-button-response","65","313505","0.0-12.0-1.0-2.2","622E7D8A2D5041BABE739B8EFA8E3603","622E7D8A2D5041BABE739B8EFA8E3603","9253eca8-b747-47c0-8fd7-381bee18f0e0","9076ac92-be42-43a2-9634-8b67c7fe93a7","{""num_scrambled_semantic"":""8"",""num_scrambled_causal"":""4"",""num_scrambled_schematic"":""4"",""participantId"":""622E7D8A2D5041BABE739B8EFA8E3603"",""assignmentId"":""9253eca8-b747-47c0-8fd7-381bee18f0e0"",""projectId"":""9076ac92-be42-43a2-9634-8b67c7fe93a7""}","https://test12345.live/?num_scrambled_semantic=8&num_scrambled_causal=4&num_scrambled_schematic=4&participantId=622E7D8A2D5041BABE739B8EFA8E3603&assignmentId=9253eca8-b747-47c0-8fd7-381bee18f0e0&projectId=9076ac92-be42-43a2-9634-8b67c7fe93a7","622E7D8A2D5041BABE739B8EFA8E3603-2025-05-22-19-39-57","","null","","[]","null","",""
"","","","","","image-button-response","66","318023","0.0-12.0-1.0-0.3","622E7D8A2D5041BABE739B8EFA8E3603","622E7D8A2D5041BABE739B8EFA8E3603","9253eca8-b747-47c0-8fd7-381bee18f0e0","9076ac92-be42-43a2-9634-8b67c7fe93a7","{""num_scrambled_semantic"":""8"",""num_scrambled_causal"":""4"",""num_scrambled_schematic"":""4"",""participantId"":""622E7D8A2D5041BABE739B8EFA8E3603"",""assignmentId"":""9253eca8-b747-47c0-8fd7-381bee18f0e0"",""projectId"":""9076ac92-be42-43a2-9634-8b67c7fe93a7""}","https://test12345.live/?num_scrambled_semantic=8&num_scrambled_causal=4&num_scrambled_schematic=4&participantId=622E7D8A2D5041BABE739B8EFA8E3603&assignmentId=9253eca8-b747-47c0-8fd7-381bee18f0e0&projectId=9076ac92-be42-43a2-9634-8b67c7fe93a7","622E7D8A2D5041BABE739B8EFA8E3603-2025-05-22-19-39-57","","null","","images/schematic_sequence/hotel_scheme/hotel_scheme_3.png","null","",""
"","","","","","image-button-response","67","319316","0.0-12.0-1.0-1.3","622E7D8A2D5041BABE739B8EFA8E3603","622E7D8A2D5041BABE739B8EFA8E3603","9253eca8-b747-47c0-8fd7-381bee18f0e0","9076ac92-be42-43a2-9634-8b67c7fe93a7","{""num_scrambled_semantic"":""8"",""num_scrambled_causal"":""4"",""num_scrambled_schematic"":""4"",""participantId"":""622E7D8A2D5041BABE739B8EFA8E3603"",""assignmentId"":""9253eca8-b747-47c0-8fd7-381bee18f0e0"",""projectId"":""9076ac92-be42-43a2-9634-8b67c7fe93a7""}","https://test12345.live/?num_scrambled_semantic=8&num_scrambled_causal=4&num_scrambled_schematic=4&participantId=622E7D8A2D5041BABE739B8EFA8E3603&assignmentId=9253eca8-b747-47c0-8fd7-381bee18f0e0&projectId=9076ac92-be42-43a2-9634-8b67c7fe93a7","622E7D8A2D5041BABE739B8EFA8E3603-2025-05-22-19-39-57","","1291","","images/schematic_sequence/hotel_scheme/hotel_scheme_3.png","1","",""
"","","","","","image-button-response","68","321122","0.0-12.0-1.0-2.3","622E7D8A2D5041BABE739B8EFA8E3603","622E7D8A2D5041BABE739B8EFA8E3603","9253eca8-b747-47c0-8fd7-381bee18f0e0","9076ac92-be42-43a2-9634-8b67c7fe93a7","{""num_scrambled_semantic"":""8"",""num_scrambled_causal"":""4"",""num_scrambled_schematic"":""4"",""participantId"":""622E7D8A2D5041BABE739B8EFA8E3603"",""assignmentId"":""9253eca8-b747-47c0-8fd7-381bee18f0e0"",""projectId"":""9076ac92-be42-43a2-9634-8b67c7fe93a7""}","https://test12345.live/?num_scrambled_semantic=8&num_scrambled_causal=4&num_scrambled_schematic=4&participantId=622E7D8A2D5041BABE739B8EFA8E3603&assignmentId=9253eca8-b747-47c0-8fd7-381bee18f0e0&projectId=9076ac92-be42-43a2-9634-8b67c7fe93a7","622E7D8A2D5041BABE739B8EFA8E3603-2025-05-22-19-39-57","","null","","[]","null","",""
"","","","","","image-button-response","69","325626","0.0-12.0-1.0-0.4","622E7D8A2D5041BABE739B8EFA8E3603","622E7D8A2D5041BABE739B8EFA8E3603","9253eca8-b747-47c0-8fd7-381bee18f0e0","9076ac92-be42-43a2-9634-8b67c7fe93a7","{""num_scrambled_semantic"":""8"",""num_scrambled_causal"":""4"",""num_scrambled_schematic"":""4"",""participantId"":""622E7D8A2D5041BABE739B8EFA8E3603"",""assignmentId"":""9253eca8-b747-47c0-8fd7-381bee18f0e0"",""projectId"":""9076ac92-be42-43a2-9634-8b67c7fe93a7""}","https://test12345.live/?num_scrambled_semantic=8&num_scrambled_causal=4&num_scrambled_schematic=4&participantId=622E7D8A2D5041BABE739B8EFA8E3603&assignmentId=9253eca8-b747-47c0-8fd7-381bee18f0e0&projectId=9076ac92-be42-43a2-9634-8b67c7fe93a7","622E7D8A2D5041BABE739B8EFA8E3603-2025-05-22-19-39-57","","null","","images/schematic_sequence/hotel_scheme/hotel_scheme_6.png","null","",""
"","","","","","image-button-response","70","328287","0.0-12.0-1.0-1.4","622E7D8A2D5041BABE739B8EFA8E3603","622E7D8A2D5041BABE739B8EFA8E3603","9253eca8-b747-47c0-8fd7-381bee18f0e0","9076ac92-be42-43a2-9634-8b67c7fe93a7","{""num_scrambled_semantic"":""8"",""num_scrambled_causal"":""4"",""num_scrambled_schematic"":""4"",""participantId"":""622E7D8A2D5041BABE739B8EFA8E3603"",""assignmentId"":""9253eca8-b747-47c0-8fd7-381bee18f0e0"",""projectId"":""9076ac92-be42-43a2-9634-8b67c7fe93a7""}","https://test12345.live/?num_scrambled_semantic=8&num_scrambled_causal=4&num_scrambled_schematic=4&participantId=622E7D8A2D5041BABE739B8EFA8E3603&assignmentId=9253eca8-b747-47c0-8fd7-381bee18f0e0&projectId=9076ac92-be42-43a2-9634-8b67c7fe93a7","622E7D8A2D5041BABE739B8EFA8E3603-2025-05-22-19-39-57","","2660","","images/schematic_sequence/hotel_scheme/hotel_scheme_6.png","0","",""
"","","","","","image-button-response","71","330092","0.0-12.0-1.0-2.4","622E7D8A2D5041BABE739B8EFA8E3603","622E7D8A2D5041BABE739B8EFA8E3603","9253eca8-b747-47c0-8fd7-381bee18f0e0","9076ac92-be42-43a2-9634-8b67c7fe93a7","{""num_scrambled_semantic"":""8"",""num_scrambled_causal"":""4"",""num_scrambled_schematic"":""4"",""participantId"":""622E7D8A2D5041BABE739B8EFA8E3603"",""assignmentId"":""9253eca8-b747-47c0-8fd7-381bee18f0e0"",""projectId"":""9076ac92-be42-43a2-9634-8b67c7fe93a7""}","https://test12345.live/?num_scrambled_semantic=8&num_scrambled_causal=4&num_scrambled_schematic=4&participantId=622E7D8A2D5041BABE739B8EFA8E3603&assignmentId=9253eca8-b747-47c0-8fd7-381bee18f0e0&projectId=9076ac92-be42-43a2-9634-8b67c7fe93a7","622E7D8A2D5041BABE739B8EFA8E3603-2025-05-22-19-39-57","","null","","[]","null","",""
"","","","","","image-button-response","72","334596","0.0-12.0-1.0-0.5","622E7D8A2D5041BABE739B8EFA8E3603","622E7D8A2D5041BABE739B8EFA8E3603","9253eca8-b747-47c0-8fd7-381bee18f0e0","9076ac92-be42-43a2-9634-8b67c7fe93a7","{""num_scrambled_semantic"":""8"",""num_scrambled_causal"":""4"",""num_scrambled_schematic"":""4"",""participantId"":""622E7D8A2D5041BABE739B8EFA8E3603"",""assignmentId"":""9253eca8-b747-47c0-8fd7-381bee18f0e0"",""projectId"":""9076ac92-be42-43a2-9634-8b67c7fe93a7""}","https://test12345.live/?num_scrambled_semantic=8&num_scrambled_causal=4&num_scrambled_schematic=4&participantId=622E7D8A2D5041BABE739B8EFA8E3603&assignmentId=9253eca8-b747-47c0-8fd7-381bee18f0e0&projectId=9076ac92-be42-43a2-9634-8b67c7fe93a7","622E7D8A2D5041BABE739B8EFA8E3603-2025-05-22-19-39-57","","null","","images/schematic_sequence/hotel_scheme/hotel_scheme_2.png","null","",""
"","","","","","image-button-response","73","335872","0.0-12.0-1.0-1.5","622E7D8A2D5041BABE739B8EFA8E3603","622E7D8A2D5041BABE739B8EFA8E3603","9253eca8-b747-47c0-8fd7-381bee18f0e0","9076ac92-be42-43a2-9634-8b67c7fe93a7","{""num_scrambled_semantic"":""8"",""num_scrambled_causal"":""4"",""num_scrambled_schematic"":""4"",""participantId"":""622E7D8A2D5041BABE739B8EFA8E3603"",""assignmentId"":""9253eca8-b747-47c0-8fd7-381bee18f0e0"",""projectId"":""9076ac92-be42-43a2-9634-8b67c7fe93a7""}","https://test12345.live/?num_scrambled_semantic=8&num_scrambled_causal=4&num_scrambled_schematic=4&participantId=622E7D8A2D5041BABE739B8EFA8E3603&assignmentId=9253eca8-b747-47c0-8fd7-381bee18f0e0&projectId=9076ac92-be42-43a2-9634-8b67c7fe93a7","622E7D8A2D5041BABE739B8EFA8E3603-2025-05-22-19-39-57","","1275","","images/schematic_sequence/hotel_scheme/hotel_scheme_2.png","0","",""
"","","","","","image-button-response","74","337676","0.0-12.0-1.0-2.5","622E7D8A2D5041BABE739B8EFA8E3603","622E7D8A2D5041BABE739B8EFA8E3603","9253eca8-b747-47c0-8fd7-381bee18f0e0","9076ac92-be42-43a2-9634-8b67c7fe93a7","{""num_scrambled_semantic"":""8"",""num_scrambled_causal"":""4"",""num_scrambled_schematic"":""4"",""participantId"":""622E7D8A2D5041BABE739B8EFA8E3603"",""assignmentId"":""9253eca8-b747-47c0-8fd7-381bee18f0e0"",""projectId"":""9076ac92-be42-43a2-9634-8b67c7fe93a7""}","https://test12345.live/?num_scrambled_semantic=8&num_scrambled_causal=4&num_scrambled_schematic=4&participantId=622E7D8A2D5041BABE739B8EFA8E3603&assignmentId=9253eca8-b747-47c0-8fd7-381bee18f0e0&projectId=9076ac92-be42-43a2-9634-8b67c7fe93a7","622E7D8A2D5041BABE739B8EFA8E3603-2025-05-22-19-39-57","","null","","[]","null","",""
"","","","","","image-button-response","75","342182","0.0-12.0-1.0-0.6","622E7D8A2D5041BABE739B8EFA8E3603","622E7D8A2D5041BABE739B8EFA8E3603","9253eca8-b747-47c0-8fd7-381bee18f0e0","9076ac92-be42-43a2-9634-8b67c7fe93a7","{""num_scrambled_semantic"":""8"",""num_scrambled_causal"":""4"",""num_scrambled_schematic"":""4"",""participantId"":""622E7D8A2D5041BABE739B8EFA8E3603"",""assignmentId"":""9253eca8-b747-47c0-8fd7-381bee18f0e0"",""projectId"":""9076ac92-be42-43a2-9634-8b67c7fe93a7""}","https://test12345.live/?num_scrambled_semantic=8&num_scrambled_causal=4&num_scrambled_schematic=4&participantId=622E7D8A2D5041BABE739B8EFA8E3603&assignmentId=9253eca8-b747-47c0-8fd7-381bee18f0e0&projectId=9076ac92-be42-43a2-9634-8b67c7fe93a7","622E7D8A2D5041BABE739B8EFA8E3603-2025-05-22-19-39-57","","null","","images/schematic_sequence/hotel_scheme/hotel_scheme_5.png","null","",""
"","","","","","image-button-response","76","344301","0.0-12.0-1.0-1.6","622E7D8A2D5041BABE739B8EFA8E3603","622E7D8A2D5041BABE739B8EFA8E3603","9253eca8-b747-47c0-8fd7-381bee18f0e0","9076ac92-be42-43a2-9634-8b67c7fe93a7","{""num_scrambled_semantic"":""8"",""num_scrambled_causal"":""4"",""num_scrambled_schematic"":""4"",""participantId"":""622E7D8A2D5041BABE739B8EFA8E3603"",""assignmentId"":""9253eca8-b747-47c0-8fd7-381bee18f0e0"",""projectId"":""9076ac92-be42-43a2-9634-8b67c7fe93a7""}","https://test12345.live/?num_scrambled_semantic=8&num_scrambled_causal=4&num_scrambled_schematic=4&participantId=622E7D8A2D5041BABE739B8EFA8E3603&assignmentId=9253eca8-b747-47c0-8fd7-381bee18f0e0&projectId=9076ac92-be42-43a2-9634-8b67c7fe93a7","622E7D8A2D5041BABE739B8EFA8E3603-2025-05-22-19-39-57","","2118","","images/schematic_sequence/hotel_scheme/hotel_scheme_5.png","0","",""
"","","","","","image-button-response","77","346106","0.0-12.0-1.0-2.6","622E7D8A2D5041BABE739B8EFA8E3603","622E7D8A2D5041BABE739B8EFA8E3603","9253eca8-b747-47c0-8fd7-381bee18f0e0","9076ac92-be42-43a2-9634-8b67c7fe93a7","{""num_scrambled_semantic"":""8"",""num_scrambled_causal"":""4"",""num_scrambled_schematic"":""4"",""participantId"":""622E7D8A2D5041BABE739B8EFA8E3603"",""assignmentId"":""9253eca8-b747-47c0-8fd7-381bee18f0e0"",""projectId"":""9076ac92-be42-43a2-9634-8b67c7fe93a7""}","https://test12345.live/?num_scrambled_semantic=8&num_scrambled_causal=4&num_scrambled_schematic=4&participantId=622E7D8A2D5041BABE739B8EFA8E3603&assignmentId=9253eca8-b747-47c0-8fd7-381bee18f0e0&projectId=9076ac92-be42-43a2-9634-8b67c7fe93a7","622E7D8A2D5041BABE739B8EFA8E3603-2025-05-22-19-39-57","","null","","[]","null","",""
"","","","","","image-button-response","78","350613","0.0-12.0-1.0-0.7","622E7D8A2D5041BABE739B8EFA8E3603","622E7D8A2D5041BABE739B8EFA8E3603","9253eca8-b747-47c0-8fd7-381bee18f0e0","9076ac92-be42-43a2-9634-8b67c7fe93a7","{""num_scrambled_semantic"":""8"",""num_scrambled_causal"":""4"",""num_scrambled_schematic"":""4"",""participantId"":""622E7D8A2D5041BABE739B8EFA8E3603"",""assignmentId"":""9253eca8-b747-47c0-8fd7-381bee18f0e0"",""projectId"":""9076ac92-be42-43a2-9634-8b67c7fe93a7""}","https://test12345.live/?num_scrambled_semantic=8&num_scrambled_causal=4&num_scrambled_schematic=4&participantId=622E7D8A2D5041BABE739B8EFA8E3603&assignmentId=9253eca8-b747-47c0-8fd7-381bee18f0e0&projectId=9076ac92-be42-43a2-9634-8b67c7fe93a7","622E7D8A2D5041BABE739B8EFA8E3603-2025-05-22-19-39-57","","null","","images/schematic_sequence/hotel_scheme/hotel_scheme_8.png","null","",""
"","","","","","image-button-response","79","351570","0.0-12.0-1.0-1.7","622E7D8A2D5041BABE739B8EFA8E3603","622E7D8A2D5041BABE739B8EFA8E3603","9253eca8-b747-47c0-8fd7-381bee18f0e0","9076ac92-be42-43a2-9634-8b67c7fe93a7","{""num_scrambled_semantic"":""8"",""num_scrambled_causal"":""4"",""num_scrambled_schematic"":""4"",""participantId"":""622E7D8A2D5041BABE739B8EFA8E3603"",""assignmentId"":""9253eca8-b747-47c0-8fd7-381bee18f0e0"",""projectId"":""9076ac92-be42-43a2-9634-8b67c7fe93a7""}","https://test12345.live/?num_scrambled_semantic=8&num_scrambled_causal=4&num_scrambled_schematic=4&participantId=622E7D8A2D5041BABE739B8EFA8E3603&assignmentId=9253eca8-b747-47c0-8fd7-381bee18f0e0&projectId=9076ac92-be42-43a2-9634-8b67c7fe93a7","622E7D8A2D5041BABE739B8EFA8E3603-2025-05-22-19-39-57","","955","","images/schematic_sequence/hotel_scheme/hotel_scheme_8.png","0","",""
"","","","","","image-button-response","80","353376","0.0-12.0-1.0-2.7","622E7D8A2D5041BABE739B8EFA8E3603","622E7D8A2D5041BABE739B8EFA8E3603","9253eca8-b747-47c0-8fd7-381bee18f0e0","9076ac92-be42-43a2-9634-8b67c7fe93a7","{""num_scrambled_semantic"":""8"",""num_scrambled_causal"":""4"",""num_scrambled_schematic"":""4"",""participantId"":""622E7D8A2D5041BABE739B8EFA8E3603"",""assignmentId"":""9253eca8-b747-47c0-8fd7-381bee18f0e0"",""projectId"":""9076ac92-be42-43a2-9634-8b67c7fe93a7""}","https://test12345.live/?num_scrambled_semantic=8&num_scrambled_causal=4&num_scrambled_schematic=4&participantId=622E7D8A2D5041BABE739B8EFA8E3603&assignmentId=9253eca8-b747-47c0-8fd7-381bee18f0e0&projectId=9076ac92-be42-43a2-9634-8b67c7fe93a7","622E7D8A2D5041BABE739B8EFA8E3603-2025-05-22-19-39-57","","null","","[]","null","",""
"","","","","","image-button-response","81","357878","0.0-12.0-1.0-0.8","622E7D8A2D5041BABE739B8EFA8E3603","622E7D8A2D5041BABE739B8EFA8E3603","9253eca8-b747-47c0-8fd7-381bee18f0e0","9076ac92-be42-43a2-9634-8b67c7fe93a7","{""num_scrambled_semantic"":""8"",""num_scrambled_causal"":""4"",""num_scrambled_schematic"":""4"",""participantId"":""622E7D8A2D5041BABE739B8EFA8E3603"",""assignmentId"":""9253eca8-b747-47c0-8fd7-381bee18f0e0"",""projectId"":""9076ac92-be42-43a2-9634-8b67c7fe93a7""}","https://test12345.live/?num_scrambled_semantic=8&num_scrambled_causal=4&num_scrambled_schematic=4&participantId=622E7D8A2D5041BABE739B8EFA8E3603&assignmentId=9253eca8-b747-47c0-8fd7-381bee18f0e0&projectId=9076ac92-be42-43a2-9634-8b67c7fe93a7","622E7D8A2D5041BABE739B8EFA8E3603-2025-05-22-19-39-57","","null","","images/schematic_sequence/hotel_scheme/hotel_scheme_ten.png","null","",""
"","","","","","image-button-response","82","359541","0.0-12.0-1.0-1.8","622E7D8A2D5041BABE739B8EFA8E3603","622E7D8A2D5041BABE739B8EFA8E3603","9253eca8-b747-47c0-8fd7-381bee18f0e0","9076ac92-be42-43a2-9634-8b67c7fe93a7","{""num_scrambled_semantic"":""8"",""num_scrambled_causal"":""4"",""num_scrambled_schematic"":""4"",""participantId"":""622E7D8A2D5041BABE739B8EFA8E3603"",""assignmentId"":""9253eca8-b747-47c0-8fd7-381bee18f0e0"",""projectId"":""9076ac92-be42-43a2-9634-8b67c7fe93a7""}","https://test12345.live/?num_scrambled_semantic=8&num_scrambled_causal=4&num_scrambled_schematic=4&participantId=622E7D8A2D5041BABE739B8EFA8E3603&assignmentId=9253eca8-b747-47c0-8fd7-381bee18f0e0&projectId=9076ac92-be42-43a2-9634-8b67c7fe93a7","622E7D8A2D5041BABE739B8EFA8E3603-2025-05-22-19-39-57","","1661","","images/schematic_sequence/hotel_scheme/hotel_scheme_ten.png","0","",""
"","","","","","image-button-response","83","361346","0.0-12.0-1.0-2.8","622E7D8A2D5041BABE739B8EFA8E3603","622E7D8A2D5041BABE739B8EFA8E3603","9253eca8-b747-47c0-8fd7-381bee18f0e0","9076ac92-be42-43a2-9634-8b67c7fe93a7","{""num_scrambled_semantic"":""8"",""num_scrambled_causal"":""4"",""num_scrambled_schematic"":""4"",""participantId"":""622E7D8A2D5041BABE739B8EFA8E3603"",""assignmentId"":""9253eca8-b747-47c0-8fd7-381bee18f0e0"",""projectId"":""9076ac92-be42-43a2-9634-8b67c7fe93a7""}","https://test12345.live/?num_scrambled_semantic=8&num_scrambled_causal=4&num_scrambled_schematic=4&participantId=622E7D8A2D5041BABE739B8EFA8E3603&assignmentId=9253eca8-b747-47c0-8fd7-381bee18f0e0&projectId=9076ac92-be42-43a2-9634-8b67c7fe93a7","622E7D8A2D5041BABE739B8EFA8E3603-2025-05-22-19-39-57","","null","","[]","null","",""
"","","","","","image-button-response","84","365850","0.0-12.0-1.0-0.9","622E7D8A2D5041BABE739B8EFA8E3603","622E7D8A2D5041BABE739B8EFA8E3603","9253eca8-b747-47c0-8fd7-381bee18f0e0","9076ac92-be42-43a2-9634-8b67c7fe93a7","{""num_scrambled_semantic"":""8"",""num_scrambled_causal"":""4"",""num_scrambled_schematic"":""4"",""participantId"":""622E7D8A2D5041BABE739B8EFA8E3603"",""assignmentId"":""9253eca8-b747-47c0-8fd7-381bee18f0e0"",""projectId"":""9076ac92-be42-43a2-9634-8b67c7fe93a7""}","https://test12345.live/?num_scrambled_semantic=8&num_scrambled_causal=4&num_scrambled_schematic=4&participantId=622E7D8A2D5041BABE739B8EFA8E3603&assignmentId=9253eca8-b747-47c0-8fd7-381bee18f0e0&projectId=9076ac92-be42-43a2-9634-8b67c7fe93a7","622E7D8A2D5041BABE739B8EFA8E3603-2025-05-22-19-39-57","","null","","images/schematic_sequence/hotel_scheme/hotel_scheme_7.png","null","",""
"","","","","","image-button-response","85","368188","0.0-12.0-1.0-1.9","622E7D8A2D5041BABE739B8EFA8E3603","622E7D8A2D5041BABE739B8EFA8E3603","9253eca8-b747-47c0-8fd7-381bee18f0e0","9076ac92-be42-43a2-9634-8b67c7fe93a7","{""num_scrambled_semantic"":""8"",""num_scrambled_causal"":""4"",""num_scrambled_schematic"":""4"",""participantId"":""622E7D8A2D5041BABE739B8EFA8E3603"",""assignmentId"":""9253eca8-b747-47c0-8fd7-381bee18f0e0"",""projectId"":""9076ac92-be42-43a2-9634-8b67c7fe93a7""}","https://test12345.live/?num_scrambled_semantic=8&num_scrambled_causal=4&num_scrambled_schematic=4&participantId=622E7D8A2D5041BABE739B8EFA8E3603&assignmentId=9253eca8-b747-47c0-8fd7-381bee18f0e0&projectId=9076ac92-be42-43a2-9634-8b67c7fe93a7","622E7D8A2D5041BABE739B8EFA8E3603-2025-05-22-19-39-57","","2336","","images/schematic_sequence/hotel_scheme/hotel_scheme_7.png","0","",""
"","","","","","image-button-response","86","369990","0.0-12.0-1.0-2.9","622E7D8A2D5041BABE739B8EFA8E3603","622E7D8A2D5041BABE739B8EFA8E3603","9253eca8-b747-47c0-8fd7-381bee18f0e0","9076ac92-be42-43a2-9634-8b67c7fe93a7","{""num_scrambled_semantic"":""8"",""num_scrambled_causal"":""4"",""num_scrambled_schematic"":""4"",""participantId"":""622E7D8A2D5041BABE739B8EFA8E3603"",""assignmentId"":""9253eca8-b747-47c0-8fd7-381bee18f0e0"",""projectId"":""9076ac92-be42-43a2-9634-8b67c7fe93a7""}","https://test12345.live/?num_scrambled_semantic=8&num_scrambled_causal=4&num_scrambled_schematic=4&participantId=622E7D8A2D5041BABE739B8EFA8E3603&assignmentId=9253eca8-b747-47c0-8fd7-381bee18f0e0&projectId=9076ac92-be42-43a2-9634-8b67c7fe93a7","622E7D8A2D5041BABE739B8EFA8E3603-2025-05-22-19-39-57","","null","","[]","null","",""
"","","","","","html-audio-response","87","394508","0.0-13.0","622E7D8A2D5041BABE739B8EFA8E3603","622E7D8A2D5041BABE739B8EFA8E3603","9253eca8-b747-47c0-8fd7-381bee18f0e0","9076ac92-be42-43a2-9634-8b67c7fe93a7","{""num_scrambled_semantic"":""8"",""num_scrambled_causal"":""4"",""num_scrambled_schematic"":""4"",""participantId"":""622E7D8A2D5041BABE739B8EFA8E3603"",""assignmentId"":""9253eca8-b747-47c0-8fd7-381bee18f0e0"",""projectId"":""9076ac92-be42-43a2-9634-8b67c7fe93a7""}","https://test12345.live/?num_scrambled_semantic=8&num_scrambled_causal=4&num_scrambled_schematic=4&participantId=622E7D8A2D5041BABE739B8EFA8E3603&assignmentId=9253eca8-b747-47c0-8fd7-381bee18f0e0&projectId=9076ac92-be42-43a2-9634-8b67c7fe93a7","622E7D8A2D5041BABE739B8EFA8E3603-2025-05-22-19-39-57","","22907","","[""<span style=\""color: red; font-size: 24px\""> NOW RECORDING</span><p>Please say out loud all the images you saw, in the exact order you saw them. Try to recall as many images as you can, but remember: getting the order right is more important than the number of images you recall.</p>""]","","3","hotel_scheme"
"","","","","","image-button-response","88","400518","0.0-14.0-0.0","622E7D8A2D5041BABE739B8EFA8E3603","622E7D8A2D5041BABE739B8EFA8E3603","9253eca8-b747-47c0-8fd7-381bee18f0e0","9076ac92-be42-43a2-9634-8b67c7fe93a7","{""num_scrambled_semantic"":""8"",""num_scrambled_causal"":""4"",""num_scrambled_schematic"":""4"",""participantId"":""622E7D8A2D5041BABE739B8EFA8E3603"",""assignmentId"":""9253eca8-b747-47c0-8fd7-381bee18f0e0"",""projectId"":""9076ac92-be42-43a2-9634-8b67c7fe93a7""}","https://test12345.live/?num_scrambled_semantic=8&num_scrambled_causal=4&num_scrambled_schematic=4&participantId=622E7D8A2D5041BABE739B8EFA8E3603&assignmentId=9253eca8-b747-47c0-8fd7-381bee18f0e0&projectId=9076ac92-be42-43a2-9634-8b67c7fe93a7","622E7D8A2D5041BABE739B8EFA8E3603-2025-05-22-19-39-57","","null","","images/semantic_sequence/creative_activities_semantic/creative_activities_semantic_0.png","null","",""
"","","","","","image-button-response","89","405024","0.0-14.0-1.0-0.0","622E7D8A2D5041BABE739B8EFA8E3603","622E7D8A2D5041BABE739B8EFA8E3603","9253eca8-b747-47c0-8fd7-381bee18f0e0","9076ac92-be42-43a2-9634-8b67c7fe93a7","{""num_scrambled_semantic"":""8"",""num_scrambled_causal"":""4"",""num_scrambled_schematic"":""4"",""participantId"":""622E7D8A2D5041BABE739B8EFA8E3603"",""assignmentId"":""9253eca8-b747-47c0-8fd7-381bee18f0e0"",""projectId"":""9076ac92-be42-43a2-9634-8b67c7fe93a7""}","https://test12345.live/?num_scrambled_semantic=8&num_scrambled_causal=4&num_scrambled_schematic=4&participantId=622E7D8A2D5041BABE739B8EFA8E3603&assignmentId=9253eca8-b747-47c0-8fd7-381bee18f0e0&projectId=9076ac92-be42-43a2-9634-8b67c7fe93a7","622E7D8A2D5041BABE739B8EFA8E3603-2025-05-22-19-39-57","","null","","images/semantic_sequence/creative_activities_semantic/creative_activities_semantic_9.png","null","",""
"","","","","","image-button-response","90","408709","0.0-14.0-1.0-1.0","622E7D8A2D5041BABE739B8EFA8E3603","622E7D8A2D5041BABE739B8EFA8E3603","9253eca8-b747-47c0-8fd7-381bee18f0e0","9076ac92-be42-43a2-9634-8b67c7fe93a7","{""num_scrambled_semantic"":""8"",""num_scrambled_causal"":""4"",""num_scrambled_schematic"":""4"",""participantId"":""622E7D8A2D5041BABE739B8EFA8E3603"",""assignmentId"":""9253eca8-b747-47c0-8fd7-381bee18f0e0"",""projectId"":""9076ac92-be42-43a2-9634-8b67c7fe93a7""}","https://test12345.live/?num_scrambled_semantic=8&num_scrambled_causal=4&num_scrambled_schematic=4&participantId=622E7D8A2D5041BABE739B8EFA8E3603&assignmentId=9253eca8-b747-47c0-8fd7-381bee18f0e0&projectId=9076ac92-be42-43a2-9634-8b67c7fe93a7","622E7D8A2D5041BABE739B8EFA8E3603-2025-05-22-19-39-57","","3683","","images/semantic_sequence/creative_activities_semantic/creative_activities_semantic_9.png","0","",""
"","","","","","image-button-response","91","410514","0.0-14.0-1.0-2.0","622E7D8A2D5041BABE739B8EFA8E3603","622E7D8A2D5041BABE739B8EFA8E3603","9253eca8-b747-47c0-8fd7-381bee18f0e0","9076ac92-be42-43a2-9634-8b67c7fe93a7","{""num_scrambled_semantic"":""8"",""num_scrambled_causal"":""4"",""num_scrambled_schematic"":""4"",""participantId"":""622E7D8A2D5041BABE739B8EFA8E3603"",""assignmentId"":""9253eca8-b747-47c0-8fd7-381bee18f0e0"",""projectId"":""9076ac92-be42-43a2-9634-8b67c7fe93a7""}","https://test12345.live/?num_scrambled_semantic=8&num_scrambled_causal=4&num_scrambled_schematic=4&participantId=622E7D8A2D5041BABE739B8EFA8E3603&assignmentId=9253eca8-b747-47c0-8fd7-381bee18f0e0&projectId=9076ac92-be42-43a2-9634-8b67c7fe93a7","622E7D8A2D5041BABE739B8EFA8E3603-2025-05-22-19-39-57","","null","","[]","null","",""
"","","","","","image-button-response","92","415020","0.0-14.0-1.0-0.1","622E7D8A2D5041BABE739B8EFA8E3603","622E7D8A2D5041BABE739B8EFA8E3603","9253eca8-b747-47c0-8fd7-381bee18f0e0","9076ac92-be42-43a2-9634-8b67c7fe93a7","{""num_scrambled_semantic"":""8"",""num_scrambled_causal"":""4"",""num_scrambled_schematic"":""4"",""participantId"":""622E7D8A2D5041BABE739B8EFA8E3603"",""assignmentId"":""9253eca8-b747-47c0-8fd7-381bee18f0e0"",""projectId"":""9076ac92-be42-43a2-9634-8b67c7fe93a7""}","https://test12345.live/?num_scrambled_semantic=8&num_scrambled_causal=4&num_scrambled_schematic=4&participantId=622E7D8A2D5041BABE739B8EFA8E3603&assignmentId=9253eca8-b747-47c0-8fd7-381bee18f0e0&projectId=9076ac92-be42-43a2-9634-8b67c7fe93a7","622E7D8A2D5041BABE739B8EFA8E3603-2025-05-22-19-39-57","","null","","images/semantic_sequence/creative_activities_semantic/creative_activities_semantic_8.png","null","",""
"","","","","","image-button-response","93","417476","0.0-14.0-1.0-1.1","622E7D8A2D5041BABE739B8EFA8E3603","622E7D8A2D5041BABE739B8EFA8E3603","9253eca8-b747-47c0-8fd7-381bee18f0e0","9076ac92-be42-43a2-9634-8b67c7fe93a7","{""num_scrambled_semantic"":""8"",""num_scrambled_causal"":""4"",""num_scrambled_schematic"":""4"",""participantId"":""622E7D8A2D5041BABE739B8EFA8E3603"",""assignmentId"":""9253eca8-b747-47c0-8fd7-381bee18f0e0"",""projectId"":""9076ac92-be42-43a2-9634-8b67c7fe93a7""}","https://test12345.live/?num_scrambled_semantic=8&num_scrambled_causal=4&num_scrambled_schematic=4&participantId=622E7D8A2D5041BABE739B8EFA8E3603&assignmentId=9253eca8-b747-47c0-8fd7-381bee18f0e0&projectId=9076ac92-be42-43a2-9634-8b67c7fe93a7","622E7D8A2D5041BABE739B8EFA8E3603-2025-05-22-19-39-57","","2449","","images/semantic_sequence/creative_activities_semantic/creative_activities_semantic_8.png","0","",""
"","","","","","image-button-response","94","419283","0.0-14.0-1.0-2.1","622E7D8A2D5041BABE739B8EFA8E3603","622E7D8A2D5041BABE739B8EFA8E3603","9253eca8-b747-47c0-8fd7-381bee18f0e0","9076ac92-be42-43a2-9634-8b67c7fe93a7","{""num_scrambled_semantic"":""8"",""num_scrambled_causal"":""4"",""num_scrambled_schematic"":""4"",""participantId"":""622E7D8A2D5041BABE739B8EFA8E3603"",""assignmentId"":""9253eca8-b747-47c0-8fd7-381bee18f0e0"",""projectId"":""9076ac92-be42-43a2-9634-8b67c7fe93a7""}","https://test12345.live/?num_scrambled_semantic=8&num_scrambled_causal=4&num_scrambled_schematic=4&participantId=622E7D8A2D5041BABE739B8EFA8E3603&assignmentId=9253eca8-b747-47c0-8fd7-381bee18f0e0&projectId=9076ac92-be42-43a2-9634-8b67c7fe93a7","622E7D8A2D5041BABE739B8EFA8E3603-2025-05-22-19-39-57","","null","","[]","null","",""
"","","","","","image-button-response","95","423789","0.0-14.0-1.0-0.2","622E7D8A2D5041BABE739B8EFA8E3603","622E7D8A2D5041BABE739B8EFA8E3603","9253eca8-b747-47c0-8fd7-381bee18f0e0","9076ac92-be42-43a2-9634-8b67c7fe93a7","{""num_scrambled_semantic"":""8"",""num_scrambled_causal"":""4"",""num_scrambled_schematic"":""4"",""participantId"":""622E7D8A2D5041BABE739B8EFA8E3603"",""assignmentId"":""9253eca8-b747-47c0-8fd7-381bee18f0e0"",""projectId"":""9076ac92-be42-43a2-9634-8b67c7fe93a7""}","https://test12345.live/?num_scrambled_semantic=8&num_scrambled_causal=4&num_scrambled_schematic=4&participantId=622E7D8A2D5041BABE739B8EFA8E3603&assignmentId=9253eca8-b747-47c0-8fd7-381bee18f0e0&projectId=9076ac92-be42-43a2-9634-8b67c7fe93a7","622E7D8A2D5041BABE739B8EFA8E3603-2025-05-22-19-39-57","","null","","images/semantic_sequence/creative_activities_semantic/creative_activities_semantic_6.png","null","",""
"","","","","","image-button-response","96","426061","0.0-14.0-1.0-1.2","622E7D8A2D5041BABE739B8EFA8E3603","622E7D8A2D5041BABE739B8EFA8E3603","9253eca8-b747-47c0-8fd7-381bee18f0e0","9076ac92-be42-43a2-9634-8b67c7fe93a7","{""num_scrambled_semantic"":""8"",""num_scrambled_causal"":""4"",""num_scrambled_schematic"":""4"",""participantId"":""622E7D8A2D5041BABE739B8EFA8E3603"",""assignmentId"":""9253eca8-b747-47c0-8fd7-381bee18f0e0"",""projectId"":""9076ac92-be42-43a2-9634-8b67c7fe93a7""}","https://test12345.live/?num_scrambled_semantic=8&num_scrambled_causal=4&num_scrambled_schematic=4&participantId=622E7D8A2D5041BABE739B8EFA8E3603&assignmentId=9253eca8-b747-47c0-8fd7-381bee18f0e0&projectId=9076ac92-be42-43a2-9634-8b67c7fe93a7","622E7D8A2D5041BABE739B8EFA8E3603-2025-05-22-19-39-57","","2270","","images/semantic_sequence/creative_activities_semantic/creative_activities_semantic_6.png","0","",""
"","","","","","image-button-response","97","427864","0.0-14.0-1.0-2.2","622E7D8A2D5041BABE739B8EFA8E3603","622E7D8A2D5041BABE739B8EFA8E3603","9253eca8-b747-47c0-8fd7-381bee18f0e0","9076ac92-be42-43a2-9634-8b67c7fe93a7","{""num_scrambled_semantic"":""8"",""num_scrambled_causal"":""4"",""num_scrambled_schematic"":""4"",""participantId"":""622E7D8A2D5041BABE739B8EFA8E3603"",""assignmentId"":""9253eca8-b747-47c0-8fd7-381bee18f0e0"",""projectId"":""9076ac92-be42-43a2-9634-8b67c7fe93a7""}","https://test12345.live/?num_scrambled_semantic=8&num_scrambled_causal=4&num_scrambled_schematic=4&participantId=622E7D8A2D5041BABE739B8EFA8E3603&assignmentId=9253eca8-b747-47c0-8fd7-381bee18f0e0&projectId=9076ac92-be42-43a2-9634-8b67c7fe93a7","622E7D8A2D5041BABE739B8EFA8E3603-2025-05-22-19-39-57","","null","","[]","null","",""
"","","","","","image-button-response","98","432369","0.0-14.0-1.0-0.3","622E7D8A2D5041BABE739B8EFA8E3603","622E7D8A2D5041BABE739B8EFA8E3603","9253eca8-b747-47c0-8fd7-381bee18f0e0","9076ac92-be42-43a2-9634-8b67c7fe93a7","{""num_scrambled_semantic"":""8"",""num_scrambled_causal"":""4"",""num_scrambled_schematic"":""4"",""participantId"":""622E7D8A2D5041BABE739B8EFA8E3603"",""assignmentId"":""9253eca8-b747-47c0-8fd7-381bee18f0e0"",""projectId"":""9076ac92-be42-43a2-9634-8b67c7fe93a7""}","https://test12345.live/?num_scrambled_semantic=8&num_scrambled_causal=4&num_scrambled_schematic=4&participantId=622E7D8A2D5041BABE739B8EFA8E3603&assignmentId=9253eca8-b747-47c0-8fd7-381bee18f0e0&projectId=9076ac92-be42-43a2-9634-8b67c7fe93a7","622E7D8A2D5041BABE739B8EFA8E3603-2025-05-22-19-39-57","","null","","images/semantic_sequence/creative_activities_semantic/creative_activities_semantic_ten.png","null","",""
"","","","","","image-button-response","99","435795","0.0-14.0-1.0-1.3","622E7D8A2D5041BABE739B8EFA8E3603","622E7D8A2D5041BABE739B8EFA8E3603","9253eca8-b747-47c0-8fd7-381bee18f0e0","9076ac92-be42-43a2-9634-8b67c7fe93a7","{""num_scrambled_semantic"":""8"",""num_scrambled_causal"":""4"",""num_scrambled_schematic"":""4"",""participantId"":""622E7D8A2D5041BABE739B8EFA8E3603"",""assignmentId"":""9253eca8-b747-47c0-8fd7-381bee18f0e0"",""projectId"":""9076ac92-be42-43a2-9634-8b67c7fe93a7""}","https://test12345.live/?num_scrambled_semantic=8&num_scrambled_causal=4&num_scrambled_schematic=4&participantId=622E7D8A2D5041BABE739B8EFA8E3603&assignmentId=9253eca8-b747-47c0-8fd7-381bee18f0e0&projectId=9076ac92-be42-43a2-9634-8b67c7fe93a7","622E7D8A2D5041BABE739B8EFA8E3603-2025-05-22-19-39-57","","3424","","images/semantic_sequence/creative_activities_semantic/creative_activities_semantic_ten.png","0","",""
"","","","","","image-button-response","100","437602","0.0-14.0-1.0-2.3","622E7D8A2D5041BABE739B8EFA8E3603","622E7D8A2D5041BABE739B8EFA8E3603","9253eca8-b747-47c0-8fd7-381bee18f0e0","9076ac92-be42-43a2-9634-8b67c7fe93a7","{""num_scrambled_semantic"":""8"",""num_scrambled_causal"":""4"",""num_scrambled_schematic"":""4"",""participantId"":""622E7D8A2D5041BABE739B8EFA8E3603"",""assignmentId"":""9253eca8-b747-47c0-8fd7-381bee18f0e0"",""projectId"":""9076ac92-be42-43a2-9634-8b67c7fe93a7""}","https://test12345.live/?num_scrambled_semantic=8&num_scrambled_causal=4&num_scrambled_schematic=4&participantId=622E7D8A2D5041BABE739B8EFA8E3603&assignmentId=9253eca8-b747-47c0-8fd7-381bee18f0e0&projectId=9076ac92-be42-43a2-9634-8b67c7fe93a7","622E7D8A2D5041BABE739B8EFA8E3603-2025-05-22-19-39-57","","null","","[]","null","",""
"","","","","","image-button-response","101","442109","0.0-14.0-1.0-0.4","622E7D8A2D5041BABE739B8EFA8E3603","622E7D8A2D5041BABE739B8EFA8E3603","9253eca8-b747-47c0-8fd7-381bee18f0e0","9076ac92-be42-43a2-9634-8b67c7fe93a7","{""num_scrambled_semantic"":""8"",""num_scrambled_causal"":""4"",""num_scrambled_schematic"":""4"",""participantId"":""622E7D8A2D5041BABE739B8EFA8E3603"",""assignmentId"":""9253eca8-b747-47c0-8fd7-381bee18f0e0"",""projectId"":""9076ac92-be42-43a2-9634-8b67c7fe93a7""}","https://test12345.live/?num_scrambled_semantic=8&num_scrambled_causal=4&num_scrambled_schematic=4&participantId=622E7D8A2D5041BABE739B8EFA8E3603&assignmentId=9253eca8-b747-47c0-8fd7-381bee18f0e0&projectId=9076ac92-be42-43a2-9634-8b67c7fe93a7","622E7D8A2D5041BABE739B8EFA8E3603-2025-05-22-19-39-57","","null","","images/semantic_sequence/creative_activities_semantic/creative_activities_semantic_1.png","null","",""
"","","","","","image-button-response","102","445612","0.0-14.0-1.0-1.4","622E7D8A2D5041BABE739B8EFA8E3603","622E7D8A2D5041BABE739B8EFA8E3603","9253eca8-b747-47c0-8fd7-381bee18f0e0","9076ac92-be42-43a2-9634-8b67c7fe93a7","{""num_scrambled_semantic"":""8"",""num_scrambled_causal"":""4"",""num_scrambled_schematic"":""4"",""participantId"":""622E7D8A2D5041BABE739B8EFA8E3603"",""assignmentId"":""9253eca8-b747-47c0-8fd7-381bee18f0e0"",""projectId"":""9076ac92-be42-43a2-9634-8b67c7fe93a7""}","https://test12345.live/?num_scrambled_semantic=8&num_scrambled_causal=4&num_scrambled_schematic=4&participantId=622E7D8A2D5041BABE739B8EFA8E3603&assignmentId=9253eca8-b747-47c0-8fd7-381bee18f0e0&projectId=9076ac92-be42-43a2-9634-8b67c7fe93a7","622E7D8A2D5041BABE739B8EFA8E3603-2025-05-22-19-39-57","","3501","","images/semantic_sequence/creative_activities_semantic/creative_activities_semantic_1.png","0","",""
"","","","","","image-button-response","103","447419","0.0-14.0-1.0-2.4","622E7D8A2D5041BABE739B8EFA8E3603","622E7D8A2D5041BABE739B8EFA8E3603","9253eca8-b747-47c0-8fd7-381bee18f0e0","9076ac92-be42-43a2-9634-8b67c7fe93a7","{""num_scrambled_semantic"":""8"",""num_scrambled_causal"":""4"",""num_scrambled_schematic"":""4"",""participantId"":""622E7D8A2D5041BABE739B8EFA8E3603"",""assignmentId"":""9253eca8-b747-47c0-8fd7-381bee18f0e0"",""projectId"":""9076ac92-be42-43a2-9634-8b67c7fe93a7""}","https://test12345.live/?num_scrambled_semantic=8&num_scrambled_causal=4&num_scrambled_schematic=4&participantId=622E7D8A2D5041BABE739B8EFA8E3603&assignmentId=9253eca8-b747-47c0-8fd7-381bee18f0e0&projectId=9076ac92-be42-43a2-9634-8b67c7fe93a7","622E7D8A2D5041BABE739B8EFA8E3603-2025-05-22-19-39-57","","null","","[]","null","",""
"","","","","","image-button-response","104","451924","0.0-14.0-1.0-0.5","622E7D8A2D5041BABE739B8EFA8E3603","622E7D8A2D5041BABE739B8EFA8E3603","9253eca8-b747-47c0-8fd7-381bee18f0e0","9076ac92-be42-43a2-9634-8b67c7fe93a7","{""num_scrambled_semantic"":""8"",""num_scrambled_causal"":""4"",""num_scrambled_schematic"":""4"",""participantId"":""622E7D8A2D5041BABE739B8EFA8E3603"",""assignmentId"":""9253eca8-b747-47c0-8fd7-381bee18f0e0"",""projectId"":""9076ac92-be42-43a2-9634-8b67c7fe93a7""}","https://test12345.live/?num_scrambled_semantic=8&num_scrambled_causal=4&num_scrambled_schematic=4&participantId=622E7D8A2D5041BABE739B8EFA8E3603&assignmentId=9253eca8-b747-47c0-8fd7-381bee18f0e0&projectId=9076ac92-be42-43a2-9634-8b67c7fe93a7","622E7D8A2D5041BABE739B8EFA8E3603-2025-05-22-19-39-57","","null","","images/semantic_sequence/creative_activities_semantic/creative_activities_semantic_4.png","null","",""
"","","","","","image-button-response","105","453933","0.0-14.0-1.0-1.5","622E7D8A2D5041BABE739B8EFA8E3603","622E7D8A2D5041BABE739B8EFA8E3603","9253eca8-b747-47c0-8fd7-381bee18f0e0","9076ac92-be42-43a2-9634-8b67c7fe93a7","{""num_scrambled_semantic"":""8"",""num_scrambled_causal"":""4"",""num_scrambled_schematic"":""4"",""participantId"":""622E7D8A2D5041BABE739B8EFA8E3603"",""assignmentId"":""9253eca8-b747-47c0-8fd7-381bee18f0e0"",""projectId"":""9076ac92-be42-43a2-9634-8b67c7fe93a7""}","https://test12345.live/?num_scrambled_semantic=8&num_scrambled_causal=4&num_scrambled_schematic=4&participantId=622E7D8A2D5041BABE739B8EFA8E3603&assignmentId=9253eca8-b747-47c0-8fd7-381bee18f0e0&projectId=9076ac92-be42-43a2-9634-8b67c7fe93a7","622E7D8A2D5041BABE739B8EFA8E3603-2025-05-22-19-39-57","","2007","","images/semantic_sequence/creative_activities_semantic/creative_activities_semantic_4.png","0","",""
"","","","","","image-button-response","106","455740","0.0-14.0-1.0-2.5","622E7D8A2D5041BABE739B8EFA8E3603","622E7D8A2D5041BABE739B8EFA8E3603","9253eca8-b747-47c0-8fd7-381bee18f0e0","9076ac92-be42-43a2-9634-8b67c7fe93a7","{""num_scrambled_semantic"":""8"",""num_scrambled_causal"":""4"",""num_scrambled_schematic"":""4"",""participantId"":""622E7D8A2D5041BABE739B8EFA8E3603"",""assignmentId"":""9253eca8-b747-47c0-8fd7-381bee18f0e0"",""projectId"":""9076ac92-be42-43a2-9634-8b67c7fe93a7""}","https://test12345.live/?num_scrambled_semantic=8&num_scrambled_causal=4&num_scrambled_schematic=4&participantId=622E7D8A2D5041BABE739B8EFA8E3603&assignmentId=9253eca8-b747-47c0-8fd7-381bee18f0e0&projectId=9076ac92-be42-43a2-9634-8b67c7fe93a7","622E7D8A2D5041BABE739B8EFA8E3603-2025-05-22-19-39-57","","null","","[]","null","",""
"","","","","","image-button-response","107","460242","0.0-14.0-1.0-0.6","622E7D8A2D5041BABE739B8EFA8E3603","622E7D8A2D5041BABE739B8EFA8E3603","9253eca8-b747-47c0-8fd7-381bee18f0e0","9076ac92-be42-43a2-9634-8b67c7fe93a7","{""num_scrambled_semantic"":""8"",""num_scrambled_causal"":""4"",""num_scrambled_schematic"":""4"",""participantId"":""622E7D8A2D5041BABE739B8EFA8E3603"",""assignmentId"":""9253eca8-b747-47c0-8fd7-381bee18f0e0"",""projectId"":""9076ac92-be42-43a2-9634-8b67c7fe93a7""}","https://test12345.live/?num_scrambled_semantic=8&num_scrambled_causal=4&num_scrambled_schematic=4&participantId=622E7D8A2D5041BABE739B8EFA8E3603&assignmentId=9253eca8-b747-47c0-8fd7-381bee18f0e0&projectId=9076ac92-be42-43a2-9634-8b67c7fe93a7","622E7D8A2D5041BABE739B8EFA8E3603-2025-05-22-19-39-57","","null","","images/semantic_sequence/creative_activities_semantic/creative_activities_semantic_7.png","null","",""
"","","","","","image-button-response","108","462213","0.0-14.0-1.0-1.6","622E7D8A2D5041BABE739B8EFA8E3603","622E7D8A2D5041BABE739B8EFA8E3603","9253eca8-b747-47c0-8fd7-381bee18f0e0","9076ac92-be42-43a2-9634-8b67c7fe93a7","{""num_scrambled_semantic"":""8"",""num_scrambled_causal"":""4"",""num_scrambled_schematic"":""4"",""participantId"":""622E7D8A2D5041BABE739B8EFA8E3603"",""assignmentId"":""9253eca8-b747-47c0-8fd7-381bee18f0e0"",""projectId"":""9076ac92-be42-43a2-9634-8b67c7fe93a7""}","https://test12345.live/?num_scrambled_semantic=8&num_scrambled_causal=4&num_scrambled_schematic=4&participantId=622E7D8A2D5041BABE739B8EFA8E3603&assignmentId=9253eca8-b747-47c0-8fd7-381bee18f0e0&projectId=9076ac92-be42-43a2-9634-8b67c7fe93a7","622E7D8A2D5041BABE739B8EFA8E3603-2025-05-22-19-39-57","","1970","","images/semantic_sequence/creative_activities_semantic/creative_activities_semantic_7.png","0","",""
"","","","","","image-button-response","109","464020","0.0-14.0-1.0-2.6","622E7D8A2D5041BABE739B8EFA8E3603","622E7D8A2D5041BABE739B8EFA8E3603","9253eca8-b747-47c0-8fd7-381bee18f0e0","9076ac92-be42-43a2-9634-8b67c7fe93a7","{""num_scrambled_semantic"":""8"",""num_scrambled_causal"":""4"",""num_scrambled_schematic"":""4"",""participantId"":""622E7D8A2D5041BABE739B8EFA8E3603"",""assignmentId"":""9253eca8-b747-47c0-8fd7-381bee18f0e0"",""projectId"":""9076ac92-be42-43a2-9634-8b67c7fe93a7""}","https://test12345.live/?num_scrambled_semantic=8&num_scrambled_causal=4&num_scrambled_schematic=4&participantId=622E7D8A2D5041BABE739B8EFA8E3603&assignmentId=9253eca8-b747-47c0-8fd7-381bee18f0e0&projectId=9076ac92-be42-43a2-9634-8b67c7fe93a7","622E7D8A2D5041BABE739B8EFA8E3603-2025-05-22-19-39-57","","null","","[]","null","",""
"","","","","","image-button-response","110","468523","0.0-14.0-1.0-0.7","622E7D8A2D5041BABE739B8EFA8E3603","622E7D8A2D5041BABE739B8EFA8E3603","9253eca8-b747-47c0-8fd7-381bee18f0e0","9076ac92-be42-43a2-9634-8b67c7fe93a7","{""num_scrambled_semantic"":""8"",""num_scrambled_causal"":""4"",""num_scrambled_schematic"":""4"",""participantId"":""622E7D8A2D5041BABE739B8EFA8E3603"",""assignmentId"":""9253eca8-b747-47c0-8fd7-381bee18f0e0"",""projectId"":""9076ac92-be42-43a2-9634-8b67c7fe93a7""}","https://test12345.live/?num_scrambled_semantic=8&num_scrambled_causal=4&num_scrambled_schematic=4&participantId=622E7D8A2D5041BABE739B8EFA8E3603&assignmentId=9253eca8-b747-47c0-8fd7-381bee18f0e0&projectId=9076ac92-be42-43a2-9634-8b67c7fe93a7","622E7D8A2D5041BABE739B8EFA8E3603-2025-05-22-19-39-57","","null","","images/semantic_sequence/creative_activities_semantic/creative_activities_semantic_2.png","null","",""
"","","","","","image-button-response","111","469417","0.0-14.0-1.0-1.7","622E7D8A2D5041BABE739B8EFA8E3603","622E7D8A2D5041BABE739B8EFA8E3603","9253eca8-b747-47c0-8fd7-381bee18f0e0","9076ac92-be42-43a2-9634-8b67c7fe93a7","{""num_scrambled_semantic"":""8"",""num_scrambled_causal"":""4"",""num_scrambled_schematic"":""4"",""participantId"":""622E7D8A2D5041BABE739B8EFA8E3603"",""assignmentId"":""9253eca8-b747-47c0-8fd7-381bee18f0e0"",""projectId"":""9076ac92-be42-43a2-9634-8b67c7fe93a7""}","https://test12345.live/?num_scrambled_semantic=8&num_scrambled_causal=4&num_scrambled_schematic=4&participantId=622E7D8A2D5041BABE739B8EFA8E3603&assignmentId=9253eca8-b747-47c0-8fd7-381bee18f0e0&projectId=9076ac92-be42-43a2-9634-8b67c7fe93a7","622E7D8A2D5041BABE739B8EFA8E3603-2025-05-22-19-39-57","","892","","images/semantic_sequence/creative_activities_semantic/creative_activities_semantic_2.png","0","",""
"","","","","","image-button-response","112","471220","0.0-14.0-1.0-2.7","622E7D8A2D5041BABE739B8EFA8E3603","622E7D8A2D5041BABE739B8EFA8E3603","9253eca8-b747-47c0-8fd7-381bee18f0e0","9076ac92-be42-43a2-9634-8b67c7fe93a7","{""num_scrambled_semantic"":""8"",""num_scrambled_causal"":""4"",""num_scrambled_schematic"":""4"",""participantId"":""622E7D8A2D5041BABE739B8EFA8E3603"",""assignmentId"":""9253eca8-b747-47c0-8fd7-381bee18f0e0"",""projectId"":""9076ac92-be42-43a2-9634-8b67c7fe93a7""}","https://test12345.live/?num_scrambled_semantic=8&num_scrambled_causal=4&num_scrambled_schematic=4&participantId=622E7D8A2D5041BABE739B8EFA8E3603&assignmentId=9253eca8-b747-47c0-8fd7-381bee18f0e0&projectId=9076ac92-be42-43a2-9634-8b67c7fe93a7","622E7D8A2D5041BABE739B8EFA8E3603-2025-05-22-19-39-57","","null","","[]","null","",""
"","","","","","image-button-response","113","475725","0.0-14.0-1.0-0.8","622E7D8A2D5041BABE739B8EFA8E3603","622E7D8A2D5041BABE739B8EFA8E3603","9253eca8-b747-47c0-8fd7-381bee18f0e0","9076ac92-be42-43a2-9634-8b67c7fe93a7","{""num_scrambled_semantic"":""8"",""num_scrambled_causal"":""4"",""num_scrambled_schematic"":""4"",""participantId"":""622E7D8A2D5041BABE739B8EFA8E3603"",""assignmentId"":""9253eca8-b747-47c0-8fd7-381bee18f0e0"",""projectId"":""9076ac92-be42-43a2-9634-8b67c7fe93a7""}","https://test12345.live/?num_scrambled_semantic=8&num_scrambled_causal=4&num_scrambled_schematic=4&participantId=622E7D8A2D5041BABE739B8EFA8E3603&assignmentId=9253eca8-b747-47c0-8fd7-381bee18f0e0&projectId=9076ac92-be42-43a2-9634-8b67c7fe93a7","622E7D8A2D5041BABE739B8EFA8E3603-2025-05-22-19-39-57","","null","","images/semantic_sequence/creative_activities_semantic/creative_activities_semantic_3.png","null","",""
"","","","","","image-button-response","114","477248","0.0-14.0-1.0-1.8","622E7D8A2D5041BABE739B8EFA8E3603","622E7D8A2D5041BABE739B8EFA8E3603","9253eca8-b747-47c0-8fd7-381bee18f0e0","9076ac92-be42-43a2-9634-8b67c7fe93a7","{""num_scrambled_semantic"":""8"",""num_scrambled_causal"":""4"",""num_scrambled_schematic"":""4"",""participantId"":""622E7D8A2D5041BABE739B8EFA8E3603"",""assignmentId"":""9253eca8-b747-47c0-8fd7-381bee18f0e0"",""projectId"":""9076ac92-be42-43a2-9634-8b67c7fe93a7""}","https://test12345.live/?num_scrambled_semantic=8&num_scrambled_causal=4&num_scrambled_schematic=4&participantId=622E7D8A2D5041BABE739B8EFA8E3603&assignmentId=9253eca8-b747-47c0-8fd7-381bee18f0e0&projectId=9076ac92-be42-43a2-9634-8b67c7fe93a7","622E7D8A2D5041BABE739B8EFA8E3603-2025-05-22-19-39-57","","1521","","images/semantic_sequence/creative_activities_semantic/creative_activities_semantic_3.png","0","",""
