"success","timeout","failed_images","failed_audio","failed_video","trial_type","trial_index","time_elapsed","internal_node_id","subject","subject_id","study_id","session_id","urlvar","current_url","audio_id","view_history","rt","device_id","stimulus","response","estimated_stimulus_onset","seq_name"
"true","false","[]","[]","[]","preload","0","6079","0.0-0.0","622E7D8A2D5041BABE739B8EFA8E3603","622E7D8A2D5041BABE739B8EFA8E3603","0198ba0e-472c-7734-a773-b51ae027bb49","0198b9d0-29d4-7df3-8625-4b4515841beb","{""num_scrambled_semantic"":""8"",""num_scrambled_causal"":""4"",""num_scrambled_schematic"":""4"",""participantId"":""622E7D8A2D5041BABE739B8EFA8E3603"",""assignmentId"":""0198ba0e-472c-7734-a773-b51ae027bb49"",""projectId"":""0198b9d0-29d4-7df3-8625-4b4515841beb""}","https://test12345.live/?num_scrambled_semantic=8&num_scrambled_causal=4&num_scrambled_schematic=4&participantId=622E7D8A2D5041BABE739B8EFA8E3603&assignmentId=0198ba0e-472c-7734-a773-b51ae027bb49&projectId=0198b9d0-29d4-7df3-8625-4b4515841beb","622E7D8A2D5041BABE739B8EFA8E3603-2025-08-17-22-46-42","","","","","","",""
"","","","","","instructions","1","15560","0.0-1.0","622E7D8A2D5041BABE739B8EFA8E3603","622E7D8A2D5041BABE739B8EFA8E3603","0198ba0e-472c-7734-a773-b51ae027bb49","0198b9d0-29d4-7df3-8625-4b4515841beb","{""num_scrambled_semantic"":""8"",""num_scrambled_causal"":""4"",""num_scrambled_schematic"":""4"",""participantId"":""622E7D8A2D5041BABE739B8EFA8E3603"",""assignmentId"":""0198ba0e-472c-7734-a773-b51ae027bb49"",""projectId"":""0198b9d0-29d4-7df3-8625-4b4515841beb""}","https://test12345.live/?num_scrambled_semantic=8&num_scrambled_causal=4&num_scrambled_schematic=4&participantId=622E7D8A2D5041BABE739B8EFA8E3603&assignmentId=0198ba0e-472c-7734-a773-b51ae027bb49&projectId=0198b9d0-29d4-7df3-8625-4b4515841beb","622E7D8A2D5041BABE739B8EFA8E3603-2025-08-17-22-46-42","[{""page_index"":0,""viewing_time"":9478}]","9478","","","","",""
"","","","","","instructions","2","22760","0.0-2.0","622E7D8A2D5041BABE739B8EFA8E3603","622E7D8A2D5041BABE739B8EFA8E3603","0198ba0e-472c-7734-a773-b51ae027bb49","0198b9d0-29d4-7df3-8625-4b4515841beb","{""num_scrambled_semantic"":""8"",""num_scrambled_causal"":""4"",""num_scrambled_schematic"":""4"",""participantId"":""622E7D8A2D5041BABE739B8EFA8E3603"",""assignmentId"":""0198ba0e-472c-7734-a773-b51ae027bb49"",""projectId"":""0198b9d0-29d4-7df3-8625-4b4515841beb""}","https://test12345.live/?num_scrambled_semantic=8&num_scrambled_causal=4&num_scrambled_schematic=4&participantId=622E7D8A2D5041BABE739B8EFA8E3603&assignmentId=0198ba0e-472c-7734-a773-b51ae027bb49&projectId=0198b9d0-29d4-7df3-8625-4b4515841beb","622E7D8A2D5041BABE739B8EFA8E3603-2025-08-17-22-46-42","[{""page_index"":0,""viewing_time"":7199}]","7199","","","","",""
"true","","","","","fullscreen","3","39203","0.0-3.0","622E7D8A2D5041BABE739B8EFA8E3603","622E7D8A2D5041BABE739B8EFA8E3603","0198ba0e-472c-7734-a773-b51ae027bb49","0198b9d0-29d4-7df3-8625-4b4515841beb","{""num_scrambled_semantic"":""8"",""num_scrambled_causal"":""4"",""num_scrambled_schematic"":""4"",""participantId"":""622E7D8A2D5041BABE739B8EFA8E3603"",""assignmentId"":""0198ba0e-472c-7734-a773-b51ae027bb49"",""projectId"":""0198b9d0-29d4-7df3-8625-4b4515841beb""}","https://test12345.live/?num_scrambled_semantic=8&num_scrambled_causal=4&num_scrambled_schematic=4&participantId=622E7D8A2D5041BABE739B8EFA8E3603&assignmentId=0198ba0e-472c-7734-a773-b51ae027bb49&projectId=0198b9d0-29d4-7df3-8625-4b4515841beb","622E7D8A2D5041BABE739B8EFA8E3603-2025-08-17-22-46-42","","15431","","","","",""
"","","","","","initialize-microphone","4","42655","0.0-4.0-0.0","622E7D8A2D5041BABE739B8EFA8E3603","622E7D8A2D5041BABE739B8EFA8E3603","0198ba0e-472c-7734-a773-b51ae027bb49","0198b9d0-29d4-7df3-8625-4b4515841beb","{""num_scrambled_semantic"":""8"",""num_scrambled_causal"":""4"",""num_scrambled_schematic"":""4"",""participantId"":""622E7D8A2D5041BABE739B8EFA8E3603"",""assignmentId"":""0198ba0e-472c-7734-a773-b51ae027bb49"",""projectId"":""0198b9d0-29d4-7df3-8625-4b4515841beb""}","https://test12345.live/?num_scrambled_semantic=8&num_scrambled_causal=4&num_scrambled_schematic=4&participantId=622E7D8A2D5041BABE739B8EFA8E3603&assignmentId=0198ba0e-472c-7734-a773-b51ae027bb49&projectId=0198b9d0-29d4-7df3-8625-4b4515841beb","622E7D8A2D5041BABE739B8EFA8E3603-2025-08-17-22-46-42","","","6ce9167e6ef4d73569bed0a212a2d4c2111c0ab314a660a82ddf382faa32e6cd","","","",""
"","","","","","html-audio-response","5","51615","0.0-4.0-1.0","622E7D8A2D5041BABE739B8EFA8E3603","622E7D8A2D5041BABE739B8EFA8E3603","0198ba0e-472c-7734-a773-b51ae027bb49","0198b9d0-29d4-7df3-8625-4b4515841beb","{""num_scrambled_semantic"":""8"",""num_scrambled_causal"":""4"",""num_scrambled_schematic"":""4"",""participantId"":""622E7D8A2D5041BABE739B8EFA8E3603"",""assignmentId"":""0198ba0e-472c-7734-a773-b51ae027bb49"",""projectId"":""0198b9d0-29d4-7df3-8625-4b4515841beb""}","https://test12345.live/?num_scrambled_semantic=8&num_scrambled_causal=4&num_scrambled_schematic=4&participantId=622E7D8A2D5041BABE739B8EFA8E3603&assignmentId=0198ba0e-472c-7734-a773-b51ae027bb49&projectId=0198b9d0-29d4-7df3-8625-4b4515841beb","622E7D8A2D5041BABE739B8EFA8E3603-2025-08-17-22-46-42","","2589","","<span style=""color: red; font-size: 24px""> NOW RECORDING</span>
        <p>Please test Microphone</p>","","7",""
"","","","","","html-button-response","6","52847","0.0-4.0-2.0","622E7D8A2D5041BABE739B8EFA8E3603","622E7D8A2D5041BABE739B8EFA8E3603","0198ba0e-472c-7734-a773-b51ae027bb49","0198b9d0-29d4-7df3-8625-4b4515841beb","{""num_scrambled_semantic"":""8"",""num_scrambled_causal"":""4"",""num_scrambled_schematic"":""4"",""participantId"":""622E7D8A2D5041BABE739B8EFA8E3603"",""assignmentId"":""0198ba0e-472c-7734-a773-b51ae027bb49"",""projectId"":""0198b9d0-29d4-7df3-8625-4b4515841beb""}","https://test12345.live/?num_scrambled_semantic=8&num_scrambled_causal=4&num_scrambled_schematic=4&participantId=622E7D8A2D5041BABE739B8EFA8E3603&assignmentId=0198ba0e-472c-7734-a773-b51ae027bb49&projectId=0198b9d0-29d4-7df3-8625-4b4515841beb","622E7D8A2D5041BABE739B8EFA8E3603-2025-08-17-22-46-42","","1230","","<p style=""font-size:48px; color:red;"">Is Microphone OK?</p>","1","",""
"","","","","","instructions","7","80232","0.0-5.0","622E7D8A2D5041BABE739B8EFA8E3603","622E7D8A2D5041BABE739B8EFA8E3603","0198ba0e-472c-7734-a773-b51ae027bb49","0198b9d0-29d4-7df3-8625-4b4515841beb","{""num_scrambled_semantic"":""8"",""num_scrambled_causal"":""4"",""num_scrambled_schematic"":""4"",""participantId"":""622E7D8A2D5041BABE739B8EFA8E3603"",""assignmentId"":""0198ba0e-472c-7734-a773-b51ae027bb49"",""projectId"":""0198b9d0-29d4-7df3-8625-4b4515841beb""}","https://test12345.live/?num_scrambled_semantic=8&num_scrambled_causal=4&num_scrambled_schematic=4&participantId=622E7D8A2D5041BABE739B8EFA8E3603&assignmentId=0198ba0e-472c-7734-a773-b51ae027bb49&projectId=0198b9d0-29d4-7df3-8625-4b4515841beb","622E7D8A2D5041BABE739B8EFA8E3603-2025-08-17-22-46-42","[{""page_index"":0,""viewing_time"":3548},{""page_index"":1,""viewing_time"":23835}]","27384","","","","",""
"","","","","","image-button-response","8","86240","0.0-6.0-0.0","622E7D8A2D5041BABE739B8EFA8E3603","622E7D8A2D5041BABE739B8EFA8E3603","0198ba0e-472c-7734-a773-b51ae027bb49","0198b9d0-29d4-7df3-8625-4b4515841beb","{""num_scrambled_semantic"":""8"",""num_scrambled_causal"":""4"",""num_scrambled_schematic"":""4"",""participantId"":""622E7D8A2D5041BABE739B8EFA8E3603"",""assignmentId"":""0198ba0e-472c-7734-a773-b51ae027bb49"",""projectId"":""0198b9d0-29d4-7df3-8625-4b4515841beb""}","https://test12345.live/?num_scrambled_semantic=8&num_scrambled_causal=4&num_scrambled_schematic=4&participantId=622E7D8A2D5041BABE739B8EFA8E3603&assignmentId=0198ba0e-472c-7734-a773-b51ae027bb49&projectId=0198b9d0-29d4-7df3-8625-4b4515841beb","622E7D8A2D5041BABE739B8EFA8E3603-2025-08-17-22-46-42","","null","","images/instructions/movie_0.png","null","",""
"","","","","","image-button-response","9","90746","0.0-6.0-1.0-0.0","622E7D8A2D5041BABE739B8EFA8E3603","622E7D8A2D5041BABE739B8EFA8E3603","0198ba0e-472c-7734-a773-b51ae027bb49","0198b9d0-29d4-7df3-8625-4b4515841beb","{""num_scrambled_semantic"":""8"",""num_scrambled_causal"":""4"",""num_scrambled_schematic"":""4"",""participantId"":""622E7D8A2D5041BABE739B8EFA8E3603"",""assignmentId"":""0198ba0e-472c-7734-a773-b51ae027bb49"",""projectId"":""0198b9d0-29d4-7df3-8625-4b4515841beb""}","https://test12345.live/?num_scrambled_semantic=8&num_scrambled_causal=4&num_scrambled_schematic=4&participantId=622E7D8A2D5041BABE739B8EFA8E3603&assignmentId=0198ba0e-472c-7734-a773-b51ae027bb49&projectId=0198b9d0-29d4-7df3-8625-4b4515841beb","622E7D8A2D5041BABE739B8EFA8E3603-2025-08-17-22-46-42","","null","","images/instructions/movie_1.png","null","",""
"","","","","","image-button-response","10","94750","0.0-6.0-1.0-1.0","622E7D8A2D5041BABE739B8EFA8E3603","622E7D8A2D5041BABE739B8EFA8E3603","0198ba0e-472c-7734-a773-b51ae027bb49","0198b9d0-29d4-7df3-8625-4b4515841beb","{""num_scrambled_semantic"":""8"",""num_scrambled_causal"":""4"",""num_scrambled_schematic"":""4"",""participantId"":""622E7D8A2D5041BABE739B8EFA8E3603"",""assignmentId"":""0198ba0e-472c-7734-a773-b51ae027bb49"",""projectId"":""0198b9d0-29d4-7df3-8625-4b4515841beb""}","https://test12345.live/?num_scrambled_semantic=8&num_scrambled_causal=4&num_scrambled_schematic=4&participantId=622E7D8A2D5041BABE739B8EFA8E3603&assignmentId=0198ba0e-472c-7734-a773-b51ae027bb49&projectId=0198b9d0-29d4-7df3-8625-4b4515841beb","622E7D8A2D5041BABE739B8EFA8E3603-2025-08-17-22-46-42","","null","","images/instructions/movie_1.png","null","",""
"","","","","","image-button-response","11","100153","0.0-6.0-1.0-2.0","622E7D8A2D5041BABE739B8EFA8E3603","622E7D8A2D5041BABE739B8EFA8E3603","0198ba0e-472c-7734-a773-b51ae027bb49","0198b9d0-29d4-7df3-8625-4b4515841beb","{""num_scrambled_semantic"":""8"",""num_scrambled_causal"":""4"",""num_scrambled_schematic"":""4"",""participantId"":""622E7D8A2D5041BABE739B8EFA8E3603"",""assignmentId"":""0198ba0e-472c-7734-a773-b51ae027bb49"",""projectId"":""0198b9d0-29d4-7df3-8625-4b4515841beb""}","https://test12345.live/?num_scrambled_semantic=8&num_scrambled_causal=4&num_scrambled_schematic=4&participantId=622E7D8A2D5041BABE739B8EFA8E3603&assignmentId=0198ba0e-472c-7734-a773-b51ae027bb49&projectId=0198b9d0-29d4-7df3-8625-4b4515841beb","622E7D8A2D5041BABE739B8EFA8E3603-2025-08-17-22-46-42","","null","","[]","null","",""
"","","","","","image-button-response","12","104655","0.0-6.0-1.0-0.1","622E7D8A2D5041BABE739B8EFA8E3603","622E7D8A2D5041BABE739B8EFA8E3603","0198ba0e-472c-7734-a773-b51ae027bb49","0198b9d0-29d4-7df3-8625-4b4515841beb","{""num_scrambled_semantic"":""8"",""num_scrambled_causal"":""4"",""num_scrambled_schematic"":""4"",""participantId"":""622E7D8A2D5041BABE739B8EFA8E3603"",""assignmentId"":""0198ba0e-472c-7734-a773-b51ae027bb49"",""projectId"":""0198b9d0-29d4-7df3-8625-4b4515841beb""}","https://test12345.live/?num_scrambled_semantic=8&num_scrambled_causal=4&num_scrambled_schematic=4&participantId=622E7D8A2D5041BABE739B8EFA8E3603&assignmentId=0198ba0e-472c-7734-a773-b51ae027bb49&projectId=0198b9d0-29d4-7df3-8625-4b4515841beb","622E7D8A2D5041BABE739B8EFA8E3603-2025-08-17-22-46-42","","null","","images/instructions/movie_2.png","null","",""
"","","","","","image-button-response","13","105937","0.0-6.0-1.0-1.1","622E7D8A2D5041BABE739B8EFA8E3603","622E7D8A2D5041BABE739B8EFA8E3603","0198ba0e-472c-7734-a773-b51ae027bb49","0198b9d0-29d4-7df3-8625-4b4515841beb","{""num_scrambled_semantic"":""8"",""num_scrambled_causal"":""4"",""num_scrambled_schematic"":""4"",""participantId"":""622E7D8A2D5041BABE739B8EFA8E3603"",""assignmentId"":""0198ba0e-472c-7734-a773-b51ae027bb49"",""projectId"":""0198b9d0-29d4-7df3-8625-4b4515841beb""}","https://test12345.live/?num_scrambled_semantic=8&num_scrambled_causal=4&num_scrambled_schematic=4&participantId=622E7D8A2D5041BABE739B8EFA8E3603&assignmentId=0198ba0e-472c-7734-a773-b51ae027bb49&projectId=0198b9d0-29d4-7df3-8625-4b4515841beb","622E7D8A2D5041BABE739B8EFA8E3603-2025-08-17-22-46-42","","1280","","images/instructions/movie_2.png","0","",""
"","","","","","image-button-response","14","111340","0.0-6.0-1.0-2.1","622E7D8A2D5041BABE739B8EFA8E3603","622E7D8A2D5041BABE739B8EFA8E3603","0198ba0e-472c-7734-a773-b51ae027bb49","0198b9d0-29d4-7df3-8625-4b4515841beb","{""num_scrambled_semantic"":""8"",""num_scrambled_causal"":""4"",""num_scrambled_schematic"":""4"",""participantId"":""622E7D8A2D5041BABE739B8EFA8E3603"",""assignmentId"":""0198ba0e-472c-7734-a773-b51ae027bb49"",""projectId"":""0198b9d0-29d4-7df3-8625-4b4515841beb""}","https://test12345.live/?num_scrambled_semantic=8&num_scrambled_causal=4&num_scrambled_schematic=4&participantId=622E7D8A2D5041BABE739B8EFA8E3603&assignmentId=0198ba0e-472c-7734-a773-b51ae027bb49&projectId=0198b9d0-29d4-7df3-8625-4b4515841beb","622E7D8A2D5041BABE739B8EFA8E3603-2025-08-17-22-46-42","","null","","[]","null","",""
"","","","","","image-button-response","15","115842","0.0-6.0-1.0-0.2","622E7D8A2D5041BABE739B8EFA8E3603","622E7D8A2D5041BABE739B8EFA8E3603","0198ba0e-472c-7734-a773-b51ae027bb49","0198b9d0-29d4-7df3-8625-4b4515841beb","{""num_scrambled_semantic"":""8"",""num_scrambled_causal"":""4"",""num_scrambled_schematic"":""4"",""participantId"":""622E7D8A2D5041BABE739B8EFA8E3603"",""assignmentId"":""0198ba0e-472c-7734-a773-b51ae027bb49"",""projectId"":""0198b9d0-29d4-7df3-8625-4b4515841beb""}","https://test12345.live/?num_scrambled_semantic=8&num_scrambled_causal=4&num_scrambled_schematic=4&participantId=622E7D8A2D5041BABE739B8EFA8E3603&assignmentId=0198ba0e-472c-7734-a773-b51ae027bb49&projectId=0198b9d0-29d4-7df3-8625-4b4515841beb","622E7D8A2D5041BABE739B8EFA8E3603-2025-08-17-22-46-42","","null","","images/instructions/movie_3.png","null","",""
"","","","","","image-button-response","16","117088","0.0-6.0-1.0-1.2","622E7D8A2D5041BABE739B8EFA8E3603","622E7D8A2D5041BABE739B8EFA8E3603","0198ba0e-472c-7734-a773-b51ae027bb49","0198b9d0-29d4-7df3-8625-4b4515841beb","{""num_scrambled_semantic"":""8"",""num_scrambled_causal"":""4"",""num_scrambled_schematic"":""4"",""participantId"":""622E7D8A2D5041BABE739B8EFA8E3603"",""assignmentId"":""0198ba0e-472c-7734-a773-b51ae027bb49"",""projectId"":""0198b9d0-29d4-7df3-8625-4b4515841beb""}","https://test12345.live/?num_scrambled_semantic=8&num_scrambled_causal=4&num_scrambled_schematic=4&participantId=622E7D8A2D5041BABE739B8EFA8E3603&assignmentId=0198ba0e-472c-7734-a773-b51ae027bb49&projectId=0198b9d0-29d4-7df3-8625-4b4515841beb","622E7D8A2D5041BABE739B8EFA8E3603-2025-08-17-22-46-42","","1244","","images/instructions/movie_3.png","0","",""
"","","","","","image-button-response","17","122491","0.0-6.0-1.0-2.2","622E7D8A2D5041BABE739B8EFA8E3603","622E7D8A2D5041BABE739B8EFA8E3603","0198ba0e-472c-7734-a773-b51ae027bb49","0198b9d0-29d4-7df3-8625-4b4515841beb","{""num_scrambled_semantic"":""8"",""num_scrambled_causal"":""4"",""num_scrambled_schematic"":""4"",""participantId"":""622E7D8A2D5041BABE739B8EFA8E3603"",""assignmentId"":""0198ba0e-472c-7734-a773-b51ae027bb49"",""projectId"":""0198b9d0-29d4-7df3-8625-4b4515841beb""}","https://test12345.live/?num_scrambled_semantic=8&num_scrambled_causal=4&num_scrambled_schematic=4&participantId=622E7D8A2D5041BABE739B8EFA8E3603&assignmentId=0198ba0e-472c-7734-a773-b51ae027bb49&projectId=0198b9d0-29d4-7df3-8625-4b4515841beb","622E7D8A2D5041BABE739B8EFA8E3603-2025-08-17-22-46-42","","null","","[]","null","",""
"","","","","","image-button-response","18","126996","0.0-6.0-1.0-0.3","622E7D8A2D5041BABE739B8EFA8E3603","622E7D8A2D5041BABE739B8EFA8E3603","0198ba0e-472c-7734-a773-b51ae027bb49","0198b9d0-29d4-7df3-8625-4b4515841beb","{""num_scrambled_semantic"":""8"",""num_scrambled_causal"":""4"",""num_scrambled_schematic"":""4"",""participantId"":""622E7D8A2D5041BABE739B8EFA8E3603"",""assignmentId"":""0198ba0e-472c-7734-a773-b51ae027bb49"",""projectId"":""0198b9d0-29d4-7df3-8625-4b4515841beb""}","https://test12345.live/?num_scrambled_semantic=8&num_scrambled_causal=4&num_scrambled_schematic=4&participantId=622E7D8A2D5041BABE739B8EFA8E3603&assignmentId=0198ba0e-472c-7734-a773-b51ae027bb49&projectId=0198b9d0-29d4-7df3-8625-4b4515841beb","622E7D8A2D5041BABE739B8EFA8E3603-2025-08-17-22-46-42","","null","","images/instructions/movie_4.png","null","",""
"","","","","","image-button-response","19","128289","0.0-6.0-1.0-1.3","622E7D8A2D5041BABE739B8EFA8E3603","622E7D8A2D5041BABE739B8EFA8E3603","0198ba0e-472c-7734-a773-b51ae027bb49","0198b9d0-29d4-7df3-8625-4b4515841beb","{""num_scrambled_semantic"":""8"",""num_scrambled_causal"":""4"",""num_scrambled_schematic"":""4"",""participantId"":""622E7D8A2D5041BABE739B8EFA8E3603"",""assignmentId"":""0198ba0e-472c-7734-a773-b51ae027bb49"",""projectId"":""0198b9d0-29d4-7df3-8625-4b4515841beb""}","https://test12345.live/?num_scrambled_semantic=8&num_scrambled_causal=4&num_scrambled_schematic=4&participantId=622E7D8A2D5041BABE739B8EFA8E3603&assignmentId=0198ba0e-472c-7734-a773-b51ae027bb49&projectId=0198b9d0-29d4-7df3-8625-4b4515841beb","622E7D8A2D5041BABE739B8EFA8E3603-2025-08-17-22-46-42","","1291","","images/instructions/movie_4.png","0","",""
"","","","","","image-button-response","20","133697","0.0-6.0-1.0-2.3","622E7D8A2D5041BABE739B8EFA8E3603","622E7D8A2D5041BABE739B8EFA8E3603","0198ba0e-472c-7734-a773-b51ae027bb49","0198b9d0-29d4-7df3-8625-4b4515841beb","{""num_scrambled_semantic"":""8"",""num_scrambled_causal"":""4"",""num_scrambled_schematic"":""4"",""participantId"":""622E7D8A2D5041BABE739B8EFA8E3603"",""assignmentId"":""0198ba0e-472c-7734-a773-b51ae027bb49"",""projectId"":""0198b9d0-29d4-7df3-8625-4b4515841beb""}","https://test12345.live/?num_scrambled_semantic=8&num_scrambled_causal=4&num_scrambled_schematic=4&participantId=622E7D8A2D5041BABE739B8EFA8E3603&assignmentId=0198ba0e-472c-7734-a773-b51ae027bb49&projectId=0198b9d0-29d4-7df3-8625-4b4515841beb","622E7D8A2D5041BABE739B8EFA8E3603-2025-08-17-22-46-42","","null","","[]","null","",""
"","","","","","instructions","21","139607","0.0-7.0","622E7D8A2D5041BABE739B8EFA8E3603","622E7D8A2D5041BABE739B8EFA8E3603","0198ba0e-472c-7734-a773-b51ae027bb49","0198b9d0-29d4-7df3-8625-4b4515841beb","{""num_scrambled_semantic"":""8"",""num_scrambled_causal"":""4"",""num_scrambled_schematic"":""4"",""participantId"":""622E7D8A2D5041BABE739B8EFA8E3603"",""assignmentId"":""0198ba0e-472c-7734-a773-b51ae027bb49"",""projectId"":""0198b9d0-29d4-7df3-8625-4b4515841beb""}","https://test12345.live/?num_scrambled_semantic=8&num_scrambled_causal=4&num_scrambled_schematic=4&participantId=622E7D8A2D5041BABE739B8EFA8E3603&assignmentId=0198ba0e-472c-7734-a773-b51ae027bb49&projectId=0198b9d0-29d4-7df3-8625-4b4515841beb","622E7D8A2D5041BABE739B8EFA8E3603-2025-08-17-22-46-42","[{""page_index"":0,""viewing_time"":5072},{""page_index"":1,""viewing_time"":838}]","5910","","","","",""
"","","","","","html-audio-response","22","164494","0.0-8.0","622E7D8A2D5041BABE739B8EFA8E3603","622E7D8A2D5041BABE739B8EFA8E3603","0198ba0e-472c-7734-a773-b51ae027bb49","0198b9d0-29d4-7df3-8625-4b4515841beb","{""num_scrambled_semantic"":""8"",""num_scrambled_causal"":""4"",""num_scrambled_schematic"":""4"",""participantId"":""622E7D8A2D5041BABE739B8EFA8E3603"",""assignmentId"":""0198ba0e-472c-7734-a773-b51ae027bb49"",""projectId"":""0198b9d0-29d4-7df3-8625-4b4515841beb""}","https://test12345.live/?num_scrambled_semantic=8&num_scrambled_causal=4&num_scrambled_schematic=4&participantId=622E7D8A2D5041BABE739B8EFA8E3603&assignmentId=0198ba0e-472c-7734-a773-b51ae027bb49&projectId=0198b9d0-29d4-7df3-8625-4b4515841beb","622E7D8A2D5041BABE739B8EFA8E3603-2025-08-17-22-46-42","","13605","","[""<span style=\""color: red; font-size: 24px\""> NOW RECORDING</span><p>Please say out loud all the images you saw, as many as you can remember. The images can be said in any order.</p>""]","","5",""
"","","","","","instructions","23","165544","0.0-9.0","622E7D8A2D5041BABE739B8EFA8E3603","622E7D8A2D5041BABE739B8EFA8E3603","0198ba0e-472c-7734-a773-b51ae027bb49","0198b9d0-29d4-7df3-8625-4b4515841beb","{""num_scrambled_semantic"":""8"",""num_scrambled_causal"":""4"",""num_scrambled_schematic"":""4"",""participantId"":""622E7D8A2D5041BABE739B8EFA8E3603"",""assignmentId"":""0198ba0e-472c-7734-a773-b51ae027bb49"",""projectId"":""0198b9d0-29d4-7df3-8625-4b4515841beb""}","https://test12345.live/?num_scrambled_semantic=8&num_scrambled_causal=4&num_scrambled_schematic=4&participantId=622E7D8A2D5041BABE739B8EFA8E3603&assignmentId=0198ba0e-472c-7734-a773-b51ae027bb49&projectId=0198b9d0-29d4-7df3-8625-4b4515841beb","622E7D8A2D5041BABE739B8EFA8E3603-2025-08-17-22-46-42","[{""page_index"":0,""viewing_time"":1040}]","1040","","","","",""
"","","","","","image-button-response","24","171547","0.0-10.0-0.0","622E7D8A2D5041BABE739B8EFA8E3603","622E7D8A2D5041BABE739B8EFA8E3603","0198ba0e-472c-7734-a773-b51ae027bb49","0198b9d0-29d4-7df3-8625-4b4515841beb","{""num_scrambled_semantic"":""8"",""num_scrambled_causal"":""4"",""num_scrambled_schematic"":""4"",""participantId"":""622E7D8A2D5041BABE739B8EFA8E3603"",""assignmentId"":""0198ba0e-472c-7734-a773-b51ae027bb49"",""projectId"":""0198b9d0-29d4-7df3-8625-4b4515841beb""}","https://test12345.live/?num_scrambled_semantic=8&num_scrambled_causal=4&num_scrambled_schematic=4&participantId=622E7D8A2D5041BABE739B8EFA8E3603&assignmentId=0198ba0e-472c-7734-a773-b51ae027bb49&projectId=0198b9d0-29d4-7df3-8625-4b4515841beb","622E7D8A2D5041BABE739B8EFA8E3603-2025-08-17-22-46-42","","null","","images/semantic_sequence/maintaining_a_car_semantic/maintaining_a_car_semantic_0.png","null","",""
"","","","","","image-button-response","25","176054","0.0-10.0-1.0-0.0","622E7D8A2D5041BABE739B8EFA8E3603","622E7D8A2D5041BABE739B8EFA8E3603","0198ba0e-472c-7734-a773-b51ae027bb49","0198b9d0-29d4-7df3-8625-4b4515841beb","{""num_scrambled_semantic"":""8"",""num_scrambled_causal"":""4"",""num_scrambled_schematic"":""4"",""participantId"":""622E7D8A2D5041BABE739B8EFA8E3603"",""assignmentId"":""0198ba0e-472c-7734-a773-b51ae027bb49"",""projectId"":""0198b9d0-29d4-7df3-8625-4b4515841beb""}","https://test12345.live/?num_scrambled_semantic=8&num_scrambled_causal=4&num_scrambled_schematic=4&participantId=622E7D8A2D5041BABE739B8EFA8E3603&assignmentId=0198ba0e-472c-7734-a773-b51ae027bb49&projectId=0198b9d0-29d4-7df3-8625-4b4515841beb","622E7D8A2D5041BABE739B8EFA8E3603-2025-08-17-22-46-42","","null","","images/semantic_sequence/maintaining_a_car_semantic/maintaining_a_car_semantic_3.png","null","",""
"","","","","","image-button-response","26","178010","0.0-10.0-1.0-1.0","622E7D8A2D5041BABE739B8EFA8E3603","622E7D8A2D5041BABE739B8EFA8E3603","0198ba0e-472c-7734-a773-b51ae027bb49","0198b9d0-29d4-7df3-8625-4b4515841beb","{""num_scrambled_semantic"":""8"",""num_scrambled_causal"":""4"",""num_scrambled_schematic"":""4"",""participantId"":""622E7D8A2D5041BABE739B8EFA8E3603"",""assignmentId"":""0198ba0e-472c-7734-a773-b51ae027bb49"",""projectId"":""0198b9d0-29d4-7df3-8625-4b4515841beb""}","https://test12345.live/?num_scrambled_semantic=8&num_scrambled_causal=4&num_scrambled_schematic=4&participantId=622E7D8A2D5041BABE739B8EFA8E3603&assignmentId=0198ba0e-472c-7734-a773-b51ae027bb49&projectId=0198b9d0-29d4-7df3-8625-4b4515841beb","622E7D8A2D5041BABE739B8EFA8E3603-2025-08-17-22-46-42","","1954","","images/semantic_sequence/maintaining_a_car_semantic/maintaining_a_car_semantic_3.png","0","",""
"","","","","","image-button-response","27","183412","0.0-10.0-1.0-2.0","622E7D8A2D5041BABE739B8EFA8E3603","622E7D8A2D5041BABE739B8EFA8E3603","0198ba0e-472c-7734-a773-b51ae027bb49","0198b9d0-29d4-7df3-8625-4b4515841beb","{""num_scrambled_semantic"":""8"",""num_scrambled_causal"":""4"",""num_scrambled_schematic"":""4"",""participantId"":""622E7D8A2D5041BABE739B8EFA8E3603"",""assignmentId"":""0198ba0e-472c-7734-a773-b51ae027bb49"",""projectId"":""0198b9d0-29d4-7df3-8625-4b4515841beb""}","https://test12345.live/?num_scrambled_semantic=8&num_scrambled_causal=4&num_scrambled_schematic=4&participantId=622E7D8A2D5041BABE739B8EFA8E3603&assignmentId=0198ba0e-472c-7734-a773-b51ae027bb49&projectId=0198b9d0-29d4-7df3-8625-4b4515841beb","622E7D8A2D5041BABE739B8EFA8E3603-2025-08-17-22-46-42","","null","","[]","null","",""
"","","","","","image-button-response","28","187918","0.0-10.0-1.0-0.1","622E7D8A2D5041BABE739B8EFA8E3603","622E7D8A2D5041BABE739B8EFA8E3603","0198ba0e-472c-7734-a773-b51ae027bb49","0198b9d0-29d4-7df3-8625-4b4515841beb","{""num_scrambled_semantic"":""8"",""num_scrambled_causal"":""4"",""num_scrambled_schematic"":""4"",""participantId"":""622E7D8A2D5041BABE739B8EFA8E3603"",""assignmentId"":""0198ba0e-472c-7734-a773-b51ae027bb49"",""projectId"":""0198b9d0-29d4-7df3-8625-4b4515841beb""}","https://test12345.live/?num_scrambled_semantic=8&num_scrambled_causal=4&num_scrambled_schematic=4&participantId=622E7D8A2D5041BABE739B8EFA8E3603&assignmentId=0198ba0e-472c-7734-a773-b51ae027bb49&projectId=0198b9d0-29d4-7df3-8625-4b4515841beb","622E7D8A2D5041BABE739B8EFA8E3603-2025-08-17-22-46-42","","null","","images/semantic_sequence/maintaining_a_car_semantic/maintaining_a_car_semantic_5.png","null","",""
"","","","","","image-button-response","29","189175","0.0-10.0-1.0-1.1","622E7D8A2D5041BABE739B8EFA8E3603","622E7D8A2D5041BABE739B8EFA8E3603","0198ba0e-472c-7734-a773-b51ae027bb49","0198b9d0-29d4-7df3-8625-4b4515841beb","{""num_scrambled_semantic"":""8"",""num_scrambled_causal"":""4"",""num_scrambled_schematic"":""4"",""participantId"":""622E7D8A2D5041BABE739B8EFA8E3603"",""assignmentId"":""0198ba0e-472c-7734-a773-b51ae027bb49"",""projectId"":""0198b9d0-29d4-7df3-8625-4b4515841beb""}","https://test12345.live/?num_scrambled_semantic=8&num_scrambled_causal=4&num_scrambled_schematic=4&participantId=622E7D8A2D5041BABE739B8EFA8E3603&assignmentId=0198ba0e-472c-7734-a773-b51ae027bb49&projectId=0198b9d0-29d4-7df3-8625-4b4515841beb","622E7D8A2D5041BABE739B8EFA8E3603-2025-08-17-22-46-42","","1256","","images/semantic_sequence/maintaining_a_car_semantic/maintaining_a_car_semantic_5.png","0","",""
"","","","","","image-button-response","30","194578","0.0-10.0-1.0-2.1","622E7D8A2D5041BABE739B8EFA8E3603","622E7D8A2D5041BABE739B8EFA8E3603","0198ba0e-472c-7734-a773-b51ae027bb49","0198b9d0-29d4-7df3-8625-4b4515841beb","{""num_scrambled_semantic"":""8"",""num_scrambled_causal"":""4"",""num_scrambled_schematic"":""4"",""participantId"":""622E7D8A2D5041BABE739B8EFA8E3603"",""assignmentId"":""0198ba0e-472c-7734-a773-b51ae027bb49"",""projectId"":""0198b9d0-29d4-7df3-8625-4b4515841beb""}","https://test12345.live/?num_scrambled_semantic=8&num_scrambled_causal=4&num_scrambled_schematic=4&participantId=622E7D8A2D5041BABE739B8EFA8E3603&assignmentId=0198ba0e-472c-7734-a773-b51ae027bb49&projectId=0198b9d0-29d4-7df3-8625-4b4515841beb","622E7D8A2D5041BABE739B8EFA8E3603-2025-08-17-22-46-42","","null","","[]","null","",""
"","","","","","image-button-response","31","199082","0.0-10.0-1.0-0.2","622E7D8A2D5041BABE739B8EFA8E3603","622E7D8A2D5041BABE739B8EFA8E3603","0198ba0e-472c-7734-a773-b51ae027bb49","0198b9d0-29d4-7df3-8625-4b4515841beb","{""num_scrambled_semantic"":""8"",""num_scrambled_causal"":""4"",""num_scrambled_schematic"":""4"",""participantId"":""622E7D8A2D5041BABE739B8EFA8E3603"",""assignmentId"":""0198ba0e-472c-7734-a773-b51ae027bb49"",""projectId"":""0198b9d0-29d4-7df3-8625-4b4515841beb""}","https://test12345.live/?num_scrambled_semantic=8&num_scrambled_causal=4&num_scrambled_schematic=4&participantId=622E7D8A2D5041BABE739B8EFA8E3603&assignmentId=0198ba0e-472c-7734-a773-b51ae027bb49&projectId=0198b9d0-29d4-7df3-8625-4b4515841beb","622E7D8A2D5041BABE739B8EFA8E3603-2025-08-17-22-46-42","","null","","images/semantic_sequence/maintaining_a_car_semantic/maintaining_a_car_semantic_1.png","null","",""
"","","","","","image-button-response","32","200625","0.0-10.0-1.0-1.2","622E7D8A2D5041BABE739B8EFA8E3603","622E7D8A2D5041BABE739B8EFA8E3603","0198ba0e-472c-7734-a773-b51ae027bb49","0198b9d0-29d4-7df3-8625-4b4515841beb","{""num_scrambled_semantic"":""8"",""num_scrambled_causal"":""4"",""num_scrambled_schematic"":""4"",""participantId"":""622E7D8A2D5041BABE739B8EFA8E3603"",""assignmentId"":""0198ba0e-472c-7734-a773-b51ae027bb49"",""projectId"":""0198b9d0-29d4-7df3-8625-4b4515841beb""}","https://test12345.live/?num_scrambled_semantic=8&num_scrambled_causal=4&num_scrambled_schematic=4&participantId=622E7D8A2D5041BABE739B8EFA8E3603&assignmentId=0198ba0e-472c-7734-a773-b51ae027bb49&projectId=0198b9d0-29d4-7df3-8625-4b4515841beb","622E7D8A2D5041BABE739B8EFA8E3603-2025-08-17-22-46-42","","1541","","images/semantic_sequence/maintaining_a_car_semantic/maintaining_a_car_semantic_1.png","0","",""
"","","","","","image-button-response","33","206032","0.0-10.0-1.0-2.2","622E7D8A2D5041BABE739B8EFA8E3603","622E7D8A2D5041BABE739B8EFA8E3603","0198ba0e-472c-7734-a773-b51ae027bb49","0198b9d0-29d4-7df3-8625-4b4515841beb","{""num_scrambled_semantic"":""8"",""num_scrambled_causal"":""4"",""num_scrambled_schematic"":""4"",""participantId"":""622E7D8A2D5041BABE739B8EFA8E3603"",""assignmentId"":""0198ba0e-472c-7734-a773-b51ae027bb49"",""projectId"":""0198b9d0-29d4-7df3-8625-4b4515841beb""}","https://test12345.live/?num_scrambled_semantic=8&num_scrambled_causal=4&num_scrambled_schematic=4&participantId=622E7D8A2D5041BABE739B8EFA8E3603&assignmentId=0198ba0e-472c-7734-a773-b51ae027bb49&projectId=0198b9d0-29d4-7df3-8625-4b4515841beb","622E7D8A2D5041BABE739B8EFA8E3603-2025-08-17-22-46-42","","null","","[]","null","",""
"","","","","","image-button-response","34","210538","0.0-10.0-1.0-0.3","622E7D8A2D5041BABE739B8EFA8E3603","622E7D8A2D5041BABE739B8EFA8E3603","0198ba0e-472c-7734-a773-b51ae027bb49","0198b9d0-29d4-7df3-8625-4b4515841beb","{""num_scrambled_semantic"":""8"",""num_scrambled_causal"":""4"",""num_scrambled_schematic"":""4"",""participantId"":""622E7D8A2D5041BABE739B8EFA8E3603"",""assignmentId"":""0198ba0e-472c-7734-a773-b51ae027bb49"",""projectId"":""0198b9d0-29d4-7df3-8625-4b4515841beb""}","https://test12345.live/?num_scrambled_semantic=8&num_scrambled_causal=4&num_scrambled_schematic=4&participantId=622E7D8A2D5041BABE739B8EFA8E3603&assignmentId=0198ba0e-472c-7734-a773-b51ae027bb49&projectId=0198b9d0-29d4-7df3-8625-4b4515841beb","622E7D8A2D5041BABE739B8EFA8E3603-2025-08-17-22-46-42","","null","","images/semantic_sequence/maintaining_a_car_semantic/maintaining_a_car_semantic_4.png","null","",""
"","","","","","image-button-response","35","211497","0.0-10.0-1.0-1.3","622E7D8A2D5041BABE739B8EFA8E3603","622E7D8A2D5041BABE739B8EFA8E3603","0198ba0e-472c-7734-a773-b51ae027bb49","0198b9d0-29d4-7df3-8625-4b4515841beb","{""num_scrambled_semantic"":""8"",""num_scrambled_causal"":""4"",""num_scrambled_schematic"":""4"",""participantId"":""622E7D8A2D5041BABE739B8EFA8E3603"",""assignmentId"":""0198ba0e-472c-7734-a773-b51ae027bb49"",""projectId"":""0198b9d0-29d4-7df3-8625-4b4515841beb""}","https://test12345.live/?num_scrambled_semantic=8&num_scrambled_causal=4&num_scrambled_schematic=4&participantId=622E7D8A2D5041BABE739B8EFA8E3603&assignmentId=0198ba0e-472c-7734-a773-b51ae027bb49&projectId=0198b9d0-29d4-7df3-8625-4b4515841beb","622E7D8A2D5041BABE739B8EFA8E3603-2025-08-17-22-46-42","","957","","images/semantic_sequence/maintaining_a_car_semantic/maintaining_a_car_semantic_4.png","0","",""
"","","","","","image-button-response","36","216902","0.0-10.0-1.0-2.3","622E7D8A2D5041BABE739B8EFA8E3603","622E7D8A2D5041BABE739B8EFA8E3603","0198ba0e-472c-7734-a773-b51ae027bb49","0198b9d0-29d4-7df3-8625-4b4515841beb","{""num_scrambled_semantic"":""8"",""num_scrambled_causal"":""4"",""num_scrambled_schematic"":""4"",""participantId"":""622E7D8A2D5041BABE739B8EFA8E3603"",""assignmentId"":""0198ba0e-472c-7734-a773-b51ae027bb49"",""projectId"":""0198b9d0-29d4-7df3-8625-4b4515841beb""}","https://test12345.live/?num_scrambled_semantic=8&num_scrambled_causal=4&num_scrambled_schematic=4&participantId=622E7D8A2D5041BABE739B8EFA8E3603&assignmentId=0198ba0e-472c-7734-a773-b51ae027bb49&projectId=0198b9d0-29d4-7df3-8625-4b4515841beb","622E7D8A2D5041BABE739B8EFA8E3603-2025-08-17-22-46-42","","null","","[]","null","",""
"","","","","","image-button-response","37","221408","0.0-10.0-1.0-0.4","622E7D8A2D5041BABE739B8EFA8E3603","622E7D8A2D5041BABE739B8EFA8E3603","0198ba0e-472c-7734-a773-b51ae027bb49","0198b9d0-29d4-7df3-8625-4b4515841beb","{""num_scrambled_semantic"":""8"",""num_scrambled_causal"":""4"",""num_scrambled_schematic"":""4"",""participantId"":""622E7D8A2D5041BABE739B8EFA8E3603"",""assignmentId"":""0198ba0e-472c-7734-a773-b51ae027bb49"",""projectId"":""0198b9d0-29d4-7df3-8625-4b4515841beb""}","https://test12345.live/?num_scrambled_semantic=8&num_scrambled_causal=4&num_scrambled_schematic=4&participantId=622E7D8A2D5041BABE739B8EFA8E3603&assignmentId=0198ba0e-472c-7734-a773-b51ae027bb49&projectId=0198b9d0-29d4-7df3-8625-4b4515841beb","622E7D8A2D5041BABE739B8EFA8E3603-2025-08-17-22-46-42","","null","","images/semantic_sequence/maintaining_a_car_semantic/maintaining_a_car_semantic_ten.png","null","",""
"","","","","","image-button-response","38","222294","0.0-10.0-1.0-1.4","622E7D8A2D5041BABE739B8EFA8E3603","622E7D8A2D5041BABE739B8EFA8E3603","0198ba0e-472c-7734-a773-b51ae027bb49","0198b9d0-29d4-7df3-8625-4b4515841beb","{""num_scrambled_semantic"":""8"",""num_scrambled_causal"":""4"",""num_scrambled_schematic"":""4"",""participantId"":""622E7D8A2D5041BABE739B8EFA8E3603"",""assignmentId"":""0198ba0e-472c-7734-a773-b51ae027bb49"",""projectId"":""0198b9d0-29d4-7df3-8625-4b4515841beb""}","https://test12345.live/?num_scrambled_semantic=8&num_scrambled_causal=4&num_scrambled_schematic=4&participantId=622E7D8A2D5041BABE739B8EFA8E3603&assignmentId=0198ba0e-472c-7734-a773-b51ae027bb49&projectId=0198b9d0-29d4-7df3-8625-4b4515841beb","622E7D8A2D5041BABE739B8EFA8E3603-2025-08-17-22-46-42","","884","","images/semantic_sequence/maintaining_a_car_semantic/maintaining_a_car_semantic_ten.png","0","",""
"","","","","","image-button-response","39","227698","0.0-10.0-1.0-2.4","622E7D8A2D5041BABE739B8EFA8E3603","622E7D8A2D5041BABE739B8EFA8E3603","0198ba0e-472c-7734-a773-b51ae027bb49","0198b9d0-29d4-7df3-8625-4b4515841beb","{""num_scrambled_semantic"":""8"",""num_scrambled_causal"":""4"",""num_scrambled_schematic"":""4"",""participantId"":""622E7D8A2D5041BABE739B8EFA8E3603"",""assignmentId"":""0198ba0e-472c-7734-a773-b51ae027bb49"",""projectId"":""0198b9d0-29d4-7df3-8625-4b4515841beb""}","https://test12345.live/?num_scrambled_semantic=8&num_scrambled_causal=4&num_scrambled_schematic=4&participantId=622E7D8A2D5041BABE739B8EFA8E3603&assignmentId=0198ba0e-472c-7734-a773-b51ae027bb49&projectId=0198b9d0-29d4-7df3-8625-4b4515841beb","622E7D8A2D5041BABE739B8EFA8E3603-2025-08-17-22-46-42","","null","","[]","null","",""
"","","","","","image-button-response","40","232202","0.0-10.0-1.0-0.5","622E7D8A2D5041BABE739B8EFA8E3603","622E7D8A2D5041BABE739B8EFA8E3603","0198ba0e-472c-7734-a773-b51ae027bb49","0198b9d0-29d4-7df3-8625-4b4515841beb","{""num_scrambled_semantic"":""8"",""num_scrambled_causal"":""4"",""num_scrambled_schematic"":""4"",""participantId"":""622E7D8A2D5041BABE739B8EFA8E3603"",""assignmentId"":""0198ba0e-472c-7734-a773-b51ae027bb49"",""projectId"":""0198b9d0-29d4-7df3-8625-4b4515841beb""}","https://test12345.live/?num_scrambled_semantic=8&num_scrambled_causal=4&num_scrambled_schematic=4&participantId=622E7D8A2D5041BABE739B8EFA8E3603&assignmentId=0198ba0e-472c-7734-a773-b51ae027bb49&projectId=0198b9d0-29d4-7df3-8625-4b4515841beb","622E7D8A2D5041BABE739B8EFA8E3603-2025-08-17-22-46-42","","null","","images/semantic_sequence/maintaining_a_car_semantic/maintaining_a_car_semantic_2.png","null","",""
"","","","","","image-button-response","41","234763","0.0-10.0-1.0-1.5","622E7D8A2D5041BABE739B8EFA8E3603","622E7D8A2D5041BABE739B8EFA8E3603","0198ba0e-472c-7734-a773-b51ae027bb49","0198b9d0-29d4-7df3-8625-4b4515841beb","{""num_scrambled_semantic"":""8"",""num_scrambled_causal"":""4"",""num_scrambled_schematic"":""4"",""participantId"":""622E7D8A2D5041BABE739B8EFA8E3603"",""assignmentId"":""0198ba0e-472c-7734-a773-b51ae027bb49"",""projectId"":""0198b9d0-29d4-7df3-8625-4b4515841beb""}","https://test12345.live/?num_scrambled_semantic=8&num_scrambled_causal=4&num_scrambled_schematic=4&participantId=622E7D8A2D5041BABE739B8EFA8E3603&assignmentId=0198ba0e-472c-7734-a773-b51ae027bb49&projectId=0198b9d0-29d4-7df3-8625-4b4515841beb","622E7D8A2D5041BABE739B8EFA8E3603-2025-08-17-22-46-42","","2558","","images/semantic_sequence/maintaining_a_car_semantic/maintaining_a_car_semantic_2.png","0","",""
"","","","","","image-button-response","42","240168","0.0-10.0-1.0-2.5","622E7D8A2D5041BABE739B8EFA8E3603","622E7D8A2D5041BABE739B8EFA8E3603","0198ba0e-472c-7734-a773-b51ae027bb49","0198b9d0-29d4-7df3-8625-4b4515841beb","{""num_scrambled_semantic"":""8"",""num_scrambled_causal"":""4"",""num_scrambled_schematic"":""4"",""participantId"":""622E7D8A2D5041BABE739B8EFA8E3603"",""assignmentId"":""0198ba0e-472c-7734-a773-b51ae027bb49"",""projectId"":""0198b9d0-29d4-7df3-8625-4b4515841beb""}","https://test12345.live/?num_scrambled_semantic=8&num_scrambled_causal=4&num_scrambled_schematic=4&participantId=622E7D8A2D5041BABE739B8EFA8E3603&assignmentId=0198ba0e-472c-7734-a773-b51ae027bb49&projectId=0198b9d0-29d4-7df3-8625-4b4515841beb","622E7D8A2D5041BABE739B8EFA8E3603-2025-08-17-22-46-42","","null","","[]","null","",""
"","","","","","image-button-response","43","244673","0.0-10.0-1.0-0.6","622E7D8A2D5041BABE739B8EFA8E3603","622E7D8A2D5041BABE739B8EFA8E3603","0198ba0e-472c-7734-a773-b51ae027bb49","0198b9d0-29d4-7df3-8625-4b4515841beb","{""num_scrambled_semantic"":""8"",""num_scrambled_causal"":""4"",""num_scrambled_schematic"":""4"",""participantId"":""622E7D8A2D5041BABE739B8EFA8E3603"",""assignmentId"":""0198ba0e-472c-7734-a773-b51ae027bb49"",""projectId"":""0198b9d0-29d4-7df3-8625-4b4515841beb""}","https://test12345.live/?num_scrambled_semantic=8&num_scrambled_causal=4&num_scrambled_schematic=4&participantId=622E7D8A2D5041BABE739B8EFA8E3603&assignmentId=0198ba0e-472c-7734-a773-b51ae027bb49&projectId=0198b9d0-29d4-7df3-8625-4b4515841beb","622E7D8A2D5041BABE739B8EFA8E3603-2025-08-17-22-46-42","","null","","images/semantic_sequence/maintaining_a_car_semantic/maintaining_a_car_semantic_8.png","null","",""
"","","","","","image-button-response","44","246151","0.0-10.0-1.0-1.6","622E7D8A2D5041BABE739B8EFA8E3603","622E7D8A2D5041BABE739B8EFA8E3603","0198ba0e-472c-7734-a773-b51ae027bb49","0198b9d0-29d4-7df3-8625-4b4515841beb","{""num_scrambled_semantic"":""8"",""num_scrambled_causal"":""4"",""num_scrambled_schematic"":""4"",""participantId"":""622E7D8A2D5041BABE739B8EFA8E3603"",""assignmentId"":""0198ba0e-472c-7734-a773-b51ae027bb49"",""projectId"":""0198b9d0-29d4-7df3-8625-4b4515841beb""}","https://test12345.live/?num_scrambled_semantic=8&num_scrambled_causal=4&num_scrambled_schematic=4&participantId=622E7D8A2D5041BABE739B8EFA8E3603&assignmentId=0198ba0e-472c-7734-a773-b51ae027bb49&projectId=0198b9d0-29d4-7df3-8625-4b4515841beb","622E7D8A2D5041BABE739B8EFA8E3603-2025-08-17-22-46-42","","1477","","images/semantic_sequence/maintaining_a_car_semantic/maintaining_a_car_semantic_8.png","0","",""
"","","","","","image-button-response","45","251558","0.0-10.0-1.0-2.6","622E7D8A2D5041BABE739B8EFA8E3603","622E7D8A2D5041BABE739B8EFA8E3603","0198ba0e-472c-7734-a773-b51ae027bb49","0198b9d0-29d4-7df3-8625-4b4515841beb","{""num_scrambled_semantic"":""8"",""num_scrambled_causal"":""4"",""num_scrambled_schematic"":""4"",""participantId"":""622E7D8A2D5041BABE739B8EFA8E3603"",""assignmentId"":""0198ba0e-472c-7734-a773-b51ae027bb49"",""projectId"":""0198b9d0-29d4-7df3-8625-4b4515841beb""}","https://test12345.live/?num_scrambled_semantic=8&num_scrambled_causal=4&num_scrambled_schematic=4&participantId=622E7D8A2D5041BABE739B8EFA8E3603&assignmentId=0198ba0e-472c-7734-a773-b51ae027bb49&projectId=0198b9d0-29d4-7df3-8625-4b4515841beb","622E7D8A2D5041BABE739B8EFA8E3603-2025-08-17-22-46-42","","null","","[]","null","",""
"","","","","","image-button-response","46","256061","0.0-10.0-1.0-0.7","622E7D8A2D5041BABE739B8EFA8E3603","622E7D8A2D5041BABE739B8EFA8E3603","0198ba0e-472c-7734-a773-b51ae027bb49","0198b9d0-29d4-7df3-8625-4b4515841beb","{""num_scrambled_semantic"":""8"",""num_scrambled_causal"":""4"",""num_scrambled_schematic"":""4"",""participantId"":""622E7D8A2D5041BABE739B8EFA8E3603"",""assignmentId"":""0198ba0e-472c-7734-a773-b51ae027bb49"",""projectId"":""0198b9d0-29d4-7df3-8625-4b4515841beb""}","https://test12345.live/?num_scrambled_semantic=8&num_scrambled_causal=4&num_scrambled_schematic=4&participantId=622E7D8A2D5041BABE739B8EFA8E3603&assignmentId=0198ba0e-472c-7734-a773-b51ae027bb49&projectId=0198b9d0-29d4-7df3-8625-4b4515841beb","622E7D8A2D5041BABE739B8EFA8E3603-2025-08-17-22-46-42","","null","","images/semantic_sequence/maintaining_a_car_semantic/maintaining_a_car_semantic_7.png","null","",""
"","","","","","image-button-response","47","257414","0.0-10.0-1.0-1.7","622E7D8A2D5041BABE739B8EFA8E3603","622E7D8A2D5041BABE739B8EFA8E3603","0198ba0e-472c-7734-a773-b51ae027bb49","0198b9d0-29d4-7df3-8625-4b4515841beb","{""num_scrambled_semantic"":""8"",""num_scrambled_causal"":""4"",""num_scrambled_schematic"":""4"",""participantId"":""622E7D8A2D5041BABE739B8EFA8E3603"",""assignmentId"":""0198ba0e-472c-7734-a773-b51ae027bb49"",""projectId"":""0198b9d0-29d4-7df3-8625-4b4515841beb""}","https://test12345.live/?num_scrambled_semantic=8&num_scrambled_causal=4&num_scrambled_schematic=4&participantId=622E7D8A2D5041BABE739B8EFA8E3603&assignmentId=0198ba0e-472c-7734-a773-b51ae027bb49&projectId=0198b9d0-29d4-7df3-8625-4b4515841beb","622E7D8A2D5041BABE739B8EFA8E3603-2025-08-17-22-46-42","","1350","","images/semantic_sequence/maintaining_a_car_semantic/maintaining_a_car_semantic_7.png","0","",""
"","","","","","image-button-response","48","262819","0.0-10.0-1.0-2.7","622E7D8A2D5041BABE739B8EFA8E3603","622E7D8A2D5041BABE739B8EFA8E3603","0198ba0e-472c-7734-a773-b51ae027bb49","0198b9d0-29d4-7df3-8625-4b4515841beb","{""num_scrambled_semantic"":""8"",""num_scrambled_causal"":""4"",""num_scrambled_schematic"":""4"",""participantId"":""622E7D8A2D5041BABE739B8EFA8E3603"",""assignmentId"":""0198ba0e-472c-7734-a773-b51ae027bb49"",""projectId"":""0198b9d0-29d4-7df3-8625-4b4515841beb""}","https://test12345.live/?num_scrambled_semantic=8&num_scrambled_causal=4&num_scrambled_schematic=4&participantId=622E7D8A2D5041BABE739B8EFA8E3603&assignmentId=0198ba0e-472c-7734-a773-b51ae027bb49&projectId=0198b9d0-29d4-7df3-8625-4b4515841beb","622E7D8A2D5041BABE739B8EFA8E3603-2025-08-17-22-46-42","","null","","[]","null","",""
"","","","","","image-button-response","49","267322","0.0-10.0-1.0-0.8","622E7D8A2D5041BABE739B8EFA8E3603","622E7D8A2D5041BABE739B8EFA8E3603","0198ba0e-472c-7734-a773-b51ae027bb49","0198b9d0-29d4-7df3-8625-4b4515841beb","{""num_scrambled_semantic"":""8"",""num_scrambled_causal"":""4"",""num_scrambled_schematic"":""4"",""participantId"":""622E7D8A2D5041BABE739B8EFA8E3603"",""assignmentId"":""0198ba0e-472c-7734-a773-b51ae027bb49"",""projectId"":""0198b9d0-29d4-7df3-8625-4b4515841beb""}","https://test12345.live/?num_scrambled_semantic=8&num_scrambled_causal=4&num_scrambled_schematic=4&participantId=622E7D8A2D5041BABE739B8EFA8E3603&assignmentId=0198ba0e-472c-7734-a773-b51ae027bb49&projectId=0198b9d0-29d4-7df3-8625-4b4515841beb","622E7D8A2D5041BABE739B8EFA8E3603-2025-08-17-22-46-42","","null","","images/semantic_sequence/maintaining_a_car_semantic/maintaining_a_car_semantic_9.png","null","",""
"","","","","","image-button-response","50","268718","0.0-10.0-1.0-1.8","622E7D8A2D5041BABE739B8EFA8E3603","622E7D8A2D5041BABE739B8EFA8E3603","0198ba0e-472c-7734-a773-b51ae027bb49","0198b9d0-29d4-7df3-8625-4b4515841beb","{""num_scrambled_semantic"":""8"",""num_scrambled_causal"":""4"",""num_scrambled_schematic"":""4"",""participantId"":""622E7D8A2D5041BABE739B8EFA8E3603"",""assignmentId"":""0198ba0e-472c-7734-a773-b51ae027bb49"",""projectId"":""0198b9d0-29d4-7df3-8625-4b4515841beb""}","https://test12345.live/?num_scrambled_semantic=8&num_scrambled_causal=4&num_scrambled_schematic=4&participantId=622E7D8A2D5041BABE739B8EFA8E3603&assignmentId=0198ba0e-472c-7734-a773-b51ae027bb49&projectId=0198b9d0-29d4-7df3-8625-4b4515841beb","622E7D8A2D5041BABE739B8EFA8E3603-2025-08-17-22-46-42","","1395","","images/semantic_sequence/maintaining_a_car_semantic/maintaining_a_car_semantic_9.png","0","",""
"","","","","","image-button-response","51","274123","0.0-10.0-1.0-2.8","622E7D8A2D5041BABE739B8EFA8E3603","622E7D8A2D5041BABE739B8EFA8E3603","0198ba0e-472c-7734-a773-b51ae027bb49","0198b9d0-29d4-7df3-8625-4b4515841beb","{""num_scrambled_semantic"":""8"",""num_scrambled_causal"":""4"",""num_scrambled_schematic"":""4"",""participantId"":""622E7D8A2D5041BABE739B8EFA8E3603"",""assignmentId"":""0198ba0e-472c-7734-a773-b51ae027bb49"",""projectId"":""0198b9d0-29d4-7df3-8625-4b4515841beb""}","https://test12345.live/?num_scrambled_semantic=8&num_scrambled_causal=4&num_scrambled_schematic=4&participantId=622E7D8A2D5041BABE739B8EFA8E3603&assignmentId=0198ba0e-472c-7734-a773-b51ae027bb49&projectId=0198b9d0-29d4-7df3-8625-4b4515841beb","622E7D8A2D5041BABE739B8EFA8E3603-2025-08-17-22-46-42","","null","","[]","null","",""
"","","","","","image-button-response","52","278629","0.0-10.0-1.0-0.9","622E7D8A2D5041BABE739B8EFA8E3603","622E7D8A2D5041BABE739B8EFA8E3603","0198ba0e-472c-7734-a773-b51ae027bb49","0198b9d0-29d4-7df3-8625-4b4515841beb","{""num_scrambled_semantic"":""8"",""num_scrambled_causal"":""4"",""num_scrambled_schematic"":""4"",""participantId"":""622E7D8A2D5041BABE739B8EFA8E3603"",""assignmentId"":""0198ba0e-472c-7734-a773-b51ae027bb49"",""projectId"":""0198b9d0-29d4-7df3-8625-4b4515841beb""}","https://test12345.live/?num_scrambled_semantic=8&num_scrambled_causal=4&num_scrambled_schematic=4&participantId=622E7D8A2D5041BABE739B8EFA8E3603&assignmentId=0198ba0e-472c-7734-a773-b51ae027bb49&projectId=0198b9d0-29d4-7df3-8625-4b4515841beb","622E7D8A2D5041BABE739B8EFA8E3603-2025-08-17-22-46-42","","null","","images/semantic_sequence/maintaining_a_car_semantic/maintaining_a_car_semantic_6.png","null","",""
"","","","","","image-button-response","53","280154","0.0-10.0-1.0-1.9","622E7D8A2D5041BABE739B8EFA8E3603","622E7D8A2D5041BABE739B8EFA8E3603","0198ba0e-472c-7734-a773-b51ae027bb49","0198b9d0-29d4-7df3-8625-4b4515841beb","{""num_scrambled_semantic"":""8"",""num_scrambled_causal"":""4"",""num_scrambled_schematic"":""4"",""participantId"":""622E7D8A2D5041BABE739B8EFA8E3603"",""assignmentId"":""0198ba0e-472c-7734-a773-b51ae027bb49"",""projectId"":""0198b9d0-29d4-7df3-8625-4b4515841beb""}","https://test12345.live/?num_scrambled_semantic=8&num_scrambled_causal=4&num_scrambled_schematic=4&participantId=622E7D8A2D5041BABE739B8EFA8E3603&assignmentId=0198ba0e-472c-7734-a773-b51ae027bb49&projectId=0198b9d0-29d4-7df3-8625-4b4515841beb","622E7D8A2D5041BABE739B8EFA8E3603-2025-08-17-22-46-42","","1523","","images/semantic_sequence/maintaining_a_car_semantic/maintaining_a_car_semantic_6.png","0","",""
"","","","","","image-button-response","54","285559","0.0-10.0-1.0-2.9","622E7D8A2D5041BABE739B8EFA8E3603","622E7D8A2D5041BABE739B8EFA8E3603","0198ba0e-472c-7734-a773-b51ae027bb49","0198b9d0-29d4-7df3-8625-4b4515841beb","{""num_scrambled_semantic"":""8"",""num_scrambled_causal"":""4"",""num_scrambled_schematic"":""4"",""participantId"":""622E7D8A2D5041BABE739B8EFA8E3603"",""assignmentId"":""0198ba0e-472c-7734-a773-b51ae027bb49"",""projectId"":""0198b9d0-29d4-7df3-8625-4b4515841beb""}","https://test12345.live/?num_scrambled_semantic=8&num_scrambled_causal=4&num_scrambled_schematic=4&participantId=622E7D8A2D5041BABE739B8EFA8E3603&assignmentId=0198ba0e-472c-7734-a773-b51ae027bb49&projectId=0198b9d0-29d4-7df3-8625-4b4515841beb","622E7D8A2D5041BABE739B8EFA8E3603-2025-08-17-22-46-42","","null","","[]","null","",""
"","","","","","html-audio-response","55","325357","0.0-11.0","622E7D8A2D5041BABE739B8EFA8E3603","622E7D8A2D5041BABE739B8EFA8E3603","0198ba0e-472c-7734-a773-b51ae027bb49","0198b9d0-29d4-7df3-8625-4b4515841beb","{""num_scrambled_semantic"":""8"",""num_scrambled_causal"":""4"",""num_scrambled_schematic"":""4"",""participantId"":""622E7D8A2D5041BABE739B8EFA8E3603"",""assignmentId"":""0198ba0e-472c-7734-a773-b51ae027bb49"",""projectId"":""0198b9d0-29d4-7df3-8625-4b4515841beb""}","https://test12345.live/?num_scrambled_semantic=8&num_scrambled_causal=4&num_scrambled_schematic=4&participantId=622E7D8A2D5041BABE739B8EFA8E3603&assignmentId=0198ba0e-472c-7734-a773-b51ae027bb49&projectId=0198b9d0-29d4-7df3-8625-4b4515841beb","622E7D8A2D5041BABE739B8EFA8E3603-2025-08-17-22-46-42","","25970","","[""<span style=\""color: red; font-size: 24px\""> NOW RECORDING</span><p>Please say out loud all the images you saw, as many as you can remember. The images can be said in any order.</p>""]","","3","maintaining_a_car_semantic"
"","","","","","image-button-response","56","331370","0.0-12.0-0.0","622E7D8A2D5041BABE739B8EFA8E3603","622E7D8A2D5041BABE739B8EFA8E3603","0198ba0e-472c-7734-a773-b51ae027bb49","0198b9d0-29d4-7df3-8625-4b4515841beb","{""num_scrambled_semantic"":""8"",""num_scrambled_causal"":""4"",""num_scrambled_schematic"":""4"",""participantId"":""622E7D8A2D5041BABE739B8EFA8E3603"",""assignmentId"":""0198ba0e-472c-7734-a773-b51ae027bb49"",""projectId"":""0198b9d0-29d4-7df3-8625-4b4515841beb""}","https://test12345.live/?num_scrambled_semantic=8&num_scrambled_causal=4&num_scrambled_schematic=4&participantId=622E7D8A2D5041BABE739B8EFA8E3603&assignmentId=0198ba0e-472c-7734-a773-b51ae027bb49&projectId=0198b9d0-29d4-7df3-8625-4b4515841beb","622E7D8A2D5041BABE739B8EFA8E3603-2025-08-17-22-46-42","","null","","images/causal_sequence/saving_a_cat_causal/saving_a_cat_causal_0.png","null","",""
"","","","","","image-button-response","57","335874","0.0-12.0-1.0-0.0","622E7D8A2D5041BABE739B8EFA8E3603","622E7D8A2D5041BABE739B8EFA8E3603","0198ba0e-472c-7734-a773-b51ae027bb49","0198b9d0-29d4-7df3-8625-4b4515841beb","{""num_scrambled_semantic"":""8"",""num_scrambled_causal"":""4"",""num_scrambled_schematic"":""4"",""participantId"":""622E7D8A2D5041BABE739B8EFA8E3603"",""assignmentId"":""0198ba0e-472c-7734-a773-b51ae027bb49"",""projectId"":""0198b9d0-29d4-7df3-8625-4b4515841beb""}","https://test12345.live/?num_scrambled_semantic=8&num_scrambled_causal=4&num_scrambled_schematic=4&participantId=622E7D8A2D5041BABE739B8EFA8E3603&assignmentId=0198ba0e-472c-7734-a773-b51ae027bb49&projectId=0198b9d0-29d4-7df3-8625-4b4515841beb","622E7D8A2D5041BABE739B8EFA8E3603-2025-08-17-22-46-42","","null","","images/causal_sequence/saving_a_cat_causal/saving_a_cat_causal_8.png","null","",""
"","","","","","image-button-response","58","338775","0.0-12.0-1.0-1.0","622E7D8A2D5041BABE739B8EFA8E3603","622E7D8A2D5041BABE739B8EFA8E3603","0198ba0e-472c-7734-a773-b51ae027bb49","0198b9d0-29d4-7df3-8625-4b4515841beb","{""num_scrambled_semantic"":""8"",""num_scrambled_causal"":""4"",""num_scrambled_schematic"":""4"",""participantId"":""622E7D8A2D5041BABE739B8EFA8E3603"",""assignmentId"":""0198ba0e-472c-7734-a773-b51ae027bb49"",""projectId"":""0198b9d0-29d4-7df3-8625-4b4515841beb""}","https://test12345.live/?num_scrambled_semantic=8&num_scrambled_causal=4&num_scrambled_schematic=4&participantId=622E7D8A2D5041BABE739B8EFA8E3603&assignmentId=0198ba0e-472c-7734-a773-b51ae027bb49&projectId=0198b9d0-29d4-7df3-8625-4b4515841beb","622E7D8A2D5041BABE739B8EFA8E3603-2025-08-17-22-46-42","","2899","","images/causal_sequence/saving_a_cat_causal/saving_a_cat_causal_8.png","0","",""
"","","","","","image-button-response","59","344180","0.0-12.0-1.0-2.0","622E7D8A2D5041BABE739B8EFA8E3603","622E7D8A2D5041BABE739B8EFA8E3603","0198ba0e-472c-7734-a773-b51ae027bb49","0198b9d0-29d4-7df3-8625-4b4515841beb","{""num_scrambled_semantic"":""8"",""num_scrambled_causal"":""4"",""num_scrambled_schematic"":""4"",""participantId"":""622E7D8A2D5041BABE739B8EFA8E3603"",""assignmentId"":""0198ba0e-472c-7734-a773-b51ae027bb49"",""projectId"":""0198b9d0-29d4-7df3-8625-4b4515841beb""}","https://test12345.live/?num_scrambled_semantic=8&num_scrambled_causal=4&num_scrambled_schematic=4&participantId=622E7D8A2D5041BABE739B8EFA8E3603&assignmentId=0198ba0e-472c-7734-a773-b51ae027bb49&projectId=0198b9d0-29d4-7df3-8625-4b4515841beb","622E7D8A2D5041BABE739B8EFA8E3603-2025-08-17-22-46-42","","null","","[]","null","",""
"","","","","","image-button-response","60","348685","0.0-12.0-1.0-0.1","622E7D8A2D5041BABE739B8EFA8E3603","622E7D8A2D5041BABE739B8EFA8E3603","0198ba0e-472c-7734-a773-b51ae027bb49","0198b9d0-29d4-7df3-8625-4b4515841beb","{""num_scrambled_semantic"":""8"",""num_scrambled_causal"":""4"",""num_scrambled_schematic"":""4"",""participantId"":""622E7D8A2D5041BABE739B8EFA8E3603"",""assignmentId"":""0198ba0e-472c-7734-a773-b51ae027bb49"",""projectId"":""0198b9d0-29d4-7df3-8625-4b4515841beb""}","https://test12345.live/?num_scrambled_semantic=8&num_scrambled_causal=4&num_scrambled_schematic=4&participantId=622E7D8A2D5041BABE739B8EFA8E3603&assignmentId=0198ba0e-472c-7734-a773-b51ae027bb49&projectId=0198b9d0-29d4-7df3-8625-4b4515841beb","622E7D8A2D5041BABE739B8EFA8E3603-2025-08-17-22-46-42","","null","","images/causal_sequence/saving_a_cat_causal/saving_a_cat_causal_6.png","null","",""
"","","","","","image-button-response","61","349738","0.0-12.0-1.0-1.1","622E7D8A2D5041BABE739B8EFA8E3603","622E7D8A2D5041BABE739B8EFA8E3603","0198ba0e-472c-7734-a773-b51ae027bb49","0198b9d0-29d4-7df3-8625-4b4515841beb","{""num_scrambled_semantic"":""8"",""num_scrambled_causal"":""4"",""num_scrambled_schematic"":""4"",""participantId"":""622E7D8A2D5041BABE739B8EFA8E3603"",""assignmentId"":""0198ba0e-472c-7734-a773-b51ae027bb49"",""projectId"":""0198b9d0-29d4-7df3-8625-4b4515841beb""}","https://test12345.live/?num_scrambled_semantic=8&num_scrambled_causal=4&num_scrambled_schematic=4&participantId=622E7D8A2D5041BABE739B8EFA8E3603&assignmentId=0198ba0e-472c-7734-a773-b51ae027bb49&projectId=0198b9d0-29d4-7df3-8625-4b4515841beb","622E7D8A2D5041BABE739B8EFA8E3603-2025-08-17-22-46-42","","1051","","images/causal_sequence/saving_a_cat_causal/saving_a_cat_causal_6.png","0","",""
"","","","","","image-button-response","62","355145","0.0-12.0-1.0-2.1","622E7D8A2D5041BABE739B8EFA8E3603","622E7D8A2D5041BABE739B8EFA8E3603","0198ba0e-472c-7734-a773-b51ae027bb49","0198b9d0-29d4-7df3-8625-4b4515841beb","{""num_scrambled_semantic"":""8"",""num_scrambled_causal"":""4"",""num_scrambled_schematic"":""4"",""participantId"":""622E7D8A2D5041BABE739B8EFA8E3603"",""assignmentId"":""0198ba0e-472c-7734-a773-b51ae027bb49"",""projectId"":""0198b9d0-29d4-7df3-8625-4b4515841beb""}","https://test12345.live/?num_scrambled_semantic=8&num_scrambled_causal=4&num_scrambled_schematic=4&participantId=622E7D8A2D5041BABE739B8EFA8E3603&assignmentId=0198ba0e-472c-7734-a773-b51ae027bb49&projectId=0198b9d0-29d4-7df3-8625-4b4515841beb","622E7D8A2D5041BABE739B8EFA8E3603-2025-08-17-22-46-42","","null","","[]","null","",""
"","","","","","image-button-response","63","359651","0.0-12.0-1.0-0.2","622E7D8A2D5041BABE739B8EFA8E3603","622E7D8A2D5041BABE739B8EFA8E3603","0198ba0e-472c-7734-a773-b51ae027bb49","0198b9d0-29d4-7df3-8625-4b4515841beb","{""num_scrambled_semantic"":""8"",""num_scrambled_causal"":""4"",""num_scrambled_schematic"":""4"",""participantId"":""622E7D8A2D5041BABE739B8EFA8E3603"",""assignmentId"":""0198ba0e-472c-7734-a773-b51ae027bb49"",""projectId"":""0198b9d0-29d4-7df3-8625-4b4515841beb""}","https://test12345.live/?num_scrambled_semantic=8&num_scrambled_causal=4&num_scrambled_schematic=4&participantId=622E7D8A2D5041BABE739B8EFA8E3603&assignmentId=0198ba0e-472c-7734-a773-b51ae027bb49&projectId=0198b9d0-29d4-7df3-8625-4b4515841beb","622E7D8A2D5041BABE739B8EFA8E3603-2025-08-17-22-46-42","","null","","images/causal_sequence/saving_a_cat_causal/saving_a_cat_causal_5.png","null","",""
"","","","","","image-button-response","64","360989","0.0-12.0-1.0-1.2","622E7D8A2D5041BABE739B8EFA8E3603","622E7D8A2D5041BABE739B8EFA8E3603","0198ba0e-472c-7734-a773-b51ae027bb49","0198b9d0-29d4-7df3-8625-4b4515841beb","{""num_scrambled_semantic"":""8"",""num_scrambled_causal"":""4"",""num_scrambled_schematic"":""4"",""participantId"":""622E7D8A2D5041BABE739B8EFA8E3603"",""assignmentId"":""0198ba0e-472c-7734-a773-b51ae027bb49"",""projectId"":""0198b9d0-29d4-7df3-8625-4b4515841beb""}","https://test12345.live/?num_scrambled_semantic=8&num_scrambled_causal=4&num_scrambled_schematic=4&participantId=622E7D8A2D5041BABE739B8EFA8E3603&assignmentId=0198ba0e-472c-7734-a773-b51ae027bb49&projectId=0198b9d0-29d4-7df3-8625-4b4515841beb","622E7D8A2D5041BABE739B8EFA8E3603-2025-08-17-22-46-42","","1337","","images/causal_sequence/saving_a_cat_causal/saving_a_cat_causal_5.png","0","",""
"","","","","","image-button-response","65","366395","0.0-12.0-1.0-2.2","622E7D8A2D5041BABE739B8EFA8E3603","622E7D8A2D5041BABE739B8EFA8E3603","0198ba0e-472c-7734-a773-b51ae027bb49","0198b9d0-29d4-7df3-8625-4b4515841beb","{""num_scrambled_semantic"":""8"",""num_scrambled_causal"":""4"",""num_scrambled_schematic"":""4"",""participantId"":""622E7D8A2D5041BABE739B8EFA8E3603"",""assignmentId"":""0198ba0e-472c-7734-a773-b51ae027bb49"",""projectId"":""0198b9d0-29d4-7df3-8625-4b4515841beb""}","https://test12345.live/?num_scrambled_semantic=8&num_scrambled_causal=4&num_scrambled_schematic=4&participantId=622E7D8A2D5041BABE739B8EFA8E3603&assignmentId=0198ba0e-472c-7734-a773-b51ae027bb49&projectId=0198b9d0-29d4-7df3-8625-4b4515841beb","622E7D8A2D5041BABE739B8EFA8E3603-2025-08-17-22-46-42","","null","","[]","null","",""
"","","","","","image-button-response","66","370901","0.0-12.0-1.0-0.3","622E7D8A2D5041BABE739B8EFA8E3603","622E7D8A2D5041BABE739B8EFA8E3603","0198ba0e-472c-7734-a773-b51ae027bb49","0198b9d0-29d4-7df3-8625-4b4515841beb","{""num_scrambled_semantic"":""8"",""num_scrambled_causal"":""4"",""num_scrambled_schematic"":""4"",""participantId"":""622E7D8A2D5041BABE739B8EFA8E3603"",""assignmentId"":""0198ba0e-472c-7734-a773-b51ae027bb49"",""projectId"":""0198b9d0-29d4-7df3-8625-4b4515841beb""}","https://test12345.live/?num_scrambled_semantic=8&num_scrambled_causal=4&num_scrambled_schematic=4&participantId=622E7D8A2D5041BABE739B8EFA8E3603&assignmentId=0198ba0e-472c-7734-a773-b51ae027bb49&projectId=0198b9d0-29d4-7df3-8625-4b4515841beb","622E7D8A2D5041BABE739B8EFA8E3603-2025-08-17-22-46-42","","null","","images/causal_sequence/saving_a_cat_causal/saving_a_cat_causal_2.png","null","",""
"","","","","","image-button-response","67","374196","0.0-12.0-1.0-1.3","622E7D8A2D5041BABE739B8EFA8E3603","622E7D8A2D5041BABE739B8EFA8E3603","0198ba0e-472c-7734-a773-b51ae027bb49","0198b9d0-29d4-7df3-8625-4b4515841beb","{""num_scrambled_semantic"":""8"",""num_scrambled_causal"":""4"",""num_scrambled_schematic"":""4"",""participantId"":""622E7D8A2D5041BABE739B8EFA8E3603"",""assignmentId"":""0198ba0e-472c-7734-a773-b51ae027bb49"",""projectId"":""0198b9d0-29d4-7df3-8625-4b4515841beb""}","https://test12345.live/?num_scrambled_semantic=8&num_scrambled_causal=4&num_scrambled_schematic=4&participantId=622E7D8A2D5041BABE739B8EFA8E3603&assignmentId=0198ba0e-472c-7734-a773-b51ae027bb49&projectId=0198b9d0-29d4-7df3-8625-4b4515841beb","622E7D8A2D5041BABE739B8EFA8E3603-2025-08-17-22-46-42","","3293","","images/causal_sequence/saving_a_cat_causal/saving_a_cat_causal_2.png","1","",""
"","","","","","image-button-response","68","379601","0.0-12.0-1.0-2.3","622E7D8A2D5041BABE739B8EFA8E3603","622E7D8A2D5041BABE739B8EFA8E3603","0198ba0e-472c-7734-a773-b51ae027bb49","0198b9d0-29d4-7df3-8625-4b4515841beb","{""num_scrambled_semantic"":""8"",""num_scrambled_causal"":""4"",""num_scrambled_schematic"":""4"",""participantId"":""622E7D8A2D5041BABE739B8EFA8E3603"",""assignmentId"":""0198ba0e-472c-7734-a773-b51ae027bb49"",""projectId"":""0198b9d0-29d4-7df3-8625-4b4515841beb""}","https://test12345.live/?num_scrambled_semantic=8&num_scrambled_causal=4&num_scrambled_schematic=4&participantId=622E7D8A2D5041BABE739B8EFA8E3603&assignmentId=0198ba0e-472c-7734-a773-b51ae027bb49&projectId=0198b9d0-29d4-7df3-8625-4b4515841beb","622E7D8A2D5041BABE739B8EFA8E3603-2025-08-17-22-46-42","","null","","[]","null","",""
"","","","","","image-button-response","69","384105","0.0-12.0-1.0-0.4","622E7D8A2D5041BABE739B8EFA8E3603","622E7D8A2D5041BABE739B8EFA8E3603","0198ba0e-472c-7734-a773-b51ae027bb49","0198b9d0-29d4-7df3-8625-4b4515841beb","{""num_scrambled_semantic"":""8"",""num_scrambled_causal"":""4"",""num_scrambled_schematic"":""4"",""participantId"":""622E7D8A2D5041BABE739B8EFA8E3603"",""assignmentId"":""0198ba0e-472c-7734-a773-b51ae027bb49"",""projectId"":""0198b9d0-29d4-7df3-8625-4b4515841beb""}","https://test12345.live/?num_scrambled_semantic=8&num_scrambled_causal=4&num_scrambled_schematic=4&participantId=622E7D8A2D5041BABE739B8EFA8E3603&assignmentId=0198ba0e-472c-7734-a773-b51ae027bb49&projectId=0198b9d0-29d4-7df3-8625-4b4515841beb","622E7D8A2D5041BABE739B8EFA8E3603-2025-08-17-22-46-42","","null","","images/causal_sequence/saving_a_cat_causal/saving_a_cat_causal_1.png","null","",""
"","","","","","image-button-response","70","385362","0.0-12.0-1.0-1.4","622E7D8A2D5041BABE739B8EFA8E3603","622E7D8A2D5041BABE739B8EFA8E3603","0198ba0e-472c-7734-a773-b51ae027bb49","0198b9d0-29d4-7df3-8625-4b4515841beb","{""num_scrambled_semantic"":""8"",""num_scrambled_causal"":""4"",""num_scrambled_schematic"":""4"",""participantId"":""622E7D8A2D5041BABE739B8EFA8E3603"",""assignmentId"":""0198ba0e-472c-7734-a773-b51ae027bb49"",""projectId"":""0198b9d0-29d4-7df3-8625-4b4515841beb""}","https://test12345.live/?num_scrambled_semantic=8&num_scrambled_causal=4&num_scrambled_schematic=4&participantId=622E7D8A2D5041BABE739B8EFA8E3603&assignmentId=0198ba0e-472c-7734-a773-b51ae027bb49&projectId=0198b9d0-29d4-7df3-8625-4b4515841beb","622E7D8A2D5041BABE739B8EFA8E3603-2025-08-17-22-46-42","","1255","","images/causal_sequence/saving_a_cat_causal/saving_a_cat_causal_1.png","0","",""
"","","","","","image-button-response","71","390766","0.0-12.0-1.0-2.4","622E7D8A2D5041BABE739B8EFA8E3603","622E7D8A2D5041BABE739B8EFA8E3603","0198ba0e-472c-7734-a773-b51ae027bb49","0198b9d0-29d4-7df3-8625-4b4515841beb","{""num_scrambled_semantic"":""8"",""num_scrambled_causal"":""4"",""num_scrambled_schematic"":""4"",""participantId"":""622E7D8A2D5041BABE739B8EFA8E3603"",""assignmentId"":""0198ba0e-472c-7734-a773-b51ae027bb49"",""projectId"":""0198b9d0-29d4-7df3-8625-4b4515841beb""}","https://test12345.live/?num_scrambled_semantic=8&num_scrambled_causal=4&num_scrambled_schematic=4&participantId=622E7D8A2D5041BABE739B8EFA8E3603&assignmentId=0198ba0e-472c-7734-a773-b51ae027bb49&projectId=0198b9d0-29d4-7df3-8625-4b4515841beb","622E7D8A2D5041BABE739B8EFA8E3603-2025-08-17-22-46-42","","null","","[]","null","",""
"","","","","","image-button-response","72","395271","0.0-12.0-1.0-0.5","622E7D8A2D5041BABE739B8EFA8E3603","622E7D8A2D5041BABE739B8EFA8E3603","0198ba0e-472c-7734-a773-b51ae027bb49","0198b9d0-29d4-7df3-8625-4b4515841beb","{""num_scrambled_semantic"":""8"",""num_scrambled_causal"":""4"",""num_scrambled_schematic"":""4"",""participantId"":""622E7D8A2D5041BABE739B8EFA8E3603"",""assignmentId"":""0198ba0e-472c-7734-a773-b51ae027bb49"",""projectId"":""0198b9d0-29d4-7df3-8625-4b4515841beb""}","https://test12345.live/?num_scrambled_semantic=8&num_scrambled_causal=4&num_scrambled_schematic=4&participantId=622E7D8A2D5041BABE739B8EFA8E3603&assignmentId=0198ba0e-472c-7734-a773-b51ae027bb49&projectId=0198b9d0-29d4-7df3-8625-4b4515841beb","622E7D8A2D5041BABE739B8EFA8E3603-2025-08-17-22-46-42","","null","","images/causal_sequence/saving_a_cat_causal/saving_a_cat_causal_4.png","null","",""
"","","","","","image-button-response","73","396492","0.0-12.0-1.0-1.5","622E7D8A2D5041BABE739B8EFA8E3603","622E7D8A2D5041BABE739B8EFA8E3603","0198ba0e-472c-7734-a773-b51ae027bb49","0198b9d0-29d4-7df3-8625-4b4515841beb","{""num_scrambled_semantic"":""8"",""num_scrambled_causal"":""4"",""num_scrambled_schematic"":""4"",""participantId"":""622E7D8A2D5041BABE739B8EFA8E3603"",""assignmentId"":""0198ba0e-472c-7734-a773-b51ae027bb49"",""projectId"":""0198b9d0-29d4-7df3-8625-4b4515841beb""}","https://test12345.live/?num_scrambled_semantic=8&num_scrambled_causal=4&num_scrambled_schematic=4&participantId=622E7D8A2D5041BABE739B8EFA8E3603&assignmentId=0198ba0e-472c-7734-a773-b51ae027bb49&projectId=0198b9d0-29d4-7df3-8625-4b4515841beb","622E7D8A2D5041BABE739B8EFA8E3603-2025-08-17-22-46-42","","1219","","images/causal_sequence/saving_a_cat_causal/saving_a_cat_causal_4.png","0","",""
"","","","","","image-button-response","74","401896","0.0-12.0-1.0-2.5","622E7D8A2D5041BABE739B8EFA8E3603","622E7D8A2D5041BABE739B8EFA8E3603","0198ba0e-472c-7734-a773-b51ae027bb49","0198b9d0-29d4-7df3-8625-4b4515841beb","{""num_scrambled_semantic"":""8"",""num_scrambled_causal"":""4"",""num_scrambled_schematic"":""4"",""participantId"":""622E7D8A2D5041BABE739B8EFA8E3603"",""assignmentId"":""0198ba0e-472c-7734-a773-b51ae027bb49"",""projectId"":""0198b9d0-29d4-7df3-8625-4b4515841beb""}","https://test12345.live/?num_scrambled_semantic=8&num_scrambled_causal=4&num_scrambled_schematic=4&participantId=622E7D8A2D5041BABE739B8EFA8E3603&assignmentId=0198ba0e-472c-7734-a773-b51ae027bb49&projectId=0198b9d0-29d4-7df3-8625-4b4515841beb","622E7D8A2D5041BABE739B8EFA8E3603-2025-08-17-22-46-42","","null","","[]","null","",""
"","","","","","image-button-response","75","406402","0.0-12.0-1.0-0.6","622E7D8A2D5041BABE739B8EFA8E3603","622E7D8A2D5041BABE739B8EFA8E3603","0198ba0e-472c-7734-a773-b51ae027bb49","0198b9d0-29d4-7df3-8625-4b4515841beb","{""num_scrambled_semantic"":""8"",""num_scrambled_causal"":""4"",""num_scrambled_schematic"":""4"",""participantId"":""622E7D8A2D5041BABE739B8EFA8E3603"",""assignmentId"":""0198ba0e-472c-7734-a773-b51ae027bb49"",""projectId"":""0198b9d0-29d4-7df3-8625-4b4515841beb""}","https://test12345.live/?num_scrambled_semantic=8&num_scrambled_causal=4&num_scrambled_schematic=4&participantId=622E7D8A2D5041BABE739B8EFA8E3603&assignmentId=0198ba0e-472c-7734-a773-b51ae027bb49&projectId=0198b9d0-29d4-7df3-8625-4b4515841beb","622E7D8A2D5041BABE739B8EFA8E3603-2025-08-17-22-46-42","","null","","images/causal_sequence/saving_a_cat_causal/saving_a_cat_causal_7.png","null","",""
"","","","","","image-button-response","76","408010","0.0-12.0-1.0-1.6","622E7D8A2D5041BABE739B8EFA8E3603","622E7D8A2D5041BABE739B8EFA8E3603","0198ba0e-472c-7734-a773-b51ae027bb49","0198b9d0-29d4-7df3-8625-4b4515841beb","{""num_scrambled_semantic"":""8"",""num_scrambled_causal"":""4"",""num_scrambled_schematic"":""4"",""participantId"":""622E7D8A2D5041BABE739B8EFA8E3603"",""assignmentId"":""0198ba0e-472c-7734-a773-b51ae027bb49"",""projectId"":""0198b9d0-29d4-7df3-8625-4b4515841beb""}","https://test12345.live/?num_scrambled_semantic=8&num_scrambled_causal=4&num_scrambled_schematic=4&participantId=622E7D8A2D5041BABE739B8EFA8E3603&assignmentId=0198ba0e-472c-7734-a773-b51ae027bb49&projectId=0198b9d0-29d4-7df3-8625-4b4515841beb","622E7D8A2D5041BABE739B8EFA8E3603-2025-08-17-22-46-42","","1607","","images/causal_sequence/saving_a_cat_causal/saving_a_cat_causal_7.png","0","",""
"","","","","","image-button-response","77","413416","0.0-12.0-1.0-2.6","622E7D8A2D5041BABE739B8EFA8E3603","622E7D8A2D5041BABE739B8EFA8E3603","0198ba0e-472c-7734-a773-b51ae027bb49","0198b9d0-29d4-7df3-8625-4b4515841beb","{""num_scrambled_semantic"":""8"",""num_scrambled_causal"":""4"",""num_scrambled_schematic"":""4"",""participantId"":""622E7D8A2D5041BABE739B8EFA8E3603"",""assignmentId"":""0198ba0e-472c-7734-a773-b51ae027bb49"",""projectId"":""0198b9d0-29d4-7df3-8625-4b4515841beb""}","https://test12345.live/?num_scrambled_semantic=8&num_scrambled_causal=4&num_scrambled_schematic=4&participantId=622E7D8A2D5041BABE739B8EFA8E3603&assignmentId=0198ba0e-472c-7734-a773-b51ae027bb49&projectId=0198b9d0-29d4-7df3-8625-4b4515841beb","622E7D8A2D5041BABE739B8EFA8E3603-2025-08-17-22-46-42","","null","","[]","null","",""
"","","","","","image-button-response","78","417922","0.0-12.0-1.0-0.7","622E7D8A2D5041BABE739B8EFA8E3603","622E7D8A2D5041BABE739B8EFA8E3603","0198ba0e-472c-7734-a773-b51ae027bb49","0198b9d0-29d4-7df3-8625-4b4515841beb","{""num_scrambled_semantic"":""8"",""num_scrambled_causal"":""4"",""num_scrambled_schematic"":""4"",""participantId"":""622E7D8A2D5041BABE739B8EFA8E3603"",""assignmentId"":""0198ba0e-472c-7734-a773-b51ae027bb49"",""projectId"":""0198b9d0-29d4-7df3-8625-4b4515841beb""}","https://test12345.live/?num_scrambled_semantic=8&num_scrambled_causal=4&num_scrambled_schematic=4&participantId=622E7D8A2D5041BABE739B8EFA8E3603&assignmentId=0198ba0e-472c-7734-a773-b51ae027bb49&projectId=0198b9d0-29d4-7df3-8625-4b4515841beb","622E7D8A2D5041BABE739B8EFA8E3603-2025-08-17-22-46-42","","null","","images/causal_sequence/saving_a_cat_causal/saving_a_cat_causal_3.png","null","",""
"","","","","","image-button-response","79","420181","0.0-12.0-1.0-1.7","622E7D8A2D5041BABE739B8EFA8E3603","622E7D8A2D5041BABE739B8EFA8E3603","0198ba0e-472c-7734-a773-b51ae027bb49","0198b9d0-29d4-7df3-8625-4b4515841beb","{""num_scrambled_semantic"":""8"",""num_scrambled_causal"":""4"",""num_scrambled_schematic"":""4"",""participantId"":""622E7D8A2D5041BABE739B8EFA8E3603"",""assignmentId"":""0198ba0e-472c-7734-a773-b51ae027bb49"",""projectId"":""0198b9d0-29d4-7df3-8625-4b4515841beb""}","https://test12345.live/?num_scrambled_semantic=8&num_scrambled_causal=4&num_scrambled_schematic=4&participantId=622E7D8A2D5041BABE739B8EFA8E3603&assignmentId=0198ba0e-472c-7734-a773-b51ae027bb49&projectId=0198b9d0-29d4-7df3-8625-4b4515841beb","622E7D8A2D5041BABE739B8EFA8E3603-2025-08-17-22-46-42","","2258","","images/causal_sequence/saving_a_cat_causal/saving_a_cat_causal_3.png","0","",""
"","","","","","image-button-response","80","425586","0.0-12.0-1.0-2.7","622E7D8A2D5041BABE739B8EFA8E3603","622E7D8A2D5041BABE739B8EFA8E3603","0198ba0e-472c-7734-a773-b51ae027bb49","0198b9d0-29d4-7df3-8625-4b4515841beb","{""num_scrambled_semantic"":""8"",""num_scrambled_causal"":""4"",""num_scrambled_schematic"":""4"",""participantId"":""622E7D8A2D5041BABE739B8EFA8E3603"",""assignmentId"":""0198ba0e-472c-7734-a773-b51ae027bb49"",""projectId"":""0198b9d0-29d4-7df3-8625-4b4515841beb""}","https://test12345.live/?num_scrambled_semantic=8&num_scrambled_causal=4&num_scrambled_schematic=4&participantId=622E7D8A2D5041BABE739B8EFA8E3603&assignmentId=0198ba0e-472c-7734-a773-b51ae027bb49&projectId=0198b9d0-29d4-7df3-8625-4b4515841beb","622E7D8A2D5041BABE739B8EFA8E3603-2025-08-17-22-46-42","","null","","[]","null","",""
"","","","","","image-button-response","81","430092","0.0-12.0-1.0-0.8","622E7D8A2D5041BABE739B8EFA8E3603","622E7D8A2D5041BABE739B8EFA8E3603","0198ba0e-472c-7734-a773-b51ae027bb49","0198b9d0-29d4-7df3-8625-4b4515841beb","{""num_scrambled_semantic"":""8"",""num_scrambled_causal"":""4"",""num_scrambled_schematic"":""4"",""participantId"":""622E7D8A2D5041BABE739B8EFA8E3603"",""assignmentId"":""0198ba0e-472c-7734-a773-b51ae027bb49"",""projectId"":""0198b9d0-29d4-7df3-8625-4b4515841beb""}","https://test12345.live/?num_scrambled_semantic=8&num_scrambled_causal=4&num_scrambled_schematic=4&participantId=622E7D8A2D5041BABE739B8EFA8E3603&assignmentId=0198ba0e-472c-7734-a773-b51ae027bb49&projectId=0198b9d0-29d4-7df3-8625-4b4515841beb","622E7D8A2D5041BABE739B8EFA8E3603-2025-08-17-22-46-42","","null","","images/causal_sequence/saving_a_cat_causal/saving_a_cat_causal_ten.png","null","",""
"","","","","","image-button-response","82","431949","0.0-12.0-1.0-1.8","622E7D8A2D5041BABE739B8EFA8E3603","622E7D8A2D5041BABE739B8EFA8E3603","0198ba0e-472c-7734-a773-b51ae027bb49","0198b9d0-29d4-7df3-8625-4b4515841beb","{""num_scrambled_semantic"":""8"",""num_scrambled_causal"":""4"",""num_scrambled_schematic"":""4"",""participantId"":""622E7D8A2D5041BABE739B8EFA8E3603"",""assignmentId"":""0198ba0e-472c-7734-a773-b51ae027bb49"",""projectId"":""0198b9d0-29d4-7df3-8625-4b4515841beb""}","https://test12345.live/?num_scrambled_semantic=8&num_scrambled_causal=4&num_scrambled_schematic=4&participantId=622E7D8A2D5041BABE739B8EFA8E3603&assignmentId=0198ba0e-472c-7734-a773-b51ae027bb49&projectId=0198b9d0-29d4-7df3-8625-4b4515841beb","622E7D8A2D5041BABE739B8EFA8E3603-2025-08-17-22-46-42","","1855","","images/causal_sequence/saving_a_cat_causal/saving_a_cat_causal_ten.png","0","",""
"","","","","","image-button-response","83","437357","0.0-12.0-1.0-2.8","622E7D8A2D5041BABE739B8EFA8E3603","622E7D8A2D5041BABE739B8EFA8E3603","0198ba0e-472c-7734-a773-b51ae027bb49","0198b9d0-29d4-7df3-8625-4b4515841beb","{""num_scrambled_semantic"":""8"",""num_scrambled_causal"":""4"",""num_scrambled_schematic"":""4"",""participantId"":""622E7D8A2D5041BABE739B8EFA8E3603"",""assignmentId"":""0198ba0e-472c-7734-a773-b51ae027bb49"",""projectId"":""0198b9d0-29d4-7df3-8625-4b4515841beb""}","https://test12345.live/?num_scrambled_semantic=8&num_scrambled_causal=4&num_scrambled_schematic=4&participantId=622E7D8A2D5041BABE739B8EFA8E3603&assignmentId=0198ba0e-472c-7734-a773-b51ae027bb49&projectId=0198b9d0-29d4-7df3-8625-4b4515841beb","622E7D8A2D5041BABE739B8EFA8E3603-2025-08-17-22-46-42","","null","","[]","null","",""
"","","","","","image-button-response","84","441860","0.0-12.0-1.0-0.9","622E7D8A2D5041BABE739B8EFA8E3603","622E7D8A2D5041BABE739B8EFA8E3603","0198ba0e-472c-7734-a773-b51ae027bb49","0198b9d0-29d4-7df3-8625-4b4515841beb","{""num_scrambled_semantic"":""8"",""num_scrambled_causal"":""4"",""num_scrambled_schematic"":""4"",""participantId"":""622E7D8A2D5041BABE739B8EFA8E3603"",""assignmentId"":""0198ba0e-472c-7734-a773-b51ae027bb49"",""projectId"":""0198b9d0-29d4-7df3-8625-4b4515841beb""}","https://test12345.live/?num_scrambled_semantic=8&num_scrambled_causal=4&num_scrambled_schematic=4&participantId=622E7D8A2D5041BABE739B8EFA8E3603&assignmentId=0198ba0e-472c-7734-a773-b51ae027bb49&projectId=0198b9d0-29d4-7df3-8625-4b4515841beb","622E7D8A2D5041BABE739B8EFA8E3603-2025-08-17-22-46-42","","null","","images/causal_sequence/saving_a_cat_causal/saving_a_cat_causal_9.png","null","",""
"","","","","","image-button-response","85","443183","0.0-12.0-1.0-1.9","622E7D8A2D5041BABE739B8EFA8E3603","622E7D8A2D5041BABE739B8EFA8E3603","0198ba0e-472c-7734-a773-b51ae027bb49","0198b9d0-29d4-7df3-8625-4b4515841beb","{""num_scrambled_semantic"":""8"",""num_scrambled_causal"":""4"",""num_scrambled_schematic"":""4"",""participantId"":""622E7D8A2D5041BABE739B8EFA8E3603"",""assignmentId"":""0198ba0e-472c-7734-a773-b51ae027bb49"",""projectId"":""0198b9d0-29d4-7df3-8625-4b4515841beb""}","https://test12345.live/?num_scrambled_semantic=8&num_scrambled_causal=4&num_scrambled_schematic=4&participantId=622E7D8A2D5041BABE739B8EFA8E3603&assignmentId=0198ba0e-472c-7734-a773-b51ae027bb49&projectId=0198b9d0-29d4-7df3-8625-4b4515841beb","622E7D8A2D5041BABE739B8EFA8E3603-2025-08-17-22-46-42","","1322","","images/causal_sequence/saving_a_cat_causal/saving_a_cat_causal_9.png","0","",""
"","","","","","image-button-response","86","448586","0.0-12.0-1.0-2.9","622E7D8A2D5041BABE739B8EFA8E3603","622E7D8A2D5041BABE739B8EFA8E3603","0198ba0e-472c-7734-a773-b51ae027bb49","0198b9d0-29d4-7df3-8625-4b4515841beb","{""num_scrambled_semantic"":""8"",""num_scrambled_causal"":""4"",""num_scrambled_schematic"":""4"",""participantId"":""622E7D8A2D5041BABE739B8EFA8E3603"",""assignmentId"":""0198ba0e-472c-7734-a773-b51ae027bb49"",""projectId"":""0198b9d0-29d4-7df3-8625-4b4515841beb""}","https://test12345.live/?num_scrambled_semantic=8&num_scrambled_causal=4&num_scrambled_schematic=4&participantId=622E7D8A2D5041BABE739B8EFA8E3603&assignmentId=0198ba0e-472c-7734-a773-b51ae027bb49&projectId=0198b9d0-29d4-7df3-8625-4b4515841beb","622E7D8A2D5041BABE739B8EFA8E3603-2025-08-17-22-46-42","","null","","[]","null","",""
"","","","","","html-audio-response","87","483484","0.0-13.0","622E7D8A2D5041BABE739B8EFA8E3603","622E7D8A2D5041BABE739B8EFA8E3603","0198ba0e-472c-7734-a773-b51ae027bb49","0198b9d0-29d4-7df3-8625-4b4515841beb","{""num_scrambled_semantic"":""8"",""num_scrambled_causal"":""4"",""num_scrambled_schematic"":""4"",""participantId"":""622E7D8A2D5041BABE739B8EFA8E3603"",""assignmentId"":""0198ba0e-472c-7734-a773-b51ae027bb49"",""projectId"":""0198b9d0-29d4-7df3-8625-4b4515841beb""}","https://test12345.live/?num_scrambled_semantic=8&num_scrambled_causal=4&num_scrambled_schematic=4&participantId=622E7D8A2D5041BABE739B8EFA8E3603&assignmentId=0198ba0e-472c-7734-a773-b51ae027bb49&projectId=0198b9d0-29d4-7df3-8625-4b4515841beb","622E7D8A2D5041BABE739B8EFA8E3603-2025-08-17-22-46-42","","29131","","[""<span style=\""color: red; font-size: 24px\""> NOW RECORDING</span><p>Please say out loud all the images you saw, as many as you can remember. The images can be said in any order.</p>""]","","3","saving_a_cat_causal"
"","","","","","image-button-response","88","489495","0.0-14.0-0.0","622E7D8A2D5041BABE739B8EFA8E3603","622E7D8A2D5041BABE739B8EFA8E3603","0198ba0e-472c-7734-a773-b51ae027bb49","0198b9d0-29d4-7df3-8625-4b4515841beb","{""num_scrambled_semantic"":""8"",""num_scrambled_causal"":""4"",""num_scrambled_schematic"":""4"",""participantId"":""622E7D8A2D5041BABE739B8EFA8E3603"",""assignmentId"":""0198ba0e-472c-7734-a773-b51ae027bb49"",""projectId"":""0198b9d0-29d4-7df3-8625-4b4515841beb""}","https://test12345.live/?num_scrambled_semantic=8&num_scrambled_causal=4&num_scrambled_schematic=4&participantId=622E7D8A2D5041BABE739B8EFA8E3603&assignmentId=0198ba0e-472c-7734-a773-b51ae027bb49&projectId=0198b9d0-29d4-7df3-8625-4b4515841beb","622E7D8A2D5041BABE739B8EFA8E3603-2025-08-17-22-46-42","","null","","images/causal_sequence/dog_causal/dog_causal_0.png","null","",""
"","","","","","image-button-response","89","493998","0.0-14.0-1.0-0.0","622E7D8A2D5041BABE739B8EFA8E3603","622E7D8A2D5041BABE739B8EFA8E3603","0198ba0e-472c-7734-a773-b51ae027bb49","0198b9d0-29d4-7df3-8625-4b4515841beb","{""num_scrambled_semantic"":""8"",""num_scrambled_causal"":""4"",""num_scrambled_schematic"":""4"",""participantId"":""622E7D8A2D5041BABE739B8EFA8E3603"",""assignmentId"":""0198ba0e-472c-7734-a773-b51ae027bb49"",""projectId"":""0198b9d0-29d4-7df3-8625-4b4515841beb""}","https://test12345.live/?num_scrambled_semantic=8&num_scrambled_causal=4&num_scrambled_schematic=4&participantId=622E7D8A2D5041BABE739B8EFA8E3603&assignmentId=0198ba0e-472c-7734-a773-b51ae027bb49&projectId=0198b9d0-29d4-7df3-8625-4b4515841beb","622E7D8A2D5041BABE739B8EFA8E3603-2025-08-17-22-46-42","","null","","images/causal_sequence/dog_causal/dog_causal_1.png","null","",""
"","","","","","image-button-response","90","495855","0.0-14.0-1.0-1.0","622E7D8A2D5041BABE739B8EFA8E3603","622E7D8A2D5041BABE739B8EFA8E3603","0198ba0e-472c-7734-a773-b51ae027bb49","0198b9d0-29d4-7df3-8625-4b4515841beb","{""num_scrambled_semantic"":""8"",""num_scrambled_causal"":""4"",""num_scrambled_schematic"":""4"",""participantId"":""622E7D8A2D5041BABE739B8EFA8E3603"",""assignmentId"":""0198ba0e-472c-7734-a773-b51ae027bb49"",""projectId"":""0198b9d0-29d4-7df3-8625-4b4515841beb""}","https://test12345.live/?num_scrambled_semantic=8&num_scrambled_causal=4&num_scrambled_schematic=4&participantId=622E7D8A2D5041BABE739B8EFA8E3603&assignmentId=0198ba0e-472c-7734-a773-b51ae027bb49&projectId=0198b9d0-29d4-7df3-8625-4b4515841beb","622E7D8A2D5041BABE739B8EFA8E3603-2025-08-17-22-46-42","","1855","","images/causal_sequence/dog_causal/dog_causal_1.png","0","",""
"","","","","","image-button-response","91","501259","0.0-14.0-1.0-2.0","622E7D8A2D5041BABE739B8EFA8E3603","622E7D8A2D5041BABE739B8EFA8E3603","0198ba0e-472c-7734-a773-b51ae027bb49","0198b9d0-29d4-7df3-8625-4b4515841beb","{""num_scrambled_semantic"":""8"",""num_scrambled_causal"":""4"",""num_scrambled_schematic"":""4"",""participantId"":""622E7D8A2D5041BABE739B8EFA8E3603"",""assignmentId"":""0198ba0e-472c-7734-a773-b51ae027bb49"",""projectId"":""0198b9d0-29d4-7df3-8625-4b4515841beb""}","https://test12345.live/?num_scrambled_semantic=8&num_scrambled_causal=4&num_scrambled_schematic=4&participantId=622E7D8A2D5041BABE739B8EFA8E3603&assignmentId=0198ba0e-472c-7734-a773-b51ae027bb49&projectId=0198b9d0-29d4-7df3-8625-4b4515841beb","622E7D8A2D5041BABE739B8EFA8E3603-2025-08-17-22-46-42","","null","","[]","null","",""
"","","","","","image-button-response","92","505764","0.0-14.0-1.0-0.1","622E7D8A2D5041BABE739B8EFA8E3603","622E7D8A2D5041BABE739B8EFA8E3603","0198ba0e-472c-7734-a773-b51ae027bb49","0198b9d0-29d4-7df3-8625-4b4515841beb","{""num_scrambled_semantic"":""8"",""num_scrambled_causal"":""4"",""num_scrambled_schematic"":""4"",""participantId"":""622E7D8A2D5041BABE739B8EFA8E3603"",""assignmentId"":""0198ba0e-472c-7734-a773-b51ae027bb49"",""projectId"":""0198b9d0-29d4-7df3-8625-4b4515841beb""}","https://test12345.live/?num_scrambled_semantic=8&num_scrambled_causal=4&num_scrambled_schematic=4&participantId=622E7D8A2D5041BABE739B8EFA8E3603&assignmentId=0198ba0e-472c-7734-a773-b51ae027bb49&projectId=0198b9d0-29d4-7df3-8625-4b4515841beb","622E7D8A2D5041BABE739B8EFA8E3603-2025-08-17-22-46-42","","null","","images/causal_sequence/dog_causal/dog_causal_2.png","null","",""
"","","","","","image-button-response","93","507090","0.0-14.0-1.0-1.1","622E7D8A2D5041BABE739B8EFA8E3603","622E7D8A2D5041BABE739B8EFA8E3603","0198ba0e-472c-7734-a773-b51ae027bb49","0198b9d0-29d4-7df3-8625-4b4515841beb","{""num_scrambled_semantic"":""8"",""num_scrambled_causal"":""4"",""num_scrambled_schematic"":""4"",""participantId"":""622E7D8A2D5041BABE739B8EFA8E3603"",""assignmentId"":""0198ba0e-472c-7734-a773-b51ae027bb49"",""projectId"":""0198b9d0-29d4-7df3-8625-4b4515841beb""}","https://test12345.live/?num_scrambled_semantic=8&num_scrambled_causal=4&num_scrambled_schematic=4&participantId=622E7D8A2D5041BABE739B8EFA8E3603&assignmentId=0198ba0e-472c-7734-a773-b51ae027bb49&projectId=0198b9d0-29d4-7df3-8625-4b4515841beb","622E7D8A2D5041BABE739B8EFA8E3603-2025-08-17-22-46-42","","1325","","images/causal_sequence/dog_causal/dog_causal_2.png","0","",""
"","","","","","image-button-response","94","512498","0.0-14.0-1.0-2.1","622E7D8A2D5041BABE739B8EFA8E3603","622E7D8A2D5041BABE739B8EFA8E3603","0198ba0e-472c-7734-a773-b51ae027bb49","0198b9d0-29d4-7df3-8625-4b4515841beb","{""num_scrambled_semantic"":""8"",""num_scrambled_causal"":""4"",""num_scrambled_schematic"":""4"",""participantId"":""622E7D8A2D5041BABE739B8EFA8E3603"",""assignmentId"":""0198ba0e-472c-7734-a773-b51ae027bb49"",""projectId"":""0198b9d0-29d4-7df3-8625-4b4515841beb""}","https://test12345.live/?num_scrambled_semantic=8&num_scrambled_causal=4&num_scrambled_schematic=4&participantId=622E7D8A2D5041BABE739B8EFA8E3603&assignmentId=0198ba0e-472c-7734-a773-b51ae027bb49&projectId=0198b9d0-29d4-7df3-8625-4b4515841beb","622E7D8A2D5041BABE739B8EFA8E3603-2025-08-17-22-46-42","","null","","[]","null","",""
"","","","","","image-button-response","95","517003","0.0-14.0-1.0-0.2","622E7D8A2D5041BABE739B8EFA8E3603","622E7D8A2D5041BABE739B8EFA8E3603","0198ba0e-472c-7734-a773-b51ae027bb49","0198b9d0-29d4-7df3-8625-4b4515841beb","{""num_scrambled_semantic"":""8"",""num_scrambled_causal"":""4"",""num_scrambled_schematic"":""4"",""participantId"":""622E7D8A2D5041BABE739B8EFA8E3603"",""assignmentId"":""0198ba0e-472c-7734-a773-b51ae027bb49"",""projectId"":""0198b9d0-29d4-7df3-8625-4b4515841beb""}","https://test12345.live/?num_scrambled_semantic=8&num_scrambled_causal=4&num_scrambled_schematic=4&participantId=622E7D8A2D5041BABE739B8EFA8E3603&assignmentId=0198ba0e-472c-7734-a773-b51ae027bb49&projectId=0198b9d0-29d4-7df3-8625-4b4515841beb","622E7D8A2D5041BABE739B8EFA8E3603-2025-08-17-22-46-42","","null","","images/causal_sequence/dog_causal/dog_causal_3.png","null","",""
"","","","","","image-button-response","96","518556","0.0-14.0-1.0-1.2","622E7D8A2D5041BABE739B8EFA8E3603","622E7D8A2D5041BABE739B8EFA8E3603","0198ba0e-472c-7734-a773-b51ae027bb49","0198b9d0-29d4-7df3-8625-4b4515841beb","{""num_scrambled_semantic"":""8"",""num_scrambled_causal"":""4"",""num_scrambled_schematic"":""4"",""participantId"":""622E7D8A2D5041BABE739B8EFA8E3603"",""assignmentId"":""0198ba0e-472c-7734-a773-b51ae027bb49"",""projectId"":""0198b9d0-29d4-7df3-8625-4b4515841beb""}","https://test12345.live/?num_scrambled_semantic=8&num_scrambled_causal=4&num_scrambled_schematic=4&participantId=622E7D8A2D5041BABE739B8EFA8E3603&assignmentId=0198ba0e-472c-7734-a773-b51ae027bb49&projectId=0198b9d0-29d4-7df3-8625-4b4515841beb","622E7D8A2D5041BABE739B8EFA8E3603-2025-08-17-22-46-42","","1552","","images/causal_sequence/dog_causal/dog_causal_3.png","0","",""
"","","","","","image-button-response","97","523964","0.0-14.0-1.0-2.2","622E7D8A2D5041BABE739B8EFA8E3603","622E7D8A2D5041BABE739B8EFA8E3603","0198ba0e-472c-7734-a773-b51ae027bb49","0198b9d0-29d4-7df3-8625-4b4515841beb","{""num_scrambled_semantic"":""8"",""num_scrambled_causal"":""4"",""num_scrambled_schematic"":""4"",""participantId"":""622E7D8A2D5041BABE739B8EFA8E3603"",""assignmentId"":""0198ba0e-472c-7734-a773-b51ae027bb49"",""projectId"":""0198b9d0-29d4-7df3-8625-4b4515841beb""}","https://test12345.live/?num_scrambled_semantic=8&num_scrambled_causal=4&num_scrambled_schematic=4&participantId=622E7D8A2D5041BABE739B8EFA8E3603&assignmentId=0198ba0e-472c-7734-a773-b51ae027bb49&projectId=0198b9d0-29d4-7df3-8625-4b4515841beb","622E7D8A2D5041BABE739B8EFA8E3603-2025-08-17-22-46-42","","null","","[]","null","",""
"","","","","","image-button-response","98","528468","0.0-14.0-1.0-0.3","622E7D8A2D5041BABE739B8EFA8E3603","622E7D8A2D5041BABE739B8EFA8E3603","0198ba0e-472c-7734-a773-b51ae027bb49","0198b9d0-29d4-7df3-8625-4b4515841beb","{""num_scrambled_semantic"":""8"",""num_scrambled_causal"":""4"",""num_scrambled_schematic"":""4"",""participantId"":""622E7D8A2D5041BABE739B8EFA8E3603"",""assignmentId"":""0198ba0e-472c-7734-a773-b51ae027bb49"",""projectId"":""0198b9d0-29d4-7df3-8625-4b4515841beb""}","https://test12345.live/?num_scrambled_semantic=8&num_scrambled_causal=4&num_scrambled_schematic=4&participantId=622E7D8A2D5041BABE739B8EFA8E3603&assignmentId=0198ba0e-472c-7734-a773-b51ae027bb49&projectId=0198b9d0-29d4-7df3-8625-4b4515841beb","622E7D8A2D5041BABE739B8EFA8E3603-2025-08-17-22-46-42","","null","","images/causal_sequence/dog_causal/dog_causal_4.png","null","",""
"","","","","","image-button-response","99","529775","0.0-14.0-1.0-1.3","622E7D8A2D5041BABE739B8EFA8E3603","622E7D8A2D5041BABE739B8EFA8E3603","0198ba0e-472c-7734-a773-b51ae027bb49","0198b9d0-29d4-7df3-8625-4b4515841beb","{""num_scrambled_semantic"":""8"",""num_scrambled_causal"":""4"",""num_scrambled_schematic"":""4"",""participantId"":""622E7D8A2D5041BABE739B8EFA8E3603"",""assignmentId"":""0198ba0e-472c-7734-a773-b51ae027bb49"",""projectId"":""0198b9d0-29d4-7df3-8625-4b4515841beb""}","https://test12345.live/?num_scrambled_semantic=8&num_scrambled_causal=4&num_scrambled_schematic=4&participantId=622E7D8A2D5041BABE739B8EFA8E3603&assignmentId=0198ba0e-472c-7734-a773-b51ae027bb49&projectId=0198b9d0-29d4-7df3-8625-4b4515841beb","622E7D8A2D5041BABE739B8EFA8E3603-2025-08-17-22-46-42","","1305","","images/causal_sequence/dog_causal/dog_causal_4.png","0","",""
"","","","","","image-button-response","100","535179","0.0-14.0-1.0-2.3","622E7D8A2D5041BABE739B8EFA8E3603","622E7D8A2D5041BABE739B8EFA8E3603","0198ba0e-472c-7734-a773-b51ae027bb49","0198b9d0-29d4-7df3-8625-4b4515841beb","{""num_scrambled_semantic"":""8"",""num_scrambled_causal"":""4"",""num_scrambled_schematic"":""4"",""participantId"":""622E7D8A2D5041BABE739B8EFA8E3603"",""assignmentId"":""0198ba0e-472c-7734-a773-b51ae027bb49"",""projectId"":""0198b9d0-29d4-7df3-8625-4b4515841beb""}","https://test12345.live/?num_scrambled_semantic=8&num_scrambled_causal=4&num_scrambled_schematic=4&participantId=622E7D8A2D5041BABE739B8EFA8E3603&assignmentId=0198ba0e-472c-7734-a773-b51ae027bb49&projectId=0198b9d0-29d4-7df3-8625-4b4515841beb","622E7D8A2D5041BABE739B8EFA8E3603-2025-08-17-22-46-42","","null","","[]","null","",""
"","","","","","image-button-response","101","539684","0.0-14.0-1.0-0.4","622E7D8A2D5041BABE739B8EFA8E3603","622E7D8A2D5041BABE739B8EFA8E3603","0198ba0e-472c-7734-a773-b51ae027bb49","0198b9d0-29d4-7df3-8625-4b4515841beb","{""num_scrambled_semantic"":""8"",""num_scrambled_causal"":""4"",""num_scrambled_schematic"":""4"",""participantId"":""622E7D8A2D5041BABE739B8EFA8E3603"",""assignmentId"":""0198ba0e-472c-7734-a773-b51ae027bb49"",""projectId"":""0198b9d0-29d4-7df3-8625-4b4515841beb""}","https://test12345.live/?num_scrambled_semantic=8&num_scrambled_causal=4&num_scrambled_schematic=4&participantId=622E7D8A2D5041BABE739B8EFA8E3603&assignmentId=0198ba0e-472c-7734-a773-b51ae027bb49&projectId=0198b9d0-29d4-7df3-8625-4b4515841beb","622E7D8A2D5041BABE739B8EFA8E3603-2025-08-17-22-46-42","","null","","images/causal_sequence/dog_causal/dog_causal_5.png","null","",""
"","","","","","image-button-response","102","541189","0.0-14.0-1.0-1.4","622E7D8A2D5041BABE739B8EFA8E3603","622E7D8A2D5041BABE739B8EFA8E3603","0198ba0e-472c-7734-a773-b51ae027bb49","0198b9d0-29d4-7df3-8625-4b4515841beb","{""num_scrambled_semantic"":""8"",""num_scrambled_causal"":""4"",""num_scrambled_schematic"":""4"",""participantId"":""622E7D8A2D5041BABE739B8EFA8E3603"",""assignmentId"":""0198ba0e-472c-7734-a773-b51ae027bb49"",""projectId"":""0198b9d0-29d4-7df3-8625-4b4515841beb""}","https://test12345.live/?num_scrambled_semantic=8&num_scrambled_causal=4&num_scrambled_schematic=4&participantId=622E7D8A2D5041BABE739B8EFA8E3603&assignmentId=0198ba0e-472c-7734-a773-b51ae027bb49&projectId=0198b9d0-29d4-7df3-8625-4b4515841beb","622E7D8A2D5041BABE739B8EFA8E3603-2025-08-17-22-46-42","","1504","","images/causal_sequence/dog_causal/dog_causal_5.png","0","",""
"","","","","","image-button-response","103","546592","0.0-14.0-1.0-2.4","622E7D8A2D5041BABE739B8EFA8E3603","622E7D8A2D5041BABE739B8EFA8E3603","0198ba0e-472c-7734-a773-b51ae027bb49","0198b9d0-29d4-7df3-8625-4b4515841beb","{""num_scrambled_semantic"":""8"",""num_scrambled_causal"":""4"",""num_scrambled_schematic"":""4"",""participantId"":""622E7D8A2D5041BABE739B8EFA8E3603"",""assignmentId"":""0198ba0e-472c-7734-a773-b51ae027bb49"",""projectId"":""0198b9d0-29d4-7df3-8625-4b4515841beb""}","https://test12345.live/?num_scrambled_semantic=8&num_scrambled_causal=4&num_scrambled_schematic=4&participantId=622E7D8A2D5041BABE739B8EFA8E3603&assignmentId=0198ba0e-472c-7734-a773-b51ae027bb49&projectId=0198b9d0-29d4-7df3-8625-4b4515841beb","622E7D8A2D5041BABE739B8EFA8E3603-2025-08-17-22-46-42","","null","","[]","null","",""
"","","","","","image-button-response","104","551099","0.0-14.0-1.0-0.5","622E7D8A2D5041BABE739B8EFA8E3603","622E7D8A2D5041BABE739B8EFA8E3603","0198ba0e-472c-7734-a773-b51ae027bb49","0198b9d0-29d4-7df3-8625-4b4515841beb","{""num_scrambled_semantic"":""8"",""num_scrambled_causal"":""4"",""num_scrambled_schematic"":""4"",""participantId"":""622E7D8A2D5041BABE739B8EFA8E3603"",""assignmentId"":""0198ba0e-472c-7734-a773-b51ae027bb49"",""projectId"":""0198b9d0-29d4-7df3-8625-4b4515841beb""}","https://test12345.live/?num_scrambled_semantic=8&num_scrambled_causal=4&num_scrambled_schematic=4&participantId=622E7D8A2D5041BABE739B8EFA8E3603&assignmentId=0198ba0e-472c-7734-a773-b51ae027bb49&projectId=0198b9d0-29d4-7df3-8625-4b4515841beb","622E7D8A2D5041BABE739B8EFA8E3603-2025-08-17-22-46-42","","null","","images/causal_sequence/dog_causal/dog_causal_6.png","null","",""
"","","","","","image-button-response","105","553945","0.0-14.0-1.0-1.5","622E7D8A2D5041BABE739B8EFA8E3603","622E7D8A2D5041BABE739B8EFA8E3603","0198ba0e-472c-7734-a773-b51ae027bb49","0198b9d0-29d4-7df3-8625-4b4515841beb","{""num_scrambled_semantic"":""8"",""num_scrambled_causal"":""4"",""num_scrambled_schematic"":""4"",""participantId"":""622E7D8A2D5041BABE739B8EFA8E3603"",""assignmentId"":""0198ba0e-472c-7734-a773-b51ae027bb49"",""projectId"":""0198b9d0-29d4-7df3-8625-4b4515841beb""}","https://test12345.live/?num_scrambled_semantic=8&num_scrambled_causal=4&num_scrambled_schematic=4&participantId=622E7D8A2D5041BABE739B8EFA8E3603&assignmentId=0198ba0e-472c-7734-a773-b51ae027bb49&projectId=0198b9d0-29d4-7df3-8625-4b4515841beb","622E7D8A2D5041BABE739B8EFA8E3603-2025-08-17-22-46-42","","2845","","images/causal_sequence/dog_causal/dog_causal_6.png","0","",""
"","","","","","image-button-response","106","559349","0.0-14.0-1.0-2.5","622E7D8A2D5041BABE739B8EFA8E3603","622E7D8A2D5041BABE739B8EFA8E3603","0198ba0e-472c-7734-a773-b51ae027bb49","0198b9d0-29d4-7df3-8625-4b4515841beb","{""num_scrambled_semantic"":""8"",""num_scrambled_causal"":""4"",""num_scrambled_schematic"":""4"",""participantId"":""622E7D8A2D5041BABE739B8EFA8E3603"",""assignmentId"":""0198ba0e-472c-7734-a773-b51ae027bb49"",""projectId"":""0198b9d0-29d4-7df3-8625-4b4515841beb""}","https://test12345.live/?num_scrambled_semantic=8&num_scrambled_causal=4&num_scrambled_schematic=4&participantId=622E7D8A2D5041BABE739B8EFA8E3603&assignmentId=0198ba0e-472c-7734-a773-b51ae027bb49&projectId=0198b9d0-29d4-7df3-8625-4b4515841beb","622E7D8A2D5041BABE739B8EFA8E3603-2025-08-17-22-46-42","","null","","[]","null","",""
"","","","","","image-button-response","107","563855","0.0-14.0-1.0-0.6","622E7D8A2D5041BABE739B8EFA8E3603","622E7D8A2D5041BABE739B8EFA8E3603","0198ba0e-472c-7734-a773-b51ae027bb49","0198b9d0-29d4-7df3-8625-4b4515841beb","{""num_scrambled_semantic"":""8"",""num_scrambled_causal"":""4"",""num_scrambled_schematic"":""4"",""participantId"":""622E7D8A2D5041BABE739B8EFA8E3603"",""assignmentId"":""0198ba0e-472c-7734-a773-b51ae027bb49"",""projectId"":""0198b9d0-29d4-7df3-8625-4b4515841beb""}","https://test12345.live/?num_scrambled_semantic=8&num_scrambled_causal=4&num_scrambled_schematic=4&participantId=622E7D8A2D5041BABE739B8EFA8E3603&assignmentId=0198ba0e-472c-7734-a773-b51ae027bb49&projectId=0198b9d0-29d4-7df3-8625-4b4515841beb","622E7D8A2D5041BABE739B8EFA8E3603-2025-08-17-22-46-42","","null","","images/causal_sequence/dog_causal/dog_causal_7.png","null","",""
"","","","","","image-button-response","108","566656","0.0-14.0-1.0-1.6","622E7D8A2D5041BABE739B8EFA8E3603","622E7D8A2D5041BABE739B8EFA8E3603","0198ba0e-472c-7734-a773-b51ae027bb49","0198b9d0-29d4-7df3-8625-4b4515841beb","{""num_scrambled_semantic"":""8"",""num_scrambled_causal"":""4"",""num_scrambled_schematic"":""4"",""participantId"":""622E7D8A2D5041BABE739B8EFA8E3603"",""assignmentId"":""0198ba0e-472c-7734-a773-b51ae027bb49"",""projectId"":""0198b9d0-29d4-7df3-8625-4b4515841beb""}","https://test12345.live/?num_scrambled_semantic=8&num_scrambled_causal=4&num_scrambled_schematic=4&participantId=622E7D8A2D5041BABE739B8EFA8E3603&assignmentId=0198ba0e-472c-7734-a773-b51ae027bb49&projectId=0198b9d0-29d4-7df3-8625-4b4515841beb","622E7D8A2D5041BABE739B8EFA8E3603-2025-08-17-22-46-42","","2801","","images/causal_sequence/dog_causal/dog_causal_7.png","0","",""
"","","","","","image-button-response","109","572059","0.0-14.0-1.0-2.6","622E7D8A2D5041BABE739B8EFA8E3603","622E7D8A2D5041BABE739B8EFA8E3603","0198ba0e-472c-7734-a773-b51ae027bb49","0198b9d0-29d4-7df3-8625-4b4515841beb","{""num_scrambled_semantic"":""8"",""num_scrambled_causal"":""4"",""num_scrambled_schematic"":""4"",""participantId"":""622E7D8A2D5041BABE739B8EFA8E3603"",""assignmentId"":""0198ba0e-472c-7734-a773-b51ae027bb49"",""projectId"":""0198b9d0-29d4-7df3-8625-4b4515841beb""}","https://test12345.live/?num_scrambled_semantic=8&num_scrambled_causal=4&num_scrambled_schematic=4&participantId=622E7D8A2D5041BABE739B8EFA8E3603&assignmentId=0198ba0e-472c-7734-a773-b51ae027bb49&projectId=0198b9d0-29d4-7df3-8625-4b4515841beb","622E7D8A2D5041BABE739B8EFA8E3603-2025-08-17-22-46-42","","null","","[]","null","",""
"","","","","","image-button-response","110","576565","0.0-14.0-1.0-0.7","622E7D8A2D5041BABE739B8EFA8E3603","622E7D8A2D5041BABE739B8EFA8E3603","0198ba0e-472c-7734-a773-b51ae027bb49","0198b9d0-29d4-7df3-8625-4b4515841beb","{""num_scrambled_semantic"":""8"",""num_scrambled_causal"":""4"",""num_scrambled_schematic"":""4"",""participantId"":""622E7D8A2D5041BABE739B8EFA8E3603"",""assignmentId"":""0198ba0e-472c-7734-a773-b51ae027bb49"",""projectId"":""0198b9d0-29d4-7df3-8625-4b4515841beb""}","https://test12345.live/?num_scrambled_semantic=8&num_scrambled_causal=4&num_scrambled_schematic=4&participantId=622E7D8A2D5041BABE739B8EFA8E3603&assignmentId=0198ba0e-472c-7734-a773-b51ae027bb49&projectId=0198b9d0-29d4-7df3-8625-4b4515841beb","622E7D8A2D5041BABE739B8EFA8E3603-2025-08-17-22-46-42","","null","","images/causal_sequence/dog_causal/dog_causal_8.png","null","",""
"","","","","","image-button-response","111","578796","0.0-14.0-1.0-1.7","622E7D8A2D5041BABE739B8EFA8E3603","622E7D8A2D5041BABE739B8EFA8E3603","0198ba0e-472c-7734-a773-b51ae027bb49","0198b9d0-29d4-7df3-8625-4b4515841beb","{""num_scrambled_semantic"":""8"",""num_scrambled_causal"":""4"",""num_scrambled_schematic"":""4"",""participantId"":""622E7D8A2D5041BABE739B8EFA8E3603"",""assignmentId"":""0198ba0e-472c-7734-a773-b51ae027bb49"",""projectId"":""0198b9d0-29d4-7df3-8625-4b4515841beb""}","https://test12345.live/?num_scrambled_semantic=8&num_scrambled_causal=4&num_scrambled_schematic=4&participantId=622E7D8A2D5041BABE739B8EFA8E3603&assignmentId=0198ba0e-472c-7734-a773-b51ae027bb49&projectId=0198b9d0-29d4-7df3-8625-4b4515841beb","622E7D8A2D5041BABE739B8EFA8E3603-2025-08-17-22-46-42","","2229","","images/causal_sequence/dog_causal/dog_causal_8.png","0","",""
"","","","","","image-button-response","112","584199","0.0-14.0-1.0-2.7","622E7D8A2D5041BABE739B8EFA8E3603","622E7D8A2D5041BABE739B8EFA8E3603","0198ba0e-472c-7734-a773-b51ae027bb49","0198b9d0-29d4-7df3-8625-4b4515841beb","{""num_scrambled_semantic"":""8"",""num_scrambled_causal"":""4"",""num_scrambled_schematic"":""4"",""participantId"":""622E7D8A2D5041BABE739B8EFA8E3603"",""assignmentId"":""0198ba0e-472c-7734-a773-b51ae027bb49"",""projectId"":""0198b9d0-29d4-7df3-8625-4b4515841beb""}","https://test12345.live/?num_scrambled_semantic=8&num_scrambled_causal=4&num_scrambled_schematic=4&participantId=622E7D8A2D5041BABE739B8EFA8E3603&assignmentId=0198ba0e-472c-7734-a773-b51ae027bb49&projectId=0198b9d0-29d4-7df3-8625-4b4515841beb","622E7D8A2D5041BABE739B8EFA8E3603-2025-08-17-22-46-42","","null","","[]","null","",""
"","","","","","image-button-response","113","588705","0.0-14.0-1.0-0.8","622E7D8A2D5041BABE739B8EFA8E3603","622E7D8A2D5041BABE739B8EFA8E3603","0198ba0e-472c-7734-a773-b51ae027bb49","0198b9d0-29d4-7df3-8625-4b4515841beb","{""num_scrambled_semantic"":""8"",""num_scrambled_causal"":""4"",""num_scrambled_schematic"":""4"",""participantId"":""622E7D8A2D5041BABE739B8EFA8E3603"",""assignmentId"":""0198ba0e-472c-7734-a773-b51ae027bb49"",""projectId"":""0198b9d0-29d4-7df3-8625-4b4515841beb""}","https://test12345.live/?num_scrambled_semantic=8&num_scrambled_causal=4&num_scrambled_schematic=4&participantId=622E7D8A2D5041BABE739B8EFA8E3603&assignmentId=0198ba0e-472c-7734-a773-b51ae027bb49&projectId=0198b9d0-29d4-7df3-8625-4b4515841beb","622E7D8A2D5041BABE739B8EFA8E3603-2025-08-17-22-46-42","","null","","images/causal_sequence/dog_causal/dog_causal_9.png","null","",""
"","","","","","image-button-response","114","592710","0.0-14.0-1.0-1.8","622E7D8A2D5041BABE739B8EFA8E3603","622E7D8A2D5041BABE739B8EFA8E3603","0198ba0e-472c-7734-a773-b51ae027bb49","0198b9d0-29d4-7df3-8625-4b4515841beb","{""num_scrambled_semantic"":""8"",""num_scrambled_causal"":""4"",""num_scrambled_schematic"":""4"",""participantId"":""622E7D8A2D5041BABE739B8EFA8E3603"",""assignmentId"":""0198ba0e-472c-7734-a773-b51ae027bb49"",""projectId"":""0198b9d0-29d4-7df3-8625-4b4515841beb""}","https://test12345.live/?num_scrambled_semantic=8&num_scrambled_causal=4&num_scrambled_schematic=4&participantId=622E7D8A2D5041BABE739B8EFA8E3603&assignmentId=0198ba0e-472c-7734-a773-b51ae027bb49&projectId=0198b9d0-29d4-7df3-8625-4b4515841beb","622E7D8A2D5041BABE739B8EFA8E3603-2025-08-17-22-46-42","","null","","images/causal_sequence/dog_causal/dog_causal_9.png","null","",""
