"success","timeout","failed_images","failed_audio","failed_video","trial_type","trial_index","time_elapsed","internal_node_id","subject","subject_id","study_id","session_id","urlvar","current_url","audio_id","view_history","rt","device_id","stimulus","response","estimated_stimulus_onset","seq_name"
"true","false","[]","[]","[]","preload","0","6600","0.0-0.0","624E9FCA937149C69D856EA4059E867F","624E9FCA937149C69D856EA4059E867F","6b81af7b-e6cd-45f2-a3d9-cc10e02ccee5","5e631737-0fa4-44a6-b227-7ba1d7345015","{""num_scrambled_semantic"":""8"",""num_scrambled_causal"":""4"",""num_scrambled_schematic"":""4"",""participantId"":""624E9FCA937149C69D856EA4059E867F"",""assignmentId"":""6b81af7b-e6cd-45f2-a3d9-cc10e02ccee5"",""projectId"":""5e631737-0fa4-44a6-b227-7ba1d7345015""}","https://test12345.live/?num_scrambled_semantic=8&num_scrambled_causal=4&num_scrambled_schematic=4&participantId=624E9FCA937149C69D856EA4059E867F&assignmentId=6b81af7b-e6cd-45f2-a3d9-cc10e02ccee5&projectId=5e631737-0fa4-44a6-b227-7ba1d7345015","624E9FCA937149C69D856EA4059E867F-2025-05-27-18-53-02","","","","","","",""
"","","","","","instructions","1","813997","0.0-1.0","624E9FCA937149C69D856EA4059E867F","624E9FCA937149C69D856EA4059E867F","6b81af7b-e6cd-45f2-a3d9-cc10e02ccee5","5e631737-0fa4-44a6-b227-7ba1d7345015","{""num_scrambled_semantic"":""8"",""num_scrambled_causal"":""4"",""num_scrambled_schematic"":""4"",""participantId"":""624E9FCA937149C69D856EA4059E867F"",""assignmentId"":""6b81af7b-e6cd-45f2-a3d9-cc10e02ccee5"",""projectId"":""5e631737-0fa4-44a6-b227-7ba1d7345015""}","https://test12345.live/?num_scrambled_semantic=8&num_scrambled_causal=4&num_scrambled_schematic=4&participantId=624E9FCA937149C69D856EA4059E867F&assignmentId=6b81af7b-e6cd-45f2-a3d9-cc10e02ccee5&projectId=5e631737-0fa4-44a6-b227-7ba1d7345015","624E9FCA937149C69D856EA4059E867F-2025-05-27-18-53-02","[{""page_index"":0,""viewing_time"":807395}]","807396","","","","",""
"","","","","","instructions","2","817516","0.0-2.0","624E9FCA937149C69D856EA4059E867F","624E9FCA937149C69D856EA4059E867F","6b81af7b-e6cd-45f2-a3d9-cc10e02ccee5","5e631737-0fa4-44a6-b227-7ba1d7345015","{""num_scrambled_semantic"":""8"",""num_scrambled_causal"":""4"",""num_scrambled_schematic"":""4"",""participantId"":""624E9FCA937149C69D856EA4059E867F"",""assignmentId"":""6b81af7b-e6cd-45f2-a3d9-cc10e02ccee5"",""projectId"":""5e631737-0fa4-44a6-b227-7ba1d7345015""}","https://test12345.live/?num_scrambled_semantic=8&num_scrambled_causal=4&num_scrambled_schematic=4&participantId=624E9FCA937149C69D856EA4059E867F&assignmentId=6b81af7b-e6cd-45f2-a3d9-cc10e02ccee5&projectId=5e631737-0fa4-44a6-b227-7ba1d7345015","624E9FCA937149C69D856EA4059E867F-2025-05-27-18-53-02","[{""page_index"":0,""viewing_time"":3518}]","3518","","","","",""
"true","","","","","fullscreen","3","1126253","0.0-3.0","624E9FCA937149C69D856EA4059E867F","624E9FCA937149C69D856EA4059E867F","6b81af7b-e6cd-45f2-a3d9-cc10e02ccee5","5e631737-0fa4-44a6-b227-7ba1d7345015","{""num_scrambled_semantic"":""8"",""num_scrambled_causal"":""4"",""num_scrambled_schematic"":""4"",""participantId"":""624E9FCA937149C69D856EA4059E867F"",""assignmentId"":""6b81af7b-e6cd-45f2-a3d9-cc10e02ccee5"",""projectId"":""5e631737-0fa4-44a6-b227-7ba1d7345015""}","https://test12345.live/?num_scrambled_semantic=8&num_scrambled_causal=4&num_scrambled_schematic=4&participantId=624E9FCA937149C69D856EA4059E867F&assignmentId=6b81af7b-e6cd-45f2-a3d9-cc10e02ccee5&projectId=5e631737-0fa4-44a6-b227-7ba1d7345015","624E9FCA937149C69D856EA4059E867F-2025-05-27-18-53-02","","307717","","","","",""
"","","","","","initialize-microphone","4","1139967","0.0-4.0-0.0","624E9FCA937149C69D856EA4059E867F","624E9FCA937149C69D856EA4059E867F","6b81af7b-e6cd-45f2-a3d9-cc10e02ccee5","5e631737-0fa4-44a6-b227-7ba1d7345015","{""num_scrambled_semantic"":""8"",""num_scrambled_causal"":""4"",""num_scrambled_schematic"":""4"",""participantId"":""624E9FCA937149C69D856EA4059E867F"",""assignmentId"":""6b81af7b-e6cd-45f2-a3d9-cc10e02ccee5"",""projectId"":""5e631737-0fa4-44a6-b227-7ba1d7345015""}","https://test12345.live/?num_scrambled_semantic=8&num_scrambled_causal=4&num_scrambled_schematic=4&participantId=624E9FCA937149C69D856EA4059E867F&assignmentId=6b81af7b-e6cd-45f2-a3d9-cc10e02ccee5&projectId=5e631737-0fa4-44a6-b227-7ba1d7345015","624E9FCA937149C69D856EA4059E867F-2025-05-27-18-53-02","","","7d06d7adad9d3dd898b3b902c29e8a6b1c36d6a4c0aee7f42065501ada5051ac","","","",""
"","","","","","html-audio-response","5","1153149","0.0-4.0-1.0","624E9FCA937149C69D856EA4059E867F","624E9FCA937149C69D856EA4059E867F","6b81af7b-e6cd-45f2-a3d9-cc10e02ccee5","5e631737-0fa4-44a6-b227-7ba1d7345015","{""num_scrambled_semantic"":""8"",""num_scrambled_causal"":""4"",""num_scrambled_schematic"":""4"",""participantId"":""624E9FCA937149C69D856EA4059E867F"",""assignmentId"":""6b81af7b-e6cd-45f2-a3d9-cc10e02ccee5"",""projectId"":""5e631737-0fa4-44a6-b227-7ba1d7345015""}","https://test12345.live/?num_scrambled_semantic=8&num_scrambled_causal=4&num_scrambled_schematic=4&participantId=624E9FCA937149C69D856EA4059E867F&assignmentId=6b81af7b-e6cd-45f2-a3d9-cc10e02ccee5&projectId=5e631737-0fa4-44a6-b227-7ba1d7345015","624E9FCA937149C69D856EA4059E867F-2025-05-27-18-53-02","","3195","","<span style=""color: red; font-size: 24px""> NOW RECORDING</span>
        <p>Please test Microphone</p>","","3",""
"","","","","","html-button-response","6","1154623","0.0-4.0-2.0","624E9FCA937149C69D856EA4059E867F","624E9FCA937149C69D856EA4059E867F","6b81af7b-e6cd-45f2-a3d9-cc10e02ccee5","5e631737-0fa4-44a6-b227-7ba1d7345015","{""num_scrambled_semantic"":""8"",""num_scrambled_causal"":""4"",""num_scrambled_schematic"":""4"",""participantId"":""624E9FCA937149C69D856EA4059E867F"",""assignmentId"":""6b81af7b-e6cd-45f2-a3d9-cc10e02ccee5"",""projectId"":""5e631737-0fa4-44a6-b227-7ba1d7345015""}","https://test12345.live/?num_scrambled_semantic=8&num_scrambled_causal=4&num_scrambled_schematic=4&participantId=624E9FCA937149C69D856EA4059E867F&assignmentId=6b81af7b-e6cd-45f2-a3d9-cc10e02ccee5&projectId=5e631737-0fa4-44a6-b227-7ba1d7345015","624E9FCA937149C69D856EA4059E867F-2025-05-27-18-53-02","","1472","","<p style=""font-size:48px; color:red;"">Is Microphone OK?</p>","1","",""
"","","","","","instructions","7","1169880","0.0-5.0","624E9FCA937149C69D856EA4059E867F","624E9FCA937149C69D856EA4059E867F","6b81af7b-e6cd-45f2-a3d9-cc10e02ccee5","5e631737-0fa4-44a6-b227-7ba1d7345015","{""num_scrambled_semantic"":""8"",""num_scrambled_causal"":""4"",""num_scrambled_schematic"":""4"",""participantId"":""624E9FCA937149C69D856EA4059E867F"",""assignmentId"":""6b81af7b-e6cd-45f2-a3d9-cc10e02ccee5"",""projectId"":""5e631737-0fa4-44a6-b227-7ba1d7345015""}","https://test12345.live/?num_scrambled_semantic=8&num_scrambled_causal=4&num_scrambled_schematic=4&participantId=624E9FCA937149C69D856EA4059E867F&assignmentId=6b81af7b-e6cd-45f2-a3d9-cc10e02ccee5&projectId=5e631737-0fa4-44a6-b227-7ba1d7345015","624E9FCA937149C69D856EA4059E867F-2025-05-27-18-53-02","[{""page_index"":0,""viewing_time"":6802},{""page_index"":1,""viewing_time"":8455}]","15257","","","","",""
"","","","","","image-button-response","8","1175883","0.0-6.0-0.0","624E9FCA937149C69D856EA4059E867F","624E9FCA937149C69D856EA4059E867F","6b81af7b-e6cd-45f2-a3d9-cc10e02ccee5","5e631737-0fa4-44a6-b227-7ba1d7345015","{""num_scrambled_semantic"":""8"",""num_scrambled_causal"":""4"",""num_scrambled_schematic"":""4"",""participantId"":""624E9FCA937149C69D856EA4059E867F"",""assignmentId"":""6b81af7b-e6cd-45f2-a3d9-cc10e02ccee5"",""projectId"":""5e631737-0fa4-44a6-b227-7ba1d7345015""}","https://test12345.live/?num_scrambled_semantic=8&num_scrambled_causal=4&num_scrambled_schematic=4&participantId=624E9FCA937149C69D856EA4059E867F&assignmentId=6b81af7b-e6cd-45f2-a3d9-cc10e02ccee5&projectId=5e631737-0fa4-44a6-b227-7ba1d7345015","624E9FCA937149C69D856EA4059E867F-2025-05-27-18-53-02","","null","","images/instructions/movie_0.png","null","",""
"","","","","","image-button-response","9","1180391","0.0-6.0-1.0-0.0","624E9FCA937149C69D856EA4059E867F","624E9FCA937149C69D856EA4059E867F","6b81af7b-e6cd-45f2-a3d9-cc10e02ccee5","5e631737-0fa4-44a6-b227-7ba1d7345015","{""num_scrambled_semantic"":""8"",""num_scrambled_causal"":""4"",""num_scrambled_schematic"":""4"",""participantId"":""624E9FCA937149C69D856EA4059E867F"",""assignmentId"":""6b81af7b-e6cd-45f2-a3d9-cc10e02ccee5"",""projectId"":""5e631737-0fa4-44a6-b227-7ba1d7345015""}","https://test12345.live/?num_scrambled_semantic=8&num_scrambled_causal=4&num_scrambled_schematic=4&participantId=624E9FCA937149C69D856EA4059E867F&assignmentId=6b81af7b-e6cd-45f2-a3d9-cc10e02ccee5&projectId=5e631737-0fa4-44a6-b227-7ba1d7345015","624E9FCA937149C69D856EA4059E867F-2025-05-27-18-53-02","","null","","images/instructions/movie_1.png","null","",""
"","","","","","image-button-response","10","1183666","0.0-6.0-1.0-1.0","624E9FCA937149C69D856EA4059E867F","624E9FCA937149C69D856EA4059E867F","6b81af7b-e6cd-45f2-a3d9-cc10e02ccee5","5e631737-0fa4-44a6-b227-7ba1d7345015","{""num_scrambled_semantic"":""8"",""num_scrambled_causal"":""4"",""num_scrambled_schematic"":""4"",""participantId"":""624E9FCA937149C69D856EA4059E867F"",""assignmentId"":""6b81af7b-e6cd-45f2-a3d9-cc10e02ccee5"",""projectId"":""5e631737-0fa4-44a6-b227-7ba1d7345015""}","https://test12345.live/?num_scrambled_semantic=8&num_scrambled_causal=4&num_scrambled_schematic=4&participantId=624E9FCA937149C69D856EA4059E867F&assignmentId=6b81af7b-e6cd-45f2-a3d9-cc10e02ccee5&projectId=5e631737-0fa4-44a6-b227-7ba1d7345015","624E9FCA937149C69D856EA4059E867F-2025-05-27-18-53-02","","3274","","images/instructions/movie_1.png","0","",""
"","","","","","image-button-response","11","1185474","0.0-6.0-1.0-2.0","624E9FCA937149C69D856EA4059E867F","624E9FCA937149C69D856EA4059E867F","6b81af7b-e6cd-45f2-a3d9-cc10e02ccee5","5e631737-0fa4-44a6-b227-7ba1d7345015","{""num_scrambled_semantic"":""8"",""num_scrambled_causal"":""4"",""num_scrambled_schematic"":""4"",""participantId"":""624E9FCA937149C69D856EA4059E867F"",""assignmentId"":""6b81af7b-e6cd-45f2-a3d9-cc10e02ccee5"",""projectId"":""5e631737-0fa4-44a6-b227-7ba1d7345015""}","https://test12345.live/?num_scrambled_semantic=8&num_scrambled_causal=4&num_scrambled_schematic=4&participantId=624E9FCA937149C69D856EA4059E867F&assignmentId=6b81af7b-e6cd-45f2-a3d9-cc10e02ccee5&projectId=5e631737-0fa4-44a6-b227-7ba1d7345015","624E9FCA937149C69D856EA4059E867F-2025-05-27-18-53-02","","null","","[]","null","",""
"","","","","","image-button-response","12","1189976","0.0-6.0-1.0-0.1","624E9FCA937149C69D856EA4059E867F","624E9FCA937149C69D856EA4059E867F","6b81af7b-e6cd-45f2-a3d9-cc10e02ccee5","5e631737-0fa4-44a6-b227-7ba1d7345015","{""num_scrambled_semantic"":""8"",""num_scrambled_causal"":""4"",""num_scrambled_schematic"":""4"",""participantId"":""624E9FCA937149C69D856EA4059E867F"",""assignmentId"":""6b81af7b-e6cd-45f2-a3d9-cc10e02ccee5"",""projectId"":""5e631737-0fa4-44a6-b227-7ba1d7345015""}","https://test12345.live/?num_scrambled_semantic=8&num_scrambled_causal=4&num_scrambled_schematic=4&participantId=624E9FCA937149C69D856EA4059E867F&assignmentId=6b81af7b-e6cd-45f2-a3d9-cc10e02ccee5&projectId=5e631737-0fa4-44a6-b227-7ba1d7345015","624E9FCA937149C69D856EA4059E867F-2025-05-27-18-53-02","","null","","images/instructions/movie_2.png","null","",""
"","","","","","image-button-response","13","1192661","0.0-6.0-1.0-1.1","624E9FCA937149C69D856EA4059E867F","624E9FCA937149C69D856EA4059E867F","6b81af7b-e6cd-45f2-a3d9-cc10e02ccee5","5e631737-0fa4-44a6-b227-7ba1d7345015","{""num_scrambled_semantic"":""8"",""num_scrambled_causal"":""4"",""num_scrambled_schematic"":""4"",""participantId"":""624E9FCA937149C69D856EA4059E867F"",""assignmentId"":""6b81af7b-e6cd-45f2-a3d9-cc10e02ccee5"",""projectId"":""5e631737-0fa4-44a6-b227-7ba1d7345015""}","https://test12345.live/?num_scrambled_semantic=8&num_scrambled_causal=4&num_scrambled_schematic=4&participantId=624E9FCA937149C69D856EA4059E867F&assignmentId=6b81af7b-e6cd-45f2-a3d9-cc10e02ccee5&projectId=5e631737-0fa4-44a6-b227-7ba1d7345015","624E9FCA937149C69D856EA4059E867F-2025-05-27-18-53-02","","2684","","images/instructions/movie_2.png","0","",""
"","","","","","image-button-response","14","1194479","0.0-6.0-1.0-2.1","624E9FCA937149C69D856EA4059E867F","624E9FCA937149C69D856EA4059E867F","6b81af7b-e6cd-45f2-a3d9-cc10e02ccee5","5e631737-0fa4-44a6-b227-7ba1d7345015","{""num_scrambled_semantic"":""8"",""num_scrambled_causal"":""4"",""num_scrambled_schematic"":""4"",""participantId"":""624E9FCA937149C69D856EA4059E867F"",""assignmentId"":""6b81af7b-e6cd-45f2-a3d9-cc10e02ccee5"",""projectId"":""5e631737-0fa4-44a6-b227-7ba1d7345015""}","https://test12345.live/?num_scrambled_semantic=8&num_scrambled_causal=4&num_scrambled_schematic=4&participantId=624E9FCA937149C69D856EA4059E867F&assignmentId=6b81af7b-e6cd-45f2-a3d9-cc10e02ccee5&projectId=5e631737-0fa4-44a6-b227-7ba1d7345015","624E9FCA937149C69D856EA4059E867F-2025-05-27-18-53-02","","null","","[]","null","",""
"","","","","","image-button-response","15","1198983","0.0-6.0-1.0-0.2","624E9FCA937149C69D856EA4059E867F","624E9FCA937149C69D856EA4059E867F","6b81af7b-e6cd-45f2-a3d9-cc10e02ccee5","5e631737-0fa4-44a6-b227-7ba1d7345015","{""num_scrambled_semantic"":""8"",""num_scrambled_causal"":""4"",""num_scrambled_schematic"":""4"",""participantId"":""624E9FCA937149C69D856EA4059E867F"",""assignmentId"":""6b81af7b-e6cd-45f2-a3d9-cc10e02ccee5"",""projectId"":""5e631737-0fa4-44a6-b227-7ba1d7345015""}","https://test12345.live/?num_scrambled_semantic=8&num_scrambled_causal=4&num_scrambled_schematic=4&participantId=624E9FCA937149C69D856EA4059E867F&assignmentId=6b81af7b-e6cd-45f2-a3d9-cc10e02ccee5&projectId=5e631737-0fa4-44a6-b227-7ba1d7345015","624E9FCA937149C69D856EA4059E867F-2025-05-27-18-53-02","","null","","images/instructions/movie_3.png","null","",""
"","","","","","image-button-response","16","1200440","0.0-6.0-1.0-1.2","624E9FCA937149C69D856EA4059E867F","624E9FCA937149C69D856EA4059E867F","6b81af7b-e6cd-45f2-a3d9-cc10e02ccee5","5e631737-0fa4-44a6-b227-7ba1d7345015","{""num_scrambled_semantic"":""8"",""num_scrambled_causal"":""4"",""num_scrambled_schematic"":""4"",""participantId"":""624E9FCA937149C69D856EA4059E867F"",""assignmentId"":""6b81af7b-e6cd-45f2-a3d9-cc10e02ccee5"",""projectId"":""5e631737-0fa4-44a6-b227-7ba1d7345015""}","https://test12345.live/?num_scrambled_semantic=8&num_scrambled_causal=4&num_scrambled_schematic=4&participantId=624E9FCA937149C69D856EA4059E867F&assignmentId=6b81af7b-e6cd-45f2-a3d9-cc10e02ccee5&projectId=5e631737-0fa4-44a6-b227-7ba1d7345015","624E9FCA937149C69D856EA4059E867F-2025-05-27-18-53-02","","1457","","images/instructions/movie_3.png","0","",""
"","","","","","image-button-response","17","1202242","0.0-6.0-1.0-2.2","624E9FCA937149C69D856EA4059E867F","624E9FCA937149C69D856EA4059E867F","6b81af7b-e6cd-45f2-a3d9-cc10e02ccee5","5e631737-0fa4-44a6-b227-7ba1d7345015","{""num_scrambled_semantic"":""8"",""num_scrambled_causal"":""4"",""num_scrambled_schematic"":""4"",""participantId"":""624E9FCA937149C69D856EA4059E867F"",""assignmentId"":""6b81af7b-e6cd-45f2-a3d9-cc10e02ccee5"",""projectId"":""5e631737-0fa4-44a6-b227-7ba1d7345015""}","https://test12345.live/?num_scrambled_semantic=8&num_scrambled_causal=4&num_scrambled_schematic=4&participantId=624E9FCA937149C69D856EA4059E867F&assignmentId=6b81af7b-e6cd-45f2-a3d9-cc10e02ccee5&projectId=5e631737-0fa4-44a6-b227-7ba1d7345015","624E9FCA937149C69D856EA4059E867F-2025-05-27-18-53-02","","null","","[]","null","",""
"","","","","","image-button-response","18","1206746","0.0-6.0-1.0-0.3","624E9FCA937149C69D856EA4059E867F","624E9FCA937149C69D856EA4059E867F","6b81af7b-e6cd-45f2-a3d9-cc10e02ccee5","5e631737-0fa4-44a6-b227-7ba1d7345015","{""num_scrambled_semantic"":""8"",""num_scrambled_causal"":""4"",""num_scrambled_schematic"":""4"",""participantId"":""624E9FCA937149C69D856EA4059E867F"",""assignmentId"":""6b81af7b-e6cd-45f2-a3d9-cc10e02ccee5"",""projectId"":""5e631737-0fa4-44a6-b227-7ba1d7345015""}","https://test12345.live/?num_scrambled_semantic=8&num_scrambled_causal=4&num_scrambled_schematic=4&participantId=624E9FCA937149C69D856EA4059E867F&assignmentId=6b81af7b-e6cd-45f2-a3d9-cc10e02ccee5&projectId=5e631737-0fa4-44a6-b227-7ba1d7345015","624E9FCA937149C69D856EA4059E867F-2025-05-27-18-53-02","","null","","images/instructions/movie_4.png","null","",""
"","","","","","image-button-response","19","1209474","0.0-6.0-1.0-1.3","624E9FCA937149C69D856EA4059E867F","624E9FCA937149C69D856EA4059E867F","6b81af7b-e6cd-45f2-a3d9-cc10e02ccee5","5e631737-0fa4-44a6-b227-7ba1d7345015","{""num_scrambled_semantic"":""8"",""num_scrambled_causal"":""4"",""num_scrambled_schematic"":""4"",""participantId"":""624E9FCA937149C69D856EA4059E867F"",""assignmentId"":""6b81af7b-e6cd-45f2-a3d9-cc10e02ccee5"",""projectId"":""5e631737-0fa4-44a6-b227-7ba1d7345015""}","https://test12345.live/?num_scrambled_semantic=8&num_scrambled_causal=4&num_scrambled_schematic=4&participantId=624E9FCA937149C69D856EA4059E867F&assignmentId=6b81af7b-e6cd-45f2-a3d9-cc10e02ccee5&projectId=5e631737-0fa4-44a6-b227-7ba1d7345015","624E9FCA937149C69D856EA4059E867F-2025-05-27-18-53-02","","2727","","images/instructions/movie_4.png","0","",""
"","","","","","image-button-response","20","1211276","0.0-6.0-1.0-2.3","624E9FCA937149C69D856EA4059E867F","624E9FCA937149C69D856EA4059E867F","6b81af7b-e6cd-45f2-a3d9-cc10e02ccee5","5e631737-0fa4-44a6-b227-7ba1d7345015","{""num_scrambled_semantic"":""8"",""num_scrambled_causal"":""4"",""num_scrambled_schematic"":""4"",""participantId"":""624E9FCA937149C69D856EA4059E867F"",""assignmentId"":""6b81af7b-e6cd-45f2-a3d9-cc10e02ccee5"",""projectId"":""5e631737-0fa4-44a6-b227-7ba1d7345015""}","https://test12345.live/?num_scrambled_semantic=8&num_scrambled_causal=4&num_scrambled_schematic=4&participantId=624E9FCA937149C69D856EA4059E867F&assignmentId=6b81af7b-e6cd-45f2-a3d9-cc10e02ccee5&projectId=5e631737-0fa4-44a6-b227-7ba1d7345015","624E9FCA937149C69D856EA4059E867F-2025-05-27-18-53-02","","null","","[]","null","",""
"","","","","","instructions","21","1225793","0.0-7.0","624E9FCA937149C69D856EA4059E867F","624E9FCA937149C69D856EA4059E867F","6b81af7b-e6cd-45f2-a3d9-cc10e02ccee5","5e631737-0fa4-44a6-b227-7ba1d7345015","{""num_scrambled_semantic"":""8"",""num_scrambled_causal"":""4"",""num_scrambled_schematic"":""4"",""participantId"":""624E9FCA937149C69D856EA4059E867F"",""assignmentId"":""6b81af7b-e6cd-45f2-a3d9-cc10e02ccee5"",""projectId"":""5e631737-0fa4-44a6-b227-7ba1d7345015""}","https://test12345.live/?num_scrambled_semantic=8&num_scrambled_causal=4&num_scrambled_schematic=4&participantId=624E9FCA937149C69D856EA4059E867F&assignmentId=6b81af7b-e6cd-45f2-a3d9-cc10e02ccee5&projectId=5e631737-0fa4-44a6-b227-7ba1d7345015","624E9FCA937149C69D856EA4059E867F-2025-05-27-18-53-02","[{""page_index"":0,""viewing_time"":12841},{""page_index"":1,""viewing_time"":1676}]","14517","","","","",""
"","","","","","html-audio-response","22","1266143","0.0-8.0","624E9FCA937149C69D856EA4059E867F","624E9FCA937149C69D856EA4059E867F","6b81af7b-e6cd-45f2-a3d9-cc10e02ccee5","5e631737-0fa4-44a6-b227-7ba1d7345015","{""num_scrambled_semantic"":""8"",""num_scrambled_causal"":""4"",""num_scrambled_schematic"":""4"",""participantId"":""624E9FCA937149C69D856EA4059E867F"",""assignmentId"":""6b81af7b-e6cd-45f2-a3d9-cc10e02ccee5"",""projectId"":""5e631737-0fa4-44a6-b227-7ba1d7345015""}","https://test12345.live/?num_scrambled_semantic=8&num_scrambled_causal=4&num_scrambled_schematic=4&participantId=624E9FCA937149C69D856EA4059E867F&assignmentId=6b81af7b-e6cd-45f2-a3d9-cc10e02ccee5&projectId=5e631737-0fa4-44a6-b227-7ba1d7345015","624E9FCA937149C69D856EA4059E867F-2025-05-27-18-53-02","","30167","","[""<span style=\""color: red; font-size: 24px\""> NOW RECORDING</span><p>Please say out loud all the images you saw in the exact order you saw them. Try to recall as many images as you can, but remember: getting the order right is more important than the number of images you recall.</p>""]","","2",""
"","","","","","instructions","23","1269005","0.0-9.0","624E9FCA937149C69D856EA4059E867F","624E9FCA937149C69D856EA4059E867F","6b81af7b-e6cd-45f2-a3d9-cc10e02ccee5","5e631737-0fa4-44a6-b227-7ba1d7345015","{""num_scrambled_semantic"":""8"",""num_scrambled_causal"":""4"",""num_scrambled_schematic"":""4"",""participantId"":""624E9FCA937149C69D856EA4059E867F"",""assignmentId"":""6b81af7b-e6cd-45f2-a3d9-cc10e02ccee5"",""projectId"":""5e631737-0fa4-44a6-b227-7ba1d7345015""}","https://test12345.live/?num_scrambled_semantic=8&num_scrambled_causal=4&num_scrambled_schematic=4&participantId=624E9FCA937149C69D856EA4059E867F&assignmentId=6b81af7b-e6cd-45f2-a3d9-cc10e02ccee5&projectId=5e631737-0fa4-44a6-b227-7ba1d7345015","624E9FCA937149C69D856EA4059E867F-2025-05-27-18-53-02","[{""page_index"":0,""viewing_time"":2855}]","2855","","","","",""
"","","","","","image-button-response","24","1275012","0.0-10.0-0.0","624E9FCA937149C69D856EA4059E867F","624E9FCA937149C69D856EA4059E867F","6b81af7b-e6cd-45f2-a3d9-cc10e02ccee5","5e631737-0fa4-44a6-b227-7ba1d7345015","{""num_scrambled_semantic"":""8"",""num_scrambled_causal"":""4"",""num_scrambled_schematic"":""4"",""participantId"":""624E9FCA937149C69D856EA4059E867F"",""assignmentId"":""6b81af7b-e6cd-45f2-a3d9-cc10e02ccee5"",""projectId"":""5e631737-0fa4-44a6-b227-7ba1d7345015""}","https://test12345.live/?num_scrambled_semantic=8&num_scrambled_causal=4&num_scrambled_schematic=4&participantId=624E9FCA937149C69D856EA4059E867F&assignmentId=6b81af7b-e6cd-45f2-a3d9-cc10e02ccee5&projectId=5e631737-0fa4-44a6-b227-7ba1d7345015","624E9FCA937149C69D856EA4059E867F-2025-05-27-18-53-02","","null","","images/semantic_sequence/market_semantic/market_semantic_0.png","null","",""
"","","","","","image-button-response","25","1279514","0.0-10.0-1.0-0.0","624E9FCA937149C69D856EA4059E867F","624E9FCA937149C69D856EA4059E867F","6b81af7b-e6cd-45f2-a3d9-cc10e02ccee5","5e631737-0fa4-44a6-b227-7ba1d7345015","{""num_scrambled_semantic"":""8"",""num_scrambled_causal"":""4"",""num_scrambled_schematic"":""4"",""participantId"":""624E9FCA937149C69D856EA4059E867F"",""assignmentId"":""6b81af7b-e6cd-45f2-a3d9-cc10e02ccee5"",""projectId"":""5e631737-0fa4-44a6-b227-7ba1d7345015""}","https://test12345.live/?num_scrambled_semantic=8&num_scrambled_causal=4&num_scrambled_schematic=4&participantId=624E9FCA937149C69D856EA4059E867F&assignmentId=6b81af7b-e6cd-45f2-a3d9-cc10e02ccee5&projectId=5e631737-0fa4-44a6-b227-7ba1d7345015","624E9FCA937149C69D856EA4059E867F-2025-05-27-18-53-02","","null","","images/semantic_sequence/market_semantic/market_semantic_1.png","null","",""
"","","","","","image-button-response","26","1281120","0.0-10.0-1.0-1.0","624E9FCA937149C69D856EA4059E867F","624E9FCA937149C69D856EA4059E867F","6b81af7b-e6cd-45f2-a3d9-cc10e02ccee5","5e631737-0fa4-44a6-b227-7ba1d7345015","{""num_scrambled_semantic"":""8"",""num_scrambled_causal"":""4"",""num_scrambled_schematic"":""4"",""participantId"":""624E9FCA937149C69D856EA4059E867F"",""assignmentId"":""6b81af7b-e6cd-45f2-a3d9-cc10e02ccee5"",""projectId"":""5e631737-0fa4-44a6-b227-7ba1d7345015""}","https://test12345.live/?num_scrambled_semantic=8&num_scrambled_causal=4&num_scrambled_schematic=4&participantId=624E9FCA937149C69D856EA4059E867F&assignmentId=6b81af7b-e6cd-45f2-a3d9-cc10e02ccee5&projectId=5e631737-0fa4-44a6-b227-7ba1d7345015","624E9FCA937149C69D856EA4059E867F-2025-05-27-18-53-02","","1604","","images/semantic_sequence/market_semantic/market_semantic_1.png","1","",""
"","","","","","image-button-response","27","1282922","0.0-10.0-1.0-2.0","624E9FCA937149C69D856EA4059E867F","624E9FCA937149C69D856EA4059E867F","6b81af7b-e6cd-45f2-a3d9-cc10e02ccee5","5e631737-0fa4-44a6-b227-7ba1d7345015","{""num_scrambled_semantic"":""8"",""num_scrambled_causal"":""4"",""num_scrambled_schematic"":""4"",""participantId"":""624E9FCA937149C69D856EA4059E867F"",""assignmentId"":""6b81af7b-e6cd-45f2-a3d9-cc10e02ccee5"",""projectId"":""5e631737-0fa4-44a6-b227-7ba1d7345015""}","https://test12345.live/?num_scrambled_semantic=8&num_scrambled_causal=4&num_scrambled_schematic=4&participantId=624E9FCA937149C69D856EA4059E867F&assignmentId=6b81af7b-e6cd-45f2-a3d9-cc10e02ccee5&projectId=5e631737-0fa4-44a6-b227-7ba1d7345015","624E9FCA937149C69D856EA4059E867F-2025-05-27-18-53-02","","null","","[]","null","",""
"","","","","","image-button-response","28","1287428","0.0-10.0-1.0-0.1","624E9FCA937149C69D856EA4059E867F","624E9FCA937149C69D856EA4059E867F","6b81af7b-e6cd-45f2-a3d9-cc10e02ccee5","5e631737-0fa4-44a6-b227-7ba1d7345015","{""num_scrambled_semantic"":""8"",""num_scrambled_causal"":""4"",""num_scrambled_schematic"":""4"",""participantId"":""624E9FCA937149C69D856EA4059E867F"",""assignmentId"":""6b81af7b-e6cd-45f2-a3d9-cc10e02ccee5"",""projectId"":""5e631737-0fa4-44a6-b227-7ba1d7345015""}","https://test12345.live/?num_scrambled_semantic=8&num_scrambled_causal=4&num_scrambled_schematic=4&participantId=624E9FCA937149C69D856EA4059E867F&assignmentId=6b81af7b-e6cd-45f2-a3d9-cc10e02ccee5&projectId=5e631737-0fa4-44a6-b227-7ba1d7345015","624E9FCA937149C69D856EA4059E867F-2025-05-27-18-53-02","","null","","images/semantic_sequence/market_semantic/market_semantic_2.png","null","",""
"","","","","","image-button-response","29","1289091","0.0-10.0-1.0-1.1","624E9FCA937149C69D856EA4059E867F","624E9FCA937149C69D856EA4059E867F","6b81af7b-e6cd-45f2-a3d9-cc10e02ccee5","5e631737-0fa4-44a6-b227-7ba1d7345015","{""num_scrambled_semantic"":""8"",""num_scrambled_causal"":""4"",""num_scrambled_schematic"":""4"",""participantId"":""624E9FCA937149C69D856EA4059E867F"",""assignmentId"":""6b81af7b-e6cd-45f2-a3d9-cc10e02ccee5"",""projectId"":""5e631737-0fa4-44a6-b227-7ba1d7345015""}","https://test12345.live/?num_scrambled_semantic=8&num_scrambled_causal=4&num_scrambled_schematic=4&participantId=624E9FCA937149C69D856EA4059E867F&assignmentId=6b81af7b-e6cd-45f2-a3d9-cc10e02ccee5&projectId=5e631737-0fa4-44a6-b227-7ba1d7345015","624E9FCA937149C69D856EA4059E867F-2025-05-27-18-53-02","","1662","","images/semantic_sequence/market_semantic/market_semantic_2.png","1","",""
"","","","","","image-button-response","30","1290913","0.0-10.0-1.0-2.1","624E9FCA937149C69D856EA4059E867F","624E9FCA937149C69D856EA4059E867F","6b81af7b-e6cd-45f2-a3d9-cc10e02ccee5","5e631737-0fa4-44a6-b227-7ba1d7345015","{""num_scrambled_semantic"":""8"",""num_scrambled_causal"":""4"",""num_scrambled_schematic"":""4"",""participantId"":""624E9FCA937149C69D856EA4059E867F"",""assignmentId"":""6b81af7b-e6cd-45f2-a3d9-cc10e02ccee5"",""projectId"":""5e631737-0fa4-44a6-b227-7ba1d7345015""}","https://test12345.live/?num_scrambled_semantic=8&num_scrambled_causal=4&num_scrambled_schematic=4&participantId=624E9FCA937149C69D856EA4059E867F&assignmentId=6b81af7b-e6cd-45f2-a3d9-cc10e02ccee5&projectId=5e631737-0fa4-44a6-b227-7ba1d7345015","624E9FCA937149C69D856EA4059E867F-2025-05-27-18-53-02","","null","","[]","null","",""
"","","","","","image-button-response","31","1295430","0.0-10.0-1.0-0.2","624E9FCA937149C69D856EA4059E867F","624E9FCA937149C69D856EA4059E867F","6b81af7b-e6cd-45f2-a3d9-cc10e02ccee5","5e631737-0fa4-44a6-b227-7ba1d7345015","{""num_scrambled_semantic"":""8"",""num_scrambled_causal"":""4"",""num_scrambled_schematic"":""4"",""participantId"":""624E9FCA937149C69D856EA4059E867F"",""assignmentId"":""6b81af7b-e6cd-45f2-a3d9-cc10e02ccee5"",""projectId"":""5e631737-0fa4-44a6-b227-7ba1d7345015""}","https://test12345.live/?num_scrambled_semantic=8&num_scrambled_causal=4&num_scrambled_schematic=4&participantId=624E9FCA937149C69D856EA4059E867F&assignmentId=6b81af7b-e6cd-45f2-a3d9-cc10e02ccee5&projectId=5e631737-0fa4-44a6-b227-7ba1d7345015","624E9FCA937149C69D856EA4059E867F-2025-05-27-18-53-02","","null","","images/semantic_sequence/market_semantic/market_semantic_3.png","null","",""
"","","","","","image-button-response","32","1297090","0.0-10.0-1.0-1.2","624E9FCA937149C69D856EA4059E867F","624E9FCA937149C69D856EA4059E867F","6b81af7b-e6cd-45f2-a3d9-cc10e02ccee5","5e631737-0fa4-44a6-b227-7ba1d7345015","{""num_scrambled_semantic"":""8"",""num_scrambled_causal"":""4"",""num_scrambled_schematic"":""4"",""participantId"":""624E9FCA937149C69D856EA4059E867F"",""assignmentId"":""6b81af7b-e6cd-45f2-a3d9-cc10e02ccee5"",""projectId"":""5e631737-0fa4-44a6-b227-7ba1d7345015""}","https://test12345.live/?num_scrambled_semantic=8&num_scrambled_causal=4&num_scrambled_schematic=4&participantId=624E9FCA937149C69D856EA4059E867F&assignmentId=6b81af7b-e6cd-45f2-a3d9-cc10e02ccee5&projectId=5e631737-0fa4-44a6-b227-7ba1d7345015","624E9FCA937149C69D856EA4059E867F-2025-05-27-18-53-02","","1659","","images/semantic_sequence/market_semantic/market_semantic_3.png","1","",""
"","","","","","image-button-response","33","1298895","0.0-10.0-1.0-2.2","624E9FCA937149C69D856EA4059E867F","624E9FCA937149C69D856EA4059E867F","6b81af7b-e6cd-45f2-a3d9-cc10e02ccee5","5e631737-0fa4-44a6-b227-7ba1d7345015","{""num_scrambled_semantic"":""8"",""num_scrambled_causal"":""4"",""num_scrambled_schematic"":""4"",""participantId"":""624E9FCA937149C69D856EA4059E867F"",""assignmentId"":""6b81af7b-e6cd-45f2-a3d9-cc10e02ccee5"",""projectId"":""5e631737-0fa4-44a6-b227-7ba1d7345015""}","https://test12345.live/?num_scrambled_semantic=8&num_scrambled_causal=4&num_scrambled_schematic=4&participantId=624E9FCA937149C69D856EA4059E867F&assignmentId=6b81af7b-e6cd-45f2-a3d9-cc10e02ccee5&projectId=5e631737-0fa4-44a6-b227-7ba1d7345015","624E9FCA937149C69D856EA4059E867F-2025-05-27-18-53-02","","null","","[]","null","",""
"","","","","","image-button-response","34","1303397","0.0-10.0-1.0-0.3","624E9FCA937149C69D856EA4059E867F","624E9FCA937149C69D856EA4059E867F","6b81af7b-e6cd-45f2-a3d9-cc10e02ccee5","5e631737-0fa4-44a6-b227-7ba1d7345015","{""num_scrambled_semantic"":""8"",""num_scrambled_causal"":""4"",""num_scrambled_schematic"":""4"",""participantId"":""624E9FCA937149C69D856EA4059E867F"",""assignmentId"":""6b81af7b-e6cd-45f2-a3d9-cc10e02ccee5"",""projectId"":""5e631737-0fa4-44a6-b227-7ba1d7345015""}","https://test12345.live/?num_scrambled_semantic=8&num_scrambled_causal=4&num_scrambled_schematic=4&participantId=624E9FCA937149C69D856EA4059E867F&assignmentId=6b81af7b-e6cd-45f2-a3d9-cc10e02ccee5&projectId=5e631737-0fa4-44a6-b227-7ba1d7345015","624E9FCA937149C69D856EA4059E867F-2025-05-27-18-53-02","","null","","images/semantic_sequence/market_semantic/market_semantic_4.png","null","",""
"","","","","","image-button-response","35","1304267","0.0-10.0-1.0-1.3","624E9FCA937149C69D856EA4059E867F","624E9FCA937149C69D856EA4059E867F","6b81af7b-e6cd-45f2-a3d9-cc10e02ccee5","5e631737-0fa4-44a6-b227-7ba1d7345015","{""num_scrambled_semantic"":""8"",""num_scrambled_causal"":""4"",""num_scrambled_schematic"":""4"",""participantId"":""624E9FCA937149C69D856EA4059E867F"",""assignmentId"":""6b81af7b-e6cd-45f2-a3d9-cc10e02ccee5"",""projectId"":""5e631737-0fa4-44a6-b227-7ba1d7345015""}","https://test12345.live/?num_scrambled_semantic=8&num_scrambled_causal=4&num_scrambled_schematic=4&participantId=624E9FCA937149C69D856EA4059E867F&assignmentId=6b81af7b-e6cd-45f2-a3d9-cc10e02ccee5&projectId=5e631737-0fa4-44a6-b227-7ba1d7345015","624E9FCA937149C69D856EA4059E867F-2025-05-27-18-53-02","","868","","images/semantic_sequence/market_semantic/market_semantic_4.png","0","",""
"","","","","","image-button-response","36","1306071","0.0-10.0-1.0-2.3","624E9FCA937149C69D856EA4059E867F","624E9FCA937149C69D856EA4059E867F","6b81af7b-e6cd-45f2-a3d9-cc10e02ccee5","5e631737-0fa4-44a6-b227-7ba1d7345015","{""num_scrambled_semantic"":""8"",""num_scrambled_causal"":""4"",""num_scrambled_schematic"":""4"",""participantId"":""624E9FCA937149C69D856EA4059E867F"",""assignmentId"":""6b81af7b-e6cd-45f2-a3d9-cc10e02ccee5"",""projectId"":""5e631737-0fa4-44a6-b227-7ba1d7345015""}","https://test12345.live/?num_scrambled_semantic=8&num_scrambled_causal=4&num_scrambled_schematic=4&participantId=624E9FCA937149C69D856EA4059E867F&assignmentId=6b81af7b-e6cd-45f2-a3d9-cc10e02ccee5&projectId=5e631737-0fa4-44a6-b227-7ba1d7345015","624E9FCA937149C69D856EA4059E867F-2025-05-27-18-53-02","","null","","[]","null","",""
"","","","","","image-button-response","37","1310594","0.0-10.0-1.0-0.4","624E9FCA937149C69D856EA4059E867F","624E9FCA937149C69D856EA4059E867F","6b81af7b-e6cd-45f2-a3d9-cc10e02ccee5","5e631737-0fa4-44a6-b227-7ba1d7345015","{""num_scrambled_semantic"":""8"",""num_scrambled_causal"":""4"",""num_scrambled_schematic"":""4"",""participantId"":""624E9FCA937149C69D856EA4059E867F"",""assignmentId"":""6b81af7b-e6cd-45f2-a3d9-cc10e02ccee5"",""projectId"":""5e631737-0fa4-44a6-b227-7ba1d7345015""}","https://test12345.live/?num_scrambled_semantic=8&num_scrambled_causal=4&num_scrambled_schematic=4&participantId=624E9FCA937149C69D856EA4059E867F&assignmentId=6b81af7b-e6cd-45f2-a3d9-cc10e02ccee5&projectId=5e631737-0fa4-44a6-b227-7ba1d7345015","624E9FCA937149C69D856EA4059E867F-2025-05-27-18-53-02","","null","","images/semantic_sequence/market_semantic/market_semantic_5.png","null","",""
"","","","","","image-button-response","38","1311641","0.0-10.0-1.0-1.4","624E9FCA937149C69D856EA4059E867F","624E9FCA937149C69D856EA4059E867F","6b81af7b-e6cd-45f2-a3d9-cc10e02ccee5","5e631737-0fa4-44a6-b227-7ba1d7345015","{""num_scrambled_semantic"":""8"",""num_scrambled_causal"":""4"",""num_scrambled_schematic"":""4"",""participantId"":""624E9FCA937149C69D856EA4059E867F"",""assignmentId"":""6b81af7b-e6cd-45f2-a3d9-cc10e02ccee5"",""projectId"":""5e631737-0fa4-44a6-b227-7ba1d7345015""}","https://test12345.live/?num_scrambled_semantic=8&num_scrambled_causal=4&num_scrambled_schematic=4&participantId=624E9FCA937149C69D856EA4059E867F&assignmentId=6b81af7b-e6cd-45f2-a3d9-cc10e02ccee5&projectId=5e631737-0fa4-44a6-b227-7ba1d7345015","624E9FCA937149C69D856EA4059E867F-2025-05-27-18-53-02","","1046","","images/semantic_sequence/market_semantic/market_semantic_5.png","1","",""
"","","","","","image-button-response","39","1313456","0.0-10.0-1.0-2.4","624E9FCA937149C69D856EA4059E867F","624E9FCA937149C69D856EA4059E867F","6b81af7b-e6cd-45f2-a3d9-cc10e02ccee5","5e631737-0fa4-44a6-b227-7ba1d7345015","{""num_scrambled_semantic"":""8"",""num_scrambled_causal"":""4"",""num_scrambled_schematic"":""4"",""participantId"":""624E9FCA937149C69D856EA4059E867F"",""assignmentId"":""6b81af7b-e6cd-45f2-a3d9-cc10e02ccee5"",""projectId"":""5e631737-0fa4-44a6-b227-7ba1d7345015""}","https://test12345.live/?num_scrambled_semantic=8&num_scrambled_causal=4&num_scrambled_schematic=4&participantId=624E9FCA937149C69D856EA4059E867F&assignmentId=6b81af7b-e6cd-45f2-a3d9-cc10e02ccee5&projectId=5e631737-0fa4-44a6-b227-7ba1d7345015","624E9FCA937149C69D856EA4059E867F-2025-05-27-18-53-02","","null","","[]","null","",""
"","","","","","image-button-response","40","1317959","0.0-10.0-1.0-0.5","624E9FCA937149C69D856EA4059E867F","624E9FCA937149C69D856EA4059E867F","6b81af7b-e6cd-45f2-a3d9-cc10e02ccee5","5e631737-0fa4-44a6-b227-7ba1d7345015","{""num_scrambled_semantic"":""8"",""num_scrambled_causal"":""4"",""num_scrambled_schematic"":""4"",""participantId"":""624E9FCA937149C69D856EA4059E867F"",""assignmentId"":""6b81af7b-e6cd-45f2-a3d9-cc10e02ccee5"",""projectId"":""5e631737-0fa4-44a6-b227-7ba1d7345015""}","https://test12345.live/?num_scrambled_semantic=8&num_scrambled_causal=4&num_scrambled_schematic=4&participantId=624E9FCA937149C69D856EA4059E867F&assignmentId=6b81af7b-e6cd-45f2-a3d9-cc10e02ccee5&projectId=5e631737-0fa4-44a6-b227-7ba1d7345015","624E9FCA937149C69D856EA4059E867F-2025-05-27-18-53-02","","null","","images/semantic_sequence/market_semantic/market_semantic_6.png","null","",""
"","","","","","image-button-response","41","1319305","0.0-10.0-1.0-1.5","624E9FCA937149C69D856EA4059E867F","624E9FCA937149C69D856EA4059E867F","6b81af7b-e6cd-45f2-a3d9-cc10e02ccee5","5e631737-0fa4-44a6-b227-7ba1d7345015","{""num_scrambled_semantic"":""8"",""num_scrambled_causal"":""4"",""num_scrambled_schematic"":""4"",""participantId"":""624E9FCA937149C69D856EA4059E867F"",""assignmentId"":""6b81af7b-e6cd-45f2-a3d9-cc10e02ccee5"",""projectId"":""5e631737-0fa4-44a6-b227-7ba1d7345015""}","https://test12345.live/?num_scrambled_semantic=8&num_scrambled_causal=4&num_scrambled_schematic=4&participantId=624E9FCA937149C69D856EA4059E867F&assignmentId=6b81af7b-e6cd-45f2-a3d9-cc10e02ccee5&projectId=5e631737-0fa4-44a6-b227-7ba1d7345015","624E9FCA937149C69D856EA4059E867F-2025-05-27-18-53-02","","1344","","images/semantic_sequence/market_semantic/market_semantic_6.png","1","",""
"","","","","","image-button-response","42","1321121","0.0-10.0-1.0-2.5","624E9FCA937149C69D856EA4059E867F","624E9FCA937149C69D856EA4059E867F","6b81af7b-e6cd-45f2-a3d9-cc10e02ccee5","5e631737-0fa4-44a6-b227-7ba1d7345015","{""num_scrambled_semantic"":""8"",""num_scrambled_causal"":""4"",""num_scrambled_schematic"":""4"",""participantId"":""624E9FCA937149C69D856EA4059E867F"",""assignmentId"":""6b81af7b-e6cd-45f2-a3d9-cc10e02ccee5"",""projectId"":""5e631737-0fa4-44a6-b227-7ba1d7345015""}","https://test12345.live/?num_scrambled_semantic=8&num_scrambled_causal=4&num_scrambled_schematic=4&participantId=624E9FCA937149C69D856EA4059E867F&assignmentId=6b81af7b-e6cd-45f2-a3d9-cc10e02ccee5&projectId=5e631737-0fa4-44a6-b227-7ba1d7345015","624E9FCA937149C69D856EA4059E867F-2025-05-27-18-53-02","","null","","[]","null","",""
"","","","","","image-button-response","43","1325631","0.0-10.0-1.0-0.6","624E9FCA937149C69D856EA4059E867F","624E9FCA937149C69D856EA4059E867F","6b81af7b-e6cd-45f2-a3d9-cc10e02ccee5","5e631737-0fa4-44a6-b227-7ba1d7345015","{""num_scrambled_semantic"":""8"",""num_scrambled_causal"":""4"",""num_scrambled_schematic"":""4"",""participantId"":""624E9FCA937149C69D856EA4059E867F"",""assignmentId"":""6b81af7b-e6cd-45f2-a3d9-cc10e02ccee5"",""projectId"":""5e631737-0fa4-44a6-b227-7ba1d7345015""}","https://test12345.live/?num_scrambled_semantic=8&num_scrambled_causal=4&num_scrambled_schematic=4&participantId=624E9FCA937149C69D856EA4059E867F&assignmentId=6b81af7b-e6cd-45f2-a3d9-cc10e02ccee5&projectId=5e631737-0fa4-44a6-b227-7ba1d7345015","624E9FCA937149C69D856EA4059E867F-2025-05-27-18-53-02","","null","","images/semantic_sequence/market_semantic/market_semantic_7.png","null","",""
"","","","","","image-button-response","44","1326380","0.0-10.0-1.0-1.6","624E9FCA937149C69D856EA4059E867F","624E9FCA937149C69D856EA4059E867F","6b81af7b-e6cd-45f2-a3d9-cc10e02ccee5","5e631737-0fa4-44a6-b227-7ba1d7345015","{""num_scrambled_semantic"":""8"",""num_scrambled_causal"":""4"",""num_scrambled_schematic"":""4"",""participantId"":""624E9FCA937149C69D856EA4059E867F"",""assignmentId"":""6b81af7b-e6cd-45f2-a3d9-cc10e02ccee5"",""projectId"":""5e631737-0fa4-44a6-b227-7ba1d7345015""}","https://test12345.live/?num_scrambled_semantic=8&num_scrambled_causal=4&num_scrambled_schematic=4&participantId=624E9FCA937149C69D856EA4059E867F&assignmentId=6b81af7b-e6cd-45f2-a3d9-cc10e02ccee5&projectId=5e631737-0fa4-44a6-b227-7ba1d7345015","624E9FCA937149C69D856EA4059E867F-2025-05-27-18-53-02","","748","","images/semantic_sequence/market_semantic/market_semantic_7.png","0","",""
"","","","","","image-button-response","45","1328188","0.0-10.0-1.0-2.6","624E9FCA937149C69D856EA4059E867F","624E9FCA937149C69D856EA4059E867F","6b81af7b-e6cd-45f2-a3d9-cc10e02ccee5","5e631737-0fa4-44a6-b227-7ba1d7345015","{""num_scrambled_semantic"":""8"",""num_scrambled_causal"":""4"",""num_scrambled_schematic"":""4"",""participantId"":""624E9FCA937149C69D856EA4059E867F"",""assignmentId"":""6b81af7b-e6cd-45f2-a3d9-cc10e02ccee5"",""projectId"":""5e631737-0fa4-44a6-b227-7ba1d7345015""}","https://test12345.live/?num_scrambled_semantic=8&num_scrambled_causal=4&num_scrambled_schematic=4&participantId=624E9FCA937149C69D856EA4059E867F&assignmentId=6b81af7b-e6cd-45f2-a3d9-cc10e02ccee5&projectId=5e631737-0fa4-44a6-b227-7ba1d7345015","624E9FCA937149C69D856EA4059E867F-2025-05-27-18-53-02","","null","","[]","null","",""
"","","","","","image-button-response","46","1332689","0.0-10.0-1.0-0.7","624E9FCA937149C69D856EA4059E867F","624E9FCA937149C69D856EA4059E867F","6b81af7b-e6cd-45f2-a3d9-cc10e02ccee5","5e631737-0fa4-44a6-b227-7ba1d7345015","{""num_scrambled_semantic"":""8"",""num_scrambled_causal"":""4"",""num_scrambled_schematic"":""4"",""participantId"":""624E9FCA937149C69D856EA4059E867F"",""assignmentId"":""6b81af7b-e6cd-45f2-a3d9-cc10e02ccee5"",""projectId"":""5e631737-0fa4-44a6-b227-7ba1d7345015""}","https://test12345.live/?num_scrambled_semantic=8&num_scrambled_causal=4&num_scrambled_schematic=4&participantId=624E9FCA937149C69D856EA4059E867F&assignmentId=6b81af7b-e6cd-45f2-a3d9-cc10e02ccee5&projectId=5e631737-0fa4-44a6-b227-7ba1d7345015","624E9FCA937149C69D856EA4059E867F-2025-05-27-18-53-02","","null","","images/semantic_sequence/market_semantic/market_semantic_8.png","null","",""
"","","","","","image-button-response","47","1333995","0.0-10.0-1.0-1.7","624E9FCA937149C69D856EA4059E867F","624E9FCA937149C69D856EA4059E867F","6b81af7b-e6cd-45f2-a3d9-cc10e02ccee5","5e631737-0fa4-44a6-b227-7ba1d7345015","{""num_scrambled_semantic"":""8"",""num_scrambled_causal"":""4"",""num_scrambled_schematic"":""4"",""participantId"":""624E9FCA937149C69D856EA4059E867F"",""assignmentId"":""6b81af7b-e6cd-45f2-a3d9-cc10e02ccee5"",""projectId"":""5e631737-0fa4-44a6-b227-7ba1d7345015""}","https://test12345.live/?num_scrambled_semantic=8&num_scrambled_causal=4&num_scrambled_schematic=4&participantId=624E9FCA937149C69D856EA4059E867F&assignmentId=6b81af7b-e6cd-45f2-a3d9-cc10e02ccee5&projectId=5e631737-0fa4-44a6-b227-7ba1d7345015","624E9FCA937149C69D856EA4059E867F-2025-05-27-18-53-02","","1304","","images/semantic_sequence/market_semantic/market_semantic_8.png","1","",""
"","","","","","image-button-response","48","1335802","0.0-10.0-1.0-2.7","624E9FCA937149C69D856EA4059E867F","624E9FCA937149C69D856EA4059E867F","6b81af7b-e6cd-45f2-a3d9-cc10e02ccee5","5e631737-0fa4-44a6-b227-7ba1d7345015","{""num_scrambled_semantic"":""8"",""num_scrambled_causal"":""4"",""num_scrambled_schematic"":""4"",""participantId"":""624E9FCA937149C69D856EA4059E867F"",""assignmentId"":""6b81af7b-e6cd-45f2-a3d9-cc10e02ccee5"",""projectId"":""5e631737-0fa4-44a6-b227-7ba1d7345015""}","https://test12345.live/?num_scrambled_semantic=8&num_scrambled_causal=4&num_scrambled_schematic=4&participantId=624E9FCA937149C69D856EA4059E867F&assignmentId=6b81af7b-e6cd-45f2-a3d9-cc10e02ccee5&projectId=5e631737-0fa4-44a6-b227-7ba1d7345015","624E9FCA937149C69D856EA4059E867F-2025-05-27-18-53-02","","null","","[]","null","",""
"","","","","","image-button-response","49","1340309","0.0-10.0-1.0-0.8","624E9FCA937149C69D856EA4059E867F","624E9FCA937149C69D856EA4059E867F","6b81af7b-e6cd-45f2-a3d9-cc10e02ccee5","5e631737-0fa4-44a6-b227-7ba1d7345015","{""num_scrambled_semantic"":""8"",""num_scrambled_causal"":""4"",""num_scrambled_schematic"":""4"",""participantId"":""624E9FCA937149C69D856EA4059E867F"",""assignmentId"":""6b81af7b-e6cd-45f2-a3d9-cc10e02ccee5"",""projectId"":""5e631737-0fa4-44a6-b227-7ba1d7345015""}","https://test12345.live/?num_scrambled_semantic=8&num_scrambled_causal=4&num_scrambled_schematic=4&participantId=624E9FCA937149C69D856EA4059E867F&assignmentId=6b81af7b-e6cd-45f2-a3d9-cc10e02ccee5&projectId=5e631737-0fa4-44a6-b227-7ba1d7345015","624E9FCA937149C69D856EA4059E867F-2025-05-27-18-53-02","","null","","images/semantic_sequence/market_semantic/market_semantic_9.png","null","",""
"","","","","","image-button-response","50","1342064","0.0-10.0-1.0-1.8","624E9FCA937149C69D856EA4059E867F","624E9FCA937149C69D856EA4059E867F","6b81af7b-e6cd-45f2-a3d9-cc10e02ccee5","5e631737-0fa4-44a6-b227-7ba1d7345015","{""num_scrambled_semantic"":""8"",""num_scrambled_causal"":""4"",""num_scrambled_schematic"":""4"",""participantId"":""624E9FCA937149C69D856EA4059E867F"",""assignmentId"":""6b81af7b-e6cd-45f2-a3d9-cc10e02ccee5"",""projectId"":""5e631737-0fa4-44a6-b227-7ba1d7345015""}","https://test12345.live/?num_scrambled_semantic=8&num_scrambled_causal=4&num_scrambled_schematic=4&participantId=624E9FCA937149C69D856EA4059E867F&assignmentId=6b81af7b-e6cd-45f2-a3d9-cc10e02ccee5&projectId=5e631737-0fa4-44a6-b227-7ba1d7345015","624E9FCA937149C69D856EA4059E867F-2025-05-27-18-53-02","","1754","","images/semantic_sequence/market_semantic/market_semantic_9.png","0","",""
"","","","","","image-button-response","51","1343868","0.0-10.0-1.0-2.8","624E9FCA937149C69D856EA4059E867F","624E9FCA937149C69D856EA4059E867F","6b81af7b-e6cd-45f2-a3d9-cc10e02ccee5","5e631737-0fa4-44a6-b227-7ba1d7345015","{""num_scrambled_semantic"":""8"",""num_scrambled_causal"":""4"",""num_scrambled_schematic"":""4"",""participantId"":""624E9FCA937149C69D856EA4059E867F"",""assignmentId"":""6b81af7b-e6cd-45f2-a3d9-cc10e02ccee5"",""projectId"":""5e631737-0fa4-44a6-b227-7ba1d7345015""}","https://test12345.live/?num_scrambled_semantic=8&num_scrambled_causal=4&num_scrambled_schematic=4&participantId=624E9FCA937149C69D856EA4059E867F&assignmentId=6b81af7b-e6cd-45f2-a3d9-cc10e02ccee5&projectId=5e631737-0fa4-44a6-b227-7ba1d7345015","624E9FCA937149C69D856EA4059E867F-2025-05-27-18-53-02","","null","","[]","null","",""
"","","","","","image-button-response","52","1348371","0.0-10.0-1.0-0.9","624E9FCA937149C69D856EA4059E867F","624E9FCA937149C69D856EA4059E867F","6b81af7b-e6cd-45f2-a3d9-cc10e02ccee5","5e631737-0fa4-44a6-b227-7ba1d7345015","{""num_scrambled_semantic"":""8"",""num_scrambled_causal"":""4"",""num_scrambled_schematic"":""4"",""participantId"":""624E9FCA937149C69D856EA4059E867F"",""assignmentId"":""6b81af7b-e6cd-45f2-a3d9-cc10e02ccee5"",""projectId"":""5e631737-0fa4-44a6-b227-7ba1d7345015""}","https://test12345.live/?num_scrambled_semantic=8&num_scrambled_causal=4&num_scrambled_schematic=4&participantId=624E9FCA937149C69D856EA4059E867F&assignmentId=6b81af7b-e6cd-45f2-a3d9-cc10e02ccee5&projectId=5e631737-0fa4-44a6-b227-7ba1d7345015","624E9FCA937149C69D856EA4059E867F-2025-05-27-18-53-02","","null","","images/semantic_sequence/market_semantic/market_semantic_ten.png","null","",""
"","","","","","image-button-response","53","1349081","0.0-10.0-1.0-1.9","624E9FCA937149C69D856EA4059E867F","624E9FCA937149C69D856EA4059E867F","6b81af7b-e6cd-45f2-a3d9-cc10e02ccee5","5e631737-0fa4-44a6-b227-7ba1d7345015","{""num_scrambled_semantic"":""8"",""num_scrambled_causal"":""4"",""num_scrambled_schematic"":""4"",""participantId"":""624E9FCA937149C69D856EA4059E867F"",""assignmentId"":""6b81af7b-e6cd-45f2-a3d9-cc10e02ccee5"",""projectId"":""5e631737-0fa4-44a6-b227-7ba1d7345015""}","https://test12345.live/?num_scrambled_semantic=8&num_scrambled_causal=4&num_scrambled_schematic=4&participantId=624E9FCA937149C69D856EA4059E867F&assignmentId=6b81af7b-e6cd-45f2-a3d9-cc10e02ccee5&projectId=5e631737-0fa4-44a6-b227-7ba1d7345015","624E9FCA937149C69D856EA4059E867F-2025-05-27-18-53-02","","710","","images/semantic_sequence/market_semantic/market_semantic_ten.png","1","",""
"","","","","","image-button-response","54","1350896","0.0-10.0-1.0-2.9","624E9FCA937149C69D856EA4059E867F","624E9FCA937149C69D856EA4059E867F","6b81af7b-e6cd-45f2-a3d9-cc10e02ccee5","5e631737-0fa4-44a6-b227-7ba1d7345015","{""num_scrambled_semantic"":""8"",""num_scrambled_causal"":""4"",""num_scrambled_schematic"":""4"",""participantId"":""624E9FCA937149C69D856EA4059E867F"",""assignmentId"":""6b81af7b-e6cd-45f2-a3d9-cc10e02ccee5"",""projectId"":""5e631737-0fa4-44a6-b227-7ba1d7345015""}","https://test12345.live/?num_scrambled_semantic=8&num_scrambled_causal=4&num_scrambled_schematic=4&participantId=624E9FCA937149C69D856EA4059E867F&assignmentId=6b81af7b-e6cd-45f2-a3d9-cc10e02ccee5&projectId=5e631737-0fa4-44a6-b227-7ba1d7345015","624E9FCA937149C69D856EA4059E867F-2025-05-27-18-53-02","","null","","[]","null","",""
"","","","","","html-audio-response","55","1408121","0.0-11.0","624E9FCA937149C69D856EA4059E867F","624E9FCA937149C69D856EA4059E867F","6b81af7b-e6cd-45f2-a3d9-cc10e02ccee5","5e631737-0fa4-44a6-b227-7ba1d7345015","{""num_scrambled_semantic"":""8"",""num_scrambled_causal"":""4"",""num_scrambled_schematic"":""4"",""participantId"":""624E9FCA937149C69D856EA4059E867F"",""assignmentId"":""6b81af7b-e6cd-45f2-a3d9-cc10e02ccee5"",""projectId"":""5e631737-0fa4-44a6-b227-7ba1d7345015""}","https://test12345.live/?num_scrambled_semantic=8&num_scrambled_causal=4&num_scrambled_schematic=4&participantId=624E9FCA937149C69D856EA4059E867F&assignmentId=6b81af7b-e6cd-45f2-a3d9-cc10e02ccee5&projectId=5e631737-0fa4-44a6-b227-7ba1d7345015","624E9FCA937149C69D856EA4059E867F-2025-05-27-18-53-02","","null","","[""<span style=\""color: red; font-size: 24px\""> NOW RECORDING</span><p>Please say out loud all the images you saw, in the exact order you saw them. Try to recall as many images as you can, but remember: getting the order right is more important than the number of images you recall.</p>""]","","1","market_semantic"
"","","","","","image-button-response","56","1414133","0.0-12.0-0.0","624E9FCA937149C69D856EA4059E867F","624E9FCA937149C69D856EA4059E867F","6b81af7b-e6cd-45f2-a3d9-cc10e02ccee5","5e631737-0fa4-44a6-b227-7ba1d7345015","{""num_scrambled_semantic"":""8"",""num_scrambled_causal"":""4"",""num_scrambled_schematic"":""4"",""participantId"":""624E9FCA937149C69D856EA4059E867F"",""assignmentId"":""6b81af7b-e6cd-45f2-a3d9-cc10e02ccee5"",""projectId"":""5e631737-0fa4-44a6-b227-7ba1d7345015""}","https://test12345.live/?num_scrambled_semantic=8&num_scrambled_causal=4&num_scrambled_schematic=4&participantId=624E9FCA937149C69D856EA4059E867F&assignmentId=6b81af7b-e6cd-45f2-a3d9-cc10e02ccee5&projectId=5e631737-0fa4-44a6-b227-7ba1d7345015","624E9FCA937149C69D856EA4059E867F-2025-05-27-18-53-02","","null","","images/causal_sequence/coin_causal/coin_causal_0.png","null","",""
"","","","","","image-button-response","57","1418645","0.0-12.0-1.0-0.0","624E9FCA937149C69D856EA4059E867F","624E9FCA937149C69D856EA4059E867F","6b81af7b-e6cd-45f2-a3d9-cc10e02ccee5","5e631737-0fa4-44a6-b227-7ba1d7345015","{""num_scrambled_semantic"":""8"",""num_scrambled_causal"":""4"",""num_scrambled_schematic"":""4"",""participantId"":""624E9FCA937149C69D856EA4059E867F"",""assignmentId"":""6b81af7b-e6cd-45f2-a3d9-cc10e02ccee5"",""projectId"":""5e631737-0fa4-44a6-b227-7ba1d7345015""}","https://test12345.live/?num_scrambled_semantic=8&num_scrambled_causal=4&num_scrambled_schematic=4&participantId=624E9FCA937149C69D856EA4059E867F&assignmentId=6b81af7b-e6cd-45f2-a3d9-cc10e02ccee5&projectId=5e631737-0fa4-44a6-b227-7ba1d7345015","624E9FCA937149C69D856EA4059E867F-2025-05-27-18-53-02","","null","","images/causal_sequence/coin_causal/coin_causal_9.png","null","",""
"","","","","","image-button-response","58","1419989","0.0-12.0-1.0-1.0","624E9FCA937149C69D856EA4059E867F","624E9FCA937149C69D856EA4059E867F","6b81af7b-e6cd-45f2-a3d9-cc10e02ccee5","5e631737-0fa4-44a6-b227-7ba1d7345015","{""num_scrambled_semantic"":""8"",""num_scrambled_causal"":""4"",""num_scrambled_schematic"":""4"",""participantId"":""624E9FCA937149C69D856EA4059E867F"",""assignmentId"":""6b81af7b-e6cd-45f2-a3d9-cc10e02ccee5"",""projectId"":""5e631737-0fa4-44a6-b227-7ba1d7345015""}","https://test12345.live/?num_scrambled_semantic=8&num_scrambled_causal=4&num_scrambled_schematic=4&participantId=624E9FCA937149C69D856EA4059E867F&assignmentId=6b81af7b-e6cd-45f2-a3d9-cc10e02ccee5&projectId=5e631737-0fa4-44a6-b227-7ba1d7345015","624E9FCA937149C69D856EA4059E867F-2025-05-27-18-53-02","","1343","","images/causal_sequence/coin_causal/coin_causal_9.png","0","",""
"","","","","","image-button-response","59","1421793","0.0-12.0-1.0-2.0","624E9FCA937149C69D856EA4059E867F","624E9FCA937149C69D856EA4059E867F","6b81af7b-e6cd-45f2-a3d9-cc10e02ccee5","5e631737-0fa4-44a6-b227-7ba1d7345015","{""num_scrambled_semantic"":""8"",""num_scrambled_causal"":""4"",""num_scrambled_schematic"":""4"",""participantId"":""624E9FCA937149C69D856EA4059E867F"",""assignmentId"":""6b81af7b-e6cd-45f2-a3d9-cc10e02ccee5"",""projectId"":""5e631737-0fa4-44a6-b227-7ba1d7345015""}","https://test12345.live/?num_scrambled_semantic=8&num_scrambled_causal=4&num_scrambled_schematic=4&participantId=624E9FCA937149C69D856EA4059E867F&assignmentId=6b81af7b-e6cd-45f2-a3d9-cc10e02ccee5&projectId=5e631737-0fa4-44a6-b227-7ba1d7345015","624E9FCA937149C69D856EA4059E867F-2025-05-27-18-53-02","","null","","[]","null","",""
"","","","","","image-button-response","60","1426301","0.0-12.0-1.0-0.1","624E9FCA937149C69D856EA4059E867F","624E9FCA937149C69D856EA4059E867F","6b81af7b-e6cd-45f2-a3d9-cc10e02ccee5","5e631737-0fa4-44a6-b227-7ba1d7345015","{""num_scrambled_semantic"":""8"",""num_scrambled_causal"":""4"",""num_scrambled_schematic"":""4"",""participantId"":""624E9FCA937149C69D856EA4059E867F"",""assignmentId"":""6b81af7b-e6cd-45f2-a3d9-cc10e02ccee5"",""projectId"":""5e631737-0fa4-44a6-b227-7ba1d7345015""}","https://test12345.live/?num_scrambled_semantic=8&num_scrambled_causal=4&num_scrambled_schematic=4&participantId=624E9FCA937149C69D856EA4059E867F&assignmentId=6b81af7b-e6cd-45f2-a3d9-cc10e02ccee5&projectId=5e631737-0fa4-44a6-b227-7ba1d7345015","624E9FCA937149C69D856EA4059E867F-2025-05-27-18-53-02","","null","","images/causal_sequence/coin_causal/coin_causal_5.png","null","",""
"","","","","","image-button-response","61","1427425","0.0-12.0-1.0-1.1","624E9FCA937149C69D856EA4059E867F","624E9FCA937149C69D856EA4059E867F","6b81af7b-e6cd-45f2-a3d9-cc10e02ccee5","5e631737-0fa4-44a6-b227-7ba1d7345015","{""num_scrambled_semantic"":""8"",""num_scrambled_causal"":""4"",""num_scrambled_schematic"":""4"",""participantId"":""624E9FCA937149C69D856EA4059E867F"",""assignmentId"":""6b81af7b-e6cd-45f2-a3d9-cc10e02ccee5"",""projectId"":""5e631737-0fa4-44a6-b227-7ba1d7345015""}","https://test12345.live/?num_scrambled_semantic=8&num_scrambled_causal=4&num_scrambled_schematic=4&participantId=624E9FCA937149C69D856EA4059E867F&assignmentId=6b81af7b-e6cd-45f2-a3d9-cc10e02ccee5&projectId=5e631737-0fa4-44a6-b227-7ba1d7345015","624E9FCA937149C69D856EA4059E867F-2025-05-27-18-53-02","","1123","","images/causal_sequence/coin_causal/coin_causal_5.png","0","",""
"","","","","","image-button-response","62","1429231","0.0-12.0-1.0-2.1","624E9FCA937149C69D856EA4059E867F","624E9FCA937149C69D856EA4059E867F","6b81af7b-e6cd-45f2-a3d9-cc10e02ccee5","5e631737-0fa4-44a6-b227-7ba1d7345015","{""num_scrambled_semantic"":""8"",""num_scrambled_causal"":""4"",""num_scrambled_schematic"":""4"",""participantId"":""624E9FCA937149C69D856EA4059E867F"",""assignmentId"":""6b81af7b-e6cd-45f2-a3d9-cc10e02ccee5"",""projectId"":""5e631737-0fa4-44a6-b227-7ba1d7345015""}","https://test12345.live/?num_scrambled_semantic=8&num_scrambled_causal=4&num_scrambled_schematic=4&participantId=624E9FCA937149C69D856EA4059E867F&assignmentId=6b81af7b-e6cd-45f2-a3d9-cc10e02ccee5&projectId=5e631737-0fa4-44a6-b227-7ba1d7345015","624E9FCA937149C69D856EA4059E867F-2025-05-27-18-53-02","","null","","[]","null","",""
"","","","","","image-button-response","63","1433745","0.0-12.0-1.0-0.2","624E9FCA937149C69D856EA4059E867F","624E9FCA937149C69D856EA4059E867F","6b81af7b-e6cd-45f2-a3d9-cc10e02ccee5","5e631737-0fa4-44a6-b227-7ba1d7345015","{""num_scrambled_semantic"":""8"",""num_scrambled_causal"":""4"",""num_scrambled_schematic"":""4"",""participantId"":""624E9FCA937149C69D856EA4059E867F"",""assignmentId"":""6b81af7b-e6cd-45f2-a3d9-cc10e02ccee5"",""projectId"":""5e631737-0fa4-44a6-b227-7ba1d7345015""}","https://test12345.live/?num_scrambled_semantic=8&num_scrambled_causal=4&num_scrambled_schematic=4&participantId=624E9FCA937149C69D856EA4059E867F&assignmentId=6b81af7b-e6cd-45f2-a3d9-cc10e02ccee5&projectId=5e631737-0fa4-44a6-b227-7ba1d7345015","624E9FCA937149C69D856EA4059E867F-2025-05-27-18-53-02","","null","","images/causal_sequence/coin_causal/coin_causal_6.png","null","",""
"","","","","","image-button-response","64","1434430","0.0-12.0-1.0-1.2","624E9FCA937149C69D856EA4059E867F","624E9FCA937149C69D856EA4059E867F","6b81af7b-e6cd-45f2-a3d9-cc10e02ccee5","5e631737-0fa4-44a6-b227-7ba1d7345015","{""num_scrambled_semantic"":""8"",""num_scrambled_causal"":""4"",""num_scrambled_schematic"":""4"",""participantId"":""624E9FCA937149C69D856EA4059E867F"",""assignmentId"":""6b81af7b-e6cd-45f2-a3d9-cc10e02ccee5"",""projectId"":""5e631737-0fa4-44a6-b227-7ba1d7345015""}","https://test12345.live/?num_scrambled_semantic=8&num_scrambled_causal=4&num_scrambled_schematic=4&participantId=624E9FCA937149C69D856EA4059E867F&assignmentId=6b81af7b-e6cd-45f2-a3d9-cc10e02ccee5&projectId=5e631737-0fa4-44a6-b227-7ba1d7345015","624E9FCA937149C69D856EA4059E867F-2025-05-27-18-53-02","","684","","images/causal_sequence/coin_causal/coin_causal_6.png","0","",""
"","","","","","image-button-response","65","1436233","0.0-12.0-1.0-2.2","624E9FCA937149C69D856EA4059E867F","624E9FCA937149C69D856EA4059E867F","6b81af7b-e6cd-45f2-a3d9-cc10e02ccee5","5e631737-0fa4-44a6-b227-7ba1d7345015","{""num_scrambled_semantic"":""8"",""num_scrambled_causal"":""4"",""num_scrambled_schematic"":""4"",""participantId"":""624E9FCA937149C69D856EA4059E867F"",""assignmentId"":""6b81af7b-e6cd-45f2-a3d9-cc10e02ccee5"",""projectId"":""5e631737-0fa4-44a6-b227-7ba1d7345015""}","https://test12345.live/?num_scrambled_semantic=8&num_scrambled_causal=4&num_scrambled_schematic=4&participantId=624E9FCA937149C69D856EA4059E867F&assignmentId=6b81af7b-e6cd-45f2-a3d9-cc10e02ccee5&projectId=5e631737-0fa4-44a6-b227-7ba1d7345015","624E9FCA937149C69D856EA4059E867F-2025-05-27-18-53-02","","null","","[]","null","",""
"","","","","","image-button-response","66","1440739","0.0-12.0-1.0-0.3","624E9FCA937149C69D856EA4059E867F","624E9FCA937149C69D856EA4059E867F","6b81af7b-e6cd-45f2-a3d9-cc10e02ccee5","5e631737-0fa4-44a6-b227-7ba1d7345015","{""num_scrambled_semantic"":""8"",""num_scrambled_causal"":""4"",""num_scrambled_schematic"":""4"",""participantId"":""624E9FCA937149C69D856EA4059E867F"",""assignmentId"":""6b81af7b-e6cd-45f2-a3d9-cc10e02ccee5"",""projectId"":""5e631737-0fa4-44a6-b227-7ba1d7345015""}","https://test12345.live/?num_scrambled_semantic=8&num_scrambled_causal=4&num_scrambled_schematic=4&participantId=624E9FCA937149C69D856EA4059E867F&assignmentId=6b81af7b-e6cd-45f2-a3d9-cc10e02ccee5&projectId=5e631737-0fa4-44a6-b227-7ba1d7345015","624E9FCA937149C69D856EA4059E867F-2025-05-27-18-53-02","","null","","images/causal_sequence/coin_causal/coin_causal_ten.png","null","",""
"","","","","","image-button-response","67","1441709","0.0-12.0-1.0-1.3","624E9FCA937149C69D856EA4059E867F","624E9FCA937149C69D856EA4059E867F","6b81af7b-e6cd-45f2-a3d9-cc10e02ccee5","5e631737-0fa4-44a6-b227-7ba1d7345015","{""num_scrambled_semantic"":""8"",""num_scrambled_causal"":""4"",""num_scrambled_schematic"":""4"",""participantId"":""624E9FCA937149C69D856EA4059E867F"",""assignmentId"":""6b81af7b-e6cd-45f2-a3d9-cc10e02ccee5"",""projectId"":""5e631737-0fa4-44a6-b227-7ba1d7345015""}","https://test12345.live/?num_scrambled_semantic=8&num_scrambled_causal=4&num_scrambled_schematic=4&participantId=624E9FCA937149C69D856EA4059E867F&assignmentId=6b81af7b-e6cd-45f2-a3d9-cc10e02ccee5&projectId=5e631737-0fa4-44a6-b227-7ba1d7345015","624E9FCA937149C69D856EA4059E867F-2025-05-27-18-53-02","","969","","images/causal_sequence/coin_causal/coin_causal_ten.png","0","",""
"","","","","","image-button-response","68","1443515","0.0-12.0-1.0-2.3","624E9FCA937149C69D856EA4059E867F","624E9FCA937149C69D856EA4059E867F","6b81af7b-e6cd-45f2-a3d9-cc10e02ccee5","5e631737-0fa4-44a6-b227-7ba1d7345015","{""num_scrambled_semantic"":""8"",""num_scrambled_causal"":""4"",""num_scrambled_schematic"":""4"",""participantId"":""624E9FCA937149C69D856EA4059E867F"",""assignmentId"":""6b81af7b-e6cd-45f2-a3d9-cc10e02ccee5"",""projectId"":""5e631737-0fa4-44a6-b227-7ba1d7345015""}","https://test12345.live/?num_scrambled_semantic=8&num_scrambled_causal=4&num_scrambled_schematic=4&participantId=624E9FCA937149C69D856EA4059E867F&assignmentId=6b81af7b-e6cd-45f2-a3d9-cc10e02ccee5&projectId=5e631737-0fa4-44a6-b227-7ba1d7345015","624E9FCA937149C69D856EA4059E867F-2025-05-27-18-53-02","","null","","[]","null","",""
"","","","","","image-button-response","69","1448029","0.0-12.0-1.0-0.4","624E9FCA937149C69D856EA4059E867F","624E9FCA937149C69D856EA4059E867F","6b81af7b-e6cd-45f2-a3d9-cc10e02ccee5","5e631737-0fa4-44a6-b227-7ba1d7345015","{""num_scrambled_semantic"":""8"",""num_scrambled_causal"":""4"",""num_scrambled_schematic"":""4"",""participantId"":""624E9FCA937149C69D856EA4059E867F"",""assignmentId"":""6b81af7b-e6cd-45f2-a3d9-cc10e02ccee5"",""projectId"":""5e631737-0fa4-44a6-b227-7ba1d7345015""}","https://test12345.live/?num_scrambled_semantic=8&num_scrambled_causal=4&num_scrambled_schematic=4&participantId=624E9FCA937149C69D856EA4059E867F&assignmentId=6b81af7b-e6cd-45f2-a3d9-cc10e02ccee5&projectId=5e631737-0fa4-44a6-b227-7ba1d7345015","624E9FCA937149C69D856EA4059E867F-2025-05-27-18-53-02","","null","","images/causal_sequence/coin_causal/coin_causal_4.png","null","",""
"","","","","","image-button-response","70","1449429","0.0-12.0-1.0-1.4","624E9FCA937149C69D856EA4059E867F","624E9FCA937149C69D856EA4059E867F","6b81af7b-e6cd-45f2-a3d9-cc10e02ccee5","5e631737-0fa4-44a6-b227-7ba1d7345015","{""num_scrambled_semantic"":""8"",""num_scrambled_causal"":""4"",""num_scrambled_schematic"":""4"",""participantId"":""624E9FCA937149C69D856EA4059E867F"",""assignmentId"":""6b81af7b-e6cd-45f2-a3d9-cc10e02ccee5"",""projectId"":""5e631737-0fa4-44a6-b227-7ba1d7345015""}","https://test12345.live/?num_scrambled_semantic=8&num_scrambled_causal=4&num_scrambled_schematic=4&participantId=624E9FCA937149C69D856EA4059E867F&assignmentId=6b81af7b-e6cd-45f2-a3d9-cc10e02ccee5&projectId=5e631737-0fa4-44a6-b227-7ba1d7345015","624E9FCA937149C69D856EA4059E867F-2025-05-27-18-53-02","","1398","","images/causal_sequence/coin_causal/coin_causal_4.png","0","",""
"","","","","","image-button-response","71","1451231","0.0-12.0-1.0-2.4","624E9FCA937149C69D856EA4059E867F","624E9FCA937149C69D856EA4059E867F","6b81af7b-e6cd-45f2-a3d9-cc10e02ccee5","5e631737-0fa4-44a6-b227-7ba1d7345015","{""num_scrambled_semantic"":""8"",""num_scrambled_causal"":""4"",""num_scrambled_schematic"":""4"",""participantId"":""624E9FCA937149C69D856EA4059E867F"",""assignmentId"":""6b81af7b-e6cd-45f2-a3d9-cc10e02ccee5"",""projectId"":""5e631737-0fa4-44a6-b227-7ba1d7345015""}","https://test12345.live/?num_scrambled_semantic=8&num_scrambled_causal=4&num_scrambled_schematic=4&participantId=624E9FCA937149C69D856EA4059E867F&assignmentId=6b81af7b-e6cd-45f2-a3d9-cc10e02ccee5&projectId=5e631737-0fa4-44a6-b227-7ba1d7345015","624E9FCA937149C69D856EA4059E867F-2025-05-27-18-53-02","","null","","[]","null","",""
"","","","","","image-button-response","72","1455743","0.0-12.0-1.0-0.5","624E9FCA937149C69D856EA4059E867F","624E9FCA937149C69D856EA4059E867F","6b81af7b-e6cd-45f2-a3d9-cc10e02ccee5","5e631737-0fa4-44a6-b227-7ba1d7345015","{""num_scrambled_semantic"":""8"",""num_scrambled_causal"":""4"",""num_scrambled_schematic"":""4"",""participantId"":""624E9FCA937149C69D856EA4059E867F"",""assignmentId"":""6b81af7b-e6cd-45f2-a3d9-cc10e02ccee5"",""projectId"":""5e631737-0fa4-44a6-b227-7ba1d7345015""}","https://test12345.live/?num_scrambled_semantic=8&num_scrambled_causal=4&num_scrambled_schematic=4&participantId=624E9FCA937149C69D856EA4059E867F&assignmentId=6b81af7b-e6cd-45f2-a3d9-cc10e02ccee5&projectId=5e631737-0fa4-44a6-b227-7ba1d7345015","624E9FCA937149C69D856EA4059E867F-2025-05-27-18-53-02","","null","","images/causal_sequence/coin_causal/coin_causal_7.png","null","",""
"","","","","","image-button-response","73","1456917","0.0-12.0-1.0-1.5","624E9FCA937149C69D856EA4059E867F","624E9FCA937149C69D856EA4059E867F","6b81af7b-e6cd-45f2-a3d9-cc10e02ccee5","5e631737-0fa4-44a6-b227-7ba1d7345015","{""num_scrambled_semantic"":""8"",""num_scrambled_causal"":""4"",""num_scrambled_schematic"":""4"",""participantId"":""624E9FCA937149C69D856EA4059E867F"",""assignmentId"":""6b81af7b-e6cd-45f2-a3d9-cc10e02ccee5"",""projectId"":""5e631737-0fa4-44a6-b227-7ba1d7345015""}","https://test12345.live/?num_scrambled_semantic=8&num_scrambled_causal=4&num_scrambled_schematic=4&participantId=624E9FCA937149C69D856EA4059E867F&assignmentId=6b81af7b-e6cd-45f2-a3d9-cc10e02ccee5&projectId=5e631737-0fa4-44a6-b227-7ba1d7345015","624E9FCA937149C69D856EA4059E867F-2025-05-27-18-53-02","","1173","","images/causal_sequence/coin_causal/coin_causal_7.png","1","",""
"","","","","","image-button-response","74","1458730","0.0-12.0-1.0-2.5","624E9FCA937149C69D856EA4059E867F","624E9FCA937149C69D856EA4059E867F","6b81af7b-e6cd-45f2-a3d9-cc10e02ccee5","5e631737-0fa4-44a6-b227-7ba1d7345015","{""num_scrambled_semantic"":""8"",""num_scrambled_causal"":""4"",""num_scrambled_schematic"":""4"",""participantId"":""624E9FCA937149C69D856EA4059E867F"",""assignmentId"":""6b81af7b-e6cd-45f2-a3d9-cc10e02ccee5"",""projectId"":""5e631737-0fa4-44a6-b227-7ba1d7345015""}","https://test12345.live/?num_scrambled_semantic=8&num_scrambled_causal=4&num_scrambled_schematic=4&participantId=624E9FCA937149C69D856EA4059E867F&assignmentId=6b81af7b-e6cd-45f2-a3d9-cc10e02ccee5&projectId=5e631737-0fa4-44a6-b227-7ba1d7345015","624E9FCA937149C69D856EA4059E867F-2025-05-27-18-53-02","","null","","[]","null","",""
"","","","","","image-button-response","75","1463240","0.0-12.0-1.0-0.6","624E9FCA937149C69D856EA4059E867F","624E9FCA937149C69D856EA4059E867F","6b81af7b-e6cd-45f2-a3d9-cc10e02ccee5","5e631737-0fa4-44a6-b227-7ba1d7345015","{""num_scrambled_semantic"":""8"",""num_scrambled_causal"":""4"",""num_scrambled_schematic"":""4"",""participantId"":""624E9FCA937149C69D856EA4059E867F"",""assignmentId"":""6b81af7b-e6cd-45f2-a3d9-cc10e02ccee5"",""projectId"":""5e631737-0fa4-44a6-b227-7ba1d7345015""}","https://test12345.live/?num_scrambled_semantic=8&num_scrambled_causal=4&num_scrambled_schematic=4&participantId=624E9FCA937149C69D856EA4059E867F&assignmentId=6b81af7b-e6cd-45f2-a3d9-cc10e02ccee5&projectId=5e631737-0fa4-44a6-b227-7ba1d7345015","624E9FCA937149C69D856EA4059E867F-2025-05-27-18-53-02","","null","","images/causal_sequence/coin_causal/coin_causal_3.png","null","",""
"","","","","","image-button-response","76","1463901","0.0-12.0-1.0-1.6","624E9FCA937149C69D856EA4059E867F","624E9FCA937149C69D856EA4059E867F","6b81af7b-e6cd-45f2-a3d9-cc10e02ccee5","5e631737-0fa4-44a6-b227-7ba1d7345015","{""num_scrambled_semantic"":""8"",""num_scrambled_causal"":""4"",""num_scrambled_schematic"":""4"",""participantId"":""624E9FCA937149C69D856EA4059E867F"",""assignmentId"":""6b81af7b-e6cd-45f2-a3d9-cc10e02ccee5"",""projectId"":""5e631737-0fa4-44a6-b227-7ba1d7345015""}","https://test12345.live/?num_scrambled_semantic=8&num_scrambled_causal=4&num_scrambled_schematic=4&participantId=624E9FCA937149C69D856EA4059E867F&assignmentId=6b81af7b-e6cd-45f2-a3d9-cc10e02ccee5&projectId=5e631737-0fa4-44a6-b227-7ba1d7345015","624E9FCA937149C69D856EA4059E867F-2025-05-27-18-53-02","","660","","images/causal_sequence/coin_causal/coin_causal_3.png","0","",""
"","","","","","image-button-response","77","1465708","0.0-12.0-1.0-2.6","624E9FCA937149C69D856EA4059E867F","624E9FCA937149C69D856EA4059E867F","6b81af7b-e6cd-45f2-a3d9-cc10e02ccee5","5e631737-0fa4-44a6-b227-7ba1d7345015","{""num_scrambled_semantic"":""8"",""num_scrambled_causal"":""4"",""num_scrambled_schematic"":""4"",""participantId"":""624E9FCA937149C69D856EA4059E867F"",""assignmentId"":""6b81af7b-e6cd-45f2-a3d9-cc10e02ccee5"",""projectId"":""5e631737-0fa4-44a6-b227-7ba1d7345015""}","https://test12345.live/?num_scrambled_semantic=8&num_scrambled_causal=4&num_scrambled_schematic=4&participantId=624E9FCA937149C69D856EA4059E867F&assignmentId=6b81af7b-e6cd-45f2-a3d9-cc10e02ccee5&projectId=5e631737-0fa4-44a6-b227-7ba1d7345015","624E9FCA937149C69D856EA4059E867F-2025-05-27-18-53-02","","null","","[]","null","",""
"","","","","","image-button-response","78","1470211","0.0-12.0-1.0-0.7","624E9FCA937149C69D856EA4059E867F","624E9FCA937149C69D856EA4059E867F","6b81af7b-e6cd-45f2-a3d9-cc10e02ccee5","5e631737-0fa4-44a6-b227-7ba1d7345015","{""num_scrambled_semantic"":""8"",""num_scrambled_causal"":""4"",""num_scrambled_schematic"":""4"",""participantId"":""624E9FCA937149C69D856EA4059E867F"",""assignmentId"":""6b81af7b-e6cd-45f2-a3d9-cc10e02ccee5"",""projectId"":""5e631737-0fa4-44a6-b227-7ba1d7345015""}","https://test12345.live/?num_scrambled_semantic=8&num_scrambled_causal=4&num_scrambled_schematic=4&participantId=624E9FCA937149C69D856EA4059E867F&assignmentId=6b81af7b-e6cd-45f2-a3d9-cc10e02ccee5&projectId=5e631737-0fa4-44a6-b227-7ba1d7345015","624E9FCA937149C69D856EA4059E867F-2025-05-27-18-53-02","","null","","images/causal_sequence/coin_causal/coin_causal_1.png","null","",""
"","","","","","image-button-response","79","1470846","0.0-12.0-1.0-1.7","624E9FCA937149C69D856EA4059E867F","624E9FCA937149C69D856EA4059E867F","6b81af7b-e6cd-45f2-a3d9-cc10e02ccee5","5e631737-0fa4-44a6-b227-7ba1d7345015","{""num_scrambled_semantic"":""8"",""num_scrambled_causal"":""4"",""num_scrambled_schematic"":""4"",""participantId"":""624E9FCA937149C69D856EA4059E867F"",""assignmentId"":""6b81af7b-e6cd-45f2-a3d9-cc10e02ccee5"",""projectId"":""5e631737-0fa4-44a6-b227-7ba1d7345015""}","https://test12345.live/?num_scrambled_semantic=8&num_scrambled_causal=4&num_scrambled_schematic=4&participantId=624E9FCA937149C69D856EA4059E867F&assignmentId=6b81af7b-e6cd-45f2-a3d9-cc10e02ccee5&projectId=5e631737-0fa4-44a6-b227-7ba1d7345015","624E9FCA937149C69D856EA4059E867F-2025-05-27-18-53-02","","634","","images/causal_sequence/coin_causal/coin_causal_1.png","0","",""
"","","","","","image-button-response","80","1472661","0.0-12.0-1.0-2.7","624E9FCA937149C69D856EA4059E867F","624E9FCA937149C69D856EA4059E867F","6b81af7b-e6cd-45f2-a3d9-cc10e02ccee5","5e631737-0fa4-44a6-b227-7ba1d7345015","{""num_scrambled_semantic"":""8"",""num_scrambled_causal"":""4"",""num_scrambled_schematic"":""4"",""participantId"":""624E9FCA937149C69D856EA4059E867F"",""assignmentId"":""6b81af7b-e6cd-45f2-a3d9-cc10e02ccee5"",""projectId"":""5e631737-0fa4-44a6-b227-7ba1d7345015""}","https://test12345.live/?num_scrambled_semantic=8&num_scrambled_causal=4&num_scrambled_schematic=4&participantId=624E9FCA937149C69D856EA4059E867F&assignmentId=6b81af7b-e6cd-45f2-a3d9-cc10e02ccee5&projectId=5e631737-0fa4-44a6-b227-7ba1d7345015","624E9FCA937149C69D856EA4059E867F-2025-05-27-18-53-02","","null","","[]","null","",""
"","","","","","image-button-response","81","1477163","0.0-12.0-1.0-0.8","624E9FCA937149C69D856EA4059E867F","624E9FCA937149C69D856EA4059E867F","6b81af7b-e6cd-45f2-a3d9-cc10e02ccee5","5e631737-0fa4-44a6-b227-7ba1d7345015","{""num_scrambled_semantic"":""8"",""num_scrambled_causal"":""4"",""num_scrambled_schematic"":""4"",""participantId"":""624E9FCA937149C69D856EA4059E867F"",""assignmentId"":""6b81af7b-e6cd-45f2-a3d9-cc10e02ccee5"",""projectId"":""5e631737-0fa4-44a6-b227-7ba1d7345015""}","https://test12345.live/?num_scrambled_semantic=8&num_scrambled_causal=4&num_scrambled_schematic=4&participantId=624E9FCA937149C69D856EA4059E867F&assignmentId=6b81af7b-e6cd-45f2-a3d9-cc10e02ccee5&projectId=5e631737-0fa4-44a6-b227-7ba1d7345015","624E9FCA937149C69D856EA4059E867F-2025-05-27-18-53-02","","null","","images/causal_sequence/coin_causal/coin_causal_2.png","null","",""
"","","","","","image-button-response","82","1478560","0.0-12.0-1.0-1.8","624E9FCA937149C69D856EA4059E867F","624E9FCA937149C69D856EA4059E867F","6b81af7b-e6cd-45f2-a3d9-cc10e02ccee5","5e631737-0fa4-44a6-b227-7ba1d7345015","{""num_scrambled_semantic"":""8"",""num_scrambled_causal"":""4"",""num_scrambled_schematic"":""4"",""participantId"":""624E9FCA937149C69D856EA4059E867F"",""assignmentId"":""6b81af7b-e6cd-45f2-a3d9-cc10e02ccee5"",""projectId"":""5e631737-0fa4-44a6-b227-7ba1d7345015""}","https://test12345.live/?num_scrambled_semantic=8&num_scrambled_causal=4&num_scrambled_schematic=4&participantId=624E9FCA937149C69D856EA4059E867F&assignmentId=6b81af7b-e6cd-45f2-a3d9-cc10e02ccee5&projectId=5e631737-0fa4-44a6-b227-7ba1d7345015","624E9FCA937149C69D856EA4059E867F-2025-05-27-18-53-02","","1396","","images/causal_sequence/coin_causal/coin_causal_2.png","0","",""
"","","","","","image-button-response","83","1480364","0.0-12.0-1.0-2.8","624E9FCA937149C69D856EA4059E867F","624E9FCA937149C69D856EA4059E867F","6b81af7b-e6cd-45f2-a3d9-cc10e02ccee5","5e631737-0fa4-44a6-b227-7ba1d7345015","{""num_scrambled_semantic"":""8"",""num_scrambled_causal"":""4"",""num_scrambled_schematic"":""4"",""participantId"":""624E9FCA937149C69D856EA4059E867F"",""assignmentId"":""6b81af7b-e6cd-45f2-a3d9-cc10e02ccee5"",""projectId"":""5e631737-0fa4-44a6-b227-7ba1d7345015""}","https://test12345.live/?num_scrambled_semantic=8&num_scrambled_causal=4&num_scrambled_schematic=4&participantId=624E9FCA937149C69D856EA4059E867F&assignmentId=6b81af7b-e6cd-45f2-a3d9-cc10e02ccee5&projectId=5e631737-0fa4-44a6-b227-7ba1d7345015","624E9FCA937149C69D856EA4059E867F-2025-05-27-18-53-02","","null","","[]","null","",""
"","","","","","image-button-response","84","1484865","0.0-12.0-1.0-0.9","624E9FCA937149C69D856EA4059E867F","624E9FCA937149C69D856EA4059E867F","6b81af7b-e6cd-45f2-a3d9-cc10e02ccee5","5e631737-0fa4-44a6-b227-7ba1d7345015","{""num_scrambled_semantic"":""8"",""num_scrambled_causal"":""4"",""num_scrambled_schematic"":""4"",""participantId"":""624E9FCA937149C69D856EA4059E867F"",""assignmentId"":""6b81af7b-e6cd-45f2-a3d9-cc10e02ccee5"",""projectId"":""5e631737-0fa4-44a6-b227-7ba1d7345015""}","https://test12345.live/?num_scrambled_semantic=8&num_scrambled_causal=4&num_scrambled_schematic=4&participantId=624E9FCA937149C69D856EA4059E867F&assignmentId=6b81af7b-e6cd-45f2-a3d9-cc10e02ccee5&projectId=5e631737-0fa4-44a6-b227-7ba1d7345015","624E9FCA937149C69D856EA4059E867F-2025-05-27-18-53-02","","null","","images/causal_sequence/coin_causal/coin_causal_8.png","null","",""
"","","","","","image-button-response","85","1485596","0.0-12.0-1.0-1.9","624E9FCA937149C69D856EA4059E867F","624E9FCA937149C69D856EA4059E867F","6b81af7b-e6cd-45f2-a3d9-cc10e02ccee5","5e631737-0fa4-44a6-b227-7ba1d7345015","{""num_scrambled_semantic"":""8"",""num_scrambled_causal"":""4"",""num_scrambled_schematic"":""4"",""participantId"":""624E9FCA937149C69D856EA4059E867F"",""assignmentId"":""6b81af7b-e6cd-45f2-a3d9-cc10e02ccee5"",""projectId"":""5e631737-0fa4-44a6-b227-7ba1d7345015""}","https://test12345.live/?num_scrambled_semantic=8&num_scrambled_causal=4&num_scrambled_schematic=4&participantId=624E9FCA937149C69D856EA4059E867F&assignmentId=6b81af7b-e6cd-45f2-a3d9-cc10e02ccee5&projectId=5e631737-0fa4-44a6-b227-7ba1d7345015","624E9FCA937149C69D856EA4059E867F-2025-05-27-18-53-02","","730","","images/causal_sequence/coin_causal/coin_causal_8.png","0","",""
"","","","","","image-button-response","86","1487407","0.0-12.0-1.0-2.9","624E9FCA937149C69D856EA4059E867F","624E9FCA937149C69D856EA4059E867F","6b81af7b-e6cd-45f2-a3d9-cc10e02ccee5","5e631737-0fa4-44a6-b227-7ba1d7345015","{""num_scrambled_semantic"":""8"",""num_scrambled_causal"":""4"",""num_scrambled_schematic"":""4"",""participantId"":""624E9FCA937149C69D856EA4059E867F"",""assignmentId"":""6b81af7b-e6cd-45f2-a3d9-cc10e02ccee5"",""projectId"":""5e631737-0fa4-44a6-b227-7ba1d7345015""}","https://test12345.live/?num_scrambled_semantic=8&num_scrambled_causal=4&num_scrambled_schematic=4&participantId=624E9FCA937149C69D856EA4059E867F&assignmentId=6b81af7b-e6cd-45f2-a3d9-cc10e02ccee5&projectId=5e631737-0fa4-44a6-b227-7ba1d7345015","624E9FCA937149C69D856EA4059E867F-2025-05-27-18-53-02","","null","","[]","null","",""
"","","","","","html-audio-response","87","1544813","0.0-13.0","624E9FCA937149C69D856EA4059E867F","624E9FCA937149C69D856EA4059E867F","6b81af7b-e6cd-45f2-a3d9-cc10e02ccee5","5e631737-0fa4-44a6-b227-7ba1d7345015","{""num_scrambled_semantic"":""8"",""num_scrambled_causal"":""4"",""num_scrambled_schematic"":""4"",""participantId"":""624E9FCA937149C69D856EA4059E867F"",""assignmentId"":""6b81af7b-e6cd-45f2-a3d9-cc10e02ccee5"",""projectId"":""5e631737-0fa4-44a6-b227-7ba1d7345015""}","https://test12345.live/?num_scrambled_semantic=8&num_scrambled_causal=4&num_scrambled_schematic=4&participantId=624E9FCA937149C69D856EA4059E867F&assignmentId=6b81af7b-e6cd-45f2-a3d9-cc10e02ccee5&projectId=5e631737-0fa4-44a6-b227-7ba1d7345015","624E9FCA937149C69D856EA4059E867F-2025-05-27-18-53-02","","null","","[""<span style=\""color: red; font-size: 24px\""> NOW RECORDING</span><p>Please say out loud all the images you saw, in the exact order you saw them. Try to recall as many images as you can, but remember: getting the order right is more important than the number of images you recall.</p>""]","","1","coin_causal"
"","","","","","image-button-response","88","1550836","0.0-14.0-0.0","624E9FCA937149C69D856EA4059E867F","624E9FCA937149C69D856EA4059E867F","6b81af7b-e6cd-45f2-a3d9-cc10e02ccee5","5e631737-0fa4-44a6-b227-7ba1d7345015","{""num_scrambled_semantic"":""8"",""num_scrambled_causal"":""4"",""num_scrambled_schematic"":""4"",""participantId"":""624E9FCA937149C69D856EA4059E867F"",""assignmentId"":""6b81af7b-e6cd-45f2-a3d9-cc10e02ccee5"",""projectId"":""5e631737-0fa4-44a6-b227-7ba1d7345015""}","https://test12345.live/?num_scrambled_semantic=8&num_scrambled_causal=4&num_scrambled_schematic=4&participantId=624E9FCA937149C69D856EA4059E867F&assignmentId=6b81af7b-e6cd-45f2-a3d9-cc10e02ccee5&projectId=5e631737-0fa4-44a6-b227-7ba1d7345015","624E9FCA937149C69D856EA4059E867F-2025-05-27-18-53-02","","null","","images/semantic_sequence/physical_activity_semantic/physical_activity_semantic_0.png","null","",""
"","","","","","image-button-response","89","1555342","0.0-14.0-1.0-0.0","624E9FCA937149C69D856EA4059E867F","624E9FCA937149C69D856EA4059E867F","6b81af7b-e6cd-45f2-a3d9-cc10e02ccee5","5e631737-0fa4-44a6-b227-7ba1d7345015","{""num_scrambled_semantic"":""8"",""num_scrambled_causal"":""4"",""num_scrambled_schematic"":""4"",""participantId"":""624E9FCA937149C69D856EA4059E867F"",""assignmentId"":""6b81af7b-e6cd-45f2-a3d9-cc10e02ccee5"",""projectId"":""5e631737-0fa4-44a6-b227-7ba1d7345015""}","https://test12345.live/?num_scrambled_semantic=8&num_scrambled_causal=4&num_scrambled_schematic=4&participantId=624E9FCA937149C69D856EA4059E867F&assignmentId=6b81af7b-e6cd-45f2-a3d9-cc10e02ccee5&projectId=5e631737-0fa4-44a6-b227-7ba1d7345015","624E9FCA937149C69D856EA4059E867F-2025-05-27-18-53-02","","null","","images/semantic_sequence/physical_activity_semantic/physical_activity_semantic_6.png","null","",""
"","","","","","image-button-response","90","1557446","0.0-14.0-1.0-1.0","624E9FCA937149C69D856EA4059E867F","624E9FCA937149C69D856EA4059E867F","6b81af7b-e6cd-45f2-a3d9-cc10e02ccee5","5e631737-0fa4-44a6-b227-7ba1d7345015","{""num_scrambled_semantic"":""8"",""num_scrambled_causal"":""4"",""num_scrambled_schematic"":""4"",""participantId"":""624E9FCA937149C69D856EA4059E867F"",""assignmentId"":""6b81af7b-e6cd-45f2-a3d9-cc10e02ccee5"",""projectId"":""5e631737-0fa4-44a6-b227-7ba1d7345015""}","https://test12345.live/?num_scrambled_semantic=8&num_scrambled_causal=4&num_scrambled_schematic=4&participantId=624E9FCA937149C69D856EA4059E867F&assignmentId=6b81af7b-e6cd-45f2-a3d9-cc10e02ccee5&projectId=5e631737-0fa4-44a6-b227-7ba1d7345015","624E9FCA937149C69D856EA4059E867F-2025-05-27-18-53-02","","2103","","images/semantic_sequence/physical_activity_semantic/physical_activity_semantic_6.png","0","",""
"","","","","","image-button-response","91","1559255","0.0-14.0-1.0-2.0","624E9FCA937149C69D856EA4059E867F","624E9FCA937149C69D856EA4059E867F","6b81af7b-e6cd-45f2-a3d9-cc10e02ccee5","5e631737-0fa4-44a6-b227-7ba1d7345015","{""num_scrambled_semantic"":""8"",""num_scrambled_causal"":""4"",""num_scrambled_schematic"":""4"",""participantId"":""624E9FCA937149C69D856EA4059E867F"",""assignmentId"":""6b81af7b-e6cd-45f2-a3d9-cc10e02ccee5"",""projectId"":""5e631737-0fa4-44a6-b227-7ba1d7345015""}","https://test12345.live/?num_scrambled_semantic=8&num_scrambled_causal=4&num_scrambled_schematic=4&participantId=624E9FCA937149C69D856EA4059E867F&assignmentId=6b81af7b-e6cd-45f2-a3d9-cc10e02ccee5&projectId=5e631737-0fa4-44a6-b227-7ba1d7345015","624E9FCA937149C69D856EA4059E867F-2025-05-27-18-53-02","","null","","[]","null","",""
"","","","","","image-button-response","92","1563774","0.0-14.0-1.0-0.1","624E9FCA937149C69D856EA4059E867F","624E9FCA937149C69D856EA4059E867F","6b81af7b-e6cd-45f2-a3d9-cc10e02ccee5","5e631737-0fa4-44a6-b227-7ba1d7345015","{""num_scrambled_semantic"":""8"",""num_scrambled_causal"":""4"",""num_scrambled_schematic"":""4"",""participantId"":""624E9FCA937149C69D856EA4059E867F"",""assignmentId"":""6b81af7b-e6cd-45f2-a3d9-cc10e02ccee5"",""projectId"":""5e631737-0fa4-44a6-b227-7ba1d7345015""}","https://test12345.live/?num_scrambled_semantic=8&num_scrambled_causal=4&num_scrambled_schematic=4&participantId=624E9FCA937149C69D856EA4059E867F&assignmentId=6b81af7b-e6cd-45f2-a3d9-cc10e02ccee5&projectId=5e631737-0fa4-44a6-b227-7ba1d7345015","624E9FCA937149C69D856EA4059E867F-2025-05-27-18-53-02","","null","","images/semantic_sequence/physical_activity_semantic/physical_activity_semantic_1.png","null","",""
"","","","","","image-button-response","93","1565754","0.0-14.0-1.0-1.1","624E9FCA937149C69D856EA4059E867F","624E9FCA937149C69D856EA4059E867F","6b81af7b-e6cd-45f2-a3d9-cc10e02ccee5","5e631737-0fa4-44a6-b227-7ba1d7345015","{""num_scrambled_semantic"":""8"",""num_scrambled_causal"":""4"",""num_scrambled_schematic"":""4"",""participantId"":""624E9FCA937149C69D856EA4059E867F"",""assignmentId"":""6b81af7b-e6cd-45f2-a3d9-cc10e02ccee5"",""projectId"":""5e631737-0fa4-44a6-b227-7ba1d7345015""}","https://test12345.live/?num_scrambled_semantic=8&num_scrambled_causal=4&num_scrambled_schematic=4&participantId=624E9FCA937149C69D856EA4059E867F&assignmentId=6b81af7b-e6cd-45f2-a3d9-cc10e02ccee5&projectId=5e631737-0fa4-44a6-b227-7ba1d7345015","624E9FCA937149C69D856EA4059E867F-2025-05-27-18-53-02","","1979","","images/semantic_sequence/physical_activity_semantic/physical_activity_semantic_1.png","0","",""
"","","","","","image-button-response","94","1567565","0.0-14.0-1.0-2.1","624E9FCA937149C69D856EA4059E867F","624E9FCA937149C69D856EA4059E867F","6b81af7b-e6cd-45f2-a3d9-cc10e02ccee5","5e631737-0fa4-44a6-b227-7ba1d7345015","{""num_scrambled_semantic"":""8"",""num_scrambled_causal"":""4"",""num_scrambled_schematic"":""4"",""participantId"":""624E9FCA937149C69D856EA4059E867F"",""assignmentId"":""6b81af7b-e6cd-45f2-a3d9-cc10e02ccee5"",""projectId"":""5e631737-0fa4-44a6-b227-7ba1d7345015""}","https://test12345.live/?num_scrambled_semantic=8&num_scrambled_causal=4&num_scrambled_schematic=4&participantId=624E9FCA937149C69D856EA4059E867F&assignmentId=6b81af7b-e6cd-45f2-a3d9-cc10e02ccee5&projectId=5e631737-0fa4-44a6-b227-7ba1d7345015","624E9FCA937149C69D856EA4059E867F-2025-05-27-18-53-02","","null","","[]","null","",""
"","","","","","image-button-response","95","1572079","0.0-14.0-1.0-0.2","624E9FCA937149C69D856EA4059E867F","624E9FCA937149C69D856EA4059E867F","6b81af7b-e6cd-45f2-a3d9-cc10e02ccee5","5e631737-0fa4-44a6-b227-7ba1d7345015","{""num_scrambled_semantic"":""8"",""num_scrambled_causal"":""4"",""num_scrambled_schematic"":""4"",""participantId"":""624E9FCA937149C69D856EA4059E867F"",""assignmentId"":""6b81af7b-e6cd-45f2-a3d9-cc10e02ccee5"",""projectId"":""5e631737-0fa4-44a6-b227-7ba1d7345015""}","https://test12345.live/?num_scrambled_semantic=8&num_scrambled_causal=4&num_scrambled_schematic=4&participantId=624E9FCA937149C69D856EA4059E867F&assignmentId=6b81af7b-e6cd-45f2-a3d9-cc10e02ccee5&projectId=5e631737-0fa4-44a6-b227-7ba1d7345015","624E9FCA937149C69D856EA4059E867F-2025-05-27-18-53-02","","null","","images/semantic_sequence/physical_activity_semantic/physical_activity_semantic_2.png","null","",""
"","","","","","image-button-response","96","1573499","0.0-14.0-1.0-1.2","624E9FCA937149C69D856EA4059E867F","624E9FCA937149C69D856EA4059E867F","6b81af7b-e6cd-45f2-a3d9-cc10e02ccee5","5e631737-0fa4-44a6-b227-7ba1d7345015","{""num_scrambled_semantic"":""8"",""num_scrambled_causal"":""4"",""num_scrambled_schematic"":""4"",""participantId"":""624E9FCA937149C69D856EA4059E867F"",""assignmentId"":""6b81af7b-e6cd-45f2-a3d9-cc10e02ccee5"",""projectId"":""5e631737-0fa4-44a6-b227-7ba1d7345015""}","https://test12345.live/?num_scrambled_semantic=8&num_scrambled_causal=4&num_scrambled_schematic=4&participantId=624E9FCA937149C69D856EA4059E867F&assignmentId=6b81af7b-e6cd-45f2-a3d9-cc10e02ccee5&projectId=5e631737-0fa4-44a6-b227-7ba1d7345015","624E9FCA937149C69D856EA4059E867F-2025-05-27-18-53-02","","1419","","images/semantic_sequence/physical_activity_semantic/physical_activity_semantic_2.png","0","",""
"","","","","","image-button-response","97","1575311","0.0-14.0-1.0-2.2","624E9FCA937149C69D856EA4059E867F","624E9FCA937149C69D856EA4059E867F","6b81af7b-e6cd-45f2-a3d9-cc10e02ccee5","5e631737-0fa4-44a6-b227-7ba1d7345015","{""num_scrambled_semantic"":""8"",""num_scrambled_causal"":""4"",""num_scrambled_schematic"":""4"",""participantId"":""624E9FCA937149C69D856EA4059E867F"",""assignmentId"":""6b81af7b-e6cd-45f2-a3d9-cc10e02ccee5"",""projectId"":""5e631737-0fa4-44a6-b227-7ba1d7345015""}","https://test12345.live/?num_scrambled_semantic=8&num_scrambled_causal=4&num_scrambled_schematic=4&participantId=624E9FCA937149C69D856EA4059E867F&assignmentId=6b81af7b-e6cd-45f2-a3d9-cc10e02ccee5&projectId=5e631737-0fa4-44a6-b227-7ba1d7345015","624E9FCA937149C69D856EA4059E867F-2025-05-27-18-53-02","","null","","[]","null","",""
"","","","","","image-button-response","98","1579820","0.0-14.0-1.0-0.3","624E9FCA937149C69D856EA4059E867F","624E9FCA937149C69D856EA4059E867F","6b81af7b-e6cd-45f2-a3d9-cc10e02ccee5","5e631737-0fa4-44a6-b227-7ba1d7345015","{""num_scrambled_semantic"":""8"",""num_scrambled_causal"":""4"",""num_scrambled_schematic"":""4"",""participantId"":""624E9FCA937149C69D856EA4059E867F"",""assignmentId"":""6b81af7b-e6cd-45f2-a3d9-cc10e02ccee5"",""projectId"":""5e631737-0fa4-44a6-b227-7ba1d7345015""}","https://test12345.live/?num_scrambled_semantic=8&num_scrambled_causal=4&num_scrambled_schematic=4&participantId=624E9FCA937149C69D856EA4059E867F&assignmentId=6b81af7b-e6cd-45f2-a3d9-cc10e02ccee5&projectId=5e631737-0fa4-44a6-b227-7ba1d7345015","624E9FCA937149C69D856EA4059E867F-2025-05-27-18-53-02","","null","","images/semantic_sequence/physical_activity_semantic/physical_activity_semantic_5.png","null","",""
"","","","","","image-button-response","99","1580921","0.0-14.0-1.0-1.3","624E9FCA937149C69D856EA4059E867F","624E9FCA937149C69D856EA4059E867F","6b81af7b-e6cd-45f2-a3d9-cc10e02ccee5","5e631737-0fa4-44a6-b227-7ba1d7345015","{""num_scrambled_semantic"":""8"",""num_scrambled_causal"":""4"",""num_scrambled_schematic"":""4"",""participantId"":""624E9FCA937149C69D856EA4059E867F"",""assignmentId"":""6b81af7b-e6cd-45f2-a3d9-cc10e02ccee5"",""projectId"":""5e631737-0fa4-44a6-b227-7ba1d7345015""}","https://test12345.live/?num_scrambled_semantic=8&num_scrambled_causal=4&num_scrambled_schematic=4&participantId=624E9FCA937149C69D856EA4059E867F&assignmentId=6b81af7b-e6cd-45f2-a3d9-cc10e02ccee5&projectId=5e631737-0fa4-44a6-b227-7ba1d7345015","624E9FCA937149C69D856EA4059E867F-2025-05-27-18-53-02","","1100","","images/semantic_sequence/physical_activity_semantic/physical_activity_semantic_5.png","0","",""
"","","","","","image-button-response","100","1582741","0.0-14.0-1.0-2.3","624E9FCA937149C69D856EA4059E867F","624E9FCA937149C69D856EA4059E867F","6b81af7b-e6cd-45f2-a3d9-cc10e02ccee5","5e631737-0fa4-44a6-b227-7ba1d7345015","{""num_scrambled_semantic"":""8"",""num_scrambled_causal"":""4"",""num_scrambled_schematic"":""4"",""participantId"":""624E9FCA937149C69D856EA4059E867F"",""assignmentId"":""6b81af7b-e6cd-45f2-a3d9-cc10e02ccee5"",""projectId"":""5e631737-0fa4-44a6-b227-7ba1d7345015""}","https://test12345.live/?num_scrambled_semantic=8&num_scrambled_causal=4&num_scrambled_schematic=4&participantId=624E9FCA937149C69D856EA4059E867F&assignmentId=6b81af7b-e6cd-45f2-a3d9-cc10e02ccee5&projectId=5e631737-0fa4-44a6-b227-7ba1d7345015","624E9FCA937149C69D856EA4059E867F-2025-05-27-18-53-02","","null","","[]","null","",""
"","","","","","image-button-response","101","1587254","0.0-14.0-1.0-0.4","624E9FCA937149C69D856EA4059E867F","624E9FCA937149C69D856EA4059E867F","6b81af7b-e6cd-45f2-a3d9-cc10e02ccee5","5e631737-0fa4-44a6-b227-7ba1d7345015","{""num_scrambled_semantic"":""8"",""num_scrambled_causal"":""4"",""num_scrambled_schematic"":""4"",""participantId"":""624E9FCA937149C69D856EA4059E867F"",""assignmentId"":""6b81af7b-e6cd-45f2-a3d9-cc10e02ccee5"",""projectId"":""5e631737-0fa4-44a6-b227-7ba1d7345015""}","https://test12345.live/?num_scrambled_semantic=8&num_scrambled_causal=4&num_scrambled_schematic=4&participantId=624E9FCA937149C69D856EA4059E867F&assignmentId=6b81af7b-e6cd-45f2-a3d9-cc10e02ccee5&projectId=5e631737-0fa4-44a6-b227-7ba1d7345015","624E9FCA937149C69D856EA4059E867F-2025-05-27-18-53-02","","null","","images/semantic_sequence/physical_activity_semantic/physical_activity_semantic_9.png","null","",""
"","","","","","image-button-response","102","1588647","0.0-14.0-1.0-1.4","624E9FCA937149C69D856EA4059E867F","624E9FCA937149C69D856EA4059E867F","6b81af7b-e6cd-45f2-a3d9-cc10e02ccee5","5e631737-0fa4-44a6-b227-7ba1d7345015","{""num_scrambled_semantic"":""8"",""num_scrambled_causal"":""4"",""num_scrambled_schematic"":""4"",""participantId"":""624E9FCA937149C69D856EA4059E867F"",""assignmentId"":""6b81af7b-e6cd-45f2-a3d9-cc10e02ccee5"",""projectId"":""5e631737-0fa4-44a6-b227-7ba1d7345015""}","https://test12345.live/?num_scrambled_semantic=8&num_scrambled_causal=4&num_scrambled_schematic=4&participantId=624E9FCA937149C69D856EA4059E867F&assignmentId=6b81af7b-e6cd-45f2-a3d9-cc10e02ccee5&projectId=5e631737-0fa4-44a6-b227-7ba1d7345015","624E9FCA937149C69D856EA4059E867F-2025-05-27-18-53-02","","1392","","images/semantic_sequence/physical_activity_semantic/physical_activity_semantic_9.png","0","",""
"","","","","","image-button-response","103","1590462","0.0-14.0-1.0-2.4","624E9FCA937149C69D856EA4059E867F","624E9FCA937149C69D856EA4059E867F","6b81af7b-e6cd-45f2-a3d9-cc10e02ccee5","5e631737-0fa4-44a6-b227-7ba1d7345015","{""num_scrambled_semantic"":""8"",""num_scrambled_causal"":""4"",""num_scrambled_schematic"":""4"",""participantId"":""624E9FCA937149C69D856EA4059E867F"",""assignmentId"":""6b81af7b-e6cd-45f2-a3d9-cc10e02ccee5"",""projectId"":""5e631737-0fa4-44a6-b227-7ba1d7345015""}","https://test12345.live/?num_scrambled_semantic=8&num_scrambled_causal=4&num_scrambled_schematic=4&participantId=624E9FCA937149C69D856EA4059E867F&assignmentId=6b81af7b-e6cd-45f2-a3d9-cc10e02ccee5&projectId=5e631737-0fa4-44a6-b227-7ba1d7345015","624E9FCA937149C69D856EA4059E867F-2025-05-27-18-53-02","","null","","[]","null","",""
"","","","","","image-button-response","104","1594970","0.0-14.0-1.0-0.5","624E9FCA937149C69D856EA4059E867F","624E9FCA937149C69D856EA4059E867F","6b81af7b-e6cd-45f2-a3d9-cc10e02ccee5","5e631737-0fa4-44a6-b227-7ba1d7345015","{""num_scrambled_semantic"":""8"",""num_scrambled_causal"":""4"",""num_scrambled_schematic"":""4"",""participantId"":""624E9FCA937149C69D856EA4059E867F"",""assignmentId"":""6b81af7b-e6cd-45f2-a3d9-cc10e02ccee5"",""projectId"":""5e631737-0fa4-44a6-b227-7ba1d7345015""}","https://test12345.live/?num_scrambled_semantic=8&num_scrambled_causal=4&num_scrambled_schematic=4&participantId=624E9FCA937149C69D856EA4059E867F&assignmentId=6b81af7b-e6cd-45f2-a3d9-cc10e02ccee5&projectId=5e631737-0fa4-44a6-b227-7ba1d7345015","624E9FCA937149C69D856EA4059E867F-2025-05-27-18-53-02","","null","","images/semantic_sequence/physical_activity_semantic/physical_activity_semantic_ten.png","null","",""
"","","","","","image-button-response","105","1596496","0.0-14.0-1.0-1.5","624E9FCA937149C69D856EA4059E867F","624E9FCA937149C69D856EA4059E867F","6b81af7b-e6cd-45f2-a3d9-cc10e02ccee5","5e631737-0fa4-44a6-b227-7ba1d7345015","{""num_scrambled_semantic"":""8"",""num_scrambled_causal"":""4"",""num_scrambled_schematic"":""4"",""participantId"":""624E9FCA937149C69D856EA4059E867F"",""assignmentId"":""6b81af7b-e6cd-45f2-a3d9-cc10e02ccee5"",""projectId"":""5e631737-0fa4-44a6-b227-7ba1d7345015""}","https://test12345.live/?num_scrambled_semantic=8&num_scrambled_causal=4&num_scrambled_schematic=4&participantId=624E9FCA937149C69D856EA4059E867F&assignmentId=6b81af7b-e6cd-45f2-a3d9-cc10e02ccee5&projectId=5e631737-0fa4-44a6-b227-7ba1d7345015","624E9FCA937149C69D856EA4059E867F-2025-05-27-18-53-02","","1524","","images/semantic_sequence/physical_activity_semantic/physical_activity_semantic_ten.png","0","",""
"","","","","","image-button-response","106","1598297","0.0-14.0-1.0-2.5","624E9FCA937149C69D856EA4059E867F","624E9FCA937149C69D856EA4059E867F","6b81af7b-e6cd-45f2-a3d9-cc10e02ccee5","5e631737-0fa4-44a6-b227-7ba1d7345015","{""num_scrambled_semantic"":""8"",""num_scrambled_causal"":""4"",""num_scrambled_schematic"":""4"",""participantId"":""624E9FCA937149C69D856EA4059E867F"",""assignmentId"":""6b81af7b-e6cd-45f2-a3d9-cc10e02ccee5"",""projectId"":""5e631737-0fa4-44a6-b227-7ba1d7345015""}","https://test12345.live/?num_scrambled_semantic=8&num_scrambled_causal=4&num_scrambled_schematic=4&participantId=624E9FCA937149C69D856EA4059E867F&assignmentId=6b81af7b-e6cd-45f2-a3d9-cc10e02ccee5&projectId=5e631737-0fa4-44a6-b227-7ba1d7345015","624E9FCA937149C69D856EA4059E867F-2025-05-27-18-53-02","","null","","[]","null","",""
"","","","","","image-button-response","107","1602798","0.0-14.0-1.0-0.6","624E9FCA937149C69D856EA4059E867F","624E9FCA937149C69D856EA4059E867F","6b81af7b-e6cd-45f2-a3d9-cc10e02ccee5","5e631737-0fa4-44a6-b227-7ba1d7345015","{""num_scrambled_semantic"":""8"",""num_scrambled_causal"":""4"",""num_scrambled_schematic"":""4"",""participantId"":""624E9FCA937149C69D856EA4059E867F"",""assignmentId"":""6b81af7b-e6cd-45f2-a3d9-cc10e02ccee5"",""projectId"":""5e631737-0fa4-44a6-b227-7ba1d7345015""}","https://test12345.live/?num_scrambled_semantic=8&num_scrambled_causal=4&num_scrambled_schematic=4&participantId=624E9FCA937149C69D856EA4059E867F&assignmentId=6b81af7b-e6cd-45f2-a3d9-cc10e02ccee5&projectId=5e631737-0fa4-44a6-b227-7ba1d7345015","624E9FCA937149C69D856EA4059E867F-2025-05-27-18-53-02","","null","","images/semantic_sequence/physical_activity_semantic/physical_activity_semantic_4.png","null","",""
"","","","","","image-button-response","108","1604269","0.0-14.0-1.0-1.6","624E9FCA937149C69D856EA4059E867F","624E9FCA937149C69D856EA4059E867F","6b81af7b-e6cd-45f2-a3d9-cc10e02ccee5","5e631737-0fa4-44a6-b227-7ba1d7345015","{""num_scrambled_semantic"":""8"",""num_scrambled_causal"":""4"",""num_scrambled_schematic"":""4"",""participantId"":""624E9FCA937149C69D856EA4059E867F"",""assignmentId"":""6b81af7b-e6cd-45f2-a3d9-cc10e02ccee5"",""projectId"":""5e631737-0fa4-44a6-b227-7ba1d7345015""}","https://test12345.live/?num_scrambled_semantic=8&num_scrambled_causal=4&num_scrambled_schematic=4&participantId=624E9FCA937149C69D856EA4059E867F&assignmentId=6b81af7b-e6cd-45f2-a3d9-cc10e02ccee5&projectId=5e631737-0fa4-44a6-b227-7ba1d7345015","624E9FCA937149C69D856EA4059E867F-2025-05-27-18-53-02","","1470","","images/semantic_sequence/physical_activity_semantic/physical_activity_semantic_4.png","0","",""
"","","","","","image-button-response","109","1606075","0.0-14.0-1.0-2.6","624E9FCA937149C69D856EA4059E867F","624E9FCA937149C69D856EA4059E867F","6b81af7b-e6cd-45f2-a3d9-cc10e02ccee5","5e631737-0fa4-44a6-b227-7ba1d7345015","{""num_scrambled_semantic"":""8"",""num_scrambled_causal"":""4"",""num_scrambled_schematic"":""4"",""participantId"":""624E9FCA937149C69D856EA4059E867F"",""assignmentId"":""6b81af7b-e6cd-45f2-a3d9-cc10e02ccee5"",""projectId"":""5e631737-0fa4-44a6-b227-7ba1d7345015""}","https://test12345.live/?num_scrambled_semantic=8&num_scrambled_causal=4&num_scrambled_schematic=4&participantId=624E9FCA937149C69D856EA4059E867F&assignmentId=6b81af7b-e6cd-45f2-a3d9-cc10e02ccee5&projectId=5e631737-0fa4-44a6-b227-7ba1d7345015","624E9FCA937149C69D856EA4059E867F-2025-05-27-18-53-02","","null","","[]","null","",""
"","","","","","image-button-response","110","1610581","0.0-14.0-1.0-0.7","624E9FCA937149C69D856EA4059E867F","624E9FCA937149C69D856EA4059E867F","6b81af7b-e6cd-45f2-a3d9-cc10e02ccee5","5e631737-0fa4-44a6-b227-7ba1d7345015","{""num_scrambled_semantic"":""8"",""num_scrambled_causal"":""4"",""num_scrambled_schematic"":""4"",""participantId"":""624E9FCA937149C69D856EA4059E867F"",""assignmentId"":""6b81af7b-e6cd-45f2-a3d9-cc10e02ccee5"",""projectId"":""5e631737-0fa4-44a6-b227-7ba1d7345015""}","https://test12345.live/?num_scrambled_semantic=8&num_scrambled_causal=4&num_scrambled_schematic=4&participantId=624E9FCA937149C69D856EA4059E867F&assignmentId=6b81af7b-e6cd-45f2-a3d9-cc10e02ccee5&projectId=5e631737-0fa4-44a6-b227-7ba1d7345015","624E9FCA937149C69D856EA4059E867F-2025-05-27-18-53-02","","null","","images/semantic_sequence/physical_activity_semantic/physical_activity_semantic_8.png","null","",""
"","","","","","image-button-response","111","1611127","0.0-14.0-1.0-1.7","624E9FCA937149C69D856EA4059E867F","624E9FCA937149C69D856EA4059E867F","6b81af7b-e6cd-45f2-a3d9-cc10e02ccee5","5e631737-0fa4-44a6-b227-7ba1d7345015","{""num_scrambled_semantic"":""8"",""num_scrambled_causal"":""4"",""num_scrambled_schematic"":""4"",""participantId"":""624E9FCA937149C69D856EA4059E867F"",""assignmentId"":""6b81af7b-e6cd-45f2-a3d9-cc10e02ccee5"",""projectId"":""5e631737-0fa4-44a6-b227-7ba1d7345015""}","https://test12345.live/?num_scrambled_semantic=8&num_scrambled_causal=4&num_scrambled_schematic=4&participantId=624E9FCA937149C69D856EA4059E867F&assignmentId=6b81af7b-e6cd-45f2-a3d9-cc10e02ccee5&projectId=5e631737-0fa4-44a6-b227-7ba1d7345015","624E9FCA937149C69D856EA4059E867F-2025-05-27-18-53-02","","545","","images/semantic_sequence/physical_activity_semantic/physical_activity_semantic_8.png","0","",""
"","","","","","image-button-response","112","1612931","0.0-14.0-1.0-2.7","624E9FCA937149C69D856EA4059E867F","624E9FCA937149C69D856EA4059E867F","6b81af7b-e6cd-45f2-a3d9-cc10e02ccee5","5e631737-0fa4-44a6-b227-7ba1d7345015","{""num_scrambled_semantic"":""8"",""num_scrambled_causal"":""4"",""num_scrambled_schematic"":""4"",""participantId"":""624E9FCA937149C69D856EA4059E867F"",""assignmentId"":""6b81af7b-e6cd-45f2-a3d9-cc10e02ccee5"",""projectId"":""5e631737-0fa4-44a6-b227-7ba1d7345015""}","https://test12345.live/?num_scrambled_semantic=8&num_scrambled_causal=4&num_scrambled_schematic=4&participantId=624E9FCA937149C69D856EA4059E867F&assignmentId=6b81af7b-e6cd-45f2-a3d9-cc10e02ccee5&projectId=5e631737-0fa4-44a6-b227-7ba1d7345015","624E9FCA937149C69D856EA4059E867F-2025-05-27-18-53-02","","null","","[]","null","",""
"","","","","","image-button-response","113","1617440","0.0-14.0-1.0-0.8","624E9FCA937149C69D856EA4059E867F","624E9FCA937149C69D856EA4059E867F","6b81af7b-e6cd-45f2-a3d9-cc10e02ccee5","5e631737-0fa4-44a6-b227-7ba1d7345015","{""num_scrambled_semantic"":""8"",""num_scrambled_causal"":""4"",""num_scrambled_schematic"":""4"",""participantId"":""624E9FCA937149C69D856EA4059E867F"",""assignmentId"":""6b81af7b-e6cd-45f2-a3d9-cc10e02ccee5"",""projectId"":""5e631737-0fa4-44a6-b227-7ba1d7345015""}","https://test12345.live/?num_scrambled_semantic=8&num_scrambled_causal=4&num_scrambled_schematic=4&participantId=624E9FCA937149C69D856EA4059E867F&assignmentId=6b81af7b-e6cd-45f2-a3d9-cc10e02ccee5&projectId=5e631737-0fa4-44a6-b227-7ba1d7345015","624E9FCA937149C69D856EA4059E867F-2025-05-27-18-53-02","","null","","images/semantic_sequence/physical_activity_semantic/physical_activity_semantic_3.png","null","",""
