"success","timeout","failed_images","failed_audio","failed_video","trial_type","trial_index","time_elapsed","internal_node_id","subject","subject_id","study_id","session_id","urlvar","current_url","audio_id","view_history","rt","device_id","stimulus","response","estimated_stimulus_onset","seq_name"
"true","false","[]","[]","[]","preload","0","3698","0.0-0.0","624E9FCA937149C69D856EA4059E867F","624E9FCA937149C69D856EA4059E867F","0198bcca-8cc0-717a-a747-1bd148dff96e","0198bbb8-fd11-701d-9147-68794ad37298","{""num_scrambled_semantic"":""8"",""num_scrambled_causal"":""4"",""num_scrambled_schematic"":""4"",""participantId"":""624E9FCA937149C69D856EA4059E867F"",""assignmentId"":""0198bcca-8cc0-717a-a747-1bd148dff96e"",""projectId"":""0198bbb8-fd11-701d-9147-68794ad37298""}","https://test12345.live/?num_scrambled_semantic=8&num_scrambled_causal=4&num_scrambled_schematic=4&participantId=624E9FCA937149C69D856EA4059E867F&assignmentId=0198bcca-8cc0-717a-a747-1bd148dff96e&projectId=0198bbb8-fd11-701d-9147-68794ad37298","624E9FCA937149C69D856EA4059E867F-2025-08-18-11-40-20","","","","","","",""
"","","","","","instructions","1","30656","0.0-1.0","624E9FCA937149C69D856EA4059E867F","624E9FCA937149C69D856EA4059E867F","0198bcca-8cc0-717a-a747-1bd148dff96e","0198bbb8-fd11-701d-9147-68794ad37298","{""num_scrambled_semantic"":""8"",""num_scrambled_causal"":""4"",""num_scrambled_schematic"":""4"",""participantId"":""624E9FCA937149C69D856EA4059E867F"",""assignmentId"":""0198bcca-8cc0-717a-a747-1bd148dff96e"",""projectId"":""0198bbb8-fd11-701d-9147-68794ad37298""}","https://test12345.live/?num_scrambled_semantic=8&num_scrambled_causal=4&num_scrambled_schematic=4&participantId=624E9FCA937149C69D856EA4059E867F&assignmentId=0198bcca-8cc0-717a-a747-1bd148dff96e&projectId=0198bbb8-fd11-701d-9147-68794ad37298","624E9FCA937149C69D856EA4059E867F-2025-08-18-11-40-20","[{""page_index"":0,""viewing_time"":26955}]","26956","","","","",""
"","","","","","instructions","2","35730","0.0-2.0","624E9FCA937149C69D856EA4059E867F","624E9FCA937149C69D856EA4059E867F","0198bcca-8cc0-717a-a747-1bd148dff96e","0198bbb8-fd11-701d-9147-68794ad37298","{""num_scrambled_semantic"":""8"",""num_scrambled_causal"":""4"",""num_scrambled_schematic"":""4"",""participantId"":""624E9FCA937149C69D856EA4059E867F"",""assignmentId"":""0198bcca-8cc0-717a-a747-1bd148dff96e"",""projectId"":""0198bbb8-fd11-701d-9147-68794ad37298""}","https://test12345.live/?num_scrambled_semantic=8&num_scrambled_causal=4&num_scrambled_schematic=4&participantId=624E9FCA937149C69D856EA4059E867F&assignmentId=0198bcca-8cc0-717a-a747-1bd148dff96e&projectId=0198bbb8-fd11-701d-9147-68794ad37298","624E9FCA937149C69D856EA4059E867F-2025-08-18-11-40-20","[{""page_index"":0,""viewing_time"":5074}]","5074","","","","",""
"true","","","","","fullscreen","3","1273745","0.0-3.0","624E9FCA937149C69D856EA4059E867F","624E9FCA937149C69D856EA4059E867F","0198bcca-8cc0-717a-a747-1bd148dff96e","0198bbb8-fd11-701d-9147-68794ad37298","{""num_scrambled_semantic"":""8"",""num_scrambled_causal"":""4"",""num_scrambled_schematic"":""4"",""participantId"":""624E9FCA937149C69D856EA4059E867F"",""assignmentId"":""0198bcca-8cc0-717a-a747-1bd148dff96e"",""projectId"":""0198bbb8-fd11-701d-9147-68794ad37298""}","https://test12345.live/?num_scrambled_semantic=8&num_scrambled_causal=4&num_scrambled_schematic=4&participantId=624E9FCA937149C69D856EA4059E867F&assignmentId=0198bcca-8cc0-717a-a747-1bd148dff96e&projectId=0198bbb8-fd11-701d-9147-68794ad37298","624E9FCA937149C69D856EA4059E867F-2025-08-18-11-40-20","","1236995","","","","",""
"","","","","","initialize-microphone","4","1283811","0.0-4.0-0.0","624E9FCA937149C69D856EA4059E867F","624E9FCA937149C69D856EA4059E867F","0198bcca-8cc0-717a-a747-1bd148dff96e","0198bbb8-fd11-701d-9147-68794ad37298","{""num_scrambled_semantic"":""8"",""num_scrambled_causal"":""4"",""num_scrambled_schematic"":""4"",""participantId"":""624E9FCA937149C69D856EA4059E867F"",""assignmentId"":""0198bcca-8cc0-717a-a747-1bd148dff96e"",""projectId"":""0198bbb8-fd11-701d-9147-68794ad37298""}","https://test12345.live/?num_scrambled_semantic=8&num_scrambled_causal=4&num_scrambled_schematic=4&participantId=624E9FCA937149C69D856EA4059E867F&assignmentId=0198bcca-8cc0-717a-a747-1bd148dff96e&projectId=0198bbb8-fd11-701d-9147-68794ad37298","624E9FCA937149C69D856EA4059E867F-2025-08-18-11-40-20","","","f506fef34d8dde8e53263788a21ef663d52260791ca70946a576cd124e64f0d9","","","",""
"","","","","","html-audio-response","5","1293625","0.0-4.0-1.0","624E9FCA937149C69D856EA4059E867F","624E9FCA937149C69D856EA4059E867F","0198bcca-8cc0-717a-a747-1bd148dff96e","0198bbb8-fd11-701d-9147-68794ad37298","{""num_scrambled_semantic"":""8"",""num_scrambled_causal"":""4"",""num_scrambled_schematic"":""4"",""participantId"":""624E9FCA937149C69D856EA4059E867F"",""assignmentId"":""0198bcca-8cc0-717a-a747-1bd148dff96e"",""projectId"":""0198bbb8-fd11-701d-9147-68794ad37298""}","https://test12345.live/?num_scrambled_semantic=8&num_scrambled_causal=4&num_scrambled_schematic=4&participantId=624E9FCA937149C69D856EA4059E867F&assignmentId=0198bcca-8cc0-717a-a747-1bd148dff96e&projectId=0198bbb8-fd11-701d-9147-68794ad37298","624E9FCA937149C69D856EA4059E867F-2025-08-18-11-40-20","","3433","","<span style=""color: red; font-size: 24px""> NOW RECORDING</span>
        <p>Please test Microphone</p>","","5",""
"","","","","","html-button-response","6","1294775","0.0-4.0-2.0","624E9FCA937149C69D856EA4059E867F","624E9FCA937149C69D856EA4059E867F","0198bcca-8cc0-717a-a747-1bd148dff96e","0198bbb8-fd11-701d-9147-68794ad37298","{""num_scrambled_semantic"":""8"",""num_scrambled_causal"":""4"",""num_scrambled_schematic"":""4"",""participantId"":""624E9FCA937149C69D856EA4059E867F"",""assignmentId"":""0198bcca-8cc0-717a-a747-1bd148dff96e"",""projectId"":""0198bbb8-fd11-701d-9147-68794ad37298""}","https://test12345.live/?num_scrambled_semantic=8&num_scrambled_causal=4&num_scrambled_schematic=4&participantId=624E9FCA937149C69D856EA4059E867F&assignmentId=0198bcca-8cc0-717a-a747-1bd148dff96e&projectId=0198bbb8-fd11-701d-9147-68794ad37298","624E9FCA937149C69D856EA4059E867F-2025-08-18-11-40-20","","1149","","<p style=""font-size:48px; color:red;"">Is Microphone OK?</p>","1","",""
"","","","","","instructions","7","1308483","0.0-5.0","624E9FCA937149C69D856EA4059E867F","624E9FCA937149C69D856EA4059E867F","0198bcca-8cc0-717a-a747-1bd148dff96e","0198bbb8-fd11-701d-9147-68794ad37298","{""num_scrambled_semantic"":""8"",""num_scrambled_causal"":""4"",""num_scrambled_schematic"":""4"",""participantId"":""624E9FCA937149C69D856EA4059E867F"",""assignmentId"":""0198bcca-8cc0-717a-a747-1bd148dff96e"",""projectId"":""0198bbb8-fd11-701d-9147-68794ad37298""}","https://test12345.live/?num_scrambled_semantic=8&num_scrambled_causal=4&num_scrambled_schematic=4&participantId=624E9FCA937149C69D856EA4059E867F&assignmentId=0198bcca-8cc0-717a-a747-1bd148dff96e&projectId=0198bbb8-fd11-701d-9147-68794ad37298","624E9FCA937149C69D856EA4059E867F-2025-08-18-11-40-20","[{""page_index"":0,""viewing_time"":5554},{""page_index"":1,""viewing_time"":8153}]","13707","","","","",""
"","","","","","image-button-response","8","1314489","0.0-6.0-0.0","624E9FCA937149C69D856EA4059E867F","624E9FCA937149C69D856EA4059E867F","0198bcca-8cc0-717a-a747-1bd148dff96e","0198bbb8-fd11-701d-9147-68794ad37298","{""num_scrambled_semantic"":""8"",""num_scrambled_causal"":""4"",""num_scrambled_schematic"":""4"",""participantId"":""624E9FCA937149C69D856EA4059E867F"",""assignmentId"":""0198bcca-8cc0-717a-a747-1bd148dff96e"",""projectId"":""0198bbb8-fd11-701d-9147-68794ad37298""}","https://test12345.live/?num_scrambled_semantic=8&num_scrambled_causal=4&num_scrambled_schematic=4&participantId=624E9FCA937149C69D856EA4059E867F&assignmentId=0198bcca-8cc0-717a-a747-1bd148dff96e&projectId=0198bbb8-fd11-701d-9147-68794ad37298","624E9FCA937149C69D856EA4059E867F-2025-08-18-11-40-20","","null","","images/instructions/movie_0.png","null","",""
"","","","","","image-button-response","9","1318994","0.0-6.0-1.0-0.0","624E9FCA937149C69D856EA4059E867F","624E9FCA937149C69D856EA4059E867F","0198bcca-8cc0-717a-a747-1bd148dff96e","0198bbb8-fd11-701d-9147-68794ad37298","{""num_scrambled_semantic"":""8"",""num_scrambled_causal"":""4"",""num_scrambled_schematic"":""4"",""participantId"":""624E9FCA937149C69D856EA4059E867F"",""assignmentId"":""0198bcca-8cc0-717a-a747-1bd148dff96e"",""projectId"":""0198bbb8-fd11-701d-9147-68794ad37298""}","https://test12345.live/?num_scrambled_semantic=8&num_scrambled_causal=4&num_scrambled_schematic=4&participantId=624E9FCA937149C69D856EA4059E867F&assignmentId=0198bcca-8cc0-717a-a747-1bd148dff96e&projectId=0198bbb8-fd11-701d-9147-68794ad37298","624E9FCA937149C69D856EA4059E867F-2025-08-18-11-40-20","","null","","images/instructions/movie_1.png","null","",""
"","","","","","image-button-response","10","1321332","0.0-6.0-1.0-1.0","624E9FCA937149C69D856EA4059E867F","624E9FCA937149C69D856EA4059E867F","0198bcca-8cc0-717a-a747-1bd148dff96e","0198bbb8-fd11-701d-9147-68794ad37298","{""num_scrambled_semantic"":""8"",""num_scrambled_causal"":""4"",""num_scrambled_schematic"":""4"",""participantId"":""624E9FCA937149C69D856EA4059E867F"",""assignmentId"":""0198bcca-8cc0-717a-a747-1bd148dff96e"",""projectId"":""0198bbb8-fd11-701d-9147-68794ad37298""}","https://test12345.live/?num_scrambled_semantic=8&num_scrambled_causal=4&num_scrambled_schematic=4&participantId=624E9FCA937149C69D856EA4059E867F&assignmentId=0198bcca-8cc0-717a-a747-1bd148dff96e&projectId=0198bbb8-fd11-701d-9147-68794ad37298","624E9FCA937149C69D856EA4059E867F-2025-08-18-11-40-20","","2336","","images/instructions/movie_1.png","0","",""
"","","","","","image-button-response","11","1332148","0.0-6.0-1.0-2.0","624E9FCA937149C69D856EA4059E867F","624E9FCA937149C69D856EA4059E867F","0198bcca-8cc0-717a-a747-1bd148dff96e","0198bbb8-fd11-701d-9147-68794ad37298","{""num_scrambled_semantic"":""8"",""num_scrambled_causal"":""4"",""num_scrambled_schematic"":""4"",""participantId"":""624E9FCA937149C69D856EA4059E867F"",""assignmentId"":""0198bcca-8cc0-717a-a747-1bd148dff96e"",""projectId"":""0198bbb8-fd11-701d-9147-68794ad37298""}","https://test12345.live/?num_scrambled_semantic=8&num_scrambled_causal=4&num_scrambled_schematic=4&participantId=624E9FCA937149C69D856EA4059E867F&assignmentId=0198bcca-8cc0-717a-a747-1bd148dff96e&projectId=0198bbb8-fd11-701d-9147-68794ad37298","624E9FCA937149C69D856EA4059E867F-2025-08-18-11-40-20","","null","","[]","null","",""
"","","","","","image-button-response","12","1336655","0.0-6.0-1.0-0.1","624E9FCA937149C69D856EA4059E867F","624E9FCA937149C69D856EA4059E867F","0198bcca-8cc0-717a-a747-1bd148dff96e","0198bbb8-fd11-701d-9147-68794ad37298","{""num_scrambled_semantic"":""8"",""num_scrambled_causal"":""4"",""num_scrambled_schematic"":""4"",""participantId"":""624E9FCA937149C69D856EA4059E867F"",""assignmentId"":""0198bcca-8cc0-717a-a747-1bd148dff96e"",""projectId"":""0198bbb8-fd11-701d-9147-68794ad37298""}","https://test12345.live/?num_scrambled_semantic=8&num_scrambled_causal=4&num_scrambled_schematic=4&participantId=624E9FCA937149C69D856EA4059E867F&assignmentId=0198bcca-8cc0-717a-a747-1bd148dff96e&projectId=0198bbb8-fd11-701d-9147-68794ad37298","624E9FCA937149C69D856EA4059E867F-2025-08-18-11-40-20","","null","","images/instructions/movie_2.png","null","",""
"","","","","","image-button-response","13","1337629","0.0-6.0-1.0-1.1","624E9FCA937149C69D856EA4059E867F","624E9FCA937149C69D856EA4059E867F","0198bcca-8cc0-717a-a747-1bd148dff96e","0198bbb8-fd11-701d-9147-68794ad37298","{""num_scrambled_semantic"":""8"",""num_scrambled_causal"":""4"",""num_scrambled_schematic"":""4"",""participantId"":""624E9FCA937149C69D856EA4059E867F"",""assignmentId"":""0198bcca-8cc0-717a-a747-1bd148dff96e"",""projectId"":""0198bbb8-fd11-701d-9147-68794ad37298""}","https://test12345.live/?num_scrambled_semantic=8&num_scrambled_causal=4&num_scrambled_schematic=4&participantId=624E9FCA937149C69D856EA4059E867F&assignmentId=0198bcca-8cc0-717a-a747-1bd148dff96e&projectId=0198bbb8-fd11-701d-9147-68794ad37298","624E9FCA937149C69D856EA4059E867F-2025-08-18-11-40-20","","973","","images/instructions/movie_2.png","1","",""
"","","","","","image-button-response","14","1348441","0.0-6.0-1.0-2.1","624E9FCA937149C69D856EA4059E867F","624E9FCA937149C69D856EA4059E867F","0198bcca-8cc0-717a-a747-1bd148dff96e","0198bbb8-fd11-701d-9147-68794ad37298","{""num_scrambled_semantic"":""8"",""num_scrambled_causal"":""4"",""num_scrambled_schematic"":""4"",""participantId"":""624E9FCA937149C69D856EA4059E867F"",""assignmentId"":""0198bcca-8cc0-717a-a747-1bd148dff96e"",""projectId"":""0198bbb8-fd11-701d-9147-68794ad37298""}","https://test12345.live/?num_scrambled_semantic=8&num_scrambled_causal=4&num_scrambled_schematic=4&participantId=624E9FCA937149C69D856EA4059E867F&assignmentId=0198bcca-8cc0-717a-a747-1bd148dff96e&projectId=0198bbb8-fd11-701d-9147-68794ad37298","624E9FCA937149C69D856EA4059E867F-2025-08-18-11-40-20","","null","","[]","null","",""
"","","","","","image-button-response","15","1352954","0.0-6.0-1.0-0.2","624E9FCA937149C69D856EA4059E867F","624E9FCA937149C69D856EA4059E867F","0198bcca-8cc0-717a-a747-1bd148dff96e","0198bbb8-fd11-701d-9147-68794ad37298","{""num_scrambled_semantic"":""8"",""num_scrambled_causal"":""4"",""num_scrambled_schematic"":""4"",""participantId"":""624E9FCA937149C69D856EA4059E867F"",""assignmentId"":""0198bcca-8cc0-717a-a747-1bd148dff96e"",""projectId"":""0198bbb8-fd11-701d-9147-68794ad37298""}","https://test12345.live/?num_scrambled_semantic=8&num_scrambled_causal=4&num_scrambled_schematic=4&participantId=624E9FCA937149C69D856EA4059E867F&assignmentId=0198bcca-8cc0-717a-a747-1bd148dff96e&projectId=0198bbb8-fd11-701d-9147-68794ad37298","624E9FCA937149C69D856EA4059E867F-2025-08-18-11-40-20","","null","","images/instructions/movie_3.png","null","",""
"","","","","","image-button-response","16","1353812","0.0-6.0-1.0-1.2","624E9FCA937149C69D856EA4059E867F","624E9FCA937149C69D856EA4059E867F","0198bcca-8cc0-717a-a747-1bd148dff96e","0198bbb8-fd11-701d-9147-68794ad37298","{""num_scrambled_semantic"":""8"",""num_scrambled_causal"":""4"",""num_scrambled_schematic"":""4"",""participantId"":""624E9FCA937149C69D856EA4059E867F"",""assignmentId"":""0198bcca-8cc0-717a-a747-1bd148dff96e"",""projectId"":""0198bbb8-fd11-701d-9147-68794ad37298""}","https://test12345.live/?num_scrambled_semantic=8&num_scrambled_causal=4&num_scrambled_schematic=4&participantId=624E9FCA937149C69D856EA4059E867F&assignmentId=0198bcca-8cc0-717a-a747-1bd148dff96e&projectId=0198bbb8-fd11-701d-9147-68794ad37298","624E9FCA937149C69D856EA4059E867F-2025-08-18-11-40-20","","856","","images/instructions/movie_3.png","0","",""
"","","","","","image-button-response","17","1364626","0.0-6.0-1.0-2.2","624E9FCA937149C69D856EA4059E867F","624E9FCA937149C69D856EA4059E867F","0198bcca-8cc0-717a-a747-1bd148dff96e","0198bbb8-fd11-701d-9147-68794ad37298","{""num_scrambled_semantic"":""8"",""num_scrambled_causal"":""4"",""num_scrambled_schematic"":""4"",""participantId"":""624E9FCA937149C69D856EA4059E867F"",""assignmentId"":""0198bcca-8cc0-717a-a747-1bd148dff96e"",""projectId"":""0198bbb8-fd11-701d-9147-68794ad37298""}","https://test12345.live/?num_scrambled_semantic=8&num_scrambled_causal=4&num_scrambled_schematic=4&participantId=624E9FCA937149C69D856EA4059E867F&assignmentId=0198bcca-8cc0-717a-a747-1bd148dff96e&projectId=0198bbb8-fd11-701d-9147-68794ad37298","624E9FCA937149C69D856EA4059E867F-2025-08-18-11-40-20","","null","","[]","null","",""
"","","","","","image-button-response","18","1369130","0.0-6.0-1.0-0.3","624E9FCA937149C69D856EA4059E867F","624E9FCA937149C69D856EA4059E867F","0198bcca-8cc0-717a-a747-1bd148dff96e","0198bbb8-fd11-701d-9147-68794ad37298","{""num_scrambled_semantic"":""8"",""num_scrambled_causal"":""4"",""num_scrambled_schematic"":""4"",""participantId"":""624E9FCA937149C69D856EA4059E867F"",""assignmentId"":""0198bcca-8cc0-717a-a747-1bd148dff96e"",""projectId"":""0198bbb8-fd11-701d-9147-68794ad37298""}","https://test12345.live/?num_scrambled_semantic=8&num_scrambled_causal=4&num_scrambled_schematic=4&participantId=624E9FCA937149C69D856EA4059E867F&assignmentId=0198bcca-8cc0-717a-a747-1bd148dff96e&projectId=0198bbb8-fd11-701d-9147-68794ad37298","624E9FCA937149C69D856EA4059E867F-2025-08-18-11-40-20","","null","","images/instructions/movie_4.png","null","",""
"","","","","","image-button-response","19","1370454","0.0-6.0-1.0-1.3","624E9FCA937149C69D856EA4059E867F","624E9FCA937149C69D856EA4059E867F","0198bcca-8cc0-717a-a747-1bd148dff96e","0198bbb8-fd11-701d-9147-68794ad37298","{""num_scrambled_semantic"":""8"",""num_scrambled_causal"":""4"",""num_scrambled_schematic"":""4"",""participantId"":""624E9FCA937149C69D856EA4059E867F"",""assignmentId"":""0198bcca-8cc0-717a-a747-1bd148dff96e"",""projectId"":""0198bbb8-fd11-701d-9147-68794ad37298""}","https://test12345.live/?num_scrambled_semantic=8&num_scrambled_causal=4&num_scrambled_schematic=4&participantId=624E9FCA937149C69D856EA4059E867F&assignmentId=0198bcca-8cc0-717a-a747-1bd148dff96e&projectId=0198bbb8-fd11-701d-9147-68794ad37298","624E9FCA937149C69D856EA4059E867F-2025-08-18-11-40-20","","1322","","images/instructions/movie_4.png","0","",""
"","","","","","image-button-response","20","1381259","0.0-6.0-1.0-2.3","624E9FCA937149C69D856EA4059E867F","624E9FCA937149C69D856EA4059E867F","0198bcca-8cc0-717a-a747-1bd148dff96e","0198bbb8-fd11-701d-9147-68794ad37298","{""num_scrambled_semantic"":""8"",""num_scrambled_causal"":""4"",""num_scrambled_schematic"":""4"",""participantId"":""624E9FCA937149C69D856EA4059E867F"",""assignmentId"":""0198bcca-8cc0-717a-a747-1bd148dff96e"",""projectId"":""0198bbb8-fd11-701d-9147-68794ad37298""}","https://test12345.live/?num_scrambled_semantic=8&num_scrambled_causal=4&num_scrambled_schematic=4&participantId=624E9FCA937149C69D856EA4059E867F&assignmentId=0198bcca-8cc0-717a-a747-1bd148dff96e&projectId=0198bbb8-fd11-701d-9147-68794ad37298","624E9FCA937149C69D856EA4059E867F-2025-08-18-11-40-20","","null","","[]","null","",""
"","","","","","instructions","21","1386777","0.0-7.0","624E9FCA937149C69D856EA4059E867F","624E9FCA937149C69D856EA4059E867F","0198bcca-8cc0-717a-a747-1bd148dff96e","0198bbb8-fd11-701d-9147-68794ad37298","{""num_scrambled_semantic"":""8"",""num_scrambled_causal"":""4"",""num_scrambled_schematic"":""4"",""participantId"":""624E9FCA937149C69D856EA4059E867F"",""assignmentId"":""0198bcca-8cc0-717a-a747-1bd148dff96e"",""projectId"":""0198bbb8-fd11-701d-9147-68794ad37298""}","https://test12345.live/?num_scrambled_semantic=8&num_scrambled_causal=4&num_scrambled_schematic=4&participantId=624E9FCA937149C69D856EA4059E867F&assignmentId=0198bcca-8cc0-717a-a747-1bd148dff96e&projectId=0198bbb8-fd11-701d-9147-68794ad37298","624E9FCA937149C69D856EA4059E867F-2025-08-18-11-40-20","[{""page_index"":0,""viewing_time"":4113},{""page_index"":1,""viewing_time"":1405}]","5518","","","","",""
"","","","","","html-audio-response","22","1409258","0.0-8.0","624E9FCA937149C69D856EA4059E867F","624E9FCA937149C69D856EA4059E867F","0198bcca-8cc0-717a-a747-1bd148dff96e","0198bbb8-fd11-701d-9147-68794ad37298","{""num_scrambled_semantic"":""8"",""num_scrambled_causal"":""4"",""num_scrambled_schematic"":""4"",""participantId"":""624E9FCA937149C69D856EA4059E867F"",""assignmentId"":""0198bcca-8cc0-717a-a747-1bd148dff96e"",""projectId"":""0198bbb8-fd11-701d-9147-68794ad37298""}","https://test12345.live/?num_scrambled_semantic=8&num_scrambled_causal=4&num_scrambled_schematic=4&participantId=624E9FCA937149C69D856EA4059E867F&assignmentId=0198bcca-8cc0-717a-a747-1bd148dff96e&projectId=0198bbb8-fd11-701d-9147-68794ad37298","624E9FCA937149C69D856EA4059E867F-2025-08-18-11-40-20","","15903","","[""<span style=\""color: red; font-size: 24px\""> NOW RECORDING</span><p>Please say out loud all the images you saw, as many as you can remember. The images can be said in any order.</p>""]","","2",""
"","","","","","instructions","23","1411047","0.0-9.0","624E9FCA937149C69D856EA4059E867F","624E9FCA937149C69D856EA4059E867F","0198bcca-8cc0-717a-a747-1bd148dff96e","0198bbb8-fd11-701d-9147-68794ad37298","{""num_scrambled_semantic"":""8"",""num_scrambled_causal"":""4"",""num_scrambled_schematic"":""4"",""participantId"":""624E9FCA937149C69D856EA4059E867F"",""assignmentId"":""0198bcca-8cc0-717a-a747-1bd148dff96e"",""projectId"":""0198bbb8-fd11-701d-9147-68794ad37298""}","https://test12345.live/?num_scrambled_semantic=8&num_scrambled_causal=4&num_scrambled_schematic=4&participantId=624E9FCA937149C69D856EA4059E867F&assignmentId=0198bcca-8cc0-717a-a747-1bd148dff96e&projectId=0198bbb8-fd11-701d-9147-68794ad37298","624E9FCA937149C69D856EA4059E867F-2025-08-18-11-40-20","[{""page_index"":0,""viewing_time"":1784}]","1784","","","","",""
"","","","","","image-button-response","24","1417052","0.0-10.0-0.0","624E9FCA937149C69D856EA4059E867F","624E9FCA937149C69D856EA4059E867F","0198bcca-8cc0-717a-a747-1bd148dff96e","0198bbb8-fd11-701d-9147-68794ad37298","{""num_scrambled_semantic"":""8"",""num_scrambled_causal"":""4"",""num_scrambled_schematic"":""4"",""participantId"":""624E9FCA937149C69D856EA4059E867F"",""assignmentId"":""0198bcca-8cc0-717a-a747-1bd148dff96e"",""projectId"":""0198bbb8-fd11-701d-9147-68794ad37298""}","https://test12345.live/?num_scrambled_semantic=8&num_scrambled_causal=4&num_scrambled_schematic=4&participantId=624E9FCA937149C69D856EA4059E867F&assignmentId=0198bcca-8cc0-717a-a747-1bd148dff96e&projectId=0198bbb8-fd11-701d-9147-68794ad37298","624E9FCA937149C69D856EA4059E867F-2025-08-18-11-40-20","","null","","images/causal_sequence/package_causal/package_causal_0.png","null","",""
"","","","","","image-button-response","25","1421564","0.0-10.0-1.0-0.0","624E9FCA937149C69D856EA4059E867F","624E9FCA937149C69D856EA4059E867F","0198bcca-8cc0-717a-a747-1bd148dff96e","0198bbb8-fd11-701d-9147-68794ad37298","{""num_scrambled_semantic"":""8"",""num_scrambled_causal"":""4"",""num_scrambled_schematic"":""4"",""participantId"":""624E9FCA937149C69D856EA4059E867F"",""assignmentId"":""0198bcca-8cc0-717a-a747-1bd148dff96e"",""projectId"":""0198bbb8-fd11-701d-9147-68794ad37298""}","https://test12345.live/?num_scrambled_semantic=8&num_scrambled_causal=4&num_scrambled_schematic=4&participantId=624E9FCA937149C69D856EA4059E867F&assignmentId=0198bcca-8cc0-717a-a747-1bd148dff96e&projectId=0198bbb8-fd11-701d-9147-68794ad37298","624E9FCA937149C69D856EA4059E867F-2025-08-18-11-40-20","","null","","images/causal_sequence/package_causal/package_causal_9.png","null","",""
"","","","","","image-button-response","26","1422682","0.0-10.0-1.0-1.0","624E9FCA937149C69D856EA4059E867F","624E9FCA937149C69D856EA4059E867F","0198bcca-8cc0-717a-a747-1bd148dff96e","0198bbb8-fd11-701d-9147-68794ad37298","{""num_scrambled_semantic"":""8"",""num_scrambled_causal"":""4"",""num_scrambled_schematic"":""4"",""participantId"":""624E9FCA937149C69D856EA4059E867F"",""assignmentId"":""0198bcca-8cc0-717a-a747-1bd148dff96e"",""projectId"":""0198bbb8-fd11-701d-9147-68794ad37298""}","https://test12345.live/?num_scrambled_semantic=8&num_scrambled_causal=4&num_scrambled_schematic=4&participantId=624E9FCA937149C69D856EA4059E867F&assignmentId=0198bcca-8cc0-717a-a747-1bd148dff96e&projectId=0198bbb8-fd11-701d-9147-68794ad37298","624E9FCA937149C69D856EA4059E867F-2025-08-18-11-40-20","","1116","","images/causal_sequence/package_causal/package_causal_9.png","0","",""
"","","","","","image-button-response","27","1433494","0.0-10.0-1.0-2.0","624E9FCA937149C69D856EA4059E867F","624E9FCA937149C69D856EA4059E867F","0198bcca-8cc0-717a-a747-1bd148dff96e","0198bbb8-fd11-701d-9147-68794ad37298","{""num_scrambled_semantic"":""8"",""num_scrambled_causal"":""4"",""num_scrambled_schematic"":""4"",""participantId"":""624E9FCA937149C69D856EA4059E867F"",""assignmentId"":""0198bcca-8cc0-717a-a747-1bd148dff96e"",""projectId"":""0198bbb8-fd11-701d-9147-68794ad37298""}","https://test12345.live/?num_scrambled_semantic=8&num_scrambled_causal=4&num_scrambled_schematic=4&participantId=624E9FCA937149C69D856EA4059E867F&assignmentId=0198bcca-8cc0-717a-a747-1bd148dff96e&projectId=0198bbb8-fd11-701d-9147-68794ad37298","624E9FCA937149C69D856EA4059E867F-2025-08-18-11-40-20","","null","","[]","null","",""
"","","","","","image-button-response","28","1438008","0.0-10.0-1.0-0.1","624E9FCA937149C69D856EA4059E867F","624E9FCA937149C69D856EA4059E867F","0198bcca-8cc0-717a-a747-1bd148dff96e","0198bbb8-fd11-701d-9147-68794ad37298","{""num_scrambled_semantic"":""8"",""num_scrambled_causal"":""4"",""num_scrambled_schematic"":""4"",""participantId"":""624E9FCA937149C69D856EA4059E867F"",""assignmentId"":""0198bcca-8cc0-717a-a747-1bd148dff96e"",""projectId"":""0198bbb8-fd11-701d-9147-68794ad37298""}","https://test12345.live/?num_scrambled_semantic=8&num_scrambled_causal=4&num_scrambled_schematic=4&participantId=624E9FCA937149C69D856EA4059E867F&assignmentId=0198bcca-8cc0-717a-a747-1bd148dff96e&projectId=0198bbb8-fd11-701d-9147-68794ad37298","624E9FCA937149C69D856EA4059E867F-2025-08-18-11-40-20","","null","","images/causal_sequence/package_causal/package_causal_3.png","null","",""
"","","","","","image-button-response","29","1439163","0.0-10.0-1.0-1.1","624E9FCA937149C69D856EA4059E867F","624E9FCA937149C69D856EA4059E867F","0198bcca-8cc0-717a-a747-1bd148dff96e","0198bbb8-fd11-701d-9147-68794ad37298","{""num_scrambled_semantic"":""8"",""num_scrambled_causal"":""4"",""num_scrambled_schematic"":""4"",""participantId"":""624E9FCA937149C69D856EA4059E867F"",""assignmentId"":""0198bcca-8cc0-717a-a747-1bd148dff96e"",""projectId"":""0198bbb8-fd11-701d-9147-68794ad37298""}","https://test12345.live/?num_scrambled_semantic=8&num_scrambled_causal=4&num_scrambled_schematic=4&participantId=624E9FCA937149C69D856EA4059E867F&assignmentId=0198bcca-8cc0-717a-a747-1bd148dff96e&projectId=0198bbb8-fd11-701d-9147-68794ad37298","624E9FCA937149C69D856EA4059E867F-2025-08-18-11-40-20","","1154","","images/causal_sequence/package_causal/package_causal_3.png","0","",""
"","","","","","image-button-response","30","1449972","0.0-10.0-1.0-2.1","624E9FCA937149C69D856EA4059E867F","624E9FCA937149C69D856EA4059E867F","0198bcca-8cc0-717a-a747-1bd148dff96e","0198bbb8-fd11-701d-9147-68794ad37298","{""num_scrambled_semantic"":""8"",""num_scrambled_causal"":""4"",""num_scrambled_schematic"":""4"",""participantId"":""624E9FCA937149C69D856EA4059E867F"",""assignmentId"":""0198bcca-8cc0-717a-a747-1bd148dff96e"",""projectId"":""0198bbb8-fd11-701d-9147-68794ad37298""}","https://test12345.live/?num_scrambled_semantic=8&num_scrambled_causal=4&num_scrambled_schematic=4&participantId=624E9FCA937149C69D856EA4059E867F&assignmentId=0198bcca-8cc0-717a-a747-1bd148dff96e&projectId=0198bbb8-fd11-701d-9147-68794ad37298","624E9FCA937149C69D856EA4059E867F-2025-08-18-11-40-20","","null","","[]","null","",""
"","","","","","image-button-response","31","1454474","0.0-10.0-1.0-0.2","624E9FCA937149C69D856EA4059E867F","624E9FCA937149C69D856EA4059E867F","0198bcca-8cc0-717a-a747-1bd148dff96e","0198bbb8-fd11-701d-9147-68794ad37298","{""num_scrambled_semantic"":""8"",""num_scrambled_causal"":""4"",""num_scrambled_schematic"":""4"",""participantId"":""624E9FCA937149C69D856EA4059E867F"",""assignmentId"":""0198bcca-8cc0-717a-a747-1bd148dff96e"",""projectId"":""0198bbb8-fd11-701d-9147-68794ad37298""}","https://test12345.live/?num_scrambled_semantic=8&num_scrambled_causal=4&num_scrambled_schematic=4&participantId=624E9FCA937149C69D856EA4059E867F&assignmentId=0198bcca-8cc0-717a-a747-1bd148dff96e&projectId=0198bbb8-fd11-701d-9147-68794ad37298","624E9FCA937149C69D856EA4059E867F-2025-08-18-11-40-20","","null","","images/causal_sequence/package_causal/package_causal_5.png","null","",""
"","","","","","image-button-response","32","1455249","0.0-10.0-1.0-1.2","624E9FCA937149C69D856EA4059E867F","624E9FCA937149C69D856EA4059E867F","0198bcca-8cc0-717a-a747-1bd148dff96e","0198bbb8-fd11-701d-9147-68794ad37298","{""num_scrambled_semantic"":""8"",""num_scrambled_causal"":""4"",""num_scrambled_schematic"":""4"",""participantId"":""624E9FCA937149C69D856EA4059E867F"",""assignmentId"":""0198bcca-8cc0-717a-a747-1bd148dff96e"",""projectId"":""0198bbb8-fd11-701d-9147-68794ad37298""}","https://test12345.live/?num_scrambled_semantic=8&num_scrambled_causal=4&num_scrambled_schematic=4&participantId=624E9FCA937149C69D856EA4059E867F&assignmentId=0198bcca-8cc0-717a-a747-1bd148dff96e&projectId=0198bbb8-fd11-701d-9147-68794ad37298","624E9FCA937149C69D856EA4059E867F-2025-08-18-11-40-20","","774","","images/causal_sequence/package_causal/package_causal_5.png","0","",""
"","","","","","image-button-response","33","1466056","0.0-10.0-1.0-2.2","624E9FCA937149C69D856EA4059E867F","624E9FCA937149C69D856EA4059E867F","0198bcca-8cc0-717a-a747-1bd148dff96e","0198bbb8-fd11-701d-9147-68794ad37298","{""num_scrambled_semantic"":""8"",""num_scrambled_causal"":""4"",""num_scrambled_schematic"":""4"",""participantId"":""624E9FCA937149C69D856EA4059E867F"",""assignmentId"":""0198bcca-8cc0-717a-a747-1bd148dff96e"",""projectId"":""0198bbb8-fd11-701d-9147-68794ad37298""}","https://test12345.live/?num_scrambled_semantic=8&num_scrambled_causal=4&num_scrambled_schematic=4&participantId=624E9FCA937149C69D856EA4059E867F&assignmentId=0198bcca-8cc0-717a-a747-1bd148dff96e&projectId=0198bbb8-fd11-701d-9147-68794ad37298","624E9FCA937149C69D856EA4059E867F-2025-08-18-11-40-20","","null","","[]","null","",""
"","","","","","image-button-response","34","1470567","0.0-10.0-1.0-0.3","624E9FCA937149C69D856EA4059E867F","624E9FCA937149C69D856EA4059E867F","0198bcca-8cc0-717a-a747-1bd148dff96e","0198bbb8-fd11-701d-9147-68794ad37298","{""num_scrambled_semantic"":""8"",""num_scrambled_causal"":""4"",""num_scrambled_schematic"":""4"",""participantId"":""624E9FCA937149C69D856EA4059E867F"",""assignmentId"":""0198bcca-8cc0-717a-a747-1bd148dff96e"",""projectId"":""0198bbb8-fd11-701d-9147-68794ad37298""}","https://test12345.live/?num_scrambled_semantic=8&num_scrambled_causal=4&num_scrambled_schematic=4&participantId=624E9FCA937149C69D856EA4059E867F&assignmentId=0198bcca-8cc0-717a-a747-1bd148dff96e&projectId=0198bbb8-fd11-701d-9147-68794ad37298","624E9FCA937149C69D856EA4059E867F-2025-08-18-11-40-20","","null","","images/causal_sequence/package_causal/package_causal_4.png","null","",""
"","","","","","image-button-response","35","1471339","0.0-10.0-1.0-1.3","624E9FCA937149C69D856EA4059E867F","624E9FCA937149C69D856EA4059E867F","0198bcca-8cc0-717a-a747-1bd148dff96e","0198bbb8-fd11-701d-9147-68794ad37298","{""num_scrambled_semantic"":""8"",""num_scrambled_causal"":""4"",""num_scrambled_schematic"":""4"",""participantId"":""624E9FCA937149C69D856EA4059E867F"",""assignmentId"":""0198bcca-8cc0-717a-a747-1bd148dff96e"",""projectId"":""0198bbb8-fd11-701d-9147-68794ad37298""}","https://test12345.live/?num_scrambled_semantic=8&num_scrambled_causal=4&num_scrambled_schematic=4&participantId=624E9FCA937149C69D856EA4059E867F&assignmentId=0198bcca-8cc0-717a-a747-1bd148dff96e&projectId=0198bbb8-fd11-701d-9147-68794ad37298","624E9FCA937149C69D856EA4059E867F-2025-08-18-11-40-20","","771","","images/causal_sequence/package_causal/package_causal_4.png","1","",""
"","","","","","image-button-response","36","1482151","0.0-10.0-1.0-2.3","624E9FCA937149C69D856EA4059E867F","624E9FCA937149C69D856EA4059E867F","0198bcca-8cc0-717a-a747-1bd148dff96e","0198bbb8-fd11-701d-9147-68794ad37298","{""num_scrambled_semantic"":""8"",""num_scrambled_causal"":""4"",""num_scrambled_schematic"":""4"",""participantId"":""624E9FCA937149C69D856EA4059E867F"",""assignmentId"":""0198bcca-8cc0-717a-a747-1bd148dff96e"",""projectId"":""0198bbb8-fd11-701d-9147-68794ad37298""}","https://test12345.live/?num_scrambled_semantic=8&num_scrambled_causal=4&num_scrambled_schematic=4&participantId=624E9FCA937149C69D856EA4059E867F&assignmentId=0198bcca-8cc0-717a-a747-1bd148dff96e&projectId=0198bbb8-fd11-701d-9147-68794ad37298","624E9FCA937149C69D856EA4059E867F-2025-08-18-11-40-20","","null","","[]","null","",""
"","","","","","image-button-response","37","1486653","0.0-10.0-1.0-0.4","624E9FCA937149C69D856EA4059E867F","624E9FCA937149C69D856EA4059E867F","0198bcca-8cc0-717a-a747-1bd148dff96e","0198bbb8-fd11-701d-9147-68794ad37298","{""num_scrambled_semantic"":""8"",""num_scrambled_causal"":""4"",""num_scrambled_schematic"":""4"",""participantId"":""624E9FCA937149C69D856EA4059E867F"",""assignmentId"":""0198bcca-8cc0-717a-a747-1bd148dff96e"",""projectId"":""0198bbb8-fd11-701d-9147-68794ad37298""}","https://test12345.live/?num_scrambled_semantic=8&num_scrambled_causal=4&num_scrambled_schematic=4&participantId=624E9FCA937149C69D856EA4059E867F&assignmentId=0198bcca-8cc0-717a-a747-1bd148dff96e&projectId=0198bbb8-fd11-701d-9147-68794ad37298","624E9FCA937149C69D856EA4059E867F-2025-08-18-11-40-20","","null","","images/causal_sequence/package_causal/package_causal_2.png","null","",""
"","","","","","image-button-response","38","1488183","0.0-10.0-1.0-1.4","624E9FCA937149C69D856EA4059E867F","624E9FCA937149C69D856EA4059E867F","0198bcca-8cc0-717a-a747-1bd148dff96e","0198bbb8-fd11-701d-9147-68794ad37298","{""num_scrambled_semantic"":""8"",""num_scrambled_causal"":""4"",""num_scrambled_schematic"":""4"",""participantId"":""624E9FCA937149C69D856EA4059E867F"",""assignmentId"":""0198bcca-8cc0-717a-a747-1bd148dff96e"",""projectId"":""0198bbb8-fd11-701d-9147-68794ad37298""}","https://test12345.live/?num_scrambled_semantic=8&num_scrambled_causal=4&num_scrambled_schematic=4&participantId=624E9FCA937149C69D856EA4059E867F&assignmentId=0198bcca-8cc0-717a-a747-1bd148dff96e&projectId=0198bbb8-fd11-701d-9147-68794ad37298","624E9FCA937149C69D856EA4059E867F-2025-08-18-11-40-20","","1529","","images/causal_sequence/package_causal/package_causal_2.png","0","",""
"","","","","","image-button-response","39","1498984","0.0-10.0-1.0-2.4","624E9FCA937149C69D856EA4059E867F","624E9FCA937149C69D856EA4059E867F","0198bcca-8cc0-717a-a747-1bd148dff96e","0198bbb8-fd11-701d-9147-68794ad37298","{""num_scrambled_semantic"":""8"",""num_scrambled_causal"":""4"",""num_scrambled_schematic"":""4"",""participantId"":""624E9FCA937149C69D856EA4059E867F"",""assignmentId"":""0198bcca-8cc0-717a-a747-1bd148dff96e"",""projectId"":""0198bbb8-fd11-701d-9147-68794ad37298""}","https://test12345.live/?num_scrambled_semantic=8&num_scrambled_causal=4&num_scrambled_schematic=4&participantId=624E9FCA937149C69D856EA4059E867F&assignmentId=0198bcca-8cc0-717a-a747-1bd148dff96e&projectId=0198bbb8-fd11-701d-9147-68794ad37298","624E9FCA937149C69D856EA4059E867F-2025-08-18-11-40-20","","null","","[]","null","",""
"","","","","","image-button-response","40","1503494","0.0-10.0-1.0-0.5","624E9FCA937149C69D856EA4059E867F","624E9FCA937149C69D856EA4059E867F","0198bcca-8cc0-717a-a747-1bd148dff96e","0198bbb8-fd11-701d-9147-68794ad37298","{""num_scrambled_semantic"":""8"",""num_scrambled_causal"":""4"",""num_scrambled_schematic"":""4"",""participantId"":""624E9FCA937149C69D856EA4059E867F"",""assignmentId"":""0198bcca-8cc0-717a-a747-1bd148dff96e"",""projectId"":""0198bbb8-fd11-701d-9147-68794ad37298""}","https://test12345.live/?num_scrambled_semantic=8&num_scrambled_causal=4&num_scrambled_schematic=4&participantId=624E9FCA937149C69D856EA4059E867F&assignmentId=0198bcca-8cc0-717a-a747-1bd148dff96e&projectId=0198bbb8-fd11-701d-9147-68794ad37298","624E9FCA937149C69D856EA4059E867F-2025-08-18-11-40-20","","null","","images/causal_sequence/package_causal/package_causal_6.png","null","",""
"","","","","","image-button-response","41","1504404","0.0-10.0-1.0-1.5","624E9FCA937149C69D856EA4059E867F","624E9FCA937149C69D856EA4059E867F","0198bcca-8cc0-717a-a747-1bd148dff96e","0198bbb8-fd11-701d-9147-68794ad37298","{""num_scrambled_semantic"":""8"",""num_scrambled_causal"":""4"",""num_scrambled_schematic"":""4"",""participantId"":""624E9FCA937149C69D856EA4059E867F"",""assignmentId"":""0198bcca-8cc0-717a-a747-1bd148dff96e"",""projectId"":""0198bbb8-fd11-701d-9147-68794ad37298""}","https://test12345.live/?num_scrambled_semantic=8&num_scrambled_causal=4&num_scrambled_schematic=4&participantId=624E9FCA937149C69D856EA4059E867F&assignmentId=0198bcca-8cc0-717a-a747-1bd148dff96e&projectId=0198bbb8-fd11-701d-9147-68794ad37298","624E9FCA937149C69D856EA4059E867F-2025-08-18-11-40-20","","909","","images/causal_sequence/package_causal/package_causal_6.png","0","",""
"","","","","","image-button-response","42","1515221","0.0-10.0-1.0-2.5","624E9FCA937149C69D856EA4059E867F","624E9FCA937149C69D856EA4059E867F","0198bcca-8cc0-717a-a747-1bd148dff96e","0198bbb8-fd11-701d-9147-68794ad37298","{""num_scrambled_semantic"":""8"",""num_scrambled_causal"":""4"",""num_scrambled_schematic"":""4"",""participantId"":""624E9FCA937149C69D856EA4059E867F"",""assignmentId"":""0198bcca-8cc0-717a-a747-1bd148dff96e"",""projectId"":""0198bbb8-fd11-701d-9147-68794ad37298""}","https://test12345.live/?num_scrambled_semantic=8&num_scrambled_causal=4&num_scrambled_schematic=4&participantId=624E9FCA937149C69D856EA4059E867F&assignmentId=0198bcca-8cc0-717a-a747-1bd148dff96e&projectId=0198bbb8-fd11-701d-9147-68794ad37298","624E9FCA937149C69D856EA4059E867F-2025-08-18-11-40-20","","null","","[]","null","",""
"","","","","","image-button-response","43","1519725","0.0-10.0-1.0-0.6","624E9FCA937149C69D856EA4059E867F","624E9FCA937149C69D856EA4059E867F","0198bcca-8cc0-717a-a747-1bd148dff96e","0198bbb8-fd11-701d-9147-68794ad37298","{""num_scrambled_semantic"":""8"",""num_scrambled_causal"":""4"",""num_scrambled_schematic"":""4"",""participantId"":""624E9FCA937149C69D856EA4059E867F"",""assignmentId"":""0198bcca-8cc0-717a-a747-1bd148dff96e"",""projectId"":""0198bbb8-fd11-701d-9147-68794ad37298""}","https://test12345.live/?num_scrambled_semantic=8&num_scrambled_causal=4&num_scrambled_schematic=4&participantId=624E9FCA937149C69D856EA4059E867F&assignmentId=0198bcca-8cc0-717a-a747-1bd148dff96e&projectId=0198bbb8-fd11-701d-9147-68794ad37298","624E9FCA937149C69D856EA4059E867F-2025-08-18-11-40-20","","null","","images/causal_sequence/package_causal/package_causal_1.png","null","",""
"","","","","","image-button-response","44","1520475","0.0-10.0-1.0-1.6","624E9FCA937149C69D856EA4059E867F","624E9FCA937149C69D856EA4059E867F","0198bcca-8cc0-717a-a747-1bd148dff96e","0198bbb8-fd11-701d-9147-68794ad37298","{""num_scrambled_semantic"":""8"",""num_scrambled_causal"":""4"",""num_scrambled_schematic"":""4"",""participantId"":""624E9FCA937149C69D856EA4059E867F"",""assignmentId"":""0198bcca-8cc0-717a-a747-1bd148dff96e"",""projectId"":""0198bbb8-fd11-701d-9147-68794ad37298""}","https://test12345.live/?num_scrambled_semantic=8&num_scrambled_causal=4&num_scrambled_schematic=4&participantId=624E9FCA937149C69D856EA4059E867F&assignmentId=0198bcca-8cc0-717a-a747-1bd148dff96e&projectId=0198bbb8-fd11-701d-9147-68794ad37298","624E9FCA937149C69D856EA4059E867F-2025-08-18-11-40-20","","749","","images/causal_sequence/package_causal/package_causal_1.png","0","",""
"","","","","","image-button-response","45","1531278","0.0-10.0-1.0-2.6","624E9FCA937149C69D856EA4059E867F","624E9FCA937149C69D856EA4059E867F","0198bcca-8cc0-717a-a747-1bd148dff96e","0198bbb8-fd11-701d-9147-68794ad37298","{""num_scrambled_semantic"":""8"",""num_scrambled_causal"":""4"",""num_scrambled_schematic"":""4"",""participantId"":""624E9FCA937149C69D856EA4059E867F"",""assignmentId"":""0198bcca-8cc0-717a-a747-1bd148dff96e"",""projectId"":""0198bbb8-fd11-701d-9147-68794ad37298""}","https://test12345.live/?num_scrambled_semantic=8&num_scrambled_causal=4&num_scrambled_schematic=4&participantId=624E9FCA937149C69D856EA4059E867F&assignmentId=0198bcca-8cc0-717a-a747-1bd148dff96e&projectId=0198bbb8-fd11-701d-9147-68794ad37298","624E9FCA937149C69D856EA4059E867F-2025-08-18-11-40-20","","null","","[]","null","",""
"","","","","","image-button-response","46","1535782","0.0-10.0-1.0-0.7","624E9FCA937149C69D856EA4059E867F","624E9FCA937149C69D856EA4059E867F","0198bcca-8cc0-717a-a747-1bd148dff96e","0198bbb8-fd11-701d-9147-68794ad37298","{""num_scrambled_semantic"":""8"",""num_scrambled_causal"":""4"",""num_scrambled_schematic"":""4"",""participantId"":""624E9FCA937149C69D856EA4059E867F"",""assignmentId"":""0198bcca-8cc0-717a-a747-1bd148dff96e"",""projectId"":""0198bbb8-fd11-701d-9147-68794ad37298""}","https://test12345.live/?num_scrambled_semantic=8&num_scrambled_causal=4&num_scrambled_schematic=4&participantId=624E9FCA937149C69D856EA4059E867F&assignmentId=0198bcca-8cc0-717a-a747-1bd148dff96e&projectId=0198bbb8-fd11-701d-9147-68794ad37298","624E9FCA937149C69D856EA4059E867F-2025-08-18-11-40-20","","null","","images/causal_sequence/package_causal/package_causal_7.png","null","",""
"","","","","","image-button-response","47","1536638","0.0-10.0-1.0-1.7","624E9FCA937149C69D856EA4059E867F","624E9FCA937149C69D856EA4059E867F","0198bcca-8cc0-717a-a747-1bd148dff96e","0198bbb8-fd11-701d-9147-68794ad37298","{""num_scrambled_semantic"":""8"",""num_scrambled_causal"":""4"",""num_scrambled_schematic"":""4"",""participantId"":""624E9FCA937149C69D856EA4059E867F"",""assignmentId"":""0198bcca-8cc0-717a-a747-1bd148dff96e"",""projectId"":""0198bbb8-fd11-701d-9147-68794ad37298""}","https://test12345.live/?num_scrambled_semantic=8&num_scrambled_causal=4&num_scrambled_schematic=4&participantId=624E9FCA937149C69D856EA4059E867F&assignmentId=0198bcca-8cc0-717a-a747-1bd148dff96e&projectId=0198bbb8-fd11-701d-9147-68794ad37298","624E9FCA937149C69D856EA4059E867F-2025-08-18-11-40-20","","855","","images/causal_sequence/package_causal/package_causal_7.png","0","",""
"","","","","","image-button-response","48","1547454","0.0-10.0-1.0-2.7","624E9FCA937149C69D856EA4059E867F","624E9FCA937149C69D856EA4059E867F","0198bcca-8cc0-717a-a747-1bd148dff96e","0198bbb8-fd11-701d-9147-68794ad37298","{""num_scrambled_semantic"":""8"",""num_scrambled_causal"":""4"",""num_scrambled_schematic"":""4"",""participantId"":""624E9FCA937149C69D856EA4059E867F"",""assignmentId"":""0198bcca-8cc0-717a-a747-1bd148dff96e"",""projectId"":""0198bbb8-fd11-701d-9147-68794ad37298""}","https://test12345.live/?num_scrambled_semantic=8&num_scrambled_causal=4&num_scrambled_schematic=4&participantId=624E9FCA937149C69D856EA4059E867F&assignmentId=0198bcca-8cc0-717a-a747-1bd148dff96e&projectId=0198bbb8-fd11-701d-9147-68794ad37298","624E9FCA937149C69D856EA4059E867F-2025-08-18-11-40-20","","null","","[]","null","",""
"","","","","","image-button-response","49","1551956","0.0-10.0-1.0-0.8","624E9FCA937149C69D856EA4059E867F","624E9FCA937149C69D856EA4059E867F","0198bcca-8cc0-717a-a747-1bd148dff96e","0198bbb8-fd11-701d-9147-68794ad37298","{""num_scrambled_semantic"":""8"",""num_scrambled_causal"":""4"",""num_scrambled_schematic"":""4"",""participantId"":""624E9FCA937149C69D856EA4059E867F"",""assignmentId"":""0198bcca-8cc0-717a-a747-1bd148dff96e"",""projectId"":""0198bbb8-fd11-701d-9147-68794ad37298""}","https://test12345.live/?num_scrambled_semantic=8&num_scrambled_causal=4&num_scrambled_schematic=4&participantId=624E9FCA937149C69D856EA4059E867F&assignmentId=0198bcca-8cc0-717a-a747-1bd148dff96e&projectId=0198bbb8-fd11-701d-9147-68794ad37298","624E9FCA937149C69D856EA4059E867F-2025-08-18-11-40-20","","null","","images/causal_sequence/package_causal/package_causal_8.png","null","",""
"","","","","","image-button-response","50","1552723","0.0-10.0-1.0-1.8","624E9FCA937149C69D856EA4059E867F","624E9FCA937149C69D856EA4059E867F","0198bcca-8cc0-717a-a747-1bd148dff96e","0198bbb8-fd11-701d-9147-68794ad37298","{""num_scrambled_semantic"":""8"",""num_scrambled_causal"":""4"",""num_scrambled_schematic"":""4"",""participantId"":""624E9FCA937149C69D856EA4059E867F"",""assignmentId"":""0198bcca-8cc0-717a-a747-1bd148dff96e"",""projectId"":""0198bbb8-fd11-701d-9147-68794ad37298""}","https://test12345.live/?num_scrambled_semantic=8&num_scrambled_causal=4&num_scrambled_schematic=4&participantId=624E9FCA937149C69D856EA4059E867F&assignmentId=0198bcca-8cc0-717a-a747-1bd148dff96e&projectId=0198bbb8-fd11-701d-9147-68794ad37298","624E9FCA937149C69D856EA4059E867F-2025-08-18-11-40-20","","765","","images/causal_sequence/package_causal/package_causal_8.png","0","",""
"","","","","","image-button-response","51","1563533","0.0-10.0-1.0-2.8","624E9FCA937149C69D856EA4059E867F","624E9FCA937149C69D856EA4059E867F","0198bcca-8cc0-717a-a747-1bd148dff96e","0198bbb8-fd11-701d-9147-68794ad37298","{""num_scrambled_semantic"":""8"",""num_scrambled_causal"":""4"",""num_scrambled_schematic"":""4"",""participantId"":""624E9FCA937149C69D856EA4059E867F"",""assignmentId"":""0198bcca-8cc0-717a-a747-1bd148dff96e"",""projectId"":""0198bbb8-fd11-701d-9147-68794ad37298""}","https://test12345.live/?num_scrambled_semantic=8&num_scrambled_causal=4&num_scrambled_schematic=4&participantId=624E9FCA937149C69D856EA4059E867F&assignmentId=0198bcca-8cc0-717a-a747-1bd148dff96e&projectId=0198bbb8-fd11-701d-9147-68794ad37298","624E9FCA937149C69D856EA4059E867F-2025-08-18-11-40-20","","null","","[]","null","",""
"","","","","","image-button-response","52","1568036","0.0-10.0-1.0-0.9","624E9FCA937149C69D856EA4059E867F","624E9FCA937149C69D856EA4059E867F","0198bcca-8cc0-717a-a747-1bd148dff96e","0198bbb8-fd11-701d-9147-68794ad37298","{""num_scrambled_semantic"":""8"",""num_scrambled_causal"":""4"",""num_scrambled_schematic"":""4"",""participantId"":""624E9FCA937149C69D856EA4059E867F"",""assignmentId"":""0198bcca-8cc0-717a-a747-1bd148dff96e"",""projectId"":""0198bbb8-fd11-701d-9147-68794ad37298""}","https://test12345.live/?num_scrambled_semantic=8&num_scrambled_causal=4&num_scrambled_schematic=4&participantId=624E9FCA937149C69D856EA4059E867F&assignmentId=0198bcca-8cc0-717a-a747-1bd148dff96e&projectId=0198bbb8-fd11-701d-9147-68794ad37298","624E9FCA937149C69D856EA4059E867F-2025-08-18-11-40-20","","null","","images/causal_sequence/package_causal/package_causal_ten.png","null","",""
"","","","","","image-button-response","53","1568916","0.0-10.0-1.0-1.9","624E9FCA937149C69D856EA4059E867F","624E9FCA937149C69D856EA4059E867F","0198bcca-8cc0-717a-a747-1bd148dff96e","0198bbb8-fd11-701d-9147-68794ad37298","{""num_scrambled_semantic"":""8"",""num_scrambled_causal"":""4"",""num_scrambled_schematic"":""4"",""participantId"":""624E9FCA937149C69D856EA4059E867F"",""assignmentId"":""0198bcca-8cc0-717a-a747-1bd148dff96e"",""projectId"":""0198bbb8-fd11-701d-9147-68794ad37298""}","https://test12345.live/?num_scrambled_semantic=8&num_scrambled_causal=4&num_scrambled_schematic=4&participantId=624E9FCA937149C69D856EA4059E867F&assignmentId=0198bcca-8cc0-717a-a747-1bd148dff96e&projectId=0198bbb8-fd11-701d-9147-68794ad37298","624E9FCA937149C69D856EA4059E867F-2025-08-18-11-40-20","","879","","images/causal_sequence/package_causal/package_causal_ten.png","0","",""
"","","","","","image-button-response","54","1579736","0.0-10.0-1.0-2.9","624E9FCA937149C69D856EA4059E867F","624E9FCA937149C69D856EA4059E867F","0198bcca-8cc0-717a-a747-1bd148dff96e","0198bbb8-fd11-701d-9147-68794ad37298","{""num_scrambled_semantic"":""8"",""num_scrambled_causal"":""4"",""num_scrambled_schematic"":""4"",""participantId"":""624E9FCA937149C69D856EA4059E867F"",""assignmentId"":""0198bcca-8cc0-717a-a747-1bd148dff96e"",""projectId"":""0198bbb8-fd11-701d-9147-68794ad37298""}","https://test12345.live/?num_scrambled_semantic=8&num_scrambled_causal=4&num_scrambled_schematic=4&participantId=624E9FCA937149C69D856EA4059E867F&assignmentId=0198bcca-8cc0-717a-a747-1bd148dff96e&projectId=0198bbb8-fd11-701d-9147-68794ad37298","624E9FCA937149C69D856EA4059E867F-2025-08-18-11-40-20","","null","","[]","null","",""
"","","","","","html-audio-response","55","1637820","0.0-11.0","624E9FCA937149C69D856EA4059E867F","624E9FCA937149C69D856EA4059E867F","0198bcca-8cc0-717a-a747-1bd148dff96e","0198bbb8-fd11-701d-9147-68794ad37298","{""num_scrambled_semantic"":""8"",""num_scrambled_causal"":""4"",""num_scrambled_schematic"":""4"",""participantId"":""624E9FCA937149C69D856EA4059E867F"",""assignmentId"":""0198bcca-8cc0-717a-a747-1bd148dff96e"",""projectId"":""0198bbb8-fd11-701d-9147-68794ad37298""}","https://test12345.live/?num_scrambled_semantic=8&num_scrambled_causal=4&num_scrambled_schematic=4&participantId=624E9FCA937149C69D856EA4059E867F&assignmentId=0198bcca-8cc0-717a-a747-1bd148dff96e&projectId=0198bbb8-fd11-701d-9147-68794ad37298","624E9FCA937149C69D856EA4059E867F-2025-08-18-11-40-20","","47040","","[""<span style=\""color: red; font-size: 24px\""> NOW RECORDING</span><p>Please say out loud all the images you saw, as many as you can remember. The images can be said in any order.</p>""]","","2","package_causal"
"","","","","","image-button-response","56","1643831","0.0-12.0-0.0","624E9FCA937149C69D856EA4059E867F","624E9FCA937149C69D856EA4059E867F","0198bcca-8cc0-717a-a747-1bd148dff96e","0198bbb8-fd11-701d-9147-68794ad37298","{""num_scrambled_semantic"":""8"",""num_scrambled_causal"":""4"",""num_scrambled_schematic"":""4"",""participantId"":""624E9FCA937149C69D856EA4059E867F"",""assignmentId"":""0198bcca-8cc0-717a-a747-1bd148dff96e"",""projectId"":""0198bbb8-fd11-701d-9147-68794ad37298""}","https://test12345.live/?num_scrambled_semantic=8&num_scrambled_causal=4&num_scrambled_schematic=4&participantId=624E9FCA937149C69D856EA4059E867F&assignmentId=0198bcca-8cc0-717a-a747-1bd148dff96e&projectId=0198bbb8-fd11-701d-9147-68794ad37298","624E9FCA937149C69D856EA4059E867F-2025-08-18-11-40-20","","null","","images/semantic_sequence/creative_activities_semantic/creative_activities_semantic_0.png","null","",""
"","","","","","image-button-response","57","1648340","0.0-12.0-1.0-0.0","624E9FCA937149C69D856EA4059E867F","624E9FCA937149C69D856EA4059E867F","0198bcca-8cc0-717a-a747-1bd148dff96e","0198bbb8-fd11-701d-9147-68794ad37298","{""num_scrambled_semantic"":""8"",""num_scrambled_causal"":""4"",""num_scrambled_schematic"":""4"",""participantId"":""624E9FCA937149C69D856EA4059E867F"",""assignmentId"":""0198bcca-8cc0-717a-a747-1bd148dff96e"",""projectId"":""0198bbb8-fd11-701d-9147-68794ad37298""}","https://test12345.live/?num_scrambled_semantic=8&num_scrambled_causal=4&num_scrambled_schematic=4&participantId=624E9FCA937149C69D856EA4059E867F&assignmentId=0198bcca-8cc0-717a-a747-1bd148dff96e&projectId=0198bbb8-fd11-701d-9147-68794ad37298","624E9FCA937149C69D856EA4059E867F-2025-08-18-11-40-20","","null","","images/semantic_sequence/creative_activities_semantic/creative_activities_semantic_3.png","null","",""
"","","","","","image-button-response","58","1649959","0.0-12.0-1.0-1.0","624E9FCA937149C69D856EA4059E867F","624E9FCA937149C69D856EA4059E867F","0198bcca-8cc0-717a-a747-1bd148dff96e","0198bbb8-fd11-701d-9147-68794ad37298","{""num_scrambled_semantic"":""8"",""num_scrambled_causal"":""4"",""num_scrambled_schematic"":""4"",""participantId"":""624E9FCA937149C69D856EA4059E867F"",""assignmentId"":""0198bcca-8cc0-717a-a747-1bd148dff96e"",""projectId"":""0198bbb8-fd11-701d-9147-68794ad37298""}","https://test12345.live/?num_scrambled_semantic=8&num_scrambled_causal=4&num_scrambled_schematic=4&participantId=624E9FCA937149C69D856EA4059E867F&assignmentId=0198bcca-8cc0-717a-a747-1bd148dff96e&projectId=0198bbb8-fd11-701d-9147-68794ad37298","624E9FCA937149C69D856EA4059E867F-2025-08-18-11-40-20","","1617","","images/semantic_sequence/creative_activities_semantic/creative_activities_semantic_3.png","0","",""
"","","","","","image-button-response","59","1660761","0.0-12.0-1.0-2.0","624E9FCA937149C69D856EA4059E867F","624E9FCA937149C69D856EA4059E867F","0198bcca-8cc0-717a-a747-1bd148dff96e","0198bbb8-fd11-701d-9147-68794ad37298","{""num_scrambled_semantic"":""8"",""num_scrambled_causal"":""4"",""num_scrambled_schematic"":""4"",""participantId"":""624E9FCA937149C69D856EA4059E867F"",""assignmentId"":""0198bcca-8cc0-717a-a747-1bd148dff96e"",""projectId"":""0198bbb8-fd11-701d-9147-68794ad37298""}","https://test12345.live/?num_scrambled_semantic=8&num_scrambled_causal=4&num_scrambled_schematic=4&participantId=624E9FCA937149C69D856EA4059E867F&assignmentId=0198bcca-8cc0-717a-a747-1bd148dff96e&projectId=0198bbb8-fd11-701d-9147-68794ad37298","624E9FCA937149C69D856EA4059E867F-2025-08-18-11-40-20","","null","","[]","null","",""
"","","","","","image-button-response","60","1665267","0.0-12.0-1.0-0.1","624E9FCA937149C69D856EA4059E867F","624E9FCA937149C69D856EA4059E867F","0198bcca-8cc0-717a-a747-1bd148dff96e","0198bbb8-fd11-701d-9147-68794ad37298","{""num_scrambled_semantic"":""8"",""num_scrambled_causal"":""4"",""num_scrambled_schematic"":""4"",""participantId"":""624E9FCA937149C69D856EA4059E867F"",""assignmentId"":""0198bcca-8cc0-717a-a747-1bd148dff96e"",""projectId"":""0198bbb8-fd11-701d-9147-68794ad37298""}","https://test12345.live/?num_scrambled_semantic=8&num_scrambled_causal=4&num_scrambled_schematic=4&participantId=624E9FCA937149C69D856EA4059E867F&assignmentId=0198bcca-8cc0-717a-a747-1bd148dff96e&projectId=0198bbb8-fd11-701d-9147-68794ad37298","624E9FCA937149C69D856EA4059E867F-2025-08-18-11-40-20","","null","","images/semantic_sequence/creative_activities_semantic/creative_activities_semantic_5.png","null","",""
"","","","","","image-button-response","61","1666277","0.0-12.0-1.0-1.1","624E9FCA937149C69D856EA4059E867F","624E9FCA937149C69D856EA4059E867F","0198bcca-8cc0-717a-a747-1bd148dff96e","0198bbb8-fd11-701d-9147-68794ad37298","{""num_scrambled_semantic"":""8"",""num_scrambled_causal"":""4"",""num_scrambled_schematic"":""4"",""participantId"":""624E9FCA937149C69D856EA4059E867F"",""assignmentId"":""0198bcca-8cc0-717a-a747-1bd148dff96e"",""projectId"":""0198bbb8-fd11-701d-9147-68794ad37298""}","https://test12345.live/?num_scrambled_semantic=8&num_scrambled_causal=4&num_scrambled_schematic=4&participantId=624E9FCA937149C69D856EA4059E867F&assignmentId=0198bcca-8cc0-717a-a747-1bd148dff96e&projectId=0198bbb8-fd11-701d-9147-68794ad37298","624E9FCA937149C69D856EA4059E867F-2025-08-18-11-40-20","","1006","","images/semantic_sequence/creative_activities_semantic/creative_activities_semantic_5.png","0","",""
"","","","","","image-button-response","62","1677088","0.0-12.0-1.0-2.1","624E9FCA937149C69D856EA4059E867F","624E9FCA937149C69D856EA4059E867F","0198bcca-8cc0-717a-a747-1bd148dff96e","0198bbb8-fd11-701d-9147-68794ad37298","{""num_scrambled_semantic"":""8"",""num_scrambled_causal"":""4"",""num_scrambled_schematic"":""4"",""participantId"":""624E9FCA937149C69D856EA4059E867F"",""assignmentId"":""0198bcca-8cc0-717a-a747-1bd148dff96e"",""projectId"":""0198bbb8-fd11-701d-9147-68794ad37298""}","https://test12345.live/?num_scrambled_semantic=8&num_scrambled_causal=4&num_scrambled_schematic=4&participantId=624E9FCA937149C69D856EA4059E867F&assignmentId=0198bcca-8cc0-717a-a747-1bd148dff96e&projectId=0198bbb8-fd11-701d-9147-68794ad37298","624E9FCA937149C69D856EA4059E867F-2025-08-18-11-40-20","","null","","[]","null","",""
"","","","","","image-button-response","63","1681605","0.0-12.0-1.0-0.2","624E9FCA937149C69D856EA4059E867F","624E9FCA937149C69D856EA4059E867F","0198bcca-8cc0-717a-a747-1bd148dff96e","0198bbb8-fd11-701d-9147-68794ad37298","{""num_scrambled_semantic"":""8"",""num_scrambled_causal"":""4"",""num_scrambled_schematic"":""4"",""participantId"":""624E9FCA937149C69D856EA4059E867F"",""assignmentId"":""0198bcca-8cc0-717a-a747-1bd148dff96e"",""projectId"":""0198bbb8-fd11-701d-9147-68794ad37298""}","https://test12345.live/?num_scrambled_semantic=8&num_scrambled_causal=4&num_scrambled_schematic=4&participantId=624E9FCA937149C69D856EA4059E867F&assignmentId=0198bcca-8cc0-717a-a747-1bd148dff96e&projectId=0198bbb8-fd11-701d-9147-68794ad37298","624E9FCA937149C69D856EA4059E867F-2025-08-18-11-40-20","","null","","images/semantic_sequence/creative_activities_semantic/creative_activities_semantic_8.png","null","",""
"","","","","","image-button-response","64","1682883","0.0-12.0-1.0-1.2","624E9FCA937149C69D856EA4059E867F","624E9FCA937149C69D856EA4059E867F","0198bcca-8cc0-717a-a747-1bd148dff96e","0198bbb8-fd11-701d-9147-68794ad37298","{""num_scrambled_semantic"":""8"",""num_scrambled_causal"":""4"",""num_scrambled_schematic"":""4"",""participantId"":""624E9FCA937149C69D856EA4059E867F"",""assignmentId"":""0198bcca-8cc0-717a-a747-1bd148dff96e"",""projectId"":""0198bbb8-fd11-701d-9147-68794ad37298""}","https://test12345.live/?num_scrambled_semantic=8&num_scrambled_causal=4&num_scrambled_schematic=4&participantId=624E9FCA937149C69D856EA4059E867F&assignmentId=0198bcca-8cc0-717a-a747-1bd148dff96e&projectId=0198bbb8-fd11-701d-9147-68794ad37298","624E9FCA937149C69D856EA4059E867F-2025-08-18-11-40-20","","1276","","images/semantic_sequence/creative_activities_semantic/creative_activities_semantic_8.png","0","",""
"","","","","","image-button-response","65","1693685","0.0-12.0-1.0-2.2","624E9FCA937149C69D856EA4059E867F","624E9FCA937149C69D856EA4059E867F","0198bcca-8cc0-717a-a747-1bd148dff96e","0198bbb8-fd11-701d-9147-68794ad37298","{""num_scrambled_semantic"":""8"",""num_scrambled_causal"":""4"",""num_scrambled_schematic"":""4"",""participantId"":""624E9FCA937149C69D856EA4059E867F"",""assignmentId"":""0198bcca-8cc0-717a-a747-1bd148dff96e"",""projectId"":""0198bbb8-fd11-701d-9147-68794ad37298""}","https://test12345.live/?num_scrambled_semantic=8&num_scrambled_causal=4&num_scrambled_schematic=4&participantId=624E9FCA937149C69D856EA4059E867F&assignmentId=0198bcca-8cc0-717a-a747-1bd148dff96e&projectId=0198bbb8-fd11-701d-9147-68794ad37298","624E9FCA937149C69D856EA4059E867F-2025-08-18-11-40-20","","null","","[]","null","",""
"","","","","","image-button-response","66","1698193","0.0-12.0-1.0-0.3","624E9FCA937149C69D856EA4059E867F","624E9FCA937149C69D856EA4059E867F","0198bcca-8cc0-717a-a747-1bd148dff96e","0198bbb8-fd11-701d-9147-68794ad37298","{""num_scrambled_semantic"":""8"",""num_scrambled_causal"":""4"",""num_scrambled_schematic"":""4"",""participantId"":""624E9FCA937149C69D856EA4059E867F"",""assignmentId"":""0198bcca-8cc0-717a-a747-1bd148dff96e"",""projectId"":""0198bbb8-fd11-701d-9147-68794ad37298""}","https://test12345.live/?num_scrambled_semantic=8&num_scrambled_causal=4&num_scrambled_schematic=4&participantId=624E9FCA937149C69D856EA4059E867F&assignmentId=0198bcca-8cc0-717a-a747-1bd148dff96e&projectId=0198bbb8-fd11-701d-9147-68794ad37298","624E9FCA937149C69D856EA4059E867F-2025-08-18-11-40-20","","null","","images/semantic_sequence/creative_activities_semantic/creative_activities_semantic_1.png","null","",""
"","","","","","image-button-response","67","1699021","0.0-12.0-1.0-1.3","624E9FCA937149C69D856EA4059E867F","624E9FCA937149C69D856EA4059E867F","0198bcca-8cc0-717a-a747-1bd148dff96e","0198bbb8-fd11-701d-9147-68794ad37298","{""num_scrambled_semantic"":""8"",""num_scrambled_causal"":""4"",""num_scrambled_schematic"":""4"",""participantId"":""624E9FCA937149C69D856EA4059E867F"",""assignmentId"":""0198bcca-8cc0-717a-a747-1bd148dff96e"",""projectId"":""0198bbb8-fd11-701d-9147-68794ad37298""}","https://test12345.live/?num_scrambled_semantic=8&num_scrambled_causal=4&num_scrambled_schematic=4&participantId=624E9FCA937149C69D856EA4059E867F&assignmentId=0198bcca-8cc0-717a-a747-1bd148dff96e&projectId=0198bbb8-fd11-701d-9147-68794ad37298","624E9FCA937149C69D856EA4059E867F-2025-08-18-11-40-20","","827","","images/semantic_sequence/creative_activities_semantic/creative_activities_semantic_1.png","0","",""
"","","","","","image-button-response","68","1709823","0.0-12.0-1.0-2.3","624E9FCA937149C69D856EA4059E867F","624E9FCA937149C69D856EA4059E867F","0198bcca-8cc0-717a-a747-1bd148dff96e","0198bbb8-fd11-701d-9147-68794ad37298","{""num_scrambled_semantic"":""8"",""num_scrambled_causal"":""4"",""num_scrambled_schematic"":""4"",""participantId"":""624E9FCA937149C69D856EA4059E867F"",""assignmentId"":""0198bcca-8cc0-717a-a747-1bd148dff96e"",""projectId"":""0198bbb8-fd11-701d-9147-68794ad37298""}","https://test12345.live/?num_scrambled_semantic=8&num_scrambled_causal=4&num_scrambled_schematic=4&participantId=624E9FCA937149C69D856EA4059E867F&assignmentId=0198bcca-8cc0-717a-a747-1bd148dff96e&projectId=0198bbb8-fd11-701d-9147-68794ad37298","624E9FCA937149C69D856EA4059E867F-2025-08-18-11-40-20","","null","","[]","null","",""
"","","","","","image-button-response","69","1714328","0.0-12.0-1.0-0.4","624E9FCA937149C69D856EA4059E867F","624E9FCA937149C69D856EA4059E867F","0198bcca-8cc0-717a-a747-1bd148dff96e","0198bbb8-fd11-701d-9147-68794ad37298","{""num_scrambled_semantic"":""8"",""num_scrambled_causal"":""4"",""num_scrambled_schematic"":""4"",""participantId"":""624E9FCA937149C69D856EA4059E867F"",""assignmentId"":""0198bcca-8cc0-717a-a747-1bd148dff96e"",""projectId"":""0198bbb8-fd11-701d-9147-68794ad37298""}","https://test12345.live/?num_scrambled_semantic=8&num_scrambled_causal=4&num_scrambled_schematic=4&participantId=624E9FCA937149C69D856EA4059E867F&assignmentId=0198bcca-8cc0-717a-a747-1bd148dff96e&projectId=0198bbb8-fd11-701d-9147-68794ad37298","624E9FCA937149C69D856EA4059E867F-2025-08-18-11-40-20","","null","","images/semantic_sequence/creative_activities_semantic/creative_activities_semantic_2.png","null","",""
"","","","","","image-button-response","70","1715688","0.0-12.0-1.0-1.4","624E9FCA937149C69D856EA4059E867F","624E9FCA937149C69D856EA4059E867F","0198bcca-8cc0-717a-a747-1bd148dff96e","0198bbb8-fd11-701d-9147-68794ad37298","{""num_scrambled_semantic"":""8"",""num_scrambled_causal"":""4"",""num_scrambled_schematic"":""4"",""participantId"":""624E9FCA937149C69D856EA4059E867F"",""assignmentId"":""0198bcca-8cc0-717a-a747-1bd148dff96e"",""projectId"":""0198bbb8-fd11-701d-9147-68794ad37298""}","https://test12345.live/?num_scrambled_semantic=8&num_scrambled_causal=4&num_scrambled_schematic=4&participantId=624E9FCA937149C69D856EA4059E867F&assignmentId=0198bcca-8cc0-717a-a747-1bd148dff96e&projectId=0198bbb8-fd11-701d-9147-68794ad37298","624E9FCA937149C69D856EA4059E867F-2025-08-18-11-40-20","","1358","","images/semantic_sequence/creative_activities_semantic/creative_activities_semantic_2.png","0","",""
"","","","","","image-button-response","71","1726495","0.0-12.0-1.0-2.4","624E9FCA937149C69D856EA4059E867F","624E9FCA937149C69D856EA4059E867F","0198bcca-8cc0-717a-a747-1bd148dff96e","0198bbb8-fd11-701d-9147-68794ad37298","{""num_scrambled_semantic"":""8"",""num_scrambled_causal"":""4"",""num_scrambled_schematic"":""4"",""participantId"":""624E9FCA937149C69D856EA4059E867F"",""assignmentId"":""0198bcca-8cc0-717a-a747-1bd148dff96e"",""projectId"":""0198bbb8-fd11-701d-9147-68794ad37298""}","https://test12345.live/?num_scrambled_semantic=8&num_scrambled_causal=4&num_scrambled_schematic=4&participantId=624E9FCA937149C69D856EA4059E867F&assignmentId=0198bcca-8cc0-717a-a747-1bd148dff96e&projectId=0198bbb8-fd11-701d-9147-68794ad37298","624E9FCA937149C69D856EA4059E867F-2025-08-18-11-40-20","","null","","[]","null","",""
"","","","","","image-button-response","72","1731011","0.0-12.0-1.0-0.5","624E9FCA937149C69D856EA4059E867F","624E9FCA937149C69D856EA4059E867F","0198bcca-8cc0-717a-a747-1bd148dff96e","0198bbb8-fd11-701d-9147-68794ad37298","{""num_scrambled_semantic"":""8"",""num_scrambled_causal"":""4"",""num_scrambled_schematic"":""4"",""participantId"":""624E9FCA937149C69D856EA4059E867F"",""assignmentId"":""0198bcca-8cc0-717a-a747-1bd148dff96e"",""projectId"":""0198bbb8-fd11-701d-9147-68794ad37298""}","https://test12345.live/?num_scrambled_semantic=8&num_scrambled_causal=4&num_scrambled_schematic=4&participantId=624E9FCA937149C69D856EA4059E867F&assignmentId=0198bcca-8cc0-717a-a747-1bd148dff96e&projectId=0198bbb8-fd11-701d-9147-68794ad37298","624E9FCA937149C69D856EA4059E867F-2025-08-18-11-40-20","","null","","images/semantic_sequence/creative_activities_semantic/creative_activities_semantic_9.png","null","",""
"","","","","","image-button-response","73","1732326","0.0-12.0-1.0-1.5","624E9FCA937149C69D856EA4059E867F","624E9FCA937149C69D856EA4059E867F","0198bcca-8cc0-717a-a747-1bd148dff96e","0198bbb8-fd11-701d-9147-68794ad37298","{""num_scrambled_semantic"":""8"",""num_scrambled_causal"":""4"",""num_scrambled_schematic"":""4"",""participantId"":""624E9FCA937149C69D856EA4059E867F"",""assignmentId"":""0198bcca-8cc0-717a-a747-1bd148dff96e"",""projectId"":""0198bbb8-fd11-701d-9147-68794ad37298""}","https://test12345.live/?num_scrambled_semantic=8&num_scrambled_causal=4&num_scrambled_schematic=4&participantId=624E9FCA937149C69D856EA4059E867F&assignmentId=0198bcca-8cc0-717a-a747-1bd148dff96e&projectId=0198bbb8-fd11-701d-9147-68794ad37298","624E9FCA937149C69D856EA4059E867F-2025-08-18-11-40-20","","1314","","images/semantic_sequence/creative_activities_semantic/creative_activities_semantic_9.png","0","",""
"","","","","","image-button-response","74","1743133","0.0-12.0-1.0-2.5","624E9FCA937149C69D856EA4059E867F","624E9FCA937149C69D856EA4059E867F","0198bcca-8cc0-717a-a747-1bd148dff96e","0198bbb8-fd11-701d-9147-68794ad37298","{""num_scrambled_semantic"":""8"",""num_scrambled_causal"":""4"",""num_scrambled_schematic"":""4"",""participantId"":""624E9FCA937149C69D856EA4059E867F"",""assignmentId"":""0198bcca-8cc0-717a-a747-1bd148dff96e"",""projectId"":""0198bbb8-fd11-701d-9147-68794ad37298""}","https://test12345.live/?num_scrambled_semantic=8&num_scrambled_causal=4&num_scrambled_schematic=4&participantId=624E9FCA937149C69D856EA4059E867F&assignmentId=0198bcca-8cc0-717a-a747-1bd148dff96e&projectId=0198bbb8-fd11-701d-9147-68794ad37298","624E9FCA937149C69D856EA4059E867F-2025-08-18-11-40-20","","null","","[]","null","",""
"","","","","","image-button-response","75","1747646","0.0-12.0-1.0-0.6","624E9FCA937149C69D856EA4059E867F","624E9FCA937149C69D856EA4059E867F","0198bcca-8cc0-717a-a747-1bd148dff96e","0198bbb8-fd11-701d-9147-68794ad37298","{""num_scrambled_semantic"":""8"",""num_scrambled_causal"":""4"",""num_scrambled_schematic"":""4"",""participantId"":""624E9FCA937149C69D856EA4059E867F"",""assignmentId"":""0198bcca-8cc0-717a-a747-1bd148dff96e"",""projectId"":""0198bbb8-fd11-701d-9147-68794ad37298""}","https://test12345.live/?num_scrambled_semantic=8&num_scrambled_causal=4&num_scrambled_schematic=4&participantId=624E9FCA937149C69D856EA4059E867F&assignmentId=0198bcca-8cc0-717a-a747-1bd148dff96e&projectId=0198bbb8-fd11-701d-9147-68794ad37298","624E9FCA937149C69D856EA4059E867F-2025-08-18-11-40-20","","null","","images/semantic_sequence/creative_activities_semantic/creative_activities_semantic_6.png","null","",""
"","","","","","image-button-response","76","1748455","0.0-12.0-1.0-1.6","624E9FCA937149C69D856EA4059E867F","624E9FCA937149C69D856EA4059E867F","0198bcca-8cc0-717a-a747-1bd148dff96e","0198bbb8-fd11-701d-9147-68794ad37298","{""num_scrambled_semantic"":""8"",""num_scrambled_causal"":""4"",""num_scrambled_schematic"":""4"",""participantId"":""624E9FCA937149C69D856EA4059E867F"",""assignmentId"":""0198bcca-8cc0-717a-a747-1bd148dff96e"",""projectId"":""0198bbb8-fd11-701d-9147-68794ad37298""}","https://test12345.live/?num_scrambled_semantic=8&num_scrambled_causal=4&num_scrambled_schematic=4&participantId=624E9FCA937149C69D856EA4059E867F&assignmentId=0198bcca-8cc0-717a-a747-1bd148dff96e&projectId=0198bbb8-fd11-701d-9147-68794ad37298","624E9FCA937149C69D856EA4059E867F-2025-08-18-11-40-20","","808","","images/semantic_sequence/creative_activities_semantic/creative_activities_semantic_6.png","0","",""
"","","","","","image-button-response","77","1759271","0.0-12.0-1.0-2.6","624E9FCA937149C69D856EA4059E867F","624E9FCA937149C69D856EA4059E867F","0198bcca-8cc0-717a-a747-1bd148dff96e","0198bbb8-fd11-701d-9147-68794ad37298","{""num_scrambled_semantic"":""8"",""num_scrambled_causal"":""4"",""num_scrambled_schematic"":""4"",""participantId"":""624E9FCA937149C69D856EA4059E867F"",""assignmentId"":""0198bcca-8cc0-717a-a747-1bd148dff96e"",""projectId"":""0198bbb8-fd11-701d-9147-68794ad37298""}","https://test12345.live/?num_scrambled_semantic=8&num_scrambled_causal=4&num_scrambled_schematic=4&participantId=624E9FCA937149C69D856EA4059E867F&assignmentId=0198bcca-8cc0-717a-a747-1bd148dff96e&projectId=0198bbb8-fd11-701d-9147-68794ad37298","624E9FCA937149C69D856EA4059E867F-2025-08-18-11-40-20","","null","","[]","null","",""
"","","","","","image-button-response","78","1763776","0.0-12.0-1.0-0.7","624E9FCA937149C69D856EA4059E867F","624E9FCA937149C69D856EA4059E867F","0198bcca-8cc0-717a-a747-1bd148dff96e","0198bbb8-fd11-701d-9147-68794ad37298","{""num_scrambled_semantic"":""8"",""num_scrambled_causal"":""4"",""num_scrambled_schematic"":""4"",""participantId"":""624E9FCA937149C69D856EA4059E867F"",""assignmentId"":""0198bcca-8cc0-717a-a747-1bd148dff96e"",""projectId"":""0198bbb8-fd11-701d-9147-68794ad37298""}","https://test12345.live/?num_scrambled_semantic=8&num_scrambled_causal=4&num_scrambled_schematic=4&participantId=624E9FCA937149C69D856EA4059E867F&assignmentId=0198bcca-8cc0-717a-a747-1bd148dff96e&projectId=0198bbb8-fd11-701d-9147-68794ad37298","624E9FCA937149C69D856EA4059E867F-2025-08-18-11-40-20","","null","","images/semantic_sequence/creative_activities_semantic/creative_activities_semantic_4.png","null","",""
"","","","","","image-button-response","79","1764930","0.0-12.0-1.0-1.7","624E9FCA937149C69D856EA4059E867F","624E9FCA937149C69D856EA4059E867F","0198bcca-8cc0-717a-a747-1bd148dff96e","0198bbb8-fd11-701d-9147-68794ad37298","{""num_scrambled_semantic"":""8"",""num_scrambled_causal"":""4"",""num_scrambled_schematic"":""4"",""participantId"":""624E9FCA937149C69D856EA4059E867F"",""assignmentId"":""0198bcca-8cc0-717a-a747-1bd148dff96e"",""projectId"":""0198bbb8-fd11-701d-9147-68794ad37298""}","https://test12345.live/?num_scrambled_semantic=8&num_scrambled_causal=4&num_scrambled_schematic=4&participantId=624E9FCA937149C69D856EA4059E867F&assignmentId=0198bcca-8cc0-717a-a747-1bd148dff96e&projectId=0198bbb8-fd11-701d-9147-68794ad37298","624E9FCA937149C69D856EA4059E867F-2025-08-18-11-40-20","","1153","","images/semantic_sequence/creative_activities_semantic/creative_activities_semantic_4.png","0","",""
"","","","","","image-button-response","80","1775734","0.0-12.0-1.0-2.7","624E9FCA937149C69D856EA4059E867F","624E9FCA937149C69D856EA4059E867F","0198bcca-8cc0-717a-a747-1bd148dff96e","0198bbb8-fd11-701d-9147-68794ad37298","{""num_scrambled_semantic"":""8"",""num_scrambled_causal"":""4"",""num_scrambled_schematic"":""4"",""participantId"":""624E9FCA937149C69D856EA4059E867F"",""assignmentId"":""0198bcca-8cc0-717a-a747-1bd148dff96e"",""projectId"":""0198bbb8-fd11-701d-9147-68794ad37298""}","https://test12345.live/?num_scrambled_semantic=8&num_scrambled_causal=4&num_scrambled_schematic=4&participantId=624E9FCA937149C69D856EA4059E867F&assignmentId=0198bcca-8cc0-717a-a747-1bd148dff96e&projectId=0198bbb8-fd11-701d-9147-68794ad37298","624E9FCA937149C69D856EA4059E867F-2025-08-18-11-40-20","","null","","[]","null","",""
"","","","","","image-button-response","81","1780242","0.0-12.0-1.0-0.8","624E9FCA937149C69D856EA4059E867F","624E9FCA937149C69D856EA4059E867F","0198bcca-8cc0-717a-a747-1bd148dff96e","0198bbb8-fd11-701d-9147-68794ad37298","{""num_scrambled_semantic"":""8"",""num_scrambled_causal"":""4"",""num_scrambled_schematic"":""4"",""participantId"":""624E9FCA937149C69D856EA4059E867F"",""assignmentId"":""0198bcca-8cc0-717a-a747-1bd148dff96e"",""projectId"":""0198bbb8-fd11-701d-9147-68794ad37298""}","https://test12345.live/?num_scrambled_semantic=8&num_scrambled_causal=4&num_scrambled_schematic=4&participantId=624E9FCA937149C69D856EA4059E867F&assignmentId=0198bcca-8cc0-717a-a747-1bd148dff96e&projectId=0198bbb8-fd11-701d-9147-68794ad37298","624E9FCA937149C69D856EA4059E867F-2025-08-18-11-40-20","","null","","images/semantic_sequence/creative_activities_semantic/creative_activities_semantic_7.png","null","",""
"","","","","","image-button-response","82","1781280","0.0-12.0-1.0-1.8","624E9FCA937149C69D856EA4059E867F","624E9FCA937149C69D856EA4059E867F","0198bcca-8cc0-717a-a747-1bd148dff96e","0198bbb8-fd11-701d-9147-68794ad37298","{""num_scrambled_semantic"":""8"",""num_scrambled_causal"":""4"",""num_scrambled_schematic"":""4"",""participantId"":""624E9FCA937149C69D856EA4059E867F"",""assignmentId"":""0198bcca-8cc0-717a-a747-1bd148dff96e"",""projectId"":""0198bbb8-fd11-701d-9147-68794ad37298""}","https://test12345.live/?num_scrambled_semantic=8&num_scrambled_causal=4&num_scrambled_schematic=4&participantId=624E9FCA937149C69D856EA4059E867F&assignmentId=0198bcca-8cc0-717a-a747-1bd148dff96e&projectId=0198bbb8-fd11-701d-9147-68794ad37298","624E9FCA937149C69D856EA4059E867F-2025-08-18-11-40-20","","1037","","images/semantic_sequence/creative_activities_semantic/creative_activities_semantic_7.png","0","",""
"","","","","","image-button-response","83","1792083","0.0-12.0-1.0-2.8","624E9FCA937149C69D856EA4059E867F","624E9FCA937149C69D856EA4059E867F","0198bcca-8cc0-717a-a747-1bd148dff96e","0198bbb8-fd11-701d-9147-68794ad37298","{""num_scrambled_semantic"":""8"",""num_scrambled_causal"":""4"",""num_scrambled_schematic"":""4"",""participantId"":""624E9FCA937149C69D856EA4059E867F"",""assignmentId"":""0198bcca-8cc0-717a-a747-1bd148dff96e"",""projectId"":""0198bbb8-fd11-701d-9147-68794ad37298""}","https://test12345.live/?num_scrambled_semantic=8&num_scrambled_causal=4&num_scrambled_schematic=4&participantId=624E9FCA937149C69D856EA4059E867F&assignmentId=0198bcca-8cc0-717a-a747-1bd148dff96e&projectId=0198bbb8-fd11-701d-9147-68794ad37298","624E9FCA937149C69D856EA4059E867F-2025-08-18-11-40-20","","null","","[]","null","",""
"","","","","","image-button-response","84","1796586","0.0-12.0-1.0-0.9","624E9FCA937149C69D856EA4059E867F","624E9FCA937149C69D856EA4059E867F","0198bcca-8cc0-717a-a747-1bd148dff96e","0198bbb8-fd11-701d-9147-68794ad37298","{""num_scrambled_semantic"":""8"",""num_scrambled_causal"":""4"",""num_scrambled_schematic"":""4"",""participantId"":""624E9FCA937149C69D856EA4059E867F"",""assignmentId"":""0198bcca-8cc0-717a-a747-1bd148dff96e"",""projectId"":""0198bbb8-fd11-701d-9147-68794ad37298""}","https://test12345.live/?num_scrambled_semantic=8&num_scrambled_causal=4&num_scrambled_schematic=4&participantId=624E9FCA937149C69D856EA4059E867F&assignmentId=0198bcca-8cc0-717a-a747-1bd148dff96e&projectId=0198bbb8-fd11-701d-9147-68794ad37298","624E9FCA937149C69D856EA4059E867F-2025-08-18-11-40-20","","null","","images/semantic_sequence/creative_activities_semantic/creative_activities_semantic_ten.png","null","",""
"","","","","","image-button-response","85","1797464","0.0-12.0-1.0-1.9","624E9FCA937149C69D856EA4059E867F","624E9FCA937149C69D856EA4059E867F","0198bcca-8cc0-717a-a747-1bd148dff96e","0198bbb8-fd11-701d-9147-68794ad37298","{""num_scrambled_semantic"":""8"",""num_scrambled_causal"":""4"",""num_scrambled_schematic"":""4"",""participantId"":""624E9FCA937149C69D856EA4059E867F"",""assignmentId"":""0198bcca-8cc0-717a-a747-1bd148dff96e"",""projectId"":""0198bbb8-fd11-701d-9147-68794ad37298""}","https://test12345.live/?num_scrambled_semantic=8&num_scrambled_causal=4&num_scrambled_schematic=4&participantId=624E9FCA937149C69D856EA4059E867F&assignmentId=0198bcca-8cc0-717a-a747-1bd148dff96e&projectId=0198bbb8-fd11-701d-9147-68794ad37298","624E9FCA937149C69D856EA4059E867F-2025-08-18-11-40-20","","877","","images/semantic_sequence/creative_activities_semantic/creative_activities_semantic_ten.png","0","",""
"","","","","","image-button-response","86","1808265","0.0-12.0-1.0-2.9","624E9FCA937149C69D856EA4059E867F","624E9FCA937149C69D856EA4059E867F","0198bcca-8cc0-717a-a747-1bd148dff96e","0198bbb8-fd11-701d-9147-68794ad37298","{""num_scrambled_semantic"":""8"",""num_scrambled_causal"":""4"",""num_scrambled_schematic"":""4"",""participantId"":""624E9FCA937149C69D856EA4059E867F"",""assignmentId"":""0198bcca-8cc0-717a-a747-1bd148dff96e"",""projectId"":""0198bbb8-fd11-701d-9147-68794ad37298""}","https://test12345.live/?num_scrambled_semantic=8&num_scrambled_causal=4&num_scrambled_schematic=4&participantId=624E9FCA937149C69D856EA4059E867F&assignmentId=0198bcca-8cc0-717a-a747-1bd148dff96e&projectId=0198bbb8-fd11-701d-9147-68794ad37298","624E9FCA937149C69D856EA4059E867F-2025-08-18-11-40-20","","null","","[]","null","",""
"","","","","","html-audio-response","87","1845293","0.0-13.0","624E9FCA937149C69D856EA4059E867F","624E9FCA937149C69D856EA4059E867F","0198bcca-8cc0-717a-a747-1bd148dff96e","0198bbb8-fd11-701d-9147-68794ad37298","{""num_scrambled_semantic"":""8"",""num_scrambled_causal"":""4"",""num_scrambled_schematic"":""4"",""participantId"":""624E9FCA937149C69D856EA4059E867F"",""assignmentId"":""0198bcca-8cc0-717a-a747-1bd148dff96e"",""projectId"":""0198bbb8-fd11-701d-9147-68794ad37298""}","https://test12345.live/?num_scrambled_semantic=8&num_scrambled_causal=4&num_scrambled_schematic=4&participantId=624E9FCA937149C69D856EA4059E867F&assignmentId=0198bcca-8cc0-717a-a747-1bd148dff96e&projectId=0198bbb8-fd11-701d-9147-68794ad37298","624E9FCA937149C69D856EA4059E867F-2025-08-18-11-40-20","","31036","","[""<span style=\""color: red; font-size: 24px\""> NOW RECORDING</span><p>Please say out loud all the images you saw, as many as you can remember. The images can be said in any order.</p>""]","","14","creative_activities_semantic"
"","","","","","image-button-response","88","1851307","0.0-14.0-0.0","624E9FCA937149C69D856EA4059E867F","624E9FCA937149C69D856EA4059E867F","0198bcca-8cc0-717a-a747-1bd148dff96e","0198bbb8-fd11-701d-9147-68794ad37298","{""num_scrambled_semantic"":""8"",""num_scrambled_causal"":""4"",""num_scrambled_schematic"":""4"",""participantId"":""624E9FCA937149C69D856EA4059E867F"",""assignmentId"":""0198bcca-8cc0-717a-a747-1bd148dff96e"",""projectId"":""0198bbb8-fd11-701d-9147-68794ad37298""}","https://test12345.live/?num_scrambled_semantic=8&num_scrambled_causal=4&num_scrambled_schematic=4&participantId=624E9FCA937149C69D856EA4059E867F&assignmentId=0198bcca-8cc0-717a-a747-1bd148dff96e&projectId=0198bbb8-fd11-701d-9147-68794ad37298","624E9FCA937149C69D856EA4059E867F-2025-08-18-11-40-20","","null","","images/causal_sequence/coin_causal/coin_causal_0.png","null","",""
"","","","","","image-button-response","89","1855810","0.0-14.0-1.0-0.0","624E9FCA937149C69D856EA4059E867F","624E9FCA937149C69D856EA4059E867F","0198bcca-8cc0-717a-a747-1bd148dff96e","0198bbb8-fd11-701d-9147-68794ad37298","{""num_scrambled_semantic"":""8"",""num_scrambled_causal"":""4"",""num_scrambled_schematic"":""4"",""participantId"":""624E9FCA937149C69D856EA4059E867F"",""assignmentId"":""0198bcca-8cc0-717a-a747-1bd148dff96e"",""projectId"":""0198bbb8-fd11-701d-9147-68794ad37298""}","https://test12345.live/?num_scrambled_semantic=8&num_scrambled_causal=4&num_scrambled_schematic=4&participantId=624E9FCA937149C69D856EA4059E867F&assignmentId=0198bcca-8cc0-717a-a747-1bd148dff96e&projectId=0198bbb8-fd11-701d-9147-68794ad37298","624E9FCA937149C69D856EA4059E867F-2025-08-18-11-40-20","","null","","images/causal_sequence/coin_causal/coin_causal_4.png","null","",""
"","","","","","image-button-response","90","1857040","0.0-14.0-1.0-1.0","624E9FCA937149C69D856EA4059E867F","624E9FCA937149C69D856EA4059E867F","0198bcca-8cc0-717a-a747-1bd148dff96e","0198bbb8-fd11-701d-9147-68794ad37298","{""num_scrambled_semantic"":""8"",""num_scrambled_causal"":""4"",""num_scrambled_schematic"":""4"",""participantId"":""624E9FCA937149C69D856EA4059E867F"",""assignmentId"":""0198bcca-8cc0-717a-a747-1bd148dff96e"",""projectId"":""0198bbb8-fd11-701d-9147-68794ad37298""}","https://test12345.live/?num_scrambled_semantic=8&num_scrambled_causal=4&num_scrambled_schematic=4&participantId=624E9FCA937149C69D856EA4059E867F&assignmentId=0198bcca-8cc0-717a-a747-1bd148dff96e&projectId=0198bbb8-fd11-701d-9147-68794ad37298","624E9FCA937149C69D856EA4059E867F-2025-08-18-11-40-20","","1229","","images/causal_sequence/coin_causal/coin_causal_4.png","0","",""
"","","","","","image-button-response","91","1867854","0.0-14.0-1.0-2.0","624E9FCA937149C69D856EA4059E867F","624E9FCA937149C69D856EA4059E867F","0198bcca-8cc0-717a-a747-1bd148dff96e","0198bbb8-fd11-701d-9147-68794ad37298","{""num_scrambled_semantic"":""8"",""num_scrambled_causal"":""4"",""num_scrambled_schematic"":""4"",""participantId"":""624E9FCA937149C69D856EA4059E867F"",""assignmentId"":""0198bcca-8cc0-717a-a747-1bd148dff96e"",""projectId"":""0198bbb8-fd11-701d-9147-68794ad37298""}","https://test12345.live/?num_scrambled_semantic=8&num_scrambled_causal=4&num_scrambled_schematic=4&participantId=624E9FCA937149C69D856EA4059E867F&assignmentId=0198bcca-8cc0-717a-a747-1bd148dff96e&projectId=0198bbb8-fd11-701d-9147-68794ad37298","624E9FCA937149C69D856EA4059E867F-2025-08-18-11-40-20","","null","","[]","null","",""
"","","","","","image-button-response","92","1872361","0.0-14.0-1.0-0.1","624E9FCA937149C69D856EA4059E867F","624E9FCA937149C69D856EA4059E867F","0198bcca-8cc0-717a-a747-1bd148dff96e","0198bbb8-fd11-701d-9147-68794ad37298","{""num_scrambled_semantic"":""8"",""num_scrambled_causal"":""4"",""num_scrambled_schematic"":""4"",""participantId"":""624E9FCA937149C69D856EA4059E867F"",""assignmentId"":""0198bcca-8cc0-717a-a747-1bd148dff96e"",""projectId"":""0198bbb8-fd11-701d-9147-68794ad37298""}","https://test12345.live/?num_scrambled_semantic=8&num_scrambled_causal=4&num_scrambled_schematic=4&participantId=624E9FCA937149C69D856EA4059E867F&assignmentId=0198bcca-8cc0-717a-a747-1bd148dff96e&projectId=0198bbb8-fd11-701d-9147-68794ad37298","624E9FCA937149C69D856EA4059E867F-2025-08-18-11-40-20","","null","","images/causal_sequence/coin_causal/coin_causal_1.png","null","",""
"","","","","","image-button-response","93","1873258","0.0-14.0-1.0-1.1","624E9FCA937149C69D856EA4059E867F","624E9FCA937149C69D856EA4059E867F","0198bcca-8cc0-717a-a747-1bd148dff96e","0198bbb8-fd11-701d-9147-68794ad37298","{""num_scrambled_semantic"":""8"",""num_scrambled_causal"":""4"",""num_scrambled_schematic"":""4"",""participantId"":""624E9FCA937149C69D856EA4059E867F"",""assignmentId"":""0198bcca-8cc0-717a-a747-1bd148dff96e"",""projectId"":""0198bbb8-fd11-701d-9147-68794ad37298""}","https://test12345.live/?num_scrambled_semantic=8&num_scrambled_causal=4&num_scrambled_schematic=4&participantId=624E9FCA937149C69D856EA4059E867F&assignmentId=0198bcca-8cc0-717a-a747-1bd148dff96e&projectId=0198bbb8-fd11-701d-9147-68794ad37298","624E9FCA937149C69D856EA4059E867F-2025-08-18-11-40-20","","896","","images/causal_sequence/coin_causal/coin_causal_1.png","0","",""
"","","","","","image-button-response","94","1884068","0.0-14.0-1.0-2.1","624E9FCA937149C69D856EA4059E867F","624E9FCA937149C69D856EA4059E867F","0198bcca-8cc0-717a-a747-1bd148dff96e","0198bbb8-fd11-701d-9147-68794ad37298","{""num_scrambled_semantic"":""8"",""num_scrambled_causal"":""4"",""num_scrambled_schematic"":""4"",""participantId"":""624E9FCA937149C69D856EA4059E867F"",""assignmentId"":""0198bcca-8cc0-717a-a747-1bd148dff96e"",""projectId"":""0198bbb8-fd11-701d-9147-68794ad37298""}","https://test12345.live/?num_scrambled_semantic=8&num_scrambled_causal=4&num_scrambled_schematic=4&participantId=624E9FCA937149C69D856EA4059E867F&assignmentId=0198bcca-8cc0-717a-a747-1bd148dff96e&projectId=0198bbb8-fd11-701d-9147-68794ad37298","624E9FCA937149C69D856EA4059E867F-2025-08-18-11-40-20","","null","","[]","null","",""
"","","","","","image-button-response","95","1888583","0.0-14.0-1.0-0.2","624E9FCA937149C69D856EA4059E867F","624E9FCA937149C69D856EA4059E867F","0198bcca-8cc0-717a-a747-1bd148dff96e","0198bbb8-fd11-701d-9147-68794ad37298","{""num_scrambled_semantic"":""8"",""num_scrambled_causal"":""4"",""num_scrambled_schematic"":""4"",""participantId"":""624E9FCA937149C69D856EA4059E867F"",""assignmentId"":""0198bcca-8cc0-717a-a747-1bd148dff96e"",""projectId"":""0198bbb8-fd11-701d-9147-68794ad37298""}","https://test12345.live/?num_scrambled_semantic=8&num_scrambled_causal=4&num_scrambled_schematic=4&participantId=624E9FCA937149C69D856EA4059E867F&assignmentId=0198bcca-8cc0-717a-a747-1bd148dff96e&projectId=0198bbb8-fd11-701d-9147-68794ad37298","624E9FCA937149C69D856EA4059E867F-2025-08-18-11-40-20","","null","","images/causal_sequence/coin_causal/coin_causal_3.png","null","",""
"","","","","","image-button-response","96","1889405","0.0-14.0-1.0-1.2","624E9FCA937149C69D856EA4059E867F","624E9FCA937149C69D856EA4059E867F","0198bcca-8cc0-717a-a747-1bd148dff96e","0198bbb8-fd11-701d-9147-68794ad37298","{""num_scrambled_semantic"":""8"",""num_scrambled_causal"":""4"",""num_scrambled_schematic"":""4"",""participantId"":""624E9FCA937149C69D856EA4059E867F"",""assignmentId"":""0198bcca-8cc0-717a-a747-1bd148dff96e"",""projectId"":""0198bbb8-fd11-701d-9147-68794ad37298""}","https://test12345.live/?num_scrambled_semantic=8&num_scrambled_causal=4&num_scrambled_schematic=4&participantId=624E9FCA937149C69D856EA4059E867F&assignmentId=0198bcca-8cc0-717a-a747-1bd148dff96e&projectId=0198bbb8-fd11-701d-9147-68794ad37298","624E9FCA937149C69D856EA4059E867F-2025-08-18-11-40-20","","820","","images/causal_sequence/coin_causal/coin_causal_3.png","0","",""
"","","","","","image-button-response","97","1900212","0.0-14.0-1.0-2.2","624E9FCA937149C69D856EA4059E867F","624E9FCA937149C69D856EA4059E867F","0198bcca-8cc0-717a-a747-1bd148dff96e","0198bbb8-fd11-701d-9147-68794ad37298","{""num_scrambled_semantic"":""8"",""num_scrambled_causal"":""4"",""num_scrambled_schematic"":""4"",""participantId"":""624E9FCA937149C69D856EA4059E867F"",""assignmentId"":""0198bcca-8cc0-717a-a747-1bd148dff96e"",""projectId"":""0198bbb8-fd11-701d-9147-68794ad37298""}","https://test12345.live/?num_scrambled_semantic=8&num_scrambled_causal=4&num_scrambled_schematic=4&participantId=624E9FCA937149C69D856EA4059E867F&assignmentId=0198bcca-8cc0-717a-a747-1bd148dff96e&projectId=0198bbb8-fd11-701d-9147-68794ad37298","624E9FCA937149C69D856EA4059E867F-2025-08-18-11-40-20","","null","","[]","null","",""
"","","","","","image-button-response","98","1904716","0.0-14.0-1.0-0.3","624E9FCA937149C69D856EA4059E867F","624E9FCA937149C69D856EA4059E867F","0198bcca-8cc0-717a-a747-1bd148dff96e","0198bbb8-fd11-701d-9147-68794ad37298","{""num_scrambled_semantic"":""8"",""num_scrambled_causal"":""4"",""num_scrambled_schematic"":""4"",""participantId"":""624E9FCA937149C69D856EA4059E867F"",""assignmentId"":""0198bcca-8cc0-717a-a747-1bd148dff96e"",""projectId"":""0198bbb8-fd11-701d-9147-68794ad37298""}","https://test12345.live/?num_scrambled_semantic=8&num_scrambled_causal=4&num_scrambled_schematic=4&participantId=624E9FCA937149C69D856EA4059E867F&assignmentId=0198bcca-8cc0-717a-a747-1bd148dff96e&projectId=0198bbb8-fd11-701d-9147-68794ad37298","624E9FCA937149C69D856EA4059E867F-2025-08-18-11-40-20","","null","","images/causal_sequence/coin_causal/coin_causal_2.png","null","",""
"","","","","","image-button-response","99","1905902","0.0-14.0-1.0-1.3","624E9FCA937149C69D856EA4059E867F","624E9FCA937149C69D856EA4059E867F","0198bcca-8cc0-717a-a747-1bd148dff96e","0198bbb8-fd11-701d-9147-68794ad37298","{""num_scrambled_semantic"":""8"",""num_scrambled_causal"":""4"",""num_scrambled_schematic"":""4"",""participantId"":""624E9FCA937149C69D856EA4059E867F"",""assignmentId"":""0198bcca-8cc0-717a-a747-1bd148dff96e"",""projectId"":""0198bbb8-fd11-701d-9147-68794ad37298""}","https://test12345.live/?num_scrambled_semantic=8&num_scrambled_causal=4&num_scrambled_schematic=4&participantId=624E9FCA937149C69D856EA4059E867F&assignmentId=0198bcca-8cc0-717a-a747-1bd148dff96e&projectId=0198bbb8-fd11-701d-9147-68794ad37298","624E9FCA937149C69D856EA4059E867F-2025-08-18-11-40-20","","1184","","images/causal_sequence/coin_causal/coin_causal_2.png","0","",""
"","","","","","image-button-response","100","1916705","0.0-14.0-1.0-2.3","624E9FCA937149C69D856EA4059E867F","624E9FCA937149C69D856EA4059E867F","0198bcca-8cc0-717a-a747-1bd148dff96e","0198bbb8-fd11-701d-9147-68794ad37298","{""num_scrambled_semantic"":""8"",""num_scrambled_causal"":""4"",""num_scrambled_schematic"":""4"",""participantId"":""624E9FCA937149C69D856EA4059E867F"",""assignmentId"":""0198bcca-8cc0-717a-a747-1bd148dff96e"",""projectId"":""0198bbb8-fd11-701d-9147-68794ad37298""}","https://test12345.live/?num_scrambled_semantic=8&num_scrambled_causal=4&num_scrambled_schematic=4&participantId=624E9FCA937149C69D856EA4059E867F&assignmentId=0198bcca-8cc0-717a-a747-1bd148dff96e&projectId=0198bbb8-fd11-701d-9147-68794ad37298","624E9FCA937149C69D856EA4059E867F-2025-08-18-11-40-20","","null","","[]","null","",""
"","","","","","image-button-response","101","1921213","0.0-14.0-1.0-0.4","624E9FCA937149C69D856EA4059E867F","624E9FCA937149C69D856EA4059E867F","0198bcca-8cc0-717a-a747-1bd148dff96e","0198bbb8-fd11-701d-9147-68794ad37298","{""num_scrambled_semantic"":""8"",""num_scrambled_causal"":""4"",""num_scrambled_schematic"":""4"",""participantId"":""624E9FCA937149C69D856EA4059E867F"",""assignmentId"":""0198bcca-8cc0-717a-a747-1bd148dff96e"",""projectId"":""0198bbb8-fd11-701d-9147-68794ad37298""}","https://test12345.live/?num_scrambled_semantic=8&num_scrambled_causal=4&num_scrambled_schematic=4&participantId=624E9FCA937149C69D856EA4059E867F&assignmentId=0198bcca-8cc0-717a-a747-1bd148dff96e&projectId=0198bbb8-fd11-701d-9147-68794ad37298","624E9FCA937149C69D856EA4059E867F-2025-08-18-11-40-20","","null","","images/causal_sequence/coin_causal/coin_causal_9.png","null","",""
"","","","","","image-button-response","102","1922089","0.0-14.0-1.0-1.4","624E9FCA937149C69D856EA4059E867F","624E9FCA937149C69D856EA4059E867F","0198bcca-8cc0-717a-a747-1bd148dff96e","0198bbb8-fd11-701d-9147-68794ad37298","{""num_scrambled_semantic"":""8"",""num_scrambled_causal"":""4"",""num_scrambled_schematic"":""4"",""participantId"":""624E9FCA937149C69D856EA4059E867F"",""assignmentId"":""0198bcca-8cc0-717a-a747-1bd148dff96e"",""projectId"":""0198bbb8-fd11-701d-9147-68794ad37298""}","https://test12345.live/?num_scrambled_semantic=8&num_scrambled_causal=4&num_scrambled_schematic=4&participantId=624E9FCA937149C69D856EA4059E867F&assignmentId=0198bcca-8cc0-717a-a747-1bd148dff96e&projectId=0198bbb8-fd11-701d-9147-68794ad37298","624E9FCA937149C69D856EA4059E867F-2025-08-18-11-40-20","","875","","images/causal_sequence/coin_causal/coin_causal_9.png","0","",""
"","","","","","image-button-response","103","1932894","0.0-14.0-1.0-2.4","624E9FCA937149C69D856EA4059E867F","624E9FCA937149C69D856EA4059E867F","0198bcca-8cc0-717a-a747-1bd148dff96e","0198bbb8-fd11-701d-9147-68794ad37298","{""num_scrambled_semantic"":""8"",""num_scrambled_causal"":""4"",""num_scrambled_schematic"":""4"",""participantId"":""624E9FCA937149C69D856EA4059E867F"",""assignmentId"":""0198bcca-8cc0-717a-a747-1bd148dff96e"",""projectId"":""0198bbb8-fd11-701d-9147-68794ad37298""}","https://test12345.live/?num_scrambled_semantic=8&num_scrambled_causal=4&num_scrambled_schematic=4&participantId=624E9FCA937149C69D856EA4059E867F&assignmentId=0198bcca-8cc0-717a-a747-1bd148dff96e&projectId=0198bbb8-fd11-701d-9147-68794ad37298","624E9FCA937149C69D856EA4059E867F-2025-08-18-11-40-20","","null","","[]","null","",""
"","","","","","image-button-response","104","1937405","0.0-14.0-1.0-0.5","624E9FCA937149C69D856EA4059E867F","624E9FCA937149C69D856EA4059E867F","0198bcca-8cc0-717a-a747-1bd148dff96e","0198bbb8-fd11-701d-9147-68794ad37298","{""num_scrambled_semantic"":""8"",""num_scrambled_causal"":""4"",""num_scrambled_schematic"":""4"",""participantId"":""624E9FCA937149C69D856EA4059E867F"",""assignmentId"":""0198bcca-8cc0-717a-a747-1bd148dff96e"",""projectId"":""0198bbb8-fd11-701d-9147-68794ad37298""}","https://test12345.live/?num_scrambled_semantic=8&num_scrambled_causal=4&num_scrambled_schematic=4&participantId=624E9FCA937149C69D856EA4059E867F&assignmentId=0198bcca-8cc0-717a-a747-1bd148dff96e&projectId=0198bbb8-fd11-701d-9147-68794ad37298","624E9FCA937149C69D856EA4059E867F-2025-08-18-11-40-20","","null","","images/causal_sequence/coin_causal/coin_causal_5.png","null","",""
"","","","","","image-button-response","105","1938339","0.0-14.0-1.0-1.5","624E9FCA937149C69D856EA4059E867F","624E9FCA937149C69D856EA4059E867F","0198bcca-8cc0-717a-a747-1bd148dff96e","0198bbb8-fd11-701d-9147-68794ad37298","{""num_scrambled_semantic"":""8"",""num_scrambled_causal"":""4"",""num_scrambled_schematic"":""4"",""participantId"":""624E9FCA937149C69D856EA4059E867F"",""assignmentId"":""0198bcca-8cc0-717a-a747-1bd148dff96e"",""projectId"":""0198bbb8-fd11-701d-9147-68794ad37298""}","https://test12345.live/?num_scrambled_semantic=8&num_scrambled_causal=4&num_scrambled_schematic=4&participantId=624E9FCA937149C69D856EA4059E867F&assignmentId=0198bcca-8cc0-717a-a747-1bd148dff96e&projectId=0198bbb8-fd11-701d-9147-68794ad37298","624E9FCA937149C69D856EA4059E867F-2025-08-18-11-40-20","","932","","images/causal_sequence/coin_causal/coin_causal_5.png","0","",""
"","","","","","image-button-response","106","1949140","0.0-14.0-1.0-2.5","624E9FCA937149C69D856EA4059E867F","624E9FCA937149C69D856EA4059E867F","0198bcca-8cc0-717a-a747-1bd148dff96e","0198bbb8-fd11-701d-9147-68794ad37298","{""num_scrambled_semantic"":""8"",""num_scrambled_causal"":""4"",""num_scrambled_schematic"":""4"",""participantId"":""624E9FCA937149C69D856EA4059E867F"",""assignmentId"":""0198bcca-8cc0-717a-a747-1bd148dff96e"",""projectId"":""0198bbb8-fd11-701d-9147-68794ad37298""}","https://test12345.live/?num_scrambled_semantic=8&num_scrambled_causal=4&num_scrambled_schematic=4&participantId=624E9FCA937149C69D856EA4059E867F&assignmentId=0198bcca-8cc0-717a-a747-1bd148dff96e&projectId=0198bbb8-fd11-701d-9147-68794ad37298","624E9FCA937149C69D856EA4059E867F-2025-08-18-11-40-20","","null","","[]","null","",""
"","","","","","image-button-response","107","1953652","0.0-14.0-1.0-0.6","624E9FCA937149C69D856EA4059E867F","624E9FCA937149C69D856EA4059E867F","0198bcca-8cc0-717a-a747-1bd148dff96e","0198bbb8-fd11-701d-9147-68794ad37298","{""num_scrambled_semantic"":""8"",""num_scrambled_causal"":""4"",""num_scrambled_schematic"":""4"",""participantId"":""624E9FCA937149C69D856EA4059E867F"",""assignmentId"":""0198bcca-8cc0-717a-a747-1bd148dff96e"",""projectId"":""0198bbb8-fd11-701d-9147-68794ad37298""}","https://test12345.live/?num_scrambled_semantic=8&num_scrambled_causal=4&num_scrambled_schematic=4&participantId=624E9FCA937149C69D856EA4059E867F&assignmentId=0198bcca-8cc0-717a-a747-1bd148dff96e&projectId=0198bbb8-fd11-701d-9147-68794ad37298","624E9FCA937149C69D856EA4059E867F-2025-08-18-11-40-20","","null","","images/causal_sequence/coin_causal/coin_causal_8.png","null","",""
"","","","","","image-button-response","108","1955406","0.0-14.0-1.0-1.6","624E9FCA937149C69D856EA4059E867F","624E9FCA937149C69D856EA4059E867F","0198bcca-8cc0-717a-a747-1bd148dff96e","0198bbb8-fd11-701d-9147-68794ad37298","{""num_scrambled_semantic"":""8"",""num_scrambled_causal"":""4"",""num_scrambled_schematic"":""4"",""participantId"":""624E9FCA937149C69D856EA4059E867F"",""assignmentId"":""0198bcca-8cc0-717a-a747-1bd148dff96e"",""projectId"":""0198bbb8-fd11-701d-9147-68794ad37298""}","https://test12345.live/?num_scrambled_semantic=8&num_scrambled_causal=4&num_scrambled_schematic=4&participantId=624E9FCA937149C69D856EA4059E867F&assignmentId=0198bcca-8cc0-717a-a747-1bd148dff96e&projectId=0198bbb8-fd11-701d-9147-68794ad37298","624E9FCA937149C69D856EA4059E867F-2025-08-18-11-40-20","","1752","","images/causal_sequence/coin_causal/coin_causal_8.png","0","",""
"","","","","","image-button-response","109","1966210","0.0-14.0-1.0-2.6","624E9FCA937149C69D856EA4059E867F","624E9FCA937149C69D856EA4059E867F","0198bcca-8cc0-717a-a747-1bd148dff96e","0198bbb8-fd11-701d-9147-68794ad37298","{""num_scrambled_semantic"":""8"",""num_scrambled_causal"":""4"",""num_scrambled_schematic"":""4"",""participantId"":""624E9FCA937149C69D856EA4059E867F"",""assignmentId"":""0198bcca-8cc0-717a-a747-1bd148dff96e"",""projectId"":""0198bbb8-fd11-701d-9147-68794ad37298""}","https://test12345.live/?num_scrambled_semantic=8&num_scrambled_causal=4&num_scrambled_schematic=4&participantId=624E9FCA937149C69D856EA4059E867F&assignmentId=0198bcca-8cc0-717a-a747-1bd148dff96e&projectId=0198bbb8-fd11-701d-9147-68794ad37298","624E9FCA937149C69D856EA4059E867F-2025-08-18-11-40-20","","null","","[]","null","",""
"","","","","","image-button-response","110","1970724","0.0-14.0-1.0-0.7","624E9FCA937149C69D856EA4059E867F","624E9FCA937149C69D856EA4059E867F","0198bcca-8cc0-717a-a747-1bd148dff96e","0198bbb8-fd11-701d-9147-68794ad37298","{""num_scrambled_semantic"":""8"",""num_scrambled_causal"":""4"",""num_scrambled_schematic"":""4"",""participantId"":""624E9FCA937149C69D856EA4059E867F"",""assignmentId"":""0198bcca-8cc0-717a-a747-1bd148dff96e"",""projectId"":""0198bbb8-fd11-701d-9147-68794ad37298""}","https://test12345.live/?num_scrambled_semantic=8&num_scrambled_causal=4&num_scrambled_schematic=4&participantId=624E9FCA937149C69D856EA4059E867F&assignmentId=0198bcca-8cc0-717a-a747-1bd148dff96e&projectId=0198bbb8-fd11-701d-9147-68794ad37298","624E9FCA937149C69D856EA4059E867F-2025-08-18-11-40-20","","null","","images/causal_sequence/coin_causal/coin_causal_6.png","null","",""
"","","","","","image-button-response","111","1971484","0.0-14.0-1.0-1.7","624E9FCA937149C69D856EA4059E867F","624E9FCA937149C69D856EA4059E867F","0198bcca-8cc0-717a-a747-1bd148dff96e","0198bbb8-fd11-701d-9147-68794ad37298","{""num_scrambled_semantic"":""8"",""num_scrambled_causal"":""4"",""num_scrambled_schematic"":""4"",""participantId"":""624E9FCA937149C69D856EA4059E867F"",""assignmentId"":""0198bcca-8cc0-717a-a747-1bd148dff96e"",""projectId"":""0198bbb8-fd11-701d-9147-68794ad37298""}","https://test12345.live/?num_scrambled_semantic=8&num_scrambled_causal=4&num_scrambled_schematic=4&participantId=624E9FCA937149C69D856EA4059E867F&assignmentId=0198bcca-8cc0-717a-a747-1bd148dff96e&projectId=0198bbb8-fd11-701d-9147-68794ad37298","624E9FCA937149C69D856EA4059E867F-2025-08-18-11-40-20","","759","","images/causal_sequence/coin_causal/coin_causal_6.png","0","",""
"","","","","","image-button-response","112","1982293","0.0-14.0-1.0-2.7","624E9FCA937149C69D856EA4059E867F","624E9FCA937149C69D856EA4059E867F","0198bcca-8cc0-717a-a747-1bd148dff96e","0198bbb8-fd11-701d-9147-68794ad37298","{""num_scrambled_semantic"":""8"",""num_scrambled_causal"":""4"",""num_scrambled_schematic"":""4"",""participantId"":""624E9FCA937149C69D856EA4059E867F"",""assignmentId"":""0198bcca-8cc0-717a-a747-1bd148dff96e"",""projectId"":""0198bbb8-fd11-701d-9147-68794ad37298""}","https://test12345.live/?num_scrambled_semantic=8&num_scrambled_causal=4&num_scrambled_schematic=4&participantId=624E9FCA937149C69D856EA4059E867F&assignmentId=0198bcca-8cc0-717a-a747-1bd148dff96e&projectId=0198bbb8-fd11-701d-9147-68794ad37298","624E9FCA937149C69D856EA4059E867F-2025-08-18-11-40-20","","null","","[]","null","",""
"","","","","","image-button-response","113","1986794","0.0-14.0-1.0-0.8","624E9FCA937149C69D856EA4059E867F","624E9FCA937149C69D856EA4059E867F","0198bcca-8cc0-717a-a747-1bd148dff96e","0198bbb8-fd11-701d-9147-68794ad37298","{""num_scrambled_semantic"":""8"",""num_scrambled_causal"":""4"",""num_scrambled_schematic"":""4"",""participantId"":""624E9FCA937149C69D856EA4059E867F"",""assignmentId"":""0198bcca-8cc0-717a-a747-1bd148dff96e"",""projectId"":""0198bbb8-fd11-701d-9147-68794ad37298""}","https://test12345.live/?num_scrambled_semantic=8&num_scrambled_causal=4&num_scrambled_schematic=4&participantId=624E9FCA937149C69D856EA4059E867F&assignmentId=0198bcca-8cc0-717a-a747-1bd148dff96e&projectId=0198bbb8-fd11-701d-9147-68794ad37298","624E9FCA937149C69D856EA4059E867F-2025-08-18-11-40-20","","null","","images/causal_sequence/coin_causal/coin_causal_7.png","null","",""
"","","","","","image-button-response","114","1987592","0.0-14.0-1.0-1.8","624E9FCA937149C69D856EA4059E867F","624E9FCA937149C69D856EA4059E867F","0198bcca-8cc0-717a-a747-1bd148dff96e","0198bbb8-fd11-701d-9147-68794ad37298","{""num_scrambled_semantic"":""8"",""num_scrambled_causal"":""4"",""num_scrambled_schematic"":""4"",""participantId"":""624E9FCA937149C69D856EA4059E867F"",""assignmentId"":""0198bcca-8cc0-717a-a747-1bd148dff96e"",""projectId"":""0198bbb8-fd11-701d-9147-68794ad37298""}","https://test12345.live/?num_scrambled_semantic=8&num_scrambled_causal=4&num_scrambled_schematic=4&participantId=624E9FCA937149C69D856EA4059E867F&assignmentId=0198bcca-8cc0-717a-a747-1bd148dff96e&projectId=0198bbb8-fd11-701d-9147-68794ad37298","624E9FCA937149C69D856EA4059E867F-2025-08-18-11-40-20","","797","","images/causal_sequence/coin_causal/coin_causal_7.png","1","",""
