"success","timeout","failed_images","failed_audio","failed_video","trial_type","trial_index","time_elapsed","internal_node_id","subject","subject_id","study_id","session_id","urlvar","current_url","audio_id","view_history","rt","device_id","stimulus","response","estimated_stimulus_onset","seq_name"
"true","false","[]","[]","[]","preload","0","11962","0.0-0.0","626CC3D0137A4648BAFDDC3CD29B6885","626CC3D0137A4648BAFDDC3CD29B6885","0198b9f2-327b-7821-a471-3a57838bf399","0198b9d0-29d4-7df3-8625-4b4515841beb","{""num_scrambled_semantic"":""8"",""num_scrambled_causal"":""4"",""num_scrambled_schematic"":""4"",""participantId"":""626CC3D0137A4648BAFDDC3CD29B6885"",""assignmentId"":""0198b9f2-327b-7821-a471-3a57838bf399"",""projectId"":""0198b9d0-29d4-7df3-8625-4b4515841beb""}","https://test12345.live/?num_scrambled_semantic=8&num_scrambled_causal=4&num_scrambled_schematic=4&participantId=626CC3D0137A4648BAFDDC3CD29B6885&assignmentId=0198b9f2-327b-7821-a471-3a57838bf399&projectId=0198b9d0-29d4-7df3-8625-4b4515841beb","626CC3D0137A4648BAFDDC3CD29B6885-2025-08-17-22-12-16","","","","","","",""
"","","","","","instructions","1","44247","0.0-1.0","626CC3D0137A4648BAFDDC3CD29B6885","626CC3D0137A4648BAFDDC3CD29B6885","0198b9f2-327b-7821-a471-3a57838bf399","0198b9d0-29d4-7df3-8625-4b4515841beb","{""num_scrambled_semantic"":""8"",""num_scrambled_causal"":""4"",""num_scrambled_schematic"":""4"",""participantId"":""626CC3D0137A4648BAFDDC3CD29B6885"",""assignmentId"":""0198b9f2-327b-7821-a471-3a57838bf399"",""projectId"":""0198b9d0-29d4-7df3-8625-4b4515841beb""}","https://test12345.live/?num_scrambled_semantic=8&num_scrambled_causal=4&num_scrambled_schematic=4&participantId=626CC3D0137A4648BAFDDC3CD29B6885&assignmentId=0198b9f2-327b-7821-a471-3a57838bf399&projectId=0198b9d0-29d4-7df3-8625-4b4515841beb","626CC3D0137A4648BAFDDC3CD29B6885-2025-08-17-22-12-16","[{""page_index"":0,""viewing_time"":32281}]","32282","","","","",""
"","","","","","instructions","2","57299","0.0-2.0","626CC3D0137A4648BAFDDC3CD29B6885","626CC3D0137A4648BAFDDC3CD29B6885","0198b9f2-327b-7821-a471-3a57838bf399","0198b9d0-29d4-7df3-8625-4b4515841beb","{""num_scrambled_semantic"":""8"",""num_scrambled_causal"":""4"",""num_scrambled_schematic"":""4"",""participantId"":""626CC3D0137A4648BAFDDC3CD29B6885"",""assignmentId"":""0198b9f2-327b-7821-a471-3a57838bf399"",""projectId"":""0198b9d0-29d4-7df3-8625-4b4515841beb""}","https://test12345.live/?num_scrambled_semantic=8&num_scrambled_causal=4&num_scrambled_schematic=4&participantId=626CC3D0137A4648BAFDDC3CD29B6885&assignmentId=0198b9f2-327b-7821-a471-3a57838bf399&projectId=0198b9d0-29d4-7df3-8625-4b4515841beb","626CC3D0137A4648BAFDDC3CD29B6885-2025-08-17-22-12-16","[{""page_index"":0,""viewing_time"":13050}]","13051","","","","",""
"true","","","","","fullscreen","3","61149","0.0-3.0","626CC3D0137A4648BAFDDC3CD29B6885","626CC3D0137A4648BAFDDC3CD29B6885","0198b9f2-327b-7821-a471-3a57838bf399","0198b9d0-29d4-7df3-8625-4b4515841beb","{""num_scrambled_semantic"":""8"",""num_scrambled_causal"":""4"",""num_scrambled_schematic"":""4"",""participantId"":""626CC3D0137A4648BAFDDC3CD29B6885"",""assignmentId"":""0198b9f2-327b-7821-a471-3a57838bf399"",""projectId"":""0198b9d0-29d4-7df3-8625-4b4515841beb""}","https://test12345.live/?num_scrambled_semantic=8&num_scrambled_causal=4&num_scrambled_schematic=4&participantId=626CC3D0137A4648BAFDDC3CD29B6885&assignmentId=0198b9f2-327b-7821-a471-3a57838bf399&projectId=0198b9d0-29d4-7df3-8625-4b4515841beb","626CC3D0137A4648BAFDDC3CD29B6885-2025-08-17-22-12-16","","2841","","","","",""
"","","","","","initialize-microphone","4","172255","0.0-4.0-0.0","626CC3D0137A4648BAFDDC3CD29B6885","626CC3D0137A4648BAFDDC3CD29B6885","0198b9f2-327b-7821-a471-3a57838bf399","0198b9d0-29d4-7df3-8625-4b4515841beb","{""num_scrambled_semantic"":""8"",""num_scrambled_causal"":""4"",""num_scrambled_schematic"":""4"",""participantId"":""626CC3D0137A4648BAFDDC3CD29B6885"",""assignmentId"":""0198b9f2-327b-7821-a471-3a57838bf399"",""projectId"":""0198b9d0-29d4-7df3-8625-4b4515841beb""}","https://test12345.live/?num_scrambled_semantic=8&num_scrambled_causal=4&num_scrambled_schematic=4&participantId=626CC3D0137A4648BAFDDC3CD29B6885&assignmentId=0198b9f2-327b-7821-a471-3a57838bf399&projectId=0198b9d0-29d4-7df3-8625-4b4515841beb","626CC3D0137A4648BAFDDC3CD29B6885-2025-08-17-22-12-16","","","4192595810e8d6172034ff16fd16bbd2c1183c363df73f66e658d8dfb5ec9b38","","","",""
"","","","","","html-audio-response","5","195379","0.0-4.0-1.0","626CC3D0137A4648BAFDDC3CD29B6885","626CC3D0137A4648BAFDDC3CD29B6885","0198b9f2-327b-7821-a471-3a57838bf399","0198b9d0-29d4-7df3-8625-4b4515841beb","{""num_scrambled_semantic"":""8"",""num_scrambled_causal"":""4"",""num_scrambled_schematic"":""4"",""participantId"":""626CC3D0137A4648BAFDDC3CD29B6885"",""assignmentId"":""0198b9f2-327b-7821-a471-3a57838bf399"",""projectId"":""0198b9d0-29d4-7df3-8625-4b4515841beb""}","https://test12345.live/?num_scrambled_semantic=8&num_scrambled_causal=4&num_scrambled_schematic=4&participantId=626CC3D0137A4648BAFDDC3CD29B6885&assignmentId=0198b9f2-327b-7821-a471-3a57838bf399&projectId=0198b9d0-29d4-7df3-8625-4b4515841beb","626CC3D0137A4648BAFDDC3CD29B6885-2025-08-17-22-12-16","","8447","","<span style=""color: red; font-size: 24px""> NOW RECORDING</span>
        <p>Please test Microphone</p>","","9",""
"","","","","","html-button-response","6","197824","0.0-4.0-2.0","626CC3D0137A4648BAFDDC3CD29B6885","626CC3D0137A4648BAFDDC3CD29B6885","0198b9f2-327b-7821-a471-3a57838bf399","0198b9d0-29d4-7df3-8625-4b4515841beb","{""num_scrambled_semantic"":""8"",""num_scrambled_causal"":""4"",""num_scrambled_schematic"":""4"",""participantId"":""626CC3D0137A4648BAFDDC3CD29B6885"",""assignmentId"":""0198b9f2-327b-7821-a471-3a57838bf399"",""projectId"":""0198b9d0-29d4-7df3-8625-4b4515841beb""}","https://test12345.live/?num_scrambled_semantic=8&num_scrambled_causal=4&num_scrambled_schematic=4&participantId=626CC3D0137A4648BAFDDC3CD29B6885&assignmentId=0198b9f2-327b-7821-a471-3a57838bf399&projectId=0198b9d0-29d4-7df3-8625-4b4515841beb","626CC3D0137A4648BAFDDC3CD29B6885-2025-08-17-22-12-16","","2441","","<p style=""font-size:48px; color:red;"">Is Microphone OK?</p>","1","",""
"","","","","","instructions","7","218192","0.0-5.0","626CC3D0137A4648BAFDDC3CD29B6885","626CC3D0137A4648BAFDDC3CD29B6885","0198b9f2-327b-7821-a471-3a57838bf399","0198b9d0-29d4-7df3-8625-4b4515841beb","{""num_scrambled_semantic"":""8"",""num_scrambled_causal"":""4"",""num_scrambled_schematic"":""4"",""participantId"":""626CC3D0137A4648BAFDDC3CD29B6885"",""assignmentId"":""0198b9f2-327b-7821-a471-3a57838bf399"",""projectId"":""0198b9d0-29d4-7df3-8625-4b4515841beb""}","https://test12345.live/?num_scrambled_semantic=8&num_scrambled_causal=4&num_scrambled_schematic=4&participantId=626CC3D0137A4648BAFDDC3CD29B6885&assignmentId=0198b9f2-327b-7821-a471-3a57838bf399&projectId=0198b9d0-29d4-7df3-8625-4b4515841beb","626CC3D0137A4648BAFDDC3CD29B6885-2025-08-17-22-12-16","[{""page_index"":0,""viewing_time"":12217},{""page_index"":1,""viewing_time"":8150}]","20367","","","","",""
"","","","","","image-button-response","8","224219","0.0-6.0-0.0","626CC3D0137A4648BAFDDC3CD29B6885","626CC3D0137A4648BAFDDC3CD29B6885","0198b9f2-327b-7821-a471-3a57838bf399","0198b9d0-29d4-7df3-8625-4b4515841beb","{""num_scrambled_semantic"":""8"",""num_scrambled_causal"":""4"",""num_scrambled_schematic"":""4"",""participantId"":""626CC3D0137A4648BAFDDC3CD29B6885"",""assignmentId"":""0198b9f2-327b-7821-a471-3a57838bf399"",""projectId"":""0198b9d0-29d4-7df3-8625-4b4515841beb""}","https://test12345.live/?num_scrambled_semantic=8&num_scrambled_causal=4&num_scrambled_schematic=4&participantId=626CC3D0137A4648BAFDDC3CD29B6885&assignmentId=0198b9f2-327b-7821-a471-3a57838bf399&projectId=0198b9d0-29d4-7df3-8625-4b4515841beb","626CC3D0137A4648BAFDDC3CD29B6885-2025-08-17-22-12-16","","null","","images/instructions/movie_0.png","null","",""
"","","","","","image-button-response","9","228722","0.0-6.0-1.0-0.0","626CC3D0137A4648BAFDDC3CD29B6885","626CC3D0137A4648BAFDDC3CD29B6885","0198b9f2-327b-7821-a471-3a57838bf399","0198b9d0-29d4-7df3-8625-4b4515841beb","{""num_scrambled_semantic"":""8"",""num_scrambled_causal"":""4"",""num_scrambled_schematic"":""4"",""participantId"":""626CC3D0137A4648BAFDDC3CD29B6885"",""assignmentId"":""0198b9f2-327b-7821-a471-3a57838bf399"",""projectId"":""0198b9d0-29d4-7df3-8625-4b4515841beb""}","https://test12345.live/?num_scrambled_semantic=8&num_scrambled_causal=4&num_scrambled_schematic=4&participantId=626CC3D0137A4648BAFDDC3CD29B6885&assignmentId=0198b9f2-327b-7821-a471-3a57838bf399&projectId=0198b9d0-29d4-7df3-8625-4b4515841beb","626CC3D0137A4648BAFDDC3CD29B6885-2025-08-17-22-12-16","","null","","images/instructions/movie_1.png","null","",""
"","","","","","image-button-response","10","232324","0.0-6.0-1.0-1.0","626CC3D0137A4648BAFDDC3CD29B6885","626CC3D0137A4648BAFDDC3CD29B6885","0198b9f2-327b-7821-a471-3a57838bf399","0198b9d0-29d4-7df3-8625-4b4515841beb","{""num_scrambled_semantic"":""8"",""num_scrambled_causal"":""4"",""num_scrambled_schematic"":""4"",""participantId"":""626CC3D0137A4648BAFDDC3CD29B6885"",""assignmentId"":""0198b9f2-327b-7821-a471-3a57838bf399"",""projectId"":""0198b9d0-29d4-7df3-8625-4b4515841beb""}","https://test12345.live/?num_scrambled_semantic=8&num_scrambled_causal=4&num_scrambled_schematic=4&participantId=626CC3D0137A4648BAFDDC3CD29B6885&assignmentId=0198b9f2-327b-7821-a471-3a57838bf399&projectId=0198b9d0-29d4-7df3-8625-4b4515841beb","626CC3D0137A4648BAFDDC3CD29B6885-2025-08-17-22-12-16","","3600","","images/instructions/movie_1.png","0","",""
"","","","","","image-button-response","11","237728","0.0-6.0-1.0-2.0","626CC3D0137A4648BAFDDC3CD29B6885","626CC3D0137A4648BAFDDC3CD29B6885","0198b9f2-327b-7821-a471-3a57838bf399","0198b9d0-29d4-7df3-8625-4b4515841beb","{""num_scrambled_semantic"":""8"",""num_scrambled_causal"":""4"",""num_scrambled_schematic"":""4"",""participantId"":""626CC3D0137A4648BAFDDC3CD29B6885"",""assignmentId"":""0198b9f2-327b-7821-a471-3a57838bf399"",""projectId"":""0198b9d0-29d4-7df3-8625-4b4515841beb""}","https://test12345.live/?num_scrambled_semantic=8&num_scrambled_causal=4&num_scrambled_schematic=4&participantId=626CC3D0137A4648BAFDDC3CD29B6885&assignmentId=0198b9f2-327b-7821-a471-3a57838bf399&projectId=0198b9d0-29d4-7df3-8625-4b4515841beb","626CC3D0137A4648BAFDDC3CD29B6885-2025-08-17-22-12-16","","null","","[]","null","",""
"","","","","","image-button-response","12","242238","0.0-6.0-1.0-0.1","626CC3D0137A4648BAFDDC3CD29B6885","626CC3D0137A4648BAFDDC3CD29B6885","0198b9f2-327b-7821-a471-3a57838bf399","0198b9d0-29d4-7df3-8625-4b4515841beb","{""num_scrambled_semantic"":""8"",""num_scrambled_causal"":""4"",""num_scrambled_schematic"":""4"",""participantId"":""626CC3D0137A4648BAFDDC3CD29B6885"",""assignmentId"":""0198b9f2-327b-7821-a471-3a57838bf399"",""projectId"":""0198b9d0-29d4-7df3-8625-4b4515841beb""}","https://test12345.live/?num_scrambled_semantic=8&num_scrambled_causal=4&num_scrambled_schematic=4&participantId=626CC3D0137A4648BAFDDC3CD29B6885&assignmentId=0198b9f2-327b-7821-a471-3a57838bf399&projectId=0198b9d0-29d4-7df3-8625-4b4515841beb","626CC3D0137A4648BAFDDC3CD29B6885-2025-08-17-22-12-16","","null","","images/instructions/movie_2.png","null","",""
"","","","","","image-button-response","13","244226","0.0-6.0-1.0-1.1","626CC3D0137A4648BAFDDC3CD29B6885","626CC3D0137A4648BAFDDC3CD29B6885","0198b9f2-327b-7821-a471-3a57838bf399","0198b9d0-29d4-7df3-8625-4b4515841beb","{""num_scrambled_semantic"":""8"",""num_scrambled_causal"":""4"",""num_scrambled_schematic"":""4"",""participantId"":""626CC3D0137A4648BAFDDC3CD29B6885"",""assignmentId"":""0198b9f2-327b-7821-a471-3a57838bf399"",""projectId"":""0198b9d0-29d4-7df3-8625-4b4515841beb""}","https://test12345.live/?num_scrambled_semantic=8&num_scrambled_causal=4&num_scrambled_schematic=4&participantId=626CC3D0137A4648BAFDDC3CD29B6885&assignmentId=0198b9f2-327b-7821-a471-3a57838bf399&projectId=0198b9d0-29d4-7df3-8625-4b4515841beb","626CC3D0137A4648BAFDDC3CD29B6885-2025-08-17-22-12-16","","1986","","images/instructions/movie_2.png","0","",""
"","","","","","image-button-response","14","249631","0.0-6.0-1.0-2.1","626CC3D0137A4648BAFDDC3CD29B6885","626CC3D0137A4648BAFDDC3CD29B6885","0198b9f2-327b-7821-a471-3a57838bf399","0198b9d0-29d4-7df3-8625-4b4515841beb","{""num_scrambled_semantic"":""8"",""num_scrambled_causal"":""4"",""num_scrambled_schematic"":""4"",""participantId"":""626CC3D0137A4648BAFDDC3CD29B6885"",""assignmentId"":""0198b9f2-327b-7821-a471-3a57838bf399"",""projectId"":""0198b9d0-29d4-7df3-8625-4b4515841beb""}","https://test12345.live/?num_scrambled_semantic=8&num_scrambled_causal=4&num_scrambled_schematic=4&participantId=626CC3D0137A4648BAFDDC3CD29B6885&assignmentId=0198b9f2-327b-7821-a471-3a57838bf399&projectId=0198b9d0-29d4-7df3-8625-4b4515841beb","626CC3D0137A4648BAFDDC3CD29B6885-2025-08-17-22-12-16","","null","","[]","null","",""
"","","","","","image-button-response","15","254139","0.0-6.0-1.0-0.2","626CC3D0137A4648BAFDDC3CD29B6885","626CC3D0137A4648BAFDDC3CD29B6885","0198b9f2-327b-7821-a471-3a57838bf399","0198b9d0-29d4-7df3-8625-4b4515841beb","{""num_scrambled_semantic"":""8"",""num_scrambled_causal"":""4"",""num_scrambled_schematic"":""4"",""participantId"":""626CC3D0137A4648BAFDDC3CD29B6885"",""assignmentId"":""0198b9f2-327b-7821-a471-3a57838bf399"",""projectId"":""0198b9d0-29d4-7df3-8625-4b4515841beb""}","https://test12345.live/?num_scrambled_semantic=8&num_scrambled_causal=4&num_scrambled_schematic=4&participantId=626CC3D0137A4648BAFDDC3CD29B6885&assignmentId=0198b9f2-327b-7821-a471-3a57838bf399&projectId=0198b9d0-29d4-7df3-8625-4b4515841beb","626CC3D0137A4648BAFDDC3CD29B6885-2025-08-17-22-12-16","","null","","images/instructions/movie_3.png","null","",""
"","","","","","image-button-response","16","256729","0.0-6.0-1.0-1.2","626CC3D0137A4648BAFDDC3CD29B6885","626CC3D0137A4648BAFDDC3CD29B6885","0198b9f2-327b-7821-a471-3a57838bf399","0198b9d0-29d4-7df3-8625-4b4515841beb","{""num_scrambled_semantic"":""8"",""num_scrambled_causal"":""4"",""num_scrambled_schematic"":""4"",""participantId"":""626CC3D0137A4648BAFDDC3CD29B6885"",""assignmentId"":""0198b9f2-327b-7821-a471-3a57838bf399"",""projectId"":""0198b9d0-29d4-7df3-8625-4b4515841beb""}","https://test12345.live/?num_scrambled_semantic=8&num_scrambled_causal=4&num_scrambled_schematic=4&participantId=626CC3D0137A4648BAFDDC3CD29B6885&assignmentId=0198b9f2-327b-7821-a471-3a57838bf399&projectId=0198b9d0-29d4-7df3-8625-4b4515841beb","626CC3D0137A4648BAFDDC3CD29B6885-2025-08-17-22-12-16","","2589","","images/instructions/movie_3.png","0","",""
"","","","","","image-button-response","17","262138","0.0-6.0-1.0-2.2","626CC3D0137A4648BAFDDC3CD29B6885","626CC3D0137A4648BAFDDC3CD29B6885","0198b9f2-327b-7821-a471-3a57838bf399","0198b9d0-29d4-7df3-8625-4b4515841beb","{""num_scrambled_semantic"":""8"",""num_scrambled_causal"":""4"",""num_scrambled_schematic"":""4"",""participantId"":""626CC3D0137A4648BAFDDC3CD29B6885"",""assignmentId"":""0198b9f2-327b-7821-a471-3a57838bf399"",""projectId"":""0198b9d0-29d4-7df3-8625-4b4515841beb""}","https://test12345.live/?num_scrambled_semantic=8&num_scrambled_causal=4&num_scrambled_schematic=4&participantId=626CC3D0137A4648BAFDDC3CD29B6885&assignmentId=0198b9f2-327b-7821-a471-3a57838bf399&projectId=0198b9d0-29d4-7df3-8625-4b4515841beb","626CC3D0137A4648BAFDDC3CD29B6885-2025-08-17-22-12-16","","null","","[]","null","",""
"","","","","","image-button-response","18","266640","0.0-6.0-1.0-0.3","626CC3D0137A4648BAFDDC3CD29B6885","626CC3D0137A4648BAFDDC3CD29B6885","0198b9f2-327b-7821-a471-3a57838bf399","0198b9d0-29d4-7df3-8625-4b4515841beb","{""num_scrambled_semantic"":""8"",""num_scrambled_causal"":""4"",""num_scrambled_schematic"":""4"",""participantId"":""626CC3D0137A4648BAFDDC3CD29B6885"",""assignmentId"":""0198b9f2-327b-7821-a471-3a57838bf399"",""projectId"":""0198b9d0-29d4-7df3-8625-4b4515841beb""}","https://test12345.live/?num_scrambled_semantic=8&num_scrambled_causal=4&num_scrambled_schematic=4&participantId=626CC3D0137A4648BAFDDC3CD29B6885&assignmentId=0198b9f2-327b-7821-a471-3a57838bf399&projectId=0198b9d0-29d4-7df3-8625-4b4515841beb","626CC3D0137A4648BAFDDC3CD29B6885-2025-08-17-22-12-16","","null","","images/instructions/movie_4.png","null","",""
"","","","","","image-button-response","19","267865","0.0-6.0-1.0-1.3","626CC3D0137A4648BAFDDC3CD29B6885","626CC3D0137A4648BAFDDC3CD29B6885","0198b9f2-327b-7821-a471-3a57838bf399","0198b9d0-29d4-7df3-8625-4b4515841beb","{""num_scrambled_semantic"":""8"",""num_scrambled_causal"":""4"",""num_scrambled_schematic"":""4"",""participantId"":""626CC3D0137A4648BAFDDC3CD29B6885"",""assignmentId"":""0198b9f2-327b-7821-a471-3a57838bf399"",""projectId"":""0198b9d0-29d4-7df3-8625-4b4515841beb""}","https://test12345.live/?num_scrambled_semantic=8&num_scrambled_causal=4&num_scrambled_schematic=4&participantId=626CC3D0137A4648BAFDDC3CD29B6885&assignmentId=0198b9f2-327b-7821-a471-3a57838bf399&projectId=0198b9d0-29d4-7df3-8625-4b4515841beb","626CC3D0137A4648BAFDDC3CD29B6885-2025-08-17-22-12-16","","1222","","images/instructions/movie_4.png","0","",""
"","","","","","image-button-response","20","273280","0.0-6.0-1.0-2.3","626CC3D0137A4648BAFDDC3CD29B6885","626CC3D0137A4648BAFDDC3CD29B6885","0198b9f2-327b-7821-a471-3a57838bf399","0198b9d0-29d4-7df3-8625-4b4515841beb","{""num_scrambled_semantic"":""8"",""num_scrambled_causal"":""4"",""num_scrambled_schematic"":""4"",""participantId"":""626CC3D0137A4648BAFDDC3CD29B6885"",""assignmentId"":""0198b9f2-327b-7821-a471-3a57838bf399"",""projectId"":""0198b9d0-29d4-7df3-8625-4b4515841beb""}","https://test12345.live/?num_scrambled_semantic=8&num_scrambled_causal=4&num_scrambled_schematic=4&participantId=626CC3D0137A4648BAFDDC3CD29B6885&assignmentId=0198b9f2-327b-7821-a471-3a57838bf399&projectId=0198b9d0-29d4-7df3-8625-4b4515841beb","626CC3D0137A4648BAFDDC3CD29B6885-2025-08-17-22-12-16","","null","","[]","null","",""
"","","","","","instructions","21","282445","0.0-7.0","626CC3D0137A4648BAFDDC3CD29B6885","626CC3D0137A4648BAFDDC3CD29B6885","0198b9f2-327b-7821-a471-3a57838bf399","0198b9d0-29d4-7df3-8625-4b4515841beb","{""num_scrambled_semantic"":""8"",""num_scrambled_causal"":""4"",""num_scrambled_schematic"":""4"",""participantId"":""626CC3D0137A4648BAFDDC3CD29B6885"",""assignmentId"":""0198b9f2-327b-7821-a471-3a57838bf399"",""projectId"":""0198b9d0-29d4-7df3-8625-4b4515841beb""}","https://test12345.live/?num_scrambled_semantic=8&num_scrambled_causal=4&num_scrambled_schematic=4&participantId=626CC3D0137A4648BAFDDC3CD29B6885&assignmentId=0198b9f2-327b-7821-a471-3a57838bf399&projectId=0198b9d0-29d4-7df3-8625-4b4515841beb","626CC3D0137A4648BAFDDC3CD29B6885-2025-08-17-22-12-16","[{""page_index"":0,""viewing_time"":7455},{""page_index"":1,""viewing_time"":1709}]","9164","","","","",""
"","","","","","html-audio-response","22","331796","0.0-8.0","626CC3D0137A4648BAFDDC3CD29B6885","626CC3D0137A4648BAFDDC3CD29B6885","0198b9f2-327b-7821-a471-3a57838bf399","0198b9d0-29d4-7df3-8625-4b4515841beb","{""num_scrambled_semantic"":""8"",""num_scrambled_causal"":""4"",""num_scrambled_schematic"":""4"",""participantId"":""626CC3D0137A4648BAFDDC3CD29B6885"",""assignmentId"":""0198b9f2-327b-7821-a471-3a57838bf399"",""projectId"":""0198b9d0-29d4-7df3-8625-4b4515841beb""}","https://test12345.live/?num_scrambled_semantic=8&num_scrambled_causal=4&num_scrambled_schematic=4&participantId=626CC3D0137A4648BAFDDC3CD29B6885&assignmentId=0198b9f2-327b-7821-a471-3a57838bf399&projectId=0198b9d0-29d4-7df3-8625-4b4515841beb","626CC3D0137A4648BAFDDC3CD29B6885-2025-08-17-22-12-16","","13283","","[""<span style=\""color: red; font-size: 24px\""> NOW RECORDING</span><p>Please say out loud all the images you saw, as many as you can remember. The images can be said in any order.</p>""]","","2",""
"","","","","","instructions","23","334602","0.0-9.0","626CC3D0137A4648BAFDDC3CD29B6885","626CC3D0137A4648BAFDDC3CD29B6885","0198b9f2-327b-7821-a471-3a57838bf399","0198b9d0-29d4-7df3-8625-4b4515841beb","{""num_scrambled_semantic"":""8"",""num_scrambled_causal"":""4"",""num_scrambled_schematic"":""4"",""participantId"":""626CC3D0137A4648BAFDDC3CD29B6885"",""assignmentId"":""0198b9f2-327b-7821-a471-3a57838bf399"",""projectId"":""0198b9d0-29d4-7df3-8625-4b4515841beb""}","https://test12345.live/?num_scrambled_semantic=8&num_scrambled_causal=4&num_scrambled_schematic=4&participantId=626CC3D0137A4648BAFDDC3CD29B6885&assignmentId=0198b9f2-327b-7821-a471-3a57838bf399&projectId=0198b9d0-29d4-7df3-8625-4b4515841beb","626CC3D0137A4648BAFDDC3CD29B6885-2025-08-17-22-12-16","[{""page_index"":0,""viewing_time"":2796}]","2796","","","","",""
"","","","","","image-button-response","24","340615","0.0-10.0-0.0","626CC3D0137A4648BAFDDC3CD29B6885","626CC3D0137A4648BAFDDC3CD29B6885","0198b9f2-327b-7821-a471-3a57838bf399","0198b9d0-29d4-7df3-8625-4b4515841beb","{""num_scrambled_semantic"":""8"",""num_scrambled_causal"":""4"",""num_scrambled_schematic"":""4"",""participantId"":""626CC3D0137A4648BAFDDC3CD29B6885"",""assignmentId"":""0198b9f2-327b-7821-a471-3a57838bf399"",""projectId"":""0198b9d0-29d4-7df3-8625-4b4515841beb""}","https://test12345.live/?num_scrambled_semantic=8&num_scrambled_causal=4&num_scrambled_schematic=4&participantId=626CC3D0137A4648BAFDDC3CD29B6885&assignmentId=0198b9f2-327b-7821-a471-3a57838bf399&projectId=0198b9d0-29d4-7df3-8625-4b4515841beb","626CC3D0137A4648BAFDDC3CD29B6885-2025-08-17-22-12-16","","null","","images/causal_sequence/coin_causal/coin_causal_0.png","null","",""
"","","","","","image-button-response","25","345131","0.0-10.0-1.0-0.0","626CC3D0137A4648BAFDDC3CD29B6885","626CC3D0137A4648BAFDDC3CD29B6885","0198b9f2-327b-7821-a471-3a57838bf399","0198b9d0-29d4-7df3-8625-4b4515841beb","{""num_scrambled_semantic"":""8"",""num_scrambled_causal"":""4"",""num_scrambled_schematic"":""4"",""participantId"":""626CC3D0137A4648BAFDDC3CD29B6885"",""assignmentId"":""0198b9f2-327b-7821-a471-3a57838bf399"",""projectId"":""0198b9d0-29d4-7df3-8625-4b4515841beb""}","https://test12345.live/?num_scrambled_semantic=8&num_scrambled_causal=4&num_scrambled_schematic=4&participantId=626CC3D0137A4648BAFDDC3CD29B6885&assignmentId=0198b9f2-327b-7821-a471-3a57838bf399&projectId=0198b9d0-29d4-7df3-8625-4b4515841beb","626CC3D0137A4648BAFDDC3CD29B6885-2025-08-17-22-12-16","","null","","images/causal_sequence/coin_causal/coin_causal_1.png","null","",""
"","","","","","image-button-response","26","349023","0.0-10.0-1.0-1.0","626CC3D0137A4648BAFDDC3CD29B6885","626CC3D0137A4648BAFDDC3CD29B6885","0198b9f2-327b-7821-a471-3a57838bf399","0198b9d0-29d4-7df3-8625-4b4515841beb","{""num_scrambled_semantic"":""8"",""num_scrambled_causal"":""4"",""num_scrambled_schematic"":""4"",""participantId"":""626CC3D0137A4648BAFDDC3CD29B6885"",""assignmentId"":""0198b9f2-327b-7821-a471-3a57838bf399"",""projectId"":""0198b9d0-29d4-7df3-8625-4b4515841beb""}","https://test12345.live/?num_scrambled_semantic=8&num_scrambled_causal=4&num_scrambled_schematic=4&participantId=626CC3D0137A4648BAFDDC3CD29B6885&assignmentId=0198b9f2-327b-7821-a471-3a57838bf399&projectId=0198b9d0-29d4-7df3-8625-4b4515841beb","626CC3D0137A4648BAFDDC3CD29B6885-2025-08-17-22-12-16","","3889","","images/causal_sequence/coin_causal/coin_causal_1.png","0","",""
"","","","","","image-button-response","27","354439","0.0-10.0-1.0-2.0","626CC3D0137A4648BAFDDC3CD29B6885","626CC3D0137A4648BAFDDC3CD29B6885","0198b9f2-327b-7821-a471-3a57838bf399","0198b9d0-29d4-7df3-8625-4b4515841beb","{""num_scrambled_semantic"":""8"",""num_scrambled_causal"":""4"",""num_scrambled_schematic"":""4"",""participantId"":""626CC3D0137A4648BAFDDC3CD29B6885"",""assignmentId"":""0198b9f2-327b-7821-a471-3a57838bf399"",""projectId"":""0198b9d0-29d4-7df3-8625-4b4515841beb""}","https://test12345.live/?num_scrambled_semantic=8&num_scrambled_causal=4&num_scrambled_schematic=4&participantId=626CC3D0137A4648BAFDDC3CD29B6885&assignmentId=0198b9f2-327b-7821-a471-3a57838bf399&projectId=0198b9d0-29d4-7df3-8625-4b4515841beb","626CC3D0137A4648BAFDDC3CD29B6885-2025-08-17-22-12-16","","null","","[]","null","",""
"","","","","","image-button-response","28","358944","0.0-10.0-1.0-0.1","626CC3D0137A4648BAFDDC3CD29B6885","626CC3D0137A4648BAFDDC3CD29B6885","0198b9f2-327b-7821-a471-3a57838bf399","0198b9d0-29d4-7df3-8625-4b4515841beb","{""num_scrambled_semantic"":""8"",""num_scrambled_causal"":""4"",""num_scrambled_schematic"":""4"",""participantId"":""626CC3D0137A4648BAFDDC3CD29B6885"",""assignmentId"":""0198b9f2-327b-7821-a471-3a57838bf399"",""projectId"":""0198b9d0-29d4-7df3-8625-4b4515841beb""}","https://test12345.live/?num_scrambled_semantic=8&num_scrambled_causal=4&num_scrambled_schematic=4&participantId=626CC3D0137A4648BAFDDC3CD29B6885&assignmentId=0198b9f2-327b-7821-a471-3a57838bf399&projectId=0198b9d0-29d4-7df3-8625-4b4515841beb","626CC3D0137A4648BAFDDC3CD29B6885-2025-08-17-22-12-16","","null","","images/causal_sequence/coin_causal/coin_causal_2.png","null","",""
"","","","","","image-button-response","29","360370","0.0-10.0-1.0-1.1","626CC3D0137A4648BAFDDC3CD29B6885","626CC3D0137A4648BAFDDC3CD29B6885","0198b9f2-327b-7821-a471-3a57838bf399","0198b9d0-29d4-7df3-8625-4b4515841beb","{""num_scrambled_semantic"":""8"",""num_scrambled_causal"":""4"",""num_scrambled_schematic"":""4"",""participantId"":""626CC3D0137A4648BAFDDC3CD29B6885"",""assignmentId"":""0198b9f2-327b-7821-a471-3a57838bf399"",""projectId"":""0198b9d0-29d4-7df3-8625-4b4515841beb""}","https://test12345.live/?num_scrambled_semantic=8&num_scrambled_causal=4&num_scrambled_schematic=4&participantId=626CC3D0137A4648BAFDDC3CD29B6885&assignmentId=0198b9f2-327b-7821-a471-3a57838bf399&projectId=0198b9d0-29d4-7df3-8625-4b4515841beb","626CC3D0137A4648BAFDDC3CD29B6885-2025-08-17-22-12-16","","1424","","images/causal_sequence/coin_causal/coin_causal_2.png","0","",""
"","","","","","image-button-response","30","365777","0.0-10.0-1.0-2.1","626CC3D0137A4648BAFDDC3CD29B6885","626CC3D0137A4648BAFDDC3CD29B6885","0198b9f2-327b-7821-a471-3a57838bf399","0198b9d0-29d4-7df3-8625-4b4515841beb","{""num_scrambled_semantic"":""8"",""num_scrambled_causal"":""4"",""num_scrambled_schematic"":""4"",""participantId"":""626CC3D0137A4648BAFDDC3CD29B6885"",""assignmentId"":""0198b9f2-327b-7821-a471-3a57838bf399"",""projectId"":""0198b9d0-29d4-7df3-8625-4b4515841beb""}","https://test12345.live/?num_scrambled_semantic=8&num_scrambled_causal=4&num_scrambled_schematic=4&participantId=626CC3D0137A4648BAFDDC3CD29B6885&assignmentId=0198b9f2-327b-7821-a471-3a57838bf399&projectId=0198b9d0-29d4-7df3-8625-4b4515841beb","626CC3D0137A4648BAFDDC3CD29B6885-2025-08-17-22-12-16","","null","","[]","null","",""
"","","","","","image-button-response","31","370286","0.0-10.0-1.0-0.2","626CC3D0137A4648BAFDDC3CD29B6885","626CC3D0137A4648BAFDDC3CD29B6885","0198b9f2-327b-7821-a471-3a57838bf399","0198b9d0-29d4-7df3-8625-4b4515841beb","{""num_scrambled_semantic"":""8"",""num_scrambled_causal"":""4"",""num_scrambled_schematic"":""4"",""participantId"":""626CC3D0137A4648BAFDDC3CD29B6885"",""assignmentId"":""0198b9f2-327b-7821-a471-3a57838bf399"",""projectId"":""0198b9d0-29d4-7df3-8625-4b4515841beb""}","https://test12345.live/?num_scrambled_semantic=8&num_scrambled_causal=4&num_scrambled_schematic=4&participantId=626CC3D0137A4648BAFDDC3CD29B6885&assignmentId=0198b9f2-327b-7821-a471-3a57838bf399&projectId=0198b9d0-29d4-7df3-8625-4b4515841beb","626CC3D0137A4648BAFDDC3CD29B6885-2025-08-17-22-12-16","","null","","images/causal_sequence/coin_causal/coin_causal_3.png","null","",""
"","","","","","image-button-response","32","371562","0.0-10.0-1.0-1.2","626CC3D0137A4648BAFDDC3CD29B6885","626CC3D0137A4648BAFDDC3CD29B6885","0198b9f2-327b-7821-a471-3a57838bf399","0198b9d0-29d4-7df3-8625-4b4515841beb","{""num_scrambled_semantic"":""8"",""num_scrambled_causal"":""4"",""num_scrambled_schematic"":""4"",""participantId"":""626CC3D0137A4648BAFDDC3CD29B6885"",""assignmentId"":""0198b9f2-327b-7821-a471-3a57838bf399"",""projectId"":""0198b9d0-29d4-7df3-8625-4b4515841beb""}","https://test12345.live/?num_scrambled_semantic=8&num_scrambled_causal=4&num_scrambled_schematic=4&participantId=626CC3D0137A4648BAFDDC3CD29B6885&assignmentId=0198b9f2-327b-7821-a471-3a57838bf399&projectId=0198b9d0-29d4-7df3-8625-4b4515841beb","626CC3D0137A4648BAFDDC3CD29B6885-2025-08-17-22-12-16","","1274","","images/causal_sequence/coin_causal/coin_causal_3.png","0","",""
"","","","","","image-button-response","33","376974","0.0-10.0-1.0-2.2","626CC3D0137A4648BAFDDC3CD29B6885","626CC3D0137A4648BAFDDC3CD29B6885","0198b9f2-327b-7821-a471-3a57838bf399","0198b9d0-29d4-7df3-8625-4b4515841beb","{""num_scrambled_semantic"":""8"",""num_scrambled_causal"":""4"",""num_scrambled_schematic"":""4"",""participantId"":""626CC3D0137A4648BAFDDC3CD29B6885"",""assignmentId"":""0198b9f2-327b-7821-a471-3a57838bf399"",""projectId"":""0198b9d0-29d4-7df3-8625-4b4515841beb""}","https://test12345.live/?num_scrambled_semantic=8&num_scrambled_causal=4&num_scrambled_schematic=4&participantId=626CC3D0137A4648BAFDDC3CD29B6885&assignmentId=0198b9f2-327b-7821-a471-3a57838bf399&projectId=0198b9d0-29d4-7df3-8625-4b4515841beb","626CC3D0137A4648BAFDDC3CD29B6885-2025-08-17-22-12-16","","null","","[]","null","",""
"","","","","","image-button-response","34","381491","0.0-10.0-1.0-0.3","626CC3D0137A4648BAFDDC3CD29B6885","626CC3D0137A4648BAFDDC3CD29B6885","0198b9f2-327b-7821-a471-3a57838bf399","0198b9d0-29d4-7df3-8625-4b4515841beb","{""num_scrambled_semantic"":""8"",""num_scrambled_causal"":""4"",""num_scrambled_schematic"":""4"",""participantId"":""626CC3D0137A4648BAFDDC3CD29B6885"",""assignmentId"":""0198b9f2-327b-7821-a471-3a57838bf399"",""projectId"":""0198b9d0-29d4-7df3-8625-4b4515841beb""}","https://test12345.live/?num_scrambled_semantic=8&num_scrambled_causal=4&num_scrambled_schematic=4&participantId=626CC3D0137A4648BAFDDC3CD29B6885&assignmentId=0198b9f2-327b-7821-a471-3a57838bf399&projectId=0198b9d0-29d4-7df3-8625-4b4515841beb","626CC3D0137A4648BAFDDC3CD29B6885-2025-08-17-22-12-16","","null","","images/causal_sequence/coin_causal/coin_causal_4.png","null","",""
"","","","","","image-button-response","35","382485","0.0-10.0-1.0-1.3","626CC3D0137A4648BAFDDC3CD29B6885","626CC3D0137A4648BAFDDC3CD29B6885","0198b9f2-327b-7821-a471-3a57838bf399","0198b9d0-29d4-7df3-8625-4b4515841beb","{""num_scrambled_semantic"":""8"",""num_scrambled_causal"":""4"",""num_scrambled_schematic"":""4"",""participantId"":""626CC3D0137A4648BAFDDC3CD29B6885"",""assignmentId"":""0198b9f2-327b-7821-a471-3a57838bf399"",""projectId"":""0198b9d0-29d4-7df3-8625-4b4515841beb""}","https://test12345.live/?num_scrambled_semantic=8&num_scrambled_causal=4&num_scrambled_schematic=4&participantId=626CC3D0137A4648BAFDDC3CD29B6885&assignmentId=0198b9f2-327b-7821-a471-3a57838bf399&projectId=0198b9d0-29d4-7df3-8625-4b4515841beb","626CC3D0137A4648BAFDDC3CD29B6885-2025-08-17-22-12-16","","992","","images/causal_sequence/coin_causal/coin_causal_4.png","0","",""
"","","","","","image-button-response","36","387887","0.0-10.0-1.0-2.3","626CC3D0137A4648BAFDDC3CD29B6885","626CC3D0137A4648BAFDDC3CD29B6885","0198b9f2-327b-7821-a471-3a57838bf399","0198b9d0-29d4-7df3-8625-4b4515841beb","{""num_scrambled_semantic"":""8"",""num_scrambled_causal"":""4"",""num_scrambled_schematic"":""4"",""participantId"":""626CC3D0137A4648BAFDDC3CD29B6885"",""assignmentId"":""0198b9f2-327b-7821-a471-3a57838bf399"",""projectId"":""0198b9d0-29d4-7df3-8625-4b4515841beb""}","https://test12345.live/?num_scrambled_semantic=8&num_scrambled_causal=4&num_scrambled_schematic=4&participantId=626CC3D0137A4648BAFDDC3CD29B6885&assignmentId=0198b9f2-327b-7821-a471-3a57838bf399&projectId=0198b9d0-29d4-7df3-8625-4b4515841beb","626CC3D0137A4648BAFDDC3CD29B6885-2025-08-17-22-12-16","","null","","[]","null","",""
"","","","","","image-button-response","37","392403","0.0-10.0-1.0-0.4","626CC3D0137A4648BAFDDC3CD29B6885","626CC3D0137A4648BAFDDC3CD29B6885","0198b9f2-327b-7821-a471-3a57838bf399","0198b9d0-29d4-7df3-8625-4b4515841beb","{""num_scrambled_semantic"":""8"",""num_scrambled_causal"":""4"",""num_scrambled_schematic"":""4"",""participantId"":""626CC3D0137A4648BAFDDC3CD29B6885"",""assignmentId"":""0198b9f2-327b-7821-a471-3a57838bf399"",""projectId"":""0198b9d0-29d4-7df3-8625-4b4515841beb""}","https://test12345.live/?num_scrambled_semantic=8&num_scrambled_causal=4&num_scrambled_schematic=4&participantId=626CC3D0137A4648BAFDDC3CD29B6885&assignmentId=0198b9f2-327b-7821-a471-3a57838bf399&projectId=0198b9d0-29d4-7df3-8625-4b4515841beb","626CC3D0137A4648BAFDDC3CD29B6885-2025-08-17-22-12-16","","null","","images/causal_sequence/coin_causal/coin_causal_5.png","null","",""
"","","","","","image-button-response","38","393666","0.0-10.0-1.0-1.4","626CC3D0137A4648BAFDDC3CD29B6885","626CC3D0137A4648BAFDDC3CD29B6885","0198b9f2-327b-7821-a471-3a57838bf399","0198b9d0-29d4-7df3-8625-4b4515841beb","{""num_scrambled_semantic"":""8"",""num_scrambled_causal"":""4"",""num_scrambled_schematic"":""4"",""participantId"":""626CC3D0137A4648BAFDDC3CD29B6885"",""assignmentId"":""0198b9f2-327b-7821-a471-3a57838bf399"",""projectId"":""0198b9d0-29d4-7df3-8625-4b4515841beb""}","https://test12345.live/?num_scrambled_semantic=8&num_scrambled_causal=4&num_scrambled_schematic=4&participantId=626CC3D0137A4648BAFDDC3CD29B6885&assignmentId=0198b9f2-327b-7821-a471-3a57838bf399&projectId=0198b9d0-29d4-7df3-8625-4b4515841beb","626CC3D0137A4648BAFDDC3CD29B6885-2025-08-17-22-12-16","","1261","","images/causal_sequence/coin_causal/coin_causal_5.png","0","",""
"","","","","","image-button-response","39","399078","0.0-10.0-1.0-2.4","626CC3D0137A4648BAFDDC3CD29B6885","626CC3D0137A4648BAFDDC3CD29B6885","0198b9f2-327b-7821-a471-3a57838bf399","0198b9d0-29d4-7df3-8625-4b4515841beb","{""num_scrambled_semantic"":""8"",""num_scrambled_causal"":""4"",""num_scrambled_schematic"":""4"",""participantId"":""626CC3D0137A4648BAFDDC3CD29B6885"",""assignmentId"":""0198b9f2-327b-7821-a471-3a57838bf399"",""projectId"":""0198b9d0-29d4-7df3-8625-4b4515841beb""}","https://test12345.live/?num_scrambled_semantic=8&num_scrambled_causal=4&num_scrambled_schematic=4&participantId=626CC3D0137A4648BAFDDC3CD29B6885&assignmentId=0198b9f2-327b-7821-a471-3a57838bf399&projectId=0198b9d0-29d4-7df3-8625-4b4515841beb","626CC3D0137A4648BAFDDC3CD29B6885-2025-08-17-22-12-16","","null","","[]","null","",""
"","","","","","image-button-response","40","403588","0.0-10.0-1.0-0.5","626CC3D0137A4648BAFDDC3CD29B6885","626CC3D0137A4648BAFDDC3CD29B6885","0198b9f2-327b-7821-a471-3a57838bf399","0198b9d0-29d4-7df3-8625-4b4515841beb","{""num_scrambled_semantic"":""8"",""num_scrambled_causal"":""4"",""num_scrambled_schematic"":""4"",""participantId"":""626CC3D0137A4648BAFDDC3CD29B6885"",""assignmentId"":""0198b9f2-327b-7821-a471-3a57838bf399"",""projectId"":""0198b9d0-29d4-7df3-8625-4b4515841beb""}","https://test12345.live/?num_scrambled_semantic=8&num_scrambled_causal=4&num_scrambled_schematic=4&participantId=626CC3D0137A4648BAFDDC3CD29B6885&assignmentId=0198b9f2-327b-7821-a471-3a57838bf399&projectId=0198b9d0-29d4-7df3-8625-4b4515841beb","626CC3D0137A4648BAFDDC3CD29B6885-2025-08-17-22-12-16","","null","","images/causal_sequence/coin_causal/coin_causal_6.png","null","",""
"","","","","","image-button-response","41","404973","0.0-10.0-1.0-1.5","626CC3D0137A4648BAFDDC3CD29B6885","626CC3D0137A4648BAFDDC3CD29B6885","0198b9f2-327b-7821-a471-3a57838bf399","0198b9d0-29d4-7df3-8625-4b4515841beb","{""num_scrambled_semantic"":""8"",""num_scrambled_causal"":""4"",""num_scrambled_schematic"":""4"",""participantId"":""626CC3D0137A4648BAFDDC3CD29B6885"",""assignmentId"":""0198b9f2-327b-7821-a471-3a57838bf399"",""projectId"":""0198b9d0-29d4-7df3-8625-4b4515841beb""}","https://test12345.live/?num_scrambled_semantic=8&num_scrambled_causal=4&num_scrambled_schematic=4&participantId=626CC3D0137A4648BAFDDC3CD29B6885&assignmentId=0198b9f2-327b-7821-a471-3a57838bf399&projectId=0198b9d0-29d4-7df3-8625-4b4515841beb","626CC3D0137A4648BAFDDC3CD29B6885-2025-08-17-22-12-16","","1382","","images/causal_sequence/coin_causal/coin_causal_6.png","0","",""
"","","","","","image-button-response","42","410380","0.0-10.0-1.0-2.5","626CC3D0137A4648BAFDDC3CD29B6885","626CC3D0137A4648BAFDDC3CD29B6885","0198b9f2-327b-7821-a471-3a57838bf399","0198b9d0-29d4-7df3-8625-4b4515841beb","{""num_scrambled_semantic"":""8"",""num_scrambled_causal"":""4"",""num_scrambled_schematic"":""4"",""participantId"":""626CC3D0137A4648BAFDDC3CD29B6885"",""assignmentId"":""0198b9f2-327b-7821-a471-3a57838bf399"",""projectId"":""0198b9d0-29d4-7df3-8625-4b4515841beb""}","https://test12345.live/?num_scrambled_semantic=8&num_scrambled_causal=4&num_scrambled_schematic=4&participantId=626CC3D0137A4648BAFDDC3CD29B6885&assignmentId=0198b9f2-327b-7821-a471-3a57838bf399&projectId=0198b9d0-29d4-7df3-8625-4b4515841beb","626CC3D0137A4648BAFDDC3CD29B6885-2025-08-17-22-12-16","","null","","[]","null","",""
"","","","","","image-button-response","43","414890","0.0-10.0-1.0-0.6","626CC3D0137A4648BAFDDC3CD29B6885","626CC3D0137A4648BAFDDC3CD29B6885","0198b9f2-327b-7821-a471-3a57838bf399","0198b9d0-29d4-7df3-8625-4b4515841beb","{""num_scrambled_semantic"":""8"",""num_scrambled_causal"":""4"",""num_scrambled_schematic"":""4"",""participantId"":""626CC3D0137A4648BAFDDC3CD29B6885"",""assignmentId"":""0198b9f2-327b-7821-a471-3a57838bf399"",""projectId"":""0198b9d0-29d4-7df3-8625-4b4515841beb""}","https://test12345.live/?num_scrambled_semantic=8&num_scrambled_causal=4&num_scrambled_schematic=4&participantId=626CC3D0137A4648BAFDDC3CD29B6885&assignmentId=0198b9f2-327b-7821-a471-3a57838bf399&projectId=0198b9d0-29d4-7df3-8625-4b4515841beb","626CC3D0137A4648BAFDDC3CD29B6885-2025-08-17-22-12-16","","null","","images/causal_sequence/coin_causal/coin_causal_7.png","null","",""
"","","","","","image-button-response","44","415663","0.0-10.0-1.0-1.6","626CC3D0137A4648BAFDDC3CD29B6885","626CC3D0137A4648BAFDDC3CD29B6885","0198b9f2-327b-7821-a471-3a57838bf399","0198b9d0-29d4-7df3-8625-4b4515841beb","{""num_scrambled_semantic"":""8"",""num_scrambled_causal"":""4"",""num_scrambled_schematic"":""4"",""participantId"":""626CC3D0137A4648BAFDDC3CD29B6885"",""assignmentId"":""0198b9f2-327b-7821-a471-3a57838bf399"",""projectId"":""0198b9d0-29d4-7df3-8625-4b4515841beb""}","https://test12345.live/?num_scrambled_semantic=8&num_scrambled_causal=4&num_scrambled_schematic=4&participantId=626CC3D0137A4648BAFDDC3CD29B6885&assignmentId=0198b9f2-327b-7821-a471-3a57838bf399&projectId=0198b9d0-29d4-7df3-8625-4b4515841beb","626CC3D0137A4648BAFDDC3CD29B6885-2025-08-17-22-12-16","","772","","images/causal_sequence/coin_causal/coin_causal_7.png","0","",""
"","","","","","image-button-response","45","421074","0.0-10.0-1.0-2.6","626CC3D0137A4648BAFDDC3CD29B6885","626CC3D0137A4648BAFDDC3CD29B6885","0198b9f2-327b-7821-a471-3a57838bf399","0198b9d0-29d4-7df3-8625-4b4515841beb","{""num_scrambled_semantic"":""8"",""num_scrambled_causal"":""4"",""num_scrambled_schematic"":""4"",""participantId"":""626CC3D0137A4648BAFDDC3CD29B6885"",""assignmentId"":""0198b9f2-327b-7821-a471-3a57838bf399"",""projectId"":""0198b9d0-29d4-7df3-8625-4b4515841beb""}","https://test12345.live/?num_scrambled_semantic=8&num_scrambled_causal=4&num_scrambled_schematic=4&participantId=626CC3D0137A4648BAFDDC3CD29B6885&assignmentId=0198b9f2-327b-7821-a471-3a57838bf399&projectId=0198b9d0-29d4-7df3-8625-4b4515841beb","626CC3D0137A4648BAFDDC3CD29B6885-2025-08-17-22-12-16","","null","","[]","null","",""
"","","","","","image-button-response","46","425587","0.0-10.0-1.0-0.7","626CC3D0137A4648BAFDDC3CD29B6885","626CC3D0137A4648BAFDDC3CD29B6885","0198b9f2-327b-7821-a471-3a57838bf399","0198b9d0-29d4-7df3-8625-4b4515841beb","{""num_scrambled_semantic"":""8"",""num_scrambled_causal"":""4"",""num_scrambled_schematic"":""4"",""participantId"":""626CC3D0137A4648BAFDDC3CD29B6885"",""assignmentId"":""0198b9f2-327b-7821-a471-3a57838bf399"",""projectId"":""0198b9d0-29d4-7df3-8625-4b4515841beb""}","https://test12345.live/?num_scrambled_semantic=8&num_scrambled_causal=4&num_scrambled_schematic=4&participantId=626CC3D0137A4648BAFDDC3CD29B6885&assignmentId=0198b9f2-327b-7821-a471-3a57838bf399&projectId=0198b9d0-29d4-7df3-8625-4b4515841beb","626CC3D0137A4648BAFDDC3CD29B6885-2025-08-17-22-12-16","","null","","images/causal_sequence/coin_causal/coin_causal_8.png","null","",""
"","","","","","image-button-response","47","426903","0.0-10.0-1.0-1.7","626CC3D0137A4648BAFDDC3CD29B6885","626CC3D0137A4648BAFDDC3CD29B6885","0198b9f2-327b-7821-a471-3a57838bf399","0198b9d0-29d4-7df3-8625-4b4515841beb","{""num_scrambled_semantic"":""8"",""num_scrambled_causal"":""4"",""num_scrambled_schematic"":""4"",""participantId"":""626CC3D0137A4648BAFDDC3CD29B6885"",""assignmentId"":""0198b9f2-327b-7821-a471-3a57838bf399"",""projectId"":""0198b9d0-29d4-7df3-8625-4b4515841beb""}","https://test12345.live/?num_scrambled_semantic=8&num_scrambled_causal=4&num_scrambled_schematic=4&participantId=626CC3D0137A4648BAFDDC3CD29B6885&assignmentId=0198b9f2-327b-7821-a471-3a57838bf399&projectId=0198b9d0-29d4-7df3-8625-4b4515841beb","626CC3D0137A4648BAFDDC3CD29B6885-2025-08-17-22-12-16","","1315","","images/causal_sequence/coin_causal/coin_causal_8.png","0","",""
"","","","","","image-button-response","48","432312","0.0-10.0-1.0-2.7","626CC3D0137A4648BAFDDC3CD29B6885","626CC3D0137A4648BAFDDC3CD29B6885","0198b9f2-327b-7821-a471-3a57838bf399","0198b9d0-29d4-7df3-8625-4b4515841beb","{""num_scrambled_semantic"":""8"",""num_scrambled_causal"":""4"",""num_scrambled_schematic"":""4"",""participantId"":""626CC3D0137A4648BAFDDC3CD29B6885"",""assignmentId"":""0198b9f2-327b-7821-a471-3a57838bf399"",""projectId"":""0198b9d0-29d4-7df3-8625-4b4515841beb""}","https://test12345.live/?num_scrambled_semantic=8&num_scrambled_causal=4&num_scrambled_schematic=4&participantId=626CC3D0137A4648BAFDDC3CD29B6885&assignmentId=0198b9f2-327b-7821-a471-3a57838bf399&projectId=0198b9d0-29d4-7df3-8625-4b4515841beb","626CC3D0137A4648BAFDDC3CD29B6885-2025-08-17-22-12-16","","null","","[]","null","",""
"","","","","","image-button-response","49","436828","0.0-10.0-1.0-0.8","626CC3D0137A4648BAFDDC3CD29B6885","626CC3D0137A4648BAFDDC3CD29B6885","0198b9f2-327b-7821-a471-3a57838bf399","0198b9d0-29d4-7df3-8625-4b4515841beb","{""num_scrambled_semantic"":""8"",""num_scrambled_causal"":""4"",""num_scrambled_schematic"":""4"",""participantId"":""626CC3D0137A4648BAFDDC3CD29B6885"",""assignmentId"":""0198b9f2-327b-7821-a471-3a57838bf399"",""projectId"":""0198b9d0-29d4-7df3-8625-4b4515841beb""}","https://test12345.live/?num_scrambled_semantic=8&num_scrambled_causal=4&num_scrambled_schematic=4&participantId=626CC3D0137A4648BAFDDC3CD29B6885&assignmentId=0198b9f2-327b-7821-a471-3a57838bf399&projectId=0198b9d0-29d4-7df3-8625-4b4515841beb","626CC3D0137A4648BAFDDC3CD29B6885-2025-08-17-22-12-16","","null","","images/causal_sequence/coin_causal/coin_causal_9.png","null","",""
"","","","","","image-button-response","50","438727","0.0-10.0-1.0-1.8","626CC3D0137A4648BAFDDC3CD29B6885","626CC3D0137A4648BAFDDC3CD29B6885","0198b9f2-327b-7821-a471-3a57838bf399","0198b9d0-29d4-7df3-8625-4b4515841beb","{""num_scrambled_semantic"":""8"",""num_scrambled_causal"":""4"",""num_scrambled_schematic"":""4"",""participantId"":""626CC3D0137A4648BAFDDC3CD29B6885"",""assignmentId"":""0198b9f2-327b-7821-a471-3a57838bf399"",""projectId"":""0198b9d0-29d4-7df3-8625-4b4515841beb""}","https://test12345.live/?num_scrambled_semantic=8&num_scrambled_causal=4&num_scrambled_schematic=4&participantId=626CC3D0137A4648BAFDDC3CD29B6885&assignmentId=0198b9f2-327b-7821-a471-3a57838bf399&projectId=0198b9d0-29d4-7df3-8625-4b4515841beb","626CC3D0137A4648BAFDDC3CD29B6885-2025-08-17-22-12-16","","1897","","images/causal_sequence/coin_causal/coin_causal_9.png","0","",""
"","","","","","image-button-response","51","444129","0.0-10.0-1.0-2.8","626CC3D0137A4648BAFDDC3CD29B6885","626CC3D0137A4648BAFDDC3CD29B6885","0198b9f2-327b-7821-a471-3a57838bf399","0198b9d0-29d4-7df3-8625-4b4515841beb","{""num_scrambled_semantic"":""8"",""num_scrambled_causal"":""4"",""num_scrambled_schematic"":""4"",""participantId"":""626CC3D0137A4648BAFDDC3CD29B6885"",""assignmentId"":""0198b9f2-327b-7821-a471-3a57838bf399"",""projectId"":""0198b9d0-29d4-7df3-8625-4b4515841beb""}","https://test12345.live/?num_scrambled_semantic=8&num_scrambled_causal=4&num_scrambled_schematic=4&participantId=626CC3D0137A4648BAFDDC3CD29B6885&assignmentId=0198b9f2-327b-7821-a471-3a57838bf399&projectId=0198b9d0-29d4-7df3-8625-4b4515841beb","626CC3D0137A4648BAFDDC3CD29B6885-2025-08-17-22-12-16","","null","","[]","null","",""
"","","","","","image-button-response","52","448646","0.0-10.0-1.0-0.9","626CC3D0137A4648BAFDDC3CD29B6885","626CC3D0137A4648BAFDDC3CD29B6885","0198b9f2-327b-7821-a471-3a57838bf399","0198b9d0-29d4-7df3-8625-4b4515841beb","{""num_scrambled_semantic"":""8"",""num_scrambled_causal"":""4"",""num_scrambled_schematic"":""4"",""participantId"":""626CC3D0137A4648BAFDDC3CD29B6885"",""assignmentId"":""0198b9f2-327b-7821-a471-3a57838bf399"",""projectId"":""0198b9d0-29d4-7df3-8625-4b4515841beb""}","https://test12345.live/?num_scrambled_semantic=8&num_scrambled_causal=4&num_scrambled_schematic=4&participantId=626CC3D0137A4648BAFDDC3CD29B6885&assignmentId=0198b9f2-327b-7821-a471-3a57838bf399&projectId=0198b9d0-29d4-7df3-8625-4b4515841beb","626CC3D0137A4648BAFDDC3CD29B6885-2025-08-17-22-12-16","","null","","images/causal_sequence/coin_causal/coin_causal_ten.png","null","",""
"","","","","","image-button-response","53","449730","0.0-10.0-1.0-1.9","626CC3D0137A4648BAFDDC3CD29B6885","626CC3D0137A4648BAFDDC3CD29B6885","0198b9f2-327b-7821-a471-3a57838bf399","0198b9d0-29d4-7df3-8625-4b4515841beb","{""num_scrambled_semantic"":""8"",""num_scrambled_causal"":""4"",""num_scrambled_schematic"":""4"",""participantId"":""626CC3D0137A4648BAFDDC3CD29B6885"",""assignmentId"":""0198b9f2-327b-7821-a471-3a57838bf399"",""projectId"":""0198b9d0-29d4-7df3-8625-4b4515841beb""}","https://test12345.live/?num_scrambled_semantic=8&num_scrambled_causal=4&num_scrambled_schematic=4&participantId=626CC3D0137A4648BAFDDC3CD29B6885&assignmentId=0198b9f2-327b-7821-a471-3a57838bf399&projectId=0198b9d0-29d4-7df3-8625-4b4515841beb","626CC3D0137A4648BAFDDC3CD29B6885-2025-08-17-22-12-16","","1082","","images/causal_sequence/coin_causal/coin_causal_ten.png","0","",""
"","","","","","image-button-response","54","455132","0.0-10.0-1.0-2.9","626CC3D0137A4648BAFDDC3CD29B6885","626CC3D0137A4648BAFDDC3CD29B6885","0198b9f2-327b-7821-a471-3a57838bf399","0198b9d0-29d4-7df3-8625-4b4515841beb","{""num_scrambled_semantic"":""8"",""num_scrambled_causal"":""4"",""num_scrambled_schematic"":""4"",""participantId"":""626CC3D0137A4648BAFDDC3CD29B6885"",""assignmentId"":""0198b9f2-327b-7821-a471-3a57838bf399"",""projectId"":""0198b9d0-29d4-7df3-8625-4b4515841beb""}","https://test12345.live/?num_scrambled_semantic=8&num_scrambled_causal=4&num_scrambled_schematic=4&participantId=626CC3D0137A4648BAFDDC3CD29B6885&assignmentId=0198b9f2-327b-7821-a471-3a57838bf399&projectId=0198b9d0-29d4-7df3-8625-4b4515841beb","626CC3D0137A4648BAFDDC3CD29B6885-2025-08-17-22-12-16","","null","","[]","null","",""
"","","","","","html-audio-response","55","526159","0.0-11.0","626CC3D0137A4648BAFDDC3CD29B6885","626CC3D0137A4648BAFDDC3CD29B6885","0198b9f2-327b-7821-a471-3a57838bf399","0198b9d0-29d4-7df3-8625-4b4515841beb","{""num_scrambled_semantic"":""8"",""num_scrambled_causal"":""4"",""num_scrambled_schematic"":""4"",""participantId"":""626CC3D0137A4648BAFDDC3CD29B6885"",""assignmentId"":""0198b9f2-327b-7821-a471-3a57838bf399"",""projectId"":""0198b9d0-29d4-7df3-8625-4b4515841beb""}","https://test12345.live/?num_scrambled_semantic=8&num_scrambled_causal=4&num_scrambled_schematic=4&participantId=626CC3D0137A4648BAFDDC3CD29B6885&assignmentId=0198b9f2-327b-7821-a471-3a57838bf399&projectId=0198b9d0-29d4-7df3-8625-4b4515841beb","626CC3D0137A4648BAFDDC3CD29B6885-2025-08-17-22-12-16","","51578","","[""<span style=\""color: red; font-size: 24px\""> NOW RECORDING</span><p>Please say out loud all the images you saw, as many as you can remember. The images can be said in any order.</p>""]","","2","coin_causal"
"","","","","","image-button-response","56","532191","0.0-12.0-0.0","626CC3D0137A4648BAFDDC3CD29B6885","626CC3D0137A4648BAFDDC3CD29B6885","0198b9f2-327b-7821-a471-3a57838bf399","0198b9d0-29d4-7df3-8625-4b4515841beb","{""num_scrambled_semantic"":""8"",""num_scrambled_causal"":""4"",""num_scrambled_schematic"":""4"",""participantId"":""626CC3D0137A4648BAFDDC3CD29B6885"",""assignmentId"":""0198b9f2-327b-7821-a471-3a57838bf399"",""projectId"":""0198b9d0-29d4-7df3-8625-4b4515841beb""}","https://test12345.live/?num_scrambled_semantic=8&num_scrambled_causal=4&num_scrambled_schematic=4&participantId=626CC3D0137A4648BAFDDC3CD29B6885&assignmentId=0198b9f2-327b-7821-a471-3a57838bf399&projectId=0198b9d0-29d4-7df3-8625-4b4515841beb","626CC3D0137A4648BAFDDC3CD29B6885-2025-08-17-22-12-16","","null","","images/causal_sequence/dog_causal/dog_causal_0.png","null","",""
"","","","","","image-button-response","57","536702","0.0-12.0-1.0-0.0","626CC3D0137A4648BAFDDC3CD29B6885","626CC3D0137A4648BAFDDC3CD29B6885","0198b9f2-327b-7821-a471-3a57838bf399","0198b9d0-29d4-7df3-8625-4b4515841beb","{""num_scrambled_semantic"":""8"",""num_scrambled_causal"":""4"",""num_scrambled_schematic"":""4"",""participantId"":""626CC3D0137A4648BAFDDC3CD29B6885"",""assignmentId"":""0198b9f2-327b-7821-a471-3a57838bf399"",""projectId"":""0198b9d0-29d4-7df3-8625-4b4515841beb""}","https://test12345.live/?num_scrambled_semantic=8&num_scrambled_causal=4&num_scrambled_schematic=4&participantId=626CC3D0137A4648BAFDDC3CD29B6885&assignmentId=0198b9f2-327b-7821-a471-3a57838bf399&projectId=0198b9d0-29d4-7df3-8625-4b4515841beb","626CC3D0137A4648BAFDDC3CD29B6885-2025-08-17-22-12-16","","null","","images/causal_sequence/dog_causal/dog_causal_4.png","null","",""
"","","","","","image-button-response","58","538310","0.0-12.0-1.0-1.0","626CC3D0137A4648BAFDDC3CD29B6885","626CC3D0137A4648BAFDDC3CD29B6885","0198b9f2-327b-7821-a471-3a57838bf399","0198b9d0-29d4-7df3-8625-4b4515841beb","{""num_scrambled_semantic"":""8"",""num_scrambled_causal"":""4"",""num_scrambled_schematic"":""4"",""participantId"":""626CC3D0137A4648BAFDDC3CD29B6885"",""assignmentId"":""0198b9f2-327b-7821-a471-3a57838bf399"",""projectId"":""0198b9d0-29d4-7df3-8625-4b4515841beb""}","https://test12345.live/?num_scrambled_semantic=8&num_scrambled_causal=4&num_scrambled_schematic=4&participantId=626CC3D0137A4648BAFDDC3CD29B6885&assignmentId=0198b9f2-327b-7821-a471-3a57838bf399&projectId=0198b9d0-29d4-7df3-8625-4b4515841beb","626CC3D0137A4648BAFDDC3CD29B6885-2025-08-17-22-12-16","","1606","","images/causal_sequence/dog_causal/dog_causal_4.png","0","",""
"","","","","","image-button-response","59","543726","0.0-12.0-1.0-2.0","626CC3D0137A4648BAFDDC3CD29B6885","626CC3D0137A4648BAFDDC3CD29B6885","0198b9f2-327b-7821-a471-3a57838bf399","0198b9d0-29d4-7df3-8625-4b4515841beb","{""num_scrambled_semantic"":""8"",""num_scrambled_causal"":""4"",""num_scrambled_schematic"":""4"",""participantId"":""626CC3D0137A4648BAFDDC3CD29B6885"",""assignmentId"":""0198b9f2-327b-7821-a471-3a57838bf399"",""projectId"":""0198b9d0-29d4-7df3-8625-4b4515841beb""}","https://test12345.live/?num_scrambled_semantic=8&num_scrambled_causal=4&num_scrambled_schematic=4&participantId=626CC3D0137A4648BAFDDC3CD29B6885&assignmentId=0198b9f2-327b-7821-a471-3a57838bf399&projectId=0198b9d0-29d4-7df3-8625-4b4515841beb","626CC3D0137A4648BAFDDC3CD29B6885-2025-08-17-22-12-16","","null","","[]","null","",""
"","","","","","image-button-response","60","548246","0.0-12.0-1.0-0.1","626CC3D0137A4648BAFDDC3CD29B6885","626CC3D0137A4648BAFDDC3CD29B6885","0198b9f2-327b-7821-a471-3a57838bf399","0198b9d0-29d4-7df3-8625-4b4515841beb","{""num_scrambled_semantic"":""8"",""num_scrambled_causal"":""4"",""num_scrambled_schematic"":""4"",""participantId"":""626CC3D0137A4648BAFDDC3CD29B6885"",""assignmentId"":""0198b9f2-327b-7821-a471-3a57838bf399"",""projectId"":""0198b9d0-29d4-7df3-8625-4b4515841beb""}","https://test12345.live/?num_scrambled_semantic=8&num_scrambled_causal=4&num_scrambled_schematic=4&participantId=626CC3D0137A4648BAFDDC3CD29B6885&assignmentId=0198b9f2-327b-7821-a471-3a57838bf399&projectId=0198b9d0-29d4-7df3-8625-4b4515841beb","626CC3D0137A4648BAFDDC3CD29B6885-2025-08-17-22-12-16","","null","","images/causal_sequence/dog_causal/dog_causal_8.png","null","",""
"","","","","","image-button-response","61","548917","0.0-12.0-1.0-1.1","626CC3D0137A4648BAFDDC3CD29B6885","626CC3D0137A4648BAFDDC3CD29B6885","0198b9f2-327b-7821-a471-3a57838bf399","0198b9d0-29d4-7df3-8625-4b4515841beb","{""num_scrambled_semantic"":""8"",""num_scrambled_causal"":""4"",""num_scrambled_schematic"":""4"",""participantId"":""626CC3D0137A4648BAFDDC3CD29B6885"",""assignmentId"":""0198b9f2-327b-7821-a471-3a57838bf399"",""projectId"":""0198b9d0-29d4-7df3-8625-4b4515841beb""}","https://test12345.live/?num_scrambled_semantic=8&num_scrambled_causal=4&num_scrambled_schematic=4&participantId=626CC3D0137A4648BAFDDC3CD29B6885&assignmentId=0198b9f2-327b-7821-a471-3a57838bf399&projectId=0198b9d0-29d4-7df3-8625-4b4515841beb","626CC3D0137A4648BAFDDC3CD29B6885-2025-08-17-22-12-16","","669","","images/causal_sequence/dog_causal/dog_causal_8.png","0","",""
"","","","","","image-button-response","62","554326","0.0-12.0-1.0-2.1","626CC3D0137A4648BAFDDC3CD29B6885","626CC3D0137A4648BAFDDC3CD29B6885","0198b9f2-327b-7821-a471-3a57838bf399","0198b9d0-29d4-7df3-8625-4b4515841beb","{""num_scrambled_semantic"":""8"",""num_scrambled_causal"":""4"",""num_scrambled_schematic"":""4"",""participantId"":""626CC3D0137A4648BAFDDC3CD29B6885"",""assignmentId"":""0198b9f2-327b-7821-a471-3a57838bf399"",""projectId"":""0198b9d0-29d4-7df3-8625-4b4515841beb""}","https://test12345.live/?num_scrambled_semantic=8&num_scrambled_causal=4&num_scrambled_schematic=4&participantId=626CC3D0137A4648BAFDDC3CD29B6885&assignmentId=0198b9f2-327b-7821-a471-3a57838bf399&projectId=0198b9d0-29d4-7df3-8625-4b4515841beb","626CC3D0137A4648BAFDDC3CD29B6885-2025-08-17-22-12-16","","null","","[]","null","",""
"","","","","","image-button-response","63","558839","0.0-12.0-1.0-0.2","626CC3D0137A4648BAFDDC3CD29B6885","626CC3D0137A4648BAFDDC3CD29B6885","0198b9f2-327b-7821-a471-3a57838bf399","0198b9d0-29d4-7df3-8625-4b4515841beb","{""num_scrambled_semantic"":""8"",""num_scrambled_causal"":""4"",""num_scrambled_schematic"":""4"",""participantId"":""626CC3D0137A4648BAFDDC3CD29B6885"",""assignmentId"":""0198b9f2-327b-7821-a471-3a57838bf399"",""projectId"":""0198b9d0-29d4-7df3-8625-4b4515841beb""}","https://test12345.live/?num_scrambled_semantic=8&num_scrambled_causal=4&num_scrambled_schematic=4&participantId=626CC3D0137A4648BAFDDC3CD29B6885&assignmentId=0198b9f2-327b-7821-a471-3a57838bf399&projectId=0198b9d0-29d4-7df3-8625-4b4515841beb","626CC3D0137A4648BAFDDC3CD29B6885-2025-08-17-22-12-16","","null","","images/causal_sequence/dog_causal/dog_causal_2.png","null","",""
"","","","","","image-button-response","64","560267","0.0-12.0-1.0-1.2","626CC3D0137A4648BAFDDC3CD29B6885","626CC3D0137A4648BAFDDC3CD29B6885","0198b9f2-327b-7821-a471-3a57838bf399","0198b9d0-29d4-7df3-8625-4b4515841beb","{""num_scrambled_semantic"":""8"",""num_scrambled_causal"":""4"",""num_scrambled_schematic"":""4"",""participantId"":""626CC3D0137A4648BAFDDC3CD29B6885"",""assignmentId"":""0198b9f2-327b-7821-a471-3a57838bf399"",""projectId"":""0198b9d0-29d4-7df3-8625-4b4515841beb""}","https://test12345.live/?num_scrambled_semantic=8&num_scrambled_causal=4&num_scrambled_schematic=4&participantId=626CC3D0137A4648BAFDDC3CD29B6885&assignmentId=0198b9f2-327b-7821-a471-3a57838bf399&projectId=0198b9d0-29d4-7df3-8625-4b4515841beb","626CC3D0137A4648BAFDDC3CD29B6885-2025-08-17-22-12-16","","1426","","images/causal_sequence/dog_causal/dog_causal_2.png","0","",""
"","","","","","image-button-response","65","565678","0.0-12.0-1.0-2.2","626CC3D0137A4648BAFDDC3CD29B6885","626CC3D0137A4648BAFDDC3CD29B6885","0198b9f2-327b-7821-a471-3a57838bf399","0198b9d0-29d4-7df3-8625-4b4515841beb","{""num_scrambled_semantic"":""8"",""num_scrambled_causal"":""4"",""num_scrambled_schematic"":""4"",""participantId"":""626CC3D0137A4648BAFDDC3CD29B6885"",""assignmentId"":""0198b9f2-327b-7821-a471-3a57838bf399"",""projectId"":""0198b9d0-29d4-7df3-8625-4b4515841beb""}","https://test12345.live/?num_scrambled_semantic=8&num_scrambled_causal=4&num_scrambled_schematic=4&participantId=626CC3D0137A4648BAFDDC3CD29B6885&assignmentId=0198b9f2-327b-7821-a471-3a57838bf399&projectId=0198b9d0-29d4-7df3-8625-4b4515841beb","626CC3D0137A4648BAFDDC3CD29B6885-2025-08-17-22-12-16","","null","","[]","null","",""
"","","","","","image-button-response","66","570193","0.0-12.0-1.0-0.3","626CC3D0137A4648BAFDDC3CD29B6885","626CC3D0137A4648BAFDDC3CD29B6885","0198b9f2-327b-7821-a471-3a57838bf399","0198b9d0-29d4-7df3-8625-4b4515841beb","{""num_scrambled_semantic"":""8"",""num_scrambled_causal"":""4"",""num_scrambled_schematic"":""4"",""participantId"":""626CC3D0137A4648BAFDDC3CD29B6885"",""assignmentId"":""0198b9f2-327b-7821-a471-3a57838bf399"",""projectId"":""0198b9d0-29d4-7df3-8625-4b4515841beb""}","https://test12345.live/?num_scrambled_semantic=8&num_scrambled_causal=4&num_scrambled_schematic=4&participantId=626CC3D0137A4648BAFDDC3CD29B6885&assignmentId=0198b9f2-327b-7821-a471-3a57838bf399&projectId=0198b9d0-29d4-7df3-8625-4b4515841beb","626CC3D0137A4648BAFDDC3CD29B6885-2025-08-17-22-12-16","","null","","images/causal_sequence/dog_causal/dog_causal_3.png","null","",""
"","","","","","image-button-response","67","571268","0.0-12.0-1.0-1.3","626CC3D0137A4648BAFDDC3CD29B6885","626CC3D0137A4648BAFDDC3CD29B6885","0198b9f2-327b-7821-a471-3a57838bf399","0198b9d0-29d4-7df3-8625-4b4515841beb","{""num_scrambled_semantic"":""8"",""num_scrambled_causal"":""4"",""num_scrambled_schematic"":""4"",""participantId"":""626CC3D0137A4648BAFDDC3CD29B6885"",""assignmentId"":""0198b9f2-327b-7821-a471-3a57838bf399"",""projectId"":""0198b9d0-29d4-7df3-8625-4b4515841beb""}","https://test12345.live/?num_scrambled_semantic=8&num_scrambled_causal=4&num_scrambled_schematic=4&participantId=626CC3D0137A4648BAFDDC3CD29B6885&assignmentId=0198b9f2-327b-7821-a471-3a57838bf399&projectId=0198b9d0-29d4-7df3-8625-4b4515841beb","626CC3D0137A4648BAFDDC3CD29B6885-2025-08-17-22-12-16","","1072","","images/causal_sequence/dog_causal/dog_causal_3.png","0","",""
"","","","","","image-button-response","68","576688","0.0-12.0-1.0-2.3","626CC3D0137A4648BAFDDC3CD29B6885","626CC3D0137A4648BAFDDC3CD29B6885","0198b9f2-327b-7821-a471-3a57838bf399","0198b9d0-29d4-7df3-8625-4b4515841beb","{""num_scrambled_semantic"":""8"",""num_scrambled_causal"":""4"",""num_scrambled_schematic"":""4"",""participantId"":""626CC3D0137A4648BAFDDC3CD29B6885"",""assignmentId"":""0198b9f2-327b-7821-a471-3a57838bf399"",""projectId"":""0198b9d0-29d4-7df3-8625-4b4515841beb""}","https://test12345.live/?num_scrambled_semantic=8&num_scrambled_causal=4&num_scrambled_schematic=4&participantId=626CC3D0137A4648BAFDDC3CD29B6885&assignmentId=0198b9f2-327b-7821-a471-3a57838bf399&projectId=0198b9d0-29d4-7df3-8625-4b4515841beb","626CC3D0137A4648BAFDDC3CD29B6885-2025-08-17-22-12-16","","null","","[]","null","",""
"","","","","","image-button-response","69","581192","0.0-12.0-1.0-0.4","626CC3D0137A4648BAFDDC3CD29B6885","626CC3D0137A4648BAFDDC3CD29B6885","0198b9f2-327b-7821-a471-3a57838bf399","0198b9d0-29d4-7df3-8625-4b4515841beb","{""num_scrambled_semantic"":""8"",""num_scrambled_causal"":""4"",""num_scrambled_schematic"":""4"",""participantId"":""626CC3D0137A4648BAFDDC3CD29B6885"",""assignmentId"":""0198b9f2-327b-7821-a471-3a57838bf399"",""projectId"":""0198b9d0-29d4-7df3-8625-4b4515841beb""}","https://test12345.live/?num_scrambled_semantic=8&num_scrambled_causal=4&num_scrambled_schematic=4&participantId=626CC3D0137A4648BAFDDC3CD29B6885&assignmentId=0198b9f2-327b-7821-a471-3a57838bf399&projectId=0198b9d0-29d4-7df3-8625-4b4515841beb","626CC3D0137A4648BAFDDC3CD29B6885-2025-08-17-22-12-16","","null","","images/causal_sequence/dog_causal/dog_causal_ten.png","null","",""
"","","","","","image-button-response","70","581877","0.0-12.0-1.0-1.4","626CC3D0137A4648BAFDDC3CD29B6885","626CC3D0137A4648BAFDDC3CD29B6885","0198b9f2-327b-7821-a471-3a57838bf399","0198b9d0-29d4-7df3-8625-4b4515841beb","{""num_scrambled_semantic"":""8"",""num_scrambled_causal"":""4"",""num_scrambled_schematic"":""4"",""participantId"":""626CC3D0137A4648BAFDDC3CD29B6885"",""assignmentId"":""0198b9f2-327b-7821-a471-3a57838bf399"",""projectId"":""0198b9d0-29d4-7df3-8625-4b4515841beb""}","https://test12345.live/?num_scrambled_semantic=8&num_scrambled_causal=4&num_scrambled_schematic=4&participantId=626CC3D0137A4648BAFDDC3CD29B6885&assignmentId=0198b9f2-327b-7821-a471-3a57838bf399&projectId=0198b9d0-29d4-7df3-8625-4b4515841beb","626CC3D0137A4648BAFDDC3CD29B6885-2025-08-17-22-12-16","","683","","images/causal_sequence/dog_causal/dog_causal_ten.png","0","",""
"","","","","","image-button-response","71","587281","0.0-12.0-1.0-2.4","626CC3D0137A4648BAFDDC3CD29B6885","626CC3D0137A4648BAFDDC3CD29B6885","0198b9f2-327b-7821-a471-3a57838bf399","0198b9d0-29d4-7df3-8625-4b4515841beb","{""num_scrambled_semantic"":""8"",""num_scrambled_causal"":""4"",""num_scrambled_schematic"":""4"",""participantId"":""626CC3D0137A4648BAFDDC3CD29B6885"",""assignmentId"":""0198b9f2-327b-7821-a471-3a57838bf399"",""projectId"":""0198b9d0-29d4-7df3-8625-4b4515841beb""}","https://test12345.live/?num_scrambled_semantic=8&num_scrambled_causal=4&num_scrambled_schematic=4&participantId=626CC3D0137A4648BAFDDC3CD29B6885&assignmentId=0198b9f2-327b-7821-a471-3a57838bf399&projectId=0198b9d0-29d4-7df3-8625-4b4515841beb","626CC3D0137A4648BAFDDC3CD29B6885-2025-08-17-22-12-16","","null","","[]","null","",""
"","","","","","image-button-response","72","591799","0.0-12.0-1.0-0.5","626CC3D0137A4648BAFDDC3CD29B6885","626CC3D0137A4648BAFDDC3CD29B6885","0198b9f2-327b-7821-a471-3a57838bf399","0198b9d0-29d4-7df3-8625-4b4515841beb","{""num_scrambled_semantic"":""8"",""num_scrambled_causal"":""4"",""num_scrambled_schematic"":""4"",""participantId"":""626CC3D0137A4648BAFDDC3CD29B6885"",""assignmentId"":""0198b9f2-327b-7821-a471-3a57838bf399"",""projectId"":""0198b9d0-29d4-7df3-8625-4b4515841beb""}","https://test12345.live/?num_scrambled_semantic=8&num_scrambled_causal=4&num_scrambled_schematic=4&participantId=626CC3D0137A4648BAFDDC3CD29B6885&assignmentId=0198b9f2-327b-7821-a471-3a57838bf399&projectId=0198b9d0-29d4-7df3-8625-4b4515841beb","626CC3D0137A4648BAFDDC3CD29B6885-2025-08-17-22-12-16","","null","","images/causal_sequence/dog_causal/dog_causal_5.png","null","",""
"","","","","","image-button-response","73","593680","0.0-12.0-1.0-1.5","626CC3D0137A4648BAFDDC3CD29B6885","626CC3D0137A4648BAFDDC3CD29B6885","0198b9f2-327b-7821-a471-3a57838bf399","0198b9d0-29d4-7df3-8625-4b4515841beb","{""num_scrambled_semantic"":""8"",""num_scrambled_causal"":""4"",""num_scrambled_schematic"":""4"",""participantId"":""626CC3D0137A4648BAFDDC3CD29B6885"",""assignmentId"":""0198b9f2-327b-7821-a471-3a57838bf399"",""projectId"":""0198b9d0-29d4-7df3-8625-4b4515841beb""}","https://test12345.live/?num_scrambled_semantic=8&num_scrambled_causal=4&num_scrambled_schematic=4&participantId=626CC3D0137A4648BAFDDC3CD29B6885&assignmentId=0198b9f2-327b-7821-a471-3a57838bf399&projectId=0198b9d0-29d4-7df3-8625-4b4515841beb","626CC3D0137A4648BAFDDC3CD29B6885-2025-08-17-22-12-16","","1879","","images/causal_sequence/dog_causal/dog_causal_5.png","0","",""
"","","","","","image-button-response","74","599089","0.0-12.0-1.0-2.5","626CC3D0137A4648BAFDDC3CD29B6885","626CC3D0137A4648BAFDDC3CD29B6885","0198b9f2-327b-7821-a471-3a57838bf399","0198b9d0-29d4-7df3-8625-4b4515841beb","{""num_scrambled_semantic"":""8"",""num_scrambled_causal"":""4"",""num_scrambled_schematic"":""4"",""participantId"":""626CC3D0137A4648BAFDDC3CD29B6885"",""assignmentId"":""0198b9f2-327b-7821-a471-3a57838bf399"",""projectId"":""0198b9d0-29d4-7df3-8625-4b4515841beb""}","https://test12345.live/?num_scrambled_semantic=8&num_scrambled_causal=4&num_scrambled_schematic=4&participantId=626CC3D0137A4648BAFDDC3CD29B6885&assignmentId=0198b9f2-327b-7821-a471-3a57838bf399&projectId=0198b9d0-29d4-7df3-8625-4b4515841beb","626CC3D0137A4648BAFDDC3CD29B6885-2025-08-17-22-12-16","","null","","[]","null","",""
"","","","","","image-button-response","75","603605","0.0-12.0-1.0-0.6","626CC3D0137A4648BAFDDC3CD29B6885","626CC3D0137A4648BAFDDC3CD29B6885","0198b9f2-327b-7821-a471-3a57838bf399","0198b9d0-29d4-7df3-8625-4b4515841beb","{""num_scrambled_semantic"":""8"",""num_scrambled_causal"":""4"",""num_scrambled_schematic"":""4"",""participantId"":""626CC3D0137A4648BAFDDC3CD29B6885"",""assignmentId"":""0198b9f2-327b-7821-a471-3a57838bf399"",""projectId"":""0198b9d0-29d4-7df3-8625-4b4515841beb""}","https://test12345.live/?num_scrambled_semantic=8&num_scrambled_causal=4&num_scrambled_schematic=4&participantId=626CC3D0137A4648BAFDDC3CD29B6885&assignmentId=0198b9f2-327b-7821-a471-3a57838bf399&projectId=0198b9d0-29d4-7df3-8625-4b4515841beb","626CC3D0137A4648BAFDDC3CD29B6885-2025-08-17-22-12-16","","null","","images/causal_sequence/dog_causal/dog_causal_1.png","null","",""
"","","","","","image-button-response","76","604652","0.0-12.0-1.0-1.6","626CC3D0137A4648BAFDDC3CD29B6885","626CC3D0137A4648BAFDDC3CD29B6885","0198b9f2-327b-7821-a471-3a57838bf399","0198b9d0-29d4-7df3-8625-4b4515841beb","{""num_scrambled_semantic"":""8"",""num_scrambled_causal"":""4"",""num_scrambled_schematic"":""4"",""participantId"":""626CC3D0137A4648BAFDDC3CD29B6885"",""assignmentId"":""0198b9f2-327b-7821-a471-3a57838bf399"",""projectId"":""0198b9d0-29d4-7df3-8625-4b4515841beb""}","https://test12345.live/?num_scrambled_semantic=8&num_scrambled_causal=4&num_scrambled_schematic=4&participantId=626CC3D0137A4648BAFDDC3CD29B6885&assignmentId=0198b9f2-327b-7821-a471-3a57838bf399&projectId=0198b9d0-29d4-7df3-8625-4b4515841beb","626CC3D0137A4648BAFDDC3CD29B6885-2025-08-17-22-12-16","","1044","","images/causal_sequence/dog_causal/dog_causal_1.png","0","",""
"","","","","","image-button-response","77","610067","0.0-12.0-1.0-2.6","626CC3D0137A4648BAFDDC3CD29B6885","626CC3D0137A4648BAFDDC3CD29B6885","0198b9f2-327b-7821-a471-3a57838bf399","0198b9d0-29d4-7df3-8625-4b4515841beb","{""num_scrambled_semantic"":""8"",""num_scrambled_causal"":""4"",""num_scrambled_schematic"":""4"",""participantId"":""626CC3D0137A4648BAFDDC3CD29B6885"",""assignmentId"":""0198b9f2-327b-7821-a471-3a57838bf399"",""projectId"":""0198b9d0-29d4-7df3-8625-4b4515841beb""}","https://test12345.live/?num_scrambled_semantic=8&num_scrambled_causal=4&num_scrambled_schematic=4&participantId=626CC3D0137A4648BAFDDC3CD29B6885&assignmentId=0198b9f2-327b-7821-a471-3a57838bf399&projectId=0198b9d0-29d4-7df3-8625-4b4515841beb","626CC3D0137A4648BAFDDC3CD29B6885-2025-08-17-22-12-16","","null","","[]","null","",""
"","","","","","image-button-response","78","614578","0.0-12.0-1.0-0.7","626CC3D0137A4648BAFDDC3CD29B6885","626CC3D0137A4648BAFDDC3CD29B6885","0198b9f2-327b-7821-a471-3a57838bf399","0198b9d0-29d4-7df3-8625-4b4515841beb","{""num_scrambled_semantic"":""8"",""num_scrambled_causal"":""4"",""num_scrambled_schematic"":""4"",""participantId"":""626CC3D0137A4648BAFDDC3CD29B6885"",""assignmentId"":""0198b9f2-327b-7821-a471-3a57838bf399"",""projectId"":""0198b9d0-29d4-7df3-8625-4b4515841beb""}","https://test12345.live/?num_scrambled_semantic=8&num_scrambled_causal=4&num_scrambled_schematic=4&participantId=626CC3D0137A4648BAFDDC3CD29B6885&assignmentId=0198b9f2-327b-7821-a471-3a57838bf399&projectId=0198b9d0-29d4-7df3-8625-4b4515841beb","626CC3D0137A4648BAFDDC3CD29B6885-2025-08-17-22-12-16","","null","","images/causal_sequence/dog_causal/dog_causal_6.png","null","",""
"","","","","","image-button-response","79","615405","0.0-12.0-1.0-1.7","626CC3D0137A4648BAFDDC3CD29B6885","626CC3D0137A4648BAFDDC3CD29B6885","0198b9f2-327b-7821-a471-3a57838bf399","0198b9d0-29d4-7df3-8625-4b4515841beb","{""num_scrambled_semantic"":""8"",""num_scrambled_causal"":""4"",""num_scrambled_schematic"":""4"",""participantId"":""626CC3D0137A4648BAFDDC3CD29B6885"",""assignmentId"":""0198b9f2-327b-7821-a471-3a57838bf399"",""projectId"":""0198b9d0-29d4-7df3-8625-4b4515841beb""}","https://test12345.live/?num_scrambled_semantic=8&num_scrambled_causal=4&num_scrambled_schematic=4&participantId=626CC3D0137A4648BAFDDC3CD29B6885&assignmentId=0198b9f2-327b-7821-a471-3a57838bf399&projectId=0198b9d0-29d4-7df3-8625-4b4515841beb","626CC3D0137A4648BAFDDC3CD29B6885-2025-08-17-22-12-16","","824","","images/causal_sequence/dog_causal/dog_causal_6.png","0","",""
"","","","","","image-button-response","80","620814","0.0-12.0-1.0-2.7","626CC3D0137A4648BAFDDC3CD29B6885","626CC3D0137A4648BAFDDC3CD29B6885","0198b9f2-327b-7821-a471-3a57838bf399","0198b9d0-29d4-7df3-8625-4b4515841beb","{""num_scrambled_semantic"":""8"",""num_scrambled_causal"":""4"",""num_scrambled_schematic"":""4"",""participantId"":""626CC3D0137A4648BAFDDC3CD29B6885"",""assignmentId"":""0198b9f2-327b-7821-a471-3a57838bf399"",""projectId"":""0198b9d0-29d4-7df3-8625-4b4515841beb""}","https://test12345.live/?num_scrambled_semantic=8&num_scrambled_causal=4&num_scrambled_schematic=4&participantId=626CC3D0137A4648BAFDDC3CD29B6885&assignmentId=0198b9f2-327b-7821-a471-3a57838bf399&projectId=0198b9d0-29d4-7df3-8625-4b4515841beb","626CC3D0137A4648BAFDDC3CD29B6885-2025-08-17-22-12-16","","null","","[]","null","",""
"","","","","","image-button-response","81","625325","0.0-12.0-1.0-0.8","626CC3D0137A4648BAFDDC3CD29B6885","626CC3D0137A4648BAFDDC3CD29B6885","0198b9f2-327b-7821-a471-3a57838bf399","0198b9d0-29d4-7df3-8625-4b4515841beb","{""num_scrambled_semantic"":""8"",""num_scrambled_causal"":""4"",""num_scrambled_schematic"":""4"",""participantId"":""626CC3D0137A4648BAFDDC3CD29B6885"",""assignmentId"":""0198b9f2-327b-7821-a471-3a57838bf399"",""projectId"":""0198b9d0-29d4-7df3-8625-4b4515841beb""}","https://test12345.live/?num_scrambled_semantic=8&num_scrambled_causal=4&num_scrambled_schematic=4&participantId=626CC3D0137A4648BAFDDC3CD29B6885&assignmentId=0198b9f2-327b-7821-a471-3a57838bf399&projectId=0198b9d0-29d4-7df3-8625-4b4515841beb","626CC3D0137A4648BAFDDC3CD29B6885-2025-08-17-22-12-16","","null","","images/causal_sequence/dog_causal/dog_causal_9.png","null","",""
"","","","","","image-button-response","82","626046","0.0-12.0-1.0-1.8","626CC3D0137A4648BAFDDC3CD29B6885","626CC3D0137A4648BAFDDC3CD29B6885","0198b9f2-327b-7821-a471-3a57838bf399","0198b9d0-29d4-7df3-8625-4b4515841beb","{""num_scrambled_semantic"":""8"",""num_scrambled_causal"":""4"",""num_scrambled_schematic"":""4"",""participantId"":""626CC3D0137A4648BAFDDC3CD29B6885"",""assignmentId"":""0198b9f2-327b-7821-a471-3a57838bf399"",""projectId"":""0198b9d0-29d4-7df3-8625-4b4515841beb""}","https://test12345.live/?num_scrambled_semantic=8&num_scrambled_causal=4&num_scrambled_schematic=4&participantId=626CC3D0137A4648BAFDDC3CD29B6885&assignmentId=0198b9f2-327b-7821-a471-3a57838bf399&projectId=0198b9d0-29d4-7df3-8625-4b4515841beb","626CC3D0137A4648BAFDDC3CD29B6885-2025-08-17-22-12-16","","719","","images/causal_sequence/dog_causal/dog_causal_9.png","0","",""
"","","","","","image-button-response","83","631453","0.0-12.0-1.0-2.8","626CC3D0137A4648BAFDDC3CD29B6885","626CC3D0137A4648BAFDDC3CD29B6885","0198b9f2-327b-7821-a471-3a57838bf399","0198b9d0-29d4-7df3-8625-4b4515841beb","{""num_scrambled_semantic"":""8"",""num_scrambled_causal"":""4"",""num_scrambled_schematic"":""4"",""participantId"":""626CC3D0137A4648BAFDDC3CD29B6885"",""assignmentId"":""0198b9f2-327b-7821-a471-3a57838bf399"",""projectId"":""0198b9d0-29d4-7df3-8625-4b4515841beb""}","https://test12345.live/?num_scrambled_semantic=8&num_scrambled_causal=4&num_scrambled_schematic=4&participantId=626CC3D0137A4648BAFDDC3CD29B6885&assignmentId=0198b9f2-327b-7821-a471-3a57838bf399&projectId=0198b9d0-29d4-7df3-8625-4b4515841beb","626CC3D0137A4648BAFDDC3CD29B6885-2025-08-17-22-12-16","","null","","[]","null","",""
"","","","","","image-button-response","84","635970","0.0-12.0-1.0-0.9","626CC3D0137A4648BAFDDC3CD29B6885","626CC3D0137A4648BAFDDC3CD29B6885","0198b9f2-327b-7821-a471-3a57838bf399","0198b9d0-29d4-7df3-8625-4b4515841beb","{""num_scrambled_semantic"":""8"",""num_scrambled_causal"":""4"",""num_scrambled_schematic"":""4"",""participantId"":""626CC3D0137A4648BAFDDC3CD29B6885"",""assignmentId"":""0198b9f2-327b-7821-a471-3a57838bf399"",""projectId"":""0198b9d0-29d4-7df3-8625-4b4515841beb""}","https://test12345.live/?num_scrambled_semantic=8&num_scrambled_causal=4&num_scrambled_schematic=4&participantId=626CC3D0137A4648BAFDDC3CD29B6885&assignmentId=0198b9f2-327b-7821-a471-3a57838bf399&projectId=0198b9d0-29d4-7df3-8625-4b4515841beb","626CC3D0137A4648BAFDDC3CD29B6885-2025-08-17-22-12-16","","null","","images/causal_sequence/dog_causal/dog_causal_7.png","null","",""
"","","","","","image-button-response","85","636603","0.0-12.0-1.0-1.9","626CC3D0137A4648BAFDDC3CD29B6885","626CC3D0137A4648BAFDDC3CD29B6885","0198b9f2-327b-7821-a471-3a57838bf399","0198b9d0-29d4-7df3-8625-4b4515841beb","{""num_scrambled_semantic"":""8"",""num_scrambled_causal"":""4"",""num_scrambled_schematic"":""4"",""participantId"":""626CC3D0137A4648BAFDDC3CD29B6885"",""assignmentId"":""0198b9f2-327b-7821-a471-3a57838bf399"",""projectId"":""0198b9d0-29d4-7df3-8625-4b4515841beb""}","https://test12345.live/?num_scrambled_semantic=8&num_scrambled_causal=4&num_scrambled_schematic=4&participantId=626CC3D0137A4648BAFDDC3CD29B6885&assignmentId=0198b9f2-327b-7821-a471-3a57838bf399&projectId=0198b9d0-29d4-7df3-8625-4b4515841beb","626CC3D0137A4648BAFDDC3CD29B6885-2025-08-17-22-12-16","","632","","images/causal_sequence/dog_causal/dog_causal_7.png","0","",""
"","","","","","image-button-response","86","642012","0.0-12.0-1.0-2.9","626CC3D0137A4648BAFDDC3CD29B6885","626CC3D0137A4648BAFDDC3CD29B6885","0198b9f2-327b-7821-a471-3a57838bf399","0198b9d0-29d4-7df3-8625-4b4515841beb","{""num_scrambled_semantic"":""8"",""num_scrambled_causal"":""4"",""num_scrambled_schematic"":""4"",""participantId"":""626CC3D0137A4648BAFDDC3CD29B6885"",""assignmentId"":""0198b9f2-327b-7821-a471-3a57838bf399"",""projectId"":""0198b9d0-29d4-7df3-8625-4b4515841beb""}","https://test12345.live/?num_scrambled_semantic=8&num_scrambled_causal=4&num_scrambled_schematic=4&participantId=626CC3D0137A4648BAFDDC3CD29B6885&assignmentId=0198b9f2-327b-7821-a471-3a57838bf399&projectId=0198b9d0-29d4-7df3-8625-4b4515841beb","626CC3D0137A4648BAFDDC3CD29B6885-2025-08-17-22-12-16","","null","","[]","null","",""
"","","","","","html-audio-response","87","689248","0.0-13.0","626CC3D0137A4648BAFDDC3CD29B6885","626CC3D0137A4648BAFDDC3CD29B6885","0198b9f2-327b-7821-a471-3a57838bf399","0198b9d0-29d4-7df3-8625-4b4515841beb","{""num_scrambled_semantic"":""8"",""num_scrambled_causal"":""4"",""num_scrambled_schematic"":""4"",""participantId"":""626CC3D0137A4648BAFDDC3CD29B6885"",""assignmentId"":""0198b9f2-327b-7821-a471-3a57838bf399"",""projectId"":""0198b9d0-29d4-7df3-8625-4b4515841beb""}","https://test12345.live/?num_scrambled_semantic=8&num_scrambled_causal=4&num_scrambled_schematic=4&participantId=626CC3D0137A4648BAFDDC3CD29B6885&assignmentId=0198b9f2-327b-7821-a471-3a57838bf399&projectId=0198b9d0-29d4-7df3-8625-4b4515841beb","626CC3D0137A4648BAFDDC3CD29B6885-2025-08-17-22-12-16","","37910","","[""<span style=\""color: red; font-size: 24px\""> NOW RECORDING</span><p>Please say out loud all the images you saw, as many as you can remember. The images can be said in any order.</p>""]","","3","dog_causal"
"","","","","","image-button-response","88","695272","0.0-14.0-0.0","626CC3D0137A4648BAFDDC3CD29B6885","626CC3D0137A4648BAFDDC3CD29B6885","0198b9f2-327b-7821-a471-3a57838bf399","0198b9d0-29d4-7df3-8625-4b4515841beb","{""num_scrambled_semantic"":""8"",""num_scrambled_causal"":""4"",""num_scrambled_schematic"":""4"",""participantId"":""626CC3D0137A4648BAFDDC3CD29B6885"",""assignmentId"":""0198b9f2-327b-7821-a471-3a57838bf399"",""projectId"":""0198b9d0-29d4-7df3-8625-4b4515841beb""}","https://test12345.live/?num_scrambled_semantic=8&num_scrambled_causal=4&num_scrambled_schematic=4&participantId=626CC3D0137A4648BAFDDC3CD29B6885&assignmentId=0198b9f2-327b-7821-a471-3a57838bf399&projectId=0198b9d0-29d4-7df3-8625-4b4515841beb","626CC3D0137A4648BAFDDC3CD29B6885-2025-08-17-22-12-16","","null","","images/causal_sequence/museum_causal/museum_causal_0.png","null","",""
"","","","","","image-button-response","89","699775","0.0-14.0-1.0-0.0","626CC3D0137A4648BAFDDC3CD29B6885","626CC3D0137A4648BAFDDC3CD29B6885","0198b9f2-327b-7821-a471-3a57838bf399","0198b9d0-29d4-7df3-8625-4b4515841beb","{""num_scrambled_semantic"":""8"",""num_scrambled_causal"":""4"",""num_scrambled_schematic"":""4"",""participantId"":""626CC3D0137A4648BAFDDC3CD29B6885"",""assignmentId"":""0198b9f2-327b-7821-a471-3a57838bf399"",""projectId"":""0198b9d0-29d4-7df3-8625-4b4515841beb""}","https://test12345.live/?num_scrambled_semantic=8&num_scrambled_causal=4&num_scrambled_schematic=4&participantId=626CC3D0137A4648BAFDDC3CD29B6885&assignmentId=0198b9f2-327b-7821-a471-3a57838bf399&projectId=0198b9d0-29d4-7df3-8625-4b4515841beb","626CC3D0137A4648BAFDDC3CD29B6885-2025-08-17-22-12-16","","null","","images/causal_sequence/museum_causal/museum_causal_4.png","null","",""
"","","","","","image-button-response","90","701225","0.0-14.0-1.0-1.0","626CC3D0137A4648BAFDDC3CD29B6885","626CC3D0137A4648BAFDDC3CD29B6885","0198b9f2-327b-7821-a471-3a57838bf399","0198b9d0-29d4-7df3-8625-4b4515841beb","{""num_scrambled_semantic"":""8"",""num_scrambled_causal"":""4"",""num_scrambled_schematic"":""4"",""participantId"":""626CC3D0137A4648BAFDDC3CD29B6885"",""assignmentId"":""0198b9f2-327b-7821-a471-3a57838bf399"",""projectId"":""0198b9d0-29d4-7df3-8625-4b4515841beb""}","https://test12345.live/?num_scrambled_semantic=8&num_scrambled_causal=4&num_scrambled_schematic=4&participantId=626CC3D0137A4648BAFDDC3CD29B6885&assignmentId=0198b9f2-327b-7821-a471-3a57838bf399&projectId=0198b9d0-29d4-7df3-8625-4b4515841beb","626CC3D0137A4648BAFDDC3CD29B6885-2025-08-17-22-12-16","","1448","","images/causal_sequence/museum_causal/museum_causal_4.png","1","",""
"","","","","","image-button-response","91","706628","0.0-14.0-1.0-2.0","626CC3D0137A4648BAFDDC3CD29B6885","626CC3D0137A4648BAFDDC3CD29B6885","0198b9f2-327b-7821-a471-3a57838bf399","0198b9d0-29d4-7df3-8625-4b4515841beb","{""num_scrambled_semantic"":""8"",""num_scrambled_causal"":""4"",""num_scrambled_schematic"":""4"",""participantId"":""626CC3D0137A4648BAFDDC3CD29B6885"",""assignmentId"":""0198b9f2-327b-7821-a471-3a57838bf399"",""projectId"":""0198b9d0-29d4-7df3-8625-4b4515841beb""}","https://test12345.live/?num_scrambled_semantic=8&num_scrambled_causal=4&num_scrambled_schematic=4&participantId=626CC3D0137A4648BAFDDC3CD29B6885&assignmentId=0198b9f2-327b-7821-a471-3a57838bf399&projectId=0198b9d0-29d4-7df3-8625-4b4515841beb","626CC3D0137A4648BAFDDC3CD29B6885-2025-08-17-22-12-16","","null","","[]","null","",""
"","","","","","image-button-response","92","711135","0.0-14.0-1.0-0.1","626CC3D0137A4648BAFDDC3CD29B6885","626CC3D0137A4648BAFDDC3CD29B6885","0198b9f2-327b-7821-a471-3a57838bf399","0198b9d0-29d4-7df3-8625-4b4515841beb","{""num_scrambled_semantic"":""8"",""num_scrambled_causal"":""4"",""num_scrambled_schematic"":""4"",""participantId"":""626CC3D0137A4648BAFDDC3CD29B6885"",""assignmentId"":""0198b9f2-327b-7821-a471-3a57838bf399"",""projectId"":""0198b9d0-29d4-7df3-8625-4b4515841beb""}","https://test12345.live/?num_scrambled_semantic=8&num_scrambled_causal=4&num_scrambled_schematic=4&participantId=626CC3D0137A4648BAFDDC3CD29B6885&assignmentId=0198b9f2-327b-7821-a471-3a57838bf399&projectId=0198b9d0-29d4-7df3-8625-4b4515841beb","626CC3D0137A4648BAFDDC3CD29B6885-2025-08-17-22-12-16","","null","","images/causal_sequence/museum_causal/museum_causal_9.png","null","",""
"","","","","","image-button-response","93","712538","0.0-14.0-1.0-1.1","626CC3D0137A4648BAFDDC3CD29B6885","626CC3D0137A4648BAFDDC3CD29B6885","0198b9f2-327b-7821-a471-3a57838bf399","0198b9d0-29d4-7df3-8625-4b4515841beb","{""num_scrambled_semantic"":""8"",""num_scrambled_causal"":""4"",""num_scrambled_schematic"":""4"",""participantId"":""626CC3D0137A4648BAFDDC3CD29B6885"",""assignmentId"":""0198b9f2-327b-7821-a471-3a57838bf399"",""projectId"":""0198b9d0-29d4-7df3-8625-4b4515841beb""}","https://test12345.live/?num_scrambled_semantic=8&num_scrambled_causal=4&num_scrambled_schematic=4&participantId=626CC3D0137A4648BAFDDC3CD29B6885&assignmentId=0198b9f2-327b-7821-a471-3a57838bf399&projectId=0198b9d0-29d4-7df3-8625-4b4515841beb","626CC3D0137A4648BAFDDC3CD29B6885-2025-08-17-22-12-16","","1400","","images/causal_sequence/museum_causal/museum_causal_9.png","1","",""
"","","","","","image-button-response","94","717945","0.0-14.0-1.0-2.1","626CC3D0137A4648BAFDDC3CD29B6885","626CC3D0137A4648BAFDDC3CD29B6885","0198b9f2-327b-7821-a471-3a57838bf399","0198b9d0-29d4-7df3-8625-4b4515841beb","{""num_scrambled_semantic"":""8"",""num_scrambled_causal"":""4"",""num_scrambled_schematic"":""4"",""participantId"":""626CC3D0137A4648BAFDDC3CD29B6885"",""assignmentId"":""0198b9f2-327b-7821-a471-3a57838bf399"",""projectId"":""0198b9d0-29d4-7df3-8625-4b4515841beb""}","https://test12345.live/?num_scrambled_semantic=8&num_scrambled_causal=4&num_scrambled_schematic=4&participantId=626CC3D0137A4648BAFDDC3CD29B6885&assignmentId=0198b9f2-327b-7821-a471-3a57838bf399&projectId=0198b9d0-29d4-7df3-8625-4b4515841beb","626CC3D0137A4648BAFDDC3CD29B6885-2025-08-17-22-12-16","","null","","[]","null","",""
"","","","","","image-button-response","95","722456","0.0-14.0-1.0-0.2","626CC3D0137A4648BAFDDC3CD29B6885","626CC3D0137A4648BAFDDC3CD29B6885","0198b9f2-327b-7821-a471-3a57838bf399","0198b9d0-29d4-7df3-8625-4b4515841beb","{""num_scrambled_semantic"":""8"",""num_scrambled_causal"":""4"",""num_scrambled_schematic"":""4"",""participantId"":""626CC3D0137A4648BAFDDC3CD29B6885"",""assignmentId"":""0198b9f2-327b-7821-a471-3a57838bf399"",""projectId"":""0198b9d0-29d4-7df3-8625-4b4515841beb""}","https://test12345.live/?num_scrambled_semantic=8&num_scrambled_causal=4&num_scrambled_schematic=4&participantId=626CC3D0137A4648BAFDDC3CD29B6885&assignmentId=0198b9f2-327b-7821-a471-3a57838bf399&projectId=0198b9d0-29d4-7df3-8625-4b4515841beb","626CC3D0137A4648BAFDDC3CD29B6885-2025-08-17-22-12-16","","null","","images/causal_sequence/museum_causal/museum_causal_1.png","null","",""
"","","","","","image-button-response","96","724141","0.0-14.0-1.0-1.2","626CC3D0137A4648BAFDDC3CD29B6885","626CC3D0137A4648BAFDDC3CD29B6885","0198b9f2-327b-7821-a471-3a57838bf399","0198b9d0-29d4-7df3-8625-4b4515841beb","{""num_scrambled_semantic"":""8"",""num_scrambled_causal"":""4"",""num_scrambled_schematic"":""4"",""participantId"":""626CC3D0137A4648BAFDDC3CD29B6885"",""assignmentId"":""0198b9f2-327b-7821-a471-3a57838bf399"",""projectId"":""0198b9d0-29d4-7df3-8625-4b4515841beb""}","https://test12345.live/?num_scrambled_semantic=8&num_scrambled_causal=4&num_scrambled_schematic=4&participantId=626CC3D0137A4648BAFDDC3CD29B6885&assignmentId=0198b9f2-327b-7821-a471-3a57838bf399&projectId=0198b9d0-29d4-7df3-8625-4b4515841beb","626CC3D0137A4648BAFDDC3CD29B6885-2025-08-17-22-12-16","","1682","","images/causal_sequence/museum_causal/museum_causal_1.png","0","",""
"","","","","","image-button-response","97","729551","0.0-14.0-1.0-2.2","626CC3D0137A4648BAFDDC3CD29B6885","626CC3D0137A4648BAFDDC3CD29B6885","0198b9f2-327b-7821-a471-3a57838bf399","0198b9d0-29d4-7df3-8625-4b4515841beb","{""num_scrambled_semantic"":""8"",""num_scrambled_causal"":""4"",""num_scrambled_schematic"":""4"",""participantId"":""626CC3D0137A4648BAFDDC3CD29B6885"",""assignmentId"":""0198b9f2-327b-7821-a471-3a57838bf399"",""projectId"":""0198b9d0-29d4-7df3-8625-4b4515841beb""}","https://test12345.live/?num_scrambled_semantic=8&num_scrambled_causal=4&num_scrambled_schematic=4&participantId=626CC3D0137A4648BAFDDC3CD29B6885&assignmentId=0198b9f2-327b-7821-a471-3a57838bf399&projectId=0198b9d0-29d4-7df3-8625-4b4515841beb","626CC3D0137A4648BAFDDC3CD29B6885-2025-08-17-22-12-16","","null","","[]","null","",""
"","","","","","image-button-response","98","734068","0.0-14.0-1.0-0.3","626CC3D0137A4648BAFDDC3CD29B6885","626CC3D0137A4648BAFDDC3CD29B6885","0198b9f2-327b-7821-a471-3a57838bf399","0198b9d0-29d4-7df3-8625-4b4515841beb","{""num_scrambled_semantic"":""8"",""num_scrambled_causal"":""4"",""num_scrambled_schematic"":""4"",""participantId"":""626CC3D0137A4648BAFDDC3CD29B6885"",""assignmentId"":""0198b9f2-327b-7821-a471-3a57838bf399"",""projectId"":""0198b9d0-29d4-7df3-8625-4b4515841beb""}","https://test12345.live/?num_scrambled_semantic=8&num_scrambled_causal=4&num_scrambled_schematic=4&participantId=626CC3D0137A4648BAFDDC3CD29B6885&assignmentId=0198b9f2-327b-7821-a471-3a57838bf399&projectId=0198b9d0-29d4-7df3-8625-4b4515841beb","626CC3D0137A4648BAFDDC3CD29B6885-2025-08-17-22-12-16","","null","","images/causal_sequence/museum_causal/museum_causal_5.png","null","",""
"","","","","","image-button-response","99","735823","0.0-14.0-1.0-1.3","626CC3D0137A4648BAFDDC3CD29B6885","626CC3D0137A4648BAFDDC3CD29B6885","0198b9f2-327b-7821-a471-3a57838bf399","0198b9d0-29d4-7df3-8625-4b4515841beb","{""num_scrambled_semantic"":""8"",""num_scrambled_causal"":""4"",""num_scrambled_schematic"":""4"",""participantId"":""626CC3D0137A4648BAFDDC3CD29B6885"",""assignmentId"":""0198b9f2-327b-7821-a471-3a57838bf399"",""projectId"":""0198b9d0-29d4-7df3-8625-4b4515841beb""}","https://test12345.live/?num_scrambled_semantic=8&num_scrambled_causal=4&num_scrambled_schematic=4&participantId=626CC3D0137A4648BAFDDC3CD29B6885&assignmentId=0198b9f2-327b-7821-a471-3a57838bf399&projectId=0198b9d0-29d4-7df3-8625-4b4515841beb","626CC3D0137A4648BAFDDC3CD29B6885-2025-08-17-22-12-16","","1754","","images/causal_sequence/museum_causal/museum_causal_5.png","0","",""
"","","","","","image-button-response","100","741239","0.0-14.0-1.0-2.3","626CC3D0137A4648BAFDDC3CD29B6885","626CC3D0137A4648BAFDDC3CD29B6885","0198b9f2-327b-7821-a471-3a57838bf399","0198b9d0-29d4-7df3-8625-4b4515841beb","{""num_scrambled_semantic"":""8"",""num_scrambled_causal"":""4"",""num_scrambled_schematic"":""4"",""participantId"":""626CC3D0137A4648BAFDDC3CD29B6885"",""assignmentId"":""0198b9f2-327b-7821-a471-3a57838bf399"",""projectId"":""0198b9d0-29d4-7df3-8625-4b4515841beb""}","https://test12345.live/?num_scrambled_semantic=8&num_scrambled_causal=4&num_scrambled_schematic=4&participantId=626CC3D0137A4648BAFDDC3CD29B6885&assignmentId=0198b9f2-327b-7821-a471-3a57838bf399&projectId=0198b9d0-29d4-7df3-8625-4b4515841beb","626CC3D0137A4648BAFDDC3CD29B6885-2025-08-17-22-12-16","","null","","[]","null","",""
"","","","","","image-button-response","101","745747","0.0-14.0-1.0-0.4","626CC3D0137A4648BAFDDC3CD29B6885","626CC3D0137A4648BAFDDC3CD29B6885","0198b9f2-327b-7821-a471-3a57838bf399","0198b9d0-29d4-7df3-8625-4b4515841beb","{""num_scrambled_semantic"":""8"",""num_scrambled_causal"":""4"",""num_scrambled_schematic"":""4"",""participantId"":""626CC3D0137A4648BAFDDC3CD29B6885"",""assignmentId"":""0198b9f2-327b-7821-a471-3a57838bf399"",""projectId"":""0198b9d0-29d4-7df3-8625-4b4515841beb""}","https://test12345.live/?num_scrambled_semantic=8&num_scrambled_causal=4&num_scrambled_schematic=4&participantId=626CC3D0137A4648BAFDDC3CD29B6885&assignmentId=0198b9f2-327b-7821-a471-3a57838bf399&projectId=0198b9d0-29d4-7df3-8625-4b4515841beb","626CC3D0137A4648BAFDDC3CD29B6885-2025-08-17-22-12-16","","null","","images/causal_sequence/museum_causal/museum_causal_3.png","null","",""
"","","","","","image-button-response","102","747233","0.0-14.0-1.0-1.4","626CC3D0137A4648BAFDDC3CD29B6885","626CC3D0137A4648BAFDDC3CD29B6885","0198b9f2-327b-7821-a471-3a57838bf399","0198b9d0-29d4-7df3-8625-4b4515841beb","{""num_scrambled_semantic"":""8"",""num_scrambled_causal"":""4"",""num_scrambled_schematic"":""4"",""participantId"":""626CC3D0137A4648BAFDDC3CD29B6885"",""assignmentId"":""0198b9f2-327b-7821-a471-3a57838bf399"",""projectId"":""0198b9d0-29d4-7df3-8625-4b4515841beb""}","https://test12345.live/?num_scrambled_semantic=8&num_scrambled_causal=4&num_scrambled_schematic=4&participantId=626CC3D0137A4648BAFDDC3CD29B6885&assignmentId=0198b9f2-327b-7821-a471-3a57838bf399&projectId=0198b9d0-29d4-7df3-8625-4b4515841beb","626CC3D0137A4648BAFDDC3CD29B6885-2025-08-17-22-12-16","","1483","","images/causal_sequence/museum_causal/museum_causal_3.png","0","",""
"","","","","","image-button-response","103","752638","0.0-14.0-1.0-2.4","626CC3D0137A4648BAFDDC3CD29B6885","626CC3D0137A4648BAFDDC3CD29B6885","0198b9f2-327b-7821-a471-3a57838bf399","0198b9d0-29d4-7df3-8625-4b4515841beb","{""num_scrambled_semantic"":""8"",""num_scrambled_causal"":""4"",""num_scrambled_schematic"":""4"",""participantId"":""626CC3D0137A4648BAFDDC3CD29B6885"",""assignmentId"":""0198b9f2-327b-7821-a471-3a57838bf399"",""projectId"":""0198b9d0-29d4-7df3-8625-4b4515841beb""}","https://test12345.live/?num_scrambled_semantic=8&num_scrambled_causal=4&num_scrambled_schematic=4&participantId=626CC3D0137A4648BAFDDC3CD29B6885&assignmentId=0198b9f2-327b-7821-a471-3a57838bf399&projectId=0198b9d0-29d4-7df3-8625-4b4515841beb","626CC3D0137A4648BAFDDC3CD29B6885-2025-08-17-22-12-16","","null","","[]","null","",""
"","","","","","image-button-response","104","757144","0.0-14.0-1.0-0.5","626CC3D0137A4648BAFDDC3CD29B6885","626CC3D0137A4648BAFDDC3CD29B6885","0198b9f2-327b-7821-a471-3a57838bf399","0198b9d0-29d4-7df3-8625-4b4515841beb","{""num_scrambled_semantic"":""8"",""num_scrambled_causal"":""4"",""num_scrambled_schematic"":""4"",""participantId"":""626CC3D0137A4648BAFDDC3CD29B6885"",""assignmentId"":""0198b9f2-327b-7821-a471-3a57838bf399"",""projectId"":""0198b9d0-29d4-7df3-8625-4b4515841beb""}","https://test12345.live/?num_scrambled_semantic=8&num_scrambled_causal=4&num_scrambled_schematic=4&participantId=626CC3D0137A4648BAFDDC3CD29B6885&assignmentId=0198b9f2-327b-7821-a471-3a57838bf399&projectId=0198b9d0-29d4-7df3-8625-4b4515841beb","626CC3D0137A4648BAFDDC3CD29B6885-2025-08-17-22-12-16","","null","","images/causal_sequence/museum_causal/museum_causal_7.png","null","",""
"","","","","","image-button-response","105","758134","0.0-14.0-1.0-1.5","626CC3D0137A4648BAFDDC3CD29B6885","626CC3D0137A4648BAFDDC3CD29B6885","0198b9f2-327b-7821-a471-3a57838bf399","0198b9d0-29d4-7df3-8625-4b4515841beb","{""num_scrambled_semantic"":""8"",""num_scrambled_causal"":""4"",""num_scrambled_schematic"":""4"",""participantId"":""626CC3D0137A4648BAFDDC3CD29B6885"",""assignmentId"":""0198b9f2-327b-7821-a471-3a57838bf399"",""projectId"":""0198b9d0-29d4-7df3-8625-4b4515841beb""}","https://test12345.live/?num_scrambled_semantic=8&num_scrambled_causal=4&num_scrambled_schematic=4&participantId=626CC3D0137A4648BAFDDC3CD29B6885&assignmentId=0198b9f2-327b-7821-a471-3a57838bf399&projectId=0198b9d0-29d4-7df3-8625-4b4515841beb","626CC3D0137A4648BAFDDC3CD29B6885-2025-08-17-22-12-16","","988","","images/causal_sequence/museum_causal/museum_causal_7.png","0","",""
"","","","","","image-button-response","106","763538","0.0-14.0-1.0-2.5","626CC3D0137A4648BAFDDC3CD29B6885","626CC3D0137A4648BAFDDC3CD29B6885","0198b9f2-327b-7821-a471-3a57838bf399","0198b9d0-29d4-7df3-8625-4b4515841beb","{""num_scrambled_semantic"":""8"",""num_scrambled_causal"":""4"",""num_scrambled_schematic"":""4"",""participantId"":""626CC3D0137A4648BAFDDC3CD29B6885"",""assignmentId"":""0198b9f2-327b-7821-a471-3a57838bf399"",""projectId"":""0198b9d0-29d4-7df3-8625-4b4515841beb""}","https://test12345.live/?num_scrambled_semantic=8&num_scrambled_causal=4&num_scrambled_schematic=4&participantId=626CC3D0137A4648BAFDDC3CD29B6885&assignmentId=0198b9f2-327b-7821-a471-3a57838bf399&projectId=0198b9d0-29d4-7df3-8625-4b4515841beb","626CC3D0137A4648BAFDDC3CD29B6885-2025-08-17-22-12-16","","null","","[]","null","",""
"","","","","","image-button-response","107","768042","0.0-14.0-1.0-0.6","626CC3D0137A4648BAFDDC3CD29B6885","626CC3D0137A4648BAFDDC3CD29B6885","0198b9f2-327b-7821-a471-3a57838bf399","0198b9d0-29d4-7df3-8625-4b4515841beb","{""num_scrambled_semantic"":""8"",""num_scrambled_causal"":""4"",""num_scrambled_schematic"":""4"",""participantId"":""626CC3D0137A4648BAFDDC3CD29B6885"",""assignmentId"":""0198b9f2-327b-7821-a471-3a57838bf399"",""projectId"":""0198b9d0-29d4-7df3-8625-4b4515841beb""}","https://test12345.live/?num_scrambled_semantic=8&num_scrambled_causal=4&num_scrambled_schematic=4&participantId=626CC3D0137A4648BAFDDC3CD29B6885&assignmentId=0198b9f2-327b-7821-a471-3a57838bf399&projectId=0198b9d0-29d4-7df3-8625-4b4515841beb","626CC3D0137A4648BAFDDC3CD29B6885-2025-08-17-22-12-16","","null","","images/causal_sequence/museum_causal/museum_causal_ten.png","null","",""
"","","","","","image-button-response","108","769679","0.0-14.0-1.0-1.6","626CC3D0137A4648BAFDDC3CD29B6885","626CC3D0137A4648BAFDDC3CD29B6885","0198b9f2-327b-7821-a471-3a57838bf399","0198b9d0-29d4-7df3-8625-4b4515841beb","{""num_scrambled_semantic"":""8"",""num_scrambled_causal"":""4"",""num_scrambled_schematic"":""4"",""participantId"":""626CC3D0137A4648BAFDDC3CD29B6885"",""assignmentId"":""0198b9f2-327b-7821-a471-3a57838bf399"",""projectId"":""0198b9d0-29d4-7df3-8625-4b4515841beb""}","https://test12345.live/?num_scrambled_semantic=8&num_scrambled_causal=4&num_scrambled_schematic=4&participantId=626CC3D0137A4648BAFDDC3CD29B6885&assignmentId=0198b9f2-327b-7821-a471-3a57838bf399&projectId=0198b9d0-29d4-7df3-8625-4b4515841beb","626CC3D0137A4648BAFDDC3CD29B6885-2025-08-17-22-12-16","","1635","","images/causal_sequence/museum_causal/museum_causal_ten.png","0","",""
"","","","","","image-button-response","109","775087","0.0-14.0-1.0-2.6","626CC3D0137A4648BAFDDC3CD29B6885","626CC3D0137A4648BAFDDC3CD29B6885","0198b9f2-327b-7821-a471-3a57838bf399","0198b9d0-29d4-7df3-8625-4b4515841beb","{""num_scrambled_semantic"":""8"",""num_scrambled_causal"":""4"",""num_scrambled_schematic"":""4"",""participantId"":""626CC3D0137A4648BAFDDC3CD29B6885"",""assignmentId"":""0198b9f2-327b-7821-a471-3a57838bf399"",""projectId"":""0198b9d0-29d4-7df3-8625-4b4515841beb""}","https://test12345.live/?num_scrambled_semantic=8&num_scrambled_causal=4&num_scrambled_schematic=4&participantId=626CC3D0137A4648BAFDDC3CD29B6885&assignmentId=0198b9f2-327b-7821-a471-3a57838bf399&projectId=0198b9d0-29d4-7df3-8625-4b4515841beb","626CC3D0137A4648BAFDDC3CD29B6885-2025-08-17-22-12-16","","null","","[]","null","",""
"","","","","","image-button-response","110","779593","0.0-14.0-1.0-0.7","626CC3D0137A4648BAFDDC3CD29B6885","626CC3D0137A4648BAFDDC3CD29B6885","0198b9f2-327b-7821-a471-3a57838bf399","0198b9d0-29d4-7df3-8625-4b4515841beb","{""num_scrambled_semantic"":""8"",""num_scrambled_causal"":""4"",""num_scrambled_schematic"":""4"",""participantId"":""626CC3D0137A4648BAFDDC3CD29B6885"",""assignmentId"":""0198b9f2-327b-7821-a471-3a57838bf399"",""projectId"":""0198b9d0-29d4-7df3-8625-4b4515841beb""}","https://test12345.live/?num_scrambled_semantic=8&num_scrambled_causal=4&num_scrambled_schematic=4&participantId=626CC3D0137A4648BAFDDC3CD29B6885&assignmentId=0198b9f2-327b-7821-a471-3a57838bf399&projectId=0198b9d0-29d4-7df3-8625-4b4515841beb","626CC3D0137A4648BAFDDC3CD29B6885-2025-08-17-22-12-16","","null","","images/causal_sequence/museum_causal/museum_causal_8.png","null","",""
"","","","","","image-button-response","111","781464","0.0-14.0-1.0-1.7","626CC3D0137A4648BAFDDC3CD29B6885","626CC3D0137A4648BAFDDC3CD29B6885","0198b9f2-327b-7821-a471-3a57838bf399","0198b9d0-29d4-7df3-8625-4b4515841beb","{""num_scrambled_semantic"":""8"",""num_scrambled_causal"":""4"",""num_scrambled_schematic"":""4"",""participantId"":""626CC3D0137A4648BAFDDC3CD29B6885"",""assignmentId"":""0198b9f2-327b-7821-a471-3a57838bf399"",""projectId"":""0198b9d0-29d4-7df3-8625-4b4515841beb""}","https://test12345.live/?num_scrambled_semantic=8&num_scrambled_causal=4&num_scrambled_schematic=4&participantId=626CC3D0137A4648BAFDDC3CD29B6885&assignmentId=0198b9f2-327b-7821-a471-3a57838bf399&projectId=0198b9d0-29d4-7df3-8625-4b4515841beb","626CC3D0137A4648BAFDDC3CD29B6885-2025-08-17-22-12-16","","1868","","images/causal_sequence/museum_causal/museum_causal_8.png","0","",""
"","","","","","image-button-response","112","786880","0.0-14.0-1.0-2.7","626CC3D0137A4648BAFDDC3CD29B6885","626CC3D0137A4648BAFDDC3CD29B6885","0198b9f2-327b-7821-a471-3a57838bf399","0198b9d0-29d4-7df3-8625-4b4515841beb","{""num_scrambled_semantic"":""8"",""num_scrambled_causal"":""4"",""num_scrambled_schematic"":""4"",""participantId"":""626CC3D0137A4648BAFDDC3CD29B6885"",""assignmentId"":""0198b9f2-327b-7821-a471-3a57838bf399"",""projectId"":""0198b9d0-29d4-7df3-8625-4b4515841beb""}","https://test12345.live/?num_scrambled_semantic=8&num_scrambled_causal=4&num_scrambled_schematic=4&participantId=626CC3D0137A4648BAFDDC3CD29B6885&assignmentId=0198b9f2-327b-7821-a471-3a57838bf399&projectId=0198b9d0-29d4-7df3-8625-4b4515841beb","626CC3D0137A4648BAFDDC3CD29B6885-2025-08-17-22-12-16","","null","","[]","null","",""
"","","","","","image-button-response","113","791382","0.0-14.0-1.0-0.8","626CC3D0137A4648BAFDDC3CD29B6885","626CC3D0137A4648BAFDDC3CD29B6885","0198b9f2-327b-7821-a471-3a57838bf399","0198b9d0-29d4-7df3-8625-4b4515841beb","{""num_scrambled_semantic"":""8"",""num_scrambled_causal"":""4"",""num_scrambled_schematic"":""4"",""participantId"":""626CC3D0137A4648BAFDDC3CD29B6885"",""assignmentId"":""0198b9f2-327b-7821-a471-3a57838bf399"",""projectId"":""0198b9d0-29d4-7df3-8625-4b4515841beb""}","https://test12345.live/?num_scrambled_semantic=8&num_scrambled_causal=4&num_scrambled_schematic=4&participantId=626CC3D0137A4648BAFDDC3CD29B6885&assignmentId=0198b9f2-327b-7821-a471-3a57838bf399&projectId=0198b9d0-29d4-7df3-8625-4b4515841beb","626CC3D0137A4648BAFDDC3CD29B6885-2025-08-17-22-12-16","","null","","images/causal_sequence/museum_causal/museum_causal_2.png","null","",""
"","","","","","image-button-response","114","792132","0.0-14.0-1.0-1.8","626CC3D0137A4648BAFDDC3CD29B6885","626CC3D0137A4648BAFDDC3CD29B6885","0198b9f2-327b-7821-a471-3a57838bf399","0198b9d0-29d4-7df3-8625-4b4515841beb","{""num_scrambled_semantic"":""8"",""num_scrambled_causal"":""4"",""num_scrambled_schematic"":""4"",""participantId"":""626CC3D0137A4648BAFDDC3CD29B6885"",""assignmentId"":""0198b9f2-327b-7821-a471-3a57838bf399"",""projectId"":""0198b9d0-29d4-7df3-8625-4b4515841beb""}","https://test12345.live/?num_scrambled_semantic=8&num_scrambled_causal=4&num_scrambled_schematic=4&participantId=626CC3D0137A4648BAFDDC3CD29B6885&assignmentId=0198b9f2-327b-7821-a471-3a57838bf399&projectId=0198b9d0-29d4-7df3-8625-4b4515841beb","626CC3D0137A4648BAFDDC3CD29B6885-2025-08-17-22-12-16","","747","","images/causal_sequence/museum_causal/museum_causal_2.png","0","",""
"","","","","","image-button-response","115","797545","0.0-14.0-1.0-2.8","626CC3D0137A4648BAFDDC3CD29B6885","626CC3D0137A4648BAFDDC3CD29B6885","0198b9f2-327b-7821-a471-3a57838bf399","0198b9d0-29d4-7df3-8625-4b4515841beb","{""num_scrambled_semantic"":""8"",""num_scrambled_causal"":""4"",""num_scrambled_schematic"":""4"",""participantId"":""626CC3D0137A4648BAFDDC3CD29B6885"",""assignmentId"":""0198b9f2-327b-7821-a471-3a57838bf399"",""projectId"":""0198b9d0-29d4-7df3-8625-4b4515841beb""}","https://test12345.live/?num_scrambled_semantic=8&num_scrambled_causal=4&num_scrambled_schematic=4&participantId=626CC3D0137A4648BAFDDC3CD29B6885&assignmentId=0198b9f2-327b-7821-a471-3a57838bf399&projectId=0198b9d0-29d4-7df3-8625-4b4515841beb","626CC3D0137A4648BAFDDC3CD29B6885-2025-08-17-22-12-16","","null","","[]","null","",""
