"success","timeout","failed_images","failed_audio","failed_video","trial_type","trial_index","time_elapsed","internal_node_id","subject","subject_id","study_id","session_id","urlvar","current_url","audio_id","view_history","rt","device_id","stimulus","response","estimated_stimulus_onset","seq_name"
"true","false","[]","[]","[]","preload","0","67021","0.0-0.0","6462D588260B4356936047A04A336EBE","6462D588260B4356936047A04A336EBE","0198ed29-f289-7e25-a321-14c8d1b85292","0198ed26-a6a7-793d-982a-8940a71ab262","{""num_scrambled_semantic"":""8"",""num_scrambled_causal"":""4"",""num_scrambled_schematic"":""4"",""participantId"":""6462D588260B4356936047A04A336EBE"",""assignmentId"":""0198ed29-f289-7e25-a321-14c8d1b85292"",""projectId"":""0198ed26-a6a7-793d-982a-8940a71ab262""}","https://test12345.live/?num_scrambled_semantic=8&num_scrambled_causal=4&num_scrambled_schematic=4&participantId=6462D588260B4356936047A04A336EBE&assignmentId=0198ed29-f289-7e25-a321-14c8d1b85292&projectId=0198ed26-a6a7-793d-982a-8940a71ab262","6462D588260B4356936047A04A336EBE-2025-08-27-21-05-43","","","","","","",""
"","","","","","instructions","1","224732","0.0-1.0","6462D588260B4356936047A04A336EBE","6462D588260B4356936047A04A336EBE","0198ed29-f289-7e25-a321-14c8d1b85292","0198ed26-a6a7-793d-982a-8940a71ab262","{""num_scrambled_semantic"":""8"",""num_scrambled_causal"":""4"",""num_scrambled_schematic"":""4"",""participantId"":""6462D588260B4356936047A04A336EBE"",""assignmentId"":""0198ed29-f289-7e25-a321-14c8d1b85292"",""projectId"":""0198ed26-a6a7-793d-982a-8940a71ab262""}","https://test12345.live/?num_scrambled_semantic=8&num_scrambled_causal=4&num_scrambled_schematic=4&participantId=6462D588260B4356936047A04A336EBE&assignmentId=0198ed29-f289-7e25-a321-14c8d1b85292&projectId=0198ed26-a6a7-793d-982a-8940a71ab262","6462D588260B4356936047A04A336EBE-2025-08-27-21-05-43","[{""page_index"":0,""viewing_time"":157656}]","157657","","","","",""
"","","","","","instructions","2","241235","0.0-2.0","6462D588260B4356936047A04A336EBE","6462D588260B4356936047A04A336EBE","0198ed29-f289-7e25-a321-14c8d1b85292","0198ed26-a6a7-793d-982a-8940a71ab262","{""num_scrambled_semantic"":""8"",""num_scrambled_causal"":""4"",""num_scrambled_schematic"":""4"",""participantId"":""6462D588260B4356936047A04A336EBE"",""assignmentId"":""0198ed29-f289-7e25-a321-14c8d1b85292"",""projectId"":""0198ed26-a6a7-793d-982a-8940a71ab262""}","https://test12345.live/?num_scrambled_semantic=8&num_scrambled_causal=4&num_scrambled_schematic=4&participantId=6462D588260B4356936047A04A336EBE&assignmentId=0198ed29-f289-7e25-a321-14c8d1b85292&projectId=0198ed26-a6a7-793d-982a-8940a71ab262","6462D588260B4356936047A04A336EBE-2025-08-27-21-05-43","[{""page_index"":0,""viewing_time"":16478}]","16478","","","","",""
"true","","","","","fullscreen","3","243938","0.0-3.0","6462D588260B4356936047A04A336EBE","6462D588260B4356936047A04A336EBE","0198ed29-f289-7e25-a321-14c8d1b85292","0198ed26-a6a7-793d-982a-8940a71ab262","{""num_scrambled_semantic"":""8"",""num_scrambled_causal"":""4"",""num_scrambled_schematic"":""4"",""participantId"":""6462D588260B4356936047A04A336EBE"",""assignmentId"":""0198ed29-f289-7e25-a321-14c8d1b85292"",""projectId"":""0198ed26-a6a7-793d-982a-8940a71ab262""}","https://test12345.live/?num_scrambled_semantic=8&num_scrambled_causal=4&num_scrambled_schematic=4&participantId=6462D588260B4356936047A04A336EBE&assignmentId=0198ed29-f289-7e25-a321-14c8d1b85292&projectId=0198ed26-a6a7-793d-982a-8940a71ab262","6462D588260B4356936047A04A336EBE-2025-08-27-21-05-43","","1116","","","","",""
"","","","","","initialize-microphone","4","271796","0.0-4.0-0.0","6462D588260B4356936047A04A336EBE","6462D588260B4356936047A04A336EBE","0198ed29-f289-7e25-a321-14c8d1b85292","0198ed26-a6a7-793d-982a-8940a71ab262","{""num_scrambled_semantic"":""8"",""num_scrambled_causal"":""4"",""num_scrambled_schematic"":""4"",""participantId"":""6462D588260B4356936047A04A336EBE"",""assignmentId"":""0198ed29-f289-7e25-a321-14c8d1b85292"",""projectId"":""0198ed26-a6a7-793d-982a-8940a71ab262""}","https://test12345.live/?num_scrambled_semantic=8&num_scrambled_causal=4&num_scrambled_schematic=4&participantId=6462D588260B4356936047A04A336EBE&assignmentId=0198ed29-f289-7e25-a321-14c8d1b85292&projectId=0198ed26-a6a7-793d-982a-8940a71ab262","6462D588260B4356936047A04A336EBE-2025-08-27-21-05-43","","","8e46479d588c69bc0cad8d03b092111b749c13844c16d16c504e97eaedbd12eb","","","",""
"","","","","","html-audio-response","5","288972","0.0-4.0-1.0","6462D588260B4356936047A04A336EBE","6462D588260B4356936047A04A336EBE","0198ed29-f289-7e25-a321-14c8d1b85292","0198ed26-a6a7-793d-982a-8940a71ab262","{""num_scrambled_semantic"":""8"",""num_scrambled_causal"":""4"",""num_scrambled_schematic"":""4"",""participantId"":""6462D588260B4356936047A04A336EBE"",""assignmentId"":""0198ed29-f289-7e25-a321-14c8d1b85292"",""projectId"":""0198ed26-a6a7-793d-982a-8940a71ab262""}","https://test12345.live/?num_scrambled_semantic=8&num_scrambled_causal=4&num_scrambled_schematic=4&participantId=6462D588260B4356936047A04A336EBE&assignmentId=0198ed29-f289-7e25-a321-14c8d1b85292&projectId=0198ed26-a6a7-793d-982a-8940a71ab262","6462D588260B4356936047A04A336EBE-2025-08-27-21-05-43","","9267","","<span style=""color: red; font-size: 24px""> NOW RECORDING</span>
        <p>Please test Microphone</p>","","40",""
"","","","","","html-button-response","6","290878","0.0-4.0-2.0","6462D588260B4356936047A04A336EBE","6462D588260B4356936047A04A336EBE","0198ed29-f289-7e25-a321-14c8d1b85292","0198ed26-a6a7-793d-982a-8940a71ab262","{""num_scrambled_semantic"":""8"",""num_scrambled_causal"":""4"",""num_scrambled_schematic"":""4"",""participantId"":""6462D588260B4356936047A04A336EBE"",""assignmentId"":""0198ed29-f289-7e25-a321-14c8d1b85292"",""projectId"":""0198ed26-a6a7-793d-982a-8940a71ab262""}","https://test12345.live/?num_scrambled_semantic=8&num_scrambled_causal=4&num_scrambled_schematic=4&participantId=6462D588260B4356936047A04A336EBE&assignmentId=0198ed29-f289-7e25-a321-14c8d1b85292&projectId=0198ed26-a6a7-793d-982a-8940a71ab262","6462D588260B4356936047A04A336EBE-2025-08-27-21-05-43","","1902","","<p style=""font-size:48px; color:red;"">Is Microphone OK?</p>","1","",""
"","","","","","instructions","7","319308","0.0-5.0","6462D588260B4356936047A04A336EBE","6462D588260B4356936047A04A336EBE","0198ed29-f289-7e25-a321-14c8d1b85292","0198ed26-a6a7-793d-982a-8940a71ab262","{""num_scrambled_semantic"":""8"",""num_scrambled_causal"":""4"",""num_scrambled_schematic"":""4"",""participantId"":""6462D588260B4356936047A04A336EBE"",""assignmentId"":""0198ed29-f289-7e25-a321-14c8d1b85292"",""projectId"":""0198ed26-a6a7-793d-982a-8940a71ab262""}","https://test12345.live/?num_scrambled_semantic=8&num_scrambled_causal=4&num_scrambled_schematic=4&participantId=6462D588260B4356936047A04A336EBE&assignmentId=0198ed29-f289-7e25-a321-14c8d1b85292&projectId=0198ed26-a6a7-793d-982a-8940a71ab262","6462D588260B4356936047A04A336EBE-2025-08-27-21-05-43","[{""page_index"":0,""viewing_time"":2654},{""page_index"":1,""viewing_time"":25736}]","28391","","","","",""
"","","","","","image-button-response","8","325406","0.0-6.0-0.0","6462D588260B4356936047A04A336EBE","6462D588260B4356936047A04A336EBE","0198ed29-f289-7e25-a321-14c8d1b85292","0198ed26-a6a7-793d-982a-8940a71ab262","{""num_scrambled_semantic"":""8"",""num_scrambled_causal"":""4"",""num_scrambled_schematic"":""4"",""participantId"":""6462D588260B4356936047A04A336EBE"",""assignmentId"":""0198ed29-f289-7e25-a321-14c8d1b85292"",""projectId"":""0198ed26-a6a7-793d-982a-8940a71ab262""}","https://test12345.live/?num_scrambled_semantic=8&num_scrambled_causal=4&num_scrambled_schematic=4&participantId=6462D588260B4356936047A04A336EBE&assignmentId=0198ed29-f289-7e25-a321-14c8d1b85292&projectId=0198ed26-a6a7-793d-982a-8940a71ab262","6462D588260B4356936047A04A336EBE-2025-08-27-21-05-43","","null","","images/instructions/movie_0.png","null","",""
"","","","","","image-button-response","9","329973","0.0-6.0-1.0-0.0","6462D588260B4356936047A04A336EBE","6462D588260B4356936047A04A336EBE","0198ed29-f289-7e25-a321-14c8d1b85292","0198ed26-a6a7-793d-982a-8940a71ab262","{""num_scrambled_semantic"":""8"",""num_scrambled_causal"":""4"",""num_scrambled_schematic"":""4"",""participantId"":""6462D588260B4356936047A04A336EBE"",""assignmentId"":""0198ed29-f289-7e25-a321-14c8d1b85292"",""projectId"":""0198ed26-a6a7-793d-982a-8940a71ab262""}","https://test12345.live/?num_scrambled_semantic=8&num_scrambled_causal=4&num_scrambled_schematic=4&participantId=6462D588260B4356936047A04A336EBE&assignmentId=0198ed29-f289-7e25-a321-14c8d1b85292&projectId=0198ed26-a6a7-793d-982a-8940a71ab262","6462D588260B4356936047A04A336EBE-2025-08-27-21-05-43","","null","","images/instructions/movie_1.png","null","",""
"","","","","","image-button-response","10","331676","0.0-6.0-1.0-1.0","6462D588260B4356936047A04A336EBE","6462D588260B4356936047A04A336EBE","0198ed29-f289-7e25-a321-14c8d1b85292","0198ed26-a6a7-793d-982a-8940a71ab262","{""num_scrambled_semantic"":""8"",""num_scrambled_causal"":""4"",""num_scrambled_schematic"":""4"",""participantId"":""6462D588260B4356936047A04A336EBE"",""assignmentId"":""0198ed29-f289-7e25-a321-14c8d1b85292"",""projectId"":""0198ed26-a6a7-793d-982a-8940a71ab262""}","https://test12345.live/?num_scrambled_semantic=8&num_scrambled_causal=4&num_scrambled_schematic=4&participantId=6462D588260B4356936047A04A336EBE&assignmentId=0198ed29-f289-7e25-a321-14c8d1b85292&projectId=0198ed26-a6a7-793d-982a-8940a71ab262","6462D588260B4356936047A04A336EBE-2025-08-27-21-05-43","","1700","","images/instructions/movie_1.png","0","",""
"","","","","","image-button-response","11","333495","0.0-6.0-1.0-2.0","6462D588260B4356936047A04A336EBE","6462D588260B4356936047A04A336EBE","0198ed29-f289-7e25-a321-14c8d1b85292","0198ed26-a6a7-793d-982a-8940a71ab262","{""num_scrambled_semantic"":""8"",""num_scrambled_causal"":""4"",""num_scrambled_schematic"":""4"",""participantId"":""6462D588260B4356936047A04A336EBE"",""assignmentId"":""0198ed29-f289-7e25-a321-14c8d1b85292"",""projectId"":""0198ed26-a6a7-793d-982a-8940a71ab262""}","https://test12345.live/?num_scrambled_semantic=8&num_scrambled_causal=4&num_scrambled_schematic=4&participantId=6462D588260B4356936047A04A336EBE&assignmentId=0198ed29-f289-7e25-a321-14c8d1b85292&projectId=0198ed26-a6a7-793d-982a-8940a71ab262","6462D588260B4356936047A04A336EBE-2025-08-27-21-05-43","","null","","[]","null","",""
"","","","","","image-button-response","12","338049","0.0-6.0-1.0-0.1","6462D588260B4356936047A04A336EBE","6462D588260B4356936047A04A336EBE","0198ed29-f289-7e25-a321-14c8d1b85292","0198ed26-a6a7-793d-982a-8940a71ab262","{""num_scrambled_semantic"":""8"",""num_scrambled_causal"":""4"",""num_scrambled_schematic"":""4"",""participantId"":""6462D588260B4356936047A04A336EBE"",""assignmentId"":""0198ed29-f289-7e25-a321-14c8d1b85292"",""projectId"":""0198ed26-a6a7-793d-982a-8940a71ab262""}","https://test12345.live/?num_scrambled_semantic=8&num_scrambled_causal=4&num_scrambled_schematic=4&participantId=6462D588260B4356936047A04A336EBE&assignmentId=0198ed29-f289-7e25-a321-14c8d1b85292&projectId=0198ed26-a6a7-793d-982a-8940a71ab262","6462D588260B4356936047A04A336EBE-2025-08-27-21-05-43","","null","","images/instructions/movie_2.png","null","",""
"","","","","","image-button-response","13","339356","0.0-6.0-1.0-1.1","6462D588260B4356936047A04A336EBE","6462D588260B4356936047A04A336EBE","0198ed29-f289-7e25-a321-14c8d1b85292","0198ed26-a6a7-793d-982a-8940a71ab262","{""num_scrambled_semantic"":""8"",""num_scrambled_causal"":""4"",""num_scrambled_schematic"":""4"",""participantId"":""6462D588260B4356936047A04A336EBE"",""assignmentId"":""0198ed29-f289-7e25-a321-14c8d1b85292"",""projectId"":""0198ed26-a6a7-793d-982a-8940a71ab262""}","https://test12345.live/?num_scrambled_semantic=8&num_scrambled_causal=4&num_scrambled_schematic=4&participantId=6462D588260B4356936047A04A336EBE&assignmentId=0198ed29-f289-7e25-a321-14c8d1b85292&projectId=0198ed26-a6a7-793d-982a-8940a71ab262","6462D588260B4356936047A04A336EBE-2025-08-27-21-05-43","","1304","","images/instructions/movie_2.png","0","",""
"","","","","","image-button-response","14","341163","0.0-6.0-1.0-2.1","6462D588260B4356936047A04A336EBE","6462D588260B4356936047A04A336EBE","0198ed29-f289-7e25-a321-14c8d1b85292","0198ed26-a6a7-793d-982a-8940a71ab262","{""num_scrambled_semantic"":""8"",""num_scrambled_causal"":""4"",""num_scrambled_schematic"":""4"",""participantId"":""6462D588260B4356936047A04A336EBE"",""assignmentId"":""0198ed29-f289-7e25-a321-14c8d1b85292"",""projectId"":""0198ed26-a6a7-793d-982a-8940a71ab262""}","https://test12345.live/?num_scrambled_semantic=8&num_scrambled_causal=4&num_scrambled_schematic=4&participantId=6462D588260B4356936047A04A336EBE&assignmentId=0198ed29-f289-7e25-a321-14c8d1b85292&projectId=0198ed26-a6a7-793d-982a-8940a71ab262","6462D588260B4356936047A04A336EBE-2025-08-27-21-05-43","","null","","[]","null","",""
"","","","","","image-button-response","15","345677","0.0-6.0-1.0-0.2","6462D588260B4356936047A04A336EBE","6462D588260B4356936047A04A336EBE","0198ed29-f289-7e25-a321-14c8d1b85292","0198ed26-a6a7-793d-982a-8940a71ab262","{""num_scrambled_semantic"":""8"",""num_scrambled_causal"":""4"",""num_scrambled_schematic"":""4"",""participantId"":""6462D588260B4356936047A04A336EBE"",""assignmentId"":""0198ed29-f289-7e25-a321-14c8d1b85292"",""projectId"":""0198ed26-a6a7-793d-982a-8940a71ab262""}","https://test12345.live/?num_scrambled_semantic=8&num_scrambled_causal=4&num_scrambled_schematic=4&participantId=6462D588260B4356936047A04A336EBE&assignmentId=0198ed29-f289-7e25-a321-14c8d1b85292&projectId=0198ed26-a6a7-793d-982a-8940a71ab262","6462D588260B4356936047A04A336EBE-2025-08-27-21-05-43","","null","","images/instructions/movie_3.png","null","",""
"","","","","","image-button-response","16","347060","0.0-6.0-1.0-1.2","6462D588260B4356936047A04A336EBE","6462D588260B4356936047A04A336EBE","0198ed29-f289-7e25-a321-14c8d1b85292","0198ed26-a6a7-793d-982a-8940a71ab262","{""num_scrambled_semantic"":""8"",""num_scrambled_causal"":""4"",""num_scrambled_schematic"":""4"",""participantId"":""6462D588260B4356936047A04A336EBE"",""assignmentId"":""0198ed29-f289-7e25-a321-14c8d1b85292"",""projectId"":""0198ed26-a6a7-793d-982a-8940a71ab262""}","https://test12345.live/?num_scrambled_semantic=8&num_scrambled_causal=4&num_scrambled_schematic=4&participantId=6462D588260B4356936047A04A336EBE&assignmentId=0198ed29-f289-7e25-a321-14c8d1b85292&projectId=0198ed26-a6a7-793d-982a-8940a71ab262","6462D588260B4356936047A04A336EBE-2025-08-27-21-05-43","","1381","","images/instructions/movie_3.png","0","",""
"","","","","","image-button-response","17","348863","0.0-6.0-1.0-2.2","6462D588260B4356936047A04A336EBE","6462D588260B4356936047A04A336EBE","0198ed29-f289-7e25-a321-14c8d1b85292","0198ed26-a6a7-793d-982a-8940a71ab262","{""num_scrambled_semantic"":""8"",""num_scrambled_causal"":""4"",""num_scrambled_schematic"":""4"",""participantId"":""6462D588260B4356936047A04A336EBE"",""assignmentId"":""0198ed29-f289-7e25-a321-14c8d1b85292"",""projectId"":""0198ed26-a6a7-793d-982a-8940a71ab262""}","https://test12345.live/?num_scrambled_semantic=8&num_scrambled_causal=4&num_scrambled_schematic=4&participantId=6462D588260B4356936047A04A336EBE&assignmentId=0198ed29-f289-7e25-a321-14c8d1b85292&projectId=0198ed26-a6a7-793d-982a-8940a71ab262","6462D588260B4356936047A04A336EBE-2025-08-27-21-05-43","","null","","[]","null","",""
"","","","","","image-button-response","18","353376","0.0-6.0-1.0-0.3","6462D588260B4356936047A04A336EBE","6462D588260B4356936047A04A336EBE","0198ed29-f289-7e25-a321-14c8d1b85292","0198ed26-a6a7-793d-982a-8940a71ab262","{""num_scrambled_semantic"":""8"",""num_scrambled_causal"":""4"",""num_scrambled_schematic"":""4"",""participantId"":""6462D588260B4356936047A04A336EBE"",""assignmentId"":""0198ed29-f289-7e25-a321-14c8d1b85292"",""projectId"":""0198ed26-a6a7-793d-982a-8940a71ab262""}","https://test12345.live/?num_scrambled_semantic=8&num_scrambled_causal=4&num_scrambled_schematic=4&participantId=6462D588260B4356936047A04A336EBE&assignmentId=0198ed29-f289-7e25-a321-14c8d1b85292&projectId=0198ed26-a6a7-793d-982a-8940a71ab262","6462D588260B4356936047A04A336EBE-2025-08-27-21-05-43","","null","","images/instructions/movie_4.png","null","",""
"","","","","","image-button-response","19","355139","0.0-6.0-1.0-1.3","6462D588260B4356936047A04A336EBE","6462D588260B4356936047A04A336EBE","0198ed29-f289-7e25-a321-14c8d1b85292","0198ed26-a6a7-793d-982a-8940a71ab262","{""num_scrambled_semantic"":""8"",""num_scrambled_causal"":""4"",""num_scrambled_schematic"":""4"",""participantId"":""6462D588260B4356936047A04A336EBE"",""assignmentId"":""0198ed29-f289-7e25-a321-14c8d1b85292"",""projectId"":""0198ed26-a6a7-793d-982a-8940a71ab262""}","https://test12345.live/?num_scrambled_semantic=8&num_scrambled_causal=4&num_scrambled_schematic=4&participantId=6462D588260B4356936047A04A336EBE&assignmentId=0198ed29-f289-7e25-a321-14c8d1b85292&projectId=0198ed26-a6a7-793d-982a-8940a71ab262","6462D588260B4356936047A04A336EBE-2025-08-27-21-05-43","","1761","","images/instructions/movie_4.png","0","",""
"","","","","","image-button-response","20","356942","0.0-6.0-1.0-2.3","6462D588260B4356936047A04A336EBE","6462D588260B4356936047A04A336EBE","0198ed29-f289-7e25-a321-14c8d1b85292","0198ed26-a6a7-793d-982a-8940a71ab262","{""num_scrambled_semantic"":""8"",""num_scrambled_causal"":""4"",""num_scrambled_schematic"":""4"",""participantId"":""6462D588260B4356936047A04A336EBE"",""assignmentId"":""0198ed29-f289-7e25-a321-14c8d1b85292"",""projectId"":""0198ed26-a6a7-793d-982a-8940a71ab262""}","https://test12345.live/?num_scrambled_semantic=8&num_scrambled_causal=4&num_scrambled_schematic=4&participantId=6462D588260B4356936047A04A336EBE&assignmentId=0198ed29-f289-7e25-a321-14c8d1b85292&projectId=0198ed26-a6a7-793d-982a-8940a71ab262","6462D588260B4356936047A04A336EBE-2025-08-27-21-05-43","","null","","[]","null","",""
"","","","","","instructions","21","366619","0.0-7.0","6462D588260B4356936047A04A336EBE","6462D588260B4356936047A04A336EBE","0198ed29-f289-7e25-a321-14c8d1b85292","0198ed26-a6a7-793d-982a-8940a71ab262","{""num_scrambled_semantic"":""8"",""num_scrambled_causal"":""4"",""num_scrambled_schematic"":""4"",""participantId"":""6462D588260B4356936047A04A336EBE"",""assignmentId"":""0198ed29-f289-7e25-a321-14c8d1b85292"",""projectId"":""0198ed26-a6a7-793d-982a-8940a71ab262""}","https://test12345.live/?num_scrambled_semantic=8&num_scrambled_causal=4&num_scrambled_schematic=4&participantId=6462D588260B4356936047A04A336EBE&assignmentId=0198ed29-f289-7e25-a321-14c8d1b85292&projectId=0198ed26-a6a7-793d-982a-8940a71ab262","6462D588260B4356936047A04A336EBE-2025-08-27-21-05-43","[{""page_index"":0,""viewing_time"":9675}]","9676","","","","",""
"","","","","","html-audio-response","22","404556","0.0-8.0","6462D588260B4356936047A04A336EBE","6462D588260B4356936047A04A336EBE","0198ed29-f289-7e25-a321-14c8d1b85292","0198ed26-a6a7-793d-982a-8940a71ab262","{""num_scrambled_semantic"":""8"",""num_scrambled_causal"":""4"",""num_scrambled_schematic"":""4"",""participantId"":""6462D588260B4356936047A04A336EBE"",""assignmentId"":""0198ed29-f289-7e25-a321-14c8d1b85292"",""projectId"":""0198ed26-a6a7-793d-982a-8940a71ab262""}","https://test12345.live/?num_scrambled_semantic=8&num_scrambled_causal=4&num_scrambled_schematic=4&participantId=6462D588260B4356936047A04A336EBE&assignmentId=0198ed29-f289-7e25-a321-14c8d1b85292&projectId=0198ed26-a6a7-793d-982a-8940a71ab262","6462D588260B4356936047A04A336EBE-2025-08-27-21-05-43","","6667","","[""<span style=\""color: red; font-size: 24px\""> NOW RECORDING</span><p>Please say out loud all the images you saw, in the order of the story they create. Try to recall the sequence of events as they appeared in the story, not necessarily the order they were presented on the screen.</p>""]","","9",""
"","","","","","instructions","23","409019","0.0-9.0","6462D588260B4356936047A04A336EBE","6462D588260B4356936047A04A336EBE","0198ed29-f289-7e25-a321-14c8d1b85292","0198ed26-a6a7-793d-982a-8940a71ab262","{""num_scrambled_semantic"":""8"",""num_scrambled_causal"":""4"",""num_scrambled_schematic"":""4"",""participantId"":""6462D588260B4356936047A04A336EBE"",""assignmentId"":""0198ed29-f289-7e25-a321-14c8d1b85292"",""projectId"":""0198ed26-a6a7-793d-982a-8940a71ab262""}","https://test12345.live/?num_scrambled_semantic=8&num_scrambled_causal=4&num_scrambled_schematic=4&participantId=6462D588260B4356936047A04A336EBE&assignmentId=0198ed29-f289-7e25-a321-14c8d1b85292&projectId=0198ed26-a6a7-793d-982a-8940a71ab262","6462D588260B4356936047A04A336EBE-2025-08-27-21-05-43","[{""page_index"":0,""viewing_time"":4396}]","4396","","","","",""
"","","","","","image-button-response","24","415036","0.0-10.0-0.0","6462D588260B4356936047A04A336EBE","6462D588260B4356936047A04A336EBE","0198ed29-f289-7e25-a321-14c8d1b85292","0198ed26-a6a7-793d-982a-8940a71ab262","{""num_scrambled_semantic"":""8"",""num_scrambled_causal"":""4"",""num_scrambled_schematic"":""4"",""participantId"":""6462D588260B4356936047A04A336EBE"",""assignmentId"":""0198ed29-f289-7e25-a321-14c8d1b85292"",""projectId"":""0198ed26-a6a7-793d-982a-8940a71ab262""}","https://test12345.live/?num_scrambled_semantic=8&num_scrambled_causal=4&num_scrambled_schematic=4&participantId=6462D588260B4356936047A04A336EBE&assignmentId=0198ed29-f289-7e25-a321-14c8d1b85292&projectId=0198ed26-a6a7-793d-982a-8940a71ab262","6462D588260B4356936047A04A336EBE-2025-08-27-21-05-43","","null","","images/schematic_sequence/flight_scheme/flight_scheme_0.png","null","",""
"","","","","","image-button-response","25","419542","0.0-10.0-1.0-0.0","6462D588260B4356936047A04A336EBE","6462D588260B4356936047A04A336EBE","0198ed29-f289-7e25-a321-14c8d1b85292","0198ed26-a6a7-793d-982a-8940a71ab262","{""num_scrambled_semantic"":""8"",""num_scrambled_causal"":""4"",""num_scrambled_schematic"":""4"",""participantId"":""6462D588260B4356936047A04A336EBE"",""assignmentId"":""0198ed29-f289-7e25-a321-14c8d1b85292"",""projectId"":""0198ed26-a6a7-793d-982a-8940a71ab262""}","https://test12345.live/?num_scrambled_semantic=8&num_scrambled_causal=4&num_scrambled_schematic=4&participantId=6462D588260B4356936047A04A336EBE&assignmentId=0198ed29-f289-7e25-a321-14c8d1b85292&projectId=0198ed26-a6a7-793d-982a-8940a71ab262","6462D588260B4356936047A04A336EBE-2025-08-27-21-05-43","","null","","images/schematic_sequence/flight_scheme/flight_scheme_1.png","null","",""
"","","","","","image-button-response","26","422068","0.0-10.0-1.0-1.0","6462D588260B4356936047A04A336EBE","6462D588260B4356936047A04A336EBE","0198ed29-f289-7e25-a321-14c8d1b85292","0198ed26-a6a7-793d-982a-8940a71ab262","{""num_scrambled_semantic"":""8"",""num_scrambled_causal"":""4"",""num_scrambled_schematic"":""4"",""participantId"":""6462D588260B4356936047A04A336EBE"",""assignmentId"":""0198ed29-f289-7e25-a321-14c8d1b85292"",""projectId"":""0198ed26-a6a7-793d-982a-8940a71ab262""}","https://test12345.live/?num_scrambled_semantic=8&num_scrambled_causal=4&num_scrambled_schematic=4&participantId=6462D588260B4356936047A04A336EBE&assignmentId=0198ed29-f289-7e25-a321-14c8d1b85292&projectId=0198ed26-a6a7-793d-982a-8940a71ab262","6462D588260B4356936047A04A336EBE-2025-08-27-21-05-43","","2523","","images/schematic_sequence/flight_scheme/flight_scheme_1.png","0","",""
"","","","","","image-button-response","27","423877","0.0-10.0-1.0-2.0","6462D588260B4356936047A04A336EBE","6462D588260B4356936047A04A336EBE","0198ed29-f289-7e25-a321-14c8d1b85292","0198ed26-a6a7-793d-982a-8940a71ab262","{""num_scrambled_semantic"":""8"",""num_scrambled_causal"":""4"",""num_scrambled_schematic"":""4"",""participantId"":""6462D588260B4356936047A04A336EBE"",""assignmentId"":""0198ed29-f289-7e25-a321-14c8d1b85292"",""projectId"":""0198ed26-a6a7-793d-982a-8940a71ab262""}","https://test12345.live/?num_scrambled_semantic=8&num_scrambled_causal=4&num_scrambled_schematic=4&participantId=6462D588260B4356936047A04A336EBE&assignmentId=0198ed29-f289-7e25-a321-14c8d1b85292&projectId=0198ed26-a6a7-793d-982a-8940a71ab262","6462D588260B4356936047A04A336EBE-2025-08-27-21-05-43","","null","","[]","null","",""
"","","","","","image-button-response","28","428395","0.0-10.0-1.0-0.1","6462D588260B4356936047A04A336EBE","6462D588260B4356936047A04A336EBE","0198ed29-f289-7e25-a321-14c8d1b85292","0198ed26-a6a7-793d-982a-8940a71ab262","{""num_scrambled_semantic"":""8"",""num_scrambled_causal"":""4"",""num_scrambled_schematic"":""4"",""participantId"":""6462D588260B4356936047A04A336EBE"",""assignmentId"":""0198ed29-f289-7e25-a321-14c8d1b85292"",""projectId"":""0198ed26-a6a7-793d-982a-8940a71ab262""}","https://test12345.live/?num_scrambled_semantic=8&num_scrambled_causal=4&num_scrambled_schematic=4&participantId=6462D588260B4356936047A04A336EBE&assignmentId=0198ed29-f289-7e25-a321-14c8d1b85292&projectId=0198ed26-a6a7-793d-982a-8940a71ab262","6462D588260B4356936047A04A336EBE-2025-08-27-21-05-43","","null","","images/schematic_sequence/flight_scheme/flight_scheme_9.png","null","",""
"","","","","","image-button-response","29","428965","0.0-10.0-1.0-1.1","6462D588260B4356936047A04A336EBE","6462D588260B4356936047A04A336EBE","0198ed29-f289-7e25-a321-14c8d1b85292","0198ed26-a6a7-793d-982a-8940a71ab262","{""num_scrambled_semantic"":""8"",""num_scrambled_causal"":""4"",""num_scrambled_schematic"":""4"",""participantId"":""6462D588260B4356936047A04A336EBE"",""assignmentId"":""0198ed29-f289-7e25-a321-14c8d1b85292"",""projectId"":""0198ed26-a6a7-793d-982a-8940a71ab262""}","https://test12345.live/?num_scrambled_semantic=8&num_scrambled_causal=4&num_scrambled_schematic=4&participantId=6462D588260B4356936047A04A336EBE&assignmentId=0198ed29-f289-7e25-a321-14c8d1b85292&projectId=0198ed26-a6a7-793d-982a-8940a71ab262","6462D588260B4356936047A04A336EBE-2025-08-27-21-05-43","","567","","images/schematic_sequence/flight_scheme/flight_scheme_9.png","0","",""
"","","","","","image-button-response","30","430771","0.0-10.0-1.0-2.1","6462D588260B4356936047A04A336EBE","6462D588260B4356936047A04A336EBE","0198ed29-f289-7e25-a321-14c8d1b85292","0198ed26-a6a7-793d-982a-8940a71ab262","{""num_scrambled_semantic"":""8"",""num_scrambled_causal"":""4"",""num_scrambled_schematic"":""4"",""participantId"":""6462D588260B4356936047A04A336EBE"",""assignmentId"":""0198ed29-f289-7e25-a321-14c8d1b85292"",""projectId"":""0198ed26-a6a7-793d-982a-8940a71ab262""}","https://test12345.live/?num_scrambled_semantic=8&num_scrambled_causal=4&num_scrambled_schematic=4&participantId=6462D588260B4356936047A04A336EBE&assignmentId=0198ed29-f289-7e25-a321-14c8d1b85292&projectId=0198ed26-a6a7-793d-982a-8940a71ab262","6462D588260B4356936047A04A336EBE-2025-08-27-21-05-43","","null","","[]","null","",""
"","","","","","image-button-response","31","435279","0.0-10.0-1.0-0.2","6462D588260B4356936047A04A336EBE","6462D588260B4356936047A04A336EBE","0198ed29-f289-7e25-a321-14c8d1b85292","0198ed26-a6a7-793d-982a-8940a71ab262","{""num_scrambled_semantic"":""8"",""num_scrambled_causal"":""4"",""num_scrambled_schematic"":""4"",""participantId"":""6462D588260B4356936047A04A336EBE"",""assignmentId"":""0198ed29-f289-7e25-a321-14c8d1b85292"",""projectId"":""0198ed26-a6a7-793d-982a-8940a71ab262""}","https://test12345.live/?num_scrambled_semantic=8&num_scrambled_causal=4&num_scrambled_schematic=4&participantId=6462D588260B4356936047A04A336EBE&assignmentId=0198ed29-f289-7e25-a321-14c8d1b85292&projectId=0198ed26-a6a7-793d-982a-8940a71ab262","6462D588260B4356936047A04A336EBE-2025-08-27-21-05-43","","null","","images/schematic_sequence/flight_scheme/flight_scheme_5.png","null","",""
"","","","","","image-button-response","32","436996","0.0-10.0-1.0-1.2","6462D588260B4356936047A04A336EBE","6462D588260B4356936047A04A336EBE","0198ed29-f289-7e25-a321-14c8d1b85292","0198ed26-a6a7-793d-982a-8940a71ab262","{""num_scrambled_semantic"":""8"",""num_scrambled_causal"":""4"",""num_scrambled_schematic"":""4"",""participantId"":""6462D588260B4356936047A04A336EBE"",""assignmentId"":""0198ed29-f289-7e25-a321-14c8d1b85292"",""projectId"":""0198ed26-a6a7-793d-982a-8940a71ab262""}","https://test12345.live/?num_scrambled_semantic=8&num_scrambled_causal=4&num_scrambled_schematic=4&participantId=6462D588260B4356936047A04A336EBE&assignmentId=0198ed29-f289-7e25-a321-14c8d1b85292&projectId=0198ed26-a6a7-793d-982a-8940a71ab262","6462D588260B4356936047A04A336EBE-2025-08-27-21-05-43","","1715","","images/schematic_sequence/flight_scheme/flight_scheme_5.png","0","",""
"","","","","","image-button-response","33","438806","0.0-10.0-1.0-2.2","6462D588260B4356936047A04A336EBE","6462D588260B4356936047A04A336EBE","0198ed29-f289-7e25-a321-14c8d1b85292","0198ed26-a6a7-793d-982a-8940a71ab262","{""num_scrambled_semantic"":""8"",""num_scrambled_causal"":""4"",""num_scrambled_schematic"":""4"",""participantId"":""6462D588260B4356936047A04A336EBE"",""assignmentId"":""0198ed29-f289-7e25-a321-14c8d1b85292"",""projectId"":""0198ed26-a6a7-793d-982a-8940a71ab262""}","https://test12345.live/?num_scrambled_semantic=8&num_scrambled_causal=4&num_scrambled_schematic=4&participantId=6462D588260B4356936047A04A336EBE&assignmentId=0198ed29-f289-7e25-a321-14c8d1b85292&projectId=0198ed26-a6a7-793d-982a-8940a71ab262","6462D588260B4356936047A04A336EBE-2025-08-27-21-05-43","","null","","[]","null","",""
"","","","","","image-button-response","34","443324","0.0-10.0-1.0-0.3","6462D588260B4356936047A04A336EBE","6462D588260B4356936047A04A336EBE","0198ed29-f289-7e25-a321-14c8d1b85292","0198ed26-a6a7-793d-982a-8940a71ab262","{""num_scrambled_semantic"":""8"",""num_scrambled_causal"":""4"",""num_scrambled_schematic"":""4"",""participantId"":""6462D588260B4356936047A04A336EBE"",""assignmentId"":""0198ed29-f289-7e25-a321-14c8d1b85292"",""projectId"":""0198ed26-a6a7-793d-982a-8940a71ab262""}","https://test12345.live/?num_scrambled_semantic=8&num_scrambled_causal=4&num_scrambled_schematic=4&participantId=6462D588260B4356936047A04A336EBE&assignmentId=0198ed29-f289-7e25-a321-14c8d1b85292&projectId=0198ed26-a6a7-793d-982a-8940a71ab262","6462D588260B4356936047A04A336EBE-2025-08-27-21-05-43","","null","","images/schematic_sequence/flight_scheme/flight_scheme_3.png","null","",""
"","","","","","image-button-response","35","446108","0.0-10.0-1.0-1.3","6462D588260B4356936047A04A336EBE","6462D588260B4356936047A04A336EBE","0198ed29-f289-7e25-a321-14c8d1b85292","0198ed26-a6a7-793d-982a-8940a71ab262","{""num_scrambled_semantic"":""8"",""num_scrambled_causal"":""4"",""num_scrambled_schematic"":""4"",""participantId"":""6462D588260B4356936047A04A336EBE"",""assignmentId"":""0198ed29-f289-7e25-a321-14c8d1b85292"",""projectId"":""0198ed26-a6a7-793d-982a-8940a71ab262""}","https://test12345.live/?num_scrambled_semantic=8&num_scrambled_causal=4&num_scrambled_schematic=4&participantId=6462D588260B4356936047A04A336EBE&assignmentId=0198ed29-f289-7e25-a321-14c8d1b85292&projectId=0198ed26-a6a7-793d-982a-8940a71ab262","6462D588260B4356936047A04A336EBE-2025-08-27-21-05-43","","2782","","images/schematic_sequence/flight_scheme/flight_scheme_3.png","0","",""
"","","","","","image-button-response","36","447922","0.0-10.0-1.0-2.3","6462D588260B4356936047A04A336EBE","6462D588260B4356936047A04A336EBE","0198ed29-f289-7e25-a321-14c8d1b85292","0198ed26-a6a7-793d-982a-8940a71ab262","{""num_scrambled_semantic"":""8"",""num_scrambled_causal"":""4"",""num_scrambled_schematic"":""4"",""participantId"":""6462D588260B4356936047A04A336EBE"",""assignmentId"":""0198ed29-f289-7e25-a321-14c8d1b85292"",""projectId"":""0198ed26-a6a7-793d-982a-8940a71ab262""}","https://test12345.live/?num_scrambled_semantic=8&num_scrambled_causal=4&num_scrambled_schematic=4&participantId=6462D588260B4356936047A04A336EBE&assignmentId=0198ed29-f289-7e25-a321-14c8d1b85292&projectId=0198ed26-a6a7-793d-982a-8940a71ab262","6462D588260B4356936047A04A336EBE-2025-08-27-21-05-43","","null","","[]","null","",""
"","","","","","image-button-response","37","452436","0.0-10.0-1.0-0.4","6462D588260B4356936047A04A336EBE","6462D588260B4356936047A04A336EBE","0198ed29-f289-7e25-a321-14c8d1b85292","0198ed26-a6a7-793d-982a-8940a71ab262","{""num_scrambled_semantic"":""8"",""num_scrambled_causal"":""4"",""num_scrambled_schematic"":""4"",""participantId"":""6462D588260B4356936047A04A336EBE"",""assignmentId"":""0198ed29-f289-7e25-a321-14c8d1b85292"",""projectId"":""0198ed26-a6a7-793d-982a-8940a71ab262""}","https://test12345.live/?num_scrambled_semantic=8&num_scrambled_causal=4&num_scrambled_schematic=4&participantId=6462D588260B4356936047A04A336EBE&assignmentId=0198ed29-f289-7e25-a321-14c8d1b85292&projectId=0198ed26-a6a7-793d-982a-8940a71ab262","6462D588260B4356936047A04A336EBE-2025-08-27-21-05-43","","null","","images/schematic_sequence/flight_scheme/flight_scheme_8.png","null","",""
"","","","","","image-button-response","38","454604","0.0-10.0-1.0-1.4","6462D588260B4356936047A04A336EBE","6462D588260B4356936047A04A336EBE","0198ed29-f289-7e25-a321-14c8d1b85292","0198ed26-a6a7-793d-982a-8940a71ab262","{""num_scrambled_semantic"":""8"",""num_scrambled_causal"":""4"",""num_scrambled_schematic"":""4"",""participantId"":""6462D588260B4356936047A04A336EBE"",""assignmentId"":""0198ed29-f289-7e25-a321-14c8d1b85292"",""projectId"":""0198ed26-a6a7-793d-982a-8940a71ab262""}","https://test12345.live/?num_scrambled_semantic=8&num_scrambled_causal=4&num_scrambled_schematic=4&participantId=6462D588260B4356936047A04A336EBE&assignmentId=0198ed29-f289-7e25-a321-14c8d1b85292&projectId=0198ed26-a6a7-793d-982a-8940a71ab262","6462D588260B4356936047A04A336EBE-2025-08-27-21-05-43","","2166","","images/schematic_sequence/flight_scheme/flight_scheme_8.png","1","",""
"","","","","","image-button-response","39","456407","0.0-10.0-1.0-2.4","6462D588260B4356936047A04A336EBE","6462D588260B4356936047A04A336EBE","0198ed29-f289-7e25-a321-14c8d1b85292","0198ed26-a6a7-793d-982a-8940a71ab262","{""num_scrambled_semantic"":""8"",""num_scrambled_causal"":""4"",""num_scrambled_schematic"":""4"",""participantId"":""6462D588260B4356936047A04A336EBE"",""assignmentId"":""0198ed29-f289-7e25-a321-14c8d1b85292"",""projectId"":""0198ed26-a6a7-793d-982a-8940a71ab262""}","https://test12345.live/?num_scrambled_semantic=8&num_scrambled_causal=4&num_scrambled_schematic=4&participantId=6462D588260B4356936047A04A336EBE&assignmentId=0198ed29-f289-7e25-a321-14c8d1b85292&projectId=0198ed26-a6a7-793d-982a-8940a71ab262","6462D588260B4356936047A04A336EBE-2025-08-27-21-05-43","","null","","[]","null","",""
"","","","","","image-button-response","40","460915","0.0-10.0-1.0-0.5","6462D588260B4356936047A04A336EBE","6462D588260B4356936047A04A336EBE","0198ed29-f289-7e25-a321-14c8d1b85292","0198ed26-a6a7-793d-982a-8940a71ab262","{""num_scrambled_semantic"":""8"",""num_scrambled_causal"":""4"",""num_scrambled_schematic"":""4"",""participantId"":""6462D588260B4356936047A04A336EBE"",""assignmentId"":""0198ed29-f289-7e25-a321-14c8d1b85292"",""projectId"":""0198ed26-a6a7-793d-982a-8940a71ab262""}","https://test12345.live/?num_scrambled_semantic=8&num_scrambled_causal=4&num_scrambled_schematic=4&participantId=6462D588260B4356936047A04A336EBE&assignmentId=0198ed29-f289-7e25-a321-14c8d1b85292&projectId=0198ed26-a6a7-793d-982a-8940a71ab262","6462D588260B4356936047A04A336EBE-2025-08-27-21-05-43","","null","","images/schematic_sequence/flight_scheme/flight_scheme_ten.png","null","",""
"","","","","","image-button-response","41","461652","0.0-10.0-1.0-1.5","6462D588260B4356936047A04A336EBE","6462D588260B4356936047A04A336EBE","0198ed29-f289-7e25-a321-14c8d1b85292","0198ed26-a6a7-793d-982a-8940a71ab262","{""num_scrambled_semantic"":""8"",""num_scrambled_causal"":""4"",""num_scrambled_schematic"":""4"",""participantId"":""6462D588260B4356936047A04A336EBE"",""assignmentId"":""0198ed29-f289-7e25-a321-14c8d1b85292"",""projectId"":""0198ed26-a6a7-793d-982a-8940a71ab262""}","https://test12345.live/?num_scrambled_semantic=8&num_scrambled_causal=4&num_scrambled_schematic=4&participantId=6462D588260B4356936047A04A336EBE&assignmentId=0198ed29-f289-7e25-a321-14c8d1b85292&projectId=0198ed26-a6a7-793d-982a-8940a71ab262","6462D588260B4356936047A04A336EBE-2025-08-27-21-05-43","","733","","images/schematic_sequence/flight_scheme/flight_scheme_ten.png","0","",""
"","","","","","image-button-response","42","463459","0.0-10.0-1.0-2.5","6462D588260B4356936047A04A336EBE","6462D588260B4356936047A04A336EBE","0198ed29-f289-7e25-a321-14c8d1b85292","0198ed26-a6a7-793d-982a-8940a71ab262","{""num_scrambled_semantic"":""8"",""num_scrambled_causal"":""4"",""num_scrambled_schematic"":""4"",""participantId"":""6462D588260B4356936047A04A336EBE"",""assignmentId"":""0198ed29-f289-7e25-a321-14c8d1b85292"",""projectId"":""0198ed26-a6a7-793d-982a-8940a71ab262""}","https://test12345.live/?num_scrambled_semantic=8&num_scrambled_causal=4&num_scrambled_schematic=4&participantId=6462D588260B4356936047A04A336EBE&assignmentId=0198ed29-f289-7e25-a321-14c8d1b85292&projectId=0198ed26-a6a7-793d-982a-8940a71ab262","6462D588260B4356936047A04A336EBE-2025-08-27-21-05-43","","null","","[]","null","",""
"","","","","","image-button-response","43","467973","0.0-10.0-1.0-0.6","6462D588260B4356936047A04A336EBE","6462D588260B4356936047A04A336EBE","0198ed29-f289-7e25-a321-14c8d1b85292","0198ed26-a6a7-793d-982a-8940a71ab262","{""num_scrambled_semantic"":""8"",""num_scrambled_causal"":""4"",""num_scrambled_schematic"":""4"",""participantId"":""6462D588260B4356936047A04A336EBE"",""assignmentId"":""0198ed29-f289-7e25-a321-14c8d1b85292"",""projectId"":""0198ed26-a6a7-793d-982a-8940a71ab262""}","https://test12345.live/?num_scrambled_semantic=8&num_scrambled_causal=4&num_scrambled_schematic=4&participantId=6462D588260B4356936047A04A336EBE&assignmentId=0198ed29-f289-7e25-a321-14c8d1b85292&projectId=0198ed26-a6a7-793d-982a-8940a71ab262","6462D588260B4356936047A04A336EBE-2025-08-27-21-05-43","","null","","images/schematic_sequence/flight_scheme/flight_scheme_6.png","null","",""
"","","","","","image-button-response","44","469636","0.0-10.0-1.0-1.6","6462D588260B4356936047A04A336EBE","6462D588260B4356936047A04A336EBE","0198ed29-f289-7e25-a321-14c8d1b85292","0198ed26-a6a7-793d-982a-8940a71ab262","{""num_scrambled_semantic"":""8"",""num_scrambled_causal"":""4"",""num_scrambled_schematic"":""4"",""participantId"":""6462D588260B4356936047A04A336EBE"",""assignmentId"":""0198ed29-f289-7e25-a321-14c8d1b85292"",""projectId"":""0198ed26-a6a7-793d-982a-8940a71ab262""}","https://test12345.live/?num_scrambled_semantic=8&num_scrambled_causal=4&num_scrambled_schematic=4&participantId=6462D588260B4356936047A04A336EBE&assignmentId=0198ed29-f289-7e25-a321-14c8d1b85292&projectId=0198ed26-a6a7-793d-982a-8940a71ab262","6462D588260B4356936047A04A336EBE-2025-08-27-21-05-43","","1660","","images/schematic_sequence/flight_scheme/flight_scheme_6.png","1","",""
"","","","","","image-button-response","45","471443","0.0-10.0-1.0-2.6","6462D588260B4356936047A04A336EBE","6462D588260B4356936047A04A336EBE","0198ed29-f289-7e25-a321-14c8d1b85292","0198ed26-a6a7-793d-982a-8940a71ab262","{""num_scrambled_semantic"":""8"",""num_scrambled_causal"":""4"",""num_scrambled_schematic"":""4"",""participantId"":""6462D588260B4356936047A04A336EBE"",""assignmentId"":""0198ed29-f289-7e25-a321-14c8d1b85292"",""projectId"":""0198ed26-a6a7-793d-982a-8940a71ab262""}","https://test12345.live/?num_scrambled_semantic=8&num_scrambled_causal=4&num_scrambled_schematic=4&participantId=6462D588260B4356936047A04A336EBE&assignmentId=0198ed29-f289-7e25-a321-14c8d1b85292&projectId=0198ed26-a6a7-793d-982a-8940a71ab262","6462D588260B4356936047A04A336EBE-2025-08-27-21-05-43","","null","","[]","null","",""
"","","","","","image-button-response","46","475949","0.0-10.0-1.0-0.7","6462D588260B4356936047A04A336EBE","6462D588260B4356936047A04A336EBE","0198ed29-f289-7e25-a321-14c8d1b85292","0198ed26-a6a7-793d-982a-8940a71ab262","{""num_scrambled_semantic"":""8"",""num_scrambled_causal"":""4"",""num_scrambled_schematic"":""4"",""participantId"":""6462D588260B4356936047A04A336EBE"",""assignmentId"":""0198ed29-f289-7e25-a321-14c8d1b85292"",""projectId"":""0198ed26-a6a7-793d-982a-8940a71ab262""}","https://test12345.live/?num_scrambled_semantic=8&num_scrambled_causal=4&num_scrambled_schematic=4&participantId=6462D588260B4356936047A04A336EBE&assignmentId=0198ed29-f289-7e25-a321-14c8d1b85292&projectId=0198ed26-a6a7-793d-982a-8940a71ab262","6462D588260B4356936047A04A336EBE-2025-08-27-21-05-43","","null","","images/schematic_sequence/flight_scheme/flight_scheme_4.png","null","",""
"","","","","","image-button-response","47","477764","0.0-10.0-1.0-1.7","6462D588260B4356936047A04A336EBE","6462D588260B4356936047A04A336EBE","0198ed29-f289-7e25-a321-14c8d1b85292","0198ed26-a6a7-793d-982a-8940a71ab262","{""num_scrambled_semantic"":""8"",""num_scrambled_causal"":""4"",""num_scrambled_schematic"":""4"",""participantId"":""6462D588260B4356936047A04A336EBE"",""assignmentId"":""0198ed29-f289-7e25-a321-14c8d1b85292"",""projectId"":""0198ed26-a6a7-793d-982a-8940a71ab262""}","https://test12345.live/?num_scrambled_semantic=8&num_scrambled_causal=4&num_scrambled_schematic=4&participantId=6462D588260B4356936047A04A336EBE&assignmentId=0198ed29-f289-7e25-a321-14c8d1b85292&projectId=0198ed26-a6a7-793d-982a-8940a71ab262","6462D588260B4356936047A04A336EBE-2025-08-27-21-05-43","","1813","","images/schematic_sequence/flight_scheme/flight_scheme_4.png","0","",""
"","","","","","image-button-response","48","479576","0.0-10.0-1.0-2.7","6462D588260B4356936047A04A336EBE","6462D588260B4356936047A04A336EBE","0198ed29-f289-7e25-a321-14c8d1b85292","0198ed26-a6a7-793d-982a-8940a71ab262","{""num_scrambled_semantic"":""8"",""num_scrambled_causal"":""4"",""num_scrambled_schematic"":""4"",""participantId"":""6462D588260B4356936047A04A336EBE"",""assignmentId"":""0198ed29-f289-7e25-a321-14c8d1b85292"",""projectId"":""0198ed26-a6a7-793d-982a-8940a71ab262""}","https://test12345.live/?num_scrambled_semantic=8&num_scrambled_causal=4&num_scrambled_schematic=4&participantId=6462D588260B4356936047A04A336EBE&assignmentId=0198ed29-f289-7e25-a321-14c8d1b85292&projectId=0198ed26-a6a7-793d-982a-8940a71ab262","6462D588260B4356936047A04A336EBE-2025-08-27-21-05-43","","null","","[]","null","",""
"","","","","","image-button-response","49","484092","0.0-10.0-1.0-0.8","6462D588260B4356936047A04A336EBE","6462D588260B4356936047A04A336EBE","0198ed29-f289-7e25-a321-14c8d1b85292","0198ed26-a6a7-793d-982a-8940a71ab262","{""num_scrambled_semantic"":""8"",""num_scrambled_causal"":""4"",""num_scrambled_schematic"":""4"",""participantId"":""6462D588260B4356936047A04A336EBE"",""assignmentId"":""0198ed29-f289-7e25-a321-14c8d1b85292"",""projectId"":""0198ed26-a6a7-793d-982a-8940a71ab262""}","https://test12345.live/?num_scrambled_semantic=8&num_scrambled_causal=4&num_scrambled_schematic=4&participantId=6462D588260B4356936047A04A336EBE&assignmentId=0198ed29-f289-7e25-a321-14c8d1b85292&projectId=0198ed26-a6a7-793d-982a-8940a71ab262","6462D588260B4356936047A04A336EBE-2025-08-27-21-05-43","","null","","images/schematic_sequence/flight_scheme/flight_scheme_2.png","null","",""
"","","","","","image-button-response","50","487061","0.0-10.0-1.0-1.8","6462D588260B4356936047A04A336EBE","6462D588260B4356936047A04A336EBE","0198ed29-f289-7e25-a321-14c8d1b85292","0198ed26-a6a7-793d-982a-8940a71ab262","{""num_scrambled_semantic"":""8"",""num_scrambled_causal"":""4"",""num_scrambled_schematic"":""4"",""participantId"":""6462D588260B4356936047A04A336EBE"",""assignmentId"":""0198ed29-f289-7e25-a321-14c8d1b85292"",""projectId"":""0198ed26-a6a7-793d-982a-8940a71ab262""}","https://test12345.live/?num_scrambled_semantic=8&num_scrambled_causal=4&num_scrambled_schematic=4&participantId=6462D588260B4356936047A04A336EBE&assignmentId=0198ed29-f289-7e25-a321-14c8d1b85292&projectId=0198ed26-a6a7-793d-982a-8940a71ab262","6462D588260B4356936047A04A336EBE-2025-08-27-21-05-43","","2965","","images/schematic_sequence/flight_scheme/flight_scheme_2.png","1","",""
"","","","","","image-button-response","51","488864","0.0-10.0-1.0-2.8","6462D588260B4356936047A04A336EBE","6462D588260B4356936047A04A336EBE","0198ed29-f289-7e25-a321-14c8d1b85292","0198ed26-a6a7-793d-982a-8940a71ab262","{""num_scrambled_semantic"":""8"",""num_scrambled_causal"":""4"",""num_scrambled_schematic"":""4"",""participantId"":""6462D588260B4356936047A04A336EBE"",""assignmentId"":""0198ed29-f289-7e25-a321-14c8d1b85292"",""projectId"":""0198ed26-a6a7-793d-982a-8940a71ab262""}","https://test12345.live/?num_scrambled_semantic=8&num_scrambled_causal=4&num_scrambled_schematic=4&participantId=6462D588260B4356936047A04A336EBE&assignmentId=0198ed29-f289-7e25-a321-14c8d1b85292&projectId=0198ed26-a6a7-793d-982a-8940a71ab262","6462D588260B4356936047A04A336EBE-2025-08-27-21-05-43","","null","","[]","null","",""
"","","","","","image-button-response","52","493372","0.0-10.0-1.0-0.9","6462D588260B4356936047A04A336EBE","6462D588260B4356936047A04A336EBE","0198ed29-f289-7e25-a321-14c8d1b85292","0198ed26-a6a7-793d-982a-8940a71ab262","{""num_scrambled_semantic"":""8"",""num_scrambled_causal"":""4"",""num_scrambled_schematic"":""4"",""participantId"":""6462D588260B4356936047A04A336EBE"",""assignmentId"":""0198ed29-f289-7e25-a321-14c8d1b85292"",""projectId"":""0198ed26-a6a7-793d-982a-8940a71ab262""}","https://test12345.live/?num_scrambled_semantic=8&num_scrambled_causal=4&num_scrambled_schematic=4&participantId=6462D588260B4356936047A04A336EBE&assignmentId=0198ed29-f289-7e25-a321-14c8d1b85292&projectId=0198ed26-a6a7-793d-982a-8940a71ab262","6462D588260B4356936047A04A336EBE-2025-08-27-21-05-43","","null","","images/schematic_sequence/flight_scheme/flight_scheme_7.png","null","",""
"","","","","","image-button-response","53","495588","0.0-10.0-1.0-1.9","6462D588260B4356936047A04A336EBE","6462D588260B4356936047A04A336EBE","0198ed29-f289-7e25-a321-14c8d1b85292","0198ed26-a6a7-793d-982a-8940a71ab262","{""num_scrambled_semantic"":""8"",""num_scrambled_causal"":""4"",""num_scrambled_schematic"":""4"",""participantId"":""6462D588260B4356936047A04A336EBE"",""assignmentId"":""0198ed29-f289-7e25-a321-14c8d1b85292"",""projectId"":""0198ed26-a6a7-793d-982a-8940a71ab262""}","https://test12345.live/?num_scrambled_semantic=8&num_scrambled_causal=4&num_scrambled_schematic=4&participantId=6462D588260B4356936047A04A336EBE&assignmentId=0198ed29-f289-7e25-a321-14c8d1b85292&projectId=0198ed26-a6a7-793d-982a-8940a71ab262","6462D588260B4356936047A04A336EBE-2025-08-27-21-05-43","","2214","","images/schematic_sequence/flight_scheme/flight_scheme_7.png","1","",""
"","","","","","image-button-response","54","497405","0.0-10.0-1.0-2.9","6462D588260B4356936047A04A336EBE","6462D588260B4356936047A04A336EBE","0198ed29-f289-7e25-a321-14c8d1b85292","0198ed26-a6a7-793d-982a-8940a71ab262","{""num_scrambled_semantic"":""8"",""num_scrambled_causal"":""4"",""num_scrambled_schematic"":""4"",""participantId"":""6462D588260B4356936047A04A336EBE"",""assignmentId"":""0198ed29-f289-7e25-a321-14c8d1b85292"",""projectId"":""0198ed26-a6a7-793d-982a-8940a71ab262""}","https://test12345.live/?num_scrambled_semantic=8&num_scrambled_causal=4&num_scrambled_schematic=4&participantId=6462D588260B4356936047A04A336EBE&assignmentId=0198ed29-f289-7e25-a321-14c8d1b85292&projectId=0198ed26-a6a7-793d-982a-8940a71ab262","6462D588260B4356936047A04A336EBE-2025-08-27-21-05-43","","null","","[]","null","",""
"","","","","","html-audio-response","55","520900","0.0-11.0","6462D588260B4356936047A04A336EBE","6462D588260B4356936047A04A336EBE","0198ed29-f289-7e25-a321-14c8d1b85292","0198ed26-a6a7-793d-982a-8940a71ab262","{""num_scrambled_semantic"":""8"",""num_scrambled_causal"":""4"",""num_scrambled_schematic"":""4"",""participantId"":""6462D588260B4356936047A04A336EBE"",""assignmentId"":""0198ed29-f289-7e25-a321-14c8d1b85292"",""projectId"":""0198ed26-a6a7-793d-982a-8940a71ab262""}","https://test12345.live/?num_scrambled_semantic=8&num_scrambled_causal=4&num_scrambled_schematic=4&participantId=6462D588260B4356936047A04A336EBE&assignmentId=0198ed29-f289-7e25-a321-14c8d1b85292&projectId=0198ed26-a6a7-793d-982a-8940a71ab262","6462D588260B4356936047A04A336EBE-2025-08-27-21-05-43","","21791","","[""<span style=\""color: red; font-size: 24px\""> NOW RECORDING</span><p>Please say out loud all the images you saw, in the order of the story they create. Try to recall the sequence of events as they appeared in the story, not necessarily the order they were presented on the screen.</p>""]","","3","flight_scheme"
"","","","","","image-button-response","56","526922","0.0-12.0-0.0","6462D588260B4356936047A04A336EBE","6462D588260B4356936047A04A336EBE","0198ed29-f289-7e25-a321-14c8d1b85292","0198ed26-a6a7-793d-982a-8940a71ab262","{""num_scrambled_semantic"":""8"",""num_scrambled_causal"":""4"",""num_scrambled_schematic"":""4"",""participantId"":""6462D588260B4356936047A04A336EBE"",""assignmentId"":""0198ed29-f289-7e25-a321-14c8d1b85292"",""projectId"":""0198ed26-a6a7-793d-982a-8940a71ab262""}","https://test12345.live/?num_scrambled_semantic=8&num_scrambled_causal=4&num_scrambled_schematic=4&participantId=6462D588260B4356936047A04A336EBE&assignmentId=0198ed29-f289-7e25-a321-14c8d1b85292&projectId=0198ed26-a6a7-793d-982a-8940a71ab262","6462D588260B4356936047A04A336EBE-2025-08-27-21-05-43","","null","","images/semantic_sequence/redecorating_a_house_semantic/redecorating_a_house_semantic_0.png","null","",""
"","","","","","image-button-response","57","531492","0.0-12.0-1.0-0.0","6462D588260B4356936047A04A336EBE","6462D588260B4356936047A04A336EBE","0198ed29-f289-7e25-a321-14c8d1b85292","0198ed26-a6a7-793d-982a-8940a71ab262","{""num_scrambled_semantic"":""8"",""num_scrambled_causal"":""4"",""num_scrambled_schematic"":""4"",""participantId"":""6462D588260B4356936047A04A336EBE"",""assignmentId"":""0198ed29-f289-7e25-a321-14c8d1b85292"",""projectId"":""0198ed26-a6a7-793d-982a-8940a71ab262""}","https://test12345.live/?num_scrambled_semantic=8&num_scrambled_causal=4&num_scrambled_schematic=4&participantId=6462D588260B4356936047A04A336EBE&assignmentId=0198ed29-f289-7e25-a321-14c8d1b85292&projectId=0198ed26-a6a7-793d-982a-8940a71ab262","6462D588260B4356936047A04A336EBE-2025-08-27-21-05-43","","null","","images/semantic_sequence/redecorating_a_house_semantic/redecorating_a_house_semantic_8.png","null","",""
"","","","","","image-button-response","58","533717","0.0-12.0-1.0-1.0","6462D588260B4356936047A04A336EBE","6462D588260B4356936047A04A336EBE","0198ed29-f289-7e25-a321-14c8d1b85292","0198ed26-a6a7-793d-982a-8940a71ab262","{""num_scrambled_semantic"":""8"",""num_scrambled_causal"":""4"",""num_scrambled_schematic"":""4"",""participantId"":""6462D588260B4356936047A04A336EBE"",""assignmentId"":""0198ed29-f289-7e25-a321-14c8d1b85292"",""projectId"":""0198ed26-a6a7-793d-982a-8940a71ab262""}","https://test12345.live/?num_scrambled_semantic=8&num_scrambled_causal=4&num_scrambled_schematic=4&participantId=6462D588260B4356936047A04A336EBE&assignmentId=0198ed29-f289-7e25-a321-14c8d1b85292&projectId=0198ed26-a6a7-793d-982a-8940a71ab262","6462D588260B4356936047A04A336EBE-2025-08-27-21-05-43","","2222","","images/semantic_sequence/redecorating_a_house_semantic/redecorating_a_house_semantic_8.png","0","",""
"","","","","","image-button-response","59","535534","0.0-12.0-1.0-2.0","6462D588260B4356936047A04A336EBE","6462D588260B4356936047A04A336EBE","0198ed29-f289-7e25-a321-14c8d1b85292","0198ed26-a6a7-793d-982a-8940a71ab262","{""num_scrambled_semantic"":""8"",""num_scrambled_causal"":""4"",""num_scrambled_schematic"":""4"",""participantId"":""6462D588260B4356936047A04A336EBE"",""assignmentId"":""0198ed29-f289-7e25-a321-14c8d1b85292"",""projectId"":""0198ed26-a6a7-793d-982a-8940a71ab262""}","https://test12345.live/?num_scrambled_semantic=8&num_scrambled_causal=4&num_scrambled_schematic=4&participantId=6462D588260B4356936047A04A336EBE&assignmentId=0198ed29-f289-7e25-a321-14c8d1b85292&projectId=0198ed26-a6a7-793d-982a-8940a71ab262","6462D588260B4356936047A04A336EBE-2025-08-27-21-05-43","","null","","[]","null","",""
"","","","","","image-button-response","60","540051","0.0-12.0-1.0-0.1","6462D588260B4356936047A04A336EBE","6462D588260B4356936047A04A336EBE","0198ed29-f289-7e25-a321-14c8d1b85292","0198ed26-a6a7-793d-982a-8940a71ab262","{""num_scrambled_semantic"":""8"",""num_scrambled_causal"":""4"",""num_scrambled_schematic"":""4"",""participantId"":""6462D588260B4356936047A04A336EBE"",""assignmentId"":""0198ed29-f289-7e25-a321-14c8d1b85292"",""projectId"":""0198ed26-a6a7-793d-982a-8940a71ab262""}","https://test12345.live/?num_scrambled_semantic=8&num_scrambled_causal=4&num_scrambled_schematic=4&participantId=6462D588260B4356936047A04A336EBE&assignmentId=0198ed29-f289-7e25-a321-14c8d1b85292&projectId=0198ed26-a6a7-793d-982a-8940a71ab262","6462D588260B4356936047A04A336EBE-2025-08-27-21-05-43","","null","","images/semantic_sequence/redecorating_a_house_semantic/redecorating_a_house_semantic_9.png","null","",""
"","","","","","image-button-response","61","541325","0.0-12.0-1.0-1.1","6462D588260B4356936047A04A336EBE","6462D588260B4356936047A04A336EBE","0198ed29-f289-7e25-a321-14c8d1b85292","0198ed26-a6a7-793d-982a-8940a71ab262","{""num_scrambled_semantic"":""8"",""num_scrambled_causal"":""4"",""num_scrambled_schematic"":""4"",""participantId"":""6462D588260B4356936047A04A336EBE"",""assignmentId"":""0198ed29-f289-7e25-a321-14c8d1b85292"",""projectId"":""0198ed26-a6a7-793d-982a-8940a71ab262""}","https://test12345.live/?num_scrambled_semantic=8&num_scrambled_causal=4&num_scrambled_schematic=4&participantId=6462D588260B4356936047A04A336EBE&assignmentId=0198ed29-f289-7e25-a321-14c8d1b85292&projectId=0198ed26-a6a7-793d-982a-8940a71ab262","6462D588260B4356936047A04A336EBE-2025-08-27-21-05-43","","1272","","images/semantic_sequence/redecorating_a_house_semantic/redecorating_a_house_semantic_9.png","0","",""
"","","","","","image-button-response","62","543134","0.0-12.0-1.0-2.1","6462D588260B4356936047A04A336EBE","6462D588260B4356936047A04A336EBE","0198ed29-f289-7e25-a321-14c8d1b85292","0198ed26-a6a7-793d-982a-8940a71ab262","{""num_scrambled_semantic"":""8"",""num_scrambled_causal"":""4"",""num_scrambled_schematic"":""4"",""participantId"":""6462D588260B4356936047A04A336EBE"",""assignmentId"":""0198ed29-f289-7e25-a321-14c8d1b85292"",""projectId"":""0198ed26-a6a7-793d-982a-8940a71ab262""}","https://test12345.live/?num_scrambled_semantic=8&num_scrambled_causal=4&num_scrambled_schematic=4&participantId=6462D588260B4356936047A04A336EBE&assignmentId=0198ed29-f289-7e25-a321-14c8d1b85292&projectId=0198ed26-a6a7-793d-982a-8940a71ab262","6462D588260B4356936047A04A336EBE-2025-08-27-21-05-43","","null","","[]","null","",""
"","","","","","image-button-response","63","547645","0.0-12.0-1.0-0.2","6462D588260B4356936047A04A336EBE","6462D588260B4356936047A04A336EBE","0198ed29-f289-7e25-a321-14c8d1b85292","0198ed26-a6a7-793d-982a-8940a71ab262","{""num_scrambled_semantic"":""8"",""num_scrambled_causal"":""4"",""num_scrambled_schematic"":""4"",""participantId"":""6462D588260B4356936047A04A336EBE"",""assignmentId"":""0198ed29-f289-7e25-a321-14c8d1b85292"",""projectId"":""0198ed26-a6a7-793d-982a-8940a71ab262""}","https://test12345.live/?num_scrambled_semantic=8&num_scrambled_causal=4&num_scrambled_schematic=4&participantId=6462D588260B4356936047A04A336EBE&assignmentId=0198ed29-f289-7e25-a321-14c8d1b85292&projectId=0198ed26-a6a7-793d-982a-8940a71ab262","6462D588260B4356936047A04A336EBE-2025-08-27-21-05-43","","null","","images/semantic_sequence/redecorating_a_house_semantic/redecorating_a_house_semantic_5.png","null","",""
"","","","","","image-button-response","64","548580","0.0-12.0-1.0-1.2","6462D588260B4356936047A04A336EBE","6462D588260B4356936047A04A336EBE","0198ed29-f289-7e25-a321-14c8d1b85292","0198ed26-a6a7-793d-982a-8940a71ab262","{""num_scrambled_semantic"":""8"",""num_scrambled_causal"":""4"",""num_scrambled_schematic"":""4"",""participantId"":""6462D588260B4356936047A04A336EBE"",""assignmentId"":""0198ed29-f289-7e25-a321-14c8d1b85292"",""projectId"":""0198ed26-a6a7-793d-982a-8940a71ab262""}","https://test12345.live/?num_scrambled_semantic=8&num_scrambled_causal=4&num_scrambled_schematic=4&participantId=6462D588260B4356936047A04A336EBE&assignmentId=0198ed29-f289-7e25-a321-14c8d1b85292&projectId=0198ed26-a6a7-793d-982a-8940a71ab262","6462D588260B4356936047A04A336EBE-2025-08-27-21-05-43","","933","","images/semantic_sequence/redecorating_a_house_semantic/redecorating_a_house_semantic_5.png","0","",""
"","","","","","image-button-response","65","550395","0.0-12.0-1.0-2.2","6462D588260B4356936047A04A336EBE","6462D588260B4356936047A04A336EBE","0198ed29-f289-7e25-a321-14c8d1b85292","0198ed26-a6a7-793d-982a-8940a71ab262","{""num_scrambled_semantic"":""8"",""num_scrambled_causal"":""4"",""num_scrambled_schematic"":""4"",""participantId"":""6462D588260B4356936047A04A336EBE"",""assignmentId"":""0198ed29-f289-7e25-a321-14c8d1b85292"",""projectId"":""0198ed26-a6a7-793d-982a-8940a71ab262""}","https://test12345.live/?num_scrambled_semantic=8&num_scrambled_causal=4&num_scrambled_schematic=4&participantId=6462D588260B4356936047A04A336EBE&assignmentId=0198ed29-f289-7e25-a321-14c8d1b85292&projectId=0198ed26-a6a7-793d-982a-8940a71ab262","6462D588260B4356936047A04A336EBE-2025-08-27-21-05-43","","null","","[]","null","",""
"","","","","","image-button-response","66","554902","0.0-12.0-1.0-0.3","6462D588260B4356936047A04A336EBE","6462D588260B4356936047A04A336EBE","0198ed29-f289-7e25-a321-14c8d1b85292","0198ed26-a6a7-793d-982a-8940a71ab262","{""num_scrambled_semantic"":""8"",""num_scrambled_causal"":""4"",""num_scrambled_schematic"":""4"",""participantId"":""6462D588260B4356936047A04A336EBE"",""assignmentId"":""0198ed29-f289-7e25-a321-14c8d1b85292"",""projectId"":""0198ed26-a6a7-793d-982a-8940a71ab262""}","https://test12345.live/?num_scrambled_semantic=8&num_scrambled_causal=4&num_scrambled_schematic=4&participantId=6462D588260B4356936047A04A336EBE&assignmentId=0198ed29-f289-7e25-a321-14c8d1b85292&projectId=0198ed26-a6a7-793d-982a-8940a71ab262","6462D588260B4356936047A04A336EBE-2025-08-27-21-05-43","","null","","images/semantic_sequence/redecorating_a_house_semantic/redecorating_a_house_semantic_2.png","null","",""
"","","","","","image-button-response","67","555220","0.0-12.0-1.0-1.3","6462D588260B4356936047A04A336EBE","6462D588260B4356936047A04A336EBE","0198ed29-f289-7e25-a321-14c8d1b85292","0198ed26-a6a7-793d-982a-8940a71ab262","{""num_scrambled_semantic"":""8"",""num_scrambled_causal"":""4"",""num_scrambled_schematic"":""4"",""participantId"":""6462D588260B4356936047A04A336EBE"",""assignmentId"":""0198ed29-f289-7e25-a321-14c8d1b85292"",""projectId"":""0198ed26-a6a7-793d-982a-8940a71ab262""}","https://test12345.live/?num_scrambled_semantic=8&num_scrambled_causal=4&num_scrambled_schematic=4&participantId=6462D588260B4356936047A04A336EBE&assignmentId=0198ed29-f289-7e25-a321-14c8d1b85292&projectId=0198ed26-a6a7-793d-982a-8940a71ab262","6462D588260B4356936047A04A336EBE-2025-08-27-21-05-43","","315","","images/semantic_sequence/redecorating_a_house_semantic/redecorating_a_house_semantic_2.png","0","",""
"","","","","","image-button-response","68","557034","0.0-12.0-1.0-2.3","6462D588260B4356936047A04A336EBE","6462D588260B4356936047A04A336EBE","0198ed29-f289-7e25-a321-14c8d1b85292","0198ed26-a6a7-793d-982a-8940a71ab262","{""num_scrambled_semantic"":""8"",""num_scrambled_causal"":""4"",""num_scrambled_schematic"":""4"",""participantId"":""6462D588260B4356936047A04A336EBE"",""assignmentId"":""0198ed29-f289-7e25-a321-14c8d1b85292"",""projectId"":""0198ed26-a6a7-793d-982a-8940a71ab262""}","https://test12345.live/?num_scrambled_semantic=8&num_scrambled_causal=4&num_scrambled_schematic=4&participantId=6462D588260B4356936047A04A336EBE&assignmentId=0198ed29-f289-7e25-a321-14c8d1b85292&projectId=0198ed26-a6a7-793d-982a-8940a71ab262","6462D588260B4356936047A04A336EBE-2025-08-27-21-05-43","","null","","[]","null","",""
"","","","","","image-button-response","69","561539","0.0-12.0-1.0-0.4","6462D588260B4356936047A04A336EBE","6462D588260B4356936047A04A336EBE","0198ed29-f289-7e25-a321-14c8d1b85292","0198ed26-a6a7-793d-982a-8940a71ab262","{""num_scrambled_semantic"":""8"",""num_scrambled_causal"":""4"",""num_scrambled_schematic"":""4"",""participantId"":""6462D588260B4356936047A04A336EBE"",""assignmentId"":""0198ed29-f289-7e25-a321-14c8d1b85292"",""projectId"":""0198ed26-a6a7-793d-982a-8940a71ab262""}","https://test12345.live/?num_scrambled_semantic=8&num_scrambled_causal=4&num_scrambled_schematic=4&participantId=6462D588260B4356936047A04A336EBE&assignmentId=0198ed29-f289-7e25-a321-14c8d1b85292&projectId=0198ed26-a6a7-793d-982a-8940a71ab262","6462D588260B4356936047A04A336EBE-2025-08-27-21-05-43","","null","","images/semantic_sequence/redecorating_a_house_semantic/redecorating_a_house_semantic_1.png","null","",""
"","","","","","image-button-response","70","562396","0.0-12.0-1.0-1.4","6462D588260B4356936047A04A336EBE","6462D588260B4356936047A04A336EBE","0198ed29-f289-7e25-a321-14c8d1b85292","0198ed26-a6a7-793d-982a-8940a71ab262","{""num_scrambled_semantic"":""8"",""num_scrambled_causal"":""4"",""num_scrambled_schematic"":""4"",""participantId"":""6462D588260B4356936047A04A336EBE"",""assignmentId"":""0198ed29-f289-7e25-a321-14c8d1b85292"",""projectId"":""0198ed26-a6a7-793d-982a-8940a71ab262""}","https://test12345.live/?num_scrambled_semantic=8&num_scrambled_causal=4&num_scrambled_schematic=4&participantId=6462D588260B4356936047A04A336EBE&assignmentId=0198ed29-f289-7e25-a321-14c8d1b85292&projectId=0198ed26-a6a7-793d-982a-8940a71ab262","6462D588260B4356936047A04A336EBE-2025-08-27-21-05-43","","855","","images/semantic_sequence/redecorating_a_house_semantic/redecorating_a_house_semantic_1.png","0","",""
"","","","","","image-button-response","71","564211","0.0-12.0-1.0-2.4","6462D588260B4356936047A04A336EBE","6462D588260B4356936047A04A336EBE","0198ed29-f289-7e25-a321-14c8d1b85292","0198ed26-a6a7-793d-982a-8940a71ab262","{""num_scrambled_semantic"":""8"",""num_scrambled_causal"":""4"",""num_scrambled_schematic"":""4"",""participantId"":""6462D588260B4356936047A04A336EBE"",""assignmentId"":""0198ed29-f289-7e25-a321-14c8d1b85292"",""projectId"":""0198ed26-a6a7-793d-982a-8940a71ab262""}","https://test12345.live/?num_scrambled_semantic=8&num_scrambled_causal=4&num_scrambled_schematic=4&participantId=6462D588260B4356936047A04A336EBE&assignmentId=0198ed29-f289-7e25-a321-14c8d1b85292&projectId=0198ed26-a6a7-793d-982a-8940a71ab262","6462D588260B4356936047A04A336EBE-2025-08-27-21-05-43","","null","","[]","null","",""
"","","","","","image-button-response","72","568716","0.0-12.0-1.0-0.5","6462D588260B4356936047A04A336EBE","6462D588260B4356936047A04A336EBE","0198ed29-f289-7e25-a321-14c8d1b85292","0198ed26-a6a7-793d-982a-8940a71ab262","{""num_scrambled_semantic"":""8"",""num_scrambled_causal"":""4"",""num_scrambled_schematic"":""4"",""participantId"":""6462D588260B4356936047A04A336EBE"",""assignmentId"":""0198ed29-f289-7e25-a321-14c8d1b85292"",""projectId"":""0198ed26-a6a7-793d-982a-8940a71ab262""}","https://test12345.live/?num_scrambled_semantic=8&num_scrambled_causal=4&num_scrambled_schematic=4&participantId=6462D588260B4356936047A04A336EBE&assignmentId=0198ed29-f289-7e25-a321-14c8d1b85292&projectId=0198ed26-a6a7-793d-982a-8940a71ab262","6462D588260B4356936047A04A336EBE-2025-08-27-21-05-43","","null","","images/semantic_sequence/redecorating_a_house_semantic/redecorating_a_house_semantic_7.png","null","",""
"","","","","","image-button-response","73","570628","0.0-12.0-1.0-1.5","6462D588260B4356936047A04A336EBE","6462D588260B4356936047A04A336EBE","0198ed29-f289-7e25-a321-14c8d1b85292","0198ed26-a6a7-793d-982a-8940a71ab262","{""num_scrambled_semantic"":""8"",""num_scrambled_causal"":""4"",""num_scrambled_schematic"":""4"",""participantId"":""6462D588260B4356936047A04A336EBE"",""assignmentId"":""0198ed29-f289-7e25-a321-14c8d1b85292"",""projectId"":""0198ed26-a6a7-793d-982a-8940a71ab262""}","https://test12345.live/?num_scrambled_semantic=8&num_scrambled_causal=4&num_scrambled_schematic=4&participantId=6462D588260B4356936047A04A336EBE&assignmentId=0198ed29-f289-7e25-a321-14c8d1b85292&projectId=0198ed26-a6a7-793d-982a-8940a71ab262","6462D588260B4356936047A04A336EBE-2025-08-27-21-05-43","","1910","","images/semantic_sequence/redecorating_a_house_semantic/redecorating_a_house_semantic_7.png","0","",""
"","","","","","image-button-response","74","572435","0.0-12.0-1.0-2.5","6462D588260B4356936047A04A336EBE","6462D588260B4356936047A04A336EBE","0198ed29-f289-7e25-a321-14c8d1b85292","0198ed26-a6a7-793d-982a-8940a71ab262","{""num_scrambled_semantic"":""8"",""num_scrambled_causal"":""4"",""num_scrambled_schematic"":""4"",""participantId"":""6462D588260B4356936047A04A336EBE"",""assignmentId"":""0198ed29-f289-7e25-a321-14c8d1b85292"",""projectId"":""0198ed26-a6a7-793d-982a-8940a71ab262""}","https://test12345.live/?num_scrambled_semantic=8&num_scrambled_causal=4&num_scrambled_schematic=4&participantId=6462D588260B4356936047A04A336EBE&assignmentId=0198ed29-f289-7e25-a321-14c8d1b85292&projectId=0198ed26-a6a7-793d-982a-8940a71ab262","6462D588260B4356936047A04A336EBE-2025-08-27-21-05-43","","null","","[]","null","",""
"","","","","","image-button-response","75","576948","0.0-12.0-1.0-0.6","6462D588260B4356936047A04A336EBE","6462D588260B4356936047A04A336EBE","0198ed29-f289-7e25-a321-14c8d1b85292","0198ed26-a6a7-793d-982a-8940a71ab262","{""num_scrambled_semantic"":""8"",""num_scrambled_causal"":""4"",""num_scrambled_schematic"":""4"",""participantId"":""6462D588260B4356936047A04A336EBE"",""assignmentId"":""0198ed29-f289-7e25-a321-14c8d1b85292"",""projectId"":""0198ed26-a6a7-793d-982a-8940a71ab262""}","https://test12345.live/?num_scrambled_semantic=8&num_scrambled_causal=4&num_scrambled_schematic=4&participantId=6462D588260B4356936047A04A336EBE&assignmentId=0198ed29-f289-7e25-a321-14c8d1b85292&projectId=0198ed26-a6a7-793d-982a-8940a71ab262","6462D588260B4356936047A04A336EBE-2025-08-27-21-05-43","","null","","images/semantic_sequence/redecorating_a_house_semantic/redecorating_a_house_semantic_4.png","null","",""
"","","","","","image-button-response","76","578364","0.0-12.0-1.0-1.6","6462D588260B4356936047A04A336EBE","6462D588260B4356936047A04A336EBE","0198ed29-f289-7e25-a321-14c8d1b85292","0198ed26-a6a7-793d-982a-8940a71ab262","{""num_scrambled_semantic"":""8"",""num_scrambled_causal"":""4"",""num_scrambled_schematic"":""4"",""participantId"":""6462D588260B4356936047A04A336EBE"",""assignmentId"":""0198ed29-f289-7e25-a321-14c8d1b85292"",""projectId"":""0198ed26-a6a7-793d-982a-8940a71ab262""}","https://test12345.live/?num_scrambled_semantic=8&num_scrambled_causal=4&num_scrambled_schematic=4&participantId=6462D588260B4356936047A04A336EBE&assignmentId=0198ed29-f289-7e25-a321-14c8d1b85292&projectId=0198ed26-a6a7-793d-982a-8940a71ab262","6462D588260B4356936047A04A336EBE-2025-08-27-21-05-43","","1415","","images/semantic_sequence/redecorating_a_house_semantic/redecorating_a_house_semantic_4.png","0","",""
"","","","","","image-button-response","77","580171","0.0-12.0-1.0-2.6","6462D588260B4356936047A04A336EBE","6462D588260B4356936047A04A336EBE","0198ed29-f289-7e25-a321-14c8d1b85292","0198ed26-a6a7-793d-982a-8940a71ab262","{""num_scrambled_semantic"":""8"",""num_scrambled_causal"":""4"",""num_scrambled_schematic"":""4"",""participantId"":""6462D588260B4356936047A04A336EBE"",""assignmentId"":""0198ed29-f289-7e25-a321-14c8d1b85292"",""projectId"":""0198ed26-a6a7-793d-982a-8940a71ab262""}","https://test12345.live/?num_scrambled_semantic=8&num_scrambled_causal=4&num_scrambled_schematic=4&participantId=6462D588260B4356936047A04A336EBE&assignmentId=0198ed29-f289-7e25-a321-14c8d1b85292&projectId=0198ed26-a6a7-793d-982a-8940a71ab262","6462D588260B4356936047A04A336EBE-2025-08-27-21-05-43","","null","","[]","null","",""
"","","","","","image-button-response","78","584688","0.0-12.0-1.0-0.7","6462D588260B4356936047A04A336EBE","6462D588260B4356936047A04A336EBE","0198ed29-f289-7e25-a321-14c8d1b85292","0198ed26-a6a7-793d-982a-8940a71ab262","{""num_scrambled_semantic"":""8"",""num_scrambled_causal"":""4"",""num_scrambled_schematic"":""4"",""participantId"":""6462D588260B4356936047A04A336EBE"",""assignmentId"":""0198ed29-f289-7e25-a321-14c8d1b85292"",""projectId"":""0198ed26-a6a7-793d-982a-8940a71ab262""}","https://test12345.live/?num_scrambled_semantic=8&num_scrambled_causal=4&num_scrambled_schematic=4&participantId=6462D588260B4356936047A04A336EBE&assignmentId=0198ed29-f289-7e25-a321-14c8d1b85292&projectId=0198ed26-a6a7-793d-982a-8940a71ab262","6462D588260B4356936047A04A336EBE-2025-08-27-21-05-43","","null","","images/semantic_sequence/redecorating_a_house_semantic/redecorating_a_house_semantic_3.png","null","",""
"","","","","","image-button-response","79","585516","0.0-12.0-1.0-1.7","6462D588260B4356936047A04A336EBE","6462D588260B4356936047A04A336EBE","0198ed29-f289-7e25-a321-14c8d1b85292","0198ed26-a6a7-793d-982a-8940a71ab262","{""num_scrambled_semantic"":""8"",""num_scrambled_causal"":""4"",""num_scrambled_schematic"":""4"",""participantId"":""6462D588260B4356936047A04A336EBE"",""assignmentId"":""0198ed29-f289-7e25-a321-14c8d1b85292"",""projectId"":""0198ed26-a6a7-793d-982a-8940a71ab262""}","https://test12345.live/?num_scrambled_semantic=8&num_scrambled_causal=4&num_scrambled_schematic=4&participantId=6462D588260B4356936047A04A336EBE&assignmentId=0198ed29-f289-7e25-a321-14c8d1b85292&projectId=0198ed26-a6a7-793d-982a-8940a71ab262","6462D588260B4356936047A04A336EBE-2025-08-27-21-05-43","","826","","images/semantic_sequence/redecorating_a_house_semantic/redecorating_a_house_semantic_3.png","0","",""
"","","","","","image-button-response","80","587330","0.0-12.0-1.0-2.7","6462D588260B4356936047A04A336EBE","6462D588260B4356936047A04A336EBE","0198ed29-f289-7e25-a321-14c8d1b85292","0198ed26-a6a7-793d-982a-8940a71ab262","{""num_scrambled_semantic"":""8"",""num_scrambled_causal"":""4"",""num_scrambled_schematic"":""4"",""participantId"":""6462D588260B4356936047A04A336EBE"",""assignmentId"":""0198ed29-f289-7e25-a321-14c8d1b85292"",""projectId"":""0198ed26-a6a7-793d-982a-8940a71ab262""}","https://test12345.live/?num_scrambled_semantic=8&num_scrambled_causal=4&num_scrambled_schematic=4&participantId=6462D588260B4356936047A04A336EBE&assignmentId=0198ed29-f289-7e25-a321-14c8d1b85292&projectId=0198ed26-a6a7-793d-982a-8940a71ab262","6462D588260B4356936047A04A336EBE-2025-08-27-21-05-43","","null","","[]","null","",""
"","","","","","image-button-response","81","591845","0.0-12.0-1.0-0.8","6462D588260B4356936047A04A336EBE","6462D588260B4356936047A04A336EBE","0198ed29-f289-7e25-a321-14c8d1b85292","0198ed26-a6a7-793d-982a-8940a71ab262","{""num_scrambled_semantic"":""8"",""num_scrambled_causal"":""4"",""num_scrambled_schematic"":""4"",""participantId"":""6462D588260B4356936047A04A336EBE"",""assignmentId"":""0198ed29-f289-7e25-a321-14c8d1b85292"",""projectId"":""0198ed26-a6a7-793d-982a-8940a71ab262""}","https://test12345.live/?num_scrambled_semantic=8&num_scrambled_causal=4&num_scrambled_schematic=4&participantId=6462D588260B4356936047A04A336EBE&assignmentId=0198ed29-f289-7e25-a321-14c8d1b85292&projectId=0198ed26-a6a7-793d-982a-8940a71ab262","6462D588260B4356936047A04A336EBE-2025-08-27-21-05-43","","null","","images/semantic_sequence/redecorating_a_house_semantic/redecorating_a_house_semantic_ten.png","null","",""
"","","","","","image-button-response","82","593476","0.0-12.0-1.0-1.8","6462D588260B4356936047A04A336EBE","6462D588260B4356936047A04A336EBE","0198ed29-f289-7e25-a321-14c8d1b85292","0198ed26-a6a7-793d-982a-8940a71ab262","{""num_scrambled_semantic"":""8"",""num_scrambled_causal"":""4"",""num_scrambled_schematic"":""4"",""participantId"":""6462D588260B4356936047A04A336EBE"",""assignmentId"":""0198ed29-f289-7e25-a321-14c8d1b85292"",""projectId"":""0198ed26-a6a7-793d-982a-8940a71ab262""}","https://test12345.live/?num_scrambled_semantic=8&num_scrambled_causal=4&num_scrambled_schematic=4&participantId=6462D588260B4356936047A04A336EBE&assignmentId=0198ed29-f289-7e25-a321-14c8d1b85292&projectId=0198ed26-a6a7-793d-982a-8940a71ab262","6462D588260B4356936047A04A336EBE-2025-08-27-21-05-43","","1629","","images/semantic_sequence/redecorating_a_house_semantic/redecorating_a_house_semantic_ten.png","0","",""
"","","","","","image-button-response","83","595290","0.0-12.0-1.0-2.8","6462D588260B4356936047A04A336EBE","6462D588260B4356936047A04A336EBE","0198ed29-f289-7e25-a321-14c8d1b85292","0198ed26-a6a7-793d-982a-8940a71ab262","{""num_scrambled_semantic"":""8"",""num_scrambled_causal"":""4"",""num_scrambled_schematic"":""4"",""participantId"":""6462D588260B4356936047A04A336EBE"",""assignmentId"":""0198ed29-f289-7e25-a321-14c8d1b85292"",""projectId"":""0198ed26-a6a7-793d-982a-8940a71ab262""}","https://test12345.live/?num_scrambled_semantic=8&num_scrambled_causal=4&num_scrambled_schematic=4&participantId=6462D588260B4356936047A04A336EBE&assignmentId=0198ed29-f289-7e25-a321-14c8d1b85292&projectId=0198ed26-a6a7-793d-982a-8940a71ab262","6462D588260B4356936047A04A336EBE-2025-08-27-21-05-43","","null","","[]","null","",""
"","","","","","image-button-response","84","599800","0.0-12.0-1.0-0.9","6462D588260B4356936047A04A336EBE","6462D588260B4356936047A04A336EBE","0198ed29-f289-7e25-a321-14c8d1b85292","0198ed26-a6a7-793d-982a-8940a71ab262","{""num_scrambled_semantic"":""8"",""num_scrambled_causal"":""4"",""num_scrambled_schematic"":""4"",""participantId"":""6462D588260B4356936047A04A336EBE"",""assignmentId"":""0198ed29-f289-7e25-a321-14c8d1b85292"",""projectId"":""0198ed26-a6a7-793d-982a-8940a71ab262""}","https://test12345.live/?num_scrambled_semantic=8&num_scrambled_causal=4&num_scrambled_schematic=4&participantId=6462D588260B4356936047A04A336EBE&assignmentId=0198ed29-f289-7e25-a321-14c8d1b85292&projectId=0198ed26-a6a7-793d-982a-8940a71ab262","6462D588260B4356936047A04A336EBE-2025-08-27-21-05-43","","null","","images/semantic_sequence/redecorating_a_house_semantic/redecorating_a_house_semantic_6.png","null","",""
"","","","","","image-button-response","85","600845","0.0-12.0-1.0-1.9","6462D588260B4356936047A04A336EBE","6462D588260B4356936047A04A336EBE","0198ed29-f289-7e25-a321-14c8d1b85292","0198ed26-a6a7-793d-982a-8940a71ab262","{""num_scrambled_semantic"":""8"",""num_scrambled_causal"":""4"",""num_scrambled_schematic"":""4"",""participantId"":""6462D588260B4356936047A04A336EBE"",""assignmentId"":""0198ed29-f289-7e25-a321-14c8d1b85292"",""projectId"":""0198ed26-a6a7-793d-982a-8940a71ab262""}","https://test12345.live/?num_scrambled_semantic=8&num_scrambled_causal=4&num_scrambled_schematic=4&participantId=6462D588260B4356936047A04A336EBE&assignmentId=0198ed29-f289-7e25-a321-14c8d1b85292&projectId=0198ed26-a6a7-793d-982a-8940a71ab262","6462D588260B4356936047A04A336EBE-2025-08-27-21-05-43","","1043","","images/semantic_sequence/redecorating_a_house_semantic/redecorating_a_house_semantic_6.png","0","",""
"","","","","","image-button-response","86","602659","0.0-12.0-1.0-2.9","6462D588260B4356936047A04A336EBE","6462D588260B4356936047A04A336EBE","0198ed29-f289-7e25-a321-14c8d1b85292","0198ed26-a6a7-793d-982a-8940a71ab262","{""num_scrambled_semantic"":""8"",""num_scrambled_causal"":""4"",""num_scrambled_schematic"":""4"",""participantId"":""6462D588260B4356936047A04A336EBE"",""assignmentId"":""0198ed29-f289-7e25-a321-14c8d1b85292"",""projectId"":""0198ed26-a6a7-793d-982a-8940a71ab262""}","https://test12345.live/?num_scrambled_semantic=8&num_scrambled_causal=4&num_scrambled_schematic=4&participantId=6462D588260B4356936047A04A336EBE&assignmentId=0198ed29-f289-7e25-a321-14c8d1b85292&projectId=0198ed26-a6a7-793d-982a-8940a71ab262","6462D588260B4356936047A04A336EBE-2025-08-27-21-05-43","","null","","[]","null","",""
"","","","","","html-audio-response","87","622388","0.0-13.0","6462D588260B4356936047A04A336EBE","6462D588260B4356936047A04A336EBE","0198ed29-f289-7e25-a321-14c8d1b85292","0198ed26-a6a7-793d-982a-8940a71ab262","{""num_scrambled_semantic"":""8"",""num_scrambled_causal"":""4"",""num_scrambled_schematic"":""4"",""participantId"":""6462D588260B4356936047A04A336EBE"",""assignmentId"":""0198ed29-f289-7e25-a321-14c8d1b85292"",""projectId"":""0198ed26-a6a7-793d-982a-8940a71ab262""}","https://test12345.live/?num_scrambled_semantic=8&num_scrambled_causal=4&num_scrambled_schematic=4&participantId=6462D588260B4356936047A04A336EBE&assignmentId=0198ed29-f289-7e25-a321-14c8d1b85292&projectId=0198ed26-a6a7-793d-982a-8940a71ab262","6462D588260B4356936047A04A336EBE-2025-08-27-21-05-43","","18693","","[""<span style=\""color: red; font-size: 24px\""> NOW RECORDING</span><p>Please say out loud all the images you saw, in the order of the story they create. Try to recall the sequence of events as they appeared in the story, not necessarily the order they were presented on the screen.</p>""]","","2","redecorating_a_house_semantic"
"","","","","","image-button-response","88","628468","0.0-14.0-0.0","6462D588260B4356936047A04A336EBE","6462D588260B4356936047A04A336EBE","0198ed29-f289-7e25-a321-14c8d1b85292","0198ed26-a6a7-793d-982a-8940a71ab262","{""num_scrambled_semantic"":""8"",""num_scrambled_causal"":""4"",""num_scrambled_schematic"":""4"",""participantId"":""6462D588260B4356936047A04A336EBE"",""assignmentId"":""0198ed29-f289-7e25-a321-14c8d1b85292"",""projectId"":""0198ed26-a6a7-793d-982a-8940a71ab262""}","https://test12345.live/?num_scrambled_semantic=8&num_scrambled_causal=4&num_scrambled_schematic=4&participantId=6462D588260B4356936047A04A336EBE&assignmentId=0198ed29-f289-7e25-a321-14c8d1b85292&projectId=0198ed26-a6a7-793d-982a-8940a71ab262","6462D588260B4356936047A04A336EBE-2025-08-27-21-05-43","","null","","images/semantic_sequence/market_semantic/market_semantic_0.png","null","",""
"","","","","","image-button-response","89","632984","0.0-14.0-1.0-0.0","6462D588260B4356936047A04A336EBE","6462D588260B4356936047A04A336EBE","0198ed29-f289-7e25-a321-14c8d1b85292","0198ed26-a6a7-793d-982a-8940a71ab262","{""num_scrambled_semantic"":""8"",""num_scrambled_causal"":""4"",""num_scrambled_schematic"":""4"",""participantId"":""6462D588260B4356936047A04A336EBE"",""assignmentId"":""0198ed29-f289-7e25-a321-14c8d1b85292"",""projectId"":""0198ed26-a6a7-793d-982a-8940a71ab262""}","https://test12345.live/?num_scrambled_semantic=8&num_scrambled_causal=4&num_scrambled_schematic=4&participantId=6462D588260B4356936047A04A336EBE&assignmentId=0198ed29-f289-7e25-a321-14c8d1b85292&projectId=0198ed26-a6a7-793d-982a-8940a71ab262","6462D588260B4356936047A04A336EBE-2025-08-27-21-05-43","","null","","images/semantic_sequence/market_semantic/market_semantic_4.png","null","",""
"","","","","","image-button-response","90","636988","0.0-14.0-1.0-1.0","6462D588260B4356936047A04A336EBE","6462D588260B4356936047A04A336EBE","0198ed29-f289-7e25-a321-14c8d1b85292","0198ed26-a6a7-793d-982a-8940a71ab262","{""num_scrambled_semantic"":""8"",""num_scrambled_causal"":""4"",""num_scrambled_schematic"":""4"",""participantId"":""6462D588260B4356936047A04A336EBE"",""assignmentId"":""0198ed29-f289-7e25-a321-14c8d1b85292"",""projectId"":""0198ed26-a6a7-793d-982a-8940a71ab262""}","https://test12345.live/?num_scrambled_semantic=8&num_scrambled_causal=4&num_scrambled_schematic=4&participantId=6462D588260B4356936047A04A336EBE&assignmentId=0198ed29-f289-7e25-a321-14c8d1b85292&projectId=0198ed26-a6a7-793d-982a-8940a71ab262","6462D588260B4356936047A04A336EBE-2025-08-27-21-05-43","","4001","","images/semantic_sequence/market_semantic/market_semantic_4.png","0","",""
"","","","","","image-button-response","91","638805","0.0-14.0-1.0-2.0","6462D588260B4356936047A04A336EBE","6462D588260B4356936047A04A336EBE","0198ed29-f289-7e25-a321-14c8d1b85292","0198ed26-a6a7-793d-982a-8940a71ab262","{""num_scrambled_semantic"":""8"",""num_scrambled_causal"":""4"",""num_scrambled_schematic"":""4"",""participantId"":""6462D588260B4356936047A04A336EBE"",""assignmentId"":""0198ed29-f289-7e25-a321-14c8d1b85292"",""projectId"":""0198ed26-a6a7-793d-982a-8940a71ab262""}","https://test12345.live/?num_scrambled_semantic=8&num_scrambled_causal=4&num_scrambled_schematic=4&participantId=6462D588260B4356936047A04A336EBE&assignmentId=0198ed29-f289-7e25-a321-14c8d1b85292&projectId=0198ed26-a6a7-793d-982a-8940a71ab262","6462D588260B4356936047A04A336EBE-2025-08-27-21-05-43","","null","","[]","null","",""
"","","","","","image-button-response","92","643318","0.0-14.0-1.0-0.1","6462D588260B4356936047A04A336EBE","6462D588260B4356936047A04A336EBE","0198ed29-f289-7e25-a321-14c8d1b85292","0198ed26-a6a7-793d-982a-8940a71ab262","{""num_scrambled_semantic"":""8"",""num_scrambled_causal"":""4"",""num_scrambled_schematic"":""4"",""participantId"":""6462D588260B4356936047A04A336EBE"",""assignmentId"":""0198ed29-f289-7e25-a321-14c8d1b85292"",""projectId"":""0198ed26-a6a7-793d-982a-8940a71ab262""}","https://test12345.live/?num_scrambled_semantic=8&num_scrambled_causal=4&num_scrambled_schematic=4&participantId=6462D588260B4356936047A04A336EBE&assignmentId=0198ed29-f289-7e25-a321-14c8d1b85292&projectId=0198ed26-a6a7-793d-982a-8940a71ab262","6462D588260B4356936047A04A336EBE-2025-08-27-21-05-43","","null","","images/semantic_sequence/market_semantic/market_semantic_1.png","null","",""
"","","","","","image-button-response","93","644972","0.0-14.0-1.0-1.1","6462D588260B4356936047A04A336EBE","6462D588260B4356936047A04A336EBE","0198ed29-f289-7e25-a321-14c8d1b85292","0198ed26-a6a7-793d-982a-8940a71ab262","{""num_scrambled_semantic"":""8"",""num_scrambled_causal"":""4"",""num_scrambled_schematic"":""4"",""participantId"":""6462D588260B4356936047A04A336EBE"",""assignmentId"":""0198ed29-f289-7e25-a321-14c8d1b85292"",""projectId"":""0198ed26-a6a7-793d-982a-8940a71ab262""}","https://test12345.live/?num_scrambled_semantic=8&num_scrambled_causal=4&num_scrambled_schematic=4&participantId=6462D588260B4356936047A04A336EBE&assignmentId=0198ed29-f289-7e25-a321-14c8d1b85292&projectId=0198ed26-a6a7-793d-982a-8940a71ab262","6462D588260B4356936047A04A336EBE-2025-08-27-21-05-43","","1652","","images/semantic_sequence/market_semantic/market_semantic_1.png","1","",""
"","","","","","image-button-response","94","646782","0.0-14.0-1.0-2.1","6462D588260B4356936047A04A336EBE","6462D588260B4356936047A04A336EBE","0198ed29-f289-7e25-a321-14c8d1b85292","0198ed26-a6a7-793d-982a-8940a71ab262","{""num_scrambled_semantic"":""8"",""num_scrambled_causal"":""4"",""num_scrambled_schematic"":""4"",""participantId"":""6462D588260B4356936047A04A336EBE"",""assignmentId"":""0198ed29-f289-7e25-a321-14c8d1b85292"",""projectId"":""0198ed26-a6a7-793d-982a-8940a71ab262""}","https://test12345.live/?num_scrambled_semantic=8&num_scrambled_causal=4&num_scrambled_schematic=4&participantId=6462D588260B4356936047A04A336EBE&assignmentId=0198ed29-f289-7e25-a321-14c8d1b85292&projectId=0198ed26-a6a7-793d-982a-8940a71ab262","6462D588260B4356936047A04A336EBE-2025-08-27-21-05-43","","null","","[]","null","",""
"","","","","","image-button-response","95","651291","0.0-14.0-1.0-0.2","6462D588260B4356936047A04A336EBE","6462D588260B4356936047A04A336EBE","0198ed29-f289-7e25-a321-14c8d1b85292","0198ed26-a6a7-793d-982a-8940a71ab262","{""num_scrambled_semantic"":""8"",""num_scrambled_causal"":""4"",""num_scrambled_schematic"":""4"",""participantId"":""6462D588260B4356936047A04A336EBE"",""assignmentId"":""0198ed29-f289-7e25-a321-14c8d1b85292"",""projectId"":""0198ed26-a6a7-793d-982a-8940a71ab262""}","https://test12345.live/?num_scrambled_semantic=8&num_scrambled_causal=4&num_scrambled_schematic=4&participantId=6462D588260B4356936047A04A336EBE&assignmentId=0198ed29-f289-7e25-a321-14c8d1b85292&projectId=0198ed26-a6a7-793d-982a-8940a71ab262","6462D588260B4356936047A04A336EBE-2025-08-27-21-05-43","","null","","images/semantic_sequence/market_semantic/market_semantic_3.png","null","",""
"","","","","","image-button-response","96","652476","0.0-14.0-1.0-1.2","6462D588260B4356936047A04A336EBE","6462D588260B4356936047A04A336EBE","0198ed29-f289-7e25-a321-14c8d1b85292","0198ed26-a6a7-793d-982a-8940a71ab262","{""num_scrambled_semantic"":""8"",""num_scrambled_causal"":""4"",""num_scrambled_schematic"":""4"",""participantId"":""6462D588260B4356936047A04A336EBE"",""assignmentId"":""0198ed29-f289-7e25-a321-14c8d1b85292"",""projectId"":""0198ed26-a6a7-793d-982a-8940a71ab262""}","https://test12345.live/?num_scrambled_semantic=8&num_scrambled_causal=4&num_scrambled_schematic=4&participantId=6462D588260B4356936047A04A336EBE&assignmentId=0198ed29-f289-7e25-a321-14c8d1b85292&projectId=0198ed26-a6a7-793d-982a-8940a71ab262","6462D588260B4356936047A04A336EBE-2025-08-27-21-05-43","","1183","","images/semantic_sequence/market_semantic/market_semantic_3.png","1","",""
"","","","","","image-button-response","97","654293","0.0-14.0-1.0-2.2","6462D588260B4356936047A04A336EBE","6462D588260B4356936047A04A336EBE","0198ed29-f289-7e25-a321-14c8d1b85292","0198ed26-a6a7-793d-982a-8940a71ab262","{""num_scrambled_semantic"":""8"",""num_scrambled_causal"":""4"",""num_scrambled_schematic"":""4"",""participantId"":""6462D588260B4356936047A04A336EBE"",""assignmentId"":""0198ed29-f289-7e25-a321-14c8d1b85292"",""projectId"":""0198ed26-a6a7-793d-982a-8940a71ab262""}","https://test12345.live/?num_scrambled_semantic=8&num_scrambled_causal=4&num_scrambled_schematic=4&participantId=6462D588260B4356936047A04A336EBE&assignmentId=0198ed29-f289-7e25-a321-14c8d1b85292&projectId=0198ed26-a6a7-793d-982a-8940a71ab262","6462D588260B4356936047A04A336EBE-2025-08-27-21-05-43","","null","","[]","null","",""
"","","","","","image-button-response","98","658803","0.0-14.0-1.0-0.3","6462D588260B4356936047A04A336EBE","6462D588260B4356936047A04A336EBE","0198ed29-f289-7e25-a321-14c8d1b85292","0198ed26-a6a7-793d-982a-8940a71ab262","{""num_scrambled_semantic"":""8"",""num_scrambled_causal"":""4"",""num_scrambled_schematic"":""4"",""participantId"":""6462D588260B4356936047A04A336EBE"",""assignmentId"":""0198ed29-f289-7e25-a321-14c8d1b85292"",""projectId"":""0198ed26-a6a7-793d-982a-8940a71ab262""}","https://test12345.live/?num_scrambled_semantic=8&num_scrambled_causal=4&num_scrambled_schematic=4&participantId=6462D588260B4356936047A04A336EBE&assignmentId=0198ed29-f289-7e25-a321-14c8d1b85292&projectId=0198ed26-a6a7-793d-982a-8940a71ab262","6462D588260B4356936047A04A336EBE-2025-08-27-21-05-43","","null","","images/semantic_sequence/market_semantic/market_semantic_9.png","null","",""
"","","","","","image-button-response","99","660316","0.0-14.0-1.0-1.3","6462D588260B4356936047A04A336EBE","6462D588260B4356936047A04A336EBE","0198ed29-f289-7e25-a321-14c8d1b85292","0198ed26-a6a7-793d-982a-8940a71ab262","{""num_scrambled_semantic"":""8"",""num_scrambled_causal"":""4"",""num_scrambled_schematic"":""4"",""participantId"":""6462D588260B4356936047A04A336EBE"",""assignmentId"":""0198ed29-f289-7e25-a321-14c8d1b85292"",""projectId"":""0198ed26-a6a7-793d-982a-8940a71ab262""}","https://test12345.live/?num_scrambled_semantic=8&num_scrambled_causal=4&num_scrambled_schematic=4&participantId=6462D588260B4356936047A04A336EBE&assignmentId=0198ed29-f289-7e25-a321-14c8d1b85292&projectId=0198ed26-a6a7-793d-982a-8940a71ab262","6462D588260B4356936047A04A336EBE-2025-08-27-21-05-43","","1510","","images/semantic_sequence/market_semantic/market_semantic_9.png","0","",""
"","","","","","image-button-response","100","662118","0.0-14.0-1.0-2.3","6462D588260B4356936047A04A336EBE","6462D588260B4356936047A04A336EBE","0198ed29-f289-7e25-a321-14c8d1b85292","0198ed26-a6a7-793d-982a-8940a71ab262","{""num_scrambled_semantic"":""8"",""num_scrambled_causal"":""4"",""num_scrambled_schematic"":""4"",""participantId"":""6462D588260B4356936047A04A336EBE"",""assignmentId"":""0198ed29-f289-7e25-a321-14c8d1b85292"",""projectId"":""0198ed26-a6a7-793d-982a-8940a71ab262""}","https://test12345.live/?num_scrambled_semantic=8&num_scrambled_causal=4&num_scrambled_schematic=4&participantId=6462D588260B4356936047A04A336EBE&assignmentId=0198ed29-f289-7e25-a321-14c8d1b85292&projectId=0198ed26-a6a7-793d-982a-8940a71ab262","6462D588260B4356936047A04A336EBE-2025-08-27-21-05-43","","null","","[]","null","",""
"","","","","","image-button-response","101","666622","0.0-14.0-1.0-0.4","6462D588260B4356936047A04A336EBE","6462D588260B4356936047A04A336EBE","0198ed29-f289-7e25-a321-14c8d1b85292","0198ed26-a6a7-793d-982a-8940a71ab262","{""num_scrambled_semantic"":""8"",""num_scrambled_causal"":""4"",""num_scrambled_schematic"":""4"",""participantId"":""6462D588260B4356936047A04A336EBE"",""assignmentId"":""0198ed29-f289-7e25-a321-14c8d1b85292"",""projectId"":""0198ed26-a6a7-793d-982a-8940a71ab262""}","https://test12345.live/?num_scrambled_semantic=8&num_scrambled_causal=4&num_scrambled_schematic=4&participantId=6462D588260B4356936047A04A336EBE&assignmentId=0198ed29-f289-7e25-a321-14c8d1b85292&projectId=0198ed26-a6a7-793d-982a-8940a71ab262","6462D588260B4356936047A04A336EBE-2025-08-27-21-05-43","","null","","images/semantic_sequence/market_semantic/market_semantic_7.png","null","",""
"","","","","","image-button-response","102","667068","0.0-14.0-1.0-1.4","6462D588260B4356936047A04A336EBE","6462D588260B4356936047A04A336EBE","0198ed29-f289-7e25-a321-14c8d1b85292","0198ed26-a6a7-793d-982a-8940a71ab262","{""num_scrambled_semantic"":""8"",""num_scrambled_causal"":""4"",""num_scrambled_schematic"":""4"",""participantId"":""6462D588260B4356936047A04A336EBE"",""assignmentId"":""0198ed29-f289-7e25-a321-14c8d1b85292"",""projectId"":""0198ed26-a6a7-793d-982a-8940a71ab262""}","https://test12345.live/?num_scrambled_semantic=8&num_scrambled_causal=4&num_scrambled_schematic=4&participantId=6462D588260B4356936047A04A336EBE&assignmentId=0198ed29-f289-7e25-a321-14c8d1b85292&projectId=0198ed26-a6a7-793d-982a-8940a71ab262","6462D588260B4356936047A04A336EBE-2025-08-27-21-05-43","","444","","images/semantic_sequence/market_semantic/market_semantic_7.png","0","",""
"","","","","","image-button-response","103","668873","0.0-14.0-1.0-2.4","6462D588260B4356936047A04A336EBE","6462D588260B4356936047A04A336EBE","0198ed29-f289-7e25-a321-14c8d1b85292","0198ed26-a6a7-793d-982a-8940a71ab262","{""num_scrambled_semantic"":""8"",""num_scrambled_causal"":""4"",""num_scrambled_schematic"":""4"",""participantId"":""6462D588260B4356936047A04A336EBE"",""assignmentId"":""0198ed29-f289-7e25-a321-14c8d1b85292"",""projectId"":""0198ed26-a6a7-793d-982a-8940a71ab262""}","https://test12345.live/?num_scrambled_semantic=8&num_scrambled_causal=4&num_scrambled_schematic=4&participantId=6462D588260B4356936047A04A336EBE&assignmentId=0198ed29-f289-7e25-a321-14c8d1b85292&projectId=0198ed26-a6a7-793d-982a-8940a71ab262","6462D588260B4356936047A04A336EBE-2025-08-27-21-05-43","","null","","[]","null","",""
"","","","","","image-button-response","104","673379","0.0-14.0-1.0-0.5","6462D588260B4356936047A04A336EBE","6462D588260B4356936047A04A336EBE","0198ed29-f289-7e25-a321-14c8d1b85292","0198ed26-a6a7-793d-982a-8940a71ab262","{""num_scrambled_semantic"":""8"",""num_scrambled_causal"":""4"",""num_scrambled_schematic"":""4"",""participantId"":""6462D588260B4356936047A04A336EBE"",""assignmentId"":""0198ed29-f289-7e25-a321-14c8d1b85292"",""projectId"":""0198ed26-a6a7-793d-982a-8940a71ab262""}","https://test12345.live/?num_scrambled_semantic=8&num_scrambled_causal=4&num_scrambled_schematic=4&participantId=6462D588260B4356936047A04A336EBE&assignmentId=0198ed29-f289-7e25-a321-14c8d1b85292&projectId=0198ed26-a6a7-793d-982a-8940a71ab262","6462D588260B4356936047A04A336EBE-2025-08-27-21-05-43","","null","","images/semantic_sequence/market_semantic/market_semantic_5.png","null","",""
"","","","","","image-button-response","105","674884","0.0-14.0-1.0-1.5","6462D588260B4356936047A04A336EBE","6462D588260B4356936047A04A336EBE","0198ed29-f289-7e25-a321-14c8d1b85292","0198ed26-a6a7-793d-982a-8940a71ab262","{""num_scrambled_semantic"":""8"",""num_scrambled_causal"":""4"",""num_scrambled_schematic"":""4"",""participantId"":""6462D588260B4356936047A04A336EBE"",""assignmentId"":""0198ed29-f289-7e25-a321-14c8d1b85292"",""projectId"":""0198ed26-a6a7-793d-982a-8940a71ab262""}","https://test12345.live/?num_scrambled_semantic=8&num_scrambled_causal=4&num_scrambled_schematic=4&participantId=6462D588260B4356936047A04A336EBE&assignmentId=0198ed29-f289-7e25-a321-14c8d1b85292&projectId=0198ed26-a6a7-793d-982a-8940a71ab262","6462D588260B4356936047A04A336EBE-2025-08-27-21-05-43","","1503","","images/semantic_sequence/market_semantic/market_semantic_5.png","1","",""
"","","","","","image-button-response","106","676689","0.0-14.0-1.0-2.5","6462D588260B4356936047A04A336EBE","6462D588260B4356936047A04A336EBE","0198ed29-f289-7e25-a321-14c8d1b85292","0198ed26-a6a7-793d-982a-8940a71ab262","{""num_scrambled_semantic"":""8"",""num_scrambled_causal"":""4"",""num_scrambled_schematic"":""4"",""participantId"":""6462D588260B4356936047A04A336EBE"",""assignmentId"":""0198ed29-f289-7e25-a321-14c8d1b85292"",""projectId"":""0198ed26-a6a7-793d-982a-8940a71ab262""}","https://test12345.live/?num_scrambled_semantic=8&num_scrambled_causal=4&num_scrambled_schematic=4&participantId=6462D588260B4356936047A04A336EBE&assignmentId=0198ed29-f289-7e25-a321-14c8d1b85292&projectId=0198ed26-a6a7-793d-982a-8940a71ab262","6462D588260B4356936047A04A336EBE-2025-08-27-21-05-43","","null","","[]","null","",""
"","","","","","image-button-response","107","681198","0.0-14.0-1.0-0.6","6462D588260B4356936047A04A336EBE","6462D588260B4356936047A04A336EBE","0198ed29-f289-7e25-a321-14c8d1b85292","0198ed26-a6a7-793d-982a-8940a71ab262","{""num_scrambled_semantic"":""8"",""num_scrambled_causal"":""4"",""num_scrambled_schematic"":""4"",""participantId"":""6462D588260B4356936047A04A336EBE"",""assignmentId"":""0198ed29-f289-7e25-a321-14c8d1b85292"",""projectId"":""0198ed26-a6a7-793d-982a-8940a71ab262""}","https://test12345.live/?num_scrambled_semantic=8&num_scrambled_causal=4&num_scrambled_schematic=4&participantId=6462D588260B4356936047A04A336EBE&assignmentId=0198ed29-f289-7e25-a321-14c8d1b85292&projectId=0198ed26-a6a7-793d-982a-8940a71ab262","6462D588260B4356936047A04A336EBE-2025-08-27-21-05-43","","null","","images/semantic_sequence/market_semantic/market_semantic_2.png","null","",""
"","","","","","image-button-response","108","683436","0.0-14.0-1.0-1.6","6462D588260B4356936047A04A336EBE","6462D588260B4356936047A04A336EBE","0198ed29-f289-7e25-a321-14c8d1b85292","0198ed26-a6a7-793d-982a-8940a71ab262","{""num_scrambled_semantic"":""8"",""num_scrambled_causal"":""4"",""num_scrambled_schematic"":""4"",""participantId"":""6462D588260B4356936047A04A336EBE"",""assignmentId"":""0198ed29-f289-7e25-a321-14c8d1b85292"",""projectId"":""0198ed26-a6a7-793d-982a-8940a71ab262""}","https://test12345.live/?num_scrambled_semantic=8&num_scrambled_causal=4&num_scrambled_schematic=4&participantId=6462D588260B4356936047A04A336EBE&assignmentId=0198ed29-f289-7e25-a321-14c8d1b85292&projectId=0198ed26-a6a7-793d-982a-8940a71ab262","6462D588260B4356936047A04A336EBE-2025-08-27-21-05-43","","2236","","images/semantic_sequence/market_semantic/market_semantic_2.png","1","",""
"","","","","","image-button-response","109","685247","0.0-14.0-1.0-2.6","6462D588260B4356936047A04A336EBE","6462D588260B4356936047A04A336EBE","0198ed29-f289-7e25-a321-14c8d1b85292","0198ed26-a6a7-793d-982a-8940a71ab262","{""num_scrambled_semantic"":""8"",""num_scrambled_causal"":""4"",""num_scrambled_schematic"":""4"",""participantId"":""6462D588260B4356936047A04A336EBE"",""assignmentId"":""0198ed29-f289-7e25-a321-14c8d1b85292"",""projectId"":""0198ed26-a6a7-793d-982a-8940a71ab262""}","https://test12345.live/?num_scrambled_semantic=8&num_scrambled_causal=4&num_scrambled_schematic=4&participantId=6462D588260B4356936047A04A336EBE&assignmentId=0198ed29-f289-7e25-a321-14c8d1b85292&projectId=0198ed26-a6a7-793d-982a-8940a71ab262","6462D588260B4356936047A04A336EBE-2025-08-27-21-05-43","","null","","[]","null","",""
"","","","","","image-button-response","110","689819","0.0-14.0-1.0-0.7","6462D588260B4356936047A04A336EBE","6462D588260B4356936047A04A336EBE","0198ed29-f289-7e25-a321-14c8d1b85292","0198ed26-a6a7-793d-982a-8940a71ab262","{""num_scrambled_semantic"":""8"",""num_scrambled_causal"":""4"",""num_scrambled_schematic"":""4"",""participantId"":""6462D588260B4356936047A04A336EBE"",""assignmentId"":""0198ed29-f289-7e25-a321-14c8d1b85292"",""projectId"":""0198ed26-a6a7-793d-982a-8940a71ab262""}","https://test12345.live/?num_scrambled_semantic=8&num_scrambled_causal=4&num_scrambled_schematic=4&participantId=6462D588260B4356936047A04A336EBE&assignmentId=0198ed29-f289-7e25-a321-14c8d1b85292&projectId=0198ed26-a6a7-793d-982a-8940a71ab262","6462D588260B4356936047A04A336EBE-2025-08-27-21-05-43","","null","","images/semantic_sequence/market_semantic/market_semantic_8.png","null","",""
"","","","","","image-button-response","111","692062","0.0-14.0-1.0-1.7","6462D588260B4356936047A04A336EBE","6462D588260B4356936047A04A336EBE","0198ed29-f289-7e25-a321-14c8d1b85292","0198ed26-a6a7-793d-982a-8940a71ab262","{""num_scrambled_semantic"":""8"",""num_scrambled_causal"":""4"",""num_scrambled_schematic"":""4"",""participantId"":""6462D588260B4356936047A04A336EBE"",""assignmentId"":""0198ed29-f289-7e25-a321-14c8d1b85292"",""projectId"":""0198ed26-a6a7-793d-982a-8940a71ab262""}","https://test12345.live/?num_scrambled_semantic=8&num_scrambled_causal=4&num_scrambled_schematic=4&participantId=6462D588260B4356936047A04A336EBE&assignmentId=0198ed29-f289-7e25-a321-14c8d1b85292&projectId=0198ed26-a6a7-793d-982a-8940a71ab262","6462D588260B4356936047A04A336EBE-2025-08-27-21-05-43","","2241","","images/semantic_sequence/market_semantic/market_semantic_8.png","1","",""
"","","","","","image-button-response","112","693866","0.0-14.0-1.0-2.7","6462D588260B4356936047A04A336EBE","6462D588260B4356936047A04A336EBE","0198ed29-f289-7e25-a321-14c8d1b85292","0198ed26-a6a7-793d-982a-8940a71ab262","{""num_scrambled_semantic"":""8"",""num_scrambled_causal"":""4"",""num_scrambled_schematic"":""4"",""participantId"":""6462D588260B4356936047A04A336EBE"",""assignmentId"":""0198ed29-f289-7e25-a321-14c8d1b85292"",""projectId"":""0198ed26-a6a7-793d-982a-8940a71ab262""}","https://test12345.live/?num_scrambled_semantic=8&num_scrambled_causal=4&num_scrambled_schematic=4&participantId=6462D588260B4356936047A04A336EBE&assignmentId=0198ed29-f289-7e25-a321-14c8d1b85292&projectId=0198ed26-a6a7-793d-982a-8940a71ab262","6462D588260B4356936047A04A336EBE-2025-08-27-21-05-43","","null","","[]","null","",""
"","","","","","image-button-response","113","698372","0.0-14.0-1.0-0.8","6462D588260B4356936047A04A336EBE","6462D588260B4356936047A04A336EBE","0198ed29-f289-7e25-a321-14c8d1b85292","0198ed26-a6a7-793d-982a-8940a71ab262","{""num_scrambled_semantic"":""8"",""num_scrambled_causal"":""4"",""num_scrambled_schematic"":""4"",""participantId"":""6462D588260B4356936047A04A336EBE"",""assignmentId"":""0198ed29-f289-7e25-a321-14c8d1b85292"",""projectId"":""0198ed26-a6a7-793d-982a-8940a71ab262""}","https://test12345.live/?num_scrambled_semantic=8&num_scrambled_causal=4&num_scrambled_schematic=4&participantId=6462D588260B4356936047A04A336EBE&assignmentId=0198ed29-f289-7e25-a321-14c8d1b85292&projectId=0198ed26-a6a7-793d-982a-8940a71ab262","6462D588260B4356936047A04A336EBE-2025-08-27-21-05-43","","null","","images/semantic_sequence/market_semantic/market_semantic_ten.png","null","",""
