"success","timeout","failed_images","failed_audio","failed_video","trial_type","trial_index","time_elapsed","internal_node_id","subject","subject_id","study_id","session_id","urlvar","current_url","audio_id","view_history","rt","device_id","stimulus","response","estimated_stimulus_onset","seq_name"
"true","false","[]","[]","[]","preload","0","16479","0.0-0.0","654F5B6BC61541C582B2E957CEC59248","654F5B6BC61541C582B2E957CEC59248","0198ee4c-b36e-7752-bd2e-b107944a07a6","0198ee3c-27ac-7803-a9ea-f3b4ad4ad678","{""num_scrambled_semantic"":""8"",""num_scrambled_causal"":""4"",""num_scrambled_schematic"":""4"",""participantId"":""654F5B6BC61541C582B2E957CEC59248"",""assignmentId"":""0198ee4c-b36e-7752-bd2e-b107944a07a6"",""projectId"":""0198ee3c-27ac-7803-a9ea-f3b4ad4ad678""}","https://test12345.live/?num_scrambled_semantic=8&num_scrambled_causal=4&num_scrambled_schematic=4&participantId=654F5B6BC61541C582B2E957CEC59248&assignmentId=0198ee4c-b36e-7752-bd2e-b107944a07a6&projectId=0198ee3c-27ac-7803-a9ea-f3b4ad4ad678","654F5B6BC61541C582B2E957CEC59248-2025-08-28-02-39-32","","","","","","",""
"","","","","","instructions","1","22857","0.0-1.0","654F5B6BC61541C582B2E957CEC59248","654F5B6BC61541C582B2E957CEC59248","0198ee4c-b36e-7752-bd2e-b107944a07a6","0198ee3c-27ac-7803-a9ea-f3b4ad4ad678","{""num_scrambled_semantic"":""8"",""num_scrambled_causal"":""4"",""num_scrambled_schematic"":""4"",""participantId"":""654F5B6BC61541C582B2E957CEC59248"",""assignmentId"":""0198ee4c-b36e-7752-bd2e-b107944a07a6"",""projectId"":""0198ee3c-27ac-7803-a9ea-f3b4ad4ad678""}","https://test12345.live/?num_scrambled_semantic=8&num_scrambled_causal=4&num_scrambled_schematic=4&participantId=654F5B6BC61541C582B2E957CEC59248&assignmentId=0198ee4c-b36e-7752-bd2e-b107944a07a6&projectId=0198ee3c-27ac-7803-a9ea-f3b4ad4ad678","654F5B6BC61541C582B2E957CEC59248-2025-08-28-02-39-32","[{""page_index"":0,""viewing_time"":6377}]","6378","","","","",""
"","","","","","instructions","2","25998","0.0-2.0","654F5B6BC61541C582B2E957CEC59248","654F5B6BC61541C582B2E957CEC59248","0198ee4c-b36e-7752-bd2e-b107944a07a6","0198ee3c-27ac-7803-a9ea-f3b4ad4ad678","{""num_scrambled_semantic"":""8"",""num_scrambled_causal"":""4"",""num_scrambled_schematic"":""4"",""participantId"":""654F5B6BC61541C582B2E957CEC59248"",""assignmentId"":""0198ee4c-b36e-7752-bd2e-b107944a07a6"",""projectId"":""0198ee3c-27ac-7803-a9ea-f3b4ad4ad678""}","https://test12345.live/?num_scrambled_semantic=8&num_scrambled_causal=4&num_scrambled_schematic=4&participantId=654F5B6BC61541C582B2E957CEC59248&assignmentId=0198ee4c-b36e-7752-bd2e-b107944a07a6&projectId=0198ee3c-27ac-7803-a9ea-f3b4ad4ad678","654F5B6BC61541C582B2E957CEC59248-2025-08-28-02-39-32","[{""page_index"":0,""viewing_time"":3141}]","3141","","","","",""
"true","","","","","fullscreen","3","28003","0.0-3.0","654F5B6BC61541C582B2E957CEC59248","654F5B6BC61541C582B2E957CEC59248","0198ee4c-b36e-7752-bd2e-b107944a07a6","0198ee3c-27ac-7803-a9ea-f3b4ad4ad678","{""num_scrambled_semantic"":""8"",""num_scrambled_causal"":""4"",""num_scrambled_schematic"":""4"",""participantId"":""654F5B6BC61541C582B2E957CEC59248"",""assignmentId"":""0198ee4c-b36e-7752-bd2e-b107944a07a6"",""projectId"":""0198ee3c-27ac-7803-a9ea-f3b4ad4ad678""}","https://test12345.live/?num_scrambled_semantic=8&num_scrambled_causal=4&num_scrambled_schematic=4&participantId=654F5B6BC61541C582B2E957CEC59248&assignmentId=0198ee4c-b36e-7752-bd2e-b107944a07a6&projectId=0198ee3c-27ac-7803-a9ea-f3b4ad4ad678","654F5B6BC61541C582B2E957CEC59248-2025-08-28-02-39-32","","1003","","","","",""
"","","","","","initialize-microphone","4","30046","0.0-4.0-0.0","654F5B6BC61541C582B2E957CEC59248","654F5B6BC61541C582B2E957CEC59248","0198ee4c-b36e-7752-bd2e-b107944a07a6","0198ee3c-27ac-7803-a9ea-f3b4ad4ad678","{""num_scrambled_semantic"":""8"",""num_scrambled_causal"":""4"",""num_scrambled_schematic"":""4"",""participantId"":""654F5B6BC61541C582B2E957CEC59248"",""assignmentId"":""0198ee4c-b36e-7752-bd2e-b107944a07a6"",""projectId"":""0198ee3c-27ac-7803-a9ea-f3b4ad4ad678""}","https://test12345.live/?num_scrambled_semantic=8&num_scrambled_causal=4&num_scrambled_schematic=4&participantId=654F5B6BC61541C582B2E957CEC59248&assignmentId=0198ee4c-b36e-7752-bd2e-b107944a07a6&projectId=0198ee3c-27ac-7803-a9ea-f3b4ad4ad678","654F5B6BC61541C582B2E957CEC59248-2025-08-28-02-39-32","","","044194624a7a2eaf065fb23405c501d61d7adb10dc25f25554f8554eed79956c","","","",""
"","","","","","html-audio-response","5","44932","0.0-4.0-1.0","654F5B6BC61541C582B2E957CEC59248","654F5B6BC61541C582B2E957CEC59248","0198ee4c-b36e-7752-bd2e-b107944a07a6","0198ee3c-27ac-7803-a9ea-f3b4ad4ad678","{""num_scrambled_semantic"":""8"",""num_scrambled_causal"":""4"",""num_scrambled_schematic"":""4"",""participantId"":""654F5B6BC61541C582B2E957CEC59248"",""assignmentId"":""0198ee4c-b36e-7752-bd2e-b107944a07a6"",""projectId"":""0198ee3c-27ac-7803-a9ea-f3b4ad4ad678""}","https://test12345.live/?num_scrambled_semantic=8&num_scrambled_causal=4&num_scrambled_schematic=4&participantId=654F5B6BC61541C582B2E957CEC59248&assignmentId=0198ee4c-b36e-7752-bd2e-b107944a07a6&projectId=0198ee3c-27ac-7803-a9ea-f3b4ad4ad678","654F5B6BC61541C582B2E957CEC59248-2025-08-28-02-39-32","","1523","","<span style=""color: red; font-size: 24px""> NOW RECORDING</span>
        <p>Please test Microphone</p>","","13",""
"","","","","","html-button-response","6","46661","0.0-4.0-2.0","654F5B6BC61541C582B2E957CEC59248","654F5B6BC61541C582B2E957CEC59248","0198ee4c-b36e-7752-bd2e-b107944a07a6","0198ee3c-27ac-7803-a9ea-f3b4ad4ad678","{""num_scrambled_semantic"":""8"",""num_scrambled_causal"":""4"",""num_scrambled_schematic"":""4"",""participantId"":""654F5B6BC61541C582B2E957CEC59248"",""assignmentId"":""0198ee4c-b36e-7752-bd2e-b107944a07a6"",""projectId"":""0198ee3c-27ac-7803-a9ea-f3b4ad4ad678""}","https://test12345.live/?num_scrambled_semantic=8&num_scrambled_causal=4&num_scrambled_schematic=4&participantId=654F5B6BC61541C582B2E957CEC59248&assignmentId=0198ee4c-b36e-7752-bd2e-b107944a07a6&projectId=0198ee3c-27ac-7803-a9ea-f3b4ad4ad678","654F5B6BC61541C582B2E957CEC59248-2025-08-28-02-39-32","","1728","","<p style=""font-size:48px; color:red;"">Is Microphone OK?</p>","1","",""
"","","","","","instructions","7","58146","0.0-5.0","654F5B6BC61541C582B2E957CEC59248","654F5B6BC61541C582B2E957CEC59248","0198ee4c-b36e-7752-bd2e-b107944a07a6","0198ee3c-27ac-7803-a9ea-f3b4ad4ad678","{""num_scrambled_semantic"":""8"",""num_scrambled_causal"":""4"",""num_scrambled_schematic"":""4"",""participantId"":""654F5B6BC61541C582B2E957CEC59248"",""assignmentId"":""0198ee4c-b36e-7752-bd2e-b107944a07a6"",""projectId"":""0198ee3c-27ac-7803-a9ea-f3b4ad4ad678""}","https://test12345.live/?num_scrambled_semantic=8&num_scrambled_causal=4&num_scrambled_schematic=4&participantId=654F5B6BC61541C582B2E957CEC59248&assignmentId=0198ee4c-b36e-7752-bd2e-b107944a07a6&projectId=0198ee3c-27ac-7803-a9ea-f3b4ad4ad678","654F5B6BC61541C582B2E957CEC59248-2025-08-28-02-39-32","[{""page_index"":0,""viewing_time"":4562},{""page_index"":1,""viewing_time"":6923}]","11484","","","","",""
"","","","","","image-button-response","8","64160","0.0-6.0-0.0","654F5B6BC61541C582B2E957CEC59248","654F5B6BC61541C582B2E957CEC59248","0198ee4c-b36e-7752-bd2e-b107944a07a6","0198ee3c-27ac-7803-a9ea-f3b4ad4ad678","{""num_scrambled_semantic"":""8"",""num_scrambled_causal"":""4"",""num_scrambled_schematic"":""4"",""participantId"":""654F5B6BC61541C582B2E957CEC59248"",""assignmentId"":""0198ee4c-b36e-7752-bd2e-b107944a07a6"",""projectId"":""0198ee3c-27ac-7803-a9ea-f3b4ad4ad678""}","https://test12345.live/?num_scrambled_semantic=8&num_scrambled_causal=4&num_scrambled_schematic=4&participantId=654F5B6BC61541C582B2E957CEC59248&assignmentId=0198ee4c-b36e-7752-bd2e-b107944a07a6&projectId=0198ee3c-27ac-7803-a9ea-f3b4ad4ad678","654F5B6BC61541C582B2E957CEC59248-2025-08-28-02-39-32","","null","","images/instructions/movie_0.png","null","",""
"","","","","","image-button-response","9","68669","0.0-6.0-1.0-0.0","654F5B6BC61541C582B2E957CEC59248","654F5B6BC61541C582B2E957CEC59248","0198ee4c-b36e-7752-bd2e-b107944a07a6","0198ee3c-27ac-7803-a9ea-f3b4ad4ad678","{""num_scrambled_semantic"":""8"",""num_scrambled_causal"":""4"",""num_scrambled_schematic"":""4"",""participantId"":""654F5B6BC61541C582B2E957CEC59248"",""assignmentId"":""0198ee4c-b36e-7752-bd2e-b107944a07a6"",""projectId"":""0198ee3c-27ac-7803-a9ea-f3b4ad4ad678""}","https://test12345.live/?num_scrambled_semantic=8&num_scrambled_causal=4&num_scrambled_schematic=4&participantId=654F5B6BC61541C582B2E957CEC59248&assignmentId=0198ee4c-b36e-7752-bd2e-b107944a07a6&projectId=0198ee3c-27ac-7803-a9ea-f3b4ad4ad678","654F5B6BC61541C582B2E957CEC59248-2025-08-28-02-39-32","","null","","images/instructions/movie_1.png","null","",""
"","","","","","image-button-response","10","72675","0.0-6.0-1.0-1.0","654F5B6BC61541C582B2E957CEC59248","654F5B6BC61541C582B2E957CEC59248","0198ee4c-b36e-7752-bd2e-b107944a07a6","0198ee3c-27ac-7803-a9ea-f3b4ad4ad678","{""num_scrambled_semantic"":""8"",""num_scrambled_causal"":""4"",""num_scrambled_schematic"":""4"",""participantId"":""654F5B6BC61541C582B2E957CEC59248"",""assignmentId"":""0198ee4c-b36e-7752-bd2e-b107944a07a6"",""projectId"":""0198ee3c-27ac-7803-a9ea-f3b4ad4ad678""}","https://test12345.live/?num_scrambled_semantic=8&num_scrambled_causal=4&num_scrambled_schematic=4&participantId=654F5B6BC61541C582B2E957CEC59248&assignmentId=0198ee4c-b36e-7752-bd2e-b107944a07a6&projectId=0198ee3c-27ac-7803-a9ea-f3b4ad4ad678","654F5B6BC61541C582B2E957CEC59248-2025-08-28-02-39-32","","null","","images/instructions/movie_1.png","null","",""
"","","","","","image-button-response","11","74477","0.0-6.0-1.0-2.0","654F5B6BC61541C582B2E957CEC59248","654F5B6BC61541C582B2E957CEC59248","0198ee4c-b36e-7752-bd2e-b107944a07a6","0198ee3c-27ac-7803-a9ea-f3b4ad4ad678","{""num_scrambled_semantic"":""8"",""num_scrambled_causal"":""4"",""num_scrambled_schematic"":""4"",""participantId"":""654F5B6BC61541C582B2E957CEC59248"",""assignmentId"":""0198ee4c-b36e-7752-bd2e-b107944a07a6"",""projectId"":""0198ee3c-27ac-7803-a9ea-f3b4ad4ad678""}","https://test12345.live/?num_scrambled_semantic=8&num_scrambled_causal=4&num_scrambled_schematic=4&participantId=654F5B6BC61541C582B2E957CEC59248&assignmentId=0198ee4c-b36e-7752-bd2e-b107944a07a6&projectId=0198ee3c-27ac-7803-a9ea-f3b4ad4ad678","654F5B6BC61541C582B2E957CEC59248-2025-08-28-02-39-32","","null","","[]","null","",""
"","","","","","image-button-response","12","78980","0.0-6.0-1.0-0.1","654F5B6BC61541C582B2E957CEC59248","654F5B6BC61541C582B2E957CEC59248","0198ee4c-b36e-7752-bd2e-b107944a07a6","0198ee3c-27ac-7803-a9ea-f3b4ad4ad678","{""num_scrambled_semantic"":""8"",""num_scrambled_causal"":""4"",""num_scrambled_schematic"":""4"",""participantId"":""654F5B6BC61541C582B2E957CEC59248"",""assignmentId"":""0198ee4c-b36e-7752-bd2e-b107944a07a6"",""projectId"":""0198ee3c-27ac-7803-a9ea-f3b4ad4ad678""}","https://test12345.live/?num_scrambled_semantic=8&num_scrambled_causal=4&num_scrambled_schematic=4&participantId=654F5B6BC61541C582B2E957CEC59248&assignmentId=0198ee4c-b36e-7752-bd2e-b107944a07a6&projectId=0198ee3c-27ac-7803-a9ea-f3b4ad4ad678","654F5B6BC61541C582B2E957CEC59248-2025-08-28-02-39-32","","null","","images/instructions/movie_2.png","null","",""
"","","","","","image-button-response","13","82518","0.0-6.0-1.0-1.1","654F5B6BC61541C582B2E957CEC59248","654F5B6BC61541C582B2E957CEC59248","0198ee4c-b36e-7752-bd2e-b107944a07a6","0198ee3c-27ac-7803-a9ea-f3b4ad4ad678","{""num_scrambled_semantic"":""8"",""num_scrambled_causal"":""4"",""num_scrambled_schematic"":""4"",""participantId"":""654F5B6BC61541C582B2E957CEC59248"",""assignmentId"":""0198ee4c-b36e-7752-bd2e-b107944a07a6"",""projectId"":""0198ee3c-27ac-7803-a9ea-f3b4ad4ad678""}","https://test12345.live/?num_scrambled_semantic=8&num_scrambled_causal=4&num_scrambled_schematic=4&participantId=654F5B6BC61541C582B2E957CEC59248&assignmentId=0198ee4c-b36e-7752-bd2e-b107944a07a6&projectId=0198ee3c-27ac-7803-a9ea-f3b4ad4ad678","654F5B6BC61541C582B2E957CEC59248-2025-08-28-02-39-32","","3537","","images/instructions/movie_2.png","0","",""
"","","","","","image-button-response","14","84327","0.0-6.0-1.0-2.1","654F5B6BC61541C582B2E957CEC59248","654F5B6BC61541C582B2E957CEC59248","0198ee4c-b36e-7752-bd2e-b107944a07a6","0198ee3c-27ac-7803-a9ea-f3b4ad4ad678","{""num_scrambled_semantic"":""8"",""num_scrambled_causal"":""4"",""num_scrambled_schematic"":""4"",""participantId"":""654F5B6BC61541C582B2E957CEC59248"",""assignmentId"":""0198ee4c-b36e-7752-bd2e-b107944a07a6"",""projectId"":""0198ee3c-27ac-7803-a9ea-f3b4ad4ad678""}","https://test12345.live/?num_scrambled_semantic=8&num_scrambled_causal=4&num_scrambled_schematic=4&participantId=654F5B6BC61541C582B2E957CEC59248&assignmentId=0198ee4c-b36e-7752-bd2e-b107944a07a6&projectId=0198ee3c-27ac-7803-a9ea-f3b4ad4ad678","654F5B6BC61541C582B2E957CEC59248-2025-08-28-02-39-32","","null","","[]","null","",""
"","","","","","image-button-response","15","88835","0.0-6.0-1.0-0.2","654F5B6BC61541C582B2E957CEC59248","654F5B6BC61541C582B2E957CEC59248","0198ee4c-b36e-7752-bd2e-b107944a07a6","0198ee3c-27ac-7803-a9ea-f3b4ad4ad678","{""num_scrambled_semantic"":""8"",""num_scrambled_causal"":""4"",""num_scrambled_schematic"":""4"",""participantId"":""654F5B6BC61541C582B2E957CEC59248"",""assignmentId"":""0198ee4c-b36e-7752-bd2e-b107944a07a6"",""projectId"":""0198ee3c-27ac-7803-a9ea-f3b4ad4ad678""}","https://test12345.live/?num_scrambled_semantic=8&num_scrambled_causal=4&num_scrambled_schematic=4&participantId=654F5B6BC61541C582B2E957CEC59248&assignmentId=0198ee4c-b36e-7752-bd2e-b107944a07a6&projectId=0198ee3c-27ac-7803-a9ea-f3b4ad4ad678","654F5B6BC61541C582B2E957CEC59248-2025-08-28-02-39-32","","null","","images/instructions/movie_3.png","null","",""
"","","","","","image-button-response","16","90657","0.0-6.0-1.0-1.2","654F5B6BC61541C582B2E957CEC59248","654F5B6BC61541C582B2E957CEC59248","0198ee4c-b36e-7752-bd2e-b107944a07a6","0198ee3c-27ac-7803-a9ea-f3b4ad4ad678","{""num_scrambled_semantic"":""8"",""num_scrambled_causal"":""4"",""num_scrambled_schematic"":""4"",""participantId"":""654F5B6BC61541C582B2E957CEC59248"",""assignmentId"":""0198ee4c-b36e-7752-bd2e-b107944a07a6"",""projectId"":""0198ee3c-27ac-7803-a9ea-f3b4ad4ad678""}","https://test12345.live/?num_scrambled_semantic=8&num_scrambled_causal=4&num_scrambled_schematic=4&participantId=654F5B6BC61541C582B2E957CEC59248&assignmentId=0198ee4c-b36e-7752-bd2e-b107944a07a6&projectId=0198ee3c-27ac-7803-a9ea-f3b4ad4ad678","654F5B6BC61541C582B2E957CEC59248-2025-08-28-02-39-32","","1821","","images/instructions/movie_3.png","0","",""
"","","","","","image-button-response","17","92459","0.0-6.0-1.0-2.2","654F5B6BC61541C582B2E957CEC59248","654F5B6BC61541C582B2E957CEC59248","0198ee4c-b36e-7752-bd2e-b107944a07a6","0198ee3c-27ac-7803-a9ea-f3b4ad4ad678","{""num_scrambled_semantic"":""8"",""num_scrambled_causal"":""4"",""num_scrambled_schematic"":""4"",""participantId"":""654F5B6BC61541C582B2E957CEC59248"",""assignmentId"":""0198ee4c-b36e-7752-bd2e-b107944a07a6"",""projectId"":""0198ee3c-27ac-7803-a9ea-f3b4ad4ad678""}","https://test12345.live/?num_scrambled_semantic=8&num_scrambled_causal=4&num_scrambled_schematic=4&participantId=654F5B6BC61541C582B2E957CEC59248&assignmentId=0198ee4c-b36e-7752-bd2e-b107944a07a6&projectId=0198ee3c-27ac-7803-a9ea-f3b4ad4ad678","654F5B6BC61541C582B2E957CEC59248-2025-08-28-02-39-32","","null","","[]","null","",""
"","","","","","image-button-response","18","96975","0.0-6.0-1.0-0.3","654F5B6BC61541C582B2E957CEC59248","654F5B6BC61541C582B2E957CEC59248","0198ee4c-b36e-7752-bd2e-b107944a07a6","0198ee3c-27ac-7803-a9ea-f3b4ad4ad678","{""num_scrambled_semantic"":""8"",""num_scrambled_causal"":""4"",""num_scrambled_schematic"":""4"",""participantId"":""654F5B6BC61541C582B2E957CEC59248"",""assignmentId"":""0198ee4c-b36e-7752-bd2e-b107944a07a6"",""projectId"":""0198ee3c-27ac-7803-a9ea-f3b4ad4ad678""}","https://test12345.live/?num_scrambled_semantic=8&num_scrambled_causal=4&num_scrambled_schematic=4&participantId=654F5B6BC61541C582B2E957CEC59248&assignmentId=0198ee4c-b36e-7752-bd2e-b107944a07a6&projectId=0198ee3c-27ac-7803-a9ea-f3b4ad4ad678","654F5B6BC61541C582B2E957CEC59248-2025-08-28-02-39-32","","null","","images/instructions/movie_4.png","null","",""
"","","","","","image-button-response","19","98108","0.0-6.0-1.0-1.3","654F5B6BC61541C582B2E957CEC59248","654F5B6BC61541C582B2E957CEC59248","0198ee4c-b36e-7752-bd2e-b107944a07a6","0198ee3c-27ac-7803-a9ea-f3b4ad4ad678","{""num_scrambled_semantic"":""8"",""num_scrambled_causal"":""4"",""num_scrambled_schematic"":""4"",""participantId"":""654F5B6BC61541C582B2E957CEC59248"",""assignmentId"":""0198ee4c-b36e-7752-bd2e-b107944a07a6"",""projectId"":""0198ee3c-27ac-7803-a9ea-f3b4ad4ad678""}","https://test12345.live/?num_scrambled_semantic=8&num_scrambled_causal=4&num_scrambled_schematic=4&participantId=654F5B6BC61541C582B2E957CEC59248&assignmentId=0198ee4c-b36e-7752-bd2e-b107944a07a6&projectId=0198ee3c-27ac-7803-a9ea-f3b4ad4ad678","654F5B6BC61541C582B2E957CEC59248-2025-08-28-02-39-32","","1132","","images/instructions/movie_4.png","0","",""
"","","","","","image-button-response","20","99921","0.0-6.0-1.0-2.3","654F5B6BC61541C582B2E957CEC59248","654F5B6BC61541C582B2E957CEC59248","0198ee4c-b36e-7752-bd2e-b107944a07a6","0198ee3c-27ac-7803-a9ea-f3b4ad4ad678","{""num_scrambled_semantic"":""8"",""num_scrambled_causal"":""4"",""num_scrambled_schematic"":""4"",""participantId"":""654F5B6BC61541C582B2E957CEC59248"",""assignmentId"":""0198ee4c-b36e-7752-bd2e-b107944a07a6"",""projectId"":""0198ee3c-27ac-7803-a9ea-f3b4ad4ad678""}","https://test12345.live/?num_scrambled_semantic=8&num_scrambled_causal=4&num_scrambled_schematic=4&participantId=654F5B6BC61541C582B2E957CEC59248&assignmentId=0198ee4c-b36e-7752-bd2e-b107944a07a6&projectId=0198ee3c-27ac-7803-a9ea-f3b4ad4ad678","654F5B6BC61541C582B2E957CEC59248-2025-08-28-02-39-32","","null","","[]","null","",""
"","","","","","instructions","21","120299","0.0-7.0","654F5B6BC61541C582B2E957CEC59248","654F5B6BC61541C582B2E957CEC59248","0198ee4c-b36e-7752-bd2e-b107944a07a6","0198ee3c-27ac-7803-a9ea-f3b4ad4ad678","{""num_scrambled_semantic"":""8"",""num_scrambled_causal"":""4"",""num_scrambled_schematic"":""4"",""participantId"":""654F5B6BC61541C582B2E957CEC59248"",""assignmentId"":""0198ee4c-b36e-7752-bd2e-b107944a07a6"",""projectId"":""0198ee3c-27ac-7803-a9ea-f3b4ad4ad678""}","https://test12345.live/?num_scrambled_semantic=8&num_scrambled_causal=4&num_scrambled_schematic=4&participantId=654F5B6BC61541C582B2E957CEC59248&assignmentId=0198ee4c-b36e-7752-bd2e-b107944a07a6&projectId=0198ee3c-27ac-7803-a9ea-f3b4ad4ad678","654F5B6BC61541C582B2E957CEC59248-2025-08-28-02-39-32","[{""page_index"":0,""viewing_time"":20378}]","20378","","","","",""
"","","","","","html-audio-response","22","184324","0.0-8.0","654F5B6BC61541C582B2E957CEC59248","654F5B6BC61541C582B2E957CEC59248","0198ee4c-b36e-7752-bd2e-b107944a07a6","0198ee3c-27ac-7803-a9ea-f3b4ad4ad678","{""num_scrambled_semantic"":""8"",""num_scrambled_causal"":""4"",""num_scrambled_schematic"":""4"",""participantId"":""654F5B6BC61541C582B2E957CEC59248"",""assignmentId"":""0198ee4c-b36e-7752-bd2e-b107944a07a6"",""projectId"":""0198ee3c-27ac-7803-a9ea-f3b4ad4ad678""}","https://test12345.live/?num_scrambled_semantic=8&num_scrambled_causal=4&num_scrambled_schematic=4&participantId=654F5B6BC61541C582B2E957CEC59248&assignmentId=0198ee4c-b36e-7752-bd2e-b107944a07a6&projectId=0198ee3c-27ac-7803-a9ea-f3b4ad4ad678","654F5B6BC61541C582B2E957CEC59248-2025-08-28-02-39-32","","30036","","[""<span style=\""color: red; font-size: 24px\""> NOW RECORDING</span><p>Please say out loud all the images you saw, in the order of the story they create. Try to recall the sequence of events as they appeared in the story, not necessarily the order they were presented on the screen.</p>""]","","7",""
"","","","","","instructions","23","189548","0.0-9.0","654F5B6BC61541C582B2E957CEC59248","654F5B6BC61541C582B2E957CEC59248","0198ee4c-b36e-7752-bd2e-b107944a07a6","0198ee3c-27ac-7803-a9ea-f3b4ad4ad678","{""num_scrambled_semantic"":""8"",""num_scrambled_causal"":""4"",""num_scrambled_schematic"":""4"",""participantId"":""654F5B6BC61541C582B2E957CEC59248"",""assignmentId"":""0198ee4c-b36e-7752-bd2e-b107944a07a6"",""projectId"":""0198ee3c-27ac-7803-a9ea-f3b4ad4ad678""}","https://test12345.live/?num_scrambled_semantic=8&num_scrambled_causal=4&num_scrambled_schematic=4&participantId=654F5B6BC61541C582B2E957CEC59248&assignmentId=0198ee4c-b36e-7752-bd2e-b107944a07a6&projectId=0198ee3c-27ac-7803-a9ea-f3b4ad4ad678","654F5B6BC61541C582B2E957CEC59248-2025-08-28-02-39-32","[{""page_index"":0,""viewing_time"":5220}]","5220","","","","",""
"","","","","","image-button-response","24","195561","0.0-10.0-0.0","654F5B6BC61541C582B2E957CEC59248","654F5B6BC61541C582B2E957CEC59248","0198ee4c-b36e-7752-bd2e-b107944a07a6","0198ee3c-27ac-7803-a9ea-f3b4ad4ad678","{""num_scrambled_semantic"":""8"",""num_scrambled_causal"":""4"",""num_scrambled_schematic"":""4"",""participantId"":""654F5B6BC61541C582B2E957CEC59248"",""assignmentId"":""0198ee4c-b36e-7752-bd2e-b107944a07a6"",""projectId"":""0198ee3c-27ac-7803-a9ea-f3b4ad4ad678""}","https://test12345.live/?num_scrambled_semantic=8&num_scrambled_causal=4&num_scrambled_schematic=4&participantId=654F5B6BC61541C582B2E957CEC59248&assignmentId=0198ee4c-b36e-7752-bd2e-b107944a07a6&projectId=0198ee3c-27ac-7803-a9ea-f3b4ad4ad678","654F5B6BC61541C582B2E957CEC59248-2025-08-28-02-39-32","","null","","images/causal_sequence/dog_causal/dog_causal_0.png","null","",""
"","","","","","image-button-response","25","200074","0.0-10.0-1.0-0.0","654F5B6BC61541C582B2E957CEC59248","654F5B6BC61541C582B2E957CEC59248","0198ee4c-b36e-7752-bd2e-b107944a07a6","0198ee3c-27ac-7803-a9ea-f3b4ad4ad678","{""num_scrambled_semantic"":""8"",""num_scrambled_causal"":""4"",""num_scrambled_schematic"":""4"",""participantId"":""654F5B6BC61541C582B2E957CEC59248"",""assignmentId"":""0198ee4c-b36e-7752-bd2e-b107944a07a6"",""projectId"":""0198ee3c-27ac-7803-a9ea-f3b4ad4ad678""}","https://test12345.live/?num_scrambled_semantic=8&num_scrambled_causal=4&num_scrambled_schematic=4&participantId=654F5B6BC61541C582B2E957CEC59248&assignmentId=0198ee4c-b36e-7752-bd2e-b107944a07a6&projectId=0198ee3c-27ac-7803-a9ea-f3b4ad4ad678","654F5B6BC61541C582B2E957CEC59248-2025-08-28-02-39-32","","null","","images/causal_sequence/dog_causal/dog_causal_8.png","null","",""
"","","","","","image-button-response","26","202203","0.0-10.0-1.0-1.0","654F5B6BC61541C582B2E957CEC59248","654F5B6BC61541C582B2E957CEC59248","0198ee4c-b36e-7752-bd2e-b107944a07a6","0198ee3c-27ac-7803-a9ea-f3b4ad4ad678","{""num_scrambled_semantic"":""8"",""num_scrambled_causal"":""4"",""num_scrambled_schematic"":""4"",""participantId"":""654F5B6BC61541C582B2E957CEC59248"",""assignmentId"":""0198ee4c-b36e-7752-bd2e-b107944a07a6"",""projectId"":""0198ee3c-27ac-7803-a9ea-f3b4ad4ad678""}","https://test12345.live/?num_scrambled_semantic=8&num_scrambled_causal=4&num_scrambled_schematic=4&participantId=654F5B6BC61541C582B2E957CEC59248&assignmentId=0198ee4c-b36e-7752-bd2e-b107944a07a6&projectId=0198ee3c-27ac-7803-a9ea-f3b4ad4ad678","654F5B6BC61541C582B2E957CEC59248-2025-08-28-02-39-32","","2129","","images/causal_sequence/dog_causal/dog_causal_8.png","0","",""
"","","","","","image-button-response","27","204004","0.0-10.0-1.0-2.0","654F5B6BC61541C582B2E957CEC59248","654F5B6BC61541C582B2E957CEC59248","0198ee4c-b36e-7752-bd2e-b107944a07a6","0198ee3c-27ac-7803-a9ea-f3b4ad4ad678","{""num_scrambled_semantic"":""8"",""num_scrambled_causal"":""4"",""num_scrambled_schematic"":""4"",""participantId"":""654F5B6BC61541C582B2E957CEC59248"",""assignmentId"":""0198ee4c-b36e-7752-bd2e-b107944a07a6"",""projectId"":""0198ee3c-27ac-7803-a9ea-f3b4ad4ad678""}","https://test12345.live/?num_scrambled_semantic=8&num_scrambled_causal=4&num_scrambled_schematic=4&participantId=654F5B6BC61541C582B2E957CEC59248&assignmentId=0198ee4c-b36e-7752-bd2e-b107944a07a6&projectId=0198ee3c-27ac-7803-a9ea-f3b4ad4ad678","654F5B6BC61541C582B2E957CEC59248-2025-08-28-02-39-32","","null","","[]","null","",""
"","","","","","image-button-response","28","208510","0.0-10.0-1.0-0.1","654F5B6BC61541C582B2E957CEC59248","654F5B6BC61541C582B2E957CEC59248","0198ee4c-b36e-7752-bd2e-b107944a07a6","0198ee3c-27ac-7803-a9ea-f3b4ad4ad678","{""num_scrambled_semantic"":""8"",""num_scrambled_causal"":""4"",""num_scrambled_schematic"":""4"",""participantId"":""654F5B6BC61541C582B2E957CEC59248"",""assignmentId"":""0198ee4c-b36e-7752-bd2e-b107944a07a6"",""projectId"":""0198ee3c-27ac-7803-a9ea-f3b4ad4ad678""}","https://test12345.live/?num_scrambled_semantic=8&num_scrambled_causal=4&num_scrambled_schematic=4&participantId=654F5B6BC61541C582B2E957CEC59248&assignmentId=0198ee4c-b36e-7752-bd2e-b107944a07a6&projectId=0198ee3c-27ac-7803-a9ea-f3b4ad4ad678","654F5B6BC61541C582B2E957CEC59248-2025-08-28-02-39-32","","null","","images/causal_sequence/dog_causal/dog_causal_ten.png","null","",""
"","","","","","image-button-response","29","209862","0.0-10.0-1.0-1.1","654F5B6BC61541C582B2E957CEC59248","654F5B6BC61541C582B2E957CEC59248","0198ee4c-b36e-7752-bd2e-b107944a07a6","0198ee3c-27ac-7803-a9ea-f3b4ad4ad678","{""num_scrambled_semantic"":""8"",""num_scrambled_causal"":""4"",""num_scrambled_schematic"":""4"",""participantId"":""654F5B6BC61541C582B2E957CEC59248"",""assignmentId"":""0198ee4c-b36e-7752-bd2e-b107944a07a6"",""projectId"":""0198ee3c-27ac-7803-a9ea-f3b4ad4ad678""}","https://test12345.live/?num_scrambled_semantic=8&num_scrambled_causal=4&num_scrambled_schematic=4&participantId=654F5B6BC61541C582B2E957CEC59248&assignmentId=0198ee4c-b36e-7752-bd2e-b107944a07a6&projectId=0198ee3c-27ac-7803-a9ea-f3b4ad4ad678","654F5B6BC61541C582B2E957CEC59248-2025-08-28-02-39-32","","1351","","images/causal_sequence/dog_causal/dog_causal_ten.png","0","",""
"","","","","","image-button-response","30","211663","0.0-10.0-1.0-2.1","654F5B6BC61541C582B2E957CEC59248","654F5B6BC61541C582B2E957CEC59248","0198ee4c-b36e-7752-bd2e-b107944a07a6","0198ee3c-27ac-7803-a9ea-f3b4ad4ad678","{""num_scrambled_semantic"":""8"",""num_scrambled_causal"":""4"",""num_scrambled_schematic"":""4"",""participantId"":""654F5B6BC61541C582B2E957CEC59248"",""assignmentId"":""0198ee4c-b36e-7752-bd2e-b107944a07a6"",""projectId"":""0198ee3c-27ac-7803-a9ea-f3b4ad4ad678""}","https://test12345.live/?num_scrambled_semantic=8&num_scrambled_causal=4&num_scrambled_schematic=4&participantId=654F5B6BC61541C582B2E957CEC59248&assignmentId=0198ee4c-b36e-7752-bd2e-b107944a07a6&projectId=0198ee3c-27ac-7803-a9ea-f3b4ad4ad678","654F5B6BC61541C582B2E957CEC59248-2025-08-28-02-39-32","","null","","[]","null","",""
"","","","","","image-button-response","31","216165","0.0-10.0-1.0-0.2","654F5B6BC61541C582B2E957CEC59248","654F5B6BC61541C582B2E957CEC59248","0198ee4c-b36e-7752-bd2e-b107944a07a6","0198ee3c-27ac-7803-a9ea-f3b4ad4ad678","{""num_scrambled_semantic"":""8"",""num_scrambled_causal"":""4"",""num_scrambled_schematic"":""4"",""participantId"":""654F5B6BC61541C582B2E957CEC59248"",""assignmentId"":""0198ee4c-b36e-7752-bd2e-b107944a07a6"",""projectId"":""0198ee3c-27ac-7803-a9ea-f3b4ad4ad678""}","https://test12345.live/?num_scrambled_semantic=8&num_scrambled_causal=4&num_scrambled_schematic=4&participantId=654F5B6BC61541C582B2E957CEC59248&assignmentId=0198ee4c-b36e-7752-bd2e-b107944a07a6&projectId=0198ee3c-27ac-7803-a9ea-f3b4ad4ad678","654F5B6BC61541C582B2E957CEC59248-2025-08-28-02-39-32","","null","","images/causal_sequence/dog_causal/dog_causal_3.png","null","",""
"","","","","","image-button-response","32","217004","0.0-10.0-1.0-1.2","654F5B6BC61541C582B2E957CEC59248","654F5B6BC61541C582B2E957CEC59248","0198ee4c-b36e-7752-bd2e-b107944a07a6","0198ee3c-27ac-7803-a9ea-f3b4ad4ad678","{""num_scrambled_semantic"":""8"",""num_scrambled_causal"":""4"",""num_scrambled_schematic"":""4"",""participantId"":""654F5B6BC61541C582B2E957CEC59248"",""assignmentId"":""0198ee4c-b36e-7752-bd2e-b107944a07a6"",""projectId"":""0198ee3c-27ac-7803-a9ea-f3b4ad4ad678""}","https://test12345.live/?num_scrambled_semantic=8&num_scrambled_causal=4&num_scrambled_schematic=4&participantId=654F5B6BC61541C582B2E957CEC59248&assignmentId=0198ee4c-b36e-7752-bd2e-b107944a07a6&projectId=0198ee3c-27ac-7803-a9ea-f3b4ad4ad678","654F5B6BC61541C582B2E957CEC59248-2025-08-28-02-39-32","","839","","images/causal_sequence/dog_causal/dog_causal_3.png","0","",""
"","","","","","image-button-response","33","218806","0.0-10.0-1.0-2.2","654F5B6BC61541C582B2E957CEC59248","654F5B6BC61541C582B2E957CEC59248","0198ee4c-b36e-7752-bd2e-b107944a07a6","0198ee3c-27ac-7803-a9ea-f3b4ad4ad678","{""num_scrambled_semantic"":""8"",""num_scrambled_causal"":""4"",""num_scrambled_schematic"":""4"",""participantId"":""654F5B6BC61541C582B2E957CEC59248"",""assignmentId"":""0198ee4c-b36e-7752-bd2e-b107944a07a6"",""projectId"":""0198ee3c-27ac-7803-a9ea-f3b4ad4ad678""}","https://test12345.live/?num_scrambled_semantic=8&num_scrambled_causal=4&num_scrambled_schematic=4&participantId=654F5B6BC61541C582B2E957CEC59248&assignmentId=0198ee4c-b36e-7752-bd2e-b107944a07a6&projectId=0198ee3c-27ac-7803-a9ea-f3b4ad4ad678","654F5B6BC61541C582B2E957CEC59248-2025-08-28-02-39-32","","null","","[]","null","",""
"","","","","","image-button-response","34","223318","0.0-10.0-1.0-0.3","654F5B6BC61541C582B2E957CEC59248","654F5B6BC61541C582B2E957CEC59248","0198ee4c-b36e-7752-bd2e-b107944a07a6","0198ee3c-27ac-7803-a9ea-f3b4ad4ad678","{""num_scrambled_semantic"":""8"",""num_scrambled_causal"":""4"",""num_scrambled_schematic"":""4"",""participantId"":""654F5B6BC61541C582B2E957CEC59248"",""assignmentId"":""0198ee4c-b36e-7752-bd2e-b107944a07a6"",""projectId"":""0198ee3c-27ac-7803-a9ea-f3b4ad4ad678""}","https://test12345.live/?num_scrambled_semantic=8&num_scrambled_causal=4&num_scrambled_schematic=4&participantId=654F5B6BC61541C582B2E957CEC59248&assignmentId=0198ee4c-b36e-7752-bd2e-b107944a07a6&projectId=0198ee3c-27ac-7803-a9ea-f3b4ad4ad678","654F5B6BC61541C582B2E957CEC59248-2025-08-28-02-39-32","","null","","images/causal_sequence/dog_causal/dog_causal_6.png","null","",""
"","","","","","image-button-response","35","224284","0.0-10.0-1.0-1.3","654F5B6BC61541C582B2E957CEC59248","654F5B6BC61541C582B2E957CEC59248","0198ee4c-b36e-7752-bd2e-b107944a07a6","0198ee3c-27ac-7803-a9ea-f3b4ad4ad678","{""num_scrambled_semantic"":""8"",""num_scrambled_causal"":""4"",""num_scrambled_schematic"":""4"",""participantId"":""654F5B6BC61541C582B2E957CEC59248"",""assignmentId"":""0198ee4c-b36e-7752-bd2e-b107944a07a6"",""projectId"":""0198ee3c-27ac-7803-a9ea-f3b4ad4ad678""}","https://test12345.live/?num_scrambled_semantic=8&num_scrambled_causal=4&num_scrambled_schematic=4&participantId=654F5B6BC61541C582B2E957CEC59248&assignmentId=0198ee4c-b36e-7752-bd2e-b107944a07a6&projectId=0198ee3c-27ac-7803-a9ea-f3b4ad4ad678","654F5B6BC61541C582B2E957CEC59248-2025-08-28-02-39-32","","965","","images/causal_sequence/dog_causal/dog_causal_6.png","0","",""
"","","","","","image-button-response","36","226095","0.0-10.0-1.0-2.3","654F5B6BC61541C582B2E957CEC59248","654F5B6BC61541C582B2E957CEC59248","0198ee4c-b36e-7752-bd2e-b107944a07a6","0198ee3c-27ac-7803-a9ea-f3b4ad4ad678","{""num_scrambled_semantic"":""8"",""num_scrambled_causal"":""4"",""num_scrambled_schematic"":""4"",""participantId"":""654F5B6BC61541C582B2E957CEC59248"",""assignmentId"":""0198ee4c-b36e-7752-bd2e-b107944a07a6"",""projectId"":""0198ee3c-27ac-7803-a9ea-f3b4ad4ad678""}","https://test12345.live/?num_scrambled_semantic=8&num_scrambled_causal=4&num_scrambled_schematic=4&participantId=654F5B6BC61541C582B2E957CEC59248&assignmentId=0198ee4c-b36e-7752-bd2e-b107944a07a6&projectId=0198ee3c-27ac-7803-a9ea-f3b4ad4ad678","654F5B6BC61541C582B2E957CEC59248-2025-08-28-02-39-32","","null","","[]","null","",""
"","","","","","image-button-response","37","230606","0.0-10.0-1.0-0.4","654F5B6BC61541C582B2E957CEC59248","654F5B6BC61541C582B2E957CEC59248","0198ee4c-b36e-7752-bd2e-b107944a07a6","0198ee3c-27ac-7803-a9ea-f3b4ad4ad678","{""num_scrambled_semantic"":""8"",""num_scrambled_causal"":""4"",""num_scrambled_schematic"":""4"",""participantId"":""654F5B6BC61541C582B2E957CEC59248"",""assignmentId"":""0198ee4c-b36e-7752-bd2e-b107944a07a6"",""projectId"":""0198ee3c-27ac-7803-a9ea-f3b4ad4ad678""}","https://test12345.live/?num_scrambled_semantic=8&num_scrambled_causal=4&num_scrambled_schematic=4&participantId=654F5B6BC61541C582B2E957CEC59248&assignmentId=0198ee4c-b36e-7752-bd2e-b107944a07a6&projectId=0198ee3c-27ac-7803-a9ea-f3b4ad4ad678","654F5B6BC61541C582B2E957CEC59248-2025-08-28-02-39-32","","null","","images/causal_sequence/dog_causal/dog_causal_1.png","null","",""
"","","","","","image-button-response","38","231802","0.0-10.0-1.0-1.4","654F5B6BC61541C582B2E957CEC59248","654F5B6BC61541C582B2E957CEC59248","0198ee4c-b36e-7752-bd2e-b107944a07a6","0198ee3c-27ac-7803-a9ea-f3b4ad4ad678","{""num_scrambled_semantic"":""8"",""num_scrambled_causal"":""4"",""num_scrambled_schematic"":""4"",""participantId"":""654F5B6BC61541C582B2E957CEC59248"",""assignmentId"":""0198ee4c-b36e-7752-bd2e-b107944a07a6"",""projectId"":""0198ee3c-27ac-7803-a9ea-f3b4ad4ad678""}","https://test12345.live/?num_scrambled_semantic=8&num_scrambled_causal=4&num_scrambled_schematic=4&participantId=654F5B6BC61541C582B2E957CEC59248&assignmentId=0198ee4c-b36e-7752-bd2e-b107944a07a6&projectId=0198ee3c-27ac-7803-a9ea-f3b4ad4ad678","654F5B6BC61541C582B2E957CEC59248-2025-08-28-02-39-32","","1196","","images/causal_sequence/dog_causal/dog_causal_1.png","0","",""
"","","","","","image-button-response","39","233605","0.0-10.0-1.0-2.4","654F5B6BC61541C582B2E957CEC59248","654F5B6BC61541C582B2E957CEC59248","0198ee4c-b36e-7752-bd2e-b107944a07a6","0198ee3c-27ac-7803-a9ea-f3b4ad4ad678","{""num_scrambled_semantic"":""8"",""num_scrambled_causal"":""4"",""num_scrambled_schematic"":""4"",""participantId"":""654F5B6BC61541C582B2E957CEC59248"",""assignmentId"":""0198ee4c-b36e-7752-bd2e-b107944a07a6"",""projectId"":""0198ee3c-27ac-7803-a9ea-f3b4ad4ad678""}","https://test12345.live/?num_scrambled_semantic=8&num_scrambled_causal=4&num_scrambled_schematic=4&participantId=654F5B6BC61541C582B2E957CEC59248&assignmentId=0198ee4c-b36e-7752-bd2e-b107944a07a6&projectId=0198ee3c-27ac-7803-a9ea-f3b4ad4ad678","654F5B6BC61541C582B2E957CEC59248-2025-08-28-02-39-32","","null","","[]","null","",""
"","","","","","image-button-response","40","238115","0.0-10.0-1.0-0.5","654F5B6BC61541C582B2E957CEC59248","654F5B6BC61541C582B2E957CEC59248","0198ee4c-b36e-7752-bd2e-b107944a07a6","0198ee3c-27ac-7803-a9ea-f3b4ad4ad678","{""num_scrambled_semantic"":""8"",""num_scrambled_causal"":""4"",""num_scrambled_schematic"":""4"",""participantId"":""654F5B6BC61541C582B2E957CEC59248"",""assignmentId"":""0198ee4c-b36e-7752-bd2e-b107944a07a6"",""projectId"":""0198ee3c-27ac-7803-a9ea-f3b4ad4ad678""}","https://test12345.live/?num_scrambled_semantic=8&num_scrambled_causal=4&num_scrambled_schematic=4&participantId=654F5B6BC61541C582B2E957CEC59248&assignmentId=0198ee4c-b36e-7752-bd2e-b107944a07a6&projectId=0198ee3c-27ac-7803-a9ea-f3b4ad4ad678","654F5B6BC61541C582B2E957CEC59248-2025-08-28-02-39-32","","null","","images/causal_sequence/dog_causal/dog_causal_4.png","null","",""
"","","","","","image-button-response","41","240063","0.0-10.0-1.0-1.5","654F5B6BC61541C582B2E957CEC59248","654F5B6BC61541C582B2E957CEC59248","0198ee4c-b36e-7752-bd2e-b107944a07a6","0198ee3c-27ac-7803-a9ea-f3b4ad4ad678","{""num_scrambled_semantic"":""8"",""num_scrambled_causal"":""4"",""num_scrambled_schematic"":""4"",""participantId"":""654F5B6BC61541C582B2E957CEC59248"",""assignmentId"":""0198ee4c-b36e-7752-bd2e-b107944a07a6"",""projectId"":""0198ee3c-27ac-7803-a9ea-f3b4ad4ad678""}","https://test12345.live/?num_scrambled_semantic=8&num_scrambled_causal=4&num_scrambled_schematic=4&participantId=654F5B6BC61541C582B2E957CEC59248&assignmentId=0198ee4c-b36e-7752-bd2e-b107944a07a6&projectId=0198ee3c-27ac-7803-a9ea-f3b4ad4ad678","654F5B6BC61541C582B2E957CEC59248-2025-08-28-02-39-32","","1947","","images/causal_sequence/dog_causal/dog_causal_4.png","0","",""
"","","","","","image-button-response","42","241874","0.0-10.0-1.0-2.5","654F5B6BC61541C582B2E957CEC59248","654F5B6BC61541C582B2E957CEC59248","0198ee4c-b36e-7752-bd2e-b107944a07a6","0198ee3c-27ac-7803-a9ea-f3b4ad4ad678","{""num_scrambled_semantic"":""8"",""num_scrambled_causal"":""4"",""num_scrambled_schematic"":""4"",""participantId"":""654F5B6BC61541C582B2E957CEC59248"",""assignmentId"":""0198ee4c-b36e-7752-bd2e-b107944a07a6"",""projectId"":""0198ee3c-27ac-7803-a9ea-f3b4ad4ad678""}","https://test12345.live/?num_scrambled_semantic=8&num_scrambled_causal=4&num_scrambled_schematic=4&participantId=654F5B6BC61541C582B2E957CEC59248&assignmentId=0198ee4c-b36e-7752-bd2e-b107944a07a6&projectId=0198ee3c-27ac-7803-a9ea-f3b4ad4ad678","654F5B6BC61541C582B2E957CEC59248-2025-08-28-02-39-32","","null","","[]","null","",""
"","","","","","image-button-response","43","246383","0.0-10.0-1.0-0.6","654F5B6BC61541C582B2E957CEC59248","654F5B6BC61541C582B2E957CEC59248","0198ee4c-b36e-7752-bd2e-b107944a07a6","0198ee3c-27ac-7803-a9ea-f3b4ad4ad678","{""num_scrambled_semantic"":""8"",""num_scrambled_causal"":""4"",""num_scrambled_schematic"":""4"",""participantId"":""654F5B6BC61541C582B2E957CEC59248"",""assignmentId"":""0198ee4c-b36e-7752-bd2e-b107944a07a6"",""projectId"":""0198ee3c-27ac-7803-a9ea-f3b4ad4ad678""}","https://test12345.live/?num_scrambled_semantic=8&num_scrambled_causal=4&num_scrambled_schematic=4&participantId=654F5B6BC61541C582B2E957CEC59248&assignmentId=0198ee4c-b36e-7752-bd2e-b107944a07a6&projectId=0198ee3c-27ac-7803-a9ea-f3b4ad4ad678","654F5B6BC61541C582B2E957CEC59248-2025-08-28-02-39-32","","null","","images/causal_sequence/dog_causal/dog_causal_2.png","null","",""
"","","","","","image-button-response","44","247704","0.0-10.0-1.0-1.6","654F5B6BC61541C582B2E957CEC59248","654F5B6BC61541C582B2E957CEC59248","0198ee4c-b36e-7752-bd2e-b107944a07a6","0198ee3c-27ac-7803-a9ea-f3b4ad4ad678","{""num_scrambled_semantic"":""8"",""num_scrambled_causal"":""4"",""num_scrambled_schematic"":""4"",""participantId"":""654F5B6BC61541C582B2E957CEC59248"",""assignmentId"":""0198ee4c-b36e-7752-bd2e-b107944a07a6"",""projectId"":""0198ee3c-27ac-7803-a9ea-f3b4ad4ad678""}","https://test12345.live/?num_scrambled_semantic=8&num_scrambled_causal=4&num_scrambled_schematic=4&participantId=654F5B6BC61541C582B2E957CEC59248&assignmentId=0198ee4c-b36e-7752-bd2e-b107944a07a6&projectId=0198ee3c-27ac-7803-a9ea-f3b4ad4ad678","654F5B6BC61541C582B2E957CEC59248-2025-08-28-02-39-32","","1320","","images/causal_sequence/dog_causal/dog_causal_2.png","0","",""
"","","","","","image-button-response","45","249515","0.0-10.0-1.0-2.6","654F5B6BC61541C582B2E957CEC59248","654F5B6BC61541C582B2E957CEC59248","0198ee4c-b36e-7752-bd2e-b107944a07a6","0198ee3c-27ac-7803-a9ea-f3b4ad4ad678","{""num_scrambled_semantic"":""8"",""num_scrambled_causal"":""4"",""num_scrambled_schematic"":""4"",""participantId"":""654F5B6BC61541C582B2E957CEC59248"",""assignmentId"":""0198ee4c-b36e-7752-bd2e-b107944a07a6"",""projectId"":""0198ee3c-27ac-7803-a9ea-f3b4ad4ad678""}","https://test12345.live/?num_scrambled_semantic=8&num_scrambled_causal=4&num_scrambled_schematic=4&participantId=654F5B6BC61541C582B2E957CEC59248&assignmentId=0198ee4c-b36e-7752-bd2e-b107944a07a6&projectId=0198ee3c-27ac-7803-a9ea-f3b4ad4ad678","654F5B6BC61541C582B2E957CEC59248-2025-08-28-02-39-32","","null","","[]","null","",""
"","","","","","image-button-response","46","254027","0.0-10.0-1.0-0.7","654F5B6BC61541C582B2E957CEC59248","654F5B6BC61541C582B2E957CEC59248","0198ee4c-b36e-7752-bd2e-b107944a07a6","0198ee3c-27ac-7803-a9ea-f3b4ad4ad678","{""num_scrambled_semantic"":""8"",""num_scrambled_causal"":""4"",""num_scrambled_schematic"":""4"",""participantId"":""654F5B6BC61541C582B2E957CEC59248"",""assignmentId"":""0198ee4c-b36e-7752-bd2e-b107944a07a6"",""projectId"":""0198ee3c-27ac-7803-a9ea-f3b4ad4ad678""}","https://test12345.live/?num_scrambled_semantic=8&num_scrambled_causal=4&num_scrambled_schematic=4&participantId=654F5B6BC61541C582B2E957CEC59248&assignmentId=0198ee4c-b36e-7752-bd2e-b107944a07a6&projectId=0198ee3c-27ac-7803-a9ea-f3b4ad4ad678","654F5B6BC61541C582B2E957CEC59248-2025-08-28-02-39-32","","null","","images/causal_sequence/dog_causal/dog_causal_7.png","null","",""
"","","","","","image-button-response","47","254948","0.0-10.0-1.0-1.7","654F5B6BC61541C582B2E957CEC59248","654F5B6BC61541C582B2E957CEC59248","0198ee4c-b36e-7752-bd2e-b107944a07a6","0198ee3c-27ac-7803-a9ea-f3b4ad4ad678","{""num_scrambled_semantic"":""8"",""num_scrambled_causal"":""4"",""num_scrambled_schematic"":""4"",""participantId"":""654F5B6BC61541C582B2E957CEC59248"",""assignmentId"":""0198ee4c-b36e-7752-bd2e-b107944a07a6"",""projectId"":""0198ee3c-27ac-7803-a9ea-f3b4ad4ad678""}","https://test12345.live/?num_scrambled_semantic=8&num_scrambled_causal=4&num_scrambled_schematic=4&participantId=654F5B6BC61541C582B2E957CEC59248&assignmentId=0198ee4c-b36e-7752-bd2e-b107944a07a6&projectId=0198ee3c-27ac-7803-a9ea-f3b4ad4ad678","654F5B6BC61541C582B2E957CEC59248-2025-08-28-02-39-32","","921","","images/causal_sequence/dog_causal/dog_causal_7.png","0","",""
"","","","","","image-button-response","48","256750","0.0-10.0-1.0-2.7","654F5B6BC61541C582B2E957CEC59248","654F5B6BC61541C582B2E957CEC59248","0198ee4c-b36e-7752-bd2e-b107944a07a6","0198ee3c-27ac-7803-a9ea-f3b4ad4ad678","{""num_scrambled_semantic"":""8"",""num_scrambled_causal"":""4"",""num_scrambled_schematic"":""4"",""participantId"":""654F5B6BC61541C582B2E957CEC59248"",""assignmentId"":""0198ee4c-b36e-7752-bd2e-b107944a07a6"",""projectId"":""0198ee3c-27ac-7803-a9ea-f3b4ad4ad678""}","https://test12345.live/?num_scrambled_semantic=8&num_scrambled_causal=4&num_scrambled_schematic=4&participantId=654F5B6BC61541C582B2E957CEC59248&assignmentId=0198ee4c-b36e-7752-bd2e-b107944a07a6&projectId=0198ee3c-27ac-7803-a9ea-f3b4ad4ad678","654F5B6BC61541C582B2E957CEC59248-2025-08-28-02-39-32","","null","","[]","null","",""
"","","","","","image-button-response","49","261252","0.0-10.0-1.0-0.8","654F5B6BC61541C582B2E957CEC59248","654F5B6BC61541C582B2E957CEC59248","0198ee4c-b36e-7752-bd2e-b107944a07a6","0198ee3c-27ac-7803-a9ea-f3b4ad4ad678","{""num_scrambled_semantic"":""8"",""num_scrambled_causal"":""4"",""num_scrambled_schematic"":""4"",""participantId"":""654F5B6BC61541C582B2E957CEC59248"",""assignmentId"":""0198ee4c-b36e-7752-bd2e-b107944a07a6"",""projectId"":""0198ee3c-27ac-7803-a9ea-f3b4ad4ad678""}","https://test12345.live/?num_scrambled_semantic=8&num_scrambled_causal=4&num_scrambled_schematic=4&participantId=654F5B6BC61541C582B2E957CEC59248&assignmentId=0198ee4c-b36e-7752-bd2e-b107944a07a6&projectId=0198ee3c-27ac-7803-a9ea-f3b4ad4ad678","654F5B6BC61541C582B2E957CEC59248-2025-08-28-02-39-32","","null","","images/causal_sequence/dog_causal/dog_causal_5.png","null","",""
"","","","","","image-button-response","50","262297","0.0-10.0-1.0-1.8","654F5B6BC61541C582B2E957CEC59248","654F5B6BC61541C582B2E957CEC59248","0198ee4c-b36e-7752-bd2e-b107944a07a6","0198ee3c-27ac-7803-a9ea-f3b4ad4ad678","{""num_scrambled_semantic"":""8"",""num_scrambled_causal"":""4"",""num_scrambled_schematic"":""4"",""participantId"":""654F5B6BC61541C582B2E957CEC59248"",""assignmentId"":""0198ee4c-b36e-7752-bd2e-b107944a07a6"",""projectId"":""0198ee3c-27ac-7803-a9ea-f3b4ad4ad678""}","https://test12345.live/?num_scrambled_semantic=8&num_scrambled_causal=4&num_scrambled_schematic=4&participantId=654F5B6BC61541C582B2E957CEC59248&assignmentId=0198ee4c-b36e-7752-bd2e-b107944a07a6&projectId=0198ee3c-27ac-7803-a9ea-f3b4ad4ad678","654F5B6BC61541C582B2E957CEC59248-2025-08-28-02-39-32","","1044","","images/causal_sequence/dog_causal/dog_causal_5.png","0","",""
"","","","","","image-button-response","51","264100","0.0-10.0-1.0-2.8","654F5B6BC61541C582B2E957CEC59248","654F5B6BC61541C582B2E957CEC59248","0198ee4c-b36e-7752-bd2e-b107944a07a6","0198ee3c-27ac-7803-a9ea-f3b4ad4ad678","{""num_scrambled_semantic"":""8"",""num_scrambled_causal"":""4"",""num_scrambled_schematic"":""4"",""participantId"":""654F5B6BC61541C582B2E957CEC59248"",""assignmentId"":""0198ee4c-b36e-7752-bd2e-b107944a07a6"",""projectId"":""0198ee3c-27ac-7803-a9ea-f3b4ad4ad678""}","https://test12345.live/?num_scrambled_semantic=8&num_scrambled_causal=4&num_scrambled_schematic=4&participantId=654F5B6BC61541C582B2E957CEC59248&assignmentId=0198ee4c-b36e-7752-bd2e-b107944a07a6&projectId=0198ee3c-27ac-7803-a9ea-f3b4ad4ad678","654F5B6BC61541C582B2E957CEC59248-2025-08-28-02-39-32","","null","","[]","null","",""
"","","","","","image-button-response","52","268604","0.0-10.0-1.0-0.9","654F5B6BC61541C582B2E957CEC59248","654F5B6BC61541C582B2E957CEC59248","0198ee4c-b36e-7752-bd2e-b107944a07a6","0198ee3c-27ac-7803-a9ea-f3b4ad4ad678","{""num_scrambled_semantic"":""8"",""num_scrambled_causal"":""4"",""num_scrambled_schematic"":""4"",""participantId"":""654F5B6BC61541C582B2E957CEC59248"",""assignmentId"":""0198ee4c-b36e-7752-bd2e-b107944a07a6"",""projectId"":""0198ee3c-27ac-7803-a9ea-f3b4ad4ad678""}","https://test12345.live/?num_scrambled_semantic=8&num_scrambled_causal=4&num_scrambled_schematic=4&participantId=654F5B6BC61541C582B2E957CEC59248&assignmentId=0198ee4c-b36e-7752-bd2e-b107944a07a6&projectId=0198ee3c-27ac-7803-a9ea-f3b4ad4ad678","654F5B6BC61541C582B2E957CEC59248-2025-08-28-02-39-32","","null","","images/causal_sequence/dog_causal/dog_causal_9.png","null","",""
"","","","","","image-button-response","53","271021","0.0-10.0-1.0-1.9","654F5B6BC61541C582B2E957CEC59248","654F5B6BC61541C582B2E957CEC59248","0198ee4c-b36e-7752-bd2e-b107944a07a6","0198ee3c-27ac-7803-a9ea-f3b4ad4ad678","{""num_scrambled_semantic"":""8"",""num_scrambled_causal"":""4"",""num_scrambled_schematic"":""4"",""participantId"":""654F5B6BC61541C582B2E957CEC59248"",""assignmentId"":""0198ee4c-b36e-7752-bd2e-b107944a07a6"",""projectId"":""0198ee3c-27ac-7803-a9ea-f3b4ad4ad678""}","https://test12345.live/?num_scrambled_semantic=8&num_scrambled_causal=4&num_scrambled_schematic=4&participantId=654F5B6BC61541C582B2E957CEC59248&assignmentId=0198ee4c-b36e-7752-bd2e-b107944a07a6&projectId=0198ee3c-27ac-7803-a9ea-f3b4ad4ad678","654F5B6BC61541C582B2E957CEC59248-2025-08-28-02-39-32","","2416","","images/causal_sequence/dog_causal/dog_causal_9.png","0","",""
"","","","","","image-button-response","54","272822","0.0-10.0-1.0-2.9","654F5B6BC61541C582B2E957CEC59248","654F5B6BC61541C582B2E957CEC59248","0198ee4c-b36e-7752-bd2e-b107944a07a6","0198ee3c-27ac-7803-a9ea-f3b4ad4ad678","{""num_scrambled_semantic"":""8"",""num_scrambled_causal"":""4"",""num_scrambled_schematic"":""4"",""participantId"":""654F5B6BC61541C582B2E957CEC59248"",""assignmentId"":""0198ee4c-b36e-7752-bd2e-b107944a07a6"",""projectId"":""0198ee3c-27ac-7803-a9ea-f3b4ad4ad678""}","https://test12345.live/?num_scrambled_semantic=8&num_scrambled_causal=4&num_scrambled_schematic=4&participantId=654F5B6BC61541C582B2E957CEC59248&assignmentId=0198ee4c-b36e-7752-bd2e-b107944a07a6&projectId=0198ee3c-27ac-7803-a9ea-f3b4ad4ad678","654F5B6BC61541C582B2E957CEC59248-2025-08-28-02-39-32","","null","","[]","null","",""
"","","","","","html-audio-response","55","382756","0.0-11.0","654F5B6BC61541C582B2E957CEC59248","654F5B6BC61541C582B2E957CEC59248","0198ee4c-b36e-7752-bd2e-b107944a07a6","0198ee3c-27ac-7803-a9ea-f3b4ad4ad678","{""num_scrambled_semantic"":""8"",""num_scrambled_causal"":""4"",""num_scrambled_schematic"":""4"",""participantId"":""654F5B6BC61541C582B2E957CEC59248"",""assignmentId"":""0198ee4c-b36e-7752-bd2e-b107944a07a6"",""projectId"":""0198ee3c-27ac-7803-a9ea-f3b4ad4ad678""}","https://test12345.live/?num_scrambled_semantic=8&num_scrambled_causal=4&num_scrambled_schematic=4&participantId=654F5B6BC61541C582B2E957CEC59248&assignmentId=0198ee4c-b36e-7752-bd2e-b107944a07a6&projectId=0198ee3c-27ac-7803-a9ea-f3b4ad4ad678","654F5B6BC61541C582B2E957CEC59248-2025-08-28-02-39-32","","38217","","[""<span style=\""color: red; font-size: 24px\""> NOW RECORDING</span><p>Please say out loud all the images you saw, in the order of the story they create. Try to recall the sequence of events as they appeared in the story, not necessarily the order they were presented on the screen.</p>""]","","4","dog_causal"
"","","","","","image-button-response","56","388764","0.0-12.0-0.0","654F5B6BC61541C582B2E957CEC59248","654F5B6BC61541C582B2E957CEC59248","0198ee4c-b36e-7752-bd2e-b107944a07a6","0198ee3c-27ac-7803-a9ea-f3b4ad4ad678","{""num_scrambled_semantic"":""8"",""num_scrambled_causal"":""4"",""num_scrambled_schematic"":""4"",""participantId"":""654F5B6BC61541C582B2E957CEC59248"",""assignmentId"":""0198ee4c-b36e-7752-bd2e-b107944a07a6"",""projectId"":""0198ee3c-27ac-7803-a9ea-f3b4ad4ad678""}","https://test12345.live/?num_scrambled_semantic=8&num_scrambled_causal=4&num_scrambled_schematic=4&participantId=654F5B6BC61541C582B2E957CEC59248&assignmentId=0198ee4c-b36e-7752-bd2e-b107944a07a6&projectId=0198ee3c-27ac-7803-a9ea-f3b4ad4ad678","654F5B6BC61541C582B2E957CEC59248-2025-08-28-02-39-32","","null","","images/semantic_sequence/redecorating_a_house_semantic/redecorating_a_house_semantic_0.png","null","",""
"","","","","","image-button-response","57","393266","0.0-12.0-1.0-0.0","654F5B6BC61541C582B2E957CEC59248","654F5B6BC61541C582B2E957CEC59248","0198ee4c-b36e-7752-bd2e-b107944a07a6","0198ee3c-27ac-7803-a9ea-f3b4ad4ad678","{""num_scrambled_semantic"":""8"",""num_scrambled_causal"":""4"",""num_scrambled_schematic"":""4"",""participantId"":""654F5B6BC61541C582B2E957CEC59248"",""assignmentId"":""0198ee4c-b36e-7752-bd2e-b107944a07a6"",""projectId"":""0198ee3c-27ac-7803-a9ea-f3b4ad4ad678""}","https://test12345.live/?num_scrambled_semantic=8&num_scrambled_causal=4&num_scrambled_schematic=4&participantId=654F5B6BC61541C582B2E957CEC59248&assignmentId=0198ee4c-b36e-7752-bd2e-b107944a07a6&projectId=0198ee3c-27ac-7803-a9ea-f3b4ad4ad678","654F5B6BC61541C582B2E957CEC59248-2025-08-28-02-39-32","","null","","images/semantic_sequence/redecorating_a_house_semantic/redecorating_a_house_semantic_1.png","null","",""
"","","","","","image-button-response","58","395055","0.0-12.0-1.0-1.0","654F5B6BC61541C582B2E957CEC59248","654F5B6BC61541C582B2E957CEC59248","0198ee4c-b36e-7752-bd2e-b107944a07a6","0198ee3c-27ac-7803-a9ea-f3b4ad4ad678","{""num_scrambled_semantic"":""8"",""num_scrambled_causal"":""4"",""num_scrambled_schematic"":""4"",""participantId"":""654F5B6BC61541C582B2E957CEC59248"",""assignmentId"":""0198ee4c-b36e-7752-bd2e-b107944a07a6"",""projectId"":""0198ee3c-27ac-7803-a9ea-f3b4ad4ad678""}","https://test12345.live/?num_scrambled_semantic=8&num_scrambled_causal=4&num_scrambled_schematic=4&participantId=654F5B6BC61541C582B2E957CEC59248&assignmentId=0198ee4c-b36e-7752-bd2e-b107944a07a6&projectId=0198ee3c-27ac-7803-a9ea-f3b4ad4ad678","654F5B6BC61541C582B2E957CEC59248-2025-08-28-02-39-32","","1789","","images/semantic_sequence/redecorating_a_house_semantic/redecorating_a_house_semantic_1.png","0","",""
"","","","","","image-button-response","59","396866","0.0-12.0-1.0-2.0","654F5B6BC61541C582B2E957CEC59248","654F5B6BC61541C582B2E957CEC59248","0198ee4c-b36e-7752-bd2e-b107944a07a6","0198ee3c-27ac-7803-a9ea-f3b4ad4ad678","{""num_scrambled_semantic"":""8"",""num_scrambled_causal"":""4"",""num_scrambled_schematic"":""4"",""participantId"":""654F5B6BC61541C582B2E957CEC59248"",""assignmentId"":""0198ee4c-b36e-7752-bd2e-b107944a07a6"",""projectId"":""0198ee3c-27ac-7803-a9ea-f3b4ad4ad678""}","https://test12345.live/?num_scrambled_semantic=8&num_scrambled_causal=4&num_scrambled_schematic=4&participantId=654F5B6BC61541C582B2E957CEC59248&assignmentId=0198ee4c-b36e-7752-bd2e-b107944a07a6&projectId=0198ee3c-27ac-7803-a9ea-f3b4ad4ad678","654F5B6BC61541C582B2E957CEC59248-2025-08-28-02-39-32","","null","","[]","null","",""
"","","","","","image-button-response","60","401378","0.0-12.0-1.0-0.1","654F5B6BC61541C582B2E957CEC59248","654F5B6BC61541C582B2E957CEC59248","0198ee4c-b36e-7752-bd2e-b107944a07a6","0198ee3c-27ac-7803-a9ea-f3b4ad4ad678","{""num_scrambled_semantic"":""8"",""num_scrambled_causal"":""4"",""num_scrambled_schematic"":""4"",""participantId"":""654F5B6BC61541C582B2E957CEC59248"",""assignmentId"":""0198ee4c-b36e-7752-bd2e-b107944a07a6"",""projectId"":""0198ee3c-27ac-7803-a9ea-f3b4ad4ad678""}","https://test12345.live/?num_scrambled_semantic=8&num_scrambled_causal=4&num_scrambled_schematic=4&participantId=654F5B6BC61541C582B2E957CEC59248&assignmentId=0198ee4c-b36e-7752-bd2e-b107944a07a6&projectId=0198ee3c-27ac-7803-a9ea-f3b4ad4ad678","654F5B6BC61541C582B2E957CEC59248-2025-08-28-02-39-32","","null","","images/semantic_sequence/redecorating_a_house_semantic/redecorating_a_house_semantic_2.png","null","",""
"","","","","","image-button-response","61","403655","0.0-12.0-1.0-1.1","654F5B6BC61541C582B2E957CEC59248","654F5B6BC61541C582B2E957CEC59248","0198ee4c-b36e-7752-bd2e-b107944a07a6","0198ee3c-27ac-7803-a9ea-f3b4ad4ad678","{""num_scrambled_semantic"":""8"",""num_scrambled_causal"":""4"",""num_scrambled_schematic"":""4"",""participantId"":""654F5B6BC61541C582B2E957CEC59248"",""assignmentId"":""0198ee4c-b36e-7752-bd2e-b107944a07a6"",""projectId"":""0198ee3c-27ac-7803-a9ea-f3b4ad4ad678""}","https://test12345.live/?num_scrambled_semantic=8&num_scrambled_causal=4&num_scrambled_schematic=4&participantId=654F5B6BC61541C582B2E957CEC59248&assignmentId=0198ee4c-b36e-7752-bd2e-b107944a07a6&projectId=0198ee3c-27ac-7803-a9ea-f3b4ad4ad678","654F5B6BC61541C582B2E957CEC59248-2025-08-28-02-39-32","","2276","","images/semantic_sequence/redecorating_a_house_semantic/redecorating_a_house_semantic_2.png","0","",""
"","","","","","image-button-response","62","405467","0.0-12.0-1.0-2.1","654F5B6BC61541C582B2E957CEC59248","654F5B6BC61541C582B2E957CEC59248","0198ee4c-b36e-7752-bd2e-b107944a07a6","0198ee3c-27ac-7803-a9ea-f3b4ad4ad678","{""num_scrambled_semantic"":""8"",""num_scrambled_causal"":""4"",""num_scrambled_schematic"":""4"",""participantId"":""654F5B6BC61541C582B2E957CEC59248"",""assignmentId"":""0198ee4c-b36e-7752-bd2e-b107944a07a6"",""projectId"":""0198ee3c-27ac-7803-a9ea-f3b4ad4ad678""}","https://test12345.live/?num_scrambled_semantic=8&num_scrambled_causal=4&num_scrambled_schematic=4&participantId=654F5B6BC61541C582B2E957CEC59248&assignmentId=0198ee4c-b36e-7752-bd2e-b107944a07a6&projectId=0198ee3c-27ac-7803-a9ea-f3b4ad4ad678","654F5B6BC61541C582B2E957CEC59248-2025-08-28-02-39-32","","null","","[]","null","",""
"","","","","","image-button-response","63","409973","0.0-12.0-1.0-0.2","654F5B6BC61541C582B2E957CEC59248","654F5B6BC61541C582B2E957CEC59248","0198ee4c-b36e-7752-bd2e-b107944a07a6","0198ee3c-27ac-7803-a9ea-f3b4ad4ad678","{""num_scrambled_semantic"":""8"",""num_scrambled_causal"":""4"",""num_scrambled_schematic"":""4"",""participantId"":""654F5B6BC61541C582B2E957CEC59248"",""assignmentId"":""0198ee4c-b36e-7752-bd2e-b107944a07a6"",""projectId"":""0198ee3c-27ac-7803-a9ea-f3b4ad4ad678""}","https://test12345.live/?num_scrambled_semantic=8&num_scrambled_causal=4&num_scrambled_schematic=4&participantId=654F5B6BC61541C582B2E957CEC59248&assignmentId=0198ee4c-b36e-7752-bd2e-b107944a07a6&projectId=0198ee3c-27ac-7803-a9ea-f3b4ad4ad678","654F5B6BC61541C582B2E957CEC59248-2025-08-28-02-39-32","","null","","images/semantic_sequence/redecorating_a_house_semantic/redecorating_a_house_semantic_3.png","null","",""
"","","","","","image-button-response","64","413156","0.0-12.0-1.0-1.2","654F5B6BC61541C582B2E957CEC59248","654F5B6BC61541C582B2E957CEC59248","0198ee4c-b36e-7752-bd2e-b107944a07a6","0198ee3c-27ac-7803-a9ea-f3b4ad4ad678","{""num_scrambled_semantic"":""8"",""num_scrambled_causal"":""4"",""num_scrambled_schematic"":""4"",""participantId"":""654F5B6BC61541C582B2E957CEC59248"",""assignmentId"":""0198ee4c-b36e-7752-bd2e-b107944a07a6"",""projectId"":""0198ee3c-27ac-7803-a9ea-f3b4ad4ad678""}","https://test12345.live/?num_scrambled_semantic=8&num_scrambled_causal=4&num_scrambled_schematic=4&participantId=654F5B6BC61541C582B2E957CEC59248&assignmentId=0198ee4c-b36e-7752-bd2e-b107944a07a6&projectId=0198ee3c-27ac-7803-a9ea-f3b4ad4ad678","654F5B6BC61541C582B2E957CEC59248-2025-08-28-02-39-32","","3182","","images/semantic_sequence/redecorating_a_house_semantic/redecorating_a_house_semantic_3.png","0","",""
"","","","","","image-button-response","65","414968","0.0-12.0-1.0-2.2","654F5B6BC61541C582B2E957CEC59248","654F5B6BC61541C582B2E957CEC59248","0198ee4c-b36e-7752-bd2e-b107944a07a6","0198ee3c-27ac-7803-a9ea-f3b4ad4ad678","{""num_scrambled_semantic"":""8"",""num_scrambled_causal"":""4"",""num_scrambled_schematic"":""4"",""participantId"":""654F5B6BC61541C582B2E957CEC59248"",""assignmentId"":""0198ee4c-b36e-7752-bd2e-b107944a07a6"",""projectId"":""0198ee3c-27ac-7803-a9ea-f3b4ad4ad678""}","https://test12345.live/?num_scrambled_semantic=8&num_scrambled_causal=4&num_scrambled_schematic=4&participantId=654F5B6BC61541C582B2E957CEC59248&assignmentId=0198ee4c-b36e-7752-bd2e-b107944a07a6&projectId=0198ee3c-27ac-7803-a9ea-f3b4ad4ad678","654F5B6BC61541C582B2E957CEC59248-2025-08-28-02-39-32","","null","","[]","null","",""
"","","","","","image-button-response","66","419474","0.0-12.0-1.0-0.3","654F5B6BC61541C582B2E957CEC59248","654F5B6BC61541C582B2E957CEC59248","0198ee4c-b36e-7752-bd2e-b107944a07a6","0198ee3c-27ac-7803-a9ea-f3b4ad4ad678","{""num_scrambled_semantic"":""8"",""num_scrambled_causal"":""4"",""num_scrambled_schematic"":""4"",""participantId"":""654F5B6BC61541C582B2E957CEC59248"",""assignmentId"":""0198ee4c-b36e-7752-bd2e-b107944a07a6"",""projectId"":""0198ee3c-27ac-7803-a9ea-f3b4ad4ad678""}","https://test12345.live/?num_scrambled_semantic=8&num_scrambled_causal=4&num_scrambled_schematic=4&participantId=654F5B6BC61541C582B2E957CEC59248&assignmentId=0198ee4c-b36e-7752-bd2e-b107944a07a6&projectId=0198ee3c-27ac-7803-a9ea-f3b4ad4ad678","654F5B6BC61541C582B2E957CEC59248-2025-08-28-02-39-32","","null","","images/semantic_sequence/redecorating_a_house_semantic/redecorating_a_house_semantic_4.png","null","",""
"","","","","","image-button-response","67","421251","0.0-12.0-1.0-1.3","654F5B6BC61541C582B2E957CEC59248","654F5B6BC61541C582B2E957CEC59248","0198ee4c-b36e-7752-bd2e-b107944a07a6","0198ee3c-27ac-7803-a9ea-f3b4ad4ad678","{""num_scrambled_semantic"":""8"",""num_scrambled_causal"":""4"",""num_scrambled_schematic"":""4"",""participantId"":""654F5B6BC61541C582B2E957CEC59248"",""assignmentId"":""0198ee4c-b36e-7752-bd2e-b107944a07a6"",""projectId"":""0198ee3c-27ac-7803-a9ea-f3b4ad4ad678""}","https://test12345.live/?num_scrambled_semantic=8&num_scrambled_causal=4&num_scrambled_schematic=4&participantId=654F5B6BC61541C582B2E957CEC59248&assignmentId=0198ee4c-b36e-7752-bd2e-b107944a07a6&projectId=0198ee3c-27ac-7803-a9ea-f3b4ad4ad678","654F5B6BC61541C582B2E957CEC59248-2025-08-28-02-39-32","","1777","","images/semantic_sequence/redecorating_a_house_semantic/redecorating_a_house_semantic_4.png","0","",""
"","","","","","image-button-response","68","423064","0.0-12.0-1.0-2.3","654F5B6BC61541C582B2E957CEC59248","654F5B6BC61541C582B2E957CEC59248","0198ee4c-b36e-7752-bd2e-b107944a07a6","0198ee3c-27ac-7803-a9ea-f3b4ad4ad678","{""num_scrambled_semantic"":""8"",""num_scrambled_causal"":""4"",""num_scrambled_schematic"":""4"",""participantId"":""654F5B6BC61541C582B2E957CEC59248"",""assignmentId"":""0198ee4c-b36e-7752-bd2e-b107944a07a6"",""projectId"":""0198ee3c-27ac-7803-a9ea-f3b4ad4ad678""}","https://test12345.live/?num_scrambled_semantic=8&num_scrambled_causal=4&num_scrambled_schematic=4&participantId=654F5B6BC61541C582B2E957CEC59248&assignmentId=0198ee4c-b36e-7752-bd2e-b107944a07a6&projectId=0198ee3c-27ac-7803-a9ea-f3b4ad4ad678","654F5B6BC61541C582B2E957CEC59248-2025-08-28-02-39-32","","null","","[]","null","",""
"","","","","","image-button-response","69","427574","0.0-12.0-1.0-0.4","654F5B6BC61541C582B2E957CEC59248","654F5B6BC61541C582B2E957CEC59248","0198ee4c-b36e-7752-bd2e-b107944a07a6","0198ee3c-27ac-7803-a9ea-f3b4ad4ad678","{""num_scrambled_semantic"":""8"",""num_scrambled_causal"":""4"",""num_scrambled_schematic"":""4"",""participantId"":""654F5B6BC61541C582B2E957CEC59248"",""assignmentId"":""0198ee4c-b36e-7752-bd2e-b107944a07a6"",""projectId"":""0198ee3c-27ac-7803-a9ea-f3b4ad4ad678""}","https://test12345.live/?num_scrambled_semantic=8&num_scrambled_causal=4&num_scrambled_schematic=4&participantId=654F5B6BC61541C582B2E957CEC59248&assignmentId=0198ee4c-b36e-7752-bd2e-b107944a07a6&projectId=0198ee3c-27ac-7803-a9ea-f3b4ad4ad678","654F5B6BC61541C582B2E957CEC59248-2025-08-28-02-39-32","","null","","images/semantic_sequence/redecorating_a_house_semantic/redecorating_a_house_semantic_5.png","null","",""
"","","","","","image-button-response","70","428539","0.0-12.0-1.0-1.4","654F5B6BC61541C582B2E957CEC59248","654F5B6BC61541C582B2E957CEC59248","0198ee4c-b36e-7752-bd2e-b107944a07a6","0198ee3c-27ac-7803-a9ea-f3b4ad4ad678","{""num_scrambled_semantic"":""8"",""num_scrambled_causal"":""4"",""num_scrambled_schematic"":""4"",""participantId"":""654F5B6BC61541C582B2E957CEC59248"",""assignmentId"":""0198ee4c-b36e-7752-bd2e-b107944a07a6"",""projectId"":""0198ee3c-27ac-7803-a9ea-f3b4ad4ad678""}","https://test12345.live/?num_scrambled_semantic=8&num_scrambled_causal=4&num_scrambled_schematic=4&participantId=654F5B6BC61541C582B2E957CEC59248&assignmentId=0198ee4c-b36e-7752-bd2e-b107944a07a6&projectId=0198ee3c-27ac-7803-a9ea-f3b4ad4ad678","654F5B6BC61541C582B2E957CEC59248-2025-08-28-02-39-32","","965","","images/semantic_sequence/redecorating_a_house_semantic/redecorating_a_house_semantic_5.png","0","",""
"","","","","","image-button-response","71","430352","0.0-12.0-1.0-2.4","654F5B6BC61541C582B2E957CEC59248","654F5B6BC61541C582B2E957CEC59248","0198ee4c-b36e-7752-bd2e-b107944a07a6","0198ee3c-27ac-7803-a9ea-f3b4ad4ad678","{""num_scrambled_semantic"":""8"",""num_scrambled_causal"":""4"",""num_scrambled_schematic"":""4"",""participantId"":""654F5B6BC61541C582B2E957CEC59248"",""assignmentId"":""0198ee4c-b36e-7752-bd2e-b107944a07a6"",""projectId"":""0198ee3c-27ac-7803-a9ea-f3b4ad4ad678""}","https://test12345.live/?num_scrambled_semantic=8&num_scrambled_causal=4&num_scrambled_schematic=4&participantId=654F5B6BC61541C582B2E957CEC59248&assignmentId=0198ee4c-b36e-7752-bd2e-b107944a07a6&projectId=0198ee3c-27ac-7803-a9ea-f3b4ad4ad678","654F5B6BC61541C582B2E957CEC59248-2025-08-28-02-39-32","","null","","[]","null","",""
"","","","","","image-button-response","72","434853","0.0-12.0-1.0-0.5","654F5B6BC61541C582B2E957CEC59248","654F5B6BC61541C582B2E957CEC59248","0198ee4c-b36e-7752-bd2e-b107944a07a6","0198ee3c-27ac-7803-a9ea-f3b4ad4ad678","{""num_scrambled_semantic"":""8"",""num_scrambled_causal"":""4"",""num_scrambled_schematic"":""4"",""participantId"":""654F5B6BC61541C582B2E957CEC59248"",""assignmentId"":""0198ee4c-b36e-7752-bd2e-b107944a07a6"",""projectId"":""0198ee3c-27ac-7803-a9ea-f3b4ad4ad678""}","https://test12345.live/?num_scrambled_semantic=8&num_scrambled_causal=4&num_scrambled_schematic=4&participantId=654F5B6BC61541C582B2E957CEC59248&assignmentId=0198ee4c-b36e-7752-bd2e-b107944a07a6&projectId=0198ee3c-27ac-7803-a9ea-f3b4ad4ad678","654F5B6BC61541C582B2E957CEC59248-2025-08-28-02-39-32","","null","","images/semantic_sequence/redecorating_a_house_semantic/redecorating_a_house_semantic_6.png","null","",""
"","","","","","image-button-response","73","435920","0.0-12.0-1.0-1.5","654F5B6BC61541C582B2E957CEC59248","654F5B6BC61541C582B2E957CEC59248","0198ee4c-b36e-7752-bd2e-b107944a07a6","0198ee3c-27ac-7803-a9ea-f3b4ad4ad678","{""num_scrambled_semantic"":""8"",""num_scrambled_causal"":""4"",""num_scrambled_schematic"":""4"",""participantId"":""654F5B6BC61541C582B2E957CEC59248"",""assignmentId"":""0198ee4c-b36e-7752-bd2e-b107944a07a6"",""projectId"":""0198ee3c-27ac-7803-a9ea-f3b4ad4ad678""}","https://test12345.live/?num_scrambled_semantic=8&num_scrambled_causal=4&num_scrambled_schematic=4&participantId=654F5B6BC61541C582B2E957CEC59248&assignmentId=0198ee4c-b36e-7752-bd2e-b107944a07a6&projectId=0198ee3c-27ac-7803-a9ea-f3b4ad4ad678","654F5B6BC61541C582B2E957CEC59248-2025-08-28-02-39-32","","1067","","images/semantic_sequence/redecorating_a_house_semantic/redecorating_a_house_semantic_6.png","0","",""
"","","","","","image-button-response","74","437736","0.0-12.0-1.0-2.5","654F5B6BC61541C582B2E957CEC59248","654F5B6BC61541C582B2E957CEC59248","0198ee4c-b36e-7752-bd2e-b107944a07a6","0198ee3c-27ac-7803-a9ea-f3b4ad4ad678","{""num_scrambled_semantic"":""8"",""num_scrambled_causal"":""4"",""num_scrambled_schematic"":""4"",""participantId"":""654F5B6BC61541C582B2E957CEC59248"",""assignmentId"":""0198ee4c-b36e-7752-bd2e-b107944a07a6"",""projectId"":""0198ee3c-27ac-7803-a9ea-f3b4ad4ad678""}","https://test12345.live/?num_scrambled_semantic=8&num_scrambled_causal=4&num_scrambled_schematic=4&participantId=654F5B6BC61541C582B2E957CEC59248&assignmentId=0198ee4c-b36e-7752-bd2e-b107944a07a6&projectId=0198ee3c-27ac-7803-a9ea-f3b4ad4ad678","654F5B6BC61541C582B2E957CEC59248-2025-08-28-02-39-32","","null","","[]","null","",""
"","","","","","image-button-response","75","442252","0.0-12.0-1.0-0.6","654F5B6BC61541C582B2E957CEC59248","654F5B6BC61541C582B2E957CEC59248","0198ee4c-b36e-7752-bd2e-b107944a07a6","0198ee3c-27ac-7803-a9ea-f3b4ad4ad678","{""num_scrambled_semantic"":""8"",""num_scrambled_causal"":""4"",""num_scrambled_schematic"":""4"",""participantId"":""654F5B6BC61541C582B2E957CEC59248"",""assignmentId"":""0198ee4c-b36e-7752-bd2e-b107944a07a6"",""projectId"":""0198ee3c-27ac-7803-a9ea-f3b4ad4ad678""}","https://test12345.live/?num_scrambled_semantic=8&num_scrambled_causal=4&num_scrambled_schematic=4&participantId=654F5B6BC61541C582B2E957CEC59248&assignmentId=0198ee4c-b36e-7752-bd2e-b107944a07a6&projectId=0198ee3c-27ac-7803-a9ea-f3b4ad4ad678","654F5B6BC61541C582B2E957CEC59248-2025-08-28-02-39-32","","null","","images/semantic_sequence/redecorating_a_house_semantic/redecorating_a_house_semantic_7.png","null","",""
"","","","","","image-button-response","76","443022","0.0-12.0-1.0-1.6","654F5B6BC61541C582B2E957CEC59248","654F5B6BC61541C582B2E957CEC59248","0198ee4c-b36e-7752-bd2e-b107944a07a6","0198ee3c-27ac-7803-a9ea-f3b4ad4ad678","{""num_scrambled_semantic"":""8"",""num_scrambled_causal"":""4"",""num_scrambled_schematic"":""4"",""participantId"":""654F5B6BC61541C582B2E957CEC59248"",""assignmentId"":""0198ee4c-b36e-7752-bd2e-b107944a07a6"",""projectId"":""0198ee3c-27ac-7803-a9ea-f3b4ad4ad678""}","https://test12345.live/?num_scrambled_semantic=8&num_scrambled_causal=4&num_scrambled_schematic=4&participantId=654F5B6BC61541C582B2E957CEC59248&assignmentId=0198ee4c-b36e-7752-bd2e-b107944a07a6&projectId=0198ee3c-27ac-7803-a9ea-f3b4ad4ad678","654F5B6BC61541C582B2E957CEC59248-2025-08-28-02-39-32","","769","","images/semantic_sequence/redecorating_a_house_semantic/redecorating_a_house_semantic_7.png","0","",""
"","","","","","image-button-response","77","444825","0.0-12.0-1.0-2.6","654F5B6BC61541C582B2E957CEC59248","654F5B6BC61541C582B2E957CEC59248","0198ee4c-b36e-7752-bd2e-b107944a07a6","0198ee3c-27ac-7803-a9ea-f3b4ad4ad678","{""num_scrambled_semantic"":""8"",""num_scrambled_causal"":""4"",""num_scrambled_schematic"":""4"",""participantId"":""654F5B6BC61541C582B2E957CEC59248"",""assignmentId"":""0198ee4c-b36e-7752-bd2e-b107944a07a6"",""projectId"":""0198ee3c-27ac-7803-a9ea-f3b4ad4ad678""}","https://test12345.live/?num_scrambled_semantic=8&num_scrambled_causal=4&num_scrambled_schematic=4&participantId=654F5B6BC61541C582B2E957CEC59248&assignmentId=0198ee4c-b36e-7752-bd2e-b107944a07a6&projectId=0198ee3c-27ac-7803-a9ea-f3b4ad4ad678","654F5B6BC61541C582B2E957CEC59248-2025-08-28-02-39-32","","null","","[]","null","",""
"","","","","","image-button-response","78","449334","0.0-12.0-1.0-0.7","654F5B6BC61541C582B2E957CEC59248","654F5B6BC61541C582B2E957CEC59248","0198ee4c-b36e-7752-bd2e-b107944a07a6","0198ee3c-27ac-7803-a9ea-f3b4ad4ad678","{""num_scrambled_semantic"":""8"",""num_scrambled_causal"":""4"",""num_scrambled_schematic"":""4"",""participantId"":""654F5B6BC61541C582B2E957CEC59248"",""assignmentId"":""0198ee4c-b36e-7752-bd2e-b107944a07a6"",""projectId"":""0198ee3c-27ac-7803-a9ea-f3b4ad4ad678""}","https://test12345.live/?num_scrambled_semantic=8&num_scrambled_causal=4&num_scrambled_schematic=4&participantId=654F5B6BC61541C582B2E957CEC59248&assignmentId=0198ee4c-b36e-7752-bd2e-b107944a07a6&projectId=0198ee3c-27ac-7803-a9ea-f3b4ad4ad678","654F5B6BC61541C582B2E957CEC59248-2025-08-28-02-39-32","","null","","images/semantic_sequence/redecorating_a_house_semantic/redecorating_a_house_semantic_8.png","null","",""
"","","","","","image-button-response","79","450203","0.0-12.0-1.0-1.7","654F5B6BC61541C582B2E957CEC59248","654F5B6BC61541C582B2E957CEC59248","0198ee4c-b36e-7752-bd2e-b107944a07a6","0198ee3c-27ac-7803-a9ea-f3b4ad4ad678","{""num_scrambled_semantic"":""8"",""num_scrambled_causal"":""4"",""num_scrambled_schematic"":""4"",""participantId"":""654F5B6BC61541C582B2E957CEC59248"",""assignmentId"":""0198ee4c-b36e-7752-bd2e-b107944a07a6"",""projectId"":""0198ee3c-27ac-7803-a9ea-f3b4ad4ad678""}","https://test12345.live/?num_scrambled_semantic=8&num_scrambled_causal=4&num_scrambled_schematic=4&participantId=654F5B6BC61541C582B2E957CEC59248&assignmentId=0198ee4c-b36e-7752-bd2e-b107944a07a6&projectId=0198ee3c-27ac-7803-a9ea-f3b4ad4ad678","654F5B6BC61541C582B2E957CEC59248-2025-08-28-02-39-32","","869","","images/semantic_sequence/redecorating_a_house_semantic/redecorating_a_house_semantic_8.png","0","",""
"","","","","","image-button-response","80","452012","0.0-12.0-1.0-2.7","654F5B6BC61541C582B2E957CEC59248","654F5B6BC61541C582B2E957CEC59248","0198ee4c-b36e-7752-bd2e-b107944a07a6","0198ee3c-27ac-7803-a9ea-f3b4ad4ad678","{""num_scrambled_semantic"":""8"",""num_scrambled_causal"":""4"",""num_scrambled_schematic"":""4"",""participantId"":""654F5B6BC61541C582B2E957CEC59248"",""assignmentId"":""0198ee4c-b36e-7752-bd2e-b107944a07a6"",""projectId"":""0198ee3c-27ac-7803-a9ea-f3b4ad4ad678""}","https://test12345.live/?num_scrambled_semantic=8&num_scrambled_causal=4&num_scrambled_schematic=4&participantId=654F5B6BC61541C582B2E957CEC59248&assignmentId=0198ee4c-b36e-7752-bd2e-b107944a07a6&projectId=0198ee3c-27ac-7803-a9ea-f3b4ad4ad678","654F5B6BC61541C582B2E957CEC59248-2025-08-28-02-39-32","","null","","[]","null","",""
"","","","","","image-button-response","81","456515","0.0-12.0-1.0-0.8","654F5B6BC61541C582B2E957CEC59248","654F5B6BC61541C582B2E957CEC59248","0198ee4c-b36e-7752-bd2e-b107944a07a6","0198ee3c-27ac-7803-a9ea-f3b4ad4ad678","{""num_scrambled_semantic"":""8"",""num_scrambled_causal"":""4"",""num_scrambled_schematic"":""4"",""participantId"":""654F5B6BC61541C582B2E957CEC59248"",""assignmentId"":""0198ee4c-b36e-7752-bd2e-b107944a07a6"",""projectId"":""0198ee3c-27ac-7803-a9ea-f3b4ad4ad678""}","https://test12345.live/?num_scrambled_semantic=8&num_scrambled_causal=4&num_scrambled_schematic=4&participantId=654F5B6BC61541C582B2E957CEC59248&assignmentId=0198ee4c-b36e-7752-bd2e-b107944a07a6&projectId=0198ee3c-27ac-7803-a9ea-f3b4ad4ad678","654F5B6BC61541C582B2E957CEC59248-2025-08-28-02-39-32","","null","","images/semantic_sequence/redecorating_a_house_semantic/redecorating_a_house_semantic_9.png","null","",""
"","","","","","image-button-response","82","457503","0.0-12.0-1.0-1.8","654F5B6BC61541C582B2E957CEC59248","654F5B6BC61541C582B2E957CEC59248","0198ee4c-b36e-7752-bd2e-b107944a07a6","0198ee3c-27ac-7803-a9ea-f3b4ad4ad678","{""num_scrambled_semantic"":""8"",""num_scrambled_causal"":""4"",""num_scrambled_schematic"":""4"",""participantId"":""654F5B6BC61541C582B2E957CEC59248"",""assignmentId"":""0198ee4c-b36e-7752-bd2e-b107944a07a6"",""projectId"":""0198ee3c-27ac-7803-a9ea-f3b4ad4ad678""}","https://test12345.live/?num_scrambled_semantic=8&num_scrambled_causal=4&num_scrambled_schematic=4&participantId=654F5B6BC61541C582B2E957CEC59248&assignmentId=0198ee4c-b36e-7752-bd2e-b107944a07a6&projectId=0198ee3c-27ac-7803-a9ea-f3b4ad4ad678","654F5B6BC61541C582B2E957CEC59248-2025-08-28-02-39-32","","988","","images/semantic_sequence/redecorating_a_house_semantic/redecorating_a_house_semantic_9.png","0","",""
"","","","","","image-button-response","83","459307","0.0-12.0-1.0-2.8","654F5B6BC61541C582B2E957CEC59248","654F5B6BC61541C582B2E957CEC59248","0198ee4c-b36e-7752-bd2e-b107944a07a6","0198ee3c-27ac-7803-a9ea-f3b4ad4ad678","{""num_scrambled_semantic"":""8"",""num_scrambled_causal"":""4"",""num_scrambled_schematic"":""4"",""participantId"":""654F5B6BC61541C582B2E957CEC59248"",""assignmentId"":""0198ee4c-b36e-7752-bd2e-b107944a07a6"",""projectId"":""0198ee3c-27ac-7803-a9ea-f3b4ad4ad678""}","https://test12345.live/?num_scrambled_semantic=8&num_scrambled_causal=4&num_scrambled_schematic=4&participantId=654F5B6BC61541C582B2E957CEC59248&assignmentId=0198ee4c-b36e-7752-bd2e-b107944a07a6&projectId=0198ee3c-27ac-7803-a9ea-f3b4ad4ad678","654F5B6BC61541C582B2E957CEC59248-2025-08-28-02-39-32","","null","","[]","null","",""
"","","","","","image-button-response","84","463817","0.0-12.0-1.0-0.9","654F5B6BC61541C582B2E957CEC59248","654F5B6BC61541C582B2E957CEC59248","0198ee4c-b36e-7752-bd2e-b107944a07a6","0198ee3c-27ac-7803-a9ea-f3b4ad4ad678","{""num_scrambled_semantic"":""8"",""num_scrambled_causal"":""4"",""num_scrambled_schematic"":""4"",""participantId"":""654F5B6BC61541C582B2E957CEC59248"",""assignmentId"":""0198ee4c-b36e-7752-bd2e-b107944a07a6"",""projectId"":""0198ee3c-27ac-7803-a9ea-f3b4ad4ad678""}","https://test12345.live/?num_scrambled_semantic=8&num_scrambled_causal=4&num_scrambled_schematic=4&participantId=654F5B6BC61541C582B2E957CEC59248&assignmentId=0198ee4c-b36e-7752-bd2e-b107944a07a6&projectId=0198ee3c-27ac-7803-a9ea-f3b4ad4ad678","654F5B6BC61541C582B2E957CEC59248-2025-08-28-02-39-32","","null","","images/semantic_sequence/redecorating_a_house_semantic/redecorating_a_house_semantic_ten.png","null","",""
"","","","","","image-button-response","85","464606","0.0-12.0-1.0-1.9","654F5B6BC61541C582B2E957CEC59248","654F5B6BC61541C582B2E957CEC59248","0198ee4c-b36e-7752-bd2e-b107944a07a6","0198ee3c-27ac-7803-a9ea-f3b4ad4ad678","{""num_scrambled_semantic"":""8"",""num_scrambled_causal"":""4"",""num_scrambled_schematic"":""4"",""participantId"":""654F5B6BC61541C582B2E957CEC59248"",""assignmentId"":""0198ee4c-b36e-7752-bd2e-b107944a07a6"",""projectId"":""0198ee3c-27ac-7803-a9ea-f3b4ad4ad678""}","https://test12345.live/?num_scrambled_semantic=8&num_scrambled_causal=4&num_scrambled_schematic=4&participantId=654F5B6BC61541C582B2E957CEC59248&assignmentId=0198ee4c-b36e-7752-bd2e-b107944a07a6&projectId=0198ee3c-27ac-7803-a9ea-f3b4ad4ad678","654F5B6BC61541C582B2E957CEC59248-2025-08-28-02-39-32","","788","","images/semantic_sequence/redecorating_a_house_semantic/redecorating_a_house_semantic_ten.png","0","",""
"","","","","","image-button-response","86","466419","0.0-12.0-1.0-2.9","654F5B6BC61541C582B2E957CEC59248","654F5B6BC61541C582B2E957CEC59248","0198ee4c-b36e-7752-bd2e-b107944a07a6","0198ee3c-27ac-7803-a9ea-f3b4ad4ad678","{""num_scrambled_semantic"":""8"",""num_scrambled_causal"":""4"",""num_scrambled_schematic"":""4"",""participantId"":""654F5B6BC61541C582B2E957CEC59248"",""assignmentId"":""0198ee4c-b36e-7752-bd2e-b107944a07a6"",""projectId"":""0198ee3c-27ac-7803-a9ea-f3b4ad4ad678""}","https://test12345.live/?num_scrambled_semantic=8&num_scrambled_causal=4&num_scrambled_schematic=4&participantId=654F5B6BC61541C582B2E957CEC59248&assignmentId=0198ee4c-b36e-7752-bd2e-b107944a07a6&projectId=0198ee3c-27ac-7803-a9ea-f3b4ad4ad678","654F5B6BC61541C582B2E957CEC59248-2025-08-28-02-39-32","","null","","[]","null","",""
"","","","","","html-audio-response","87","516021","0.0-13.0","654F5B6BC61541C582B2E957CEC59248","654F5B6BC61541C582B2E957CEC59248","0198ee4c-b36e-7752-bd2e-b107944a07a6","0198ee3c-27ac-7803-a9ea-f3b4ad4ad678","{""num_scrambled_semantic"":""8"",""num_scrambled_causal"":""4"",""num_scrambled_schematic"":""4"",""participantId"":""654F5B6BC61541C582B2E957CEC59248"",""assignmentId"":""0198ee4c-b36e-7752-bd2e-b107944a07a6"",""projectId"":""0198ee3c-27ac-7803-a9ea-f3b4ad4ad678""}","https://test12345.live/?num_scrambled_semantic=8&num_scrambled_causal=4&num_scrambled_schematic=4&participantId=654F5B6BC61541C582B2E957CEC59248&assignmentId=0198ee4c-b36e-7752-bd2e-b107944a07a6&projectId=0198ee3c-27ac-7803-a9ea-f3b4ad4ad678","654F5B6BC61541C582B2E957CEC59248-2025-08-28-02-39-32","","48416","","[""<span style=\""color: red; font-size: 24px\""> NOW RECORDING</span><p>Please say out loud all the images you saw, in the order of the story they create. Try to recall the sequence of events as they appeared in the story, not necessarily the order they were presented on the screen.</p>""]","","8","redecorating_a_house_semantic"
"","","","","","image-button-response","88","522030","0.0-14.0-0.0","654F5B6BC61541C582B2E957CEC59248","654F5B6BC61541C582B2E957CEC59248","0198ee4c-b36e-7752-bd2e-b107944a07a6","0198ee3c-27ac-7803-a9ea-f3b4ad4ad678","{""num_scrambled_semantic"":""8"",""num_scrambled_causal"":""4"",""num_scrambled_schematic"":""4"",""participantId"":""654F5B6BC61541C582B2E957CEC59248"",""assignmentId"":""0198ee4c-b36e-7752-bd2e-b107944a07a6"",""projectId"":""0198ee3c-27ac-7803-a9ea-f3b4ad4ad678""}","https://test12345.live/?num_scrambled_semantic=8&num_scrambled_causal=4&num_scrambled_schematic=4&participantId=654F5B6BC61541C582B2E957CEC59248&assignmentId=0198ee4c-b36e-7752-bd2e-b107944a07a6&projectId=0198ee3c-27ac-7803-a9ea-f3b4ad4ad678","654F5B6BC61541C582B2E957CEC59248-2025-08-28-02-39-32","","null","","images/semantic_sequence/housework_semantic/housework_semantic_0.png","null","",""
"","","","","","image-button-response","89","526531","0.0-14.0-1.0-0.0","654F5B6BC61541C582B2E957CEC59248","654F5B6BC61541C582B2E957CEC59248","0198ee4c-b36e-7752-bd2e-b107944a07a6","0198ee3c-27ac-7803-a9ea-f3b4ad4ad678","{""num_scrambled_semantic"":""8"",""num_scrambled_causal"":""4"",""num_scrambled_schematic"":""4"",""participantId"":""654F5B6BC61541C582B2E957CEC59248"",""assignmentId"":""0198ee4c-b36e-7752-bd2e-b107944a07a6"",""projectId"":""0198ee3c-27ac-7803-a9ea-f3b4ad4ad678""}","https://test12345.live/?num_scrambled_semantic=8&num_scrambled_causal=4&num_scrambled_schematic=4&participantId=654F5B6BC61541C582B2E957CEC59248&assignmentId=0198ee4c-b36e-7752-bd2e-b107944a07a6&projectId=0198ee3c-27ac-7803-a9ea-f3b4ad4ad678","654F5B6BC61541C582B2E957CEC59248-2025-08-28-02-39-32","","null","","images/semantic_sequence/housework_semantic/housework_semantic_9.png","null","",""
"","","","","","image-button-response","90","528504","0.0-14.0-1.0-1.0","654F5B6BC61541C582B2E957CEC59248","654F5B6BC61541C582B2E957CEC59248","0198ee4c-b36e-7752-bd2e-b107944a07a6","0198ee3c-27ac-7803-a9ea-f3b4ad4ad678","{""num_scrambled_semantic"":""8"",""num_scrambled_causal"":""4"",""num_scrambled_schematic"":""4"",""participantId"":""654F5B6BC61541C582B2E957CEC59248"",""assignmentId"":""0198ee4c-b36e-7752-bd2e-b107944a07a6"",""projectId"":""0198ee3c-27ac-7803-a9ea-f3b4ad4ad678""}","https://test12345.live/?num_scrambled_semantic=8&num_scrambled_causal=4&num_scrambled_schematic=4&participantId=654F5B6BC61541C582B2E957CEC59248&assignmentId=0198ee4c-b36e-7752-bd2e-b107944a07a6&projectId=0198ee3c-27ac-7803-a9ea-f3b4ad4ad678","654F5B6BC61541C582B2E957CEC59248-2025-08-28-02-39-32","","1972","","images/semantic_sequence/housework_semantic/housework_semantic_9.png","0","",""
"","","","","","image-button-response","91","530305","0.0-14.0-1.0-2.0","654F5B6BC61541C582B2E957CEC59248","654F5B6BC61541C582B2E957CEC59248","0198ee4c-b36e-7752-bd2e-b107944a07a6","0198ee3c-27ac-7803-a9ea-f3b4ad4ad678","{""num_scrambled_semantic"":""8"",""num_scrambled_causal"":""4"",""num_scrambled_schematic"":""4"",""participantId"":""654F5B6BC61541C582B2E957CEC59248"",""assignmentId"":""0198ee4c-b36e-7752-bd2e-b107944a07a6"",""projectId"":""0198ee3c-27ac-7803-a9ea-f3b4ad4ad678""}","https://test12345.live/?num_scrambled_semantic=8&num_scrambled_causal=4&num_scrambled_schematic=4&participantId=654F5B6BC61541C582B2E957CEC59248&assignmentId=0198ee4c-b36e-7752-bd2e-b107944a07a6&projectId=0198ee3c-27ac-7803-a9ea-f3b4ad4ad678","654F5B6BC61541C582B2E957CEC59248-2025-08-28-02-39-32","","null","","[]","null","",""
"","","","","","image-button-response","92","534810","0.0-14.0-1.0-0.1","654F5B6BC61541C582B2E957CEC59248","654F5B6BC61541C582B2E957CEC59248","0198ee4c-b36e-7752-bd2e-b107944a07a6","0198ee3c-27ac-7803-a9ea-f3b4ad4ad678","{""num_scrambled_semantic"":""8"",""num_scrambled_causal"":""4"",""num_scrambled_schematic"":""4"",""participantId"":""654F5B6BC61541C582B2E957CEC59248"",""assignmentId"":""0198ee4c-b36e-7752-bd2e-b107944a07a6"",""projectId"":""0198ee3c-27ac-7803-a9ea-f3b4ad4ad678""}","https://test12345.live/?num_scrambled_semantic=8&num_scrambled_causal=4&num_scrambled_schematic=4&participantId=654F5B6BC61541C582B2E957CEC59248&assignmentId=0198ee4c-b36e-7752-bd2e-b107944a07a6&projectId=0198ee3c-27ac-7803-a9ea-f3b4ad4ad678","654F5B6BC61541C582B2E957CEC59248-2025-08-28-02-39-32","","null","","images/semantic_sequence/housework_semantic/housework_semantic_ten.png","null","",""
"","","","","","image-button-response","93","538530","0.0-14.0-1.0-1.1","654F5B6BC61541C582B2E957CEC59248","654F5B6BC61541C582B2E957CEC59248","0198ee4c-b36e-7752-bd2e-b107944a07a6","0198ee3c-27ac-7803-a9ea-f3b4ad4ad678","{""num_scrambled_semantic"":""8"",""num_scrambled_causal"":""4"",""num_scrambled_schematic"":""4"",""participantId"":""654F5B6BC61541C582B2E957CEC59248"",""assignmentId"":""0198ee4c-b36e-7752-bd2e-b107944a07a6"",""projectId"":""0198ee3c-27ac-7803-a9ea-f3b4ad4ad678""}","https://test12345.live/?num_scrambled_semantic=8&num_scrambled_causal=4&num_scrambled_schematic=4&participantId=654F5B6BC61541C582B2E957CEC59248&assignmentId=0198ee4c-b36e-7752-bd2e-b107944a07a6&projectId=0198ee3c-27ac-7803-a9ea-f3b4ad4ad678","654F5B6BC61541C582B2E957CEC59248-2025-08-28-02-39-32","","3719","","images/semantic_sequence/housework_semantic/housework_semantic_ten.png","0","",""
"","","","","","image-button-response","94","540333","0.0-14.0-1.0-2.1","654F5B6BC61541C582B2E957CEC59248","654F5B6BC61541C582B2E957CEC59248","0198ee4c-b36e-7752-bd2e-b107944a07a6","0198ee3c-27ac-7803-a9ea-f3b4ad4ad678","{""num_scrambled_semantic"":""8"",""num_scrambled_causal"":""4"",""num_scrambled_schematic"":""4"",""participantId"":""654F5B6BC61541C582B2E957CEC59248"",""assignmentId"":""0198ee4c-b36e-7752-bd2e-b107944a07a6"",""projectId"":""0198ee3c-27ac-7803-a9ea-f3b4ad4ad678""}","https://test12345.live/?num_scrambled_semantic=8&num_scrambled_causal=4&num_scrambled_schematic=4&participantId=654F5B6BC61541C582B2E957CEC59248&assignmentId=0198ee4c-b36e-7752-bd2e-b107944a07a6&projectId=0198ee3c-27ac-7803-a9ea-f3b4ad4ad678","654F5B6BC61541C582B2E957CEC59248-2025-08-28-02-39-32","","null","","[]","null","",""
"","","","","","image-button-response","95","544840","0.0-14.0-1.0-0.2","654F5B6BC61541C582B2E957CEC59248","654F5B6BC61541C582B2E957CEC59248","0198ee4c-b36e-7752-bd2e-b107944a07a6","0198ee3c-27ac-7803-a9ea-f3b4ad4ad678","{""num_scrambled_semantic"":""8"",""num_scrambled_causal"":""4"",""num_scrambled_schematic"":""4"",""participantId"":""654F5B6BC61541C582B2E957CEC59248"",""assignmentId"":""0198ee4c-b36e-7752-bd2e-b107944a07a6"",""projectId"":""0198ee3c-27ac-7803-a9ea-f3b4ad4ad678""}","https://test12345.live/?num_scrambled_semantic=8&num_scrambled_causal=4&num_scrambled_schematic=4&participantId=654F5B6BC61541C582B2E957CEC59248&assignmentId=0198ee4c-b36e-7752-bd2e-b107944a07a6&projectId=0198ee3c-27ac-7803-a9ea-f3b4ad4ad678","654F5B6BC61541C582B2E957CEC59248-2025-08-28-02-39-32","","null","","images/semantic_sequence/housework_semantic/housework_semantic_2.png","null","",""
"","","","","","image-button-response","96","546905","0.0-14.0-1.0-1.2","654F5B6BC61541C582B2E957CEC59248","654F5B6BC61541C582B2E957CEC59248","0198ee4c-b36e-7752-bd2e-b107944a07a6","0198ee3c-27ac-7803-a9ea-f3b4ad4ad678","{""num_scrambled_semantic"":""8"",""num_scrambled_causal"":""4"",""num_scrambled_schematic"":""4"",""participantId"":""654F5B6BC61541C582B2E957CEC59248"",""assignmentId"":""0198ee4c-b36e-7752-bd2e-b107944a07a6"",""projectId"":""0198ee3c-27ac-7803-a9ea-f3b4ad4ad678""}","https://test12345.live/?num_scrambled_semantic=8&num_scrambled_causal=4&num_scrambled_schematic=4&participantId=654F5B6BC61541C582B2E957CEC59248&assignmentId=0198ee4c-b36e-7752-bd2e-b107944a07a6&projectId=0198ee3c-27ac-7803-a9ea-f3b4ad4ad678","654F5B6BC61541C582B2E957CEC59248-2025-08-28-02-39-32","","2064","","images/semantic_sequence/housework_semantic/housework_semantic_2.png","0","",""
"","","","","","image-button-response","97","548710","0.0-14.0-1.0-2.2","654F5B6BC61541C582B2E957CEC59248","654F5B6BC61541C582B2E957CEC59248","0198ee4c-b36e-7752-bd2e-b107944a07a6","0198ee3c-27ac-7803-a9ea-f3b4ad4ad678","{""num_scrambled_semantic"":""8"",""num_scrambled_causal"":""4"",""num_scrambled_schematic"":""4"",""participantId"":""654F5B6BC61541C582B2E957CEC59248"",""assignmentId"":""0198ee4c-b36e-7752-bd2e-b107944a07a6"",""projectId"":""0198ee3c-27ac-7803-a9ea-f3b4ad4ad678""}","https://test12345.live/?num_scrambled_semantic=8&num_scrambled_causal=4&num_scrambled_schematic=4&participantId=654F5B6BC61541C582B2E957CEC59248&assignmentId=0198ee4c-b36e-7752-bd2e-b107944a07a6&projectId=0198ee3c-27ac-7803-a9ea-f3b4ad4ad678","654F5B6BC61541C582B2E957CEC59248-2025-08-28-02-39-32","","null","","[]","null","",""
"","","","","","image-button-response","98","553226","0.0-14.0-1.0-0.3","654F5B6BC61541C582B2E957CEC59248","654F5B6BC61541C582B2E957CEC59248","0198ee4c-b36e-7752-bd2e-b107944a07a6","0198ee3c-27ac-7803-a9ea-f3b4ad4ad678","{""num_scrambled_semantic"":""8"",""num_scrambled_causal"":""4"",""num_scrambled_schematic"":""4"",""participantId"":""654F5B6BC61541C582B2E957CEC59248"",""assignmentId"":""0198ee4c-b36e-7752-bd2e-b107944a07a6"",""projectId"":""0198ee3c-27ac-7803-a9ea-f3b4ad4ad678""}","https://test12345.live/?num_scrambled_semantic=8&num_scrambled_causal=4&num_scrambled_schematic=4&participantId=654F5B6BC61541C582B2E957CEC59248&assignmentId=0198ee4c-b36e-7752-bd2e-b107944a07a6&projectId=0198ee3c-27ac-7803-a9ea-f3b4ad4ad678","654F5B6BC61541C582B2E957CEC59248-2025-08-28-02-39-32","","null","","images/semantic_sequence/housework_semantic/housework_semantic_6.png","null","",""
"","","","","","image-button-response","99","557237","0.0-14.0-1.0-1.3","654F5B6BC61541C582B2E957CEC59248","654F5B6BC61541C582B2E957CEC59248","0198ee4c-b36e-7752-bd2e-b107944a07a6","0198ee3c-27ac-7803-a9ea-f3b4ad4ad678","{""num_scrambled_semantic"":""8"",""num_scrambled_causal"":""4"",""num_scrambled_schematic"":""4"",""participantId"":""654F5B6BC61541C582B2E957CEC59248"",""assignmentId"":""0198ee4c-b36e-7752-bd2e-b107944a07a6"",""projectId"":""0198ee3c-27ac-7803-a9ea-f3b4ad4ad678""}","https://test12345.live/?num_scrambled_semantic=8&num_scrambled_causal=4&num_scrambled_schematic=4&participantId=654F5B6BC61541C582B2E957CEC59248&assignmentId=0198ee4c-b36e-7752-bd2e-b107944a07a6&projectId=0198ee3c-27ac-7803-a9ea-f3b4ad4ad678","654F5B6BC61541C582B2E957CEC59248-2025-08-28-02-39-32","","null","","images/semantic_sequence/housework_semantic/housework_semantic_6.png","null","",""
"","","","","","image-button-response","100","559039","0.0-14.0-1.0-2.3","654F5B6BC61541C582B2E957CEC59248","654F5B6BC61541C582B2E957CEC59248","0198ee4c-b36e-7752-bd2e-b107944a07a6","0198ee3c-27ac-7803-a9ea-f3b4ad4ad678","{""num_scrambled_semantic"":""8"",""num_scrambled_causal"":""4"",""num_scrambled_schematic"":""4"",""participantId"":""654F5B6BC61541C582B2E957CEC59248"",""assignmentId"":""0198ee4c-b36e-7752-bd2e-b107944a07a6"",""projectId"":""0198ee3c-27ac-7803-a9ea-f3b4ad4ad678""}","https://test12345.live/?num_scrambled_semantic=8&num_scrambled_causal=4&num_scrambled_schematic=4&participantId=654F5B6BC61541C582B2E957CEC59248&assignmentId=0198ee4c-b36e-7752-bd2e-b107944a07a6&projectId=0198ee3c-27ac-7803-a9ea-f3b4ad4ad678","654F5B6BC61541C582B2E957CEC59248-2025-08-28-02-39-32","","null","","[]","null","",""
"","","","","","image-button-response","101","563555","0.0-14.0-1.0-0.4","654F5B6BC61541C582B2E957CEC59248","654F5B6BC61541C582B2E957CEC59248","0198ee4c-b36e-7752-bd2e-b107944a07a6","0198ee3c-27ac-7803-a9ea-f3b4ad4ad678","{""num_scrambled_semantic"":""8"",""num_scrambled_causal"":""4"",""num_scrambled_schematic"":""4"",""participantId"":""654F5B6BC61541C582B2E957CEC59248"",""assignmentId"":""0198ee4c-b36e-7752-bd2e-b107944a07a6"",""projectId"":""0198ee3c-27ac-7803-a9ea-f3b4ad4ad678""}","https://test12345.live/?num_scrambled_semantic=8&num_scrambled_causal=4&num_scrambled_schematic=4&participantId=654F5B6BC61541C582B2E957CEC59248&assignmentId=0198ee4c-b36e-7752-bd2e-b107944a07a6&projectId=0198ee3c-27ac-7803-a9ea-f3b4ad4ad678","654F5B6BC61541C582B2E957CEC59248-2025-08-28-02-39-32","","null","","images/semantic_sequence/housework_semantic/housework_semantic_8.png","null","",""
"","","","","","image-button-response","102","565104","0.0-14.0-1.0-1.4","654F5B6BC61541C582B2E957CEC59248","654F5B6BC61541C582B2E957CEC59248","0198ee4c-b36e-7752-bd2e-b107944a07a6","0198ee3c-27ac-7803-a9ea-f3b4ad4ad678","{""num_scrambled_semantic"":""8"",""num_scrambled_causal"":""4"",""num_scrambled_schematic"":""4"",""participantId"":""654F5B6BC61541C582B2E957CEC59248"",""assignmentId"":""0198ee4c-b36e-7752-bd2e-b107944a07a6"",""projectId"":""0198ee3c-27ac-7803-a9ea-f3b4ad4ad678""}","https://test12345.live/?num_scrambled_semantic=8&num_scrambled_causal=4&num_scrambled_schematic=4&participantId=654F5B6BC61541C582B2E957CEC59248&assignmentId=0198ee4c-b36e-7752-bd2e-b107944a07a6&projectId=0198ee3c-27ac-7803-a9ea-f3b4ad4ad678","654F5B6BC61541C582B2E957CEC59248-2025-08-28-02-39-32","","1549","","images/semantic_sequence/housework_semantic/housework_semantic_8.png","0","",""
"","","","","","image-button-response","103","566908","0.0-14.0-1.0-2.4","654F5B6BC61541C582B2E957CEC59248","654F5B6BC61541C582B2E957CEC59248","0198ee4c-b36e-7752-bd2e-b107944a07a6","0198ee3c-27ac-7803-a9ea-f3b4ad4ad678","{""num_scrambled_semantic"":""8"",""num_scrambled_causal"":""4"",""num_scrambled_schematic"":""4"",""participantId"":""654F5B6BC61541C582B2E957CEC59248"",""assignmentId"":""0198ee4c-b36e-7752-bd2e-b107944a07a6"",""projectId"":""0198ee3c-27ac-7803-a9ea-f3b4ad4ad678""}","https://test12345.live/?num_scrambled_semantic=8&num_scrambled_causal=4&num_scrambled_schematic=4&participantId=654F5B6BC61541C582B2E957CEC59248&assignmentId=0198ee4c-b36e-7752-bd2e-b107944a07a6&projectId=0198ee3c-27ac-7803-a9ea-f3b4ad4ad678","654F5B6BC61541C582B2E957CEC59248-2025-08-28-02-39-32","","null","","[]","null","",""
"","","","","","image-button-response","104","571422","0.0-14.0-1.0-0.5","654F5B6BC61541C582B2E957CEC59248","654F5B6BC61541C582B2E957CEC59248","0198ee4c-b36e-7752-bd2e-b107944a07a6","0198ee3c-27ac-7803-a9ea-f3b4ad4ad678","{""num_scrambled_semantic"":""8"",""num_scrambled_causal"":""4"",""num_scrambled_schematic"":""4"",""participantId"":""654F5B6BC61541C582B2E957CEC59248"",""assignmentId"":""0198ee4c-b36e-7752-bd2e-b107944a07a6"",""projectId"":""0198ee3c-27ac-7803-a9ea-f3b4ad4ad678""}","https://test12345.live/?num_scrambled_semantic=8&num_scrambled_causal=4&num_scrambled_schematic=4&participantId=654F5B6BC61541C582B2E957CEC59248&assignmentId=0198ee4c-b36e-7752-bd2e-b107944a07a6&projectId=0198ee3c-27ac-7803-a9ea-f3b4ad4ad678","654F5B6BC61541C582B2E957CEC59248-2025-08-28-02-39-32","","null","","images/semantic_sequence/housework_semantic/housework_semantic_7.png","null","",""
"","","","","","image-button-response","105","572365","0.0-14.0-1.0-1.5","654F5B6BC61541C582B2E957CEC59248","654F5B6BC61541C582B2E957CEC59248","0198ee4c-b36e-7752-bd2e-b107944a07a6","0198ee3c-27ac-7803-a9ea-f3b4ad4ad678","{""num_scrambled_semantic"":""8"",""num_scrambled_causal"":""4"",""num_scrambled_schematic"":""4"",""participantId"":""654F5B6BC61541C582B2E957CEC59248"",""assignmentId"":""0198ee4c-b36e-7752-bd2e-b107944a07a6"",""projectId"":""0198ee3c-27ac-7803-a9ea-f3b4ad4ad678""}","https://test12345.live/?num_scrambled_semantic=8&num_scrambled_causal=4&num_scrambled_schematic=4&participantId=654F5B6BC61541C582B2E957CEC59248&assignmentId=0198ee4c-b36e-7752-bd2e-b107944a07a6&projectId=0198ee3c-27ac-7803-a9ea-f3b4ad4ad678","654F5B6BC61541C582B2E957CEC59248-2025-08-28-02-39-32","","941","","images/semantic_sequence/housework_semantic/housework_semantic_7.png","0","",""
"","","","","","image-button-response","106","574168","0.0-14.0-1.0-2.5","654F5B6BC61541C582B2E957CEC59248","654F5B6BC61541C582B2E957CEC59248","0198ee4c-b36e-7752-bd2e-b107944a07a6","0198ee3c-27ac-7803-a9ea-f3b4ad4ad678","{""num_scrambled_semantic"":""8"",""num_scrambled_causal"":""4"",""num_scrambled_schematic"":""4"",""participantId"":""654F5B6BC61541C582B2E957CEC59248"",""assignmentId"":""0198ee4c-b36e-7752-bd2e-b107944a07a6"",""projectId"":""0198ee3c-27ac-7803-a9ea-f3b4ad4ad678""}","https://test12345.live/?num_scrambled_semantic=8&num_scrambled_causal=4&num_scrambled_schematic=4&participantId=654F5B6BC61541C582B2E957CEC59248&assignmentId=0198ee4c-b36e-7752-bd2e-b107944a07a6&projectId=0198ee3c-27ac-7803-a9ea-f3b4ad4ad678","654F5B6BC61541C582B2E957CEC59248-2025-08-28-02-39-32","","null","","[]","null","",""
"","","","","","image-button-response","107","578683","0.0-14.0-1.0-0.6","654F5B6BC61541C582B2E957CEC59248","654F5B6BC61541C582B2E957CEC59248","0198ee4c-b36e-7752-bd2e-b107944a07a6","0198ee3c-27ac-7803-a9ea-f3b4ad4ad678","{""num_scrambled_semantic"":""8"",""num_scrambled_causal"":""4"",""num_scrambled_schematic"":""4"",""participantId"":""654F5B6BC61541C582B2E957CEC59248"",""assignmentId"":""0198ee4c-b36e-7752-bd2e-b107944a07a6"",""projectId"":""0198ee3c-27ac-7803-a9ea-f3b4ad4ad678""}","https://test12345.live/?num_scrambled_semantic=8&num_scrambled_causal=4&num_scrambled_schematic=4&participantId=654F5B6BC61541C582B2E957CEC59248&assignmentId=0198ee4c-b36e-7752-bd2e-b107944a07a6&projectId=0198ee3c-27ac-7803-a9ea-f3b4ad4ad678","654F5B6BC61541C582B2E957CEC59248-2025-08-28-02-39-32","","null","","images/semantic_sequence/housework_semantic/housework_semantic_3.png","null","",""
"","","","","","image-button-response","108","579887","0.0-14.0-1.0-1.6","654F5B6BC61541C582B2E957CEC59248","654F5B6BC61541C582B2E957CEC59248","0198ee4c-b36e-7752-bd2e-b107944a07a6","0198ee3c-27ac-7803-a9ea-f3b4ad4ad678","{""num_scrambled_semantic"":""8"",""num_scrambled_causal"":""4"",""num_scrambled_schematic"":""4"",""participantId"":""654F5B6BC61541C582B2E957CEC59248"",""assignmentId"":""0198ee4c-b36e-7752-bd2e-b107944a07a6"",""projectId"":""0198ee3c-27ac-7803-a9ea-f3b4ad4ad678""}","https://test12345.live/?num_scrambled_semantic=8&num_scrambled_causal=4&num_scrambled_schematic=4&participantId=654F5B6BC61541C582B2E957CEC59248&assignmentId=0198ee4c-b36e-7752-bd2e-b107944a07a6&projectId=0198ee3c-27ac-7803-a9ea-f3b4ad4ad678","654F5B6BC61541C582B2E957CEC59248-2025-08-28-02-39-32","","1204","","images/semantic_sequence/housework_semantic/housework_semantic_3.png","0","",""
"","","","","","image-button-response","109","581702","0.0-14.0-1.0-2.6","654F5B6BC61541C582B2E957CEC59248","654F5B6BC61541C582B2E957CEC59248","0198ee4c-b36e-7752-bd2e-b107944a07a6","0198ee3c-27ac-7803-a9ea-f3b4ad4ad678","{""num_scrambled_semantic"":""8"",""num_scrambled_causal"":""4"",""num_scrambled_schematic"":""4"",""participantId"":""654F5B6BC61541C582B2E957CEC59248"",""assignmentId"":""0198ee4c-b36e-7752-bd2e-b107944a07a6"",""projectId"":""0198ee3c-27ac-7803-a9ea-f3b4ad4ad678""}","https://test12345.live/?num_scrambled_semantic=8&num_scrambled_causal=4&num_scrambled_schematic=4&participantId=654F5B6BC61541C582B2E957CEC59248&assignmentId=0198ee4c-b36e-7752-bd2e-b107944a07a6&projectId=0198ee3c-27ac-7803-a9ea-f3b4ad4ad678","654F5B6BC61541C582B2E957CEC59248-2025-08-28-02-39-32","","null","","[]","null","",""
"","","","","","image-button-response","110","586207","0.0-14.0-1.0-0.7","654F5B6BC61541C582B2E957CEC59248","654F5B6BC61541C582B2E957CEC59248","0198ee4c-b36e-7752-bd2e-b107944a07a6","0198ee3c-27ac-7803-a9ea-f3b4ad4ad678","{""num_scrambled_semantic"":""8"",""num_scrambled_causal"":""4"",""num_scrambled_schematic"":""4"",""participantId"":""654F5B6BC61541C582B2E957CEC59248"",""assignmentId"":""0198ee4c-b36e-7752-bd2e-b107944a07a6"",""projectId"":""0198ee3c-27ac-7803-a9ea-f3b4ad4ad678""}","https://test12345.live/?num_scrambled_semantic=8&num_scrambled_causal=4&num_scrambled_schematic=4&participantId=654F5B6BC61541C582B2E957CEC59248&assignmentId=0198ee4c-b36e-7752-bd2e-b107944a07a6&projectId=0198ee3c-27ac-7803-a9ea-f3b4ad4ad678","654F5B6BC61541C582B2E957CEC59248-2025-08-28-02-39-32","","null","","images/semantic_sequence/housework_semantic/housework_semantic_4.png","null","",""
"","","","","","image-button-response","111","587269","0.0-14.0-1.0-1.7","654F5B6BC61541C582B2E957CEC59248","654F5B6BC61541C582B2E957CEC59248","0198ee4c-b36e-7752-bd2e-b107944a07a6","0198ee3c-27ac-7803-a9ea-f3b4ad4ad678","{""num_scrambled_semantic"":""8"",""num_scrambled_causal"":""4"",""num_scrambled_schematic"":""4"",""participantId"":""654F5B6BC61541C582B2E957CEC59248"",""assignmentId"":""0198ee4c-b36e-7752-bd2e-b107944a07a6"",""projectId"":""0198ee3c-27ac-7803-a9ea-f3b4ad4ad678""}","https://test12345.live/?num_scrambled_semantic=8&num_scrambled_causal=4&num_scrambled_schematic=4&participantId=654F5B6BC61541C582B2E957CEC59248&assignmentId=0198ee4c-b36e-7752-bd2e-b107944a07a6&projectId=0198ee3c-27ac-7803-a9ea-f3b4ad4ad678","654F5B6BC61541C582B2E957CEC59248-2025-08-28-02-39-32","","1061","","images/semantic_sequence/housework_semantic/housework_semantic_4.png","0","",""
"","","","","","image-button-response","112","589077","0.0-14.0-1.0-2.7","654F5B6BC61541C582B2E957CEC59248","654F5B6BC61541C582B2E957CEC59248","0198ee4c-b36e-7752-bd2e-b107944a07a6","0198ee3c-27ac-7803-a9ea-f3b4ad4ad678","{""num_scrambled_semantic"":""8"",""num_scrambled_causal"":""4"",""num_scrambled_schematic"":""4"",""participantId"":""654F5B6BC61541C582B2E957CEC59248"",""assignmentId"":""0198ee4c-b36e-7752-bd2e-b107944a07a6"",""projectId"":""0198ee3c-27ac-7803-a9ea-f3b4ad4ad678""}","https://test12345.live/?num_scrambled_semantic=8&num_scrambled_causal=4&num_scrambled_schematic=4&participantId=654F5B6BC61541C582B2E957CEC59248&assignmentId=0198ee4c-b36e-7752-bd2e-b107944a07a6&projectId=0198ee3c-27ac-7803-a9ea-f3b4ad4ad678","654F5B6BC61541C582B2E957CEC59248-2025-08-28-02-39-32","","null","","[]","null","",""
"","","","","","image-button-response","113","593580","0.0-14.0-1.0-0.8","654F5B6BC61541C582B2E957CEC59248","654F5B6BC61541C582B2E957CEC59248","0198ee4c-b36e-7752-bd2e-b107944a07a6","0198ee3c-27ac-7803-a9ea-f3b4ad4ad678","{""num_scrambled_semantic"":""8"",""num_scrambled_causal"":""4"",""num_scrambled_schematic"":""4"",""participantId"":""654F5B6BC61541C582B2E957CEC59248"",""assignmentId"":""0198ee4c-b36e-7752-bd2e-b107944a07a6"",""projectId"":""0198ee3c-27ac-7803-a9ea-f3b4ad4ad678""}","https://test12345.live/?num_scrambled_semantic=8&num_scrambled_causal=4&num_scrambled_schematic=4&participantId=654F5B6BC61541C582B2E957CEC59248&assignmentId=0198ee4c-b36e-7752-bd2e-b107944a07a6&projectId=0198ee3c-27ac-7803-a9ea-f3b4ad4ad678","654F5B6BC61541C582B2E957CEC59248-2025-08-28-02-39-32","","null","","images/semantic_sequence/housework_semantic/housework_semantic_1.png","null","",""
