"success","timeout","failed_images","failed_audio","failed_video","trial_type","trial_index","time_elapsed","internal_node_id","subject","subject_id","study_id","session_id","urlvar","current_url","audio_id","view_history","rt","device_id","stimulus","response","estimated_stimulus_onset","seq_name"
"true","false","[]","[]","[]","preload","0","3324","0.0-0.0","65A833506FEC4D9E8CD4A26ABA06D2EA","65A833506FEC4D9E8CD4A26ABA06D2EA","bc14600e-df7e-4975-83bd-240777c53a68","6d972c12-ef4f-4967-baa7-815328c4c025","{""num_scrambled_semantic"":""8"",""num_scrambled_causal"":""4"",""num_scrambled_schematic"":""4"",""participantId"":""65A833506FEC4D9E8CD4A26ABA06D2EA"",""assignmentId"":""bc14600e-df7e-4975-83bd-240777c53a68"",""projectId"":""6d972c12-ef4f-4967-baa7-815328c4c025""}","https://test12345.live/?num_scrambled_semantic=8&num_scrambled_causal=4&num_scrambled_schematic=4&participantId=65A833506FEC4D9E8CD4A26ABA06D2EA&assignmentId=bc14600e-df7e-4975-83bd-240777c53a68&projectId=6d972c12-ef4f-4967-baa7-815328c4c025","65A833506FEC4D9E8CD4A26ABA06D2EA-2025-08-07-17-57-49","","","","","","",""
"","","","","","instructions","1","224160","0.0-1.0","65A833506FEC4D9E8CD4A26ABA06D2EA","65A833506FEC4D9E8CD4A26ABA06D2EA","bc14600e-df7e-4975-83bd-240777c53a68","6d972c12-ef4f-4967-baa7-815328c4c025","{""num_scrambled_semantic"":""8"",""num_scrambled_causal"":""4"",""num_scrambled_schematic"":""4"",""participantId"":""65A833506FEC4D9E8CD4A26ABA06D2EA"",""assignmentId"":""bc14600e-df7e-4975-83bd-240777c53a68"",""projectId"":""6d972c12-ef4f-4967-baa7-815328c4c025""}","https://test12345.live/?num_scrambled_semantic=8&num_scrambled_causal=4&num_scrambled_schematic=4&participantId=65A833506FEC4D9E8CD4A26ABA06D2EA&assignmentId=bc14600e-df7e-4975-83bd-240777c53a68&projectId=6d972c12-ef4f-4967-baa7-815328c4c025","65A833506FEC4D9E8CD4A26ABA06D2EA-2025-08-07-17-57-49","[{""page_index"":0,""viewing_time"":220837}]","220837","","","","",""
"","","","","","instructions","2","237092","0.0-2.0","65A833506FEC4D9E8CD4A26ABA06D2EA","65A833506FEC4D9E8CD4A26ABA06D2EA","bc14600e-df7e-4975-83bd-240777c53a68","6d972c12-ef4f-4967-baa7-815328c4c025","{""num_scrambled_semantic"":""8"",""num_scrambled_causal"":""4"",""num_scrambled_schematic"":""4"",""participantId"":""65A833506FEC4D9E8CD4A26ABA06D2EA"",""assignmentId"":""bc14600e-df7e-4975-83bd-240777c53a68"",""projectId"":""6d972c12-ef4f-4967-baa7-815328c4c025""}","https://test12345.live/?num_scrambled_semantic=8&num_scrambled_causal=4&num_scrambled_schematic=4&participantId=65A833506FEC4D9E8CD4A26ABA06D2EA&assignmentId=bc14600e-df7e-4975-83bd-240777c53a68&projectId=6d972c12-ef4f-4967-baa7-815328c4c025","65A833506FEC4D9E8CD4A26ABA06D2EA-2025-08-07-17-57-49","[{""page_index"":0,""viewing_time"":12931}]","12931","","","","",""
"true","","","","","fullscreen","3","239752","0.0-3.0","65A833506FEC4D9E8CD4A26ABA06D2EA","65A833506FEC4D9E8CD4A26ABA06D2EA","bc14600e-df7e-4975-83bd-240777c53a68","6d972c12-ef4f-4967-baa7-815328c4c025","{""num_scrambled_semantic"":""8"",""num_scrambled_causal"":""4"",""num_scrambled_schematic"":""4"",""participantId"":""65A833506FEC4D9E8CD4A26ABA06D2EA"",""assignmentId"":""bc14600e-df7e-4975-83bd-240777c53a68"",""projectId"":""6d972c12-ef4f-4967-baa7-815328c4c025""}","https://test12345.live/?num_scrambled_semantic=8&num_scrambled_causal=4&num_scrambled_schematic=4&participantId=65A833506FEC4D9E8CD4A26ABA06D2EA&assignmentId=bc14600e-df7e-4975-83bd-240777c53a68&projectId=6d972c12-ef4f-4967-baa7-815328c4c025","65A833506FEC4D9E8CD4A26ABA06D2EA-2025-08-07-17-57-49","","1657","","","","",""
"","","","","","initialize-microphone","4","252310","0.0-4.0-0.0","65A833506FEC4D9E8CD4A26ABA06D2EA","65A833506FEC4D9E8CD4A26ABA06D2EA","bc14600e-df7e-4975-83bd-240777c53a68","6d972c12-ef4f-4967-baa7-815328c4c025","{""num_scrambled_semantic"":""8"",""num_scrambled_causal"":""4"",""num_scrambled_schematic"":""4"",""participantId"":""65A833506FEC4D9E8CD4A26ABA06D2EA"",""assignmentId"":""bc14600e-df7e-4975-83bd-240777c53a68"",""projectId"":""6d972c12-ef4f-4967-baa7-815328c4c025""}","https://test12345.live/?num_scrambled_semantic=8&num_scrambled_causal=4&num_scrambled_schematic=4&participantId=65A833506FEC4D9E8CD4A26ABA06D2EA&assignmentId=bc14600e-df7e-4975-83bd-240777c53a68&projectId=6d972c12-ef4f-4967-baa7-815328c4c025","65A833506FEC4D9E8CD4A26ABA06D2EA-2025-08-07-17-57-49","","","8c3022c743aa35b439ebaf9920b5017c344e51961957fac8c02773b0a8d37159","","","",""
"","","","","","html-audio-response","5","261209","0.0-4.0-1.0","65A833506FEC4D9E8CD4A26ABA06D2EA","65A833506FEC4D9E8CD4A26ABA06D2EA","bc14600e-df7e-4975-83bd-240777c53a68","6d972c12-ef4f-4967-baa7-815328c4c025","{""num_scrambled_semantic"":""8"",""num_scrambled_causal"":""4"",""num_scrambled_schematic"":""4"",""participantId"":""65A833506FEC4D9E8CD4A26ABA06D2EA"",""assignmentId"":""bc14600e-df7e-4975-83bd-240777c53a68"",""projectId"":""6d972c12-ef4f-4967-baa7-815328c4c025""}","https://test12345.live/?num_scrambled_semantic=8&num_scrambled_causal=4&num_scrambled_schematic=4&participantId=65A833506FEC4D9E8CD4A26ABA06D2EA&assignmentId=bc14600e-df7e-4975-83bd-240777c53a68&projectId=6d972c12-ef4f-4967-baa7-815328c4c025","65A833506FEC4D9E8CD4A26ABA06D2EA-2025-08-07-17-57-49","","3838","","<span style=""color: red; font-size: 24px""> NOW RECORDING</span>
        <p>Please test Microphone</p>","","1",""
"","","","","","html-button-response","6","262247","0.0-4.0-2.0","65A833506FEC4D9E8CD4A26ABA06D2EA","65A833506FEC4D9E8CD4A26ABA06D2EA","bc14600e-df7e-4975-83bd-240777c53a68","6d972c12-ef4f-4967-baa7-815328c4c025","{""num_scrambled_semantic"":""8"",""num_scrambled_causal"":""4"",""num_scrambled_schematic"":""4"",""participantId"":""65A833506FEC4D9E8CD4A26ABA06D2EA"",""assignmentId"":""bc14600e-df7e-4975-83bd-240777c53a68"",""projectId"":""6d972c12-ef4f-4967-baa7-815328c4c025""}","https://test12345.live/?num_scrambled_semantic=8&num_scrambled_causal=4&num_scrambled_schematic=4&participantId=65A833506FEC4D9E8CD4A26ABA06D2EA&assignmentId=bc14600e-df7e-4975-83bd-240777c53a68&projectId=6d972c12-ef4f-4967-baa7-815328c4c025","65A833506FEC4D9E8CD4A26ABA06D2EA-2025-08-07-17-57-49","","1036","","<p style=""font-size:48px; color:red;"">Is Microphone OK?</p>","1","",""
"","","","","","instructions","7","275124","0.0-5.0","65A833506FEC4D9E8CD4A26ABA06D2EA","65A833506FEC4D9E8CD4A26ABA06D2EA","bc14600e-df7e-4975-83bd-240777c53a68","6d972c12-ef4f-4967-baa7-815328c4c025","{""num_scrambled_semantic"":""8"",""num_scrambled_causal"":""4"",""num_scrambled_schematic"":""4"",""participantId"":""65A833506FEC4D9E8CD4A26ABA06D2EA"",""assignmentId"":""bc14600e-df7e-4975-83bd-240777c53a68"",""projectId"":""6d972c12-ef4f-4967-baa7-815328c4c025""}","https://test12345.live/?num_scrambled_semantic=8&num_scrambled_causal=4&num_scrambled_schematic=4&participantId=65A833506FEC4D9E8CD4A26ABA06D2EA&assignmentId=bc14600e-df7e-4975-83bd-240777c53a68&projectId=6d972c12-ef4f-4967-baa7-815328c4c025","65A833506FEC4D9E8CD4A26ABA06D2EA-2025-08-07-17-57-49","[{""page_index"":0,""viewing_time"":5715},{""page_index"":1,""viewing_time"":7162}]","12877","","","","",""
"","","","","","image-button-response","8","281132","0.0-6.0-0.0","65A833506FEC4D9E8CD4A26ABA06D2EA","65A833506FEC4D9E8CD4A26ABA06D2EA","bc14600e-df7e-4975-83bd-240777c53a68","6d972c12-ef4f-4967-baa7-815328c4c025","{""num_scrambled_semantic"":""8"",""num_scrambled_causal"":""4"",""num_scrambled_schematic"":""4"",""participantId"":""65A833506FEC4D9E8CD4A26ABA06D2EA"",""assignmentId"":""bc14600e-df7e-4975-83bd-240777c53a68"",""projectId"":""6d972c12-ef4f-4967-baa7-815328c4c025""}","https://test12345.live/?num_scrambled_semantic=8&num_scrambled_causal=4&num_scrambled_schematic=4&participantId=65A833506FEC4D9E8CD4A26ABA06D2EA&assignmentId=bc14600e-df7e-4975-83bd-240777c53a68&projectId=6d972c12-ef4f-4967-baa7-815328c4c025","65A833506FEC4D9E8CD4A26ABA06D2EA-2025-08-07-17-57-49","","null","","images/instructions/movie_0.png","null","",""
"","","","","","image-button-response","9","285636","0.0-6.0-1.0-0.0","65A833506FEC4D9E8CD4A26ABA06D2EA","65A833506FEC4D9E8CD4A26ABA06D2EA","bc14600e-df7e-4975-83bd-240777c53a68","6d972c12-ef4f-4967-baa7-815328c4c025","{""num_scrambled_semantic"":""8"",""num_scrambled_causal"":""4"",""num_scrambled_schematic"":""4"",""participantId"":""65A833506FEC4D9E8CD4A26ABA06D2EA"",""assignmentId"":""bc14600e-df7e-4975-83bd-240777c53a68"",""projectId"":""6d972c12-ef4f-4967-baa7-815328c4c025""}","https://test12345.live/?num_scrambled_semantic=8&num_scrambled_causal=4&num_scrambled_schematic=4&participantId=65A833506FEC4D9E8CD4A26ABA06D2EA&assignmentId=bc14600e-df7e-4975-83bd-240777c53a68&projectId=6d972c12-ef4f-4967-baa7-815328c4c025","65A833506FEC4D9E8CD4A26ABA06D2EA-2025-08-07-17-57-49","","null","","images/instructions/movie_1.png","null","",""
"","","","","","image-button-response","10","289643","0.0-6.0-1.0-1.0","65A833506FEC4D9E8CD4A26ABA06D2EA","65A833506FEC4D9E8CD4A26ABA06D2EA","bc14600e-df7e-4975-83bd-240777c53a68","6d972c12-ef4f-4967-baa7-815328c4c025","{""num_scrambled_semantic"":""8"",""num_scrambled_causal"":""4"",""num_scrambled_schematic"":""4"",""participantId"":""65A833506FEC4D9E8CD4A26ABA06D2EA"",""assignmentId"":""bc14600e-df7e-4975-83bd-240777c53a68"",""projectId"":""6d972c12-ef4f-4967-baa7-815328c4c025""}","https://test12345.live/?num_scrambled_semantic=8&num_scrambled_causal=4&num_scrambled_schematic=4&participantId=65A833506FEC4D9E8CD4A26ABA06D2EA&assignmentId=bc14600e-df7e-4975-83bd-240777c53a68&projectId=6d972c12-ef4f-4967-baa7-815328c4c025","65A833506FEC4D9E8CD4A26ABA06D2EA-2025-08-07-17-57-49","","null","","images/instructions/movie_1.png","null","",""
"","","","","","image-button-response","11","291445","0.0-6.0-1.0-2.0","65A833506FEC4D9E8CD4A26ABA06D2EA","65A833506FEC4D9E8CD4A26ABA06D2EA","bc14600e-df7e-4975-83bd-240777c53a68","6d972c12-ef4f-4967-baa7-815328c4c025","{""num_scrambled_semantic"":""8"",""num_scrambled_causal"":""4"",""num_scrambled_schematic"":""4"",""participantId"":""65A833506FEC4D9E8CD4A26ABA06D2EA"",""assignmentId"":""bc14600e-df7e-4975-83bd-240777c53a68"",""projectId"":""6d972c12-ef4f-4967-baa7-815328c4c025""}","https://test12345.live/?num_scrambled_semantic=8&num_scrambled_causal=4&num_scrambled_schematic=4&participantId=65A833506FEC4D9E8CD4A26ABA06D2EA&assignmentId=bc14600e-df7e-4975-83bd-240777c53a68&projectId=6d972c12-ef4f-4967-baa7-815328c4c025","65A833506FEC4D9E8CD4A26ABA06D2EA-2025-08-07-17-57-49","","null","","[]","null","",""
"","","","","","image-button-response","12","295950","0.0-6.0-1.0-0.1","65A833506FEC4D9E8CD4A26ABA06D2EA","65A833506FEC4D9E8CD4A26ABA06D2EA","bc14600e-df7e-4975-83bd-240777c53a68","6d972c12-ef4f-4967-baa7-815328c4c025","{""num_scrambled_semantic"":""8"",""num_scrambled_causal"":""4"",""num_scrambled_schematic"":""4"",""participantId"":""65A833506FEC4D9E8CD4A26ABA06D2EA"",""assignmentId"":""bc14600e-df7e-4975-83bd-240777c53a68"",""projectId"":""6d972c12-ef4f-4967-baa7-815328c4c025""}","https://test12345.live/?num_scrambled_semantic=8&num_scrambled_causal=4&num_scrambled_schematic=4&participantId=65A833506FEC4D9E8CD4A26ABA06D2EA&assignmentId=bc14600e-df7e-4975-83bd-240777c53a68&projectId=6d972c12-ef4f-4967-baa7-815328c4c025","65A833506FEC4D9E8CD4A26ABA06D2EA-2025-08-07-17-57-49","","null","","images/instructions/movie_2.png","null","",""
"","","","","","image-button-response","13","299957","0.0-6.0-1.0-1.1","65A833506FEC4D9E8CD4A26ABA06D2EA","65A833506FEC4D9E8CD4A26ABA06D2EA","bc14600e-df7e-4975-83bd-240777c53a68","6d972c12-ef4f-4967-baa7-815328c4c025","{""num_scrambled_semantic"":""8"",""num_scrambled_causal"":""4"",""num_scrambled_schematic"":""4"",""participantId"":""65A833506FEC4D9E8CD4A26ABA06D2EA"",""assignmentId"":""bc14600e-df7e-4975-83bd-240777c53a68"",""projectId"":""6d972c12-ef4f-4967-baa7-815328c4c025""}","https://test12345.live/?num_scrambled_semantic=8&num_scrambled_causal=4&num_scrambled_schematic=4&participantId=65A833506FEC4D9E8CD4A26ABA06D2EA&assignmentId=bc14600e-df7e-4975-83bd-240777c53a68&projectId=6d972c12-ef4f-4967-baa7-815328c4c025","65A833506FEC4D9E8CD4A26ABA06D2EA-2025-08-07-17-57-49","","null","","images/instructions/movie_2.png","null","",""
"","","","","","image-button-response","14","301761","0.0-6.0-1.0-2.1","65A833506FEC4D9E8CD4A26ABA06D2EA","65A833506FEC4D9E8CD4A26ABA06D2EA","bc14600e-df7e-4975-83bd-240777c53a68","6d972c12-ef4f-4967-baa7-815328c4c025","{""num_scrambled_semantic"":""8"",""num_scrambled_causal"":""4"",""num_scrambled_schematic"":""4"",""participantId"":""65A833506FEC4D9E8CD4A26ABA06D2EA"",""assignmentId"":""bc14600e-df7e-4975-83bd-240777c53a68"",""projectId"":""6d972c12-ef4f-4967-baa7-815328c4c025""}","https://test12345.live/?num_scrambled_semantic=8&num_scrambled_causal=4&num_scrambled_schematic=4&participantId=65A833506FEC4D9E8CD4A26ABA06D2EA&assignmentId=bc14600e-df7e-4975-83bd-240777c53a68&projectId=6d972c12-ef4f-4967-baa7-815328c4c025","65A833506FEC4D9E8CD4A26ABA06D2EA-2025-08-07-17-57-49","","null","","[]","null","",""
"","","","","","image-button-response","15","306268","0.0-6.0-1.0-0.2","65A833506FEC4D9E8CD4A26ABA06D2EA","65A833506FEC4D9E8CD4A26ABA06D2EA","bc14600e-df7e-4975-83bd-240777c53a68","6d972c12-ef4f-4967-baa7-815328c4c025","{""num_scrambled_semantic"":""8"",""num_scrambled_causal"":""4"",""num_scrambled_schematic"":""4"",""participantId"":""65A833506FEC4D9E8CD4A26ABA06D2EA"",""assignmentId"":""bc14600e-df7e-4975-83bd-240777c53a68"",""projectId"":""6d972c12-ef4f-4967-baa7-815328c4c025""}","https://test12345.live/?num_scrambled_semantic=8&num_scrambled_causal=4&num_scrambled_schematic=4&participantId=65A833506FEC4D9E8CD4A26ABA06D2EA&assignmentId=bc14600e-df7e-4975-83bd-240777c53a68&projectId=6d972c12-ef4f-4967-baa7-815328c4c025","65A833506FEC4D9E8CD4A26ABA06D2EA-2025-08-07-17-57-49","","null","","images/instructions/movie_3.png","null","",""
"","","","","","image-button-response","16","310275","0.0-6.0-1.0-1.2","65A833506FEC4D9E8CD4A26ABA06D2EA","65A833506FEC4D9E8CD4A26ABA06D2EA","bc14600e-df7e-4975-83bd-240777c53a68","6d972c12-ef4f-4967-baa7-815328c4c025","{""num_scrambled_semantic"":""8"",""num_scrambled_causal"":""4"",""num_scrambled_schematic"":""4"",""participantId"":""65A833506FEC4D9E8CD4A26ABA06D2EA"",""assignmentId"":""bc14600e-df7e-4975-83bd-240777c53a68"",""projectId"":""6d972c12-ef4f-4967-baa7-815328c4c025""}","https://test12345.live/?num_scrambled_semantic=8&num_scrambled_causal=4&num_scrambled_schematic=4&participantId=65A833506FEC4D9E8CD4A26ABA06D2EA&assignmentId=bc14600e-df7e-4975-83bd-240777c53a68&projectId=6d972c12-ef4f-4967-baa7-815328c4c025","65A833506FEC4D9E8CD4A26ABA06D2EA-2025-08-07-17-57-49","","null","","images/instructions/movie_3.png","null","",""
"","","","","","image-button-response","17","312082","0.0-6.0-1.0-2.2","65A833506FEC4D9E8CD4A26ABA06D2EA","65A833506FEC4D9E8CD4A26ABA06D2EA","bc14600e-df7e-4975-83bd-240777c53a68","6d972c12-ef4f-4967-baa7-815328c4c025","{""num_scrambled_semantic"":""8"",""num_scrambled_causal"":""4"",""num_scrambled_schematic"":""4"",""participantId"":""65A833506FEC4D9E8CD4A26ABA06D2EA"",""assignmentId"":""bc14600e-df7e-4975-83bd-240777c53a68"",""projectId"":""6d972c12-ef4f-4967-baa7-815328c4c025""}","https://test12345.live/?num_scrambled_semantic=8&num_scrambled_causal=4&num_scrambled_schematic=4&participantId=65A833506FEC4D9E8CD4A26ABA06D2EA&assignmentId=bc14600e-df7e-4975-83bd-240777c53a68&projectId=6d972c12-ef4f-4967-baa7-815328c4c025","65A833506FEC4D9E8CD4A26ABA06D2EA-2025-08-07-17-57-49","","null","","[]","null","",""
"","","","","","image-button-response","18","316587","0.0-6.0-1.0-0.3","65A833506FEC4D9E8CD4A26ABA06D2EA","65A833506FEC4D9E8CD4A26ABA06D2EA","bc14600e-df7e-4975-83bd-240777c53a68","6d972c12-ef4f-4967-baa7-815328c4c025","{""num_scrambled_semantic"":""8"",""num_scrambled_causal"":""4"",""num_scrambled_schematic"":""4"",""participantId"":""65A833506FEC4D9E8CD4A26ABA06D2EA"",""assignmentId"":""bc14600e-df7e-4975-83bd-240777c53a68"",""projectId"":""6d972c12-ef4f-4967-baa7-815328c4c025""}","https://test12345.live/?num_scrambled_semantic=8&num_scrambled_causal=4&num_scrambled_schematic=4&participantId=65A833506FEC4D9E8CD4A26ABA06D2EA&assignmentId=bc14600e-df7e-4975-83bd-240777c53a68&projectId=6d972c12-ef4f-4967-baa7-815328c4c025","65A833506FEC4D9E8CD4A26ABA06D2EA-2025-08-07-17-57-49","","null","","images/instructions/movie_4.png","null","",""
"","","","","","image-button-response","19","320594","0.0-6.0-1.0-1.3","65A833506FEC4D9E8CD4A26ABA06D2EA","65A833506FEC4D9E8CD4A26ABA06D2EA","bc14600e-df7e-4975-83bd-240777c53a68","6d972c12-ef4f-4967-baa7-815328c4c025","{""num_scrambled_semantic"":""8"",""num_scrambled_causal"":""4"",""num_scrambled_schematic"":""4"",""participantId"":""65A833506FEC4D9E8CD4A26ABA06D2EA"",""assignmentId"":""bc14600e-df7e-4975-83bd-240777c53a68"",""projectId"":""6d972c12-ef4f-4967-baa7-815328c4c025""}","https://test12345.live/?num_scrambled_semantic=8&num_scrambled_causal=4&num_scrambled_schematic=4&participantId=65A833506FEC4D9E8CD4A26ABA06D2EA&assignmentId=bc14600e-df7e-4975-83bd-240777c53a68&projectId=6d972c12-ef4f-4967-baa7-815328c4c025","65A833506FEC4D9E8CD4A26ABA06D2EA-2025-08-07-17-57-49","","null","","images/instructions/movie_4.png","null","",""
"","","","","","image-button-response","20","322400","0.0-6.0-1.0-2.3","65A833506FEC4D9E8CD4A26ABA06D2EA","65A833506FEC4D9E8CD4A26ABA06D2EA","bc14600e-df7e-4975-83bd-240777c53a68","6d972c12-ef4f-4967-baa7-815328c4c025","{""num_scrambled_semantic"":""8"",""num_scrambled_causal"":""4"",""num_scrambled_schematic"":""4"",""participantId"":""65A833506FEC4D9E8CD4A26ABA06D2EA"",""assignmentId"":""bc14600e-df7e-4975-83bd-240777c53a68"",""projectId"":""6d972c12-ef4f-4967-baa7-815328c4c025""}","https://test12345.live/?num_scrambled_semantic=8&num_scrambled_causal=4&num_scrambled_schematic=4&participantId=65A833506FEC4D9E8CD4A26ABA06D2EA&assignmentId=bc14600e-df7e-4975-83bd-240777c53a68&projectId=6d972c12-ef4f-4967-baa7-815328c4c025","65A833506FEC4D9E8CD4A26ABA06D2EA-2025-08-07-17-57-49","","null","","[]","null","",""
"","","","","","instructions","21","333410","0.0-7.0","65A833506FEC4D9E8CD4A26ABA06D2EA","65A833506FEC4D9E8CD4A26ABA06D2EA","bc14600e-df7e-4975-83bd-240777c53a68","6d972c12-ef4f-4967-baa7-815328c4c025","{""num_scrambled_semantic"":""8"",""num_scrambled_causal"":""4"",""num_scrambled_schematic"":""4"",""participantId"":""65A833506FEC4D9E8CD4A26ABA06D2EA"",""assignmentId"":""bc14600e-df7e-4975-83bd-240777c53a68"",""projectId"":""6d972c12-ef4f-4967-baa7-815328c4c025""}","https://test12345.live/?num_scrambled_semantic=8&num_scrambled_causal=4&num_scrambled_schematic=4&participantId=65A833506FEC4D9E8CD4A26ABA06D2EA&assignmentId=bc14600e-df7e-4975-83bd-240777c53a68&projectId=6d972c12-ef4f-4967-baa7-815328c4c025","65A833506FEC4D9E8CD4A26ABA06D2EA-2025-08-07-17-57-49","[{""page_index"":0,""viewing_time"":9772},{""page_index"":1,""viewing_time"":1237}]","11010","","","","",""
"","","","","","html-audio-response","22","364675","0.0-8.0","65A833506FEC4D9E8CD4A26ABA06D2EA","65A833506FEC4D9E8CD4A26ABA06D2EA","bc14600e-df7e-4975-83bd-240777c53a68","6d972c12-ef4f-4967-baa7-815328c4c025","{""num_scrambled_semantic"":""8"",""num_scrambled_causal"":""4"",""num_scrambled_schematic"":""4"",""participantId"":""65A833506FEC4D9E8CD4A26ABA06D2EA"",""assignmentId"":""bc14600e-df7e-4975-83bd-240777c53a68"",""projectId"":""6d972c12-ef4f-4967-baa7-815328c4c025""}","https://test12345.live/?num_scrambled_semantic=8&num_scrambled_causal=4&num_scrambled_schematic=4&participantId=65A833506FEC4D9E8CD4A26ABA06D2EA&assignmentId=bc14600e-df7e-4975-83bd-240777c53a68&projectId=6d972c12-ef4f-4967-baa7-815328c4c025","65A833506FEC4D9E8CD4A26ABA06D2EA-2025-08-07-17-57-49","","20439","","[""<span style=\""color: red; font-size: 24px\""> NOW RECORDING</span><p>Please say out loud all the images you saw in the exact order you saw them. Try to recall as many images as you can, but remember: getting the order right is more important than the number of images you recall.</p>""]","","2",""
"","","","","","instructions","23","369215","0.0-9.0","65A833506FEC4D9E8CD4A26ABA06D2EA","65A833506FEC4D9E8CD4A26ABA06D2EA","bc14600e-df7e-4975-83bd-240777c53a68","6d972c12-ef4f-4967-baa7-815328c4c025","{""num_scrambled_semantic"":""8"",""num_scrambled_causal"":""4"",""num_scrambled_schematic"":""4"",""participantId"":""65A833506FEC4D9E8CD4A26ABA06D2EA"",""assignmentId"":""bc14600e-df7e-4975-83bd-240777c53a68"",""projectId"":""6d972c12-ef4f-4967-baa7-815328c4c025""}","https://test12345.live/?num_scrambled_semantic=8&num_scrambled_causal=4&num_scrambled_schematic=4&participantId=65A833506FEC4D9E8CD4A26ABA06D2EA&assignmentId=bc14600e-df7e-4975-83bd-240777c53a68&projectId=6d972c12-ef4f-4967-baa7-815328c4c025","65A833506FEC4D9E8CD4A26ABA06D2EA-2025-08-07-17-57-49","[{""page_index"":0,""viewing_time"":4538}]","4538","","","","",""
"","","","","","image-button-response","24","375220","0.0-10.0-0.0","65A833506FEC4D9E8CD4A26ABA06D2EA","65A833506FEC4D9E8CD4A26ABA06D2EA","bc14600e-df7e-4975-83bd-240777c53a68","6d972c12-ef4f-4967-baa7-815328c4c025","{""num_scrambled_semantic"":""8"",""num_scrambled_causal"":""4"",""num_scrambled_schematic"":""4"",""participantId"":""65A833506FEC4D9E8CD4A26ABA06D2EA"",""assignmentId"":""bc14600e-df7e-4975-83bd-240777c53a68"",""projectId"":""6d972c12-ef4f-4967-baa7-815328c4c025""}","https://test12345.live/?num_scrambled_semantic=8&num_scrambled_causal=4&num_scrambled_schematic=4&participantId=65A833506FEC4D9E8CD4A26ABA06D2EA&assignmentId=bc14600e-df7e-4975-83bd-240777c53a68&projectId=6d972c12-ef4f-4967-baa7-815328c4c025","65A833506FEC4D9E8CD4A26ABA06D2EA-2025-08-07-17-57-49","","null","","images/causal_sequence/package_causal/package_causal_0.png","null","",""
"","","","","","image-button-response","25","379727","0.0-10.0-1.0-0.0","65A833506FEC4D9E8CD4A26ABA06D2EA","65A833506FEC4D9E8CD4A26ABA06D2EA","bc14600e-df7e-4975-83bd-240777c53a68","6d972c12-ef4f-4967-baa7-815328c4c025","{""num_scrambled_semantic"":""8"",""num_scrambled_causal"":""4"",""num_scrambled_schematic"":""4"",""participantId"":""65A833506FEC4D9E8CD4A26ABA06D2EA"",""assignmentId"":""bc14600e-df7e-4975-83bd-240777c53a68"",""projectId"":""6d972c12-ef4f-4967-baa7-815328c4c025""}","https://test12345.live/?num_scrambled_semantic=8&num_scrambled_causal=4&num_scrambled_schematic=4&participantId=65A833506FEC4D9E8CD4A26ABA06D2EA&assignmentId=bc14600e-df7e-4975-83bd-240777c53a68&projectId=6d972c12-ef4f-4967-baa7-815328c4c025","65A833506FEC4D9E8CD4A26ABA06D2EA-2025-08-07-17-57-49","","null","","images/causal_sequence/package_causal/package_causal_1.png","null","",""
"","","","","","image-button-response","26","383734","0.0-10.0-1.0-1.0","65A833506FEC4D9E8CD4A26ABA06D2EA","65A833506FEC4D9E8CD4A26ABA06D2EA","bc14600e-df7e-4975-83bd-240777c53a68","6d972c12-ef4f-4967-baa7-815328c4c025","{""num_scrambled_semantic"":""8"",""num_scrambled_causal"":""4"",""num_scrambled_schematic"":""4"",""participantId"":""65A833506FEC4D9E8CD4A26ABA06D2EA"",""assignmentId"":""bc14600e-df7e-4975-83bd-240777c53a68"",""projectId"":""6d972c12-ef4f-4967-baa7-815328c4c025""}","https://test12345.live/?num_scrambled_semantic=8&num_scrambled_causal=4&num_scrambled_schematic=4&participantId=65A833506FEC4D9E8CD4A26ABA06D2EA&assignmentId=bc14600e-df7e-4975-83bd-240777c53a68&projectId=6d972c12-ef4f-4967-baa7-815328c4c025","65A833506FEC4D9E8CD4A26ABA06D2EA-2025-08-07-17-57-49","","null","","images/causal_sequence/package_causal/package_causal_1.png","null","",""
"","","","","","image-button-response","27","385538","0.0-10.0-1.0-2.0","65A833506FEC4D9E8CD4A26ABA06D2EA","65A833506FEC4D9E8CD4A26ABA06D2EA","bc14600e-df7e-4975-83bd-240777c53a68","6d972c12-ef4f-4967-baa7-815328c4c025","{""num_scrambled_semantic"":""8"",""num_scrambled_causal"":""4"",""num_scrambled_schematic"":""4"",""participantId"":""65A833506FEC4D9E8CD4A26ABA06D2EA"",""assignmentId"":""bc14600e-df7e-4975-83bd-240777c53a68"",""projectId"":""6d972c12-ef4f-4967-baa7-815328c4c025""}","https://test12345.live/?num_scrambled_semantic=8&num_scrambled_causal=4&num_scrambled_schematic=4&participantId=65A833506FEC4D9E8CD4A26ABA06D2EA&assignmentId=bc14600e-df7e-4975-83bd-240777c53a68&projectId=6d972c12-ef4f-4967-baa7-815328c4c025","65A833506FEC4D9E8CD4A26ABA06D2EA-2025-08-07-17-57-49","","null","","[]","null","",""
"","","","","","image-button-response","28","390040","0.0-10.0-1.0-0.1","65A833506FEC4D9E8CD4A26ABA06D2EA","65A833506FEC4D9E8CD4A26ABA06D2EA","bc14600e-df7e-4975-83bd-240777c53a68","6d972c12-ef4f-4967-baa7-815328c4c025","{""num_scrambled_semantic"":""8"",""num_scrambled_causal"":""4"",""num_scrambled_schematic"":""4"",""participantId"":""65A833506FEC4D9E8CD4A26ABA06D2EA"",""assignmentId"":""bc14600e-df7e-4975-83bd-240777c53a68"",""projectId"":""6d972c12-ef4f-4967-baa7-815328c4c025""}","https://test12345.live/?num_scrambled_semantic=8&num_scrambled_causal=4&num_scrambled_schematic=4&participantId=65A833506FEC4D9E8CD4A26ABA06D2EA&assignmentId=bc14600e-df7e-4975-83bd-240777c53a68&projectId=6d972c12-ef4f-4967-baa7-815328c4c025","65A833506FEC4D9E8CD4A26ABA06D2EA-2025-08-07-17-57-49","","null","","images/causal_sequence/package_causal/package_causal_2.png","null","",""
"","","","","","image-button-response","29","394044","0.0-10.0-1.0-1.1","65A833506FEC4D9E8CD4A26ABA06D2EA","65A833506FEC4D9E8CD4A26ABA06D2EA","bc14600e-df7e-4975-83bd-240777c53a68","6d972c12-ef4f-4967-baa7-815328c4c025","{""num_scrambled_semantic"":""8"",""num_scrambled_causal"":""4"",""num_scrambled_schematic"":""4"",""participantId"":""65A833506FEC4D9E8CD4A26ABA06D2EA"",""assignmentId"":""bc14600e-df7e-4975-83bd-240777c53a68"",""projectId"":""6d972c12-ef4f-4967-baa7-815328c4c025""}","https://test12345.live/?num_scrambled_semantic=8&num_scrambled_causal=4&num_scrambled_schematic=4&participantId=65A833506FEC4D9E8CD4A26ABA06D2EA&assignmentId=bc14600e-df7e-4975-83bd-240777c53a68&projectId=6d972c12-ef4f-4967-baa7-815328c4c025","65A833506FEC4D9E8CD4A26ABA06D2EA-2025-08-07-17-57-49","","null","","images/causal_sequence/package_causal/package_causal_2.png","null","",""
"","","","","","image-button-response","30","395850","0.0-10.0-1.0-2.1","65A833506FEC4D9E8CD4A26ABA06D2EA","65A833506FEC4D9E8CD4A26ABA06D2EA","bc14600e-df7e-4975-83bd-240777c53a68","6d972c12-ef4f-4967-baa7-815328c4c025","{""num_scrambled_semantic"":""8"",""num_scrambled_causal"":""4"",""num_scrambled_schematic"":""4"",""participantId"":""65A833506FEC4D9E8CD4A26ABA06D2EA"",""assignmentId"":""bc14600e-df7e-4975-83bd-240777c53a68"",""projectId"":""6d972c12-ef4f-4967-baa7-815328c4c025""}","https://test12345.live/?num_scrambled_semantic=8&num_scrambled_causal=4&num_scrambled_schematic=4&participantId=65A833506FEC4D9E8CD4A26ABA06D2EA&assignmentId=bc14600e-df7e-4975-83bd-240777c53a68&projectId=6d972c12-ef4f-4967-baa7-815328c4c025","65A833506FEC4D9E8CD4A26ABA06D2EA-2025-08-07-17-57-49","","null","","[]","null","",""
"","","","","","image-button-response","31","400357","0.0-10.0-1.0-0.2","65A833506FEC4D9E8CD4A26ABA06D2EA","65A833506FEC4D9E8CD4A26ABA06D2EA","bc14600e-df7e-4975-83bd-240777c53a68","6d972c12-ef4f-4967-baa7-815328c4c025","{""num_scrambled_semantic"":""8"",""num_scrambled_causal"":""4"",""num_scrambled_schematic"":""4"",""participantId"":""65A833506FEC4D9E8CD4A26ABA06D2EA"",""assignmentId"":""bc14600e-df7e-4975-83bd-240777c53a68"",""projectId"":""6d972c12-ef4f-4967-baa7-815328c4c025""}","https://test12345.live/?num_scrambled_semantic=8&num_scrambled_causal=4&num_scrambled_schematic=4&participantId=65A833506FEC4D9E8CD4A26ABA06D2EA&assignmentId=bc14600e-df7e-4975-83bd-240777c53a68&projectId=6d972c12-ef4f-4967-baa7-815328c4c025","65A833506FEC4D9E8CD4A26ABA06D2EA-2025-08-07-17-57-49","","null","","images/causal_sequence/package_causal/package_causal_3.png","null","",""
"","","","","","image-button-response","32","404362","0.0-10.0-1.0-1.2","65A833506FEC4D9E8CD4A26ABA06D2EA","65A833506FEC4D9E8CD4A26ABA06D2EA","bc14600e-df7e-4975-83bd-240777c53a68","6d972c12-ef4f-4967-baa7-815328c4c025","{""num_scrambled_semantic"":""8"",""num_scrambled_causal"":""4"",""num_scrambled_schematic"":""4"",""participantId"":""65A833506FEC4D9E8CD4A26ABA06D2EA"",""assignmentId"":""bc14600e-df7e-4975-83bd-240777c53a68"",""projectId"":""6d972c12-ef4f-4967-baa7-815328c4c025""}","https://test12345.live/?num_scrambled_semantic=8&num_scrambled_causal=4&num_scrambled_schematic=4&participantId=65A833506FEC4D9E8CD4A26ABA06D2EA&assignmentId=bc14600e-df7e-4975-83bd-240777c53a68&projectId=6d972c12-ef4f-4967-baa7-815328c4c025","65A833506FEC4D9E8CD4A26ABA06D2EA-2025-08-07-17-57-49","","null","","images/causal_sequence/package_causal/package_causal_3.png","null","",""
"","","","","","image-button-response","33","406166","0.0-10.0-1.0-2.2","65A833506FEC4D9E8CD4A26ABA06D2EA","65A833506FEC4D9E8CD4A26ABA06D2EA","bc14600e-df7e-4975-83bd-240777c53a68","6d972c12-ef4f-4967-baa7-815328c4c025","{""num_scrambled_semantic"":""8"",""num_scrambled_causal"":""4"",""num_scrambled_schematic"":""4"",""participantId"":""65A833506FEC4D9E8CD4A26ABA06D2EA"",""assignmentId"":""bc14600e-df7e-4975-83bd-240777c53a68"",""projectId"":""6d972c12-ef4f-4967-baa7-815328c4c025""}","https://test12345.live/?num_scrambled_semantic=8&num_scrambled_causal=4&num_scrambled_schematic=4&participantId=65A833506FEC4D9E8CD4A26ABA06D2EA&assignmentId=bc14600e-df7e-4975-83bd-240777c53a68&projectId=6d972c12-ef4f-4967-baa7-815328c4c025","65A833506FEC4D9E8CD4A26ABA06D2EA-2025-08-07-17-57-49","","null","","[]","null","",""
"","","","","","image-button-response","34","410672","0.0-10.0-1.0-0.3","65A833506FEC4D9E8CD4A26ABA06D2EA","65A833506FEC4D9E8CD4A26ABA06D2EA","bc14600e-df7e-4975-83bd-240777c53a68","6d972c12-ef4f-4967-baa7-815328c4c025","{""num_scrambled_semantic"":""8"",""num_scrambled_causal"":""4"",""num_scrambled_schematic"":""4"",""participantId"":""65A833506FEC4D9E8CD4A26ABA06D2EA"",""assignmentId"":""bc14600e-df7e-4975-83bd-240777c53a68"",""projectId"":""6d972c12-ef4f-4967-baa7-815328c4c025""}","https://test12345.live/?num_scrambled_semantic=8&num_scrambled_causal=4&num_scrambled_schematic=4&participantId=65A833506FEC4D9E8CD4A26ABA06D2EA&assignmentId=bc14600e-df7e-4975-83bd-240777c53a68&projectId=6d972c12-ef4f-4967-baa7-815328c4c025","65A833506FEC4D9E8CD4A26ABA06D2EA-2025-08-07-17-57-49","","null","","images/causal_sequence/package_causal/package_causal_4.png","null","",""
"","","","","","image-button-response","35","414676","0.0-10.0-1.0-1.3","65A833506FEC4D9E8CD4A26ABA06D2EA","65A833506FEC4D9E8CD4A26ABA06D2EA","bc14600e-df7e-4975-83bd-240777c53a68","6d972c12-ef4f-4967-baa7-815328c4c025","{""num_scrambled_semantic"":""8"",""num_scrambled_causal"":""4"",""num_scrambled_schematic"":""4"",""participantId"":""65A833506FEC4D9E8CD4A26ABA06D2EA"",""assignmentId"":""bc14600e-df7e-4975-83bd-240777c53a68"",""projectId"":""6d972c12-ef4f-4967-baa7-815328c4c025""}","https://test12345.live/?num_scrambled_semantic=8&num_scrambled_causal=4&num_scrambled_schematic=4&participantId=65A833506FEC4D9E8CD4A26ABA06D2EA&assignmentId=bc14600e-df7e-4975-83bd-240777c53a68&projectId=6d972c12-ef4f-4967-baa7-815328c4c025","65A833506FEC4D9E8CD4A26ABA06D2EA-2025-08-07-17-57-49","","null","","images/causal_sequence/package_causal/package_causal_4.png","null","",""
"","","","","","image-button-response","36","416482","0.0-10.0-1.0-2.3","65A833506FEC4D9E8CD4A26ABA06D2EA","65A833506FEC4D9E8CD4A26ABA06D2EA","bc14600e-df7e-4975-83bd-240777c53a68","6d972c12-ef4f-4967-baa7-815328c4c025","{""num_scrambled_semantic"":""8"",""num_scrambled_causal"":""4"",""num_scrambled_schematic"":""4"",""participantId"":""65A833506FEC4D9E8CD4A26ABA06D2EA"",""assignmentId"":""bc14600e-df7e-4975-83bd-240777c53a68"",""projectId"":""6d972c12-ef4f-4967-baa7-815328c4c025""}","https://test12345.live/?num_scrambled_semantic=8&num_scrambled_causal=4&num_scrambled_schematic=4&participantId=65A833506FEC4D9E8CD4A26ABA06D2EA&assignmentId=bc14600e-df7e-4975-83bd-240777c53a68&projectId=6d972c12-ef4f-4967-baa7-815328c4c025","65A833506FEC4D9E8CD4A26ABA06D2EA-2025-08-07-17-57-49","","null","","[]","null","",""
"","","","","","image-button-response","37","420989","0.0-10.0-1.0-0.4","65A833506FEC4D9E8CD4A26ABA06D2EA","65A833506FEC4D9E8CD4A26ABA06D2EA","bc14600e-df7e-4975-83bd-240777c53a68","6d972c12-ef4f-4967-baa7-815328c4c025","{""num_scrambled_semantic"":""8"",""num_scrambled_causal"":""4"",""num_scrambled_schematic"":""4"",""participantId"":""65A833506FEC4D9E8CD4A26ABA06D2EA"",""assignmentId"":""bc14600e-df7e-4975-83bd-240777c53a68"",""projectId"":""6d972c12-ef4f-4967-baa7-815328c4c025""}","https://test12345.live/?num_scrambled_semantic=8&num_scrambled_causal=4&num_scrambled_schematic=4&participantId=65A833506FEC4D9E8CD4A26ABA06D2EA&assignmentId=bc14600e-df7e-4975-83bd-240777c53a68&projectId=6d972c12-ef4f-4967-baa7-815328c4c025","65A833506FEC4D9E8CD4A26ABA06D2EA-2025-08-07-17-57-49","","null","","images/causal_sequence/package_causal/package_causal_5.png","null","",""
"","","","","","image-button-response","38","424996","0.0-10.0-1.0-1.4","65A833506FEC4D9E8CD4A26ABA06D2EA","65A833506FEC4D9E8CD4A26ABA06D2EA","bc14600e-df7e-4975-83bd-240777c53a68","6d972c12-ef4f-4967-baa7-815328c4c025","{""num_scrambled_semantic"":""8"",""num_scrambled_causal"":""4"",""num_scrambled_schematic"":""4"",""participantId"":""65A833506FEC4D9E8CD4A26ABA06D2EA"",""assignmentId"":""bc14600e-df7e-4975-83bd-240777c53a68"",""projectId"":""6d972c12-ef4f-4967-baa7-815328c4c025""}","https://test12345.live/?num_scrambled_semantic=8&num_scrambled_causal=4&num_scrambled_schematic=4&participantId=65A833506FEC4D9E8CD4A26ABA06D2EA&assignmentId=bc14600e-df7e-4975-83bd-240777c53a68&projectId=6d972c12-ef4f-4967-baa7-815328c4c025","65A833506FEC4D9E8CD4A26ABA06D2EA-2025-08-07-17-57-49","","null","","images/causal_sequence/package_causal/package_causal_5.png","null","",""
"","","","","","image-button-response","39","426803","0.0-10.0-1.0-2.4","65A833506FEC4D9E8CD4A26ABA06D2EA","65A833506FEC4D9E8CD4A26ABA06D2EA","bc14600e-df7e-4975-83bd-240777c53a68","6d972c12-ef4f-4967-baa7-815328c4c025","{""num_scrambled_semantic"":""8"",""num_scrambled_causal"":""4"",""num_scrambled_schematic"":""4"",""participantId"":""65A833506FEC4D9E8CD4A26ABA06D2EA"",""assignmentId"":""bc14600e-df7e-4975-83bd-240777c53a68"",""projectId"":""6d972c12-ef4f-4967-baa7-815328c4c025""}","https://test12345.live/?num_scrambled_semantic=8&num_scrambled_causal=4&num_scrambled_schematic=4&participantId=65A833506FEC4D9E8CD4A26ABA06D2EA&assignmentId=bc14600e-df7e-4975-83bd-240777c53a68&projectId=6d972c12-ef4f-4967-baa7-815328c4c025","65A833506FEC4D9E8CD4A26ABA06D2EA-2025-08-07-17-57-49","","null","","[]","null","",""
"","","","","","image-button-response","40","431306","0.0-10.0-1.0-0.5","65A833506FEC4D9E8CD4A26ABA06D2EA","65A833506FEC4D9E8CD4A26ABA06D2EA","bc14600e-df7e-4975-83bd-240777c53a68","6d972c12-ef4f-4967-baa7-815328c4c025","{""num_scrambled_semantic"":""8"",""num_scrambled_causal"":""4"",""num_scrambled_schematic"":""4"",""participantId"":""65A833506FEC4D9E8CD4A26ABA06D2EA"",""assignmentId"":""bc14600e-df7e-4975-83bd-240777c53a68"",""projectId"":""6d972c12-ef4f-4967-baa7-815328c4c025""}","https://test12345.live/?num_scrambled_semantic=8&num_scrambled_causal=4&num_scrambled_schematic=4&participantId=65A833506FEC4D9E8CD4A26ABA06D2EA&assignmentId=bc14600e-df7e-4975-83bd-240777c53a68&projectId=6d972c12-ef4f-4967-baa7-815328c4c025","65A833506FEC4D9E8CD4A26ABA06D2EA-2025-08-07-17-57-49","","null","","images/causal_sequence/package_causal/package_causal_6.png","null","",""
"","","","","","image-button-response","41","435309","0.0-10.0-1.0-1.5","65A833506FEC4D9E8CD4A26ABA06D2EA","65A833506FEC4D9E8CD4A26ABA06D2EA","bc14600e-df7e-4975-83bd-240777c53a68","6d972c12-ef4f-4967-baa7-815328c4c025","{""num_scrambled_semantic"":""8"",""num_scrambled_causal"":""4"",""num_scrambled_schematic"":""4"",""participantId"":""65A833506FEC4D9E8CD4A26ABA06D2EA"",""assignmentId"":""bc14600e-df7e-4975-83bd-240777c53a68"",""projectId"":""6d972c12-ef4f-4967-baa7-815328c4c025""}","https://test12345.live/?num_scrambled_semantic=8&num_scrambled_causal=4&num_scrambled_schematic=4&participantId=65A833506FEC4D9E8CD4A26ABA06D2EA&assignmentId=bc14600e-df7e-4975-83bd-240777c53a68&projectId=6d972c12-ef4f-4967-baa7-815328c4c025","65A833506FEC4D9E8CD4A26ABA06D2EA-2025-08-07-17-57-49","","null","","images/causal_sequence/package_causal/package_causal_6.png","null","",""
"","","","","","image-button-response","42","437114","0.0-10.0-1.0-2.5","65A833506FEC4D9E8CD4A26ABA06D2EA","65A833506FEC4D9E8CD4A26ABA06D2EA","bc14600e-df7e-4975-83bd-240777c53a68","6d972c12-ef4f-4967-baa7-815328c4c025","{""num_scrambled_semantic"":""8"",""num_scrambled_causal"":""4"",""num_scrambled_schematic"":""4"",""participantId"":""65A833506FEC4D9E8CD4A26ABA06D2EA"",""assignmentId"":""bc14600e-df7e-4975-83bd-240777c53a68"",""projectId"":""6d972c12-ef4f-4967-baa7-815328c4c025""}","https://test12345.live/?num_scrambled_semantic=8&num_scrambled_causal=4&num_scrambled_schematic=4&participantId=65A833506FEC4D9E8CD4A26ABA06D2EA&assignmentId=bc14600e-df7e-4975-83bd-240777c53a68&projectId=6d972c12-ef4f-4967-baa7-815328c4c025","65A833506FEC4D9E8CD4A26ABA06D2EA-2025-08-07-17-57-49","","null","","[]","null","",""
"","","","","","image-button-response","43","441619","0.0-10.0-1.0-0.6","65A833506FEC4D9E8CD4A26ABA06D2EA","65A833506FEC4D9E8CD4A26ABA06D2EA","bc14600e-df7e-4975-83bd-240777c53a68","6d972c12-ef4f-4967-baa7-815328c4c025","{""num_scrambled_semantic"":""8"",""num_scrambled_causal"":""4"",""num_scrambled_schematic"":""4"",""participantId"":""65A833506FEC4D9E8CD4A26ABA06D2EA"",""assignmentId"":""bc14600e-df7e-4975-83bd-240777c53a68"",""projectId"":""6d972c12-ef4f-4967-baa7-815328c4c025""}","https://test12345.live/?num_scrambled_semantic=8&num_scrambled_causal=4&num_scrambled_schematic=4&participantId=65A833506FEC4D9E8CD4A26ABA06D2EA&assignmentId=bc14600e-df7e-4975-83bd-240777c53a68&projectId=6d972c12-ef4f-4967-baa7-815328c4c025","65A833506FEC4D9E8CD4A26ABA06D2EA-2025-08-07-17-57-49","","null","","images/causal_sequence/package_causal/package_causal_7.png","null","",""
"","","","","","image-button-response","44","445623","0.0-10.0-1.0-1.6","65A833506FEC4D9E8CD4A26ABA06D2EA","65A833506FEC4D9E8CD4A26ABA06D2EA","bc14600e-df7e-4975-83bd-240777c53a68","6d972c12-ef4f-4967-baa7-815328c4c025","{""num_scrambled_semantic"":""8"",""num_scrambled_causal"":""4"",""num_scrambled_schematic"":""4"",""participantId"":""65A833506FEC4D9E8CD4A26ABA06D2EA"",""assignmentId"":""bc14600e-df7e-4975-83bd-240777c53a68"",""projectId"":""6d972c12-ef4f-4967-baa7-815328c4c025""}","https://test12345.live/?num_scrambled_semantic=8&num_scrambled_causal=4&num_scrambled_schematic=4&participantId=65A833506FEC4D9E8CD4A26ABA06D2EA&assignmentId=bc14600e-df7e-4975-83bd-240777c53a68&projectId=6d972c12-ef4f-4967-baa7-815328c4c025","65A833506FEC4D9E8CD4A26ABA06D2EA-2025-08-07-17-57-49","","null","","images/causal_sequence/package_causal/package_causal_7.png","null","",""
"","","","","","image-button-response","45","447429","0.0-10.0-1.0-2.6","65A833506FEC4D9E8CD4A26ABA06D2EA","65A833506FEC4D9E8CD4A26ABA06D2EA","bc14600e-df7e-4975-83bd-240777c53a68","6d972c12-ef4f-4967-baa7-815328c4c025","{""num_scrambled_semantic"":""8"",""num_scrambled_causal"":""4"",""num_scrambled_schematic"":""4"",""participantId"":""65A833506FEC4D9E8CD4A26ABA06D2EA"",""assignmentId"":""bc14600e-df7e-4975-83bd-240777c53a68"",""projectId"":""6d972c12-ef4f-4967-baa7-815328c4c025""}","https://test12345.live/?num_scrambled_semantic=8&num_scrambled_causal=4&num_scrambled_schematic=4&participantId=65A833506FEC4D9E8CD4A26ABA06D2EA&assignmentId=bc14600e-df7e-4975-83bd-240777c53a68&projectId=6d972c12-ef4f-4967-baa7-815328c4c025","65A833506FEC4D9E8CD4A26ABA06D2EA-2025-08-07-17-57-49","","null","","[]","null","",""
"","","","","","image-button-response","46","451932","0.0-10.0-1.0-0.7","65A833506FEC4D9E8CD4A26ABA06D2EA","65A833506FEC4D9E8CD4A26ABA06D2EA","bc14600e-df7e-4975-83bd-240777c53a68","6d972c12-ef4f-4967-baa7-815328c4c025","{""num_scrambled_semantic"":""8"",""num_scrambled_causal"":""4"",""num_scrambled_schematic"":""4"",""participantId"":""65A833506FEC4D9E8CD4A26ABA06D2EA"",""assignmentId"":""bc14600e-df7e-4975-83bd-240777c53a68"",""projectId"":""6d972c12-ef4f-4967-baa7-815328c4c025""}","https://test12345.live/?num_scrambled_semantic=8&num_scrambled_causal=4&num_scrambled_schematic=4&participantId=65A833506FEC4D9E8CD4A26ABA06D2EA&assignmentId=bc14600e-df7e-4975-83bd-240777c53a68&projectId=6d972c12-ef4f-4967-baa7-815328c4c025","65A833506FEC4D9E8CD4A26ABA06D2EA-2025-08-07-17-57-49","","null","","images/causal_sequence/package_causal/package_causal_8.png","null","",""
"","","","","","image-button-response","47","453082","0.0-10.0-1.0-1.7","65A833506FEC4D9E8CD4A26ABA06D2EA","65A833506FEC4D9E8CD4A26ABA06D2EA","bc14600e-df7e-4975-83bd-240777c53a68","6d972c12-ef4f-4967-baa7-815328c4c025","{""num_scrambled_semantic"":""8"",""num_scrambled_causal"":""4"",""num_scrambled_schematic"":""4"",""participantId"":""65A833506FEC4D9E8CD4A26ABA06D2EA"",""assignmentId"":""bc14600e-df7e-4975-83bd-240777c53a68"",""projectId"":""6d972c12-ef4f-4967-baa7-815328c4c025""}","https://test12345.live/?num_scrambled_semantic=8&num_scrambled_causal=4&num_scrambled_schematic=4&participantId=65A833506FEC4D9E8CD4A26ABA06D2EA&assignmentId=bc14600e-df7e-4975-83bd-240777c53a68&projectId=6d972c12-ef4f-4967-baa7-815328c4c025","65A833506FEC4D9E8CD4A26ABA06D2EA-2025-08-07-17-57-49","","1148","","images/causal_sequence/package_causal/package_causal_8.png","0","",""
"","","","","","image-button-response","48","454886","0.0-10.0-1.0-2.7","65A833506FEC4D9E8CD4A26ABA06D2EA","65A833506FEC4D9E8CD4A26ABA06D2EA","bc14600e-df7e-4975-83bd-240777c53a68","6d972c12-ef4f-4967-baa7-815328c4c025","{""num_scrambled_semantic"":""8"",""num_scrambled_causal"":""4"",""num_scrambled_schematic"":""4"",""participantId"":""65A833506FEC4D9E8CD4A26ABA06D2EA"",""assignmentId"":""bc14600e-df7e-4975-83bd-240777c53a68"",""projectId"":""6d972c12-ef4f-4967-baa7-815328c4c025""}","https://test12345.live/?num_scrambled_semantic=8&num_scrambled_causal=4&num_scrambled_schematic=4&participantId=65A833506FEC4D9E8CD4A26ABA06D2EA&assignmentId=bc14600e-df7e-4975-83bd-240777c53a68&projectId=6d972c12-ef4f-4967-baa7-815328c4c025","65A833506FEC4D9E8CD4A26ABA06D2EA-2025-08-07-17-57-49","","null","","[]","null","",""
"","","","","","image-button-response","49","459392","0.0-10.0-1.0-0.8","65A833506FEC4D9E8CD4A26ABA06D2EA","65A833506FEC4D9E8CD4A26ABA06D2EA","bc14600e-df7e-4975-83bd-240777c53a68","6d972c12-ef4f-4967-baa7-815328c4c025","{""num_scrambled_semantic"":""8"",""num_scrambled_causal"":""4"",""num_scrambled_schematic"":""4"",""participantId"":""65A833506FEC4D9E8CD4A26ABA06D2EA"",""assignmentId"":""bc14600e-df7e-4975-83bd-240777c53a68"",""projectId"":""6d972c12-ef4f-4967-baa7-815328c4c025""}","https://test12345.live/?num_scrambled_semantic=8&num_scrambled_causal=4&num_scrambled_schematic=4&participantId=65A833506FEC4D9E8CD4A26ABA06D2EA&assignmentId=bc14600e-df7e-4975-83bd-240777c53a68&projectId=6d972c12-ef4f-4967-baa7-815328c4c025","65A833506FEC4D9E8CD4A26ABA06D2EA-2025-08-07-17-57-49","","null","","images/causal_sequence/package_causal/package_causal_9.png","null","",""
"","","","","","image-button-response","50","460261","0.0-10.0-1.0-1.8","65A833506FEC4D9E8CD4A26ABA06D2EA","65A833506FEC4D9E8CD4A26ABA06D2EA","bc14600e-df7e-4975-83bd-240777c53a68","6d972c12-ef4f-4967-baa7-815328c4c025","{""num_scrambled_semantic"":""8"",""num_scrambled_causal"":""4"",""num_scrambled_schematic"":""4"",""participantId"":""65A833506FEC4D9E8CD4A26ABA06D2EA"",""assignmentId"":""bc14600e-df7e-4975-83bd-240777c53a68"",""projectId"":""6d972c12-ef4f-4967-baa7-815328c4c025""}","https://test12345.live/?num_scrambled_semantic=8&num_scrambled_causal=4&num_scrambled_schematic=4&participantId=65A833506FEC4D9E8CD4A26ABA06D2EA&assignmentId=bc14600e-df7e-4975-83bd-240777c53a68&projectId=6d972c12-ef4f-4967-baa7-815328c4c025","65A833506FEC4D9E8CD4A26ABA06D2EA-2025-08-07-17-57-49","","867","","images/causal_sequence/package_causal/package_causal_9.png","0","",""
"","","","","","image-button-response","51","462064","0.0-10.0-1.0-2.8","65A833506FEC4D9E8CD4A26ABA06D2EA","65A833506FEC4D9E8CD4A26ABA06D2EA","bc14600e-df7e-4975-83bd-240777c53a68","6d972c12-ef4f-4967-baa7-815328c4c025","{""num_scrambled_semantic"":""8"",""num_scrambled_causal"":""4"",""num_scrambled_schematic"":""4"",""participantId"":""65A833506FEC4D9E8CD4A26ABA06D2EA"",""assignmentId"":""bc14600e-df7e-4975-83bd-240777c53a68"",""projectId"":""6d972c12-ef4f-4967-baa7-815328c4c025""}","https://test12345.live/?num_scrambled_semantic=8&num_scrambled_causal=4&num_scrambled_schematic=4&participantId=65A833506FEC4D9E8CD4A26ABA06D2EA&assignmentId=bc14600e-df7e-4975-83bd-240777c53a68&projectId=6d972c12-ef4f-4967-baa7-815328c4c025","65A833506FEC4D9E8CD4A26ABA06D2EA-2025-08-07-17-57-49","","null","","[]","null","",""
"","","","","","image-button-response","52","466569","0.0-10.0-1.0-0.9","65A833506FEC4D9E8CD4A26ABA06D2EA","65A833506FEC4D9E8CD4A26ABA06D2EA","bc14600e-df7e-4975-83bd-240777c53a68","6d972c12-ef4f-4967-baa7-815328c4c025","{""num_scrambled_semantic"":""8"",""num_scrambled_causal"":""4"",""num_scrambled_schematic"":""4"",""participantId"":""65A833506FEC4D9E8CD4A26ABA06D2EA"",""assignmentId"":""bc14600e-df7e-4975-83bd-240777c53a68"",""projectId"":""6d972c12-ef4f-4967-baa7-815328c4c025""}","https://test12345.live/?num_scrambled_semantic=8&num_scrambled_causal=4&num_scrambled_schematic=4&participantId=65A833506FEC4D9E8CD4A26ABA06D2EA&assignmentId=bc14600e-df7e-4975-83bd-240777c53a68&projectId=6d972c12-ef4f-4967-baa7-815328c4c025","65A833506FEC4D9E8CD4A26ABA06D2EA-2025-08-07-17-57-49","","null","","images/causal_sequence/package_causal/package_causal_ten.png","null","",""
"","","","","","image-button-response","53","467776","0.0-10.0-1.0-1.9","65A833506FEC4D9E8CD4A26ABA06D2EA","65A833506FEC4D9E8CD4A26ABA06D2EA","bc14600e-df7e-4975-83bd-240777c53a68","6d972c12-ef4f-4967-baa7-815328c4c025","{""num_scrambled_semantic"":""8"",""num_scrambled_causal"":""4"",""num_scrambled_schematic"":""4"",""participantId"":""65A833506FEC4D9E8CD4A26ABA06D2EA"",""assignmentId"":""bc14600e-df7e-4975-83bd-240777c53a68"",""projectId"":""6d972c12-ef4f-4967-baa7-815328c4c025""}","https://test12345.live/?num_scrambled_semantic=8&num_scrambled_causal=4&num_scrambled_schematic=4&participantId=65A833506FEC4D9E8CD4A26ABA06D2EA&assignmentId=bc14600e-df7e-4975-83bd-240777c53a68&projectId=6d972c12-ef4f-4967-baa7-815328c4c025","65A833506FEC4D9E8CD4A26ABA06D2EA-2025-08-07-17-57-49","","1205","","images/causal_sequence/package_causal/package_causal_ten.png","0","",""
"","","","","","image-button-response","54","469579","0.0-10.0-1.0-2.9","65A833506FEC4D9E8CD4A26ABA06D2EA","65A833506FEC4D9E8CD4A26ABA06D2EA","bc14600e-df7e-4975-83bd-240777c53a68","6d972c12-ef4f-4967-baa7-815328c4c025","{""num_scrambled_semantic"":""8"",""num_scrambled_causal"":""4"",""num_scrambled_schematic"":""4"",""participantId"":""65A833506FEC4D9E8CD4A26ABA06D2EA"",""assignmentId"":""bc14600e-df7e-4975-83bd-240777c53a68"",""projectId"":""6d972c12-ef4f-4967-baa7-815328c4c025""}","https://test12345.live/?num_scrambled_semantic=8&num_scrambled_causal=4&num_scrambled_schematic=4&participantId=65A833506FEC4D9E8CD4A26ABA06D2EA&assignmentId=bc14600e-df7e-4975-83bd-240777c53a68&projectId=6d972c12-ef4f-4967-baa7-815328c4c025","65A833506FEC4D9E8CD4A26ABA06D2EA-2025-08-07-17-57-49","","null","","[]","null","",""
"","","","","","html-audio-response","55","507026","0.0-11.0","65A833506FEC4D9E8CD4A26ABA06D2EA","65A833506FEC4D9E8CD4A26ABA06D2EA","bc14600e-df7e-4975-83bd-240777c53a68","6d972c12-ef4f-4967-baa7-815328c4c025","{""num_scrambled_semantic"":""8"",""num_scrambled_causal"":""4"",""num_scrambled_schematic"":""4"",""participantId"":""65A833506FEC4D9E8CD4A26ABA06D2EA"",""assignmentId"":""bc14600e-df7e-4975-83bd-240777c53a68"",""projectId"":""6d972c12-ef4f-4967-baa7-815328c4c025""}","https://test12345.live/?num_scrambled_semantic=8&num_scrambled_causal=4&num_scrambled_schematic=4&participantId=65A833506FEC4D9E8CD4A26ABA06D2EA&assignmentId=bc14600e-df7e-4975-83bd-240777c53a68&projectId=6d972c12-ef4f-4967-baa7-815328c4c025","65A833506FEC4D9E8CD4A26ABA06D2EA-2025-08-07-17-57-49","","29006","","[""<span style=\""color: red; font-size: 24px\""> NOW RECORDING</span><p>Please say out loud all the images you saw, in the exact order you saw them. Try to recall as many images as you can, but remember: getting the order right is more important than the number of images you recall.</p>""]","","2","package_causal"
"","","","","","image-button-response","56","513036","0.0-12.0-0.0","65A833506FEC4D9E8CD4A26ABA06D2EA","65A833506FEC4D9E8CD4A26ABA06D2EA","bc14600e-df7e-4975-83bd-240777c53a68","6d972c12-ef4f-4967-baa7-815328c4c025","{""num_scrambled_semantic"":""8"",""num_scrambled_causal"":""4"",""num_scrambled_schematic"":""4"",""participantId"":""65A833506FEC4D9E8CD4A26ABA06D2EA"",""assignmentId"":""bc14600e-df7e-4975-83bd-240777c53a68"",""projectId"":""6d972c12-ef4f-4967-baa7-815328c4c025""}","https://test12345.live/?num_scrambled_semantic=8&num_scrambled_causal=4&num_scrambled_schematic=4&participantId=65A833506FEC4D9E8CD4A26ABA06D2EA&assignmentId=bc14600e-df7e-4975-83bd-240777c53a68&projectId=6d972c12-ef4f-4967-baa7-815328c4c025","65A833506FEC4D9E8CD4A26ABA06D2EA-2025-08-07-17-57-49","","null","","images/causal_sequence/the_performance_causal/the_performance_causal_0.png","null","",""
"","","","","","image-button-response","57","517539","0.0-12.0-1.0-0.0","65A833506FEC4D9E8CD4A26ABA06D2EA","65A833506FEC4D9E8CD4A26ABA06D2EA","bc14600e-df7e-4975-83bd-240777c53a68","6d972c12-ef4f-4967-baa7-815328c4c025","{""num_scrambled_semantic"":""8"",""num_scrambled_causal"":""4"",""num_scrambled_schematic"":""4"",""participantId"":""65A833506FEC4D9E8CD4A26ABA06D2EA"",""assignmentId"":""bc14600e-df7e-4975-83bd-240777c53a68"",""projectId"":""6d972c12-ef4f-4967-baa7-815328c4c025""}","https://test12345.live/?num_scrambled_semantic=8&num_scrambled_causal=4&num_scrambled_schematic=4&participantId=65A833506FEC4D9E8CD4A26ABA06D2EA&assignmentId=bc14600e-df7e-4975-83bd-240777c53a68&projectId=6d972c12-ef4f-4967-baa7-815328c4c025","65A833506FEC4D9E8CD4A26ABA06D2EA-2025-08-07-17-57-49","","null","","images/causal_sequence/the_performance_causal/the_performance_causal_3.png","null","",""
"","","","","","image-button-response","58","518373","0.0-12.0-1.0-1.0","65A833506FEC4D9E8CD4A26ABA06D2EA","65A833506FEC4D9E8CD4A26ABA06D2EA","bc14600e-df7e-4975-83bd-240777c53a68","6d972c12-ef4f-4967-baa7-815328c4c025","{""num_scrambled_semantic"":""8"",""num_scrambled_causal"":""4"",""num_scrambled_schematic"":""4"",""participantId"":""65A833506FEC4D9E8CD4A26ABA06D2EA"",""assignmentId"":""bc14600e-df7e-4975-83bd-240777c53a68"",""projectId"":""6d972c12-ef4f-4967-baa7-815328c4c025""}","https://test12345.live/?num_scrambled_semantic=8&num_scrambled_causal=4&num_scrambled_schematic=4&participantId=65A833506FEC4D9E8CD4A26ABA06D2EA&assignmentId=bc14600e-df7e-4975-83bd-240777c53a68&projectId=6d972c12-ef4f-4967-baa7-815328c4c025","65A833506FEC4D9E8CD4A26ABA06D2EA-2025-08-07-17-57-49","","832","","images/causal_sequence/the_performance_causal/the_performance_causal_3.png","0","",""
"","","","","","image-button-response","59","520180","0.0-12.0-1.0-2.0","65A833506FEC4D9E8CD4A26ABA06D2EA","65A833506FEC4D9E8CD4A26ABA06D2EA","bc14600e-df7e-4975-83bd-240777c53a68","6d972c12-ef4f-4967-baa7-815328c4c025","{""num_scrambled_semantic"":""8"",""num_scrambled_causal"":""4"",""num_scrambled_schematic"":""4"",""participantId"":""65A833506FEC4D9E8CD4A26ABA06D2EA"",""assignmentId"":""bc14600e-df7e-4975-83bd-240777c53a68"",""projectId"":""6d972c12-ef4f-4967-baa7-815328c4c025""}","https://test12345.live/?num_scrambled_semantic=8&num_scrambled_causal=4&num_scrambled_schematic=4&participantId=65A833506FEC4D9E8CD4A26ABA06D2EA&assignmentId=bc14600e-df7e-4975-83bd-240777c53a68&projectId=6d972c12-ef4f-4967-baa7-815328c4c025","65A833506FEC4D9E8CD4A26ABA06D2EA-2025-08-07-17-57-49","","null","","[]","null","",""
"","","","","","image-button-response","60","524684","0.0-12.0-1.0-0.1","65A833506FEC4D9E8CD4A26ABA06D2EA","65A833506FEC4D9E8CD4A26ABA06D2EA","bc14600e-df7e-4975-83bd-240777c53a68","6d972c12-ef4f-4967-baa7-815328c4c025","{""num_scrambled_semantic"":""8"",""num_scrambled_causal"":""4"",""num_scrambled_schematic"":""4"",""participantId"":""65A833506FEC4D9E8CD4A26ABA06D2EA"",""assignmentId"":""bc14600e-df7e-4975-83bd-240777c53a68"",""projectId"":""6d972c12-ef4f-4967-baa7-815328c4c025""}","https://test12345.live/?num_scrambled_semantic=8&num_scrambled_causal=4&num_scrambled_schematic=4&participantId=65A833506FEC4D9E8CD4A26ABA06D2EA&assignmentId=bc14600e-df7e-4975-83bd-240777c53a68&projectId=6d972c12-ef4f-4967-baa7-815328c4c025","65A833506FEC4D9E8CD4A26ABA06D2EA-2025-08-07-17-57-49","","null","","images/causal_sequence/the_performance_causal/the_performance_causal_8.png","null","",""
"","","","","","image-button-response","61","526177","0.0-12.0-1.0-1.1","65A833506FEC4D9E8CD4A26ABA06D2EA","65A833506FEC4D9E8CD4A26ABA06D2EA","bc14600e-df7e-4975-83bd-240777c53a68","6d972c12-ef4f-4967-baa7-815328c4c025","{""num_scrambled_semantic"":""8"",""num_scrambled_causal"":""4"",""num_scrambled_schematic"":""4"",""participantId"":""65A833506FEC4D9E8CD4A26ABA06D2EA"",""assignmentId"":""bc14600e-df7e-4975-83bd-240777c53a68"",""projectId"":""6d972c12-ef4f-4967-baa7-815328c4c025""}","https://test12345.live/?num_scrambled_semantic=8&num_scrambled_causal=4&num_scrambled_schematic=4&participantId=65A833506FEC4D9E8CD4A26ABA06D2EA&assignmentId=bc14600e-df7e-4975-83bd-240777c53a68&projectId=6d972c12-ef4f-4967-baa7-815328c4c025","65A833506FEC4D9E8CD4A26ABA06D2EA-2025-08-07-17-57-49","","1490","","images/causal_sequence/the_performance_causal/the_performance_causal_8.png","0","",""
"","","","","","image-button-response","62","527983","0.0-12.0-1.0-2.1","65A833506FEC4D9E8CD4A26ABA06D2EA","65A833506FEC4D9E8CD4A26ABA06D2EA","bc14600e-df7e-4975-83bd-240777c53a68","6d972c12-ef4f-4967-baa7-815328c4c025","{""num_scrambled_semantic"":""8"",""num_scrambled_causal"":""4"",""num_scrambled_schematic"":""4"",""participantId"":""65A833506FEC4D9E8CD4A26ABA06D2EA"",""assignmentId"":""bc14600e-df7e-4975-83bd-240777c53a68"",""projectId"":""6d972c12-ef4f-4967-baa7-815328c4c025""}","https://test12345.live/?num_scrambled_semantic=8&num_scrambled_causal=4&num_scrambled_schematic=4&participantId=65A833506FEC4D9E8CD4A26ABA06D2EA&assignmentId=bc14600e-df7e-4975-83bd-240777c53a68&projectId=6d972c12-ef4f-4967-baa7-815328c4c025","65A833506FEC4D9E8CD4A26ABA06D2EA-2025-08-07-17-57-49","","null","","[]","null","",""
"","","","","","image-button-response","63","532490","0.0-12.0-1.0-0.2","65A833506FEC4D9E8CD4A26ABA06D2EA","65A833506FEC4D9E8CD4A26ABA06D2EA","bc14600e-df7e-4975-83bd-240777c53a68","6d972c12-ef4f-4967-baa7-815328c4c025","{""num_scrambled_semantic"":""8"",""num_scrambled_causal"":""4"",""num_scrambled_schematic"":""4"",""participantId"":""65A833506FEC4D9E8CD4A26ABA06D2EA"",""assignmentId"":""bc14600e-df7e-4975-83bd-240777c53a68"",""projectId"":""6d972c12-ef4f-4967-baa7-815328c4c025""}","https://test12345.live/?num_scrambled_semantic=8&num_scrambled_causal=4&num_scrambled_schematic=4&participantId=65A833506FEC4D9E8CD4A26ABA06D2EA&assignmentId=bc14600e-df7e-4975-83bd-240777c53a68&projectId=6d972c12-ef4f-4967-baa7-815328c4c025","65A833506FEC4D9E8CD4A26ABA06D2EA-2025-08-07-17-57-49","","null","","images/causal_sequence/the_performance_causal/the_performance_causal_9 (2).png","null","",""
"","","","","","image-button-response","64","533864","0.0-12.0-1.0-1.2","65A833506FEC4D9E8CD4A26ABA06D2EA","65A833506FEC4D9E8CD4A26ABA06D2EA","bc14600e-df7e-4975-83bd-240777c53a68","6d972c12-ef4f-4967-baa7-815328c4c025","{""num_scrambled_semantic"":""8"",""num_scrambled_causal"":""4"",""num_scrambled_schematic"":""4"",""participantId"":""65A833506FEC4D9E8CD4A26ABA06D2EA"",""assignmentId"":""bc14600e-df7e-4975-83bd-240777c53a68"",""projectId"":""6d972c12-ef4f-4967-baa7-815328c4c025""}","https://test12345.live/?num_scrambled_semantic=8&num_scrambled_causal=4&num_scrambled_schematic=4&participantId=65A833506FEC4D9E8CD4A26ABA06D2EA&assignmentId=bc14600e-df7e-4975-83bd-240777c53a68&projectId=6d972c12-ef4f-4967-baa7-815328c4c025","65A833506FEC4D9E8CD4A26ABA06D2EA-2025-08-07-17-57-49","","1372","","images/causal_sequence/the_performance_causal/the_performance_causal_9 (2).png","0","",""
"","","","","","image-button-response","65","535666","0.0-12.0-1.0-2.2","65A833506FEC4D9E8CD4A26ABA06D2EA","65A833506FEC4D9E8CD4A26ABA06D2EA","bc14600e-df7e-4975-83bd-240777c53a68","6d972c12-ef4f-4967-baa7-815328c4c025","{""num_scrambled_semantic"":""8"",""num_scrambled_causal"":""4"",""num_scrambled_schematic"":""4"",""participantId"":""65A833506FEC4D9E8CD4A26ABA06D2EA"",""assignmentId"":""bc14600e-df7e-4975-83bd-240777c53a68"",""projectId"":""6d972c12-ef4f-4967-baa7-815328c4c025""}","https://test12345.live/?num_scrambled_semantic=8&num_scrambled_causal=4&num_scrambled_schematic=4&participantId=65A833506FEC4D9E8CD4A26ABA06D2EA&assignmentId=bc14600e-df7e-4975-83bd-240777c53a68&projectId=6d972c12-ef4f-4967-baa7-815328c4c025","65A833506FEC4D9E8CD4A26ABA06D2EA-2025-08-07-17-57-49","","null","","[]","null","",""
"","","","","","image-button-response","66","540169","0.0-12.0-1.0-0.3","65A833506FEC4D9E8CD4A26ABA06D2EA","65A833506FEC4D9E8CD4A26ABA06D2EA","bc14600e-df7e-4975-83bd-240777c53a68","6d972c12-ef4f-4967-baa7-815328c4c025","{""num_scrambled_semantic"":""8"",""num_scrambled_causal"":""4"",""num_scrambled_schematic"":""4"",""participantId"":""65A833506FEC4D9E8CD4A26ABA06D2EA"",""assignmentId"":""bc14600e-df7e-4975-83bd-240777c53a68"",""projectId"":""6d972c12-ef4f-4967-baa7-815328c4c025""}","https://test12345.live/?num_scrambled_semantic=8&num_scrambled_causal=4&num_scrambled_schematic=4&participantId=65A833506FEC4D9E8CD4A26ABA06D2EA&assignmentId=bc14600e-df7e-4975-83bd-240777c53a68&projectId=6d972c12-ef4f-4967-baa7-815328c4c025","65A833506FEC4D9E8CD4A26ABA06D2EA-2025-08-07-17-57-49","","null","","images/causal_sequence/the_performance_causal/the_performance_causal_9.png","null","",""
"","","","","","image-button-response","67","541179","0.0-12.0-1.0-1.3","65A833506FEC4D9E8CD4A26ABA06D2EA","65A833506FEC4D9E8CD4A26ABA06D2EA","bc14600e-df7e-4975-83bd-240777c53a68","6d972c12-ef4f-4967-baa7-815328c4c025","{""num_scrambled_semantic"":""8"",""num_scrambled_causal"":""4"",""num_scrambled_schematic"":""4"",""participantId"":""65A833506FEC4D9E8CD4A26ABA06D2EA"",""assignmentId"":""bc14600e-df7e-4975-83bd-240777c53a68"",""projectId"":""6d972c12-ef4f-4967-baa7-815328c4c025""}","https://test12345.live/?num_scrambled_semantic=8&num_scrambled_causal=4&num_scrambled_schematic=4&participantId=65A833506FEC4D9E8CD4A26ABA06D2EA&assignmentId=bc14600e-df7e-4975-83bd-240777c53a68&projectId=6d972c12-ef4f-4967-baa7-815328c4c025","65A833506FEC4D9E8CD4A26ABA06D2EA-2025-08-07-17-57-49","","1009","","images/causal_sequence/the_performance_causal/the_performance_causal_9.png","0","",""
"","","","","","image-button-response","68","542984","0.0-12.0-1.0-2.3","65A833506FEC4D9E8CD4A26ABA06D2EA","65A833506FEC4D9E8CD4A26ABA06D2EA","bc14600e-df7e-4975-83bd-240777c53a68","6d972c12-ef4f-4967-baa7-815328c4c025","{""num_scrambled_semantic"":""8"",""num_scrambled_causal"":""4"",""num_scrambled_schematic"":""4"",""participantId"":""65A833506FEC4D9E8CD4A26ABA06D2EA"",""assignmentId"":""bc14600e-df7e-4975-83bd-240777c53a68"",""projectId"":""6d972c12-ef4f-4967-baa7-815328c4c025""}","https://test12345.live/?num_scrambled_semantic=8&num_scrambled_causal=4&num_scrambled_schematic=4&participantId=65A833506FEC4D9E8CD4A26ABA06D2EA&assignmentId=bc14600e-df7e-4975-83bd-240777c53a68&projectId=6d972c12-ef4f-4967-baa7-815328c4c025","65A833506FEC4D9E8CD4A26ABA06D2EA-2025-08-07-17-57-49","","null","","[]","null","",""
"","","","","","image-button-response","69","547489","0.0-12.0-1.0-0.4","65A833506FEC4D9E8CD4A26ABA06D2EA","65A833506FEC4D9E8CD4A26ABA06D2EA","bc14600e-df7e-4975-83bd-240777c53a68","6d972c12-ef4f-4967-baa7-815328c4c025","{""num_scrambled_semantic"":""8"",""num_scrambled_causal"":""4"",""num_scrambled_schematic"":""4"",""participantId"":""65A833506FEC4D9E8CD4A26ABA06D2EA"",""assignmentId"":""bc14600e-df7e-4975-83bd-240777c53a68"",""projectId"":""6d972c12-ef4f-4967-baa7-815328c4c025""}","https://test12345.live/?num_scrambled_semantic=8&num_scrambled_causal=4&num_scrambled_schematic=4&participantId=65A833506FEC4D9E8CD4A26ABA06D2EA&assignmentId=bc14600e-df7e-4975-83bd-240777c53a68&projectId=6d972c12-ef4f-4967-baa7-815328c4c025","65A833506FEC4D9E8CD4A26ABA06D2EA-2025-08-07-17-57-49","","null","","images/causal_sequence/the_performance_causal/the_performance_causal_7.png","null","",""
"","","","","","image-button-response","70","548605","0.0-12.0-1.0-1.4","65A833506FEC4D9E8CD4A26ABA06D2EA","65A833506FEC4D9E8CD4A26ABA06D2EA","bc14600e-df7e-4975-83bd-240777c53a68","6d972c12-ef4f-4967-baa7-815328c4c025","{""num_scrambled_semantic"":""8"",""num_scrambled_causal"":""4"",""num_scrambled_schematic"":""4"",""participantId"":""65A833506FEC4D9E8CD4A26ABA06D2EA"",""assignmentId"":""bc14600e-df7e-4975-83bd-240777c53a68"",""projectId"":""6d972c12-ef4f-4967-baa7-815328c4c025""}","https://test12345.live/?num_scrambled_semantic=8&num_scrambled_causal=4&num_scrambled_schematic=4&participantId=65A833506FEC4D9E8CD4A26ABA06D2EA&assignmentId=bc14600e-df7e-4975-83bd-240777c53a68&projectId=6d972c12-ef4f-4967-baa7-815328c4c025","65A833506FEC4D9E8CD4A26ABA06D2EA-2025-08-07-17-57-49","","1115","","images/causal_sequence/the_performance_causal/the_performance_causal_7.png","0","",""
"","","","","","image-button-response","71","550410","0.0-12.0-1.0-2.4","65A833506FEC4D9E8CD4A26ABA06D2EA","65A833506FEC4D9E8CD4A26ABA06D2EA","bc14600e-df7e-4975-83bd-240777c53a68","6d972c12-ef4f-4967-baa7-815328c4c025","{""num_scrambled_semantic"":""8"",""num_scrambled_causal"":""4"",""num_scrambled_schematic"":""4"",""participantId"":""65A833506FEC4D9E8CD4A26ABA06D2EA"",""assignmentId"":""bc14600e-df7e-4975-83bd-240777c53a68"",""projectId"":""6d972c12-ef4f-4967-baa7-815328c4c025""}","https://test12345.live/?num_scrambled_semantic=8&num_scrambled_causal=4&num_scrambled_schematic=4&participantId=65A833506FEC4D9E8CD4A26ABA06D2EA&assignmentId=bc14600e-df7e-4975-83bd-240777c53a68&projectId=6d972c12-ef4f-4967-baa7-815328c4c025","65A833506FEC4D9E8CD4A26ABA06D2EA-2025-08-07-17-57-49","","null","","[]","null","",""
"","","","","","image-button-response","72","554916","0.0-12.0-1.0-0.5","65A833506FEC4D9E8CD4A26ABA06D2EA","65A833506FEC4D9E8CD4A26ABA06D2EA","bc14600e-df7e-4975-83bd-240777c53a68","6d972c12-ef4f-4967-baa7-815328c4c025","{""num_scrambled_semantic"":""8"",""num_scrambled_causal"":""4"",""num_scrambled_schematic"":""4"",""participantId"":""65A833506FEC4D9E8CD4A26ABA06D2EA"",""assignmentId"":""bc14600e-df7e-4975-83bd-240777c53a68"",""projectId"":""6d972c12-ef4f-4967-baa7-815328c4c025""}","https://test12345.live/?num_scrambled_semantic=8&num_scrambled_causal=4&num_scrambled_schematic=4&participantId=65A833506FEC4D9E8CD4A26ABA06D2EA&assignmentId=bc14600e-df7e-4975-83bd-240777c53a68&projectId=6d972c12-ef4f-4967-baa7-815328c4c025","65A833506FEC4D9E8CD4A26ABA06D2EA-2025-08-07-17-57-49","","null","","images/causal_sequence/the_performance_causal/the_performance_causal_2.png","null","",""
"","","","","","image-button-response","73","555841","0.0-12.0-1.0-1.5","65A833506FEC4D9E8CD4A26ABA06D2EA","65A833506FEC4D9E8CD4A26ABA06D2EA","bc14600e-df7e-4975-83bd-240777c53a68","6d972c12-ef4f-4967-baa7-815328c4c025","{""num_scrambled_semantic"":""8"",""num_scrambled_causal"":""4"",""num_scrambled_schematic"":""4"",""participantId"":""65A833506FEC4D9E8CD4A26ABA06D2EA"",""assignmentId"":""bc14600e-df7e-4975-83bd-240777c53a68"",""projectId"":""6d972c12-ef4f-4967-baa7-815328c4c025""}","https://test12345.live/?num_scrambled_semantic=8&num_scrambled_causal=4&num_scrambled_schematic=4&participantId=65A833506FEC4D9E8CD4A26ABA06D2EA&assignmentId=bc14600e-df7e-4975-83bd-240777c53a68&projectId=6d972c12-ef4f-4967-baa7-815328c4c025","65A833506FEC4D9E8CD4A26ABA06D2EA-2025-08-07-17-57-49","","923","","images/causal_sequence/the_performance_causal/the_performance_causal_2.png","0","",""
"","","","","","image-button-response","74","557646","0.0-12.0-1.0-2.5","65A833506FEC4D9E8CD4A26ABA06D2EA","65A833506FEC4D9E8CD4A26ABA06D2EA","bc14600e-df7e-4975-83bd-240777c53a68","6d972c12-ef4f-4967-baa7-815328c4c025","{""num_scrambled_semantic"":""8"",""num_scrambled_causal"":""4"",""num_scrambled_schematic"":""4"",""participantId"":""65A833506FEC4D9E8CD4A26ABA06D2EA"",""assignmentId"":""bc14600e-df7e-4975-83bd-240777c53a68"",""projectId"":""6d972c12-ef4f-4967-baa7-815328c4c025""}","https://test12345.live/?num_scrambled_semantic=8&num_scrambled_causal=4&num_scrambled_schematic=4&participantId=65A833506FEC4D9E8CD4A26ABA06D2EA&assignmentId=bc14600e-df7e-4975-83bd-240777c53a68&projectId=6d972c12-ef4f-4967-baa7-815328c4c025","65A833506FEC4D9E8CD4A26ABA06D2EA-2025-08-07-17-57-49","","null","","[]","null","",""
"","","","","","image-button-response","75","562152","0.0-12.0-1.0-0.6","65A833506FEC4D9E8CD4A26ABA06D2EA","65A833506FEC4D9E8CD4A26ABA06D2EA","bc14600e-df7e-4975-83bd-240777c53a68","6d972c12-ef4f-4967-baa7-815328c4c025","{""num_scrambled_semantic"":""8"",""num_scrambled_causal"":""4"",""num_scrambled_schematic"":""4"",""participantId"":""65A833506FEC4D9E8CD4A26ABA06D2EA"",""assignmentId"":""bc14600e-df7e-4975-83bd-240777c53a68"",""projectId"":""6d972c12-ef4f-4967-baa7-815328c4c025""}","https://test12345.live/?num_scrambled_semantic=8&num_scrambled_causal=4&num_scrambled_schematic=4&participantId=65A833506FEC4D9E8CD4A26ABA06D2EA&assignmentId=bc14600e-df7e-4975-83bd-240777c53a68&projectId=6d972c12-ef4f-4967-baa7-815328c4c025","65A833506FEC4D9E8CD4A26ABA06D2EA-2025-08-07-17-57-49","","null","","images/causal_sequence/the_performance_causal/the_performance_causal_4.png","null","",""
"","","","","","image-button-response","76","562745","0.0-12.0-1.0-1.6","65A833506FEC4D9E8CD4A26ABA06D2EA","65A833506FEC4D9E8CD4A26ABA06D2EA","bc14600e-df7e-4975-83bd-240777c53a68","6d972c12-ef4f-4967-baa7-815328c4c025","{""num_scrambled_semantic"":""8"",""num_scrambled_causal"":""4"",""num_scrambled_schematic"":""4"",""participantId"":""65A833506FEC4D9E8CD4A26ABA06D2EA"",""assignmentId"":""bc14600e-df7e-4975-83bd-240777c53a68"",""projectId"":""6d972c12-ef4f-4967-baa7-815328c4c025""}","https://test12345.live/?num_scrambled_semantic=8&num_scrambled_causal=4&num_scrambled_schematic=4&participantId=65A833506FEC4D9E8CD4A26ABA06D2EA&assignmentId=bc14600e-df7e-4975-83bd-240777c53a68&projectId=6d972c12-ef4f-4967-baa7-815328c4c025","65A833506FEC4D9E8CD4A26ABA06D2EA-2025-08-07-17-57-49","","591","","images/causal_sequence/the_performance_causal/the_performance_causal_4.png","0","",""
"","","","","","image-button-response","77","564548","0.0-12.0-1.0-2.6","65A833506FEC4D9E8CD4A26ABA06D2EA","65A833506FEC4D9E8CD4A26ABA06D2EA","bc14600e-df7e-4975-83bd-240777c53a68","6d972c12-ef4f-4967-baa7-815328c4c025","{""num_scrambled_semantic"":""8"",""num_scrambled_causal"":""4"",""num_scrambled_schematic"":""4"",""participantId"":""65A833506FEC4D9E8CD4A26ABA06D2EA"",""assignmentId"":""bc14600e-df7e-4975-83bd-240777c53a68"",""projectId"":""6d972c12-ef4f-4967-baa7-815328c4c025""}","https://test12345.live/?num_scrambled_semantic=8&num_scrambled_causal=4&num_scrambled_schematic=4&participantId=65A833506FEC4D9E8CD4A26ABA06D2EA&assignmentId=bc14600e-df7e-4975-83bd-240777c53a68&projectId=6d972c12-ef4f-4967-baa7-815328c4c025","65A833506FEC4D9E8CD4A26ABA06D2EA-2025-08-07-17-57-49","","null","","[]","null","",""
"","","","","","image-button-response","78","569051","0.0-12.0-1.0-0.7","65A833506FEC4D9E8CD4A26ABA06D2EA","65A833506FEC4D9E8CD4A26ABA06D2EA","bc14600e-df7e-4975-83bd-240777c53a68","6d972c12-ef4f-4967-baa7-815328c4c025","{""num_scrambled_semantic"":""8"",""num_scrambled_causal"":""4"",""num_scrambled_schematic"":""4"",""participantId"":""65A833506FEC4D9E8CD4A26ABA06D2EA"",""assignmentId"":""bc14600e-df7e-4975-83bd-240777c53a68"",""projectId"":""6d972c12-ef4f-4967-baa7-815328c4c025""}","https://test12345.live/?num_scrambled_semantic=8&num_scrambled_causal=4&num_scrambled_schematic=4&participantId=65A833506FEC4D9E8CD4A26ABA06D2EA&assignmentId=bc14600e-df7e-4975-83bd-240777c53a68&projectId=6d972c12-ef4f-4967-baa7-815328c4c025","65A833506FEC4D9E8CD4A26ABA06D2EA-2025-08-07-17-57-49","","null","","images/causal_sequence/the_performance_causal/the_performance_causal_1.png","null","",""
"","","","","","image-button-response","79","569567","0.0-12.0-1.0-1.7","65A833506FEC4D9E8CD4A26ABA06D2EA","65A833506FEC4D9E8CD4A26ABA06D2EA","bc14600e-df7e-4975-83bd-240777c53a68","6d972c12-ef4f-4967-baa7-815328c4c025","{""num_scrambled_semantic"":""8"",""num_scrambled_causal"":""4"",""num_scrambled_schematic"":""4"",""participantId"":""65A833506FEC4D9E8CD4A26ABA06D2EA"",""assignmentId"":""bc14600e-df7e-4975-83bd-240777c53a68"",""projectId"":""6d972c12-ef4f-4967-baa7-815328c4c025""}","https://test12345.live/?num_scrambled_semantic=8&num_scrambled_causal=4&num_scrambled_schematic=4&participantId=65A833506FEC4D9E8CD4A26ABA06D2EA&assignmentId=bc14600e-df7e-4975-83bd-240777c53a68&projectId=6d972c12-ef4f-4967-baa7-815328c4c025","65A833506FEC4D9E8CD4A26ABA06D2EA-2025-08-07-17-57-49","","514","","images/causal_sequence/the_performance_causal/the_performance_causal_1.png","0","",""
"","","","","","image-button-response","80","571371","0.0-12.0-1.0-2.7","65A833506FEC4D9E8CD4A26ABA06D2EA","65A833506FEC4D9E8CD4A26ABA06D2EA","bc14600e-df7e-4975-83bd-240777c53a68","6d972c12-ef4f-4967-baa7-815328c4c025","{""num_scrambled_semantic"":""8"",""num_scrambled_causal"":""4"",""num_scrambled_schematic"":""4"",""participantId"":""65A833506FEC4D9E8CD4A26ABA06D2EA"",""assignmentId"":""bc14600e-df7e-4975-83bd-240777c53a68"",""projectId"":""6d972c12-ef4f-4967-baa7-815328c4c025""}","https://test12345.live/?num_scrambled_semantic=8&num_scrambled_causal=4&num_scrambled_schematic=4&participantId=65A833506FEC4D9E8CD4A26ABA06D2EA&assignmentId=bc14600e-df7e-4975-83bd-240777c53a68&projectId=6d972c12-ef4f-4967-baa7-815328c4c025","65A833506FEC4D9E8CD4A26ABA06D2EA-2025-08-07-17-57-49","","null","","[]","null","",""
"","","","","","image-button-response","81","575878","0.0-12.0-1.0-0.8","65A833506FEC4D9E8CD4A26ABA06D2EA","65A833506FEC4D9E8CD4A26ABA06D2EA","bc14600e-df7e-4975-83bd-240777c53a68","6d972c12-ef4f-4967-baa7-815328c4c025","{""num_scrambled_semantic"":""8"",""num_scrambled_causal"":""4"",""num_scrambled_schematic"":""4"",""participantId"":""65A833506FEC4D9E8CD4A26ABA06D2EA"",""assignmentId"":""bc14600e-df7e-4975-83bd-240777c53a68"",""projectId"":""6d972c12-ef4f-4967-baa7-815328c4c025""}","https://test12345.live/?num_scrambled_semantic=8&num_scrambled_causal=4&num_scrambled_schematic=4&participantId=65A833506FEC4D9E8CD4A26ABA06D2EA&assignmentId=bc14600e-df7e-4975-83bd-240777c53a68&projectId=6d972c12-ef4f-4967-baa7-815328c4c025","65A833506FEC4D9E8CD4A26ABA06D2EA-2025-08-07-17-57-49","","null","","images/causal_sequence/the_performance_causal/the_performance_causal_5.png","null","",""
"","","","","","image-button-response","82","577246","0.0-12.0-1.0-1.8","65A833506FEC4D9E8CD4A26ABA06D2EA","65A833506FEC4D9E8CD4A26ABA06D2EA","bc14600e-df7e-4975-83bd-240777c53a68","6d972c12-ef4f-4967-baa7-815328c4c025","{""num_scrambled_semantic"":""8"",""num_scrambled_causal"":""4"",""num_scrambled_schematic"":""4"",""participantId"":""65A833506FEC4D9E8CD4A26ABA06D2EA"",""assignmentId"":""bc14600e-df7e-4975-83bd-240777c53a68"",""projectId"":""6d972c12-ef4f-4967-baa7-815328c4c025""}","https://test12345.live/?num_scrambled_semantic=8&num_scrambled_causal=4&num_scrambled_schematic=4&participantId=65A833506FEC4D9E8CD4A26ABA06D2EA&assignmentId=bc14600e-df7e-4975-83bd-240777c53a68&projectId=6d972c12-ef4f-4967-baa7-815328c4c025","65A833506FEC4D9E8CD4A26ABA06D2EA-2025-08-07-17-57-49","","1366","","images/causal_sequence/the_performance_causal/the_performance_causal_5.png","0","",""
"","","","","","image-button-response","83","579050","0.0-12.0-1.0-2.8","65A833506FEC4D9E8CD4A26ABA06D2EA","65A833506FEC4D9E8CD4A26ABA06D2EA","bc14600e-df7e-4975-83bd-240777c53a68","6d972c12-ef4f-4967-baa7-815328c4c025","{""num_scrambled_semantic"":""8"",""num_scrambled_causal"":""4"",""num_scrambled_schematic"":""4"",""participantId"":""65A833506FEC4D9E8CD4A26ABA06D2EA"",""assignmentId"":""bc14600e-df7e-4975-83bd-240777c53a68"",""projectId"":""6d972c12-ef4f-4967-baa7-815328c4c025""}","https://test12345.live/?num_scrambled_semantic=8&num_scrambled_causal=4&num_scrambled_schematic=4&participantId=65A833506FEC4D9E8CD4A26ABA06D2EA&assignmentId=bc14600e-df7e-4975-83bd-240777c53a68&projectId=6d972c12-ef4f-4967-baa7-815328c4c025","65A833506FEC4D9E8CD4A26ABA06D2EA-2025-08-07-17-57-49","","null","","[]","null","",""
"","","","","","image-button-response","84","583556","0.0-12.0-1.0-0.9","65A833506FEC4D9E8CD4A26ABA06D2EA","65A833506FEC4D9E8CD4A26ABA06D2EA","bc14600e-df7e-4975-83bd-240777c53a68","6d972c12-ef4f-4967-baa7-815328c4c025","{""num_scrambled_semantic"":""8"",""num_scrambled_causal"":""4"",""num_scrambled_schematic"":""4"",""participantId"":""65A833506FEC4D9E8CD4A26ABA06D2EA"",""assignmentId"":""bc14600e-df7e-4975-83bd-240777c53a68"",""projectId"":""6d972c12-ef4f-4967-baa7-815328c4c025""}","https://test12345.live/?num_scrambled_semantic=8&num_scrambled_causal=4&num_scrambled_schematic=4&participantId=65A833506FEC4D9E8CD4A26ABA06D2EA&assignmentId=bc14600e-df7e-4975-83bd-240777c53a68&projectId=6d972c12-ef4f-4967-baa7-815328c4c025","65A833506FEC4D9E8CD4A26ABA06D2EA-2025-08-07-17-57-49","","null","","images/causal_sequence/the_performance_causal/the_performance_causal_6.png","null","",""
"","","","","","image-button-response","85","584642","0.0-12.0-1.0-1.9","65A833506FEC4D9E8CD4A26ABA06D2EA","65A833506FEC4D9E8CD4A26ABA06D2EA","bc14600e-df7e-4975-83bd-240777c53a68","6d972c12-ef4f-4967-baa7-815328c4c025","{""num_scrambled_semantic"":""8"",""num_scrambled_causal"":""4"",""num_scrambled_schematic"":""4"",""participantId"":""65A833506FEC4D9E8CD4A26ABA06D2EA"",""assignmentId"":""bc14600e-df7e-4975-83bd-240777c53a68"",""projectId"":""6d972c12-ef4f-4967-baa7-815328c4c025""}","https://test12345.live/?num_scrambled_semantic=8&num_scrambled_causal=4&num_scrambled_schematic=4&participantId=65A833506FEC4D9E8CD4A26ABA06D2EA&assignmentId=bc14600e-df7e-4975-83bd-240777c53a68&projectId=6d972c12-ef4f-4967-baa7-815328c4c025","65A833506FEC4D9E8CD4A26ABA06D2EA-2025-08-07-17-57-49","","1084","","images/causal_sequence/the_performance_causal/the_performance_causal_6.png","0","",""
"","","","","","image-button-response","86","586448","0.0-12.0-1.0-2.9","65A833506FEC4D9E8CD4A26ABA06D2EA","65A833506FEC4D9E8CD4A26ABA06D2EA","bc14600e-df7e-4975-83bd-240777c53a68","6d972c12-ef4f-4967-baa7-815328c4c025","{""num_scrambled_semantic"":""8"",""num_scrambled_causal"":""4"",""num_scrambled_schematic"":""4"",""participantId"":""65A833506FEC4D9E8CD4A26ABA06D2EA"",""assignmentId"":""bc14600e-df7e-4975-83bd-240777c53a68"",""projectId"":""6d972c12-ef4f-4967-baa7-815328c4c025""}","https://test12345.live/?num_scrambled_semantic=8&num_scrambled_causal=4&num_scrambled_schematic=4&participantId=65A833506FEC4D9E8CD4A26ABA06D2EA&assignmentId=bc14600e-df7e-4975-83bd-240777c53a68&projectId=6d972c12-ef4f-4967-baa7-815328c4c025","65A833506FEC4D9E8CD4A26ABA06D2EA-2025-08-07-17-57-49","","null","","[]","null","",""
"","","","","","html-audio-response","87","623825","0.0-13.0","65A833506FEC4D9E8CD4A26ABA06D2EA","65A833506FEC4D9E8CD4A26ABA06D2EA","bc14600e-df7e-4975-83bd-240777c53a68","6d972c12-ef4f-4967-baa7-815328c4c025","{""num_scrambled_semantic"":""8"",""num_scrambled_causal"":""4"",""num_scrambled_schematic"":""4"",""participantId"":""65A833506FEC4D9E8CD4A26ABA06D2EA"",""assignmentId"":""bc14600e-df7e-4975-83bd-240777c53a68"",""projectId"":""6d972c12-ef4f-4967-baa7-815328c4c025""}","https://test12345.live/?num_scrambled_semantic=8&num_scrambled_causal=4&num_scrambled_schematic=4&participantId=65A833506FEC4D9E8CD4A26ABA06D2EA&assignmentId=bc14600e-df7e-4975-83bd-240777c53a68&projectId=6d972c12-ef4f-4967-baa7-815328c4c025","65A833506FEC4D9E8CD4A26ABA06D2EA-2025-08-07-17-57-49","","35705","","[""<span style=\""color: red; font-size: 24px\""> NOW RECORDING</span><p>Please say out loud all the images you saw, in the exact order you saw them. Try to recall as many images as you can, but remember: getting the order right is more important than the number of images you recall.</p>""]","","2","the_performance_causal"
"","","","","","image-button-response","88","629832","0.0-14.0-0.0","65A833506FEC4D9E8CD4A26ABA06D2EA","65A833506FEC4D9E8CD4A26ABA06D2EA","bc14600e-df7e-4975-83bd-240777c53a68","6d972c12-ef4f-4967-baa7-815328c4c025","{""num_scrambled_semantic"":""8"",""num_scrambled_causal"":""4"",""num_scrambled_schematic"":""4"",""participantId"":""65A833506FEC4D9E8CD4A26ABA06D2EA"",""assignmentId"":""bc14600e-df7e-4975-83bd-240777c53a68"",""projectId"":""6d972c12-ef4f-4967-baa7-815328c4c025""}","https://test12345.live/?num_scrambled_semantic=8&num_scrambled_causal=4&num_scrambled_schematic=4&participantId=65A833506FEC4D9E8CD4A26ABA06D2EA&assignmentId=bc14600e-df7e-4975-83bd-240777c53a68&projectId=6d972c12-ef4f-4967-baa7-815328c4c025","65A833506FEC4D9E8CD4A26ABA06D2EA-2025-08-07-17-57-49","","null","","images/semantic_sequence/using_technology_semantic/using_technology_semantic_0.png","null","",""
"","","","","","image-button-response","89","634338","0.0-14.0-1.0-0.0","65A833506FEC4D9E8CD4A26ABA06D2EA","65A833506FEC4D9E8CD4A26ABA06D2EA","bc14600e-df7e-4975-83bd-240777c53a68","6d972c12-ef4f-4967-baa7-815328c4c025","{""num_scrambled_semantic"":""8"",""num_scrambled_causal"":""4"",""num_scrambled_schematic"":""4"",""participantId"":""65A833506FEC4D9E8CD4A26ABA06D2EA"",""assignmentId"":""bc14600e-df7e-4975-83bd-240777c53a68"",""projectId"":""6d972c12-ef4f-4967-baa7-815328c4c025""}","https://test12345.live/?num_scrambled_semantic=8&num_scrambled_causal=4&num_scrambled_schematic=4&participantId=65A833506FEC4D9E8CD4A26ABA06D2EA&assignmentId=bc14600e-df7e-4975-83bd-240777c53a68&projectId=6d972c12-ef4f-4967-baa7-815328c4c025","65A833506FEC4D9E8CD4A26ABA06D2EA-2025-08-07-17-57-49","","null","","images/semantic_sequence/using_technology_semantic/using_technology_semantic_6.png","null","",""
"","","","","","image-button-response","90","636125","0.0-14.0-1.0-1.0","65A833506FEC4D9E8CD4A26ABA06D2EA","65A833506FEC4D9E8CD4A26ABA06D2EA","bc14600e-df7e-4975-83bd-240777c53a68","6d972c12-ef4f-4967-baa7-815328c4c025","{""num_scrambled_semantic"":""8"",""num_scrambled_causal"":""4"",""num_scrambled_schematic"":""4"",""participantId"":""65A833506FEC4D9E8CD4A26ABA06D2EA"",""assignmentId"":""bc14600e-df7e-4975-83bd-240777c53a68"",""projectId"":""6d972c12-ef4f-4967-baa7-815328c4c025""}","https://test12345.live/?num_scrambled_semantic=8&num_scrambled_causal=4&num_scrambled_schematic=4&participantId=65A833506FEC4D9E8CD4A26ABA06D2EA&assignmentId=bc14600e-df7e-4975-83bd-240777c53a68&projectId=6d972c12-ef4f-4967-baa7-815328c4c025","65A833506FEC4D9E8CD4A26ABA06D2EA-2025-08-07-17-57-49","","1785","","images/semantic_sequence/using_technology_semantic/using_technology_semantic_6.png","0","",""
"","","","","","image-button-response","91","637931","0.0-14.0-1.0-2.0","65A833506FEC4D9E8CD4A26ABA06D2EA","65A833506FEC4D9E8CD4A26ABA06D2EA","bc14600e-df7e-4975-83bd-240777c53a68","6d972c12-ef4f-4967-baa7-815328c4c025","{""num_scrambled_semantic"":""8"",""num_scrambled_causal"":""4"",""num_scrambled_schematic"":""4"",""participantId"":""65A833506FEC4D9E8CD4A26ABA06D2EA"",""assignmentId"":""bc14600e-df7e-4975-83bd-240777c53a68"",""projectId"":""6d972c12-ef4f-4967-baa7-815328c4c025""}","https://test12345.live/?num_scrambled_semantic=8&num_scrambled_causal=4&num_scrambled_schematic=4&participantId=65A833506FEC4D9E8CD4A26ABA06D2EA&assignmentId=bc14600e-df7e-4975-83bd-240777c53a68&projectId=6d972c12-ef4f-4967-baa7-815328c4c025","65A833506FEC4D9E8CD4A26ABA06D2EA-2025-08-07-17-57-49","","null","","[]","null","",""
"","","","","","image-button-response","92","642437","0.0-14.0-1.0-0.1","65A833506FEC4D9E8CD4A26ABA06D2EA","65A833506FEC4D9E8CD4A26ABA06D2EA","bc14600e-df7e-4975-83bd-240777c53a68","6d972c12-ef4f-4967-baa7-815328c4c025","{""num_scrambled_semantic"":""8"",""num_scrambled_causal"":""4"",""num_scrambled_schematic"":""4"",""participantId"":""65A833506FEC4D9E8CD4A26ABA06D2EA"",""assignmentId"":""bc14600e-df7e-4975-83bd-240777c53a68"",""projectId"":""6d972c12-ef4f-4967-baa7-815328c4c025""}","https://test12345.live/?num_scrambled_semantic=8&num_scrambled_causal=4&num_scrambled_schematic=4&participantId=65A833506FEC4D9E8CD4A26ABA06D2EA&assignmentId=bc14600e-df7e-4975-83bd-240777c53a68&projectId=6d972c12-ef4f-4967-baa7-815328c4c025","65A833506FEC4D9E8CD4A26ABA06D2EA-2025-08-07-17-57-49","","null","","images/semantic_sequence/using_technology_semantic/using_technology_semantic_3.png","null","",""
"","","","","","image-button-response","93","642959","0.0-14.0-1.0-1.1","65A833506FEC4D9E8CD4A26ABA06D2EA","65A833506FEC4D9E8CD4A26ABA06D2EA","bc14600e-df7e-4975-83bd-240777c53a68","6d972c12-ef4f-4967-baa7-815328c4c025","{""num_scrambled_semantic"":""8"",""num_scrambled_causal"":""4"",""num_scrambled_schematic"":""4"",""participantId"":""65A833506FEC4D9E8CD4A26ABA06D2EA"",""assignmentId"":""bc14600e-df7e-4975-83bd-240777c53a68"",""projectId"":""6d972c12-ef4f-4967-baa7-815328c4c025""}","https://test12345.live/?num_scrambled_semantic=8&num_scrambled_causal=4&num_scrambled_schematic=4&participantId=65A833506FEC4D9E8CD4A26ABA06D2EA&assignmentId=bc14600e-df7e-4975-83bd-240777c53a68&projectId=6d972c12-ef4f-4967-baa7-815328c4c025","65A833506FEC4D9E8CD4A26ABA06D2EA-2025-08-07-17-57-49","","520","","images/semantic_sequence/using_technology_semantic/using_technology_semantic_3.png","0","",""
"","","","","","image-button-response","94","644765","0.0-14.0-1.0-2.1","65A833506FEC4D9E8CD4A26ABA06D2EA","65A833506FEC4D9E8CD4A26ABA06D2EA","bc14600e-df7e-4975-83bd-240777c53a68","6d972c12-ef4f-4967-baa7-815328c4c025","{""num_scrambled_semantic"":""8"",""num_scrambled_causal"":""4"",""num_scrambled_schematic"":""4"",""participantId"":""65A833506FEC4D9E8CD4A26ABA06D2EA"",""assignmentId"":""bc14600e-df7e-4975-83bd-240777c53a68"",""projectId"":""6d972c12-ef4f-4967-baa7-815328c4c025""}","https://test12345.live/?num_scrambled_semantic=8&num_scrambled_causal=4&num_scrambled_schematic=4&participantId=65A833506FEC4D9E8CD4A26ABA06D2EA&assignmentId=bc14600e-df7e-4975-83bd-240777c53a68&projectId=6d972c12-ef4f-4967-baa7-815328c4c025","65A833506FEC4D9E8CD4A26ABA06D2EA-2025-08-07-17-57-49","","null","","[]","null","",""
"","","","","","image-button-response","95","649272","0.0-14.0-1.0-0.2","65A833506FEC4D9E8CD4A26ABA06D2EA","65A833506FEC4D9E8CD4A26ABA06D2EA","bc14600e-df7e-4975-83bd-240777c53a68","6d972c12-ef4f-4967-baa7-815328c4c025","{""num_scrambled_semantic"":""8"",""num_scrambled_causal"":""4"",""num_scrambled_schematic"":""4"",""participantId"":""65A833506FEC4D9E8CD4A26ABA06D2EA"",""assignmentId"":""bc14600e-df7e-4975-83bd-240777c53a68"",""projectId"":""6d972c12-ef4f-4967-baa7-815328c4c025""}","https://test12345.live/?num_scrambled_semantic=8&num_scrambled_causal=4&num_scrambled_schematic=4&participantId=65A833506FEC4D9E8CD4A26ABA06D2EA&assignmentId=bc14600e-df7e-4975-83bd-240777c53a68&projectId=6d972c12-ef4f-4967-baa7-815328c4c025","65A833506FEC4D9E8CD4A26ABA06D2EA-2025-08-07-17-57-49","","null","","images/semantic_sequence/using_technology_semantic/using_technology_semantic_8.png","null","",""
"","","","","","image-button-response","96","650794","0.0-14.0-1.0-1.2","65A833506FEC4D9E8CD4A26ABA06D2EA","65A833506FEC4D9E8CD4A26ABA06D2EA","bc14600e-df7e-4975-83bd-240777c53a68","6d972c12-ef4f-4967-baa7-815328c4c025","{""num_scrambled_semantic"":""8"",""num_scrambled_causal"":""4"",""num_scrambled_schematic"":""4"",""participantId"":""65A833506FEC4D9E8CD4A26ABA06D2EA"",""assignmentId"":""bc14600e-df7e-4975-83bd-240777c53a68"",""projectId"":""6d972c12-ef4f-4967-baa7-815328c4c025""}","https://test12345.live/?num_scrambled_semantic=8&num_scrambled_causal=4&num_scrambled_schematic=4&participantId=65A833506FEC4D9E8CD4A26ABA06D2EA&assignmentId=bc14600e-df7e-4975-83bd-240777c53a68&projectId=6d972c12-ef4f-4967-baa7-815328c4c025","65A833506FEC4D9E8CD4A26ABA06D2EA-2025-08-07-17-57-49","","1521","","images/semantic_sequence/using_technology_semantic/using_technology_semantic_8.png","0","",""
"","","","","","image-button-response","97","652597","0.0-14.0-1.0-2.2","65A833506FEC4D9E8CD4A26ABA06D2EA","65A833506FEC4D9E8CD4A26ABA06D2EA","bc14600e-df7e-4975-83bd-240777c53a68","6d972c12-ef4f-4967-baa7-815328c4c025","{""num_scrambled_semantic"":""8"",""num_scrambled_causal"":""4"",""num_scrambled_schematic"":""4"",""participantId"":""65A833506FEC4D9E8CD4A26ABA06D2EA"",""assignmentId"":""bc14600e-df7e-4975-83bd-240777c53a68"",""projectId"":""6d972c12-ef4f-4967-baa7-815328c4c025""}","https://test12345.live/?num_scrambled_semantic=8&num_scrambled_causal=4&num_scrambled_schematic=4&participantId=65A833506FEC4D9E8CD4A26ABA06D2EA&assignmentId=bc14600e-df7e-4975-83bd-240777c53a68&projectId=6d972c12-ef4f-4967-baa7-815328c4c025","65A833506FEC4D9E8CD4A26ABA06D2EA-2025-08-07-17-57-49","","null","","[]","null","",""
"","","","","","image-button-response","98","657103","0.0-14.0-1.0-0.3","65A833506FEC4D9E8CD4A26ABA06D2EA","65A833506FEC4D9E8CD4A26ABA06D2EA","bc14600e-df7e-4975-83bd-240777c53a68","6d972c12-ef4f-4967-baa7-815328c4c025","{""num_scrambled_semantic"":""8"",""num_scrambled_causal"":""4"",""num_scrambled_schematic"":""4"",""participantId"":""65A833506FEC4D9E8CD4A26ABA06D2EA"",""assignmentId"":""bc14600e-df7e-4975-83bd-240777c53a68"",""projectId"":""6d972c12-ef4f-4967-baa7-815328c4c025""}","https://test12345.live/?num_scrambled_semantic=8&num_scrambled_causal=4&num_scrambled_schematic=4&participantId=65A833506FEC4D9E8CD4A26ABA06D2EA&assignmentId=bc14600e-df7e-4975-83bd-240777c53a68&projectId=6d972c12-ef4f-4967-baa7-815328c4c025","65A833506FEC4D9E8CD4A26ABA06D2EA-2025-08-07-17-57-49","","null","","images/semantic_sequence/using_technology_semantic/using_technology_semantic_5.png","null","",""
"","","","","","image-button-response","99","657651","0.0-14.0-1.0-1.3","65A833506FEC4D9E8CD4A26ABA06D2EA","65A833506FEC4D9E8CD4A26ABA06D2EA","bc14600e-df7e-4975-83bd-240777c53a68","6d972c12-ef4f-4967-baa7-815328c4c025","{""num_scrambled_semantic"":""8"",""num_scrambled_causal"":""4"",""num_scrambled_schematic"":""4"",""participantId"":""65A833506FEC4D9E8CD4A26ABA06D2EA"",""assignmentId"":""bc14600e-df7e-4975-83bd-240777c53a68"",""projectId"":""6d972c12-ef4f-4967-baa7-815328c4c025""}","https://test12345.live/?num_scrambled_semantic=8&num_scrambled_causal=4&num_scrambled_schematic=4&participantId=65A833506FEC4D9E8CD4A26ABA06D2EA&assignmentId=bc14600e-df7e-4975-83bd-240777c53a68&projectId=6d972c12-ef4f-4967-baa7-815328c4c025","65A833506FEC4D9E8CD4A26ABA06D2EA-2025-08-07-17-57-49","","545","","images/semantic_sequence/using_technology_semantic/using_technology_semantic_5.png","0","",""
"","","","","","image-button-response","100","659457","0.0-14.0-1.0-2.3","65A833506FEC4D9E8CD4A26ABA06D2EA","65A833506FEC4D9E8CD4A26ABA06D2EA","bc14600e-df7e-4975-83bd-240777c53a68","6d972c12-ef4f-4967-baa7-815328c4c025","{""num_scrambled_semantic"":""8"",""num_scrambled_causal"":""4"",""num_scrambled_schematic"":""4"",""participantId"":""65A833506FEC4D9E8CD4A26ABA06D2EA"",""assignmentId"":""bc14600e-df7e-4975-83bd-240777c53a68"",""projectId"":""6d972c12-ef4f-4967-baa7-815328c4c025""}","https://test12345.live/?num_scrambled_semantic=8&num_scrambled_causal=4&num_scrambled_schematic=4&participantId=65A833506FEC4D9E8CD4A26ABA06D2EA&assignmentId=bc14600e-df7e-4975-83bd-240777c53a68&projectId=6d972c12-ef4f-4967-baa7-815328c4c025","65A833506FEC4D9E8CD4A26ABA06D2EA-2025-08-07-17-57-49","","null","","[]","null","",""
"","","","","","image-button-response","101","663962","0.0-14.0-1.0-0.4","65A833506FEC4D9E8CD4A26ABA06D2EA","65A833506FEC4D9E8CD4A26ABA06D2EA","bc14600e-df7e-4975-83bd-240777c53a68","6d972c12-ef4f-4967-baa7-815328c4c025","{""num_scrambled_semantic"":""8"",""num_scrambled_causal"":""4"",""num_scrambled_schematic"":""4"",""participantId"":""65A833506FEC4D9E8CD4A26ABA06D2EA"",""assignmentId"":""bc14600e-df7e-4975-83bd-240777c53a68"",""projectId"":""6d972c12-ef4f-4967-baa7-815328c4c025""}","https://test12345.live/?num_scrambled_semantic=8&num_scrambled_causal=4&num_scrambled_schematic=4&participantId=65A833506FEC4D9E8CD4A26ABA06D2EA&assignmentId=bc14600e-df7e-4975-83bd-240777c53a68&projectId=6d972c12-ef4f-4967-baa7-815328c4c025","65A833506FEC4D9E8CD4A26ABA06D2EA-2025-08-07-17-57-49","","null","","images/semantic_sequence/using_technology_semantic/using_technology_semantic_9.png","null","",""
"","","","","","image-button-response","102","664909","0.0-14.0-1.0-1.4","65A833506FEC4D9E8CD4A26ABA06D2EA","65A833506FEC4D9E8CD4A26ABA06D2EA","bc14600e-df7e-4975-83bd-240777c53a68","6d972c12-ef4f-4967-baa7-815328c4c025","{""num_scrambled_semantic"":""8"",""num_scrambled_causal"":""4"",""num_scrambled_schematic"":""4"",""participantId"":""65A833506FEC4D9E8CD4A26ABA06D2EA"",""assignmentId"":""bc14600e-df7e-4975-83bd-240777c53a68"",""projectId"":""6d972c12-ef4f-4967-baa7-815328c4c025""}","https://test12345.live/?num_scrambled_semantic=8&num_scrambled_causal=4&num_scrambled_schematic=4&participantId=65A833506FEC4D9E8CD4A26ABA06D2EA&assignmentId=bc14600e-df7e-4975-83bd-240777c53a68&projectId=6d972c12-ef4f-4967-baa7-815328c4c025","65A833506FEC4D9E8CD4A26ABA06D2EA-2025-08-07-17-57-49","","944","","images/semantic_sequence/using_technology_semantic/using_technology_semantic_9.png","0","",""
"","","","","","image-button-response","103","666711","0.0-14.0-1.0-2.4","65A833506FEC4D9E8CD4A26ABA06D2EA","65A833506FEC4D9E8CD4A26ABA06D2EA","bc14600e-df7e-4975-83bd-240777c53a68","6d972c12-ef4f-4967-baa7-815328c4c025","{""num_scrambled_semantic"":""8"",""num_scrambled_causal"":""4"",""num_scrambled_schematic"":""4"",""participantId"":""65A833506FEC4D9E8CD4A26ABA06D2EA"",""assignmentId"":""bc14600e-df7e-4975-83bd-240777c53a68"",""projectId"":""6d972c12-ef4f-4967-baa7-815328c4c025""}","https://test12345.live/?num_scrambled_semantic=8&num_scrambled_causal=4&num_scrambled_schematic=4&participantId=65A833506FEC4D9E8CD4A26ABA06D2EA&assignmentId=bc14600e-df7e-4975-83bd-240777c53a68&projectId=6d972c12-ef4f-4967-baa7-815328c4c025","65A833506FEC4D9E8CD4A26ABA06D2EA-2025-08-07-17-57-49","","null","","[]","null","",""
"","","","","","image-button-response","104","671214","0.0-14.0-1.0-0.5","65A833506FEC4D9E8CD4A26ABA06D2EA","65A833506FEC4D9E8CD4A26ABA06D2EA","bc14600e-df7e-4975-83bd-240777c53a68","6d972c12-ef4f-4967-baa7-815328c4c025","{""num_scrambled_semantic"":""8"",""num_scrambled_causal"":""4"",""num_scrambled_schematic"":""4"",""participantId"":""65A833506FEC4D9E8CD4A26ABA06D2EA"",""assignmentId"":""bc14600e-df7e-4975-83bd-240777c53a68"",""projectId"":""6d972c12-ef4f-4967-baa7-815328c4c025""}","https://test12345.live/?num_scrambled_semantic=8&num_scrambled_causal=4&num_scrambled_schematic=4&participantId=65A833506FEC4D9E8CD4A26ABA06D2EA&assignmentId=bc14600e-df7e-4975-83bd-240777c53a68&projectId=6d972c12-ef4f-4967-baa7-815328c4c025","65A833506FEC4D9E8CD4A26ABA06D2EA-2025-08-07-17-57-49","","null","","images/semantic_sequence/using_technology_semantic/using_technology_semantic_ten.png","null","",""
"","","","","","image-button-response","105","671592","0.0-14.0-1.0-1.5","65A833506FEC4D9E8CD4A26ABA06D2EA","65A833506FEC4D9E8CD4A26ABA06D2EA","bc14600e-df7e-4975-83bd-240777c53a68","6d972c12-ef4f-4967-baa7-815328c4c025","{""num_scrambled_semantic"":""8"",""num_scrambled_causal"":""4"",""num_scrambled_schematic"":""4"",""participantId"":""65A833506FEC4D9E8CD4A26ABA06D2EA"",""assignmentId"":""bc14600e-df7e-4975-83bd-240777c53a68"",""projectId"":""6d972c12-ef4f-4967-baa7-815328c4c025""}","https://test12345.live/?num_scrambled_semantic=8&num_scrambled_causal=4&num_scrambled_schematic=4&participantId=65A833506FEC4D9E8CD4A26ABA06D2EA&assignmentId=bc14600e-df7e-4975-83bd-240777c53a68&projectId=6d972c12-ef4f-4967-baa7-815328c4c025","65A833506FEC4D9E8CD4A26ABA06D2EA-2025-08-07-17-57-49","","377","","images/semantic_sequence/using_technology_semantic/using_technology_semantic_ten.png","0","",""
"","","","","","image-button-response","106","673396","0.0-14.0-1.0-2.5","65A833506FEC4D9E8CD4A26ABA06D2EA","65A833506FEC4D9E8CD4A26ABA06D2EA","bc14600e-df7e-4975-83bd-240777c53a68","6d972c12-ef4f-4967-baa7-815328c4c025","{""num_scrambled_semantic"":""8"",""num_scrambled_causal"":""4"",""num_scrambled_schematic"":""4"",""participantId"":""65A833506FEC4D9E8CD4A26ABA06D2EA"",""assignmentId"":""bc14600e-df7e-4975-83bd-240777c53a68"",""projectId"":""6d972c12-ef4f-4967-baa7-815328c4c025""}","https://test12345.live/?num_scrambled_semantic=8&num_scrambled_causal=4&num_scrambled_schematic=4&participantId=65A833506FEC4D9E8CD4A26ABA06D2EA&assignmentId=bc14600e-df7e-4975-83bd-240777c53a68&projectId=6d972c12-ef4f-4967-baa7-815328c4c025","65A833506FEC4D9E8CD4A26ABA06D2EA-2025-08-07-17-57-49","","null","","[]","null","",""
"","","","","","image-button-response","107","677899","0.0-14.0-1.0-0.6","65A833506FEC4D9E8CD4A26ABA06D2EA","65A833506FEC4D9E8CD4A26ABA06D2EA","bc14600e-df7e-4975-83bd-240777c53a68","6d972c12-ef4f-4967-baa7-815328c4c025","{""num_scrambled_semantic"":""8"",""num_scrambled_causal"":""4"",""num_scrambled_schematic"":""4"",""participantId"":""65A833506FEC4D9E8CD4A26ABA06D2EA"",""assignmentId"":""bc14600e-df7e-4975-83bd-240777c53a68"",""projectId"":""6d972c12-ef4f-4967-baa7-815328c4c025""}","https://test12345.live/?num_scrambled_semantic=8&num_scrambled_causal=4&num_scrambled_schematic=4&participantId=65A833506FEC4D9E8CD4A26ABA06D2EA&assignmentId=bc14600e-df7e-4975-83bd-240777c53a68&projectId=6d972c12-ef4f-4967-baa7-815328c4c025","65A833506FEC4D9E8CD4A26ABA06D2EA-2025-08-07-17-57-49","","null","","images/semantic_sequence/using_technology_semantic/using_technology_semantic_4.png","null","",""
"","","","","","image-button-response","108","678733","0.0-14.0-1.0-1.6","65A833506FEC4D9E8CD4A26ABA06D2EA","65A833506FEC4D9E8CD4A26ABA06D2EA","bc14600e-df7e-4975-83bd-240777c53a68","6d972c12-ef4f-4967-baa7-815328c4c025","{""num_scrambled_semantic"":""8"",""num_scrambled_causal"":""4"",""num_scrambled_schematic"":""4"",""participantId"":""65A833506FEC4D9E8CD4A26ABA06D2EA"",""assignmentId"":""bc14600e-df7e-4975-83bd-240777c53a68"",""projectId"":""6d972c12-ef4f-4967-baa7-815328c4c025""}","https://test12345.live/?num_scrambled_semantic=8&num_scrambled_causal=4&num_scrambled_schematic=4&participantId=65A833506FEC4D9E8CD4A26ABA06D2EA&assignmentId=bc14600e-df7e-4975-83bd-240777c53a68&projectId=6d972c12-ef4f-4967-baa7-815328c4c025","65A833506FEC4D9E8CD4A26ABA06D2EA-2025-08-07-17-57-49","","832","","images/semantic_sequence/using_technology_semantic/using_technology_semantic_4.png","0","",""
"","","","","","image-button-response","109","680538","0.0-14.0-1.0-2.6","65A833506FEC4D9E8CD4A26ABA06D2EA","65A833506FEC4D9E8CD4A26ABA06D2EA","bc14600e-df7e-4975-83bd-240777c53a68","6d972c12-ef4f-4967-baa7-815328c4c025","{""num_scrambled_semantic"":""8"",""num_scrambled_causal"":""4"",""num_scrambled_schematic"":""4"",""participantId"":""65A833506FEC4D9E8CD4A26ABA06D2EA"",""assignmentId"":""bc14600e-df7e-4975-83bd-240777c53a68"",""projectId"":""6d972c12-ef4f-4967-baa7-815328c4c025""}","https://test12345.live/?num_scrambled_semantic=8&num_scrambled_causal=4&num_scrambled_schematic=4&participantId=65A833506FEC4D9E8CD4A26ABA06D2EA&assignmentId=bc14600e-df7e-4975-83bd-240777c53a68&projectId=6d972c12-ef4f-4967-baa7-815328c4c025","65A833506FEC4D9E8CD4A26ABA06D2EA-2025-08-07-17-57-49","","null","","[]","null","",""
"","","","","","image-button-response","110","685041","0.0-14.0-1.0-0.7","65A833506FEC4D9E8CD4A26ABA06D2EA","65A833506FEC4D9E8CD4A26ABA06D2EA","bc14600e-df7e-4975-83bd-240777c53a68","6d972c12-ef4f-4967-baa7-815328c4c025","{""num_scrambled_semantic"":""8"",""num_scrambled_causal"":""4"",""num_scrambled_schematic"":""4"",""participantId"":""65A833506FEC4D9E8CD4A26ABA06D2EA"",""assignmentId"":""bc14600e-df7e-4975-83bd-240777c53a68"",""projectId"":""6d972c12-ef4f-4967-baa7-815328c4c025""}","https://test12345.live/?num_scrambled_semantic=8&num_scrambled_causal=4&num_scrambled_schematic=4&participantId=65A833506FEC4D9E8CD4A26ABA06D2EA&assignmentId=bc14600e-df7e-4975-83bd-240777c53a68&projectId=6d972c12-ef4f-4967-baa7-815328c4c025","65A833506FEC4D9E8CD4A26ABA06D2EA-2025-08-07-17-57-49","","null","","images/semantic_sequence/using_technology_semantic/using_technology_semantic_1.png","null","",""
"","","","","","image-button-response","111","685579","0.0-14.0-1.0-1.7","65A833506FEC4D9E8CD4A26ABA06D2EA","65A833506FEC4D9E8CD4A26ABA06D2EA","bc14600e-df7e-4975-83bd-240777c53a68","6d972c12-ef4f-4967-baa7-815328c4c025","{""num_scrambled_semantic"":""8"",""num_scrambled_causal"":""4"",""num_scrambled_schematic"":""4"",""participantId"":""65A833506FEC4D9E8CD4A26ABA06D2EA"",""assignmentId"":""bc14600e-df7e-4975-83bd-240777c53a68"",""projectId"":""6d972c12-ef4f-4967-baa7-815328c4c025""}","https://test12345.live/?num_scrambled_semantic=8&num_scrambled_causal=4&num_scrambled_schematic=4&participantId=65A833506FEC4D9E8CD4A26ABA06D2EA&assignmentId=bc14600e-df7e-4975-83bd-240777c53a68&projectId=6d972c12-ef4f-4967-baa7-815328c4c025","65A833506FEC4D9E8CD4A26ABA06D2EA-2025-08-07-17-57-49","","537","","images/semantic_sequence/using_technology_semantic/using_technology_semantic_1.png","0","",""
"","","","","","image-button-response","112","687384","0.0-14.0-1.0-2.7","65A833506FEC4D9E8CD4A26ABA06D2EA","65A833506FEC4D9E8CD4A26ABA06D2EA","bc14600e-df7e-4975-83bd-240777c53a68","6d972c12-ef4f-4967-baa7-815328c4c025","{""num_scrambled_semantic"":""8"",""num_scrambled_causal"":""4"",""num_scrambled_schematic"":""4"",""participantId"":""65A833506FEC4D9E8CD4A26ABA06D2EA"",""assignmentId"":""bc14600e-df7e-4975-83bd-240777c53a68"",""projectId"":""6d972c12-ef4f-4967-baa7-815328c4c025""}","https://test12345.live/?num_scrambled_semantic=8&num_scrambled_causal=4&num_scrambled_schematic=4&participantId=65A833506FEC4D9E8CD4A26ABA06D2EA&assignmentId=bc14600e-df7e-4975-83bd-240777c53a68&projectId=6d972c12-ef4f-4967-baa7-815328c4c025","65A833506FEC4D9E8CD4A26ABA06D2EA-2025-08-07-17-57-49","","null","","[]","null","",""
"","","","","","image-button-response","113","691886","0.0-14.0-1.0-0.8","65A833506FEC4D9E8CD4A26ABA06D2EA","65A833506FEC4D9E8CD4A26ABA06D2EA","bc14600e-df7e-4975-83bd-240777c53a68","6d972c12-ef4f-4967-baa7-815328c4c025","{""num_scrambled_semantic"":""8"",""num_scrambled_causal"":""4"",""num_scrambled_schematic"":""4"",""participantId"":""65A833506FEC4D9E8CD4A26ABA06D2EA"",""assignmentId"":""bc14600e-df7e-4975-83bd-240777c53a68"",""projectId"":""6d972c12-ef4f-4967-baa7-815328c4c025""}","https://test12345.live/?num_scrambled_semantic=8&num_scrambled_causal=4&num_scrambled_schematic=4&participantId=65A833506FEC4D9E8CD4A26ABA06D2EA&assignmentId=bc14600e-df7e-4975-83bd-240777c53a68&projectId=6d972c12-ef4f-4967-baa7-815328c4c025","65A833506FEC4D9E8CD4A26ABA06D2EA-2025-08-07-17-57-49","","null","","images/semantic_sequence/using_technology_semantic/using_technology_semantic_7.png","null","",""
