"success","timeout","failed_images","failed_audio","failed_video","trial_type","trial_index","time_elapsed","internal_node_id","subject","subject_id","study_id","session_id","urlvar","current_url","audio_id","view_history","rt","device_id","stimulus","response","estimated_stimulus_onset","seq_name"
"true","false","[]","[]","[]","preload","0","2865","0.0-0.0","661962C31C8246FEAD9DBAD73795F583","661962C31C8246FEAD9DBAD73795F583","0198b9fc-d34c-7047-9336-6dfd6e2c45e2","0198b9d0-29d4-7df3-8625-4b4515841beb","{""num_scrambled_semantic"":""8"",""num_scrambled_causal"":""4"",""num_scrambled_schematic"":""4"",""participantId"":""661962C31C8246FEAD9DBAD73795F583"",""assignmentId"":""0198b9fc-d34c-7047-9336-6dfd6e2c45e2"",""projectId"":""0198b9d0-29d4-7df3-8625-4b4515841beb""}","https://test12345.live/?num_scrambled_semantic=8&num_scrambled_causal=4&num_scrambled_schematic=4&participantId=661962C31C8246FEAD9DBAD73795F583&assignmentId=0198b9fc-d34c-7047-9336-6dfd6e2c45e2&projectId=0198b9d0-29d4-7df3-8625-4b4515841beb","661962C31C8246FEAD9DBAD73795F583-2025-08-17-22-43-52","","","","","","",""
"","","","","","instructions","1","382805","0.0-1.0","661962C31C8246FEAD9DBAD73795F583","661962C31C8246FEAD9DBAD73795F583","0198b9fc-d34c-7047-9336-6dfd6e2c45e2","0198b9d0-29d4-7df3-8625-4b4515841beb","{""num_scrambled_semantic"":""8"",""num_scrambled_causal"":""4"",""num_scrambled_schematic"":""4"",""participantId"":""661962C31C8246FEAD9DBAD73795F583"",""assignmentId"":""0198b9fc-d34c-7047-9336-6dfd6e2c45e2"",""projectId"":""0198b9d0-29d4-7df3-8625-4b4515841beb""}","https://test12345.live/?num_scrambled_semantic=8&num_scrambled_causal=4&num_scrambled_schematic=4&participantId=661962C31C8246FEAD9DBAD73795F583&assignmentId=0198b9fc-d34c-7047-9336-6dfd6e2c45e2&projectId=0198b9d0-29d4-7df3-8625-4b4515841beb","661962C31C8246FEAD9DBAD73795F583-2025-08-17-22-43-52","[{""page_index"":0,""viewing_time"":379943}]","379945","","","","",""
"","","","","","instructions","2","427941","0.0-2.0","661962C31C8246FEAD9DBAD73795F583","661962C31C8246FEAD9DBAD73795F583","0198b9fc-d34c-7047-9336-6dfd6e2c45e2","0198b9d0-29d4-7df3-8625-4b4515841beb","{""num_scrambled_semantic"":""8"",""num_scrambled_causal"":""4"",""num_scrambled_schematic"":""4"",""participantId"":""661962C31C8246FEAD9DBAD73795F583"",""assignmentId"":""0198b9fc-d34c-7047-9336-6dfd6e2c45e2"",""projectId"":""0198b9d0-29d4-7df3-8625-4b4515841beb""}","https://test12345.live/?num_scrambled_semantic=8&num_scrambled_causal=4&num_scrambled_schematic=4&participantId=661962C31C8246FEAD9DBAD73795F583&assignmentId=0198b9fc-d34c-7047-9336-6dfd6e2c45e2&projectId=0198b9d0-29d4-7df3-8625-4b4515841beb","661962C31C8246FEAD9DBAD73795F583-2025-08-17-22-43-52","[{""page_index"":0,""viewing_time"":45134}]","45135","","","","",""
"true","","","","","fullscreen","3","433991","0.0-3.0","661962C31C8246FEAD9DBAD73795F583","661962C31C8246FEAD9DBAD73795F583","0198b9fc-d34c-7047-9336-6dfd6e2c45e2","0198b9d0-29d4-7df3-8625-4b4515841beb","{""num_scrambled_semantic"":""8"",""num_scrambled_causal"":""4"",""num_scrambled_schematic"":""4"",""participantId"":""661962C31C8246FEAD9DBAD73795F583"",""assignmentId"":""0198b9fc-d34c-7047-9336-6dfd6e2c45e2"",""projectId"":""0198b9d0-29d4-7df3-8625-4b4515841beb""}","https://test12345.live/?num_scrambled_semantic=8&num_scrambled_causal=4&num_scrambled_schematic=4&participantId=661962C31C8246FEAD9DBAD73795F583&assignmentId=0198b9fc-d34c-7047-9336-6dfd6e2c45e2&projectId=0198b9d0-29d4-7df3-8625-4b4515841beb","661962C31C8246FEAD9DBAD73795F583-2025-08-17-22-43-52","","5045","","","","",""
"","","","","","initialize-microphone","4","444604","0.0-4.0-0.0","661962C31C8246FEAD9DBAD73795F583","661962C31C8246FEAD9DBAD73795F583","0198b9fc-d34c-7047-9336-6dfd6e2c45e2","0198b9d0-29d4-7df3-8625-4b4515841beb","{""num_scrambled_semantic"":""8"",""num_scrambled_causal"":""4"",""num_scrambled_schematic"":""4"",""participantId"":""661962C31C8246FEAD9DBAD73795F583"",""assignmentId"":""0198b9fc-d34c-7047-9336-6dfd6e2c45e2"",""projectId"":""0198b9d0-29d4-7df3-8625-4b4515841beb""}","https://test12345.live/?num_scrambled_semantic=8&num_scrambled_causal=4&num_scrambled_schematic=4&participantId=661962C31C8246FEAD9DBAD73795F583&assignmentId=0198b9fc-d34c-7047-9336-6dfd6e2c45e2&projectId=0198b9d0-29d4-7df3-8625-4b4515841beb","661962C31C8246FEAD9DBAD73795F583-2025-08-17-22-43-52","","","8865e162a1135fc43288a815786923cd247a566ca88bee090a9903280ae3929c","","","",""
"","","","","","html-audio-response","5","469286","0.0-4.0-1.0","661962C31C8246FEAD9DBAD73795F583","661962C31C8246FEAD9DBAD73795F583","0198b9fc-d34c-7047-9336-6dfd6e2c45e2","0198b9d0-29d4-7df3-8625-4b4515841beb","{""num_scrambled_semantic"":""8"",""num_scrambled_causal"":""4"",""num_scrambled_schematic"":""4"",""participantId"":""661962C31C8246FEAD9DBAD73795F583"",""assignmentId"":""0198b9fc-d34c-7047-9336-6dfd6e2c45e2"",""projectId"":""0198b9d0-29d4-7df3-8625-4b4515841beb""}","https://test12345.live/?num_scrambled_semantic=8&num_scrambled_causal=4&num_scrambled_schematic=4&participantId=661962C31C8246FEAD9DBAD73795F583&assignmentId=0198b9fc-d34c-7047-9336-6dfd6e2c45e2&projectId=0198b9d0-29d4-7df3-8625-4b4515841beb","661962C31C8246FEAD9DBAD73795F583-2025-08-17-22-43-52","","7329","","<span style=""color: red; font-size: 24px""> NOW RECORDING</span>
        <p>Please test Microphone</p>","","7",""
"","","","","","html-button-response","6","471388","0.0-4.0-2.0","661962C31C8246FEAD9DBAD73795F583","661962C31C8246FEAD9DBAD73795F583","0198b9fc-d34c-7047-9336-6dfd6e2c45e2","0198b9d0-29d4-7df3-8625-4b4515841beb","{""num_scrambled_semantic"":""8"",""num_scrambled_causal"":""4"",""num_scrambled_schematic"":""4"",""participantId"":""661962C31C8246FEAD9DBAD73795F583"",""assignmentId"":""0198b9fc-d34c-7047-9336-6dfd6e2c45e2"",""projectId"":""0198b9d0-29d4-7df3-8625-4b4515841beb""}","https://test12345.live/?num_scrambled_semantic=8&num_scrambled_causal=4&num_scrambled_schematic=4&participantId=661962C31C8246FEAD9DBAD73795F583&assignmentId=0198b9fc-d34c-7047-9336-6dfd6e2c45e2&projectId=0198b9d0-29d4-7df3-8625-4b4515841beb","661962C31C8246FEAD9DBAD73795F583-2025-08-17-22-43-52","","2100","","<p style=""font-size:48px; color:red;"">Is Microphone OK?</p>","1","",""
"","","","","","instructions","7","503349","0.0-5.0","661962C31C8246FEAD9DBAD73795F583","661962C31C8246FEAD9DBAD73795F583","0198b9fc-d34c-7047-9336-6dfd6e2c45e2","0198b9d0-29d4-7df3-8625-4b4515841beb","{""num_scrambled_semantic"":""8"",""num_scrambled_causal"":""4"",""num_scrambled_schematic"":""4"",""participantId"":""661962C31C8246FEAD9DBAD73795F583"",""assignmentId"":""0198b9fc-d34c-7047-9336-6dfd6e2c45e2"",""projectId"":""0198b9d0-29d4-7df3-8625-4b4515841beb""}","https://test12345.live/?num_scrambled_semantic=8&num_scrambled_causal=4&num_scrambled_schematic=4&participantId=661962C31C8246FEAD9DBAD73795F583&assignmentId=0198b9fc-d34c-7047-9336-6dfd6e2c45e2&projectId=0198b9d0-29d4-7df3-8625-4b4515841beb","661962C31C8246FEAD9DBAD73795F583-2025-08-17-22-43-52","[{""page_index"":0,""viewing_time"":9430},{""page_index"":1,""viewing_time"":22583}]","32014","","","","",""
"","","","","","image-button-response","8","509358","0.0-6.0-0.0","661962C31C8246FEAD9DBAD73795F583","661962C31C8246FEAD9DBAD73795F583","0198b9fc-d34c-7047-9336-6dfd6e2c45e2","0198b9d0-29d4-7df3-8625-4b4515841beb","{""num_scrambled_semantic"":""8"",""num_scrambled_causal"":""4"",""num_scrambled_schematic"":""4"",""participantId"":""661962C31C8246FEAD9DBAD73795F583"",""assignmentId"":""0198b9fc-d34c-7047-9336-6dfd6e2c45e2"",""projectId"":""0198b9d0-29d4-7df3-8625-4b4515841beb""}","https://test12345.live/?num_scrambled_semantic=8&num_scrambled_causal=4&num_scrambled_schematic=4&participantId=661962C31C8246FEAD9DBAD73795F583&assignmentId=0198b9fc-d34c-7047-9336-6dfd6e2c45e2&projectId=0198b9d0-29d4-7df3-8625-4b4515841beb","661962C31C8246FEAD9DBAD73795F583-2025-08-17-22-43-52","","null","","images/instructions/movie_0.png","null","",""
"","","","","","image-button-response","9","513865","0.0-6.0-1.0-0.0","661962C31C8246FEAD9DBAD73795F583","661962C31C8246FEAD9DBAD73795F583","0198b9fc-d34c-7047-9336-6dfd6e2c45e2","0198b9d0-29d4-7df3-8625-4b4515841beb","{""num_scrambled_semantic"":""8"",""num_scrambled_causal"":""4"",""num_scrambled_schematic"":""4"",""participantId"":""661962C31C8246FEAD9DBAD73795F583"",""assignmentId"":""0198b9fc-d34c-7047-9336-6dfd6e2c45e2"",""projectId"":""0198b9d0-29d4-7df3-8625-4b4515841beb""}","https://test12345.live/?num_scrambled_semantic=8&num_scrambled_causal=4&num_scrambled_schematic=4&participantId=661962C31C8246FEAD9DBAD73795F583&assignmentId=0198b9fc-d34c-7047-9336-6dfd6e2c45e2&projectId=0198b9d0-29d4-7df3-8625-4b4515841beb","661962C31C8246FEAD9DBAD73795F583-2025-08-17-22-43-52","","null","","images/instructions/movie_1.png","null","",""
"","","","","","image-button-response","10","517334","0.0-6.0-1.0-1.0","661962C31C8246FEAD9DBAD73795F583","661962C31C8246FEAD9DBAD73795F583","0198b9fc-d34c-7047-9336-6dfd6e2c45e2","0198b9d0-29d4-7df3-8625-4b4515841beb","{""num_scrambled_semantic"":""8"",""num_scrambled_causal"":""4"",""num_scrambled_schematic"":""4"",""participantId"":""661962C31C8246FEAD9DBAD73795F583"",""assignmentId"":""0198b9fc-d34c-7047-9336-6dfd6e2c45e2"",""projectId"":""0198b9d0-29d4-7df3-8625-4b4515841beb""}","https://test12345.live/?num_scrambled_semantic=8&num_scrambled_causal=4&num_scrambled_schematic=4&participantId=661962C31C8246FEAD9DBAD73795F583&assignmentId=0198b9fc-d34c-7047-9336-6dfd6e2c45e2&projectId=0198b9d0-29d4-7df3-8625-4b4515841beb","661962C31C8246FEAD9DBAD73795F583-2025-08-17-22-43-52","","3465","","images/instructions/movie_1.png","0","",""
"","","","","","image-button-response","11","522741","0.0-6.0-1.0-2.0","661962C31C8246FEAD9DBAD73795F583","661962C31C8246FEAD9DBAD73795F583","0198b9fc-d34c-7047-9336-6dfd6e2c45e2","0198b9d0-29d4-7df3-8625-4b4515841beb","{""num_scrambled_semantic"":""8"",""num_scrambled_causal"":""4"",""num_scrambled_schematic"":""4"",""participantId"":""661962C31C8246FEAD9DBAD73795F583"",""assignmentId"":""0198b9fc-d34c-7047-9336-6dfd6e2c45e2"",""projectId"":""0198b9d0-29d4-7df3-8625-4b4515841beb""}","https://test12345.live/?num_scrambled_semantic=8&num_scrambled_causal=4&num_scrambled_schematic=4&participantId=661962C31C8246FEAD9DBAD73795F583&assignmentId=0198b9fc-d34c-7047-9336-6dfd6e2c45e2&projectId=0198b9d0-29d4-7df3-8625-4b4515841beb","661962C31C8246FEAD9DBAD73795F583-2025-08-17-22-43-52","","null","","[]","null","",""
"","","","","","image-button-response","12","527248","0.0-6.0-1.0-0.1","661962C31C8246FEAD9DBAD73795F583","661962C31C8246FEAD9DBAD73795F583","0198b9fc-d34c-7047-9336-6dfd6e2c45e2","0198b9d0-29d4-7df3-8625-4b4515841beb","{""num_scrambled_semantic"":""8"",""num_scrambled_causal"":""4"",""num_scrambled_schematic"":""4"",""participantId"":""661962C31C8246FEAD9DBAD73795F583"",""assignmentId"":""0198b9fc-d34c-7047-9336-6dfd6e2c45e2"",""projectId"":""0198b9d0-29d4-7df3-8625-4b4515841beb""}","https://test12345.live/?num_scrambled_semantic=8&num_scrambled_causal=4&num_scrambled_schematic=4&participantId=661962C31C8246FEAD9DBAD73795F583&assignmentId=0198b9fc-d34c-7047-9336-6dfd6e2c45e2&projectId=0198b9d0-29d4-7df3-8625-4b4515841beb","661962C31C8246FEAD9DBAD73795F583-2025-08-17-22-43-52","","null","","images/instructions/movie_2.png","null","",""
"","","","","","image-button-response","13","531256","0.0-6.0-1.0-1.1","661962C31C8246FEAD9DBAD73795F583","661962C31C8246FEAD9DBAD73795F583","0198b9fc-d34c-7047-9336-6dfd6e2c45e2","0198b9d0-29d4-7df3-8625-4b4515841beb","{""num_scrambled_semantic"":""8"",""num_scrambled_causal"":""4"",""num_scrambled_schematic"":""4"",""participantId"":""661962C31C8246FEAD9DBAD73795F583"",""assignmentId"":""0198b9fc-d34c-7047-9336-6dfd6e2c45e2"",""projectId"":""0198b9d0-29d4-7df3-8625-4b4515841beb""}","https://test12345.live/?num_scrambled_semantic=8&num_scrambled_causal=4&num_scrambled_schematic=4&participantId=661962C31C8246FEAD9DBAD73795F583&assignmentId=0198b9fc-d34c-7047-9336-6dfd6e2c45e2&projectId=0198b9d0-29d4-7df3-8625-4b4515841beb","661962C31C8246FEAD9DBAD73795F583-2025-08-17-22-43-52","","null","","images/instructions/movie_2.png","null","",""
"","","","","","image-button-response","14","536660","0.0-6.0-1.0-2.1","661962C31C8246FEAD9DBAD73795F583","661962C31C8246FEAD9DBAD73795F583","0198b9fc-d34c-7047-9336-6dfd6e2c45e2","0198b9d0-29d4-7df3-8625-4b4515841beb","{""num_scrambled_semantic"":""8"",""num_scrambled_causal"":""4"",""num_scrambled_schematic"":""4"",""participantId"":""661962C31C8246FEAD9DBAD73795F583"",""assignmentId"":""0198b9fc-d34c-7047-9336-6dfd6e2c45e2"",""projectId"":""0198b9d0-29d4-7df3-8625-4b4515841beb""}","https://test12345.live/?num_scrambled_semantic=8&num_scrambled_causal=4&num_scrambled_schematic=4&participantId=661962C31C8246FEAD9DBAD73795F583&assignmentId=0198b9fc-d34c-7047-9336-6dfd6e2c45e2&projectId=0198b9d0-29d4-7df3-8625-4b4515841beb","661962C31C8246FEAD9DBAD73795F583-2025-08-17-22-43-52","","null","","[]","null","",""
"","","","","","image-button-response","15","541162","0.0-6.0-1.0-0.2","661962C31C8246FEAD9DBAD73795F583","661962C31C8246FEAD9DBAD73795F583","0198b9fc-d34c-7047-9336-6dfd6e2c45e2","0198b9d0-29d4-7df3-8625-4b4515841beb","{""num_scrambled_semantic"":""8"",""num_scrambled_causal"":""4"",""num_scrambled_schematic"":""4"",""participantId"":""661962C31C8246FEAD9DBAD73795F583"",""assignmentId"":""0198b9fc-d34c-7047-9336-6dfd6e2c45e2"",""projectId"":""0198b9d0-29d4-7df3-8625-4b4515841beb""}","https://test12345.live/?num_scrambled_semantic=8&num_scrambled_causal=4&num_scrambled_schematic=4&participantId=661962C31C8246FEAD9DBAD73795F583&assignmentId=0198b9fc-d34c-7047-9336-6dfd6e2c45e2&projectId=0198b9d0-29d4-7df3-8625-4b4515841beb","661962C31C8246FEAD9DBAD73795F583-2025-08-17-22-43-52","","null","","images/instructions/movie_3.png","null","",""
"","","","","","image-button-response","16","542334","0.0-6.0-1.0-1.2","661962C31C8246FEAD9DBAD73795F583","661962C31C8246FEAD9DBAD73795F583","0198b9fc-d34c-7047-9336-6dfd6e2c45e2","0198b9d0-29d4-7df3-8625-4b4515841beb","{""num_scrambled_semantic"":""8"",""num_scrambled_causal"":""4"",""num_scrambled_schematic"":""4"",""participantId"":""661962C31C8246FEAD9DBAD73795F583"",""assignmentId"":""0198b9fc-d34c-7047-9336-6dfd6e2c45e2"",""projectId"":""0198b9d0-29d4-7df3-8625-4b4515841beb""}","https://test12345.live/?num_scrambled_semantic=8&num_scrambled_causal=4&num_scrambled_schematic=4&participantId=661962C31C8246FEAD9DBAD73795F583&assignmentId=0198b9fc-d34c-7047-9336-6dfd6e2c45e2&projectId=0198b9d0-29d4-7df3-8625-4b4515841beb","661962C31C8246FEAD9DBAD73795F583-2025-08-17-22-43-52","","1169","","images/instructions/movie_3.png","0","",""
"","","","","","image-button-response","17","547739","0.0-6.0-1.0-2.2","661962C31C8246FEAD9DBAD73795F583","661962C31C8246FEAD9DBAD73795F583","0198b9fc-d34c-7047-9336-6dfd6e2c45e2","0198b9d0-29d4-7df3-8625-4b4515841beb","{""num_scrambled_semantic"":""8"",""num_scrambled_causal"":""4"",""num_scrambled_schematic"":""4"",""participantId"":""661962C31C8246FEAD9DBAD73795F583"",""assignmentId"":""0198b9fc-d34c-7047-9336-6dfd6e2c45e2"",""projectId"":""0198b9d0-29d4-7df3-8625-4b4515841beb""}","https://test12345.live/?num_scrambled_semantic=8&num_scrambled_causal=4&num_scrambled_schematic=4&participantId=661962C31C8246FEAD9DBAD73795F583&assignmentId=0198b9fc-d34c-7047-9336-6dfd6e2c45e2&projectId=0198b9d0-29d4-7df3-8625-4b4515841beb","661962C31C8246FEAD9DBAD73795F583-2025-08-17-22-43-52","","null","","[]","null","",""
"","","","","","image-button-response","18","552241","0.0-6.0-1.0-0.3","661962C31C8246FEAD9DBAD73795F583","661962C31C8246FEAD9DBAD73795F583","0198b9fc-d34c-7047-9336-6dfd6e2c45e2","0198b9d0-29d4-7df3-8625-4b4515841beb","{""num_scrambled_semantic"":""8"",""num_scrambled_causal"":""4"",""num_scrambled_schematic"":""4"",""participantId"":""661962C31C8246FEAD9DBAD73795F583"",""assignmentId"":""0198b9fc-d34c-7047-9336-6dfd6e2c45e2"",""projectId"":""0198b9d0-29d4-7df3-8625-4b4515841beb""}","https://test12345.live/?num_scrambled_semantic=8&num_scrambled_causal=4&num_scrambled_schematic=4&participantId=661962C31C8246FEAD9DBAD73795F583&assignmentId=0198b9fc-d34c-7047-9336-6dfd6e2c45e2&projectId=0198b9d0-29d4-7df3-8625-4b4515841beb","661962C31C8246FEAD9DBAD73795F583-2025-08-17-22-43-52","","null","","images/instructions/movie_4.png","null","",""
"","","","","","image-button-response","19","553599","0.0-6.0-1.0-1.3","661962C31C8246FEAD9DBAD73795F583","661962C31C8246FEAD9DBAD73795F583","0198b9fc-d34c-7047-9336-6dfd6e2c45e2","0198b9d0-29d4-7df3-8625-4b4515841beb","{""num_scrambled_semantic"":""8"",""num_scrambled_causal"":""4"",""num_scrambled_schematic"":""4"",""participantId"":""661962C31C8246FEAD9DBAD73795F583"",""assignmentId"":""0198b9fc-d34c-7047-9336-6dfd6e2c45e2"",""projectId"":""0198b9d0-29d4-7df3-8625-4b4515841beb""}","https://test12345.live/?num_scrambled_semantic=8&num_scrambled_causal=4&num_scrambled_schematic=4&participantId=661962C31C8246FEAD9DBAD73795F583&assignmentId=0198b9fc-d34c-7047-9336-6dfd6e2c45e2&projectId=0198b9d0-29d4-7df3-8625-4b4515841beb","661962C31C8246FEAD9DBAD73795F583-2025-08-17-22-43-52","","1356","","images/instructions/movie_4.png","0","",""
"","","","","","image-button-response","20","559006","0.0-6.0-1.0-2.3","661962C31C8246FEAD9DBAD73795F583","661962C31C8246FEAD9DBAD73795F583","0198b9fc-d34c-7047-9336-6dfd6e2c45e2","0198b9d0-29d4-7df3-8625-4b4515841beb","{""num_scrambled_semantic"":""8"",""num_scrambled_causal"":""4"",""num_scrambled_schematic"":""4"",""participantId"":""661962C31C8246FEAD9DBAD73795F583"",""assignmentId"":""0198b9fc-d34c-7047-9336-6dfd6e2c45e2"",""projectId"":""0198b9d0-29d4-7df3-8625-4b4515841beb""}","https://test12345.live/?num_scrambled_semantic=8&num_scrambled_causal=4&num_scrambled_schematic=4&participantId=661962C31C8246FEAD9DBAD73795F583&assignmentId=0198b9fc-d34c-7047-9336-6dfd6e2c45e2&projectId=0198b9d0-29d4-7df3-8625-4b4515841beb","661962C31C8246FEAD9DBAD73795F583-2025-08-17-22-43-52","","null","","[]","null","",""
"","","","","","instructions","21","571716","0.0-7.0","661962C31C8246FEAD9DBAD73795F583","661962C31C8246FEAD9DBAD73795F583","0198b9fc-d34c-7047-9336-6dfd6e2c45e2","0198b9d0-29d4-7df3-8625-4b4515841beb","{""num_scrambled_semantic"":""8"",""num_scrambled_causal"":""4"",""num_scrambled_schematic"":""4"",""participantId"":""661962C31C8246FEAD9DBAD73795F583"",""assignmentId"":""0198b9fc-d34c-7047-9336-6dfd6e2c45e2"",""projectId"":""0198b9d0-29d4-7df3-8625-4b4515841beb""}","https://test12345.live/?num_scrambled_semantic=8&num_scrambled_causal=4&num_scrambled_schematic=4&participantId=661962C31C8246FEAD9DBAD73795F583&assignmentId=0198b9fc-d34c-7047-9336-6dfd6e2c45e2&projectId=0198b9d0-29d4-7df3-8625-4b4515841beb","661962C31C8246FEAD9DBAD73795F583-2025-08-17-22-43-52","[{""page_index"":0,""viewing_time"":10542},{""page_index"":1,""viewing_time"":2166}]","12709","","","","",""
"","","","","","html-audio-response","22","634398","0.0-8.0","661962C31C8246FEAD9DBAD73795F583","661962C31C8246FEAD9DBAD73795F583","0198b9fc-d34c-7047-9336-6dfd6e2c45e2","0198b9d0-29d4-7df3-8625-4b4515841beb","{""num_scrambled_semantic"":""8"",""num_scrambled_causal"":""4"",""num_scrambled_schematic"":""4"",""participantId"":""661962C31C8246FEAD9DBAD73795F583"",""assignmentId"":""0198b9fc-d34c-7047-9336-6dfd6e2c45e2"",""projectId"":""0198b9d0-29d4-7df3-8625-4b4515841beb""}","https://test12345.live/?num_scrambled_semantic=8&num_scrambled_causal=4&num_scrambled_schematic=4&participantId=661962C31C8246FEAD9DBAD73795F583&assignmentId=0198b9fc-d34c-7047-9336-6dfd6e2c45e2&projectId=0198b9d0-29d4-7df3-8625-4b4515841beb","661962C31C8246FEAD9DBAD73795F583-2025-08-17-22-43-52","","27781","","[""<span style=\""color: red; font-size: 24px\""> NOW RECORDING</span><p>Please say out loud all the images you saw, as many as you can remember. The images can be said in any order.</p>""]","","14",""
"","","","","","instructions","23","638448","0.0-9.0","661962C31C8246FEAD9DBAD73795F583","661962C31C8246FEAD9DBAD73795F583","0198b9fc-d34c-7047-9336-6dfd6e2c45e2","0198b9d0-29d4-7df3-8625-4b4515841beb","{""num_scrambled_semantic"":""8"",""num_scrambled_causal"":""4"",""num_scrambled_schematic"":""4"",""participantId"":""661962C31C8246FEAD9DBAD73795F583"",""assignmentId"":""0198b9fc-d34c-7047-9336-6dfd6e2c45e2"",""projectId"":""0198b9d0-29d4-7df3-8625-4b4515841beb""}","https://test12345.live/?num_scrambled_semantic=8&num_scrambled_causal=4&num_scrambled_schematic=4&participantId=661962C31C8246FEAD9DBAD73795F583&assignmentId=0198b9fc-d34c-7047-9336-6dfd6e2c45e2&projectId=0198b9d0-29d4-7df3-8625-4b4515841beb","661962C31C8246FEAD9DBAD73795F583-2025-08-17-22-43-52","[{""page_index"":0,""viewing_time"":4046}]","4047","","","","",""
"","","","","","image-button-response","24","644455","0.0-10.0-0.0","661962C31C8246FEAD9DBAD73795F583","661962C31C8246FEAD9DBAD73795F583","0198b9fc-d34c-7047-9336-6dfd6e2c45e2","0198b9d0-29d4-7df3-8625-4b4515841beb","{""num_scrambled_semantic"":""8"",""num_scrambled_causal"":""4"",""num_scrambled_schematic"":""4"",""participantId"":""661962C31C8246FEAD9DBAD73795F583"",""assignmentId"":""0198b9fc-d34c-7047-9336-6dfd6e2c45e2"",""projectId"":""0198b9d0-29d4-7df3-8625-4b4515841beb""}","https://test12345.live/?num_scrambled_semantic=8&num_scrambled_causal=4&num_scrambled_schematic=4&participantId=661962C31C8246FEAD9DBAD73795F583&assignmentId=0198b9fc-d34c-7047-9336-6dfd6e2c45e2&projectId=0198b9d0-29d4-7df3-8625-4b4515841beb","661962C31C8246FEAD9DBAD73795F583-2025-08-17-22-43-52","","null","","images/causal_sequence/the_performance_causal/the_performance_causal_0.png","null","",""
"","","","","","image-button-response","25","648959","0.0-10.0-1.0-0.0","661962C31C8246FEAD9DBAD73795F583","661962C31C8246FEAD9DBAD73795F583","0198b9fc-d34c-7047-9336-6dfd6e2c45e2","0198b9d0-29d4-7df3-8625-4b4515841beb","{""num_scrambled_semantic"":""8"",""num_scrambled_causal"":""4"",""num_scrambled_schematic"":""4"",""participantId"":""661962C31C8246FEAD9DBAD73795F583"",""assignmentId"":""0198b9fc-d34c-7047-9336-6dfd6e2c45e2"",""projectId"":""0198b9d0-29d4-7df3-8625-4b4515841beb""}","https://test12345.live/?num_scrambled_semantic=8&num_scrambled_causal=4&num_scrambled_schematic=4&participantId=661962C31C8246FEAD9DBAD73795F583&assignmentId=0198b9fc-d34c-7047-9336-6dfd6e2c45e2&projectId=0198b9d0-29d4-7df3-8625-4b4515841beb","661962C31C8246FEAD9DBAD73795F583-2025-08-17-22-43-52","","null","","images/causal_sequence/the_performance_causal/the_performance_causal_2.png","null","",""
"","","","","","image-button-response","26","650582","0.0-10.0-1.0-1.0","661962C31C8246FEAD9DBAD73795F583","661962C31C8246FEAD9DBAD73795F583","0198b9fc-d34c-7047-9336-6dfd6e2c45e2","0198b9d0-29d4-7df3-8625-4b4515841beb","{""num_scrambled_semantic"":""8"",""num_scrambled_causal"":""4"",""num_scrambled_schematic"":""4"",""participantId"":""661962C31C8246FEAD9DBAD73795F583"",""assignmentId"":""0198b9fc-d34c-7047-9336-6dfd6e2c45e2"",""projectId"":""0198b9d0-29d4-7df3-8625-4b4515841beb""}","https://test12345.live/?num_scrambled_semantic=8&num_scrambled_causal=4&num_scrambled_schematic=4&participantId=661962C31C8246FEAD9DBAD73795F583&assignmentId=0198b9fc-d34c-7047-9336-6dfd6e2c45e2&projectId=0198b9d0-29d4-7df3-8625-4b4515841beb","661962C31C8246FEAD9DBAD73795F583-2025-08-17-22-43-52","","1621","","images/causal_sequence/the_performance_causal/the_performance_causal_2.png","0","",""
"","","","","","image-button-response","27","655988","0.0-10.0-1.0-2.0","661962C31C8246FEAD9DBAD73795F583","661962C31C8246FEAD9DBAD73795F583","0198b9fc-d34c-7047-9336-6dfd6e2c45e2","0198b9d0-29d4-7df3-8625-4b4515841beb","{""num_scrambled_semantic"":""8"",""num_scrambled_causal"":""4"",""num_scrambled_schematic"":""4"",""participantId"":""661962C31C8246FEAD9DBAD73795F583"",""assignmentId"":""0198b9fc-d34c-7047-9336-6dfd6e2c45e2"",""projectId"":""0198b9d0-29d4-7df3-8625-4b4515841beb""}","https://test12345.live/?num_scrambled_semantic=8&num_scrambled_causal=4&num_scrambled_schematic=4&participantId=661962C31C8246FEAD9DBAD73795F583&assignmentId=0198b9fc-d34c-7047-9336-6dfd6e2c45e2&projectId=0198b9d0-29d4-7df3-8625-4b4515841beb","661962C31C8246FEAD9DBAD73795F583-2025-08-17-22-43-52","","null","","[]","null","",""
"","","","","","image-button-response","28","660494","0.0-10.0-1.0-0.1","661962C31C8246FEAD9DBAD73795F583","661962C31C8246FEAD9DBAD73795F583","0198b9fc-d34c-7047-9336-6dfd6e2c45e2","0198b9d0-29d4-7df3-8625-4b4515841beb","{""num_scrambled_semantic"":""8"",""num_scrambled_causal"":""4"",""num_scrambled_schematic"":""4"",""participantId"":""661962C31C8246FEAD9DBAD73795F583"",""assignmentId"":""0198b9fc-d34c-7047-9336-6dfd6e2c45e2"",""projectId"":""0198b9d0-29d4-7df3-8625-4b4515841beb""}","https://test12345.live/?num_scrambled_semantic=8&num_scrambled_causal=4&num_scrambled_schematic=4&participantId=661962C31C8246FEAD9DBAD73795F583&assignmentId=0198b9fc-d34c-7047-9336-6dfd6e2c45e2&projectId=0198b9d0-29d4-7df3-8625-4b4515841beb","661962C31C8246FEAD9DBAD73795F583-2025-08-17-22-43-52","","null","","images/causal_sequence/the_performance_causal/the_performance_causal_ten.png","null","",""
"","","","","","image-button-response","29","661666","0.0-10.0-1.0-1.1","661962C31C8246FEAD9DBAD73795F583","661962C31C8246FEAD9DBAD73795F583","0198b9fc-d34c-7047-9336-6dfd6e2c45e2","0198b9d0-29d4-7df3-8625-4b4515841beb","{""num_scrambled_semantic"":""8"",""num_scrambled_causal"":""4"",""num_scrambled_schematic"":""4"",""participantId"":""661962C31C8246FEAD9DBAD73795F583"",""assignmentId"":""0198b9fc-d34c-7047-9336-6dfd6e2c45e2"",""projectId"":""0198b9d0-29d4-7df3-8625-4b4515841beb""}","https://test12345.live/?num_scrambled_semantic=8&num_scrambled_causal=4&num_scrambled_schematic=4&participantId=661962C31C8246FEAD9DBAD73795F583&assignmentId=0198b9fc-d34c-7047-9336-6dfd6e2c45e2&projectId=0198b9d0-29d4-7df3-8625-4b4515841beb","661962C31C8246FEAD9DBAD73795F583-2025-08-17-22-43-52","","1169","","images/causal_sequence/the_performance_causal/the_performance_causal_ten.png","0","",""
"","","","","","image-button-response","30","667074","0.0-10.0-1.0-2.1","661962C31C8246FEAD9DBAD73795F583","661962C31C8246FEAD9DBAD73795F583","0198b9fc-d34c-7047-9336-6dfd6e2c45e2","0198b9d0-29d4-7df3-8625-4b4515841beb","{""num_scrambled_semantic"":""8"",""num_scrambled_causal"":""4"",""num_scrambled_schematic"":""4"",""participantId"":""661962C31C8246FEAD9DBAD73795F583"",""assignmentId"":""0198b9fc-d34c-7047-9336-6dfd6e2c45e2"",""projectId"":""0198b9d0-29d4-7df3-8625-4b4515841beb""}","https://test12345.live/?num_scrambled_semantic=8&num_scrambled_causal=4&num_scrambled_schematic=4&participantId=661962C31C8246FEAD9DBAD73795F583&assignmentId=0198b9fc-d34c-7047-9336-6dfd6e2c45e2&projectId=0198b9d0-29d4-7df3-8625-4b4515841beb","661962C31C8246FEAD9DBAD73795F583-2025-08-17-22-43-52","","null","","[]","null","",""
"","","","","","image-button-response","31","671581","0.0-10.0-1.0-0.2","661962C31C8246FEAD9DBAD73795F583","661962C31C8246FEAD9DBAD73795F583","0198b9fc-d34c-7047-9336-6dfd6e2c45e2","0198b9d0-29d4-7df3-8625-4b4515841beb","{""num_scrambled_semantic"":""8"",""num_scrambled_causal"":""4"",""num_scrambled_schematic"":""4"",""participantId"":""661962C31C8246FEAD9DBAD73795F583"",""assignmentId"":""0198b9fc-d34c-7047-9336-6dfd6e2c45e2"",""projectId"":""0198b9d0-29d4-7df3-8625-4b4515841beb""}","https://test12345.live/?num_scrambled_semantic=8&num_scrambled_causal=4&num_scrambled_schematic=4&participantId=661962C31C8246FEAD9DBAD73795F583&assignmentId=0198b9fc-d34c-7047-9336-6dfd6e2c45e2&projectId=0198b9d0-29d4-7df3-8625-4b4515841beb","661962C31C8246FEAD9DBAD73795F583-2025-08-17-22-43-52","","null","","images/causal_sequence/the_performance_causal/the_performance_causal_4.png","null","",""
"","","","","","image-button-response","32","675181","0.0-10.0-1.0-1.2","661962C31C8246FEAD9DBAD73795F583","661962C31C8246FEAD9DBAD73795F583","0198b9fc-d34c-7047-9336-6dfd6e2c45e2","0198b9d0-29d4-7df3-8625-4b4515841beb","{""num_scrambled_semantic"":""8"",""num_scrambled_causal"":""4"",""num_scrambled_schematic"":""4"",""participantId"":""661962C31C8246FEAD9DBAD73795F583"",""assignmentId"":""0198b9fc-d34c-7047-9336-6dfd6e2c45e2"",""projectId"":""0198b9d0-29d4-7df3-8625-4b4515841beb""}","https://test12345.live/?num_scrambled_semantic=8&num_scrambled_causal=4&num_scrambled_schematic=4&participantId=661962C31C8246FEAD9DBAD73795F583&assignmentId=0198b9fc-d34c-7047-9336-6dfd6e2c45e2&projectId=0198b9d0-29d4-7df3-8625-4b4515841beb","661962C31C8246FEAD9DBAD73795F583-2025-08-17-22-43-52","","3597","","images/causal_sequence/the_performance_causal/the_performance_causal_4.png","0","",""
"","","","","","image-button-response","33","680587","0.0-10.0-1.0-2.2","661962C31C8246FEAD9DBAD73795F583","661962C31C8246FEAD9DBAD73795F583","0198b9fc-d34c-7047-9336-6dfd6e2c45e2","0198b9d0-29d4-7df3-8625-4b4515841beb","{""num_scrambled_semantic"":""8"",""num_scrambled_causal"":""4"",""num_scrambled_schematic"":""4"",""participantId"":""661962C31C8246FEAD9DBAD73795F583"",""assignmentId"":""0198b9fc-d34c-7047-9336-6dfd6e2c45e2"",""projectId"":""0198b9d0-29d4-7df3-8625-4b4515841beb""}","https://test12345.live/?num_scrambled_semantic=8&num_scrambled_causal=4&num_scrambled_schematic=4&participantId=661962C31C8246FEAD9DBAD73795F583&assignmentId=0198b9fc-d34c-7047-9336-6dfd6e2c45e2&projectId=0198b9d0-29d4-7df3-8625-4b4515841beb","661962C31C8246FEAD9DBAD73795F583-2025-08-17-22-43-52","","null","","[]","null","",""
"","","","","","image-button-response","34","685092","0.0-10.0-1.0-0.3","661962C31C8246FEAD9DBAD73795F583","661962C31C8246FEAD9DBAD73795F583","0198b9fc-d34c-7047-9336-6dfd6e2c45e2","0198b9d0-29d4-7df3-8625-4b4515841beb","{""num_scrambled_semantic"":""8"",""num_scrambled_causal"":""4"",""num_scrambled_schematic"":""4"",""participantId"":""661962C31C8246FEAD9DBAD73795F583"",""assignmentId"":""0198b9fc-d34c-7047-9336-6dfd6e2c45e2"",""projectId"":""0198b9d0-29d4-7df3-8625-4b4515841beb""}","https://test12345.live/?num_scrambled_semantic=8&num_scrambled_causal=4&num_scrambled_schematic=4&participantId=661962C31C8246FEAD9DBAD73795F583&assignmentId=0198b9fc-d34c-7047-9336-6dfd6e2c45e2&projectId=0198b9d0-29d4-7df3-8625-4b4515841beb","661962C31C8246FEAD9DBAD73795F583-2025-08-17-22-43-52","","null","","images/causal_sequence/the_performance_causal/the_performance_causal_7.png","null","",""
"","","","","","image-button-response","35","687683","0.0-10.0-1.0-1.3","661962C31C8246FEAD9DBAD73795F583","661962C31C8246FEAD9DBAD73795F583","0198b9fc-d34c-7047-9336-6dfd6e2c45e2","0198b9d0-29d4-7df3-8625-4b4515841beb","{""num_scrambled_semantic"":""8"",""num_scrambled_causal"":""4"",""num_scrambled_schematic"":""4"",""participantId"":""661962C31C8246FEAD9DBAD73795F583"",""assignmentId"":""0198b9fc-d34c-7047-9336-6dfd6e2c45e2"",""projectId"":""0198b9d0-29d4-7df3-8625-4b4515841beb""}","https://test12345.live/?num_scrambled_semantic=8&num_scrambled_causal=4&num_scrambled_schematic=4&participantId=661962C31C8246FEAD9DBAD73795F583&assignmentId=0198b9fc-d34c-7047-9336-6dfd6e2c45e2&projectId=0198b9d0-29d4-7df3-8625-4b4515841beb","661962C31C8246FEAD9DBAD73795F583-2025-08-17-22-43-52","","2587","","images/causal_sequence/the_performance_causal/the_performance_causal_7.png","0","",""
"","","","","","image-button-response","36","693089","0.0-10.0-1.0-2.3","661962C31C8246FEAD9DBAD73795F583","661962C31C8246FEAD9DBAD73795F583","0198b9fc-d34c-7047-9336-6dfd6e2c45e2","0198b9d0-29d4-7df3-8625-4b4515841beb","{""num_scrambled_semantic"":""8"",""num_scrambled_causal"":""4"",""num_scrambled_schematic"":""4"",""participantId"":""661962C31C8246FEAD9DBAD73795F583"",""assignmentId"":""0198b9fc-d34c-7047-9336-6dfd6e2c45e2"",""projectId"":""0198b9d0-29d4-7df3-8625-4b4515841beb""}","https://test12345.live/?num_scrambled_semantic=8&num_scrambled_causal=4&num_scrambled_schematic=4&participantId=661962C31C8246FEAD9DBAD73795F583&assignmentId=0198b9fc-d34c-7047-9336-6dfd6e2c45e2&projectId=0198b9d0-29d4-7df3-8625-4b4515841beb","661962C31C8246FEAD9DBAD73795F583-2025-08-17-22-43-52","","null","","[]","null","",""
"","","","","","image-button-response","37","697594","0.0-10.0-1.0-0.4","661962C31C8246FEAD9DBAD73795F583","661962C31C8246FEAD9DBAD73795F583","0198b9fc-d34c-7047-9336-6dfd6e2c45e2","0198b9d0-29d4-7df3-8625-4b4515841beb","{""num_scrambled_semantic"":""8"",""num_scrambled_causal"":""4"",""num_scrambled_schematic"":""4"",""participantId"":""661962C31C8246FEAD9DBAD73795F583"",""assignmentId"":""0198b9fc-d34c-7047-9336-6dfd6e2c45e2"",""projectId"":""0198b9d0-29d4-7df3-8625-4b4515841beb""}","https://test12345.live/?num_scrambled_semantic=8&num_scrambled_causal=4&num_scrambled_schematic=4&participantId=661962C31C8246FEAD9DBAD73795F583&assignmentId=0198b9fc-d34c-7047-9336-6dfd6e2c45e2&projectId=0198b9d0-29d4-7df3-8625-4b4515841beb","661962C31C8246FEAD9DBAD73795F583-2025-08-17-22-43-52","","null","","images/causal_sequence/the_performance_causal/the_performance_causal_5.png","null","",""
"","","","","","image-button-response","38","699765","0.0-10.0-1.0-1.4","661962C31C8246FEAD9DBAD73795F583","661962C31C8246FEAD9DBAD73795F583","0198b9fc-d34c-7047-9336-6dfd6e2c45e2","0198b9d0-29d4-7df3-8625-4b4515841beb","{""num_scrambled_semantic"":""8"",""num_scrambled_causal"":""4"",""num_scrambled_schematic"":""4"",""participantId"":""661962C31C8246FEAD9DBAD73795F583"",""assignmentId"":""0198b9fc-d34c-7047-9336-6dfd6e2c45e2"",""projectId"":""0198b9d0-29d4-7df3-8625-4b4515841beb""}","https://test12345.live/?num_scrambled_semantic=8&num_scrambled_causal=4&num_scrambled_schematic=4&participantId=661962C31C8246FEAD9DBAD73795F583&assignmentId=0198b9fc-d34c-7047-9336-6dfd6e2c45e2&projectId=0198b9d0-29d4-7df3-8625-4b4515841beb","661962C31C8246FEAD9DBAD73795F583-2025-08-17-22-43-52","","2168","","images/causal_sequence/the_performance_causal/the_performance_causal_5.png","0","",""
"","","","","","image-button-response","39","705170","0.0-10.0-1.0-2.4","661962C31C8246FEAD9DBAD73795F583","661962C31C8246FEAD9DBAD73795F583","0198b9fc-d34c-7047-9336-6dfd6e2c45e2","0198b9d0-29d4-7df3-8625-4b4515841beb","{""num_scrambled_semantic"":""8"",""num_scrambled_causal"":""4"",""num_scrambled_schematic"":""4"",""participantId"":""661962C31C8246FEAD9DBAD73795F583"",""assignmentId"":""0198b9fc-d34c-7047-9336-6dfd6e2c45e2"",""projectId"":""0198b9d0-29d4-7df3-8625-4b4515841beb""}","https://test12345.live/?num_scrambled_semantic=8&num_scrambled_causal=4&num_scrambled_schematic=4&participantId=661962C31C8246FEAD9DBAD73795F583&assignmentId=0198b9fc-d34c-7047-9336-6dfd6e2c45e2&projectId=0198b9d0-29d4-7df3-8625-4b4515841beb","661962C31C8246FEAD9DBAD73795F583-2025-08-17-22-43-52","","null","","[]","null","",""
"","","","","","image-button-response","40","709675","0.0-10.0-1.0-0.5","661962C31C8246FEAD9DBAD73795F583","661962C31C8246FEAD9DBAD73795F583","0198b9fc-d34c-7047-9336-6dfd6e2c45e2","0198b9d0-29d4-7df3-8625-4b4515841beb","{""num_scrambled_semantic"":""8"",""num_scrambled_causal"":""4"",""num_scrambled_schematic"":""4"",""participantId"":""661962C31C8246FEAD9DBAD73795F583"",""assignmentId"":""0198b9fc-d34c-7047-9336-6dfd6e2c45e2"",""projectId"":""0198b9d0-29d4-7df3-8625-4b4515841beb""}","https://test12345.live/?num_scrambled_semantic=8&num_scrambled_causal=4&num_scrambled_schematic=4&participantId=661962C31C8246FEAD9DBAD73795F583&assignmentId=0198b9fc-d34c-7047-9336-6dfd6e2c45e2&projectId=0198b9d0-29d4-7df3-8625-4b4515841beb","661962C31C8246FEAD9DBAD73795F583-2025-08-17-22-43-52","","null","","images/causal_sequence/the_performance_causal/the_performance_causal_3.png","null","",""
"","","","","","image-button-response","41","711449","0.0-10.0-1.0-1.5","661962C31C8246FEAD9DBAD73795F583","661962C31C8246FEAD9DBAD73795F583","0198b9fc-d34c-7047-9336-6dfd6e2c45e2","0198b9d0-29d4-7df3-8625-4b4515841beb","{""num_scrambled_semantic"":""8"",""num_scrambled_causal"":""4"",""num_scrambled_schematic"":""4"",""participantId"":""661962C31C8246FEAD9DBAD73795F583"",""assignmentId"":""0198b9fc-d34c-7047-9336-6dfd6e2c45e2"",""projectId"":""0198b9d0-29d4-7df3-8625-4b4515841beb""}","https://test12345.live/?num_scrambled_semantic=8&num_scrambled_causal=4&num_scrambled_schematic=4&participantId=661962C31C8246FEAD9DBAD73795F583&assignmentId=0198b9fc-d34c-7047-9336-6dfd6e2c45e2&projectId=0198b9d0-29d4-7df3-8625-4b4515841beb","661962C31C8246FEAD9DBAD73795F583-2025-08-17-22-43-52","","1771","","images/causal_sequence/the_performance_causal/the_performance_causal_3.png","0","",""
"","","","","","image-button-response","42","716855","0.0-10.0-1.0-2.5","661962C31C8246FEAD9DBAD73795F583","661962C31C8246FEAD9DBAD73795F583","0198b9fc-d34c-7047-9336-6dfd6e2c45e2","0198b9d0-29d4-7df3-8625-4b4515841beb","{""num_scrambled_semantic"":""8"",""num_scrambled_causal"":""4"",""num_scrambled_schematic"":""4"",""participantId"":""661962C31C8246FEAD9DBAD73795F583"",""assignmentId"":""0198b9fc-d34c-7047-9336-6dfd6e2c45e2"",""projectId"":""0198b9d0-29d4-7df3-8625-4b4515841beb""}","https://test12345.live/?num_scrambled_semantic=8&num_scrambled_causal=4&num_scrambled_schematic=4&participantId=661962C31C8246FEAD9DBAD73795F583&assignmentId=0198b9fc-d34c-7047-9336-6dfd6e2c45e2&projectId=0198b9d0-29d4-7df3-8625-4b4515841beb","661962C31C8246FEAD9DBAD73795F583-2025-08-17-22-43-52","","null","","[]","null","",""
"","","","","","image-button-response","43","721362","0.0-10.0-1.0-0.6","661962C31C8246FEAD9DBAD73795F583","661962C31C8246FEAD9DBAD73795F583","0198b9fc-d34c-7047-9336-6dfd6e2c45e2","0198b9d0-29d4-7df3-8625-4b4515841beb","{""num_scrambled_semantic"":""8"",""num_scrambled_causal"":""4"",""num_scrambled_schematic"":""4"",""participantId"":""661962C31C8246FEAD9DBAD73795F583"",""assignmentId"":""0198b9fc-d34c-7047-9336-6dfd6e2c45e2"",""projectId"":""0198b9d0-29d4-7df3-8625-4b4515841beb""}","https://test12345.live/?num_scrambled_semantic=8&num_scrambled_causal=4&num_scrambled_schematic=4&participantId=661962C31C8246FEAD9DBAD73795F583&assignmentId=0198b9fc-d34c-7047-9336-6dfd6e2c45e2&projectId=0198b9d0-29d4-7df3-8625-4b4515841beb","661962C31C8246FEAD9DBAD73795F583-2025-08-17-22-43-52","","null","","images/causal_sequence/the_performance_causal/the_performance_causal_1.png","null","",""
"","","","","","image-button-response","44","722250","0.0-10.0-1.0-1.6","661962C31C8246FEAD9DBAD73795F583","661962C31C8246FEAD9DBAD73795F583","0198b9fc-d34c-7047-9336-6dfd6e2c45e2","0198b9d0-29d4-7df3-8625-4b4515841beb","{""num_scrambled_semantic"":""8"",""num_scrambled_causal"":""4"",""num_scrambled_schematic"":""4"",""participantId"":""661962C31C8246FEAD9DBAD73795F583"",""assignmentId"":""0198b9fc-d34c-7047-9336-6dfd6e2c45e2"",""projectId"":""0198b9d0-29d4-7df3-8625-4b4515841beb""}","https://test12345.live/?num_scrambled_semantic=8&num_scrambled_causal=4&num_scrambled_schematic=4&participantId=661962C31C8246FEAD9DBAD73795F583&assignmentId=0198b9fc-d34c-7047-9336-6dfd6e2c45e2&projectId=0198b9d0-29d4-7df3-8625-4b4515841beb","661962C31C8246FEAD9DBAD73795F583-2025-08-17-22-43-52","","885","","images/causal_sequence/the_performance_causal/the_performance_causal_1.png","0","",""
"","","","","","image-button-response","45","727651","0.0-10.0-1.0-2.6","661962C31C8246FEAD9DBAD73795F583","661962C31C8246FEAD9DBAD73795F583","0198b9fc-d34c-7047-9336-6dfd6e2c45e2","0198b9d0-29d4-7df3-8625-4b4515841beb","{""num_scrambled_semantic"":""8"",""num_scrambled_causal"":""4"",""num_scrambled_schematic"":""4"",""participantId"":""661962C31C8246FEAD9DBAD73795F583"",""assignmentId"":""0198b9fc-d34c-7047-9336-6dfd6e2c45e2"",""projectId"":""0198b9d0-29d4-7df3-8625-4b4515841beb""}","https://test12345.live/?num_scrambled_semantic=8&num_scrambled_causal=4&num_scrambled_schematic=4&participantId=661962C31C8246FEAD9DBAD73795F583&assignmentId=0198b9fc-d34c-7047-9336-6dfd6e2c45e2&projectId=0198b9d0-29d4-7df3-8625-4b4515841beb","661962C31C8246FEAD9DBAD73795F583-2025-08-17-22-43-52","","null","","[]","null","",""
"","","","","","image-button-response","46","732153","0.0-10.0-1.0-0.7","661962C31C8246FEAD9DBAD73795F583","661962C31C8246FEAD9DBAD73795F583","0198b9fc-d34c-7047-9336-6dfd6e2c45e2","0198b9d0-29d4-7df3-8625-4b4515841beb","{""num_scrambled_semantic"":""8"",""num_scrambled_causal"":""4"",""num_scrambled_schematic"":""4"",""participantId"":""661962C31C8246FEAD9DBAD73795F583"",""assignmentId"":""0198b9fc-d34c-7047-9336-6dfd6e2c45e2"",""projectId"":""0198b9d0-29d4-7df3-8625-4b4515841beb""}","https://test12345.live/?num_scrambled_semantic=8&num_scrambled_causal=4&num_scrambled_schematic=4&participantId=661962C31C8246FEAD9DBAD73795F583&assignmentId=0198b9fc-d34c-7047-9336-6dfd6e2c45e2&projectId=0198b9d0-29d4-7df3-8625-4b4515841beb","661962C31C8246FEAD9DBAD73795F583-2025-08-17-22-43-52","","null","","images/causal_sequence/the_performance_causal/the_performance_causal_8.png","null","",""
"","","","","","image-button-response","47","733116","0.0-10.0-1.0-1.7","661962C31C8246FEAD9DBAD73795F583","661962C31C8246FEAD9DBAD73795F583","0198b9fc-d34c-7047-9336-6dfd6e2c45e2","0198b9d0-29d4-7df3-8625-4b4515841beb","{""num_scrambled_semantic"":""8"",""num_scrambled_causal"":""4"",""num_scrambled_schematic"":""4"",""participantId"":""661962C31C8246FEAD9DBAD73795F583"",""assignmentId"":""0198b9fc-d34c-7047-9336-6dfd6e2c45e2"",""projectId"":""0198b9d0-29d4-7df3-8625-4b4515841beb""}","https://test12345.live/?num_scrambled_semantic=8&num_scrambled_causal=4&num_scrambled_schematic=4&participantId=661962C31C8246FEAD9DBAD73795F583&assignmentId=0198b9fc-d34c-7047-9336-6dfd6e2c45e2&projectId=0198b9d0-29d4-7df3-8625-4b4515841beb","661962C31C8246FEAD9DBAD73795F583-2025-08-17-22-43-52","","959","","images/causal_sequence/the_performance_causal/the_performance_causal_8.png","0","",""
"","","","","","image-button-response","48","738520","0.0-10.0-1.0-2.7","661962C31C8246FEAD9DBAD73795F583","661962C31C8246FEAD9DBAD73795F583","0198b9fc-d34c-7047-9336-6dfd6e2c45e2","0198b9d0-29d4-7df3-8625-4b4515841beb","{""num_scrambled_semantic"":""8"",""num_scrambled_causal"":""4"",""num_scrambled_schematic"":""4"",""participantId"":""661962C31C8246FEAD9DBAD73795F583"",""assignmentId"":""0198b9fc-d34c-7047-9336-6dfd6e2c45e2"",""projectId"":""0198b9d0-29d4-7df3-8625-4b4515841beb""}","https://test12345.live/?num_scrambled_semantic=8&num_scrambled_causal=4&num_scrambled_schematic=4&participantId=661962C31C8246FEAD9DBAD73795F583&assignmentId=0198b9fc-d34c-7047-9336-6dfd6e2c45e2&projectId=0198b9d0-29d4-7df3-8625-4b4515841beb","661962C31C8246FEAD9DBAD73795F583-2025-08-17-22-43-52","","null","","[]","null","",""
"","","","","","image-button-response","49","743025","0.0-10.0-1.0-0.8","661962C31C8246FEAD9DBAD73795F583","661962C31C8246FEAD9DBAD73795F583","0198b9fc-d34c-7047-9336-6dfd6e2c45e2","0198b9d0-29d4-7df3-8625-4b4515841beb","{""num_scrambled_semantic"":""8"",""num_scrambled_causal"":""4"",""num_scrambled_schematic"":""4"",""participantId"":""661962C31C8246FEAD9DBAD73795F583"",""assignmentId"":""0198b9fc-d34c-7047-9336-6dfd6e2c45e2"",""projectId"":""0198b9d0-29d4-7df3-8625-4b4515841beb""}","https://test12345.live/?num_scrambled_semantic=8&num_scrambled_causal=4&num_scrambled_schematic=4&participantId=661962C31C8246FEAD9DBAD73795F583&assignmentId=0198b9fc-d34c-7047-9336-6dfd6e2c45e2&projectId=0198b9d0-29d4-7df3-8625-4b4515841beb","661962C31C8246FEAD9DBAD73795F583-2025-08-17-22-43-52","","null","","images/causal_sequence/the_performance_causal/the_performance_causal_6.png","null","",""
"","","","","","image-button-response","50","743998","0.0-10.0-1.0-1.8","661962C31C8246FEAD9DBAD73795F583","661962C31C8246FEAD9DBAD73795F583","0198b9fc-d34c-7047-9336-6dfd6e2c45e2","0198b9d0-29d4-7df3-8625-4b4515841beb","{""num_scrambled_semantic"":""8"",""num_scrambled_causal"":""4"",""num_scrambled_schematic"":""4"",""participantId"":""661962C31C8246FEAD9DBAD73795F583"",""assignmentId"":""0198b9fc-d34c-7047-9336-6dfd6e2c45e2"",""projectId"":""0198b9d0-29d4-7df3-8625-4b4515841beb""}","https://test12345.live/?num_scrambled_semantic=8&num_scrambled_causal=4&num_scrambled_schematic=4&participantId=661962C31C8246FEAD9DBAD73795F583&assignmentId=0198b9fc-d34c-7047-9336-6dfd6e2c45e2&projectId=0198b9d0-29d4-7df3-8625-4b4515841beb","661962C31C8246FEAD9DBAD73795F583-2025-08-17-22-43-52","","970","","images/causal_sequence/the_performance_causal/the_performance_causal_6.png","0","",""
"","","","","","image-button-response","51","749405","0.0-10.0-1.0-2.8","661962C31C8246FEAD9DBAD73795F583","661962C31C8246FEAD9DBAD73795F583","0198b9fc-d34c-7047-9336-6dfd6e2c45e2","0198b9d0-29d4-7df3-8625-4b4515841beb","{""num_scrambled_semantic"":""8"",""num_scrambled_causal"":""4"",""num_scrambled_schematic"":""4"",""participantId"":""661962C31C8246FEAD9DBAD73795F583"",""assignmentId"":""0198b9fc-d34c-7047-9336-6dfd6e2c45e2"",""projectId"":""0198b9d0-29d4-7df3-8625-4b4515841beb""}","https://test12345.live/?num_scrambled_semantic=8&num_scrambled_causal=4&num_scrambled_schematic=4&participantId=661962C31C8246FEAD9DBAD73795F583&assignmentId=0198b9fc-d34c-7047-9336-6dfd6e2c45e2&projectId=0198b9d0-29d4-7df3-8625-4b4515841beb","661962C31C8246FEAD9DBAD73795F583-2025-08-17-22-43-52","","null","","[]","null","",""
"","","","","","image-button-response","52","753907","0.0-10.0-1.0-0.9","661962C31C8246FEAD9DBAD73795F583","661962C31C8246FEAD9DBAD73795F583","0198b9fc-d34c-7047-9336-6dfd6e2c45e2","0198b9d0-29d4-7df3-8625-4b4515841beb","{""num_scrambled_semantic"":""8"",""num_scrambled_causal"":""4"",""num_scrambled_schematic"":""4"",""participantId"":""661962C31C8246FEAD9DBAD73795F583"",""assignmentId"":""0198b9fc-d34c-7047-9336-6dfd6e2c45e2"",""projectId"":""0198b9d0-29d4-7df3-8625-4b4515841beb""}","https://test12345.live/?num_scrambled_semantic=8&num_scrambled_causal=4&num_scrambled_schematic=4&participantId=661962C31C8246FEAD9DBAD73795F583&assignmentId=0198b9fc-d34c-7047-9336-6dfd6e2c45e2&projectId=0198b9d0-29d4-7df3-8625-4b4515841beb","661962C31C8246FEAD9DBAD73795F583-2025-08-17-22-43-52","","null","","images/causal_sequence/the_performance_causal/the_performance_causal_9.png","null","",""
"","","","","","image-button-response","53","755664","0.0-10.0-1.0-1.9","661962C31C8246FEAD9DBAD73795F583","661962C31C8246FEAD9DBAD73795F583","0198b9fc-d34c-7047-9336-6dfd6e2c45e2","0198b9d0-29d4-7df3-8625-4b4515841beb","{""num_scrambled_semantic"":""8"",""num_scrambled_causal"":""4"",""num_scrambled_schematic"":""4"",""participantId"":""661962C31C8246FEAD9DBAD73795F583"",""assignmentId"":""0198b9fc-d34c-7047-9336-6dfd6e2c45e2"",""projectId"":""0198b9d0-29d4-7df3-8625-4b4515841beb""}","https://test12345.live/?num_scrambled_semantic=8&num_scrambled_causal=4&num_scrambled_schematic=4&participantId=661962C31C8246FEAD9DBAD73795F583&assignmentId=0198b9fc-d34c-7047-9336-6dfd6e2c45e2&projectId=0198b9d0-29d4-7df3-8625-4b4515841beb","661962C31C8246FEAD9DBAD73795F583-2025-08-17-22-43-52","","1754","","images/causal_sequence/the_performance_causal/the_performance_causal_9.png","0","",""
"","","","","","image-button-response","54","761069","0.0-10.0-1.0-2.9","661962C31C8246FEAD9DBAD73795F583","661962C31C8246FEAD9DBAD73795F583","0198b9fc-d34c-7047-9336-6dfd6e2c45e2","0198b9d0-29d4-7df3-8625-4b4515841beb","{""num_scrambled_semantic"":""8"",""num_scrambled_causal"":""4"",""num_scrambled_schematic"":""4"",""participantId"":""661962C31C8246FEAD9DBAD73795F583"",""assignmentId"":""0198b9fc-d34c-7047-9336-6dfd6e2c45e2"",""projectId"":""0198b9d0-29d4-7df3-8625-4b4515841beb""}","https://test12345.live/?num_scrambled_semantic=8&num_scrambled_causal=4&num_scrambled_schematic=4&participantId=661962C31C8246FEAD9DBAD73795F583&assignmentId=0198b9fc-d34c-7047-9336-6dfd6e2c45e2&projectId=0198b9d0-29d4-7df3-8625-4b4515841beb","661962C31C8246FEAD9DBAD73795F583-2025-08-17-22-43-52","","null","","[]","null","",""
"","","","","","html-audio-response","55","891914","0.0-11.0","661962C31C8246FEAD9DBAD73795F583","661962C31C8246FEAD9DBAD73795F583","0198b9fc-d34c-7047-9336-6dfd6e2c45e2","0198b9d0-29d4-7df3-8625-4b4515841beb","{""num_scrambled_semantic"":""8"",""num_scrambled_causal"":""4"",""num_scrambled_schematic"":""4"",""participantId"":""661962C31C8246FEAD9DBAD73795F583"",""assignmentId"":""0198b9fc-d34c-7047-9336-6dfd6e2c45e2"",""projectId"":""0198b9d0-29d4-7df3-8625-4b4515841beb""}","https://test12345.live/?num_scrambled_semantic=8&num_scrambled_causal=4&num_scrambled_schematic=4&participantId=661962C31C8246FEAD9DBAD73795F583&assignmentId=0198b9fc-d34c-7047-9336-6dfd6e2c45e2&projectId=0198b9d0-29d4-7df3-8625-4b4515841beb","661962C31C8246FEAD9DBAD73795F583-2025-08-17-22-43-52","","43831","","[""<span style=\""color: red; font-size: 24px\""> NOW RECORDING</span><p>Please say out loud all the images you saw, as many as you can remember. The images can be said in any order.</p>""]","","10","the_performance_causal"
"","","","","","image-button-response","56","897923","0.0-12.0-0.0","661962C31C8246FEAD9DBAD73795F583","661962C31C8246FEAD9DBAD73795F583","0198b9fc-d34c-7047-9336-6dfd6e2c45e2","0198b9d0-29d4-7df3-8625-4b4515841beb","{""num_scrambled_semantic"":""8"",""num_scrambled_causal"":""4"",""num_scrambled_schematic"":""4"",""participantId"":""661962C31C8246FEAD9DBAD73795F583"",""assignmentId"":""0198b9fc-d34c-7047-9336-6dfd6e2c45e2"",""projectId"":""0198b9d0-29d4-7df3-8625-4b4515841beb""}","https://test12345.live/?num_scrambled_semantic=8&num_scrambled_causal=4&num_scrambled_schematic=4&participantId=661962C31C8246FEAD9DBAD73795F583&assignmentId=0198b9fc-d34c-7047-9336-6dfd6e2c45e2&projectId=0198b9d0-29d4-7df3-8625-4b4515841beb","661962C31C8246FEAD9DBAD73795F583-2025-08-17-22-43-52","","null","","images/semantic_sequence/using_technology_semantic/using_technology_semantic_0.png","null","",""
"","","","","","image-button-response","57","902427","0.0-12.0-1.0-0.0","661962C31C8246FEAD9DBAD73795F583","661962C31C8246FEAD9DBAD73795F583","0198b9fc-d34c-7047-9336-6dfd6e2c45e2","0198b9d0-29d4-7df3-8625-4b4515841beb","{""num_scrambled_semantic"":""8"",""num_scrambled_causal"":""4"",""num_scrambled_schematic"":""4"",""participantId"":""661962C31C8246FEAD9DBAD73795F583"",""assignmentId"":""0198b9fc-d34c-7047-9336-6dfd6e2c45e2"",""projectId"":""0198b9d0-29d4-7df3-8625-4b4515841beb""}","https://test12345.live/?num_scrambled_semantic=8&num_scrambled_causal=4&num_scrambled_schematic=4&participantId=661962C31C8246FEAD9DBAD73795F583&assignmentId=0198b9fc-d34c-7047-9336-6dfd6e2c45e2&projectId=0198b9d0-29d4-7df3-8625-4b4515841beb","661962C31C8246FEAD9DBAD73795F583-2025-08-17-22-43-52","","null","","images/semantic_sequence/using_technology_semantic/using_technology_semantic_ten.png","null","",""
"","","","","","image-button-response","58","904731","0.0-12.0-1.0-1.0","661962C31C8246FEAD9DBAD73795F583","661962C31C8246FEAD9DBAD73795F583","0198b9fc-d34c-7047-9336-6dfd6e2c45e2","0198b9d0-29d4-7df3-8625-4b4515841beb","{""num_scrambled_semantic"":""8"",""num_scrambled_causal"":""4"",""num_scrambled_schematic"":""4"",""participantId"":""661962C31C8246FEAD9DBAD73795F583"",""assignmentId"":""0198b9fc-d34c-7047-9336-6dfd6e2c45e2"",""projectId"":""0198b9d0-29d4-7df3-8625-4b4515841beb""}","https://test12345.live/?num_scrambled_semantic=8&num_scrambled_causal=4&num_scrambled_schematic=4&participantId=661962C31C8246FEAD9DBAD73795F583&assignmentId=0198b9fc-d34c-7047-9336-6dfd6e2c45e2&projectId=0198b9d0-29d4-7df3-8625-4b4515841beb","661962C31C8246FEAD9DBAD73795F583-2025-08-17-22-43-52","","2301","","images/semantic_sequence/using_technology_semantic/using_technology_semantic_ten.png","0","",""
"","","","","","image-button-response","59","910137","0.0-12.0-1.0-2.0","661962C31C8246FEAD9DBAD73795F583","661962C31C8246FEAD9DBAD73795F583","0198b9fc-d34c-7047-9336-6dfd6e2c45e2","0198b9d0-29d4-7df3-8625-4b4515841beb","{""num_scrambled_semantic"":""8"",""num_scrambled_causal"":""4"",""num_scrambled_schematic"":""4"",""participantId"":""661962C31C8246FEAD9DBAD73795F583"",""assignmentId"":""0198b9fc-d34c-7047-9336-6dfd6e2c45e2"",""projectId"":""0198b9d0-29d4-7df3-8625-4b4515841beb""}","https://test12345.live/?num_scrambled_semantic=8&num_scrambled_causal=4&num_scrambled_schematic=4&participantId=661962C31C8246FEAD9DBAD73795F583&assignmentId=0198b9fc-d34c-7047-9336-6dfd6e2c45e2&projectId=0198b9d0-29d4-7df3-8625-4b4515841beb","661962C31C8246FEAD9DBAD73795F583-2025-08-17-22-43-52","","null","","[]","null","",""
"","","","","","image-button-response","60","914643","0.0-12.0-1.0-0.1","661962C31C8246FEAD9DBAD73795F583","661962C31C8246FEAD9DBAD73795F583","0198b9fc-d34c-7047-9336-6dfd6e2c45e2","0198b9d0-29d4-7df3-8625-4b4515841beb","{""num_scrambled_semantic"":""8"",""num_scrambled_causal"":""4"",""num_scrambled_schematic"":""4"",""participantId"":""661962C31C8246FEAD9DBAD73795F583"",""assignmentId"":""0198b9fc-d34c-7047-9336-6dfd6e2c45e2"",""projectId"":""0198b9d0-29d4-7df3-8625-4b4515841beb""}","https://test12345.live/?num_scrambled_semantic=8&num_scrambled_causal=4&num_scrambled_schematic=4&participantId=661962C31C8246FEAD9DBAD73795F583&assignmentId=0198b9fc-d34c-7047-9336-6dfd6e2c45e2&projectId=0198b9d0-29d4-7df3-8625-4b4515841beb","661962C31C8246FEAD9DBAD73795F583-2025-08-17-22-43-52","","null","","images/semantic_sequence/using_technology_semantic/using_technology_semantic_2.png","null","",""
"","","","","","image-button-response","61","917681","0.0-12.0-1.0-1.1","661962C31C8246FEAD9DBAD73795F583","661962C31C8246FEAD9DBAD73795F583","0198b9fc-d34c-7047-9336-6dfd6e2c45e2","0198b9d0-29d4-7df3-8625-4b4515841beb","{""num_scrambled_semantic"":""8"",""num_scrambled_causal"":""4"",""num_scrambled_schematic"":""4"",""participantId"":""661962C31C8246FEAD9DBAD73795F583"",""assignmentId"":""0198b9fc-d34c-7047-9336-6dfd6e2c45e2"",""projectId"":""0198b9d0-29d4-7df3-8625-4b4515841beb""}","https://test12345.live/?num_scrambled_semantic=8&num_scrambled_causal=4&num_scrambled_schematic=4&participantId=661962C31C8246FEAD9DBAD73795F583&assignmentId=0198b9fc-d34c-7047-9336-6dfd6e2c45e2&projectId=0198b9d0-29d4-7df3-8625-4b4515841beb","661962C31C8246FEAD9DBAD73795F583-2025-08-17-22-43-52","","3035","","images/semantic_sequence/using_technology_semantic/using_technology_semantic_2.png","0","",""
"","","","","","image-button-response","62","923088","0.0-12.0-1.0-2.1","661962C31C8246FEAD9DBAD73795F583","661962C31C8246FEAD9DBAD73795F583","0198b9fc-d34c-7047-9336-6dfd6e2c45e2","0198b9d0-29d4-7df3-8625-4b4515841beb","{""num_scrambled_semantic"":""8"",""num_scrambled_causal"":""4"",""num_scrambled_schematic"":""4"",""participantId"":""661962C31C8246FEAD9DBAD73795F583"",""assignmentId"":""0198b9fc-d34c-7047-9336-6dfd6e2c45e2"",""projectId"":""0198b9d0-29d4-7df3-8625-4b4515841beb""}","https://test12345.live/?num_scrambled_semantic=8&num_scrambled_causal=4&num_scrambled_schematic=4&participantId=661962C31C8246FEAD9DBAD73795F583&assignmentId=0198b9fc-d34c-7047-9336-6dfd6e2c45e2&projectId=0198b9d0-29d4-7df3-8625-4b4515841beb","661962C31C8246FEAD9DBAD73795F583-2025-08-17-22-43-52","","null","","[]","null","",""
"","","","","","image-button-response","63","927595","0.0-12.0-1.0-0.2","661962C31C8246FEAD9DBAD73795F583","661962C31C8246FEAD9DBAD73795F583","0198b9fc-d34c-7047-9336-6dfd6e2c45e2","0198b9d0-29d4-7df3-8625-4b4515841beb","{""num_scrambled_semantic"":""8"",""num_scrambled_causal"":""4"",""num_scrambled_schematic"":""4"",""participantId"":""661962C31C8246FEAD9DBAD73795F583"",""assignmentId"":""0198b9fc-d34c-7047-9336-6dfd6e2c45e2"",""projectId"":""0198b9d0-29d4-7df3-8625-4b4515841beb""}","https://test12345.live/?num_scrambled_semantic=8&num_scrambled_causal=4&num_scrambled_schematic=4&participantId=661962C31C8246FEAD9DBAD73795F583&assignmentId=0198b9fc-d34c-7047-9336-6dfd6e2c45e2&projectId=0198b9d0-29d4-7df3-8625-4b4515841beb","661962C31C8246FEAD9DBAD73795F583-2025-08-17-22-43-52","","null","","images/semantic_sequence/using_technology_semantic/using_technology_semantic_7.png","null","",""
"","","","","","image-button-response","64","929813","0.0-12.0-1.0-1.2","661962C31C8246FEAD9DBAD73795F583","661962C31C8246FEAD9DBAD73795F583","0198b9fc-d34c-7047-9336-6dfd6e2c45e2","0198b9d0-29d4-7df3-8625-4b4515841beb","{""num_scrambled_semantic"":""8"",""num_scrambled_causal"":""4"",""num_scrambled_schematic"":""4"",""participantId"":""661962C31C8246FEAD9DBAD73795F583"",""assignmentId"":""0198b9fc-d34c-7047-9336-6dfd6e2c45e2"",""projectId"":""0198b9d0-29d4-7df3-8625-4b4515841beb""}","https://test12345.live/?num_scrambled_semantic=8&num_scrambled_causal=4&num_scrambled_schematic=4&participantId=661962C31C8246FEAD9DBAD73795F583&assignmentId=0198b9fc-d34c-7047-9336-6dfd6e2c45e2&projectId=0198b9d0-29d4-7df3-8625-4b4515841beb","661962C31C8246FEAD9DBAD73795F583-2025-08-17-22-43-52","","2216","","images/semantic_sequence/using_technology_semantic/using_technology_semantic_7.png","0","",""
"","","","","","image-button-response","65","935217","0.0-12.0-1.0-2.2","661962C31C8246FEAD9DBAD73795F583","661962C31C8246FEAD9DBAD73795F583","0198b9fc-d34c-7047-9336-6dfd6e2c45e2","0198b9d0-29d4-7df3-8625-4b4515841beb","{""num_scrambled_semantic"":""8"",""num_scrambled_causal"":""4"",""num_scrambled_schematic"":""4"",""participantId"":""661962C31C8246FEAD9DBAD73795F583"",""assignmentId"":""0198b9fc-d34c-7047-9336-6dfd6e2c45e2"",""projectId"":""0198b9d0-29d4-7df3-8625-4b4515841beb""}","https://test12345.live/?num_scrambled_semantic=8&num_scrambled_causal=4&num_scrambled_schematic=4&participantId=661962C31C8246FEAD9DBAD73795F583&assignmentId=0198b9fc-d34c-7047-9336-6dfd6e2c45e2&projectId=0198b9d0-29d4-7df3-8625-4b4515841beb","661962C31C8246FEAD9DBAD73795F583-2025-08-17-22-43-52","","null","","[]","null","",""
"","","","","","image-button-response","66","939718","0.0-12.0-1.0-0.3","661962C31C8246FEAD9DBAD73795F583","661962C31C8246FEAD9DBAD73795F583","0198b9fc-d34c-7047-9336-6dfd6e2c45e2","0198b9d0-29d4-7df3-8625-4b4515841beb","{""num_scrambled_semantic"":""8"",""num_scrambled_causal"":""4"",""num_scrambled_schematic"":""4"",""participantId"":""661962C31C8246FEAD9DBAD73795F583"",""assignmentId"":""0198b9fc-d34c-7047-9336-6dfd6e2c45e2"",""projectId"":""0198b9d0-29d4-7df3-8625-4b4515841beb""}","https://test12345.live/?num_scrambled_semantic=8&num_scrambled_causal=4&num_scrambled_schematic=4&participantId=661962C31C8246FEAD9DBAD73795F583&assignmentId=0198b9fc-d34c-7047-9336-6dfd6e2c45e2&projectId=0198b9d0-29d4-7df3-8625-4b4515841beb","661962C31C8246FEAD9DBAD73795F583-2025-08-17-22-43-52","","null","","images/semantic_sequence/using_technology_semantic/using_technology_semantic_8.png","null","",""
"","","","","","image-button-response","67","941564","0.0-12.0-1.0-1.3","661962C31C8246FEAD9DBAD73795F583","661962C31C8246FEAD9DBAD73795F583","0198b9fc-d34c-7047-9336-6dfd6e2c45e2","0198b9d0-29d4-7df3-8625-4b4515841beb","{""num_scrambled_semantic"":""8"",""num_scrambled_causal"":""4"",""num_scrambled_schematic"":""4"",""participantId"":""661962C31C8246FEAD9DBAD73795F583"",""assignmentId"":""0198b9fc-d34c-7047-9336-6dfd6e2c45e2"",""projectId"":""0198b9d0-29d4-7df3-8625-4b4515841beb""}","https://test12345.live/?num_scrambled_semantic=8&num_scrambled_causal=4&num_scrambled_schematic=4&participantId=661962C31C8246FEAD9DBAD73795F583&assignmentId=0198b9fc-d34c-7047-9336-6dfd6e2c45e2&projectId=0198b9d0-29d4-7df3-8625-4b4515841beb","661962C31C8246FEAD9DBAD73795F583-2025-08-17-22-43-52","","1844","","images/semantic_sequence/using_technology_semantic/using_technology_semantic_8.png","0","",""
"","","","","","image-button-response","68","946968","0.0-12.0-1.0-2.3","661962C31C8246FEAD9DBAD73795F583","661962C31C8246FEAD9DBAD73795F583","0198b9fc-d34c-7047-9336-6dfd6e2c45e2","0198b9d0-29d4-7df3-8625-4b4515841beb","{""num_scrambled_semantic"":""8"",""num_scrambled_causal"":""4"",""num_scrambled_schematic"":""4"",""participantId"":""661962C31C8246FEAD9DBAD73795F583"",""assignmentId"":""0198b9fc-d34c-7047-9336-6dfd6e2c45e2"",""projectId"":""0198b9d0-29d4-7df3-8625-4b4515841beb""}","https://test12345.live/?num_scrambled_semantic=8&num_scrambled_causal=4&num_scrambled_schematic=4&participantId=661962C31C8246FEAD9DBAD73795F583&assignmentId=0198b9fc-d34c-7047-9336-6dfd6e2c45e2&projectId=0198b9d0-29d4-7df3-8625-4b4515841beb","661962C31C8246FEAD9DBAD73795F583-2025-08-17-22-43-52","","null","","[]","null","",""
"","","","","","image-button-response","69","951470","0.0-12.0-1.0-0.4","661962C31C8246FEAD9DBAD73795F583","661962C31C8246FEAD9DBAD73795F583","0198b9fc-d34c-7047-9336-6dfd6e2c45e2","0198b9d0-29d4-7df3-8625-4b4515841beb","{""num_scrambled_semantic"":""8"",""num_scrambled_causal"":""4"",""num_scrambled_schematic"":""4"",""participantId"":""661962C31C8246FEAD9DBAD73795F583"",""assignmentId"":""0198b9fc-d34c-7047-9336-6dfd6e2c45e2"",""projectId"":""0198b9d0-29d4-7df3-8625-4b4515841beb""}","https://test12345.live/?num_scrambled_semantic=8&num_scrambled_causal=4&num_scrambled_schematic=4&participantId=661962C31C8246FEAD9DBAD73795F583&assignmentId=0198b9fc-d34c-7047-9336-6dfd6e2c45e2&projectId=0198b9d0-29d4-7df3-8625-4b4515841beb","661962C31C8246FEAD9DBAD73795F583-2025-08-17-22-43-52","","null","","images/semantic_sequence/using_technology_semantic/using_technology_semantic_5.png","null","",""
"","","","","","image-button-response","70","953331","0.0-12.0-1.0-1.4","661962C31C8246FEAD9DBAD73795F583","661962C31C8246FEAD9DBAD73795F583","0198b9fc-d34c-7047-9336-6dfd6e2c45e2","0198b9d0-29d4-7df3-8625-4b4515841beb","{""num_scrambled_semantic"":""8"",""num_scrambled_causal"":""4"",""num_scrambled_schematic"":""4"",""participantId"":""661962C31C8246FEAD9DBAD73795F583"",""assignmentId"":""0198b9fc-d34c-7047-9336-6dfd6e2c45e2"",""projectId"":""0198b9d0-29d4-7df3-8625-4b4515841beb""}","https://test12345.live/?num_scrambled_semantic=8&num_scrambled_causal=4&num_scrambled_schematic=4&participantId=661962C31C8246FEAD9DBAD73795F583&assignmentId=0198b9fc-d34c-7047-9336-6dfd6e2c45e2&projectId=0198b9d0-29d4-7df3-8625-4b4515841beb","661962C31C8246FEAD9DBAD73795F583-2025-08-17-22-43-52","","1858","","images/semantic_sequence/using_technology_semantic/using_technology_semantic_5.png","0","",""
"","","","","","image-button-response","71","958735","0.0-12.0-1.0-2.4","661962C31C8246FEAD9DBAD73795F583","661962C31C8246FEAD9DBAD73795F583","0198b9fc-d34c-7047-9336-6dfd6e2c45e2","0198b9d0-29d4-7df3-8625-4b4515841beb","{""num_scrambled_semantic"":""8"",""num_scrambled_causal"":""4"",""num_scrambled_schematic"":""4"",""participantId"":""661962C31C8246FEAD9DBAD73795F583"",""assignmentId"":""0198b9fc-d34c-7047-9336-6dfd6e2c45e2"",""projectId"":""0198b9d0-29d4-7df3-8625-4b4515841beb""}","https://test12345.live/?num_scrambled_semantic=8&num_scrambled_causal=4&num_scrambled_schematic=4&participantId=661962C31C8246FEAD9DBAD73795F583&assignmentId=0198b9fc-d34c-7047-9336-6dfd6e2c45e2&projectId=0198b9d0-29d4-7df3-8625-4b4515841beb","661962C31C8246FEAD9DBAD73795F583-2025-08-17-22-43-52","","null","","[]","null","",""
"","","","","","image-button-response","72","963241","0.0-12.0-1.0-0.5","661962C31C8246FEAD9DBAD73795F583","661962C31C8246FEAD9DBAD73795F583","0198b9fc-d34c-7047-9336-6dfd6e2c45e2","0198b9d0-29d4-7df3-8625-4b4515841beb","{""num_scrambled_semantic"":""8"",""num_scrambled_causal"":""4"",""num_scrambled_schematic"":""4"",""participantId"":""661962C31C8246FEAD9DBAD73795F583"",""assignmentId"":""0198b9fc-d34c-7047-9336-6dfd6e2c45e2"",""projectId"":""0198b9d0-29d4-7df3-8625-4b4515841beb""}","https://test12345.live/?num_scrambled_semantic=8&num_scrambled_causal=4&num_scrambled_schematic=4&participantId=661962C31C8246FEAD9DBAD73795F583&assignmentId=0198b9fc-d34c-7047-9336-6dfd6e2c45e2&projectId=0198b9d0-29d4-7df3-8625-4b4515841beb","661962C31C8246FEAD9DBAD73795F583-2025-08-17-22-43-52","","null","","images/semantic_sequence/using_technology_semantic/using_technology_semantic_4.png","null","",""
"","","","","","image-button-response","73","965398","0.0-12.0-1.0-1.5","661962C31C8246FEAD9DBAD73795F583","661962C31C8246FEAD9DBAD73795F583","0198b9fc-d34c-7047-9336-6dfd6e2c45e2","0198b9d0-29d4-7df3-8625-4b4515841beb","{""num_scrambled_semantic"":""8"",""num_scrambled_causal"":""4"",""num_scrambled_schematic"":""4"",""participantId"":""661962C31C8246FEAD9DBAD73795F583"",""assignmentId"":""0198b9fc-d34c-7047-9336-6dfd6e2c45e2"",""projectId"":""0198b9d0-29d4-7df3-8625-4b4515841beb""}","https://test12345.live/?num_scrambled_semantic=8&num_scrambled_causal=4&num_scrambled_schematic=4&participantId=661962C31C8246FEAD9DBAD73795F583&assignmentId=0198b9fc-d34c-7047-9336-6dfd6e2c45e2&projectId=0198b9d0-29d4-7df3-8625-4b4515841beb","661962C31C8246FEAD9DBAD73795F583-2025-08-17-22-43-52","","2154","","images/semantic_sequence/using_technology_semantic/using_technology_semantic_4.png","0","",""
"","","","","","image-button-response","74","970805","0.0-12.0-1.0-2.5","661962C31C8246FEAD9DBAD73795F583","661962C31C8246FEAD9DBAD73795F583","0198b9fc-d34c-7047-9336-6dfd6e2c45e2","0198b9d0-29d4-7df3-8625-4b4515841beb","{""num_scrambled_semantic"":""8"",""num_scrambled_causal"":""4"",""num_scrambled_schematic"":""4"",""participantId"":""661962C31C8246FEAD9DBAD73795F583"",""assignmentId"":""0198b9fc-d34c-7047-9336-6dfd6e2c45e2"",""projectId"":""0198b9d0-29d4-7df3-8625-4b4515841beb""}","https://test12345.live/?num_scrambled_semantic=8&num_scrambled_causal=4&num_scrambled_schematic=4&participantId=661962C31C8246FEAD9DBAD73795F583&assignmentId=0198b9fc-d34c-7047-9336-6dfd6e2c45e2&projectId=0198b9d0-29d4-7df3-8625-4b4515841beb","661962C31C8246FEAD9DBAD73795F583-2025-08-17-22-43-52","","null","","[]","null","",""
"","","","","","image-button-response","75","975311","0.0-12.0-1.0-0.6","661962C31C8246FEAD9DBAD73795F583","661962C31C8246FEAD9DBAD73795F583","0198b9fc-d34c-7047-9336-6dfd6e2c45e2","0198b9d0-29d4-7df3-8625-4b4515841beb","{""num_scrambled_semantic"":""8"",""num_scrambled_causal"":""4"",""num_scrambled_schematic"":""4"",""participantId"":""661962C31C8246FEAD9DBAD73795F583"",""assignmentId"":""0198b9fc-d34c-7047-9336-6dfd6e2c45e2"",""projectId"":""0198b9d0-29d4-7df3-8625-4b4515841beb""}","https://test12345.live/?num_scrambled_semantic=8&num_scrambled_causal=4&num_scrambled_schematic=4&participantId=661962C31C8246FEAD9DBAD73795F583&assignmentId=0198b9fc-d34c-7047-9336-6dfd6e2c45e2&projectId=0198b9d0-29d4-7df3-8625-4b4515841beb","661962C31C8246FEAD9DBAD73795F583-2025-08-17-22-43-52","","null","","images/semantic_sequence/using_technology_semantic/using_technology_semantic_6.png","null","",""
"","","","","","image-button-response","76","976447","0.0-12.0-1.0-1.6","661962C31C8246FEAD9DBAD73795F583","661962C31C8246FEAD9DBAD73795F583","0198b9fc-d34c-7047-9336-6dfd6e2c45e2","0198b9d0-29d4-7df3-8625-4b4515841beb","{""num_scrambled_semantic"":""8"",""num_scrambled_causal"":""4"",""num_scrambled_schematic"":""4"",""participantId"":""661962C31C8246FEAD9DBAD73795F583"",""assignmentId"":""0198b9fc-d34c-7047-9336-6dfd6e2c45e2"",""projectId"":""0198b9d0-29d4-7df3-8625-4b4515841beb""}","https://test12345.live/?num_scrambled_semantic=8&num_scrambled_causal=4&num_scrambled_schematic=4&participantId=661962C31C8246FEAD9DBAD73795F583&assignmentId=0198b9fc-d34c-7047-9336-6dfd6e2c45e2&projectId=0198b9d0-29d4-7df3-8625-4b4515841beb","661962C31C8246FEAD9DBAD73795F583-2025-08-17-22-43-52","","1133","","images/semantic_sequence/using_technology_semantic/using_technology_semantic_6.png","0","",""
"","","","","","image-button-response","77","981852","0.0-12.0-1.0-2.6","661962C31C8246FEAD9DBAD73795F583","661962C31C8246FEAD9DBAD73795F583","0198b9fc-d34c-7047-9336-6dfd6e2c45e2","0198b9d0-29d4-7df3-8625-4b4515841beb","{""num_scrambled_semantic"":""8"",""num_scrambled_causal"":""4"",""num_scrambled_schematic"":""4"",""participantId"":""661962C31C8246FEAD9DBAD73795F583"",""assignmentId"":""0198b9fc-d34c-7047-9336-6dfd6e2c45e2"",""projectId"":""0198b9d0-29d4-7df3-8625-4b4515841beb""}","https://test12345.live/?num_scrambled_semantic=8&num_scrambled_causal=4&num_scrambled_schematic=4&participantId=661962C31C8246FEAD9DBAD73795F583&assignmentId=0198b9fc-d34c-7047-9336-6dfd6e2c45e2&projectId=0198b9d0-29d4-7df3-8625-4b4515841beb","661962C31C8246FEAD9DBAD73795F583-2025-08-17-22-43-52","","null","","[]","null","",""
"","","","","","image-button-response","78","986359","0.0-12.0-1.0-0.7","661962C31C8246FEAD9DBAD73795F583","661962C31C8246FEAD9DBAD73795F583","0198b9fc-d34c-7047-9336-6dfd6e2c45e2","0198b9d0-29d4-7df3-8625-4b4515841beb","{""num_scrambled_semantic"":""8"",""num_scrambled_causal"":""4"",""num_scrambled_schematic"":""4"",""participantId"":""661962C31C8246FEAD9DBAD73795F583"",""assignmentId"":""0198b9fc-d34c-7047-9336-6dfd6e2c45e2"",""projectId"":""0198b9d0-29d4-7df3-8625-4b4515841beb""}","https://test12345.live/?num_scrambled_semantic=8&num_scrambled_causal=4&num_scrambled_schematic=4&participantId=661962C31C8246FEAD9DBAD73795F583&assignmentId=0198b9fc-d34c-7047-9336-6dfd6e2c45e2&projectId=0198b9d0-29d4-7df3-8625-4b4515841beb","661962C31C8246FEAD9DBAD73795F583-2025-08-17-22-43-52","","null","","images/semantic_sequence/using_technology_semantic/using_technology_semantic_9.png","null","",""
"","","","","","image-button-response","79","988114","0.0-12.0-1.0-1.7","661962C31C8246FEAD9DBAD73795F583","661962C31C8246FEAD9DBAD73795F583","0198b9fc-d34c-7047-9336-6dfd6e2c45e2","0198b9d0-29d4-7df3-8625-4b4515841beb","{""num_scrambled_semantic"":""8"",""num_scrambled_causal"":""4"",""num_scrambled_schematic"":""4"",""participantId"":""661962C31C8246FEAD9DBAD73795F583"",""assignmentId"":""0198b9fc-d34c-7047-9336-6dfd6e2c45e2"",""projectId"":""0198b9d0-29d4-7df3-8625-4b4515841beb""}","https://test12345.live/?num_scrambled_semantic=8&num_scrambled_causal=4&num_scrambled_schematic=4&participantId=661962C31C8246FEAD9DBAD73795F583&assignmentId=0198b9fc-d34c-7047-9336-6dfd6e2c45e2&projectId=0198b9d0-29d4-7df3-8625-4b4515841beb","661962C31C8246FEAD9DBAD73795F583-2025-08-17-22-43-52","","1752","","images/semantic_sequence/using_technology_semantic/using_technology_semantic_9.png","0","",""
"","","","","","image-button-response","80","993519","0.0-12.0-1.0-2.7","661962C31C8246FEAD9DBAD73795F583","661962C31C8246FEAD9DBAD73795F583","0198b9fc-d34c-7047-9336-6dfd6e2c45e2","0198b9d0-29d4-7df3-8625-4b4515841beb","{""num_scrambled_semantic"":""8"",""num_scrambled_causal"":""4"",""num_scrambled_schematic"":""4"",""participantId"":""661962C31C8246FEAD9DBAD73795F583"",""assignmentId"":""0198b9fc-d34c-7047-9336-6dfd6e2c45e2"",""projectId"":""0198b9d0-29d4-7df3-8625-4b4515841beb""}","https://test12345.live/?num_scrambled_semantic=8&num_scrambled_causal=4&num_scrambled_schematic=4&participantId=661962C31C8246FEAD9DBAD73795F583&assignmentId=0198b9fc-d34c-7047-9336-6dfd6e2c45e2&projectId=0198b9d0-29d4-7df3-8625-4b4515841beb","661962C31C8246FEAD9DBAD73795F583-2025-08-17-22-43-52","","null","","[]","null","",""
"","","","","","image-button-response","81","998026","0.0-12.0-1.0-0.8","661962C31C8246FEAD9DBAD73795F583","661962C31C8246FEAD9DBAD73795F583","0198b9fc-d34c-7047-9336-6dfd6e2c45e2","0198b9d0-29d4-7df3-8625-4b4515841beb","{""num_scrambled_semantic"":""8"",""num_scrambled_causal"":""4"",""num_scrambled_schematic"":""4"",""participantId"":""661962C31C8246FEAD9DBAD73795F583"",""assignmentId"":""0198b9fc-d34c-7047-9336-6dfd6e2c45e2"",""projectId"":""0198b9d0-29d4-7df3-8625-4b4515841beb""}","https://test12345.live/?num_scrambled_semantic=8&num_scrambled_causal=4&num_scrambled_schematic=4&participantId=661962C31C8246FEAD9DBAD73795F583&assignmentId=0198b9fc-d34c-7047-9336-6dfd6e2c45e2&projectId=0198b9d0-29d4-7df3-8625-4b4515841beb","661962C31C8246FEAD9DBAD73795F583-2025-08-17-22-43-52","","null","","images/semantic_sequence/using_technology_semantic/using_technology_semantic_1.png","null","",""
"","","","","","image-button-response","82","1000564","0.0-12.0-1.0-1.8","661962C31C8246FEAD9DBAD73795F583","661962C31C8246FEAD9DBAD73795F583","0198b9fc-d34c-7047-9336-6dfd6e2c45e2","0198b9d0-29d4-7df3-8625-4b4515841beb","{""num_scrambled_semantic"":""8"",""num_scrambled_causal"":""4"",""num_scrambled_schematic"":""4"",""participantId"":""661962C31C8246FEAD9DBAD73795F583"",""assignmentId"":""0198b9fc-d34c-7047-9336-6dfd6e2c45e2"",""projectId"":""0198b9d0-29d4-7df3-8625-4b4515841beb""}","https://test12345.live/?num_scrambled_semantic=8&num_scrambled_causal=4&num_scrambled_schematic=4&participantId=661962C31C8246FEAD9DBAD73795F583&assignmentId=0198b9fc-d34c-7047-9336-6dfd6e2c45e2&projectId=0198b9d0-29d4-7df3-8625-4b4515841beb","661962C31C8246FEAD9DBAD73795F583-2025-08-17-22-43-52","","2535","","images/semantic_sequence/using_technology_semantic/using_technology_semantic_1.png","0","",""
"","","","","","image-button-response","83","1005972","0.0-12.0-1.0-2.8","661962C31C8246FEAD9DBAD73795F583","661962C31C8246FEAD9DBAD73795F583","0198b9fc-d34c-7047-9336-6dfd6e2c45e2","0198b9d0-29d4-7df3-8625-4b4515841beb","{""num_scrambled_semantic"":""8"",""num_scrambled_causal"":""4"",""num_scrambled_schematic"":""4"",""participantId"":""661962C31C8246FEAD9DBAD73795F583"",""assignmentId"":""0198b9fc-d34c-7047-9336-6dfd6e2c45e2"",""projectId"":""0198b9d0-29d4-7df3-8625-4b4515841beb""}","https://test12345.live/?num_scrambled_semantic=8&num_scrambled_causal=4&num_scrambled_schematic=4&participantId=661962C31C8246FEAD9DBAD73795F583&assignmentId=0198b9fc-d34c-7047-9336-6dfd6e2c45e2&projectId=0198b9d0-29d4-7df3-8625-4b4515841beb","661962C31C8246FEAD9DBAD73795F583-2025-08-17-22-43-52","","null","","[]","null","",""
"","","","","","image-button-response","84","1010479","0.0-12.0-1.0-0.9","661962C31C8246FEAD9DBAD73795F583","661962C31C8246FEAD9DBAD73795F583","0198b9fc-d34c-7047-9336-6dfd6e2c45e2","0198b9d0-29d4-7df3-8625-4b4515841beb","{""num_scrambled_semantic"":""8"",""num_scrambled_causal"":""4"",""num_scrambled_schematic"":""4"",""participantId"":""661962C31C8246FEAD9DBAD73795F583"",""assignmentId"":""0198b9fc-d34c-7047-9336-6dfd6e2c45e2"",""projectId"":""0198b9d0-29d4-7df3-8625-4b4515841beb""}","https://test12345.live/?num_scrambled_semantic=8&num_scrambled_causal=4&num_scrambled_schematic=4&participantId=661962C31C8246FEAD9DBAD73795F583&assignmentId=0198b9fc-d34c-7047-9336-6dfd6e2c45e2&projectId=0198b9d0-29d4-7df3-8625-4b4515841beb","661962C31C8246FEAD9DBAD73795F583-2025-08-17-22-43-52","","null","","images/semantic_sequence/using_technology_semantic/using_technology_semantic_3.png","null","",""
"","","","","","image-button-response","85","1012613","0.0-12.0-1.0-1.9","661962C31C8246FEAD9DBAD73795F583","661962C31C8246FEAD9DBAD73795F583","0198b9fc-d34c-7047-9336-6dfd6e2c45e2","0198b9d0-29d4-7df3-8625-4b4515841beb","{""num_scrambled_semantic"":""8"",""num_scrambled_causal"":""4"",""num_scrambled_schematic"":""4"",""participantId"":""661962C31C8246FEAD9DBAD73795F583"",""assignmentId"":""0198b9fc-d34c-7047-9336-6dfd6e2c45e2"",""projectId"":""0198b9d0-29d4-7df3-8625-4b4515841beb""}","https://test12345.live/?num_scrambled_semantic=8&num_scrambled_causal=4&num_scrambled_schematic=4&participantId=661962C31C8246FEAD9DBAD73795F583&assignmentId=0198b9fc-d34c-7047-9336-6dfd6e2c45e2&projectId=0198b9d0-29d4-7df3-8625-4b4515841beb","661962C31C8246FEAD9DBAD73795F583-2025-08-17-22-43-52","","2131","","images/semantic_sequence/using_technology_semantic/using_technology_semantic_3.png","0","",""
"","","","","","image-button-response","86","1018017","0.0-12.0-1.0-2.9","661962C31C8246FEAD9DBAD73795F583","661962C31C8246FEAD9DBAD73795F583","0198b9fc-d34c-7047-9336-6dfd6e2c45e2","0198b9d0-29d4-7df3-8625-4b4515841beb","{""num_scrambled_semantic"":""8"",""num_scrambled_causal"":""4"",""num_scrambled_schematic"":""4"",""participantId"":""661962C31C8246FEAD9DBAD73795F583"",""assignmentId"":""0198b9fc-d34c-7047-9336-6dfd6e2c45e2"",""projectId"":""0198b9d0-29d4-7df3-8625-4b4515841beb""}","https://test12345.live/?num_scrambled_semantic=8&num_scrambled_causal=4&num_scrambled_schematic=4&participantId=661962C31C8246FEAD9DBAD73795F583&assignmentId=0198b9fc-d34c-7047-9336-6dfd6e2c45e2&projectId=0198b9d0-29d4-7df3-8625-4b4515841beb","661962C31C8246FEAD9DBAD73795F583-2025-08-17-22-43-52","","null","","[]","null","",""
"","","","","","html-audio-response","87","1148329","0.0-13.0","661962C31C8246FEAD9DBAD73795F583","661962C31C8246FEAD9DBAD73795F583","0198b9fc-d34c-7047-9336-6dfd6e2c45e2","0198b9d0-29d4-7df3-8625-4b4515841beb","{""num_scrambled_semantic"":""8"",""num_scrambled_causal"":""4"",""num_scrambled_schematic"":""4"",""participantId"":""661962C31C8246FEAD9DBAD73795F583"",""assignmentId"":""0198b9fc-d34c-7047-9336-6dfd6e2c45e2"",""projectId"":""0198b9d0-29d4-7df3-8625-4b4515841beb""}","https://test12345.live/?num_scrambled_semantic=8&num_scrambled_causal=4&num_scrambled_schematic=4&participantId=661962C31C8246FEAD9DBAD73795F583&assignmentId=0198b9fc-d34c-7047-9336-6dfd6e2c45e2&projectId=0198b9d0-29d4-7df3-8625-4b4515841beb","661962C31C8246FEAD9DBAD73795F583-2025-08-17-22-43-52","","33465","","[""<span style=\""color: red; font-size: 24px\""> NOW RECORDING</span><p>Please say out loud all the images you saw, as many as you can remember. The images can be said in any order.</p>""]","","11","using_technology_semantic"
"","","","","","image-button-response","88","1154337","0.0-14.0-0.0","661962C31C8246FEAD9DBAD73795F583","661962C31C8246FEAD9DBAD73795F583","0198b9fc-d34c-7047-9336-6dfd6e2c45e2","0198b9d0-29d4-7df3-8625-4b4515841beb","{""num_scrambled_semantic"":""8"",""num_scrambled_causal"":""4"",""num_scrambled_schematic"":""4"",""participantId"":""661962C31C8246FEAD9DBAD73795F583"",""assignmentId"":""0198b9fc-d34c-7047-9336-6dfd6e2c45e2"",""projectId"":""0198b9d0-29d4-7df3-8625-4b4515841beb""}","https://test12345.live/?num_scrambled_semantic=8&num_scrambled_causal=4&num_scrambled_schematic=4&participantId=661962C31C8246FEAD9DBAD73795F583&assignmentId=0198b9fc-d34c-7047-9336-6dfd6e2c45e2&projectId=0198b9d0-29d4-7df3-8625-4b4515841beb","661962C31C8246FEAD9DBAD73795F583-2025-08-17-22-43-52","","null","","images/causal_sequence/saving_a_cat_causal/saving_a_cat_causal_0.png","null","",""
"","","","","","image-button-response","89","1158843","0.0-14.0-1.0-0.0","661962C31C8246FEAD9DBAD73795F583","661962C31C8246FEAD9DBAD73795F583","0198b9fc-d34c-7047-9336-6dfd6e2c45e2","0198b9d0-29d4-7df3-8625-4b4515841beb","{""num_scrambled_semantic"":""8"",""num_scrambled_causal"":""4"",""num_scrambled_schematic"":""4"",""participantId"":""661962C31C8246FEAD9DBAD73795F583"",""assignmentId"":""0198b9fc-d34c-7047-9336-6dfd6e2c45e2"",""projectId"":""0198b9d0-29d4-7df3-8625-4b4515841beb""}","https://test12345.live/?num_scrambled_semantic=8&num_scrambled_causal=4&num_scrambled_schematic=4&participantId=661962C31C8246FEAD9DBAD73795F583&assignmentId=0198b9fc-d34c-7047-9336-6dfd6e2c45e2&projectId=0198b9d0-29d4-7df3-8625-4b4515841beb","661962C31C8246FEAD9DBAD73795F583-2025-08-17-22-43-52","","null","","images/causal_sequence/saving_a_cat_causal/saving_a_cat_causal_1.png","null","",""
"","","","","","image-button-response","90","1160529","0.0-14.0-1.0-1.0","661962C31C8246FEAD9DBAD73795F583","661962C31C8246FEAD9DBAD73795F583","0198b9fc-d34c-7047-9336-6dfd6e2c45e2","0198b9d0-29d4-7df3-8625-4b4515841beb","{""num_scrambled_semantic"":""8"",""num_scrambled_causal"":""4"",""num_scrambled_schematic"":""4"",""participantId"":""661962C31C8246FEAD9DBAD73795F583"",""assignmentId"":""0198b9fc-d34c-7047-9336-6dfd6e2c45e2"",""projectId"":""0198b9d0-29d4-7df3-8625-4b4515841beb""}","https://test12345.live/?num_scrambled_semantic=8&num_scrambled_causal=4&num_scrambled_schematic=4&participantId=661962C31C8246FEAD9DBAD73795F583&assignmentId=0198b9fc-d34c-7047-9336-6dfd6e2c45e2&projectId=0198b9d0-29d4-7df3-8625-4b4515841beb","661962C31C8246FEAD9DBAD73795F583-2025-08-17-22-43-52","","1683","","images/causal_sequence/saving_a_cat_causal/saving_a_cat_causal_1.png","0","",""
"","","","","","image-button-response","91","1165936","0.0-14.0-1.0-2.0","661962C31C8246FEAD9DBAD73795F583","661962C31C8246FEAD9DBAD73795F583","0198b9fc-d34c-7047-9336-6dfd6e2c45e2","0198b9d0-29d4-7df3-8625-4b4515841beb","{""num_scrambled_semantic"":""8"",""num_scrambled_causal"":""4"",""num_scrambled_schematic"":""4"",""participantId"":""661962C31C8246FEAD9DBAD73795F583"",""assignmentId"":""0198b9fc-d34c-7047-9336-6dfd6e2c45e2"",""projectId"":""0198b9d0-29d4-7df3-8625-4b4515841beb""}","https://test12345.live/?num_scrambled_semantic=8&num_scrambled_causal=4&num_scrambled_schematic=4&participantId=661962C31C8246FEAD9DBAD73795F583&assignmentId=0198b9fc-d34c-7047-9336-6dfd6e2c45e2&projectId=0198b9d0-29d4-7df3-8625-4b4515841beb","661962C31C8246FEAD9DBAD73795F583-2025-08-17-22-43-52","","null","","[]","null","",""
"","","","","","image-button-response","92","1170442","0.0-14.0-1.0-0.1","661962C31C8246FEAD9DBAD73795F583","661962C31C8246FEAD9DBAD73795F583","0198b9fc-d34c-7047-9336-6dfd6e2c45e2","0198b9d0-29d4-7df3-8625-4b4515841beb","{""num_scrambled_semantic"":""8"",""num_scrambled_causal"":""4"",""num_scrambled_schematic"":""4"",""participantId"":""661962C31C8246FEAD9DBAD73795F583"",""assignmentId"":""0198b9fc-d34c-7047-9336-6dfd6e2c45e2"",""projectId"":""0198b9d0-29d4-7df3-8625-4b4515841beb""}","https://test12345.live/?num_scrambled_semantic=8&num_scrambled_causal=4&num_scrambled_schematic=4&participantId=661962C31C8246FEAD9DBAD73795F583&assignmentId=0198b9fc-d34c-7047-9336-6dfd6e2c45e2&projectId=0198b9d0-29d4-7df3-8625-4b4515841beb","661962C31C8246FEAD9DBAD73795F583-2025-08-17-22-43-52","","null","","images/causal_sequence/saving_a_cat_causal/saving_a_cat_causal_2.png","null","",""
"","","","","","image-button-response","93","1173011","0.0-14.0-1.0-1.1","661962C31C8246FEAD9DBAD73795F583","661962C31C8246FEAD9DBAD73795F583","0198b9fc-d34c-7047-9336-6dfd6e2c45e2","0198b9d0-29d4-7df3-8625-4b4515841beb","{""num_scrambled_semantic"":""8"",""num_scrambled_causal"":""4"",""num_scrambled_schematic"":""4"",""participantId"":""661962C31C8246FEAD9DBAD73795F583"",""assignmentId"":""0198b9fc-d34c-7047-9336-6dfd6e2c45e2"",""projectId"":""0198b9d0-29d4-7df3-8625-4b4515841beb""}","https://test12345.live/?num_scrambled_semantic=8&num_scrambled_causal=4&num_scrambled_schematic=4&participantId=661962C31C8246FEAD9DBAD73795F583&assignmentId=0198b9fc-d34c-7047-9336-6dfd6e2c45e2&projectId=0198b9d0-29d4-7df3-8625-4b4515841beb","661962C31C8246FEAD9DBAD73795F583-2025-08-17-22-43-52","","2567","","images/causal_sequence/saving_a_cat_causal/saving_a_cat_causal_2.png","1","",""
"","","","","","image-button-response","94","1178418","0.0-14.0-1.0-2.1","661962C31C8246FEAD9DBAD73795F583","661962C31C8246FEAD9DBAD73795F583","0198b9fc-d34c-7047-9336-6dfd6e2c45e2","0198b9d0-29d4-7df3-8625-4b4515841beb","{""num_scrambled_semantic"":""8"",""num_scrambled_causal"":""4"",""num_scrambled_schematic"":""4"",""participantId"":""661962C31C8246FEAD9DBAD73795F583"",""assignmentId"":""0198b9fc-d34c-7047-9336-6dfd6e2c45e2"",""projectId"":""0198b9d0-29d4-7df3-8625-4b4515841beb""}","https://test12345.live/?num_scrambled_semantic=8&num_scrambled_causal=4&num_scrambled_schematic=4&participantId=661962C31C8246FEAD9DBAD73795F583&assignmentId=0198b9fc-d34c-7047-9336-6dfd6e2c45e2&projectId=0198b9d0-29d4-7df3-8625-4b4515841beb","661962C31C8246FEAD9DBAD73795F583-2025-08-17-22-43-52","","null","","[]","null","",""
"","","","","","image-button-response","95","1182922","0.0-14.0-1.0-0.2","661962C31C8246FEAD9DBAD73795F583","661962C31C8246FEAD9DBAD73795F583","0198b9fc-d34c-7047-9336-6dfd6e2c45e2","0198b9d0-29d4-7df3-8625-4b4515841beb","{""num_scrambled_semantic"":""8"",""num_scrambled_causal"":""4"",""num_scrambled_schematic"":""4"",""participantId"":""661962C31C8246FEAD9DBAD73795F583"",""assignmentId"":""0198b9fc-d34c-7047-9336-6dfd6e2c45e2"",""projectId"":""0198b9d0-29d4-7df3-8625-4b4515841beb""}","https://test12345.live/?num_scrambled_semantic=8&num_scrambled_causal=4&num_scrambled_schematic=4&participantId=661962C31C8246FEAD9DBAD73795F583&assignmentId=0198b9fc-d34c-7047-9336-6dfd6e2c45e2&projectId=0198b9d0-29d4-7df3-8625-4b4515841beb","661962C31C8246FEAD9DBAD73795F583-2025-08-17-22-43-52","","null","","images/causal_sequence/saving_a_cat_causal/saving_a_cat_causal_3.png","null","",""
"","","","","","image-button-response","96","1185596","0.0-14.0-1.0-1.2","661962C31C8246FEAD9DBAD73795F583","661962C31C8246FEAD9DBAD73795F583","0198b9fc-d34c-7047-9336-6dfd6e2c45e2","0198b9d0-29d4-7df3-8625-4b4515841beb","{""num_scrambled_semantic"":""8"",""num_scrambled_causal"":""4"",""num_scrambled_schematic"":""4"",""participantId"":""661962C31C8246FEAD9DBAD73795F583"",""assignmentId"":""0198b9fc-d34c-7047-9336-6dfd6e2c45e2"",""projectId"":""0198b9d0-29d4-7df3-8625-4b4515841beb""}","https://test12345.live/?num_scrambled_semantic=8&num_scrambled_causal=4&num_scrambled_schematic=4&participantId=661962C31C8246FEAD9DBAD73795F583&assignmentId=0198b9fc-d34c-7047-9336-6dfd6e2c45e2&projectId=0198b9d0-29d4-7df3-8625-4b4515841beb","661962C31C8246FEAD9DBAD73795F583-2025-08-17-22-43-52","","2671","","images/causal_sequence/saving_a_cat_causal/saving_a_cat_causal_3.png","1","",""
"","","","","","image-button-response","97","1191002","0.0-14.0-1.0-2.2","661962C31C8246FEAD9DBAD73795F583","661962C31C8246FEAD9DBAD73795F583","0198b9fc-d34c-7047-9336-6dfd6e2c45e2","0198b9d0-29d4-7df3-8625-4b4515841beb","{""num_scrambled_semantic"":""8"",""num_scrambled_causal"":""4"",""num_scrambled_schematic"":""4"",""participantId"":""661962C31C8246FEAD9DBAD73795F583"",""assignmentId"":""0198b9fc-d34c-7047-9336-6dfd6e2c45e2"",""projectId"":""0198b9d0-29d4-7df3-8625-4b4515841beb""}","https://test12345.live/?num_scrambled_semantic=8&num_scrambled_causal=4&num_scrambled_schematic=4&participantId=661962C31C8246FEAD9DBAD73795F583&assignmentId=0198b9fc-d34c-7047-9336-6dfd6e2c45e2&projectId=0198b9d0-29d4-7df3-8625-4b4515841beb","661962C31C8246FEAD9DBAD73795F583-2025-08-17-22-43-52","","null","","[]","null","",""
"","","","","","image-button-response","98","1195508","0.0-14.0-1.0-0.3","661962C31C8246FEAD9DBAD73795F583","661962C31C8246FEAD9DBAD73795F583","0198b9fc-d34c-7047-9336-6dfd6e2c45e2","0198b9d0-29d4-7df3-8625-4b4515841beb","{""num_scrambled_semantic"":""8"",""num_scrambled_causal"":""4"",""num_scrambled_schematic"":""4"",""participantId"":""661962C31C8246FEAD9DBAD73795F583"",""assignmentId"":""0198b9fc-d34c-7047-9336-6dfd6e2c45e2"",""projectId"":""0198b9d0-29d4-7df3-8625-4b4515841beb""}","https://test12345.live/?num_scrambled_semantic=8&num_scrambled_causal=4&num_scrambled_schematic=4&participantId=661962C31C8246FEAD9DBAD73795F583&assignmentId=0198b9fc-d34c-7047-9336-6dfd6e2c45e2&projectId=0198b9d0-29d4-7df3-8625-4b4515841beb","661962C31C8246FEAD9DBAD73795F583-2025-08-17-22-43-52","","null","","images/causal_sequence/saving_a_cat_causal/saving_a_cat_causal_4.png","null","",""
"","","","","","image-button-response","99","1198462","0.0-14.0-1.0-1.3","661962C31C8246FEAD9DBAD73795F583","661962C31C8246FEAD9DBAD73795F583","0198b9fc-d34c-7047-9336-6dfd6e2c45e2","0198b9d0-29d4-7df3-8625-4b4515841beb","{""num_scrambled_semantic"":""8"",""num_scrambled_causal"":""4"",""num_scrambled_schematic"":""4"",""participantId"":""661962C31C8246FEAD9DBAD73795F583"",""assignmentId"":""0198b9fc-d34c-7047-9336-6dfd6e2c45e2"",""projectId"":""0198b9d0-29d4-7df3-8625-4b4515841beb""}","https://test12345.live/?num_scrambled_semantic=8&num_scrambled_causal=4&num_scrambled_schematic=4&participantId=661962C31C8246FEAD9DBAD73795F583&assignmentId=0198b9fc-d34c-7047-9336-6dfd6e2c45e2&projectId=0198b9d0-29d4-7df3-8625-4b4515841beb","661962C31C8246FEAD9DBAD73795F583-2025-08-17-22-43-52","","2952","","images/causal_sequence/saving_a_cat_causal/saving_a_cat_causal_4.png","0","",""
"","","","","","image-button-response","100","1203870","0.0-14.0-1.0-2.3","661962C31C8246FEAD9DBAD73795F583","661962C31C8246FEAD9DBAD73795F583","0198b9fc-d34c-7047-9336-6dfd6e2c45e2","0198b9d0-29d4-7df3-8625-4b4515841beb","{""num_scrambled_semantic"":""8"",""num_scrambled_causal"":""4"",""num_scrambled_schematic"":""4"",""participantId"":""661962C31C8246FEAD9DBAD73795F583"",""assignmentId"":""0198b9fc-d34c-7047-9336-6dfd6e2c45e2"",""projectId"":""0198b9d0-29d4-7df3-8625-4b4515841beb""}","https://test12345.live/?num_scrambled_semantic=8&num_scrambled_causal=4&num_scrambled_schematic=4&participantId=661962C31C8246FEAD9DBAD73795F583&assignmentId=0198b9fc-d34c-7047-9336-6dfd6e2c45e2&projectId=0198b9d0-29d4-7df3-8625-4b4515841beb","661962C31C8246FEAD9DBAD73795F583-2025-08-17-22-43-52","","null","","[]","null","",""
"","","","","","image-button-response","101","1208372","0.0-14.0-1.0-0.4","661962C31C8246FEAD9DBAD73795F583","661962C31C8246FEAD9DBAD73795F583","0198b9fc-d34c-7047-9336-6dfd6e2c45e2","0198b9d0-29d4-7df3-8625-4b4515841beb","{""num_scrambled_semantic"":""8"",""num_scrambled_causal"":""4"",""num_scrambled_schematic"":""4"",""participantId"":""661962C31C8246FEAD9DBAD73795F583"",""assignmentId"":""0198b9fc-d34c-7047-9336-6dfd6e2c45e2"",""projectId"":""0198b9d0-29d4-7df3-8625-4b4515841beb""}","https://test12345.live/?num_scrambled_semantic=8&num_scrambled_causal=4&num_scrambled_schematic=4&participantId=661962C31C8246FEAD9DBAD73795F583&assignmentId=0198b9fc-d34c-7047-9336-6dfd6e2c45e2&projectId=0198b9d0-29d4-7df3-8625-4b4515841beb","661962C31C8246FEAD9DBAD73795F583-2025-08-17-22-43-52","","null","","images/causal_sequence/saving_a_cat_causal/saving_a_cat_causal_5.png","null","",""
"","","","","","image-button-response","102","1210027","0.0-14.0-1.0-1.4","661962C31C8246FEAD9DBAD73795F583","661962C31C8246FEAD9DBAD73795F583","0198b9fc-d34c-7047-9336-6dfd6e2c45e2","0198b9d0-29d4-7df3-8625-4b4515841beb","{""num_scrambled_semantic"":""8"",""num_scrambled_causal"":""4"",""num_scrambled_schematic"":""4"",""participantId"":""661962C31C8246FEAD9DBAD73795F583"",""assignmentId"":""0198b9fc-d34c-7047-9336-6dfd6e2c45e2"",""projectId"":""0198b9d0-29d4-7df3-8625-4b4515841beb""}","https://test12345.live/?num_scrambled_semantic=8&num_scrambled_causal=4&num_scrambled_schematic=4&participantId=661962C31C8246FEAD9DBAD73795F583&assignmentId=0198b9fc-d34c-7047-9336-6dfd6e2c45e2&projectId=0198b9d0-29d4-7df3-8625-4b4515841beb","661962C31C8246FEAD9DBAD73795F583-2025-08-17-22-43-52","","1653","","images/causal_sequence/saving_a_cat_causal/saving_a_cat_causal_5.png","0","",""
"","","","","","image-button-response","103","1215434","0.0-14.0-1.0-2.4","661962C31C8246FEAD9DBAD73795F583","661962C31C8246FEAD9DBAD73795F583","0198b9fc-d34c-7047-9336-6dfd6e2c45e2","0198b9d0-29d4-7df3-8625-4b4515841beb","{""num_scrambled_semantic"":""8"",""num_scrambled_causal"":""4"",""num_scrambled_schematic"":""4"",""participantId"":""661962C31C8246FEAD9DBAD73795F583"",""assignmentId"":""0198b9fc-d34c-7047-9336-6dfd6e2c45e2"",""projectId"":""0198b9d0-29d4-7df3-8625-4b4515841beb""}","https://test12345.live/?num_scrambled_semantic=8&num_scrambled_causal=4&num_scrambled_schematic=4&participantId=661962C31C8246FEAD9DBAD73795F583&assignmentId=0198b9fc-d34c-7047-9336-6dfd6e2c45e2&projectId=0198b9d0-29d4-7df3-8625-4b4515841beb","661962C31C8246FEAD9DBAD73795F583-2025-08-17-22-43-52","","null","","[]","null","",""
"","","","","","image-button-response","104","1219936","0.0-14.0-1.0-0.5","661962C31C8246FEAD9DBAD73795F583","661962C31C8246FEAD9DBAD73795F583","0198b9fc-d34c-7047-9336-6dfd6e2c45e2","0198b9d0-29d4-7df3-8625-4b4515841beb","{""num_scrambled_semantic"":""8"",""num_scrambled_causal"":""4"",""num_scrambled_schematic"":""4"",""participantId"":""661962C31C8246FEAD9DBAD73795F583"",""assignmentId"":""0198b9fc-d34c-7047-9336-6dfd6e2c45e2"",""projectId"":""0198b9d0-29d4-7df3-8625-4b4515841beb""}","https://test12345.live/?num_scrambled_semantic=8&num_scrambled_causal=4&num_scrambled_schematic=4&participantId=661962C31C8246FEAD9DBAD73795F583&assignmentId=0198b9fc-d34c-7047-9336-6dfd6e2c45e2&projectId=0198b9d0-29d4-7df3-8625-4b4515841beb","661962C31C8246FEAD9DBAD73795F583-2025-08-17-22-43-52","","null","","images/causal_sequence/saving_a_cat_causal/saving_a_cat_causal_6.png","null","",""
"","","","","","image-button-response","105","1221380","0.0-14.0-1.0-1.5","661962C31C8246FEAD9DBAD73795F583","661962C31C8246FEAD9DBAD73795F583","0198b9fc-d34c-7047-9336-6dfd6e2c45e2","0198b9d0-29d4-7df3-8625-4b4515841beb","{""num_scrambled_semantic"":""8"",""num_scrambled_causal"":""4"",""num_scrambled_schematic"":""4"",""participantId"":""661962C31C8246FEAD9DBAD73795F583"",""assignmentId"":""0198b9fc-d34c-7047-9336-6dfd6e2c45e2"",""projectId"":""0198b9d0-29d4-7df3-8625-4b4515841beb""}","https://test12345.live/?num_scrambled_semantic=8&num_scrambled_causal=4&num_scrambled_schematic=4&participantId=661962C31C8246FEAD9DBAD73795F583&assignmentId=0198b9fc-d34c-7047-9336-6dfd6e2c45e2&projectId=0198b9d0-29d4-7df3-8625-4b4515841beb","661962C31C8246FEAD9DBAD73795F583-2025-08-17-22-43-52","","1440","","images/causal_sequence/saving_a_cat_causal/saving_a_cat_causal_6.png","0","",""
"","","","","","image-button-response","106","1226783","0.0-14.0-1.0-2.5","661962C31C8246FEAD9DBAD73795F583","661962C31C8246FEAD9DBAD73795F583","0198b9fc-d34c-7047-9336-6dfd6e2c45e2","0198b9d0-29d4-7df3-8625-4b4515841beb","{""num_scrambled_semantic"":""8"",""num_scrambled_causal"":""4"",""num_scrambled_schematic"":""4"",""participantId"":""661962C31C8246FEAD9DBAD73795F583"",""assignmentId"":""0198b9fc-d34c-7047-9336-6dfd6e2c45e2"",""projectId"":""0198b9d0-29d4-7df3-8625-4b4515841beb""}","https://test12345.live/?num_scrambled_semantic=8&num_scrambled_causal=4&num_scrambled_schematic=4&participantId=661962C31C8246FEAD9DBAD73795F583&assignmentId=0198b9fc-d34c-7047-9336-6dfd6e2c45e2&projectId=0198b9d0-29d4-7df3-8625-4b4515841beb","661962C31C8246FEAD9DBAD73795F583-2025-08-17-22-43-52","","null","","[]","null","",""
"","","","","","image-button-response","107","1231288","0.0-14.0-1.0-0.6","661962C31C8246FEAD9DBAD73795F583","661962C31C8246FEAD9DBAD73795F583","0198b9fc-d34c-7047-9336-6dfd6e2c45e2","0198b9d0-29d4-7df3-8625-4b4515841beb","{""num_scrambled_semantic"":""8"",""num_scrambled_causal"":""4"",""num_scrambled_schematic"":""4"",""participantId"":""661962C31C8246FEAD9DBAD73795F583"",""assignmentId"":""0198b9fc-d34c-7047-9336-6dfd6e2c45e2"",""projectId"":""0198b9d0-29d4-7df3-8625-4b4515841beb""}","https://test12345.live/?num_scrambled_semantic=8&num_scrambled_causal=4&num_scrambled_schematic=4&participantId=661962C31C8246FEAD9DBAD73795F583&assignmentId=0198b9fc-d34c-7047-9336-6dfd6e2c45e2&projectId=0198b9d0-29d4-7df3-8625-4b4515841beb","661962C31C8246FEAD9DBAD73795F583-2025-08-17-22-43-52","","null","","images/causal_sequence/saving_a_cat_causal/saving_a_cat_causal_7.png","null","",""
"","","","","","image-button-response","108","1232979","0.0-14.0-1.0-1.6","661962C31C8246FEAD9DBAD73795F583","661962C31C8246FEAD9DBAD73795F583","0198b9fc-d34c-7047-9336-6dfd6e2c45e2","0198b9d0-29d4-7df3-8625-4b4515841beb","{""num_scrambled_semantic"":""8"",""num_scrambled_causal"":""4"",""num_scrambled_schematic"":""4"",""participantId"":""661962C31C8246FEAD9DBAD73795F583"",""assignmentId"":""0198b9fc-d34c-7047-9336-6dfd6e2c45e2"",""projectId"":""0198b9d0-29d4-7df3-8625-4b4515841beb""}","https://test12345.live/?num_scrambled_semantic=8&num_scrambled_causal=4&num_scrambled_schematic=4&participantId=661962C31C8246FEAD9DBAD73795F583&assignmentId=0198b9fc-d34c-7047-9336-6dfd6e2c45e2&projectId=0198b9d0-29d4-7df3-8625-4b4515841beb","661962C31C8246FEAD9DBAD73795F583-2025-08-17-22-43-52","","1688","","images/causal_sequence/saving_a_cat_causal/saving_a_cat_causal_7.png","0","",""
"","","","","","image-button-response","109","1238386","0.0-14.0-1.0-2.6","661962C31C8246FEAD9DBAD73795F583","661962C31C8246FEAD9DBAD73795F583","0198b9fc-d34c-7047-9336-6dfd6e2c45e2","0198b9d0-29d4-7df3-8625-4b4515841beb","{""num_scrambled_semantic"":""8"",""num_scrambled_causal"":""4"",""num_scrambled_schematic"":""4"",""participantId"":""661962C31C8246FEAD9DBAD73795F583"",""assignmentId"":""0198b9fc-d34c-7047-9336-6dfd6e2c45e2"",""projectId"":""0198b9d0-29d4-7df3-8625-4b4515841beb""}","https://test12345.live/?num_scrambled_semantic=8&num_scrambled_causal=4&num_scrambled_schematic=4&participantId=661962C31C8246FEAD9DBAD73795F583&assignmentId=0198b9fc-d34c-7047-9336-6dfd6e2c45e2&projectId=0198b9d0-29d4-7df3-8625-4b4515841beb","661962C31C8246FEAD9DBAD73795F583-2025-08-17-22-43-52","","null","","[]","null","",""
"","","","","","image-button-response","110","1242888","0.0-14.0-1.0-0.7","661962C31C8246FEAD9DBAD73795F583","661962C31C8246FEAD9DBAD73795F583","0198b9fc-d34c-7047-9336-6dfd6e2c45e2","0198b9d0-29d4-7df3-8625-4b4515841beb","{""num_scrambled_semantic"":""8"",""num_scrambled_causal"":""4"",""num_scrambled_schematic"":""4"",""participantId"":""661962C31C8246FEAD9DBAD73795F583"",""assignmentId"":""0198b9fc-d34c-7047-9336-6dfd6e2c45e2"",""projectId"":""0198b9d0-29d4-7df3-8625-4b4515841beb""}","https://test12345.live/?num_scrambled_semantic=8&num_scrambled_causal=4&num_scrambled_schematic=4&participantId=661962C31C8246FEAD9DBAD73795F583&assignmentId=0198b9fc-d34c-7047-9336-6dfd6e2c45e2&projectId=0198b9d0-29d4-7df3-8625-4b4515841beb","661962C31C8246FEAD9DBAD73795F583-2025-08-17-22-43-52","","null","","images/causal_sequence/saving_a_cat_causal/saving_a_cat_causal_8.png","null","",""
"","","","","","image-button-response","111","1246890","0.0-14.0-1.0-1.7","661962C31C8246FEAD9DBAD73795F583","661962C31C8246FEAD9DBAD73795F583","0198b9fc-d34c-7047-9336-6dfd6e2c45e2","0198b9d0-29d4-7df3-8625-4b4515841beb","{""num_scrambled_semantic"":""8"",""num_scrambled_causal"":""4"",""num_scrambled_schematic"":""4"",""participantId"":""661962C31C8246FEAD9DBAD73795F583"",""assignmentId"":""0198b9fc-d34c-7047-9336-6dfd6e2c45e2"",""projectId"":""0198b9d0-29d4-7df3-8625-4b4515841beb""}","https://test12345.live/?num_scrambled_semantic=8&num_scrambled_causal=4&num_scrambled_schematic=4&participantId=661962C31C8246FEAD9DBAD73795F583&assignmentId=0198b9fc-d34c-7047-9336-6dfd6e2c45e2&projectId=0198b9d0-29d4-7df3-8625-4b4515841beb","661962C31C8246FEAD9DBAD73795F583-2025-08-17-22-43-52","","null","","images/causal_sequence/saving_a_cat_causal/saving_a_cat_causal_8.png","null","",""
"","","","","","image-button-response","112","1252297","0.0-14.0-1.0-2.7","661962C31C8246FEAD9DBAD73795F583","661962C31C8246FEAD9DBAD73795F583","0198b9fc-d34c-7047-9336-6dfd6e2c45e2","0198b9d0-29d4-7df3-8625-4b4515841beb","{""num_scrambled_semantic"":""8"",""num_scrambled_causal"":""4"",""num_scrambled_schematic"":""4"",""participantId"":""661962C31C8246FEAD9DBAD73795F583"",""assignmentId"":""0198b9fc-d34c-7047-9336-6dfd6e2c45e2"",""projectId"":""0198b9d0-29d4-7df3-8625-4b4515841beb""}","https://test12345.live/?num_scrambled_semantic=8&num_scrambled_causal=4&num_scrambled_schematic=4&participantId=661962C31C8246FEAD9DBAD73795F583&assignmentId=0198b9fc-d34c-7047-9336-6dfd6e2c45e2&projectId=0198b9d0-29d4-7df3-8625-4b4515841beb","661962C31C8246FEAD9DBAD73795F583-2025-08-17-22-43-52","","null","","[]","null","",""
"","","","","","image-button-response","113","1256804","0.0-14.0-1.0-0.8","661962C31C8246FEAD9DBAD73795F583","661962C31C8246FEAD9DBAD73795F583","0198b9fc-d34c-7047-9336-6dfd6e2c45e2","0198b9d0-29d4-7df3-8625-4b4515841beb","{""num_scrambled_semantic"":""8"",""num_scrambled_causal"":""4"",""num_scrambled_schematic"":""4"",""participantId"":""661962C31C8246FEAD9DBAD73795F583"",""assignmentId"":""0198b9fc-d34c-7047-9336-6dfd6e2c45e2"",""projectId"":""0198b9d0-29d4-7df3-8625-4b4515841beb""}","https://test12345.live/?num_scrambled_semantic=8&num_scrambled_causal=4&num_scrambled_schematic=4&participantId=661962C31C8246FEAD9DBAD73795F583&assignmentId=0198b9fc-d34c-7047-9336-6dfd6e2c45e2&projectId=0198b9d0-29d4-7df3-8625-4b4515841beb","661962C31C8246FEAD9DBAD73795F583-2025-08-17-22-43-52","","null","","images/causal_sequence/saving_a_cat_causal/saving_a_cat_causal_9.png","null","",""
