"success","timeout","failed_images","failed_audio","failed_video","trial_type","trial_index","time_elapsed","internal_node_id","subject","subject_id","study_id","session_id","urlvar","current_url","audio_id","view_history","rt","device_id","stimulus","response","estimated_stimulus_onset","seq_name"
"true","false","[]","[]","[]","preload","0","3479","0.0-0.0","668703D4C675497BA09AE5588BDC518B","668703D4C675497BA09AE5588BDC518B","050cda97-60cd-4ae1-ad10-7c58cb9d76fb","a0a8f18c-a66e-4ba7-a170-23efbdc67501","{""participantId"":""668703D4C675497BA09AE5588BDC518B"",""assignmentId"":""050cda97-60cd-4ae1-ad10-7c58cb9d76fb"",""projectId"":""a0a8f18c-a66e-4ba7-a170-23efbdc67501""}","https://test12345.live/?participantId=668703D4C675497BA09AE5588BDC518B&assignmentId=050cda97-60cd-4ae1-ad10-7c58cb9d76fb&projectId=a0a8f18c-a66e-4ba7-a170-23efbdc67501","668703D4C675497BA09AE5588BDC518B-2024-11-24-17-36-56","","","","","","",""
"","","","","","instructions","1","18517","0.0-1.0","668703D4C675497BA09AE5588BDC518B","668703D4C675497BA09AE5588BDC518B","050cda97-60cd-4ae1-ad10-7c58cb9d76fb","a0a8f18c-a66e-4ba7-a170-23efbdc67501","{""participantId"":""668703D4C675497BA09AE5588BDC518B"",""assignmentId"":""050cda97-60cd-4ae1-ad10-7c58cb9d76fb"",""projectId"":""a0a8f18c-a66e-4ba7-a170-23efbdc67501""}","https://test12345.live/?participantId=668703D4C675497BA09AE5588BDC518B&assignmentId=050cda97-60cd-4ae1-ad10-7c58cb9d76fb&projectId=a0a8f18c-a66e-4ba7-a170-23efbdc67501","668703D4C675497BA09AE5588BDC518B-2024-11-24-17-36-56","[{""page_index"":0,""viewing_time"":15037}]","15037","","","","",""
"","","","","","instructions","2","35553","0.0-2.0","668703D4C675497BA09AE5588BDC518B","668703D4C675497BA09AE5588BDC518B","050cda97-60cd-4ae1-ad10-7c58cb9d76fb","a0a8f18c-a66e-4ba7-a170-23efbdc67501","{""participantId"":""668703D4C675497BA09AE5588BDC518B"",""assignmentId"":""050cda97-60cd-4ae1-ad10-7c58cb9d76fb"",""projectId"":""a0a8f18c-a66e-4ba7-a170-23efbdc67501""}","https://test12345.live/?participantId=668703D4C675497BA09AE5588BDC518B&assignmentId=050cda97-60cd-4ae1-ad10-7c58cb9d76fb&projectId=a0a8f18c-a66e-4ba7-a170-23efbdc67501","668703D4C675497BA09AE5588BDC518B-2024-11-24-17-36-56","[{""page_index"":0,""viewing_time"":17036}]","17036","","","","",""
"true","","","","","fullscreen","3","38352","0.0-3.0","668703D4C675497BA09AE5588BDC518B","668703D4C675497BA09AE5588BDC518B","050cda97-60cd-4ae1-ad10-7c58cb9d76fb","a0a8f18c-a66e-4ba7-a170-23efbdc67501","{""participantId"":""668703D4C675497BA09AE5588BDC518B"",""assignmentId"":""050cda97-60cd-4ae1-ad10-7c58cb9d76fb"",""projectId"":""a0a8f18c-a66e-4ba7-a170-23efbdc67501""}","https://test12345.live/?participantId=668703D4C675497BA09AE5588BDC518B&assignmentId=050cda97-60cd-4ae1-ad10-7c58cb9d76fb&projectId=a0a8f18c-a66e-4ba7-a170-23efbdc67501","668703D4C675497BA09AE5588BDC518B-2024-11-24-17-36-56","","1785","","","","",""
"","","","","","initialize-microphone","4","43558","0.0-4.0-0.0","668703D4C675497BA09AE5588BDC518B","668703D4C675497BA09AE5588BDC518B","050cda97-60cd-4ae1-ad10-7c58cb9d76fb","a0a8f18c-a66e-4ba7-a170-23efbdc67501","{""participantId"":""668703D4C675497BA09AE5588BDC518B"",""assignmentId"":""050cda97-60cd-4ae1-ad10-7c58cb9d76fb"",""projectId"":""a0a8f18c-a66e-4ba7-a170-23efbdc67501""}","https://test12345.live/?participantId=668703D4C675497BA09AE5588BDC518B&assignmentId=050cda97-60cd-4ae1-ad10-7c58cb9d76fb&projectId=a0a8f18c-a66e-4ba7-a170-23efbdc67501","668703D4C675497BA09AE5588BDC518B-2024-11-24-17-36-56","","","6ca0e1d76ec551a8e938143105b0162f215e5c0d19775846ffdaa93abeb6eb28","","","",""
"","","","","","html-audio-response","5","61802","0.0-4.0-1.0","668703D4C675497BA09AE5588BDC518B","668703D4C675497BA09AE5588BDC518B","050cda97-60cd-4ae1-ad10-7c58cb9d76fb","a0a8f18c-a66e-4ba7-a170-23efbdc67501","{""participantId"":""668703D4C675497BA09AE5588BDC518B"",""assignmentId"":""050cda97-60cd-4ae1-ad10-7c58cb9d76fb"",""projectId"":""a0a8f18c-a66e-4ba7-a170-23efbdc67501""}","https://test12345.live/?participantId=668703D4C675497BA09AE5588BDC518B&assignmentId=050cda97-60cd-4ae1-ad10-7c58cb9d76fb&projectId=a0a8f18c-a66e-4ba7-a170-23efbdc67501","668703D4C675497BA09AE5588BDC518B-2024-11-24-17-36-56","","3827","","<span style=""color: red; font-size: 24px""> NOW RECORDING</span>
        <p>Please test Microphone</p>","","4",""
"","","","","","html-button-response","6","63258","0.0-4.0-2.0","668703D4C675497BA09AE5588BDC518B","668703D4C675497BA09AE5588BDC518B","050cda97-60cd-4ae1-ad10-7c58cb9d76fb","a0a8f18c-a66e-4ba7-a170-23efbdc67501","{""participantId"":""668703D4C675497BA09AE5588BDC518B"",""assignmentId"":""050cda97-60cd-4ae1-ad10-7c58cb9d76fb"",""projectId"":""a0a8f18c-a66e-4ba7-a170-23efbdc67501""}","https://test12345.live/?participantId=668703D4C675497BA09AE5588BDC518B&assignmentId=050cda97-60cd-4ae1-ad10-7c58cb9d76fb&projectId=a0a8f18c-a66e-4ba7-a170-23efbdc67501","668703D4C675497BA09AE5588BDC518B-2024-11-24-17-36-56","","1456","","<p style=""font-size:48px; color:red;"">Is Microphone OK?</p>","1","",""
"","","","","","instructions","7","70741","0.0-5.0","668703D4C675497BA09AE5588BDC518B","668703D4C675497BA09AE5588BDC518B","050cda97-60cd-4ae1-ad10-7c58cb9d76fb","a0a8f18c-a66e-4ba7-a170-23efbdc67501","{""participantId"":""668703D4C675497BA09AE5588BDC518B"",""assignmentId"":""050cda97-60cd-4ae1-ad10-7c58cb9d76fb"",""projectId"":""a0a8f18c-a66e-4ba7-a170-23efbdc67501""}","https://test12345.live/?participantId=668703D4C675497BA09AE5588BDC518B&assignmentId=050cda97-60cd-4ae1-ad10-7c58cb9d76fb&projectId=a0a8f18c-a66e-4ba7-a170-23efbdc67501","668703D4C675497BA09AE5588BDC518B-2024-11-24-17-36-56","[{""page_index"":0,""viewing_time"":3334},{""page_index"":1,""viewing_time"":4147}]","7482","","","","",""
"","","","","","image-button-response","8","76751","0.0-6.0-0.0","668703D4C675497BA09AE5588BDC518B","668703D4C675497BA09AE5588BDC518B","050cda97-60cd-4ae1-ad10-7c58cb9d76fb","a0a8f18c-a66e-4ba7-a170-23efbdc67501","{""participantId"":""668703D4C675497BA09AE5588BDC518B"",""assignmentId"":""050cda97-60cd-4ae1-ad10-7c58cb9d76fb"",""projectId"":""a0a8f18c-a66e-4ba7-a170-23efbdc67501""}","https://test12345.live/?participantId=668703D4C675497BA09AE5588BDC518B&assignmentId=050cda97-60cd-4ae1-ad10-7c58cb9d76fb&projectId=a0a8f18c-a66e-4ba7-a170-23efbdc67501","668703D4C675497BA09AE5588BDC518B-2024-11-24-17-36-56","","null","","images/instructions/movie_0.png","null","",""
"","","","","","image-button-response","9","81268","0.0-6.0-1.0-0.0","668703D4C675497BA09AE5588BDC518B","668703D4C675497BA09AE5588BDC518B","050cda97-60cd-4ae1-ad10-7c58cb9d76fb","a0a8f18c-a66e-4ba7-a170-23efbdc67501","{""participantId"":""668703D4C675497BA09AE5588BDC518B"",""assignmentId"":""050cda97-60cd-4ae1-ad10-7c58cb9d76fb"",""projectId"":""a0a8f18c-a66e-4ba7-a170-23efbdc67501""}","https://test12345.live/?participantId=668703D4C675497BA09AE5588BDC518B&assignmentId=050cda97-60cd-4ae1-ad10-7c58cb9d76fb&projectId=a0a8f18c-a66e-4ba7-a170-23efbdc67501","668703D4C675497BA09AE5588BDC518B-2024-11-24-17-36-56","","null","","images/instructions/movie_1.png","null","",""
"","","","","","image-button-response","10","83573","0.0-6.0-1.0-1.0","668703D4C675497BA09AE5588BDC518B","668703D4C675497BA09AE5588BDC518B","050cda97-60cd-4ae1-ad10-7c58cb9d76fb","a0a8f18c-a66e-4ba7-a170-23efbdc67501","{""participantId"":""668703D4C675497BA09AE5588BDC518B"",""assignmentId"":""050cda97-60cd-4ae1-ad10-7c58cb9d76fb"",""projectId"":""a0a8f18c-a66e-4ba7-a170-23efbdc67501""}","https://test12345.live/?participantId=668703D4C675497BA09AE5588BDC518B&assignmentId=050cda97-60cd-4ae1-ad10-7c58cb9d76fb&projectId=a0a8f18c-a66e-4ba7-a170-23efbdc67501","668703D4C675497BA09AE5588BDC518B-2024-11-24-17-36-56","","2304","","images/instructions/movie_1.png","0","",""
"","","","","","image-button-response","11","85384","0.0-6.0-1.0-2.0","668703D4C675497BA09AE5588BDC518B","668703D4C675497BA09AE5588BDC518B","050cda97-60cd-4ae1-ad10-7c58cb9d76fb","a0a8f18c-a66e-4ba7-a170-23efbdc67501","{""participantId"":""668703D4C675497BA09AE5588BDC518B"",""assignmentId"":""050cda97-60cd-4ae1-ad10-7c58cb9d76fb"",""projectId"":""a0a8f18c-a66e-4ba7-a170-23efbdc67501""}","https://test12345.live/?participantId=668703D4C675497BA09AE5588BDC518B&assignmentId=050cda97-60cd-4ae1-ad10-7c58cb9d76fb&projectId=a0a8f18c-a66e-4ba7-a170-23efbdc67501","668703D4C675497BA09AE5588BDC518B-2024-11-24-17-36-56","","null","","[]","null","",""
"","","","","","image-button-response","12","89902","0.0-6.0-1.0-0.1","668703D4C675497BA09AE5588BDC518B","668703D4C675497BA09AE5588BDC518B","050cda97-60cd-4ae1-ad10-7c58cb9d76fb","a0a8f18c-a66e-4ba7-a170-23efbdc67501","{""participantId"":""668703D4C675497BA09AE5588BDC518B"",""assignmentId"":""050cda97-60cd-4ae1-ad10-7c58cb9d76fb"",""projectId"":""a0a8f18c-a66e-4ba7-a170-23efbdc67501""}","https://test12345.live/?participantId=668703D4C675497BA09AE5588BDC518B&assignmentId=050cda97-60cd-4ae1-ad10-7c58cb9d76fb&projectId=a0a8f18c-a66e-4ba7-a170-23efbdc67501","668703D4C675497BA09AE5588BDC518B-2024-11-24-17-36-56","","null","","images/instructions/movie_2.png","null","",""
"","","","","","image-button-response","13","90989","0.0-6.0-1.0-1.1","668703D4C675497BA09AE5588BDC518B","668703D4C675497BA09AE5588BDC518B","050cda97-60cd-4ae1-ad10-7c58cb9d76fb","a0a8f18c-a66e-4ba7-a170-23efbdc67501","{""participantId"":""668703D4C675497BA09AE5588BDC518B"",""assignmentId"":""050cda97-60cd-4ae1-ad10-7c58cb9d76fb"",""projectId"":""a0a8f18c-a66e-4ba7-a170-23efbdc67501""}","https://test12345.live/?participantId=668703D4C675497BA09AE5588BDC518B&assignmentId=050cda97-60cd-4ae1-ad10-7c58cb9d76fb&projectId=a0a8f18c-a66e-4ba7-a170-23efbdc67501","668703D4C675497BA09AE5588BDC518B-2024-11-24-17-36-56","","1086","","images/instructions/movie_2.png","0","",""
"","","","","","image-button-response","14","92790","0.0-6.0-1.0-2.1","668703D4C675497BA09AE5588BDC518B","668703D4C675497BA09AE5588BDC518B","050cda97-60cd-4ae1-ad10-7c58cb9d76fb","a0a8f18c-a66e-4ba7-a170-23efbdc67501","{""participantId"":""668703D4C675497BA09AE5588BDC518B"",""assignmentId"":""050cda97-60cd-4ae1-ad10-7c58cb9d76fb"",""projectId"":""a0a8f18c-a66e-4ba7-a170-23efbdc67501""}","https://test12345.live/?participantId=668703D4C675497BA09AE5588BDC518B&assignmentId=050cda97-60cd-4ae1-ad10-7c58cb9d76fb&projectId=a0a8f18c-a66e-4ba7-a170-23efbdc67501","668703D4C675497BA09AE5588BDC518B-2024-11-24-17-36-56","","null","","[]","null","",""
"","","","","","image-button-response","15","97302","0.0-6.0-1.0-0.2","668703D4C675497BA09AE5588BDC518B","668703D4C675497BA09AE5588BDC518B","050cda97-60cd-4ae1-ad10-7c58cb9d76fb","a0a8f18c-a66e-4ba7-a170-23efbdc67501","{""participantId"":""668703D4C675497BA09AE5588BDC518B"",""assignmentId"":""050cda97-60cd-4ae1-ad10-7c58cb9d76fb"",""projectId"":""a0a8f18c-a66e-4ba7-a170-23efbdc67501""}","https://test12345.live/?participantId=668703D4C675497BA09AE5588BDC518B&assignmentId=050cda97-60cd-4ae1-ad10-7c58cb9d76fb&projectId=a0a8f18c-a66e-4ba7-a170-23efbdc67501","668703D4C675497BA09AE5588BDC518B-2024-11-24-17-36-56","","null","","images/instructions/movie_3.png","null","",""
"","","","","","image-button-response","16","100669","0.0-6.0-1.0-1.2","668703D4C675497BA09AE5588BDC518B","668703D4C675497BA09AE5588BDC518B","050cda97-60cd-4ae1-ad10-7c58cb9d76fb","a0a8f18c-a66e-4ba7-a170-23efbdc67501","{""participantId"":""668703D4C675497BA09AE5588BDC518B"",""assignmentId"":""050cda97-60cd-4ae1-ad10-7c58cb9d76fb"",""projectId"":""a0a8f18c-a66e-4ba7-a170-23efbdc67501""}","https://test12345.live/?participantId=668703D4C675497BA09AE5588BDC518B&assignmentId=050cda97-60cd-4ae1-ad10-7c58cb9d76fb&projectId=a0a8f18c-a66e-4ba7-a170-23efbdc67501","668703D4C675497BA09AE5588BDC518B-2024-11-24-17-36-56","","3367","","images/instructions/movie_3.png","0","",""
"","","","","","image-button-response","17","102470","0.0-6.0-1.0-2.2","668703D4C675497BA09AE5588BDC518B","668703D4C675497BA09AE5588BDC518B","050cda97-60cd-4ae1-ad10-7c58cb9d76fb","a0a8f18c-a66e-4ba7-a170-23efbdc67501","{""participantId"":""668703D4C675497BA09AE5588BDC518B"",""assignmentId"":""050cda97-60cd-4ae1-ad10-7c58cb9d76fb"",""projectId"":""a0a8f18c-a66e-4ba7-a170-23efbdc67501""}","https://test12345.live/?participantId=668703D4C675497BA09AE5588BDC518B&assignmentId=050cda97-60cd-4ae1-ad10-7c58cb9d76fb&projectId=a0a8f18c-a66e-4ba7-a170-23efbdc67501","668703D4C675497BA09AE5588BDC518B-2024-11-24-17-36-56","","null","","[]","null","",""
"","","","","","image-button-response","18","106972","0.0-6.0-1.0-0.3","668703D4C675497BA09AE5588BDC518B","668703D4C675497BA09AE5588BDC518B","050cda97-60cd-4ae1-ad10-7c58cb9d76fb","a0a8f18c-a66e-4ba7-a170-23efbdc67501","{""participantId"":""668703D4C675497BA09AE5588BDC518B"",""assignmentId"":""050cda97-60cd-4ae1-ad10-7c58cb9d76fb"",""projectId"":""a0a8f18c-a66e-4ba7-a170-23efbdc67501""}","https://test12345.live/?participantId=668703D4C675497BA09AE5588BDC518B&assignmentId=050cda97-60cd-4ae1-ad10-7c58cb9d76fb&projectId=a0a8f18c-a66e-4ba7-a170-23efbdc67501","668703D4C675497BA09AE5588BDC518B-2024-11-24-17-36-56","","null","","images/instructions/movie_4.png","null","",""
"","","","","","image-button-response","19","107962","0.0-6.0-1.0-1.3","668703D4C675497BA09AE5588BDC518B","668703D4C675497BA09AE5588BDC518B","050cda97-60cd-4ae1-ad10-7c58cb9d76fb","a0a8f18c-a66e-4ba7-a170-23efbdc67501","{""participantId"":""668703D4C675497BA09AE5588BDC518B"",""assignmentId"":""050cda97-60cd-4ae1-ad10-7c58cb9d76fb"",""projectId"":""a0a8f18c-a66e-4ba7-a170-23efbdc67501""}","https://test12345.live/?participantId=668703D4C675497BA09AE5588BDC518B&assignmentId=050cda97-60cd-4ae1-ad10-7c58cb9d76fb&projectId=a0a8f18c-a66e-4ba7-a170-23efbdc67501","668703D4C675497BA09AE5588BDC518B-2024-11-24-17-36-56","","989","","images/instructions/movie_4.png","0","",""
"","","","","","image-button-response","20","109764","0.0-6.0-1.0-2.3","668703D4C675497BA09AE5588BDC518B","668703D4C675497BA09AE5588BDC518B","050cda97-60cd-4ae1-ad10-7c58cb9d76fb","a0a8f18c-a66e-4ba7-a170-23efbdc67501","{""participantId"":""668703D4C675497BA09AE5588BDC518B"",""assignmentId"":""050cda97-60cd-4ae1-ad10-7c58cb9d76fb"",""projectId"":""a0a8f18c-a66e-4ba7-a170-23efbdc67501""}","https://test12345.live/?participantId=668703D4C675497BA09AE5588BDC518B&assignmentId=050cda97-60cd-4ae1-ad10-7c58cb9d76fb&projectId=a0a8f18c-a66e-4ba7-a170-23efbdc67501","668703D4C675497BA09AE5588BDC518B-2024-11-24-17-36-56","","null","","[]","null","",""
"","","","","","instructions","21","116614","0.0-7.0","668703D4C675497BA09AE5588BDC518B","668703D4C675497BA09AE5588BDC518B","050cda97-60cd-4ae1-ad10-7c58cb9d76fb","a0a8f18c-a66e-4ba7-a170-23efbdc67501","{""participantId"":""668703D4C675497BA09AE5588BDC518B"",""assignmentId"":""050cda97-60cd-4ae1-ad10-7c58cb9d76fb"",""projectId"":""a0a8f18c-a66e-4ba7-a170-23efbdc67501""}","https://test12345.live/?participantId=668703D4C675497BA09AE5588BDC518B&assignmentId=050cda97-60cd-4ae1-ad10-7c58cb9d76fb&projectId=a0a8f18c-a66e-4ba7-a170-23efbdc67501","668703D4C675497BA09AE5588BDC518B-2024-11-24-17-36-56","[{""page_index"":0,""viewing_time"":5824},{""page_index"":1,""viewing_time"":1026}]","6850","","","","",""
"","","","","","html-audio-response","22","148143","0.0-8.0","668703D4C675497BA09AE5588BDC518B","668703D4C675497BA09AE5588BDC518B","050cda97-60cd-4ae1-ad10-7c58cb9d76fb","a0a8f18c-a66e-4ba7-a170-23efbdc67501","{""participantId"":""668703D4C675497BA09AE5588BDC518B"",""assignmentId"":""050cda97-60cd-4ae1-ad10-7c58cb9d76fb"",""projectId"":""a0a8f18c-a66e-4ba7-a170-23efbdc67501""}","https://test12345.live/?participantId=668703D4C675497BA09AE5588BDC518B&assignmentId=050cda97-60cd-4ae1-ad10-7c58cb9d76fb&projectId=a0a8f18c-a66e-4ba7-a170-23efbdc67501","668703D4C675497BA09AE5588BDC518B-2024-11-24-17-36-56","","17596","","[""<span style=\""color: red; font-size: 24px\""> NOW RECORDING</span><p>Please say out loud all the images you saw, as many as you can remember. The images can be said in any order.</p>""]","","16",""
"","","","","","instructions","23","149138","0.0-9.0","668703D4C675497BA09AE5588BDC518B","668703D4C675497BA09AE5588BDC518B","050cda97-60cd-4ae1-ad10-7c58cb9d76fb","a0a8f18c-a66e-4ba7-a170-23efbdc67501","{""participantId"":""668703D4C675497BA09AE5588BDC518B"",""assignmentId"":""050cda97-60cd-4ae1-ad10-7c58cb9d76fb"",""projectId"":""a0a8f18c-a66e-4ba7-a170-23efbdc67501""}","https://test12345.live/?participantId=668703D4C675497BA09AE5588BDC518B&assignmentId=050cda97-60cd-4ae1-ad10-7c58cb9d76fb&projectId=a0a8f18c-a66e-4ba7-a170-23efbdc67501","668703D4C675497BA09AE5588BDC518B-2024-11-24-17-36-56","[{""page_index"":0,""viewing_time"":989}]","990","","","","",""
"","","","","","image-button-response","24","155141","0.0-10.0-0.0","668703D4C675497BA09AE5588BDC518B","668703D4C675497BA09AE5588BDC518B","050cda97-60cd-4ae1-ad10-7c58cb9d76fb","a0a8f18c-a66e-4ba7-a170-23efbdc67501","{""participantId"":""668703D4C675497BA09AE5588BDC518B"",""assignmentId"":""050cda97-60cd-4ae1-ad10-7c58cb9d76fb"",""projectId"":""a0a8f18c-a66e-4ba7-a170-23efbdc67501""}","https://test12345.live/?participantId=668703D4C675497BA09AE5588BDC518B&assignmentId=050cda97-60cd-4ae1-ad10-7c58cb9d76fb&projectId=a0a8f18c-a66e-4ba7-a170-23efbdc67501","668703D4C675497BA09AE5588BDC518B-2024-11-24-17-36-56","","null","","images/causal_sequence/saving_a_cat_causal/saving_a_cat_causal_0.png","null","",""
"","","","","","image-button-response","25","159642","0.0-10.0-1.0-0.0","668703D4C675497BA09AE5588BDC518B","668703D4C675497BA09AE5588BDC518B","050cda97-60cd-4ae1-ad10-7c58cb9d76fb","a0a8f18c-a66e-4ba7-a170-23efbdc67501","{""participantId"":""668703D4C675497BA09AE5588BDC518B"",""assignmentId"":""050cda97-60cd-4ae1-ad10-7c58cb9d76fb"",""projectId"":""a0a8f18c-a66e-4ba7-a170-23efbdc67501""}","https://test12345.live/?participantId=668703D4C675497BA09AE5588BDC518B&assignmentId=050cda97-60cd-4ae1-ad10-7c58cb9d76fb&projectId=a0a8f18c-a66e-4ba7-a170-23efbdc67501","668703D4C675497BA09AE5588BDC518B-2024-11-24-17-36-56","","null","","images/causal_sequence/saving_a_cat_causal/saving_a_cat_causal_1.png","null","",""
"","","","","","image-button-response","26","161754","0.0-10.0-1.0-1.0","668703D4C675497BA09AE5588BDC518B","668703D4C675497BA09AE5588BDC518B","050cda97-60cd-4ae1-ad10-7c58cb9d76fb","a0a8f18c-a66e-4ba7-a170-23efbdc67501","{""participantId"":""668703D4C675497BA09AE5588BDC518B"",""assignmentId"":""050cda97-60cd-4ae1-ad10-7c58cb9d76fb"",""projectId"":""a0a8f18c-a66e-4ba7-a170-23efbdc67501""}","https://test12345.live/?participantId=668703D4C675497BA09AE5588BDC518B&assignmentId=050cda97-60cd-4ae1-ad10-7c58cb9d76fb&projectId=a0a8f18c-a66e-4ba7-a170-23efbdc67501","668703D4C675497BA09AE5588BDC518B-2024-11-24-17-36-56","","2111","","images/causal_sequence/saving_a_cat_causal/saving_a_cat_causal_1.png","0","",""
"","","","","","image-button-response","27","163555","0.0-10.0-1.0-2.0","668703D4C675497BA09AE5588BDC518B","668703D4C675497BA09AE5588BDC518B","050cda97-60cd-4ae1-ad10-7c58cb9d76fb","a0a8f18c-a66e-4ba7-a170-23efbdc67501","{""participantId"":""668703D4C675497BA09AE5588BDC518B"",""assignmentId"":""050cda97-60cd-4ae1-ad10-7c58cb9d76fb"",""projectId"":""a0a8f18c-a66e-4ba7-a170-23efbdc67501""}","https://test12345.live/?participantId=668703D4C675497BA09AE5588BDC518B&assignmentId=050cda97-60cd-4ae1-ad10-7c58cb9d76fb&projectId=a0a8f18c-a66e-4ba7-a170-23efbdc67501","668703D4C675497BA09AE5588BDC518B-2024-11-24-17-36-56","","null","","[]","null","",""
"","","","","","image-button-response","28","168070","0.0-10.0-1.0-0.1","668703D4C675497BA09AE5588BDC518B","668703D4C675497BA09AE5588BDC518B","050cda97-60cd-4ae1-ad10-7c58cb9d76fb","a0a8f18c-a66e-4ba7-a170-23efbdc67501","{""participantId"":""668703D4C675497BA09AE5588BDC518B"",""assignmentId"":""050cda97-60cd-4ae1-ad10-7c58cb9d76fb"",""projectId"":""a0a8f18c-a66e-4ba7-a170-23efbdc67501""}","https://test12345.live/?participantId=668703D4C675497BA09AE5588BDC518B&assignmentId=050cda97-60cd-4ae1-ad10-7c58cb9d76fb&projectId=a0a8f18c-a66e-4ba7-a170-23efbdc67501","668703D4C675497BA09AE5588BDC518B-2024-11-24-17-36-56","","null","","images/causal_sequence/saving_a_cat_causal/saving_a_cat_causal_2.png","null","",""
"","","","","","image-button-response","29","172073","0.0-10.0-1.0-1.1","668703D4C675497BA09AE5588BDC518B","668703D4C675497BA09AE5588BDC518B","050cda97-60cd-4ae1-ad10-7c58cb9d76fb","a0a8f18c-a66e-4ba7-a170-23efbdc67501","{""participantId"":""668703D4C675497BA09AE5588BDC518B"",""assignmentId"":""050cda97-60cd-4ae1-ad10-7c58cb9d76fb"",""projectId"":""a0a8f18c-a66e-4ba7-a170-23efbdc67501""}","https://test12345.live/?participantId=668703D4C675497BA09AE5588BDC518B&assignmentId=050cda97-60cd-4ae1-ad10-7c58cb9d76fb&projectId=a0a8f18c-a66e-4ba7-a170-23efbdc67501","668703D4C675497BA09AE5588BDC518B-2024-11-24-17-36-56","","null","","images/causal_sequence/saving_a_cat_causal/saving_a_cat_causal_2.png","null","",""
"","","","","","image-button-response","30","173874","0.0-10.0-1.0-2.1","668703D4C675497BA09AE5588BDC518B","668703D4C675497BA09AE5588BDC518B","050cda97-60cd-4ae1-ad10-7c58cb9d76fb","a0a8f18c-a66e-4ba7-a170-23efbdc67501","{""participantId"":""668703D4C675497BA09AE5588BDC518B"",""assignmentId"":""050cda97-60cd-4ae1-ad10-7c58cb9d76fb"",""projectId"":""a0a8f18c-a66e-4ba7-a170-23efbdc67501""}","https://test12345.live/?participantId=668703D4C675497BA09AE5588BDC518B&assignmentId=050cda97-60cd-4ae1-ad10-7c58cb9d76fb&projectId=a0a8f18c-a66e-4ba7-a170-23efbdc67501","668703D4C675497BA09AE5588BDC518B-2024-11-24-17-36-56","","null","","[]","null","",""
"","","","","","image-button-response","31","178388","0.0-10.0-1.0-0.2","668703D4C675497BA09AE5588BDC518B","668703D4C675497BA09AE5588BDC518B","050cda97-60cd-4ae1-ad10-7c58cb9d76fb","a0a8f18c-a66e-4ba7-a170-23efbdc67501","{""participantId"":""668703D4C675497BA09AE5588BDC518B"",""assignmentId"":""050cda97-60cd-4ae1-ad10-7c58cb9d76fb"",""projectId"":""a0a8f18c-a66e-4ba7-a170-23efbdc67501""}","https://test12345.live/?participantId=668703D4C675497BA09AE5588BDC518B&assignmentId=050cda97-60cd-4ae1-ad10-7c58cb9d76fb&projectId=a0a8f18c-a66e-4ba7-a170-23efbdc67501","668703D4C675497BA09AE5588BDC518B-2024-11-24-17-36-56","","null","","images/causal_sequence/saving_a_cat_causal/saving_a_cat_causal_3.png","null","",""
"","","","","","image-button-response","32","179060","0.0-10.0-1.0-1.2","668703D4C675497BA09AE5588BDC518B","668703D4C675497BA09AE5588BDC518B","050cda97-60cd-4ae1-ad10-7c58cb9d76fb","a0a8f18c-a66e-4ba7-a170-23efbdc67501","{""participantId"":""668703D4C675497BA09AE5588BDC518B"",""assignmentId"":""050cda97-60cd-4ae1-ad10-7c58cb9d76fb"",""projectId"":""a0a8f18c-a66e-4ba7-a170-23efbdc67501""}","https://test12345.live/?participantId=668703D4C675497BA09AE5588BDC518B&assignmentId=050cda97-60cd-4ae1-ad10-7c58cb9d76fb&projectId=a0a8f18c-a66e-4ba7-a170-23efbdc67501","668703D4C675497BA09AE5588BDC518B-2024-11-24-17-36-56","","672","","images/causal_sequence/saving_a_cat_causal/saving_a_cat_causal_3.png","1","",""
"","","","","","image-button-response","33","180862","0.0-10.0-1.0-2.2","668703D4C675497BA09AE5588BDC518B","668703D4C675497BA09AE5588BDC518B","050cda97-60cd-4ae1-ad10-7c58cb9d76fb","a0a8f18c-a66e-4ba7-a170-23efbdc67501","{""participantId"":""668703D4C675497BA09AE5588BDC518B"",""assignmentId"":""050cda97-60cd-4ae1-ad10-7c58cb9d76fb"",""projectId"":""a0a8f18c-a66e-4ba7-a170-23efbdc67501""}","https://test12345.live/?participantId=668703D4C675497BA09AE5588BDC518B&assignmentId=050cda97-60cd-4ae1-ad10-7c58cb9d76fb&projectId=a0a8f18c-a66e-4ba7-a170-23efbdc67501","668703D4C675497BA09AE5588BDC518B-2024-11-24-17-36-56","","null","","[]","null","",""
"","","","","","image-button-response","34","185372","0.0-10.0-1.0-0.3","668703D4C675497BA09AE5588BDC518B","668703D4C675497BA09AE5588BDC518B","050cda97-60cd-4ae1-ad10-7c58cb9d76fb","a0a8f18c-a66e-4ba7-a170-23efbdc67501","{""participantId"":""668703D4C675497BA09AE5588BDC518B"",""assignmentId"":""050cda97-60cd-4ae1-ad10-7c58cb9d76fb"",""projectId"":""a0a8f18c-a66e-4ba7-a170-23efbdc67501""}","https://test12345.live/?participantId=668703D4C675497BA09AE5588BDC518B&assignmentId=050cda97-60cd-4ae1-ad10-7c58cb9d76fb&projectId=a0a8f18c-a66e-4ba7-a170-23efbdc67501","668703D4C675497BA09AE5588BDC518B-2024-11-24-17-36-56","","null","","images/causal_sequence/saving_a_cat_causal/saving_a_cat_causal_4.png","null","",""
"","","","","","image-button-response","35","186626","0.0-10.0-1.0-1.3","668703D4C675497BA09AE5588BDC518B","668703D4C675497BA09AE5588BDC518B","050cda97-60cd-4ae1-ad10-7c58cb9d76fb","a0a8f18c-a66e-4ba7-a170-23efbdc67501","{""participantId"":""668703D4C675497BA09AE5588BDC518B"",""assignmentId"":""050cda97-60cd-4ae1-ad10-7c58cb9d76fb"",""projectId"":""a0a8f18c-a66e-4ba7-a170-23efbdc67501""}","https://test12345.live/?participantId=668703D4C675497BA09AE5588BDC518B&assignmentId=050cda97-60cd-4ae1-ad10-7c58cb9d76fb&projectId=a0a8f18c-a66e-4ba7-a170-23efbdc67501","668703D4C675497BA09AE5588BDC518B-2024-11-24-17-36-56","","1252","","images/causal_sequence/saving_a_cat_causal/saving_a_cat_causal_4.png","0","",""
"","","","","","image-button-response","36","188439","0.0-10.0-1.0-2.3","668703D4C675497BA09AE5588BDC518B","668703D4C675497BA09AE5588BDC518B","050cda97-60cd-4ae1-ad10-7c58cb9d76fb","a0a8f18c-a66e-4ba7-a170-23efbdc67501","{""participantId"":""668703D4C675497BA09AE5588BDC518B"",""assignmentId"":""050cda97-60cd-4ae1-ad10-7c58cb9d76fb"",""projectId"":""a0a8f18c-a66e-4ba7-a170-23efbdc67501""}","https://test12345.live/?participantId=668703D4C675497BA09AE5588BDC518B&assignmentId=050cda97-60cd-4ae1-ad10-7c58cb9d76fb&projectId=a0a8f18c-a66e-4ba7-a170-23efbdc67501","668703D4C675497BA09AE5588BDC518B-2024-11-24-17-36-56","","null","","[]","null","",""
"","","","","","image-button-response","37","192955","0.0-10.0-1.0-0.4","668703D4C675497BA09AE5588BDC518B","668703D4C675497BA09AE5588BDC518B","050cda97-60cd-4ae1-ad10-7c58cb9d76fb","a0a8f18c-a66e-4ba7-a170-23efbdc67501","{""participantId"":""668703D4C675497BA09AE5588BDC518B"",""assignmentId"":""050cda97-60cd-4ae1-ad10-7c58cb9d76fb"",""projectId"":""a0a8f18c-a66e-4ba7-a170-23efbdc67501""}","https://test12345.live/?participantId=668703D4C675497BA09AE5588BDC518B&assignmentId=050cda97-60cd-4ae1-ad10-7c58cb9d76fb&projectId=a0a8f18c-a66e-4ba7-a170-23efbdc67501","668703D4C675497BA09AE5588BDC518B-2024-11-24-17-36-56","","null","","images/causal_sequence/saving_a_cat_causal/saving_a_cat_causal_5.png","null","",""
"","","","","","image-button-response","38","193552","0.0-10.0-1.0-1.4","668703D4C675497BA09AE5588BDC518B","668703D4C675497BA09AE5588BDC518B","050cda97-60cd-4ae1-ad10-7c58cb9d76fb","a0a8f18c-a66e-4ba7-a170-23efbdc67501","{""participantId"":""668703D4C675497BA09AE5588BDC518B"",""assignmentId"":""050cda97-60cd-4ae1-ad10-7c58cb9d76fb"",""projectId"":""a0a8f18c-a66e-4ba7-a170-23efbdc67501""}","https://test12345.live/?participantId=668703D4C675497BA09AE5588BDC518B&assignmentId=050cda97-60cd-4ae1-ad10-7c58cb9d76fb&projectId=a0a8f18c-a66e-4ba7-a170-23efbdc67501","668703D4C675497BA09AE5588BDC518B-2024-11-24-17-36-56","","597","","images/causal_sequence/saving_a_cat_causal/saving_a_cat_causal_5.png","0","",""
"","","","","","image-button-response","39","195356","0.0-10.0-1.0-2.4","668703D4C675497BA09AE5588BDC518B","668703D4C675497BA09AE5588BDC518B","050cda97-60cd-4ae1-ad10-7c58cb9d76fb","a0a8f18c-a66e-4ba7-a170-23efbdc67501","{""participantId"":""668703D4C675497BA09AE5588BDC518B"",""assignmentId"":""050cda97-60cd-4ae1-ad10-7c58cb9d76fb"",""projectId"":""a0a8f18c-a66e-4ba7-a170-23efbdc67501""}","https://test12345.live/?participantId=668703D4C675497BA09AE5588BDC518B&assignmentId=050cda97-60cd-4ae1-ad10-7c58cb9d76fb&projectId=a0a8f18c-a66e-4ba7-a170-23efbdc67501","668703D4C675497BA09AE5588BDC518B-2024-11-24-17-36-56","","null","","[]","null","",""
"","","","","","image-button-response","40","199872","0.0-10.0-1.0-0.5","668703D4C675497BA09AE5588BDC518B","668703D4C675497BA09AE5588BDC518B","050cda97-60cd-4ae1-ad10-7c58cb9d76fb","a0a8f18c-a66e-4ba7-a170-23efbdc67501","{""participantId"":""668703D4C675497BA09AE5588BDC518B"",""assignmentId"":""050cda97-60cd-4ae1-ad10-7c58cb9d76fb"",""projectId"":""a0a8f18c-a66e-4ba7-a170-23efbdc67501""}","https://test12345.live/?participantId=668703D4C675497BA09AE5588BDC518B&assignmentId=050cda97-60cd-4ae1-ad10-7c58cb9d76fb&projectId=a0a8f18c-a66e-4ba7-a170-23efbdc67501","668703D4C675497BA09AE5588BDC518B-2024-11-24-17-36-56","","null","","images/causal_sequence/saving_a_cat_causal/saving_a_cat_causal_6.png","null","",""
"","","","","","image-button-response","41","201217","0.0-10.0-1.0-1.5","668703D4C675497BA09AE5588BDC518B","668703D4C675497BA09AE5588BDC518B","050cda97-60cd-4ae1-ad10-7c58cb9d76fb","a0a8f18c-a66e-4ba7-a170-23efbdc67501","{""participantId"":""668703D4C675497BA09AE5588BDC518B"",""assignmentId"":""050cda97-60cd-4ae1-ad10-7c58cb9d76fb"",""projectId"":""a0a8f18c-a66e-4ba7-a170-23efbdc67501""}","https://test12345.live/?participantId=668703D4C675497BA09AE5588BDC518B&assignmentId=050cda97-60cd-4ae1-ad10-7c58cb9d76fb&projectId=a0a8f18c-a66e-4ba7-a170-23efbdc67501","668703D4C675497BA09AE5588BDC518B-2024-11-24-17-36-56","","1345","","images/causal_sequence/saving_a_cat_causal/saving_a_cat_causal_6.png","0","",""
"","","","","","image-button-response","42","203022","0.0-10.0-1.0-2.5","668703D4C675497BA09AE5588BDC518B","668703D4C675497BA09AE5588BDC518B","050cda97-60cd-4ae1-ad10-7c58cb9d76fb","a0a8f18c-a66e-4ba7-a170-23efbdc67501","{""participantId"":""668703D4C675497BA09AE5588BDC518B"",""assignmentId"":""050cda97-60cd-4ae1-ad10-7c58cb9d76fb"",""projectId"":""a0a8f18c-a66e-4ba7-a170-23efbdc67501""}","https://test12345.live/?participantId=668703D4C675497BA09AE5588BDC518B&assignmentId=050cda97-60cd-4ae1-ad10-7c58cb9d76fb&projectId=a0a8f18c-a66e-4ba7-a170-23efbdc67501","668703D4C675497BA09AE5588BDC518B-2024-11-24-17-36-56","","null","","[]","null","",""
"","","","","","image-button-response","43","207524","0.0-10.0-1.0-0.6","668703D4C675497BA09AE5588BDC518B","668703D4C675497BA09AE5588BDC518B","050cda97-60cd-4ae1-ad10-7c58cb9d76fb","a0a8f18c-a66e-4ba7-a170-23efbdc67501","{""participantId"":""668703D4C675497BA09AE5588BDC518B"",""assignmentId"":""050cda97-60cd-4ae1-ad10-7c58cb9d76fb"",""projectId"":""a0a8f18c-a66e-4ba7-a170-23efbdc67501""}","https://test12345.live/?participantId=668703D4C675497BA09AE5588BDC518B&assignmentId=050cda97-60cd-4ae1-ad10-7c58cb9d76fb&projectId=a0a8f18c-a66e-4ba7-a170-23efbdc67501","668703D4C675497BA09AE5588BDC518B-2024-11-24-17-36-56","","null","","images/causal_sequence/saving_a_cat_causal/saving_a_cat_causal_7.png","null","",""
"","","","","","image-button-response","44","208163","0.0-10.0-1.0-1.6","668703D4C675497BA09AE5588BDC518B","668703D4C675497BA09AE5588BDC518B","050cda97-60cd-4ae1-ad10-7c58cb9d76fb","a0a8f18c-a66e-4ba7-a170-23efbdc67501","{""participantId"":""668703D4C675497BA09AE5588BDC518B"",""assignmentId"":""050cda97-60cd-4ae1-ad10-7c58cb9d76fb"",""projectId"":""a0a8f18c-a66e-4ba7-a170-23efbdc67501""}","https://test12345.live/?participantId=668703D4C675497BA09AE5588BDC518B&assignmentId=050cda97-60cd-4ae1-ad10-7c58cb9d76fb&projectId=a0a8f18c-a66e-4ba7-a170-23efbdc67501","668703D4C675497BA09AE5588BDC518B-2024-11-24-17-36-56","","638","","images/causal_sequence/saving_a_cat_causal/saving_a_cat_causal_7.png","0","",""
"","","","","","image-button-response","45","209972","0.0-10.0-1.0-2.6","668703D4C675497BA09AE5588BDC518B","668703D4C675497BA09AE5588BDC518B","050cda97-60cd-4ae1-ad10-7c58cb9d76fb","a0a8f18c-a66e-4ba7-a170-23efbdc67501","{""participantId"":""668703D4C675497BA09AE5588BDC518B"",""assignmentId"":""050cda97-60cd-4ae1-ad10-7c58cb9d76fb"",""projectId"":""a0a8f18c-a66e-4ba7-a170-23efbdc67501""}","https://test12345.live/?participantId=668703D4C675497BA09AE5588BDC518B&assignmentId=050cda97-60cd-4ae1-ad10-7c58cb9d76fb&projectId=a0a8f18c-a66e-4ba7-a170-23efbdc67501","668703D4C675497BA09AE5588BDC518B-2024-11-24-17-36-56","","null","","[]","null","",""
"","","","","","image-button-response","46","214474","0.0-10.0-1.0-0.7","668703D4C675497BA09AE5588BDC518B","668703D4C675497BA09AE5588BDC518B","050cda97-60cd-4ae1-ad10-7c58cb9d76fb","a0a8f18c-a66e-4ba7-a170-23efbdc67501","{""participantId"":""668703D4C675497BA09AE5588BDC518B"",""assignmentId"":""050cda97-60cd-4ae1-ad10-7c58cb9d76fb"",""projectId"":""a0a8f18c-a66e-4ba7-a170-23efbdc67501""}","https://test12345.live/?participantId=668703D4C675497BA09AE5588BDC518B&assignmentId=050cda97-60cd-4ae1-ad10-7c58cb9d76fb&projectId=a0a8f18c-a66e-4ba7-a170-23efbdc67501","668703D4C675497BA09AE5588BDC518B-2024-11-24-17-36-56","","null","","images/causal_sequence/saving_a_cat_causal/saving_a_cat_causal_8.png","null","",""
"","","","","","image-button-response","47","215011","0.0-10.0-1.0-1.7","668703D4C675497BA09AE5588BDC518B","668703D4C675497BA09AE5588BDC518B","050cda97-60cd-4ae1-ad10-7c58cb9d76fb","a0a8f18c-a66e-4ba7-a170-23efbdc67501","{""participantId"":""668703D4C675497BA09AE5588BDC518B"",""assignmentId"":""050cda97-60cd-4ae1-ad10-7c58cb9d76fb"",""projectId"":""a0a8f18c-a66e-4ba7-a170-23efbdc67501""}","https://test12345.live/?participantId=668703D4C675497BA09AE5588BDC518B&assignmentId=050cda97-60cd-4ae1-ad10-7c58cb9d76fb&projectId=a0a8f18c-a66e-4ba7-a170-23efbdc67501","668703D4C675497BA09AE5588BDC518B-2024-11-24-17-36-56","","536","","images/causal_sequence/saving_a_cat_causal/saving_a_cat_causal_8.png","0","",""
"","","","","","image-button-response","48","216822","0.0-10.0-1.0-2.7","668703D4C675497BA09AE5588BDC518B","668703D4C675497BA09AE5588BDC518B","050cda97-60cd-4ae1-ad10-7c58cb9d76fb","a0a8f18c-a66e-4ba7-a170-23efbdc67501","{""participantId"":""668703D4C675497BA09AE5588BDC518B"",""assignmentId"":""050cda97-60cd-4ae1-ad10-7c58cb9d76fb"",""projectId"":""a0a8f18c-a66e-4ba7-a170-23efbdc67501""}","https://test12345.live/?participantId=668703D4C675497BA09AE5588BDC518B&assignmentId=050cda97-60cd-4ae1-ad10-7c58cb9d76fb&projectId=a0a8f18c-a66e-4ba7-a170-23efbdc67501","668703D4C675497BA09AE5588BDC518B-2024-11-24-17-36-56","","null","","[]","null","",""
"","","","","","image-button-response","49","221324","0.0-10.0-1.0-0.8","668703D4C675497BA09AE5588BDC518B","668703D4C675497BA09AE5588BDC518B","050cda97-60cd-4ae1-ad10-7c58cb9d76fb","a0a8f18c-a66e-4ba7-a170-23efbdc67501","{""participantId"":""668703D4C675497BA09AE5588BDC518B"",""assignmentId"":""050cda97-60cd-4ae1-ad10-7c58cb9d76fb"",""projectId"":""a0a8f18c-a66e-4ba7-a170-23efbdc67501""}","https://test12345.live/?participantId=668703D4C675497BA09AE5588BDC518B&assignmentId=050cda97-60cd-4ae1-ad10-7c58cb9d76fb&projectId=a0a8f18c-a66e-4ba7-a170-23efbdc67501","668703D4C675497BA09AE5588BDC518B-2024-11-24-17-36-56","","null","","images/causal_sequence/saving_a_cat_causal/saving_a_cat_causal_9.png","null","",""
"","","","","","image-button-response","50","222107","0.0-10.0-1.0-1.8","668703D4C675497BA09AE5588BDC518B","668703D4C675497BA09AE5588BDC518B","050cda97-60cd-4ae1-ad10-7c58cb9d76fb","a0a8f18c-a66e-4ba7-a170-23efbdc67501","{""participantId"":""668703D4C675497BA09AE5588BDC518B"",""assignmentId"":""050cda97-60cd-4ae1-ad10-7c58cb9d76fb"",""projectId"":""a0a8f18c-a66e-4ba7-a170-23efbdc67501""}","https://test12345.live/?participantId=668703D4C675497BA09AE5588BDC518B&assignmentId=050cda97-60cd-4ae1-ad10-7c58cb9d76fb&projectId=a0a8f18c-a66e-4ba7-a170-23efbdc67501","668703D4C675497BA09AE5588BDC518B-2024-11-24-17-36-56","","782","","images/causal_sequence/saving_a_cat_causal/saving_a_cat_causal_9.png","0","",""
"","","","","","image-button-response","51","223908","0.0-10.0-1.0-2.8","668703D4C675497BA09AE5588BDC518B","668703D4C675497BA09AE5588BDC518B","050cda97-60cd-4ae1-ad10-7c58cb9d76fb","a0a8f18c-a66e-4ba7-a170-23efbdc67501","{""participantId"":""668703D4C675497BA09AE5588BDC518B"",""assignmentId"":""050cda97-60cd-4ae1-ad10-7c58cb9d76fb"",""projectId"":""a0a8f18c-a66e-4ba7-a170-23efbdc67501""}","https://test12345.live/?participantId=668703D4C675497BA09AE5588BDC518B&assignmentId=050cda97-60cd-4ae1-ad10-7c58cb9d76fb&projectId=a0a8f18c-a66e-4ba7-a170-23efbdc67501","668703D4C675497BA09AE5588BDC518B-2024-11-24-17-36-56","","null","","[]","null","",""
"","","","","","image-button-response","52","228409","0.0-10.0-1.0-0.9","668703D4C675497BA09AE5588BDC518B","668703D4C675497BA09AE5588BDC518B","050cda97-60cd-4ae1-ad10-7c58cb9d76fb","a0a8f18c-a66e-4ba7-a170-23efbdc67501","{""participantId"":""668703D4C675497BA09AE5588BDC518B"",""assignmentId"":""050cda97-60cd-4ae1-ad10-7c58cb9d76fb"",""projectId"":""a0a8f18c-a66e-4ba7-a170-23efbdc67501""}","https://test12345.live/?participantId=668703D4C675497BA09AE5588BDC518B&assignmentId=050cda97-60cd-4ae1-ad10-7c58cb9d76fb&projectId=a0a8f18c-a66e-4ba7-a170-23efbdc67501","668703D4C675497BA09AE5588BDC518B-2024-11-24-17-36-56","","null","","images/causal_sequence/saving_a_cat_causal/saving_a_cat_causal_ten.png","null","",""
"","","","","","image-button-response","53","228901","0.0-10.0-1.0-1.9","668703D4C675497BA09AE5588BDC518B","668703D4C675497BA09AE5588BDC518B","050cda97-60cd-4ae1-ad10-7c58cb9d76fb","a0a8f18c-a66e-4ba7-a170-23efbdc67501","{""participantId"":""668703D4C675497BA09AE5588BDC518B"",""assignmentId"":""050cda97-60cd-4ae1-ad10-7c58cb9d76fb"",""projectId"":""a0a8f18c-a66e-4ba7-a170-23efbdc67501""}","https://test12345.live/?participantId=668703D4C675497BA09AE5588BDC518B&assignmentId=050cda97-60cd-4ae1-ad10-7c58cb9d76fb&projectId=a0a8f18c-a66e-4ba7-a170-23efbdc67501","668703D4C675497BA09AE5588BDC518B-2024-11-24-17-36-56","","491","","images/causal_sequence/saving_a_cat_causal/saving_a_cat_causal_ten.png","0","",""
"","","","","","image-button-response","54","230708","0.0-10.0-1.0-2.9","668703D4C675497BA09AE5588BDC518B","668703D4C675497BA09AE5588BDC518B","050cda97-60cd-4ae1-ad10-7c58cb9d76fb","a0a8f18c-a66e-4ba7-a170-23efbdc67501","{""participantId"":""668703D4C675497BA09AE5588BDC518B"",""assignmentId"":""050cda97-60cd-4ae1-ad10-7c58cb9d76fb"",""projectId"":""a0a8f18c-a66e-4ba7-a170-23efbdc67501""}","https://test12345.live/?participantId=668703D4C675497BA09AE5588BDC518B&assignmentId=050cda97-60cd-4ae1-ad10-7c58cb9d76fb&projectId=a0a8f18c-a66e-4ba7-a170-23efbdc67501","668703D4C675497BA09AE5588BDC518B-2024-11-24-17-36-56","","null","","[]","null","",""
"","","","","","html-audio-response","55","261947","0.0-11.0","668703D4C675497BA09AE5588BDC518B","668703D4C675497BA09AE5588BDC518B","050cda97-60cd-4ae1-ad10-7c58cb9d76fb","a0a8f18c-a66e-4ba7-a170-23efbdc67501","{""participantId"":""668703D4C675497BA09AE5588BDC518B"",""assignmentId"":""050cda97-60cd-4ae1-ad10-7c58cb9d76fb"",""projectId"":""a0a8f18c-a66e-4ba7-a170-23efbdc67501""}","https://test12345.live/?participantId=668703D4C675497BA09AE5588BDC518B&assignmentId=050cda97-60cd-4ae1-ad10-7c58cb9d76fb&projectId=a0a8f18c-a66e-4ba7-a170-23efbdc67501","668703D4C675497BA09AE5588BDC518B-2024-11-24-17-36-56","","28978","","[""<span style=\""color: red; font-size: 24px\""> NOW RECORDING</span><p>Please say out loud all the images you saw, as many as you can remember. The images can be said in any order.</p>""]","","14","saving_a_cat_causal"
"","","","","","image-button-response","56","267958","0.0-12.0-0.0","668703D4C675497BA09AE5588BDC518B","668703D4C675497BA09AE5588BDC518B","050cda97-60cd-4ae1-ad10-7c58cb9d76fb","a0a8f18c-a66e-4ba7-a170-23efbdc67501","{""participantId"":""668703D4C675497BA09AE5588BDC518B"",""assignmentId"":""050cda97-60cd-4ae1-ad10-7c58cb9d76fb"",""projectId"":""a0a8f18c-a66e-4ba7-a170-23efbdc67501""}","https://test12345.live/?participantId=668703D4C675497BA09AE5588BDC518B&assignmentId=050cda97-60cd-4ae1-ad10-7c58cb9d76fb&projectId=a0a8f18c-a66e-4ba7-a170-23efbdc67501","668703D4C675497BA09AE5588BDC518B-2024-11-24-17-36-56","","null","","images/semantic_sequence/physical_activity_semantic/physical_activity_semantic_0.png","null","",""
"","","","","","image-button-response","57","272459","0.0-12.0-1.0-0.0","668703D4C675497BA09AE5588BDC518B","668703D4C675497BA09AE5588BDC518B","050cda97-60cd-4ae1-ad10-7c58cb9d76fb","a0a8f18c-a66e-4ba7-a170-23efbdc67501","{""participantId"":""668703D4C675497BA09AE5588BDC518B"",""assignmentId"":""050cda97-60cd-4ae1-ad10-7c58cb9d76fb"",""projectId"":""a0a8f18c-a66e-4ba7-a170-23efbdc67501""}","https://test12345.live/?participantId=668703D4C675497BA09AE5588BDC518B&assignmentId=050cda97-60cd-4ae1-ad10-7c58cb9d76fb&projectId=a0a8f18c-a66e-4ba7-a170-23efbdc67501","668703D4C675497BA09AE5588BDC518B-2024-11-24-17-36-56","","null","","images/semantic_sequence/physical_activity_semantic/physical_activity_semantic_1.png","null","",""
"","","","","","image-button-response","58","273378","0.0-12.0-1.0-1.0","668703D4C675497BA09AE5588BDC518B","668703D4C675497BA09AE5588BDC518B","050cda97-60cd-4ae1-ad10-7c58cb9d76fb","a0a8f18c-a66e-4ba7-a170-23efbdc67501","{""participantId"":""668703D4C675497BA09AE5588BDC518B"",""assignmentId"":""050cda97-60cd-4ae1-ad10-7c58cb9d76fb"",""projectId"":""a0a8f18c-a66e-4ba7-a170-23efbdc67501""}","https://test12345.live/?participantId=668703D4C675497BA09AE5588BDC518B&assignmentId=050cda97-60cd-4ae1-ad10-7c58cb9d76fb&projectId=a0a8f18c-a66e-4ba7-a170-23efbdc67501","668703D4C675497BA09AE5588BDC518B-2024-11-24-17-36-56","","918","","images/semantic_sequence/physical_activity_semantic/physical_activity_semantic_1.png","0","",""
"","","","","","image-button-response","59","275191","0.0-12.0-1.0-2.0","668703D4C675497BA09AE5588BDC518B","668703D4C675497BA09AE5588BDC518B","050cda97-60cd-4ae1-ad10-7c58cb9d76fb","a0a8f18c-a66e-4ba7-a170-23efbdc67501","{""participantId"":""668703D4C675497BA09AE5588BDC518B"",""assignmentId"":""050cda97-60cd-4ae1-ad10-7c58cb9d76fb"",""projectId"":""a0a8f18c-a66e-4ba7-a170-23efbdc67501""}","https://test12345.live/?participantId=668703D4C675497BA09AE5588BDC518B&assignmentId=050cda97-60cd-4ae1-ad10-7c58cb9d76fb&projectId=a0a8f18c-a66e-4ba7-a170-23efbdc67501","668703D4C675497BA09AE5588BDC518B-2024-11-24-17-36-56","","null","","[]","null","",""
"","","","","","image-button-response","60","279694","0.0-12.0-1.0-0.1","668703D4C675497BA09AE5588BDC518B","668703D4C675497BA09AE5588BDC518B","050cda97-60cd-4ae1-ad10-7c58cb9d76fb","a0a8f18c-a66e-4ba7-a170-23efbdc67501","{""participantId"":""668703D4C675497BA09AE5588BDC518B"",""assignmentId"":""050cda97-60cd-4ae1-ad10-7c58cb9d76fb"",""projectId"":""a0a8f18c-a66e-4ba7-a170-23efbdc67501""}","https://test12345.live/?participantId=668703D4C675497BA09AE5588BDC518B&assignmentId=050cda97-60cd-4ae1-ad10-7c58cb9d76fb&projectId=a0a8f18c-a66e-4ba7-a170-23efbdc67501","668703D4C675497BA09AE5588BDC518B-2024-11-24-17-36-56","","null","","images/semantic_sequence/physical_activity_semantic/physical_activity_semantic_2.png","null","",""
"","","","","","image-button-response","61","280494","0.0-12.0-1.0-1.1","668703D4C675497BA09AE5588BDC518B","668703D4C675497BA09AE5588BDC518B","050cda97-60cd-4ae1-ad10-7c58cb9d76fb","a0a8f18c-a66e-4ba7-a170-23efbdc67501","{""participantId"":""668703D4C675497BA09AE5588BDC518B"",""assignmentId"":""050cda97-60cd-4ae1-ad10-7c58cb9d76fb"",""projectId"":""a0a8f18c-a66e-4ba7-a170-23efbdc67501""}","https://test12345.live/?participantId=668703D4C675497BA09AE5588BDC518B&assignmentId=050cda97-60cd-4ae1-ad10-7c58cb9d76fb&projectId=a0a8f18c-a66e-4ba7-a170-23efbdc67501","668703D4C675497BA09AE5588BDC518B-2024-11-24-17-36-56","","799","","images/semantic_sequence/physical_activity_semantic/physical_activity_semantic_2.png","0","",""
"","","","","","image-button-response","62","282309","0.0-12.0-1.0-2.1","668703D4C675497BA09AE5588BDC518B","668703D4C675497BA09AE5588BDC518B","050cda97-60cd-4ae1-ad10-7c58cb9d76fb","a0a8f18c-a66e-4ba7-a170-23efbdc67501","{""participantId"":""668703D4C675497BA09AE5588BDC518B"",""assignmentId"":""050cda97-60cd-4ae1-ad10-7c58cb9d76fb"",""projectId"":""a0a8f18c-a66e-4ba7-a170-23efbdc67501""}","https://test12345.live/?participantId=668703D4C675497BA09AE5588BDC518B&assignmentId=050cda97-60cd-4ae1-ad10-7c58cb9d76fb&projectId=a0a8f18c-a66e-4ba7-a170-23efbdc67501","668703D4C675497BA09AE5588BDC518B-2024-11-24-17-36-56","","null","","[]","null","",""
"","","","","","image-button-response","63","286810","0.0-12.0-1.0-0.2","668703D4C675497BA09AE5588BDC518B","668703D4C675497BA09AE5588BDC518B","050cda97-60cd-4ae1-ad10-7c58cb9d76fb","a0a8f18c-a66e-4ba7-a170-23efbdc67501","{""participantId"":""668703D4C675497BA09AE5588BDC518B"",""assignmentId"":""050cda97-60cd-4ae1-ad10-7c58cb9d76fb"",""projectId"":""a0a8f18c-a66e-4ba7-a170-23efbdc67501""}","https://test12345.live/?participantId=668703D4C675497BA09AE5588BDC518B&assignmentId=050cda97-60cd-4ae1-ad10-7c58cb9d76fb&projectId=a0a8f18c-a66e-4ba7-a170-23efbdc67501","668703D4C675497BA09AE5588BDC518B-2024-11-24-17-36-56","","null","","images/semantic_sequence/physical_activity_semantic/physical_activity_semantic_3.png","null","",""
"","","","","","image-button-response","64","287679","0.0-12.0-1.0-1.2","668703D4C675497BA09AE5588BDC518B","668703D4C675497BA09AE5588BDC518B","050cda97-60cd-4ae1-ad10-7c58cb9d76fb","a0a8f18c-a66e-4ba7-a170-23efbdc67501","{""participantId"":""668703D4C675497BA09AE5588BDC518B"",""assignmentId"":""050cda97-60cd-4ae1-ad10-7c58cb9d76fb"",""projectId"":""a0a8f18c-a66e-4ba7-a170-23efbdc67501""}","https://test12345.live/?participantId=668703D4C675497BA09AE5588BDC518B&assignmentId=050cda97-60cd-4ae1-ad10-7c58cb9d76fb&projectId=a0a8f18c-a66e-4ba7-a170-23efbdc67501","668703D4C675497BA09AE5588BDC518B-2024-11-24-17-36-56","","868","","images/semantic_sequence/physical_activity_semantic/physical_activity_semantic_3.png","0","",""
"","","","","","image-button-response","65","289480","0.0-12.0-1.0-2.2","668703D4C675497BA09AE5588BDC518B","668703D4C675497BA09AE5588BDC518B","050cda97-60cd-4ae1-ad10-7c58cb9d76fb","a0a8f18c-a66e-4ba7-a170-23efbdc67501","{""participantId"":""668703D4C675497BA09AE5588BDC518B"",""assignmentId"":""050cda97-60cd-4ae1-ad10-7c58cb9d76fb"",""projectId"":""a0a8f18c-a66e-4ba7-a170-23efbdc67501""}","https://test12345.live/?participantId=668703D4C675497BA09AE5588BDC518B&assignmentId=050cda97-60cd-4ae1-ad10-7c58cb9d76fb&projectId=a0a8f18c-a66e-4ba7-a170-23efbdc67501","668703D4C675497BA09AE5588BDC518B-2024-11-24-17-36-56","","null","","[]","null","",""
"","","","","","image-button-response","66","293993","0.0-12.0-1.0-0.3","668703D4C675497BA09AE5588BDC518B","668703D4C675497BA09AE5588BDC518B","050cda97-60cd-4ae1-ad10-7c58cb9d76fb","a0a8f18c-a66e-4ba7-a170-23efbdc67501","{""participantId"":""668703D4C675497BA09AE5588BDC518B"",""assignmentId"":""050cda97-60cd-4ae1-ad10-7c58cb9d76fb"",""projectId"":""a0a8f18c-a66e-4ba7-a170-23efbdc67501""}","https://test12345.live/?participantId=668703D4C675497BA09AE5588BDC518B&assignmentId=050cda97-60cd-4ae1-ad10-7c58cb9d76fb&projectId=a0a8f18c-a66e-4ba7-a170-23efbdc67501","668703D4C675497BA09AE5588BDC518B-2024-11-24-17-36-56","","null","","images/semantic_sequence/physical_activity_semantic/physical_activity_semantic_4.png","null","",""
"","","","","","image-button-response","67","294530","0.0-12.0-1.0-1.3","668703D4C675497BA09AE5588BDC518B","668703D4C675497BA09AE5588BDC518B","050cda97-60cd-4ae1-ad10-7c58cb9d76fb","a0a8f18c-a66e-4ba7-a170-23efbdc67501","{""participantId"":""668703D4C675497BA09AE5588BDC518B"",""assignmentId"":""050cda97-60cd-4ae1-ad10-7c58cb9d76fb"",""projectId"":""a0a8f18c-a66e-4ba7-a170-23efbdc67501""}","https://test12345.live/?participantId=668703D4C675497BA09AE5588BDC518B&assignmentId=050cda97-60cd-4ae1-ad10-7c58cb9d76fb&projectId=a0a8f18c-a66e-4ba7-a170-23efbdc67501","668703D4C675497BA09AE5588BDC518B-2024-11-24-17-36-56","","537","","images/semantic_sequence/physical_activity_semantic/physical_activity_semantic_4.png","0","",""
"","","","","","image-button-response","68","296343","0.0-12.0-1.0-2.3","668703D4C675497BA09AE5588BDC518B","668703D4C675497BA09AE5588BDC518B","050cda97-60cd-4ae1-ad10-7c58cb9d76fb","a0a8f18c-a66e-4ba7-a170-23efbdc67501","{""participantId"":""668703D4C675497BA09AE5588BDC518B"",""assignmentId"":""050cda97-60cd-4ae1-ad10-7c58cb9d76fb"",""projectId"":""a0a8f18c-a66e-4ba7-a170-23efbdc67501""}","https://test12345.live/?participantId=668703D4C675497BA09AE5588BDC518B&assignmentId=050cda97-60cd-4ae1-ad10-7c58cb9d76fb&projectId=a0a8f18c-a66e-4ba7-a170-23efbdc67501","668703D4C675497BA09AE5588BDC518B-2024-11-24-17-36-56","","null","","[]","null","",""
"","","","","","image-button-response","69","300844","0.0-12.0-1.0-0.4","668703D4C675497BA09AE5588BDC518B","668703D4C675497BA09AE5588BDC518B","050cda97-60cd-4ae1-ad10-7c58cb9d76fb","a0a8f18c-a66e-4ba7-a170-23efbdc67501","{""participantId"":""668703D4C675497BA09AE5588BDC518B"",""assignmentId"":""050cda97-60cd-4ae1-ad10-7c58cb9d76fb"",""projectId"":""a0a8f18c-a66e-4ba7-a170-23efbdc67501""}","https://test12345.live/?participantId=668703D4C675497BA09AE5588BDC518B&assignmentId=050cda97-60cd-4ae1-ad10-7c58cb9d76fb&projectId=a0a8f18c-a66e-4ba7-a170-23efbdc67501","668703D4C675497BA09AE5588BDC518B-2024-11-24-17-36-56","","null","","images/semantic_sequence/physical_activity_semantic/physical_activity_semantic_5.png","null","",""
"","","","","","image-button-response","70","301359","0.0-12.0-1.0-1.4","668703D4C675497BA09AE5588BDC518B","668703D4C675497BA09AE5588BDC518B","050cda97-60cd-4ae1-ad10-7c58cb9d76fb","a0a8f18c-a66e-4ba7-a170-23efbdc67501","{""participantId"":""668703D4C675497BA09AE5588BDC518B"",""assignmentId"":""050cda97-60cd-4ae1-ad10-7c58cb9d76fb"",""projectId"":""a0a8f18c-a66e-4ba7-a170-23efbdc67501""}","https://test12345.live/?participantId=668703D4C675497BA09AE5588BDC518B&assignmentId=050cda97-60cd-4ae1-ad10-7c58cb9d76fb&projectId=a0a8f18c-a66e-4ba7-a170-23efbdc67501","668703D4C675497BA09AE5588BDC518B-2024-11-24-17-36-56","","515","","images/semantic_sequence/physical_activity_semantic/physical_activity_semantic_5.png","0","",""
"","","","","","image-button-response","71","303161","0.0-12.0-1.0-2.4","668703D4C675497BA09AE5588BDC518B","668703D4C675497BA09AE5588BDC518B","050cda97-60cd-4ae1-ad10-7c58cb9d76fb","a0a8f18c-a66e-4ba7-a170-23efbdc67501","{""participantId"":""668703D4C675497BA09AE5588BDC518B"",""assignmentId"":""050cda97-60cd-4ae1-ad10-7c58cb9d76fb"",""projectId"":""a0a8f18c-a66e-4ba7-a170-23efbdc67501""}","https://test12345.live/?participantId=668703D4C675497BA09AE5588BDC518B&assignmentId=050cda97-60cd-4ae1-ad10-7c58cb9d76fb&projectId=a0a8f18c-a66e-4ba7-a170-23efbdc67501","668703D4C675497BA09AE5588BDC518B-2024-11-24-17-36-56","","null","","[]","null","",""
"","","","","","image-button-response","72","307677","0.0-12.0-1.0-0.5","668703D4C675497BA09AE5588BDC518B","668703D4C675497BA09AE5588BDC518B","050cda97-60cd-4ae1-ad10-7c58cb9d76fb","a0a8f18c-a66e-4ba7-a170-23efbdc67501","{""participantId"":""668703D4C675497BA09AE5588BDC518B"",""assignmentId"":""050cda97-60cd-4ae1-ad10-7c58cb9d76fb"",""projectId"":""a0a8f18c-a66e-4ba7-a170-23efbdc67501""}","https://test12345.live/?participantId=668703D4C675497BA09AE5588BDC518B&assignmentId=050cda97-60cd-4ae1-ad10-7c58cb9d76fb&projectId=a0a8f18c-a66e-4ba7-a170-23efbdc67501","668703D4C675497BA09AE5588BDC518B-2024-11-24-17-36-56","","null","","images/semantic_sequence/physical_activity_semantic/physical_activity_semantic_6.png","null","",""
"","","","","","image-button-response","73","308144","0.0-12.0-1.0-1.5","668703D4C675497BA09AE5588BDC518B","668703D4C675497BA09AE5588BDC518B","050cda97-60cd-4ae1-ad10-7c58cb9d76fb","a0a8f18c-a66e-4ba7-a170-23efbdc67501","{""participantId"":""668703D4C675497BA09AE5588BDC518B"",""assignmentId"":""050cda97-60cd-4ae1-ad10-7c58cb9d76fb"",""projectId"":""a0a8f18c-a66e-4ba7-a170-23efbdc67501""}","https://test12345.live/?participantId=668703D4C675497BA09AE5588BDC518B&assignmentId=050cda97-60cd-4ae1-ad10-7c58cb9d76fb&projectId=a0a8f18c-a66e-4ba7-a170-23efbdc67501","668703D4C675497BA09AE5588BDC518B-2024-11-24-17-36-56","","465","","images/semantic_sequence/physical_activity_semantic/physical_activity_semantic_6.png","0","",""
"","","","","","image-button-response","74","309946","0.0-12.0-1.0-2.5","668703D4C675497BA09AE5588BDC518B","668703D4C675497BA09AE5588BDC518B","050cda97-60cd-4ae1-ad10-7c58cb9d76fb","a0a8f18c-a66e-4ba7-a170-23efbdc67501","{""participantId"":""668703D4C675497BA09AE5588BDC518B"",""assignmentId"":""050cda97-60cd-4ae1-ad10-7c58cb9d76fb"",""projectId"":""a0a8f18c-a66e-4ba7-a170-23efbdc67501""}","https://test12345.live/?participantId=668703D4C675497BA09AE5588BDC518B&assignmentId=050cda97-60cd-4ae1-ad10-7c58cb9d76fb&projectId=a0a8f18c-a66e-4ba7-a170-23efbdc67501","668703D4C675497BA09AE5588BDC518B-2024-11-24-17-36-56","","null","","[]","null","",""
"","","","","","image-button-response","75","314459","0.0-12.0-1.0-0.6","668703D4C675497BA09AE5588BDC518B","668703D4C675497BA09AE5588BDC518B","050cda97-60cd-4ae1-ad10-7c58cb9d76fb","a0a8f18c-a66e-4ba7-a170-23efbdc67501","{""participantId"":""668703D4C675497BA09AE5588BDC518B"",""assignmentId"":""050cda97-60cd-4ae1-ad10-7c58cb9d76fb"",""projectId"":""a0a8f18c-a66e-4ba7-a170-23efbdc67501""}","https://test12345.live/?participantId=668703D4C675497BA09AE5588BDC518B&assignmentId=050cda97-60cd-4ae1-ad10-7c58cb9d76fb&projectId=a0a8f18c-a66e-4ba7-a170-23efbdc67501","668703D4C675497BA09AE5588BDC518B-2024-11-24-17-36-56","","null","","images/semantic_sequence/physical_activity_semantic/physical_activity_semantic_7.png","null","",""
"","","","","","image-button-response","76","314943","0.0-12.0-1.0-1.6","668703D4C675497BA09AE5588BDC518B","668703D4C675497BA09AE5588BDC518B","050cda97-60cd-4ae1-ad10-7c58cb9d76fb","a0a8f18c-a66e-4ba7-a170-23efbdc67501","{""participantId"":""668703D4C675497BA09AE5588BDC518B"",""assignmentId"":""050cda97-60cd-4ae1-ad10-7c58cb9d76fb"",""projectId"":""a0a8f18c-a66e-4ba7-a170-23efbdc67501""}","https://test12345.live/?participantId=668703D4C675497BA09AE5588BDC518B&assignmentId=050cda97-60cd-4ae1-ad10-7c58cb9d76fb&projectId=a0a8f18c-a66e-4ba7-a170-23efbdc67501","668703D4C675497BA09AE5588BDC518B-2024-11-24-17-36-56","","483","","images/semantic_sequence/physical_activity_semantic/physical_activity_semantic_7.png","0","",""
"","","","","","image-button-response","77","316745","0.0-12.0-1.0-2.6","668703D4C675497BA09AE5588BDC518B","668703D4C675497BA09AE5588BDC518B","050cda97-60cd-4ae1-ad10-7c58cb9d76fb","a0a8f18c-a66e-4ba7-a170-23efbdc67501","{""participantId"":""668703D4C675497BA09AE5588BDC518B"",""assignmentId"":""050cda97-60cd-4ae1-ad10-7c58cb9d76fb"",""projectId"":""a0a8f18c-a66e-4ba7-a170-23efbdc67501""}","https://test12345.live/?participantId=668703D4C675497BA09AE5588BDC518B&assignmentId=050cda97-60cd-4ae1-ad10-7c58cb9d76fb&projectId=a0a8f18c-a66e-4ba7-a170-23efbdc67501","668703D4C675497BA09AE5588BDC518B-2024-11-24-17-36-56","","null","","[]","null","",""
"","","","","","image-button-response","78","321245","0.0-12.0-1.0-0.7","668703D4C675497BA09AE5588BDC518B","668703D4C675497BA09AE5588BDC518B","050cda97-60cd-4ae1-ad10-7c58cb9d76fb","a0a8f18c-a66e-4ba7-a170-23efbdc67501","{""participantId"":""668703D4C675497BA09AE5588BDC518B"",""assignmentId"":""050cda97-60cd-4ae1-ad10-7c58cb9d76fb"",""projectId"":""a0a8f18c-a66e-4ba7-a170-23efbdc67501""}","https://test12345.live/?participantId=668703D4C675497BA09AE5588BDC518B&assignmentId=050cda97-60cd-4ae1-ad10-7c58cb9d76fb&projectId=a0a8f18c-a66e-4ba7-a170-23efbdc67501","668703D4C675497BA09AE5588BDC518B-2024-11-24-17-36-56","","null","","images/semantic_sequence/physical_activity_semantic/physical_activity_semantic_8.png","null","",""
"","","","","","image-button-response","79","321736","0.0-12.0-1.0-1.7","668703D4C675497BA09AE5588BDC518B","668703D4C675497BA09AE5588BDC518B","050cda97-60cd-4ae1-ad10-7c58cb9d76fb","a0a8f18c-a66e-4ba7-a170-23efbdc67501","{""participantId"":""668703D4C675497BA09AE5588BDC518B"",""assignmentId"":""050cda97-60cd-4ae1-ad10-7c58cb9d76fb"",""projectId"":""a0a8f18c-a66e-4ba7-a170-23efbdc67501""}","https://test12345.live/?participantId=668703D4C675497BA09AE5588BDC518B&assignmentId=050cda97-60cd-4ae1-ad10-7c58cb9d76fb&projectId=a0a8f18c-a66e-4ba7-a170-23efbdc67501","668703D4C675497BA09AE5588BDC518B-2024-11-24-17-36-56","","490","","images/semantic_sequence/physical_activity_semantic/physical_activity_semantic_8.png","0","",""
"","","","","","image-button-response","80","323544","0.0-12.0-1.0-2.7","668703D4C675497BA09AE5588BDC518B","668703D4C675497BA09AE5588BDC518B","050cda97-60cd-4ae1-ad10-7c58cb9d76fb","a0a8f18c-a66e-4ba7-a170-23efbdc67501","{""participantId"":""668703D4C675497BA09AE5588BDC518B"",""assignmentId"":""050cda97-60cd-4ae1-ad10-7c58cb9d76fb"",""projectId"":""a0a8f18c-a66e-4ba7-a170-23efbdc67501""}","https://test12345.live/?participantId=668703D4C675497BA09AE5588BDC518B&assignmentId=050cda97-60cd-4ae1-ad10-7c58cb9d76fb&projectId=a0a8f18c-a66e-4ba7-a170-23efbdc67501","668703D4C675497BA09AE5588BDC518B-2024-11-24-17-36-56","","null","","[]","null","",""
"","","","","","image-button-response","81","328045","0.0-12.0-1.0-0.8","668703D4C675497BA09AE5588BDC518B","668703D4C675497BA09AE5588BDC518B","050cda97-60cd-4ae1-ad10-7c58cb9d76fb","a0a8f18c-a66e-4ba7-a170-23efbdc67501","{""participantId"":""668703D4C675497BA09AE5588BDC518B"",""assignmentId"":""050cda97-60cd-4ae1-ad10-7c58cb9d76fb"",""projectId"":""a0a8f18c-a66e-4ba7-a170-23efbdc67501""}","https://test12345.live/?participantId=668703D4C675497BA09AE5588BDC518B&assignmentId=050cda97-60cd-4ae1-ad10-7c58cb9d76fb&projectId=a0a8f18c-a66e-4ba7-a170-23efbdc67501","668703D4C675497BA09AE5588BDC518B-2024-11-24-17-36-56","","null","","images/semantic_sequence/physical_activity_semantic/physical_activity_semantic_9.png","null","",""
"","","","","","image-button-response","82","328505","0.0-12.0-1.0-1.8","668703D4C675497BA09AE5588BDC518B","668703D4C675497BA09AE5588BDC518B","050cda97-60cd-4ae1-ad10-7c58cb9d76fb","a0a8f18c-a66e-4ba7-a170-23efbdc67501","{""participantId"":""668703D4C675497BA09AE5588BDC518B"",""assignmentId"":""050cda97-60cd-4ae1-ad10-7c58cb9d76fb"",""projectId"":""a0a8f18c-a66e-4ba7-a170-23efbdc67501""}","https://test12345.live/?participantId=668703D4C675497BA09AE5588BDC518B&assignmentId=050cda97-60cd-4ae1-ad10-7c58cb9d76fb&projectId=a0a8f18c-a66e-4ba7-a170-23efbdc67501","668703D4C675497BA09AE5588BDC518B-2024-11-24-17-36-56","","460","","images/semantic_sequence/physical_activity_semantic/physical_activity_semantic_9.png","0","",""
"","","","","","image-button-response","83","330311","0.0-12.0-1.0-2.8","668703D4C675497BA09AE5588BDC518B","668703D4C675497BA09AE5588BDC518B","050cda97-60cd-4ae1-ad10-7c58cb9d76fb","a0a8f18c-a66e-4ba7-a170-23efbdc67501","{""participantId"":""668703D4C675497BA09AE5588BDC518B"",""assignmentId"":""050cda97-60cd-4ae1-ad10-7c58cb9d76fb"",""projectId"":""a0a8f18c-a66e-4ba7-a170-23efbdc67501""}","https://test12345.live/?participantId=668703D4C675497BA09AE5588BDC518B&assignmentId=050cda97-60cd-4ae1-ad10-7c58cb9d76fb&projectId=a0a8f18c-a66e-4ba7-a170-23efbdc67501","668703D4C675497BA09AE5588BDC518B-2024-11-24-17-36-56","","null","","[]","null","",""
"","","","","","image-button-response","84","334811","0.0-12.0-1.0-0.9","668703D4C675497BA09AE5588BDC518B","668703D4C675497BA09AE5588BDC518B","050cda97-60cd-4ae1-ad10-7c58cb9d76fb","a0a8f18c-a66e-4ba7-a170-23efbdc67501","{""participantId"":""668703D4C675497BA09AE5588BDC518B"",""assignmentId"":""050cda97-60cd-4ae1-ad10-7c58cb9d76fb"",""projectId"":""a0a8f18c-a66e-4ba7-a170-23efbdc67501""}","https://test12345.live/?participantId=668703D4C675497BA09AE5588BDC518B&assignmentId=050cda97-60cd-4ae1-ad10-7c58cb9d76fb&projectId=a0a8f18c-a66e-4ba7-a170-23efbdc67501","668703D4C675497BA09AE5588BDC518B-2024-11-24-17-36-56","","null","","images/semantic_sequence/physical_activity_semantic/physical_activity_semantic_ten.png","null","",""
"","","","","","image-button-response","85","335252","0.0-12.0-1.0-1.9","668703D4C675497BA09AE5588BDC518B","668703D4C675497BA09AE5588BDC518B","050cda97-60cd-4ae1-ad10-7c58cb9d76fb","a0a8f18c-a66e-4ba7-a170-23efbdc67501","{""participantId"":""668703D4C675497BA09AE5588BDC518B"",""assignmentId"":""050cda97-60cd-4ae1-ad10-7c58cb9d76fb"",""projectId"":""a0a8f18c-a66e-4ba7-a170-23efbdc67501""}","https://test12345.live/?participantId=668703D4C675497BA09AE5588BDC518B&assignmentId=050cda97-60cd-4ae1-ad10-7c58cb9d76fb&projectId=a0a8f18c-a66e-4ba7-a170-23efbdc67501","668703D4C675497BA09AE5588BDC518B-2024-11-24-17-36-56","","439","","images/semantic_sequence/physical_activity_semantic/physical_activity_semantic_ten.png","0","",""
"","","","","","image-button-response","86","337060","0.0-12.0-1.0-2.9","668703D4C675497BA09AE5588BDC518B","668703D4C675497BA09AE5588BDC518B","050cda97-60cd-4ae1-ad10-7c58cb9d76fb","a0a8f18c-a66e-4ba7-a170-23efbdc67501","{""participantId"":""668703D4C675497BA09AE5588BDC518B"",""assignmentId"":""050cda97-60cd-4ae1-ad10-7c58cb9d76fb"",""projectId"":""a0a8f18c-a66e-4ba7-a170-23efbdc67501""}","https://test12345.live/?participantId=668703D4C675497BA09AE5588BDC518B&assignmentId=050cda97-60cd-4ae1-ad10-7c58cb9d76fb&projectId=a0a8f18c-a66e-4ba7-a170-23efbdc67501","668703D4C675497BA09AE5588BDC518B-2024-11-24-17-36-56","","null","","[]","null","",""
"","","","","","html-audio-response","87","354062","0.0-13.0","668703D4C675497BA09AE5588BDC518B","668703D4C675497BA09AE5588BDC518B","050cda97-60cd-4ae1-ad10-7c58cb9d76fb","a0a8f18c-a66e-4ba7-a170-23efbdc67501","{""participantId"":""668703D4C675497BA09AE5588BDC518B"",""assignmentId"":""050cda97-60cd-4ae1-ad10-7c58cb9d76fb"",""projectId"":""a0a8f18c-a66e-4ba7-a170-23efbdc67501""}","https://test12345.live/?participantId=668703D4C675497BA09AE5588BDC518B&assignmentId=050cda97-60cd-4ae1-ad10-7c58cb9d76fb&projectId=a0a8f18c-a66e-4ba7-a170-23efbdc67501","668703D4C675497BA09AE5588BDC518B-2024-11-24-17-36-56","","12216","","[""<span style=\""color: red; font-size: 24px\""> NOW RECORDING</span><p>Please say out loud all the images you saw, as many as you can remember. The images can be said in any order.</p>""]","","10","physical_activity_semantic"
"","","","","","image-button-response","88","360067","0.0-14.0-0.0","668703D4C675497BA09AE5588BDC518B","668703D4C675497BA09AE5588BDC518B","050cda97-60cd-4ae1-ad10-7c58cb9d76fb","a0a8f18c-a66e-4ba7-a170-23efbdc67501","{""participantId"":""668703D4C675497BA09AE5588BDC518B"",""assignmentId"":""050cda97-60cd-4ae1-ad10-7c58cb9d76fb"",""projectId"":""a0a8f18c-a66e-4ba7-a170-23efbdc67501""}","https://test12345.live/?participantId=668703D4C675497BA09AE5588BDC518B&assignmentId=050cda97-60cd-4ae1-ad10-7c58cb9d76fb&projectId=a0a8f18c-a66e-4ba7-a170-23efbdc67501","668703D4C675497BA09AE5588BDC518B-2024-11-24-17-36-56","","null","","images/causal_sequence/museum_causal/museum_causal_0.png","null","",""
"","","","","","image-button-response","89","364577","0.0-14.0-1.0-0.0","668703D4C675497BA09AE5588BDC518B","668703D4C675497BA09AE5588BDC518B","050cda97-60cd-4ae1-ad10-7c58cb9d76fb","a0a8f18c-a66e-4ba7-a170-23efbdc67501","{""participantId"":""668703D4C675497BA09AE5588BDC518B"",""assignmentId"":""050cda97-60cd-4ae1-ad10-7c58cb9d76fb"",""projectId"":""a0a8f18c-a66e-4ba7-a170-23efbdc67501""}","https://test12345.live/?participantId=668703D4C675497BA09AE5588BDC518B&assignmentId=050cda97-60cd-4ae1-ad10-7c58cb9d76fb&projectId=a0a8f18c-a66e-4ba7-a170-23efbdc67501","668703D4C675497BA09AE5588BDC518B-2024-11-24-17-36-56","","null","","images/causal_sequence/museum_causal/museum_causal_ten.png","null","",""
"","","","","","image-button-response","90","367044","0.0-14.0-1.0-1.0","668703D4C675497BA09AE5588BDC518B","668703D4C675497BA09AE5588BDC518B","050cda97-60cd-4ae1-ad10-7c58cb9d76fb","a0a8f18c-a66e-4ba7-a170-23efbdc67501","{""participantId"":""668703D4C675497BA09AE5588BDC518B"",""assignmentId"":""050cda97-60cd-4ae1-ad10-7c58cb9d76fb"",""projectId"":""a0a8f18c-a66e-4ba7-a170-23efbdc67501""}","https://test12345.live/?participantId=668703D4C675497BA09AE5588BDC518B&assignmentId=050cda97-60cd-4ae1-ad10-7c58cb9d76fb&projectId=a0a8f18c-a66e-4ba7-a170-23efbdc67501","668703D4C675497BA09AE5588BDC518B-2024-11-24-17-36-56","","2467","","images/causal_sequence/museum_causal/museum_causal_ten.png","0","",""
"","","","","","image-button-response","91","368846","0.0-14.0-1.0-2.0","668703D4C675497BA09AE5588BDC518B","668703D4C675497BA09AE5588BDC518B","050cda97-60cd-4ae1-ad10-7c58cb9d76fb","a0a8f18c-a66e-4ba7-a170-23efbdc67501","{""participantId"":""668703D4C675497BA09AE5588BDC518B"",""assignmentId"":""050cda97-60cd-4ae1-ad10-7c58cb9d76fb"",""projectId"":""a0a8f18c-a66e-4ba7-a170-23efbdc67501""}","https://test12345.live/?participantId=668703D4C675497BA09AE5588BDC518B&assignmentId=050cda97-60cd-4ae1-ad10-7c58cb9d76fb&projectId=a0a8f18c-a66e-4ba7-a170-23efbdc67501","668703D4C675497BA09AE5588BDC518B-2024-11-24-17-36-56","","null","","[]","null","",""
"","","","","","image-button-response","92","373361","0.0-14.0-1.0-0.1","668703D4C675497BA09AE5588BDC518B","668703D4C675497BA09AE5588BDC518B","050cda97-60cd-4ae1-ad10-7c58cb9d76fb","a0a8f18c-a66e-4ba7-a170-23efbdc67501","{""participantId"":""668703D4C675497BA09AE5588BDC518B"",""assignmentId"":""050cda97-60cd-4ae1-ad10-7c58cb9d76fb"",""projectId"":""a0a8f18c-a66e-4ba7-a170-23efbdc67501""}","https://test12345.live/?participantId=668703D4C675497BA09AE5588BDC518B&assignmentId=050cda97-60cd-4ae1-ad10-7c58cb9d76fb&projectId=a0a8f18c-a66e-4ba7-a170-23efbdc67501","668703D4C675497BA09AE5588BDC518B-2024-11-24-17-36-56","","null","","images/causal_sequence/museum_causal/museum_causal_8.png","null","",""
"","","","","","image-button-response","93","374140","0.0-14.0-1.0-1.1","668703D4C675497BA09AE5588BDC518B","668703D4C675497BA09AE5588BDC518B","050cda97-60cd-4ae1-ad10-7c58cb9d76fb","a0a8f18c-a66e-4ba7-a170-23efbdc67501","{""participantId"":""668703D4C675497BA09AE5588BDC518B"",""assignmentId"":""050cda97-60cd-4ae1-ad10-7c58cb9d76fb"",""projectId"":""a0a8f18c-a66e-4ba7-a170-23efbdc67501""}","https://test12345.live/?participantId=668703D4C675497BA09AE5588BDC518B&assignmentId=050cda97-60cd-4ae1-ad10-7c58cb9d76fb&projectId=a0a8f18c-a66e-4ba7-a170-23efbdc67501","668703D4C675497BA09AE5588BDC518B-2024-11-24-17-36-56","","777","","images/causal_sequence/museum_causal/museum_causal_8.png","0","",""
"","","","","","image-button-response","94","375945","0.0-14.0-1.0-2.1","668703D4C675497BA09AE5588BDC518B","668703D4C675497BA09AE5588BDC518B","050cda97-60cd-4ae1-ad10-7c58cb9d76fb","a0a8f18c-a66e-4ba7-a170-23efbdc67501","{""participantId"":""668703D4C675497BA09AE5588BDC518B"",""assignmentId"":""050cda97-60cd-4ae1-ad10-7c58cb9d76fb"",""projectId"":""a0a8f18c-a66e-4ba7-a170-23efbdc67501""}","https://test12345.live/?participantId=668703D4C675497BA09AE5588BDC518B&assignmentId=050cda97-60cd-4ae1-ad10-7c58cb9d76fb&projectId=a0a8f18c-a66e-4ba7-a170-23efbdc67501","668703D4C675497BA09AE5588BDC518B-2024-11-24-17-36-56","","null","","[]","null","",""
"","","","","","image-button-response","95","380446","0.0-14.0-1.0-0.2","668703D4C675497BA09AE5588BDC518B","668703D4C675497BA09AE5588BDC518B","050cda97-60cd-4ae1-ad10-7c58cb9d76fb","a0a8f18c-a66e-4ba7-a170-23efbdc67501","{""participantId"":""668703D4C675497BA09AE5588BDC518B"",""assignmentId"":""050cda97-60cd-4ae1-ad10-7c58cb9d76fb"",""projectId"":""a0a8f18c-a66e-4ba7-a170-23efbdc67501""}","https://test12345.live/?participantId=668703D4C675497BA09AE5588BDC518B&assignmentId=050cda97-60cd-4ae1-ad10-7c58cb9d76fb&projectId=a0a8f18c-a66e-4ba7-a170-23efbdc67501","668703D4C675497BA09AE5588BDC518B-2024-11-24-17-36-56","","null","","images/causal_sequence/museum_causal/museum_causal_2.png","null","",""
"","","","","","image-button-response","96","382167","0.0-14.0-1.0-1.2","668703D4C675497BA09AE5588BDC518B","668703D4C675497BA09AE5588BDC518B","050cda97-60cd-4ae1-ad10-7c58cb9d76fb","a0a8f18c-a66e-4ba7-a170-23efbdc67501","{""participantId"":""668703D4C675497BA09AE5588BDC518B"",""assignmentId"":""050cda97-60cd-4ae1-ad10-7c58cb9d76fb"",""projectId"":""a0a8f18c-a66e-4ba7-a170-23efbdc67501""}","https://test12345.live/?participantId=668703D4C675497BA09AE5588BDC518B&assignmentId=050cda97-60cd-4ae1-ad10-7c58cb9d76fb&projectId=a0a8f18c-a66e-4ba7-a170-23efbdc67501","668703D4C675497BA09AE5588BDC518B-2024-11-24-17-36-56","","1720","","images/causal_sequence/museum_causal/museum_causal_2.png","0","",""
"","","","","","image-button-response","97","383978","0.0-14.0-1.0-2.2","668703D4C675497BA09AE5588BDC518B","668703D4C675497BA09AE5588BDC518B","050cda97-60cd-4ae1-ad10-7c58cb9d76fb","a0a8f18c-a66e-4ba7-a170-23efbdc67501","{""participantId"":""668703D4C675497BA09AE5588BDC518B"",""assignmentId"":""050cda97-60cd-4ae1-ad10-7c58cb9d76fb"",""projectId"":""a0a8f18c-a66e-4ba7-a170-23efbdc67501""}","https://test12345.live/?participantId=668703D4C675497BA09AE5588BDC518B&assignmentId=050cda97-60cd-4ae1-ad10-7c58cb9d76fb&projectId=a0a8f18c-a66e-4ba7-a170-23efbdc67501","668703D4C675497BA09AE5588BDC518B-2024-11-24-17-36-56","","null","","[]","null","",""
"","","","","","image-button-response","98","388480","0.0-14.0-1.0-0.3","668703D4C675497BA09AE5588BDC518B","668703D4C675497BA09AE5588BDC518B","050cda97-60cd-4ae1-ad10-7c58cb9d76fb","a0a8f18c-a66e-4ba7-a170-23efbdc67501","{""participantId"":""668703D4C675497BA09AE5588BDC518B"",""assignmentId"":""050cda97-60cd-4ae1-ad10-7c58cb9d76fb"",""projectId"":""a0a8f18c-a66e-4ba7-a170-23efbdc67501""}","https://test12345.live/?participantId=668703D4C675497BA09AE5588BDC518B&assignmentId=050cda97-60cd-4ae1-ad10-7c58cb9d76fb&projectId=a0a8f18c-a66e-4ba7-a170-23efbdc67501","668703D4C675497BA09AE5588BDC518B-2024-11-24-17-36-56","","null","","images/causal_sequence/museum_causal/museum_causal_4.png","null","",""
"","","","","","image-button-response","99","389428","0.0-14.0-1.0-1.3","668703D4C675497BA09AE5588BDC518B","668703D4C675497BA09AE5588BDC518B","050cda97-60cd-4ae1-ad10-7c58cb9d76fb","a0a8f18c-a66e-4ba7-a170-23efbdc67501","{""participantId"":""668703D4C675497BA09AE5588BDC518B"",""assignmentId"":""050cda97-60cd-4ae1-ad10-7c58cb9d76fb"",""projectId"":""a0a8f18c-a66e-4ba7-a170-23efbdc67501""}","https://test12345.live/?participantId=668703D4C675497BA09AE5588BDC518B&assignmentId=050cda97-60cd-4ae1-ad10-7c58cb9d76fb&projectId=a0a8f18c-a66e-4ba7-a170-23efbdc67501","668703D4C675497BA09AE5588BDC518B-2024-11-24-17-36-56","","947","","images/causal_sequence/museum_causal/museum_causal_4.png","1","",""
"","","","","","image-button-response","100","391230","0.0-14.0-1.0-2.3","668703D4C675497BA09AE5588BDC518B","668703D4C675497BA09AE5588BDC518B","050cda97-60cd-4ae1-ad10-7c58cb9d76fb","a0a8f18c-a66e-4ba7-a170-23efbdc67501","{""participantId"":""668703D4C675497BA09AE5588BDC518B"",""assignmentId"":""050cda97-60cd-4ae1-ad10-7c58cb9d76fb"",""projectId"":""a0a8f18c-a66e-4ba7-a170-23efbdc67501""}","https://test12345.live/?participantId=668703D4C675497BA09AE5588BDC518B&assignmentId=050cda97-60cd-4ae1-ad10-7c58cb9d76fb&projectId=a0a8f18c-a66e-4ba7-a170-23efbdc67501","668703D4C675497BA09AE5588BDC518B-2024-11-24-17-36-56","","null","","[]","null","",""
"","","","","","image-button-response","101","395731","0.0-14.0-1.0-0.4","668703D4C675497BA09AE5588BDC518B","668703D4C675497BA09AE5588BDC518B","050cda97-60cd-4ae1-ad10-7c58cb9d76fb","a0a8f18c-a66e-4ba7-a170-23efbdc67501","{""participantId"":""668703D4C675497BA09AE5588BDC518B"",""assignmentId"":""050cda97-60cd-4ae1-ad10-7c58cb9d76fb"",""projectId"":""a0a8f18c-a66e-4ba7-a170-23efbdc67501""}","https://test12345.live/?participantId=668703D4C675497BA09AE5588BDC518B&assignmentId=050cda97-60cd-4ae1-ad10-7c58cb9d76fb&projectId=a0a8f18c-a66e-4ba7-a170-23efbdc67501","668703D4C675497BA09AE5588BDC518B-2024-11-24-17-36-56","","null","","images/causal_sequence/museum_causal/museum_causal_1.png","null","",""
"","","","","","image-button-response","102","396326","0.0-14.0-1.0-1.4","668703D4C675497BA09AE5588BDC518B","668703D4C675497BA09AE5588BDC518B","050cda97-60cd-4ae1-ad10-7c58cb9d76fb","a0a8f18c-a66e-4ba7-a170-23efbdc67501","{""participantId"":""668703D4C675497BA09AE5588BDC518B"",""assignmentId"":""050cda97-60cd-4ae1-ad10-7c58cb9d76fb"",""projectId"":""a0a8f18c-a66e-4ba7-a170-23efbdc67501""}","https://test12345.live/?participantId=668703D4C675497BA09AE5588BDC518B&assignmentId=050cda97-60cd-4ae1-ad10-7c58cb9d76fb&projectId=a0a8f18c-a66e-4ba7-a170-23efbdc67501","668703D4C675497BA09AE5588BDC518B-2024-11-24-17-36-56","","594","","images/causal_sequence/museum_causal/museum_causal_1.png","0","",""
"","","","","","image-button-response","103","398130","0.0-14.0-1.0-2.4","668703D4C675497BA09AE5588BDC518B","668703D4C675497BA09AE5588BDC518B","050cda97-60cd-4ae1-ad10-7c58cb9d76fb","a0a8f18c-a66e-4ba7-a170-23efbdc67501","{""participantId"":""668703D4C675497BA09AE5588BDC518B"",""assignmentId"":""050cda97-60cd-4ae1-ad10-7c58cb9d76fb"",""projectId"":""a0a8f18c-a66e-4ba7-a170-23efbdc67501""}","https://test12345.live/?participantId=668703D4C675497BA09AE5588BDC518B&assignmentId=050cda97-60cd-4ae1-ad10-7c58cb9d76fb&projectId=a0a8f18c-a66e-4ba7-a170-23efbdc67501","668703D4C675497BA09AE5588BDC518B-2024-11-24-17-36-56","","null","","[]","null","",""
"","","","","","image-button-response","104","402631","0.0-14.0-1.0-0.5","668703D4C675497BA09AE5588BDC518B","668703D4C675497BA09AE5588BDC518B","050cda97-60cd-4ae1-ad10-7c58cb9d76fb","a0a8f18c-a66e-4ba7-a170-23efbdc67501","{""participantId"":""668703D4C675497BA09AE5588BDC518B"",""assignmentId"":""050cda97-60cd-4ae1-ad10-7c58cb9d76fb"",""projectId"":""a0a8f18c-a66e-4ba7-a170-23efbdc67501""}","https://test12345.live/?participantId=668703D4C675497BA09AE5588BDC518B&assignmentId=050cda97-60cd-4ae1-ad10-7c58cb9d76fb&projectId=a0a8f18c-a66e-4ba7-a170-23efbdc67501","668703D4C675497BA09AE5588BDC518B-2024-11-24-17-36-56","","null","","images/causal_sequence/museum_causal/museum_causal_7.png","null","",""
"","","","","","image-button-response","105","403368","0.0-14.0-1.0-1.5","668703D4C675497BA09AE5588BDC518B","668703D4C675497BA09AE5588BDC518B","050cda97-60cd-4ae1-ad10-7c58cb9d76fb","a0a8f18c-a66e-4ba7-a170-23efbdc67501","{""participantId"":""668703D4C675497BA09AE5588BDC518B"",""assignmentId"":""050cda97-60cd-4ae1-ad10-7c58cb9d76fb"",""projectId"":""a0a8f18c-a66e-4ba7-a170-23efbdc67501""}","https://test12345.live/?participantId=668703D4C675497BA09AE5588BDC518B&assignmentId=050cda97-60cd-4ae1-ad10-7c58cb9d76fb&projectId=a0a8f18c-a66e-4ba7-a170-23efbdc67501","668703D4C675497BA09AE5588BDC518B-2024-11-24-17-36-56","","736","","images/causal_sequence/museum_causal/museum_causal_7.png","1","",""
"","","","","","image-button-response","106","405180","0.0-14.0-1.0-2.5","668703D4C675497BA09AE5588BDC518B","668703D4C675497BA09AE5588BDC518B","050cda97-60cd-4ae1-ad10-7c58cb9d76fb","a0a8f18c-a66e-4ba7-a170-23efbdc67501","{""participantId"":""668703D4C675497BA09AE5588BDC518B"",""assignmentId"":""050cda97-60cd-4ae1-ad10-7c58cb9d76fb"",""projectId"":""a0a8f18c-a66e-4ba7-a170-23efbdc67501""}","https://test12345.live/?participantId=668703D4C675497BA09AE5588BDC518B&assignmentId=050cda97-60cd-4ae1-ad10-7c58cb9d76fb&projectId=a0a8f18c-a66e-4ba7-a170-23efbdc67501","668703D4C675497BA09AE5588BDC518B-2024-11-24-17-36-56","","null","","[]","null","",""
"","","","","","image-button-response","107","409681","0.0-14.0-1.0-0.6","668703D4C675497BA09AE5588BDC518B","668703D4C675497BA09AE5588BDC518B","050cda97-60cd-4ae1-ad10-7c58cb9d76fb","a0a8f18c-a66e-4ba7-a170-23efbdc67501","{""participantId"":""668703D4C675497BA09AE5588BDC518B"",""assignmentId"":""050cda97-60cd-4ae1-ad10-7c58cb9d76fb"",""projectId"":""a0a8f18c-a66e-4ba7-a170-23efbdc67501""}","https://test12345.live/?participantId=668703D4C675497BA09AE5588BDC518B&assignmentId=050cda97-60cd-4ae1-ad10-7c58cb9d76fb&projectId=a0a8f18c-a66e-4ba7-a170-23efbdc67501","668703D4C675497BA09AE5588BDC518B-2024-11-24-17-36-56","","null","","images/causal_sequence/museum_causal/museum_causal_3.png","null","",""
"","","","","","image-button-response","108","410496","0.0-14.0-1.0-1.6","668703D4C675497BA09AE5588BDC518B","668703D4C675497BA09AE5588BDC518B","050cda97-60cd-4ae1-ad10-7c58cb9d76fb","a0a8f18c-a66e-4ba7-a170-23efbdc67501","{""participantId"":""668703D4C675497BA09AE5588BDC518B"",""assignmentId"":""050cda97-60cd-4ae1-ad10-7c58cb9d76fb"",""projectId"":""a0a8f18c-a66e-4ba7-a170-23efbdc67501""}","https://test12345.live/?participantId=668703D4C675497BA09AE5588BDC518B&assignmentId=050cda97-60cd-4ae1-ad10-7c58cb9d76fb&projectId=a0a8f18c-a66e-4ba7-a170-23efbdc67501","668703D4C675497BA09AE5588BDC518B-2024-11-24-17-36-56","","814","","images/causal_sequence/museum_causal/museum_causal_3.png","0","",""
"","","","","","image-button-response","109","412298","0.0-14.0-1.0-2.6","668703D4C675497BA09AE5588BDC518B","668703D4C675497BA09AE5588BDC518B","050cda97-60cd-4ae1-ad10-7c58cb9d76fb","a0a8f18c-a66e-4ba7-a170-23efbdc67501","{""participantId"":""668703D4C675497BA09AE5588BDC518B"",""assignmentId"":""050cda97-60cd-4ae1-ad10-7c58cb9d76fb"",""projectId"":""a0a8f18c-a66e-4ba7-a170-23efbdc67501""}","https://test12345.live/?participantId=668703D4C675497BA09AE5588BDC518B&assignmentId=050cda97-60cd-4ae1-ad10-7c58cb9d76fb&projectId=a0a8f18c-a66e-4ba7-a170-23efbdc67501","668703D4C675497BA09AE5588BDC518B-2024-11-24-17-36-56","","null","","[]","null","",""
"","","","","","image-button-response","110","416800","0.0-14.0-1.0-0.7","668703D4C675497BA09AE5588BDC518B","668703D4C675497BA09AE5588BDC518B","050cda97-60cd-4ae1-ad10-7c58cb9d76fb","a0a8f18c-a66e-4ba7-a170-23efbdc67501","{""participantId"":""668703D4C675497BA09AE5588BDC518B"",""assignmentId"":""050cda97-60cd-4ae1-ad10-7c58cb9d76fb"",""projectId"":""a0a8f18c-a66e-4ba7-a170-23efbdc67501""}","https://test12345.live/?participantId=668703D4C675497BA09AE5588BDC518B&assignmentId=050cda97-60cd-4ae1-ad10-7c58cb9d76fb&projectId=a0a8f18c-a66e-4ba7-a170-23efbdc67501","668703D4C675497BA09AE5588BDC518B-2024-11-24-17-36-56","","null","","images/causal_sequence/museum_causal/museum_causal_6.png","null","",""
"","","","","","image-button-response","111","417786","0.0-14.0-1.0-1.7","668703D4C675497BA09AE5588BDC518B","668703D4C675497BA09AE5588BDC518B","050cda97-60cd-4ae1-ad10-7c58cb9d76fb","a0a8f18c-a66e-4ba7-a170-23efbdc67501","{""participantId"":""668703D4C675497BA09AE5588BDC518B"",""assignmentId"":""050cda97-60cd-4ae1-ad10-7c58cb9d76fb"",""projectId"":""a0a8f18c-a66e-4ba7-a170-23efbdc67501""}","https://test12345.live/?participantId=668703D4C675497BA09AE5588BDC518B&assignmentId=050cda97-60cd-4ae1-ad10-7c58cb9d76fb&projectId=a0a8f18c-a66e-4ba7-a170-23efbdc67501","668703D4C675497BA09AE5588BDC518B-2024-11-24-17-36-56","","986","","images/causal_sequence/museum_causal/museum_causal_6.png","0","",""
"","","","","","image-button-response","112","419587","0.0-14.0-1.0-2.7","668703D4C675497BA09AE5588BDC518B","668703D4C675497BA09AE5588BDC518B","050cda97-60cd-4ae1-ad10-7c58cb9d76fb","a0a8f18c-a66e-4ba7-a170-23efbdc67501","{""participantId"":""668703D4C675497BA09AE5588BDC518B"",""assignmentId"":""050cda97-60cd-4ae1-ad10-7c58cb9d76fb"",""projectId"":""a0a8f18c-a66e-4ba7-a170-23efbdc67501""}","https://test12345.live/?participantId=668703D4C675497BA09AE5588BDC518B&assignmentId=050cda97-60cd-4ae1-ad10-7c58cb9d76fb&projectId=a0a8f18c-a66e-4ba7-a170-23efbdc67501","668703D4C675497BA09AE5588BDC518B-2024-11-24-17-36-56","","null","","[]","null","",""
"","","","","","image-button-response","113","424096","0.0-14.0-1.0-0.8","668703D4C675497BA09AE5588BDC518B","668703D4C675497BA09AE5588BDC518B","050cda97-60cd-4ae1-ad10-7c58cb9d76fb","a0a8f18c-a66e-4ba7-a170-23efbdc67501","{""participantId"":""668703D4C675497BA09AE5588BDC518B"",""assignmentId"":""050cda97-60cd-4ae1-ad10-7c58cb9d76fb"",""projectId"":""a0a8f18c-a66e-4ba7-a170-23efbdc67501""}","https://test12345.live/?participantId=668703D4C675497BA09AE5588BDC518B&assignmentId=050cda97-60cd-4ae1-ad10-7c58cb9d76fb&projectId=a0a8f18c-a66e-4ba7-a170-23efbdc67501","668703D4C675497BA09AE5588BDC518B-2024-11-24-17-36-56","","null","","images/causal_sequence/museum_causal/museum_causal_9.png","null","",""
"","","","","","image-button-response","114","424894","0.0-14.0-1.0-1.8","668703D4C675497BA09AE5588BDC518B","668703D4C675497BA09AE5588BDC518B","050cda97-60cd-4ae1-ad10-7c58cb9d76fb","a0a8f18c-a66e-4ba7-a170-23efbdc67501","{""participantId"":""668703D4C675497BA09AE5588BDC518B"",""assignmentId"":""050cda97-60cd-4ae1-ad10-7c58cb9d76fb"",""projectId"":""a0a8f18c-a66e-4ba7-a170-23efbdc67501""}","https://test12345.live/?participantId=668703D4C675497BA09AE5588BDC518B&assignmentId=050cda97-60cd-4ae1-ad10-7c58cb9d76fb&projectId=a0a8f18c-a66e-4ba7-a170-23efbdc67501","668703D4C675497BA09AE5588BDC518B-2024-11-24-17-36-56","","797","","images/causal_sequence/museum_causal/museum_causal_9.png","1","",""
"","","","","","image-button-response","115","426697","0.0-14.0-1.0-2.8","668703D4C675497BA09AE5588BDC518B","668703D4C675497BA09AE5588BDC518B","050cda97-60cd-4ae1-ad10-7c58cb9d76fb","a0a8f18c-a66e-4ba7-a170-23efbdc67501","{""participantId"":""668703D4C675497BA09AE5588BDC518B"",""assignmentId"":""050cda97-60cd-4ae1-ad10-7c58cb9d76fb"",""projectId"":""a0a8f18c-a66e-4ba7-a170-23efbdc67501""}","https://test12345.live/?participantId=668703D4C675497BA09AE5588BDC518B&assignmentId=050cda97-60cd-4ae1-ad10-7c58cb9d76fb&projectId=a0a8f18c-a66e-4ba7-a170-23efbdc67501","668703D4C675497BA09AE5588BDC518B-2024-11-24-17-36-56","","null","","[]","null","",""
"","","","","","image-button-response","116","431198","0.0-14.0-1.0-0.9","668703D4C675497BA09AE5588BDC518B","668703D4C675497BA09AE5588BDC518B","050cda97-60cd-4ae1-ad10-7c58cb9d76fb","a0a8f18c-a66e-4ba7-a170-23efbdc67501","{""participantId"":""668703D4C675497BA09AE5588BDC518B"",""assignmentId"":""050cda97-60cd-4ae1-ad10-7c58cb9d76fb"",""projectId"":""a0a8f18c-a66e-4ba7-a170-23efbdc67501""}","https://test12345.live/?participantId=668703D4C675497BA09AE5588BDC518B&assignmentId=050cda97-60cd-4ae1-ad10-7c58cb9d76fb&projectId=a0a8f18c-a66e-4ba7-a170-23efbdc67501","668703D4C675497BA09AE5588BDC518B-2024-11-24-17-36-56","","null","","images/causal_sequence/museum_causal/museum_causal_5.png","null","",""
"","","","","","image-button-response","117","432266","0.0-14.0-1.0-1.9","668703D4C675497BA09AE5588BDC518B","668703D4C675497BA09AE5588BDC518B","050cda97-60cd-4ae1-ad10-7c58cb9d76fb","a0a8f18c-a66e-4ba7-a170-23efbdc67501","{""participantId"":""668703D4C675497BA09AE5588BDC518B"",""assignmentId"":""050cda97-60cd-4ae1-ad10-7c58cb9d76fb"",""projectId"":""a0a8f18c-a66e-4ba7-a170-23efbdc67501""}","https://test12345.live/?participantId=668703D4C675497BA09AE5588BDC518B&assignmentId=050cda97-60cd-4ae1-ad10-7c58cb9d76fb&projectId=a0a8f18c-a66e-4ba7-a170-23efbdc67501","668703D4C675497BA09AE5588BDC518B-2024-11-24-17-36-56","","1066","","images/causal_sequence/museum_causal/museum_causal_5.png","0","",""
"","","","","","image-button-response","118","434080","0.0-14.0-1.0-2.9","668703D4C675497BA09AE5588BDC518B","668703D4C675497BA09AE5588BDC518B","050cda97-60cd-4ae1-ad10-7c58cb9d76fb","a0a8f18c-a66e-4ba7-a170-23efbdc67501","{""participantId"":""668703D4C675497BA09AE5588BDC518B"",""assignmentId"":""050cda97-60cd-4ae1-ad10-7c58cb9d76fb"",""projectId"":""a0a8f18c-a66e-4ba7-a170-23efbdc67501""}","https://test12345.live/?participantId=668703D4C675497BA09AE5588BDC518B&assignmentId=050cda97-60cd-4ae1-ad10-7c58cb9d76fb&projectId=a0a8f18c-a66e-4ba7-a170-23efbdc67501","668703D4C675497BA09AE5588BDC518B-2024-11-24-17-36-56","","null","","[]","null","",""
"","","","","","html-audio-response","119","457259","0.0-15.0","668703D4C675497BA09AE5588BDC518B","668703D4C675497BA09AE5588BDC518B","050cda97-60cd-4ae1-ad10-7c58cb9d76fb","a0a8f18c-a66e-4ba7-a170-23efbdc67501","{""participantId"":""668703D4C675497BA09AE5588BDC518B"",""assignmentId"":""050cda97-60cd-4ae1-ad10-7c58cb9d76fb"",""projectId"":""a0a8f18c-a66e-4ba7-a170-23efbdc67501""}","https://test12345.live/?participantId=668703D4C675497BA09AE5588BDC518B&assignmentId=050cda97-60cd-4ae1-ad10-7c58cb9d76fb&projectId=a0a8f18c-a66e-4ba7-a170-23efbdc67501","668703D4C675497BA09AE5588BDC518B-2024-11-24-17-36-56","","22107","","[""<span style=\""color: red; font-size: 24px\""> NOW RECORDING</span><p>Please say out loud all the images you saw, as many as you can remember. The images can be said in any order.</p>""]","","18","museum_causal"
"","","","","","image-button-response","120","463263","0.0-16.0-0.0","668703D4C675497BA09AE5588BDC518B","668703D4C675497BA09AE5588BDC518B","050cda97-60cd-4ae1-ad10-7c58cb9d76fb","a0a8f18c-a66e-4ba7-a170-23efbdc67501","{""participantId"":""668703D4C675497BA09AE5588BDC518B"",""assignmentId"":""050cda97-60cd-4ae1-ad10-7c58cb9d76fb"",""projectId"":""a0a8f18c-a66e-4ba7-a170-23efbdc67501""}","https://test12345.live/?participantId=668703D4C675497BA09AE5588BDC518B&assignmentId=050cda97-60cd-4ae1-ad10-7c58cb9d76fb&projectId=a0a8f18c-a66e-4ba7-a170-23efbdc67501","668703D4C675497BA09AE5588BDC518B-2024-11-24-17-36-56","","null","","images/schematic_sequence/flight_scheme/flight_scheme_0.png","null","",""
"","","","","","image-button-response","121","467764","0.0-16.0-1.0-0.0","668703D4C675497BA09AE5588BDC518B","668703D4C675497BA09AE5588BDC518B","050cda97-60cd-4ae1-ad10-7c58cb9d76fb","a0a8f18c-a66e-4ba7-a170-23efbdc67501","{""participantId"":""668703D4C675497BA09AE5588BDC518B"",""assignmentId"":""050cda97-60cd-4ae1-ad10-7c58cb9d76fb"",""projectId"":""a0a8f18c-a66e-4ba7-a170-23efbdc67501""}","https://test12345.live/?participantId=668703D4C675497BA09AE5588BDC518B&assignmentId=050cda97-60cd-4ae1-ad10-7c58cb9d76fb&projectId=a0a8f18c-a66e-4ba7-a170-23efbdc67501","668703D4C675497BA09AE5588BDC518B-2024-11-24-17-36-56","","null","","images/schematic_sequence/flight_scheme/flight_scheme_5.png","null","",""
"","","","","","image-button-response","122","468852","0.0-16.0-1.0-1.0","668703D4C675497BA09AE5588BDC518B","668703D4C675497BA09AE5588BDC518B","050cda97-60cd-4ae1-ad10-7c58cb9d76fb","a0a8f18c-a66e-4ba7-a170-23efbdc67501","{""participantId"":""668703D4C675497BA09AE5588BDC518B"",""assignmentId"":""050cda97-60cd-4ae1-ad10-7c58cb9d76fb"",""projectId"":""a0a8f18c-a66e-4ba7-a170-23efbdc67501""}","https://test12345.live/?participantId=668703D4C675497BA09AE5588BDC518B&assignmentId=050cda97-60cd-4ae1-ad10-7c58cb9d76fb&projectId=a0a8f18c-a66e-4ba7-a170-23efbdc67501","668703D4C675497BA09AE5588BDC518B-2024-11-24-17-36-56","","1087","","images/schematic_sequence/flight_scheme/flight_scheme_5.png","0","",""
"","","","","","image-button-response","123","470665","0.0-16.0-1.0-2.0","668703D4C675497BA09AE5588BDC518B","668703D4C675497BA09AE5588BDC518B","050cda97-60cd-4ae1-ad10-7c58cb9d76fb","a0a8f18c-a66e-4ba7-a170-23efbdc67501","{""participantId"":""668703D4C675497BA09AE5588BDC518B"",""assignmentId"":""050cda97-60cd-4ae1-ad10-7c58cb9d76fb"",""projectId"":""a0a8f18c-a66e-4ba7-a170-23efbdc67501""}","https://test12345.live/?participantId=668703D4C675497BA09AE5588BDC518B&assignmentId=050cda97-60cd-4ae1-ad10-7c58cb9d76fb&projectId=a0a8f18c-a66e-4ba7-a170-23efbdc67501","668703D4C675497BA09AE5588BDC518B-2024-11-24-17-36-56","","null","","[]","null","",""
"","","","","","image-button-response","124","475166","0.0-16.0-1.0-0.1","668703D4C675497BA09AE5588BDC518B","668703D4C675497BA09AE5588BDC518B","050cda97-60cd-4ae1-ad10-7c58cb9d76fb","a0a8f18c-a66e-4ba7-a170-23efbdc67501","{""participantId"":""668703D4C675497BA09AE5588BDC518B"",""assignmentId"":""050cda97-60cd-4ae1-ad10-7c58cb9d76fb"",""projectId"":""a0a8f18c-a66e-4ba7-a170-23efbdc67501""}","https://test12345.live/?participantId=668703D4C675497BA09AE5588BDC518B&assignmentId=050cda97-60cd-4ae1-ad10-7c58cb9d76fb&projectId=a0a8f18c-a66e-4ba7-a170-23efbdc67501","668703D4C675497BA09AE5588BDC518B-2024-11-24-17-36-56","","null","","images/schematic_sequence/flight_scheme/flight_scheme_9.png","null","",""
"","","","","","image-button-response","125","475671","0.0-16.0-1.0-1.1","668703D4C675497BA09AE5588BDC518B","668703D4C675497BA09AE5588BDC518B","050cda97-60cd-4ae1-ad10-7c58cb9d76fb","a0a8f18c-a66e-4ba7-a170-23efbdc67501","{""participantId"":""668703D4C675497BA09AE5588BDC518B"",""assignmentId"":""050cda97-60cd-4ae1-ad10-7c58cb9d76fb"",""projectId"":""a0a8f18c-a66e-4ba7-a170-23efbdc67501""}","https://test12345.live/?participantId=668703D4C675497BA09AE5588BDC518B&assignmentId=050cda97-60cd-4ae1-ad10-7c58cb9d76fb&projectId=a0a8f18c-a66e-4ba7-a170-23efbdc67501","668703D4C675497BA09AE5588BDC518B-2024-11-24-17-36-56","","504","","images/schematic_sequence/flight_scheme/flight_scheme_9.png","0","",""
"","","","","","image-button-response","126","477483","0.0-16.0-1.0-2.1","668703D4C675497BA09AE5588BDC518B","668703D4C675497BA09AE5588BDC518B","050cda97-60cd-4ae1-ad10-7c58cb9d76fb","a0a8f18c-a66e-4ba7-a170-23efbdc67501","{""participantId"":""668703D4C675497BA09AE5588BDC518B"",""assignmentId"":""050cda97-60cd-4ae1-ad10-7c58cb9d76fb"",""projectId"":""a0a8f18c-a66e-4ba7-a170-23efbdc67501""}","https://test12345.live/?participantId=668703D4C675497BA09AE5588BDC518B&assignmentId=050cda97-60cd-4ae1-ad10-7c58cb9d76fb&projectId=a0a8f18c-a66e-4ba7-a170-23efbdc67501","668703D4C675497BA09AE5588BDC518B-2024-11-24-17-36-56","","null","","[]","null","",""
"","","","","","image-button-response","127","481986","0.0-16.0-1.0-0.2","668703D4C675497BA09AE5588BDC518B","668703D4C675497BA09AE5588BDC518B","050cda97-60cd-4ae1-ad10-7c58cb9d76fb","a0a8f18c-a66e-4ba7-a170-23efbdc67501","{""participantId"":""668703D4C675497BA09AE5588BDC518B"",""assignmentId"":""050cda97-60cd-4ae1-ad10-7c58cb9d76fb"",""projectId"":""a0a8f18c-a66e-4ba7-a170-23efbdc67501""}","https://test12345.live/?participantId=668703D4C675497BA09AE5588BDC518B&assignmentId=050cda97-60cd-4ae1-ad10-7c58cb9d76fb&projectId=a0a8f18c-a66e-4ba7-a170-23efbdc67501","668703D4C675497BA09AE5588BDC518B-2024-11-24-17-36-56","","null","","images/schematic_sequence/flight_scheme/flight_scheme_2.png","null","",""
"","","","","","image-button-response","128","482653","0.0-16.0-1.0-1.2","668703D4C675497BA09AE5588BDC518B","668703D4C675497BA09AE5588BDC518B","050cda97-60cd-4ae1-ad10-7c58cb9d76fb","a0a8f18c-a66e-4ba7-a170-23efbdc67501","{""participantId"":""668703D4C675497BA09AE5588BDC518B"",""assignmentId"":""050cda97-60cd-4ae1-ad10-7c58cb9d76fb"",""projectId"":""a0a8f18c-a66e-4ba7-a170-23efbdc67501""}","https://test12345.live/?participantId=668703D4C675497BA09AE5588BDC518B&assignmentId=050cda97-60cd-4ae1-ad10-7c58cb9d76fb&projectId=a0a8f18c-a66e-4ba7-a170-23efbdc67501","668703D4C675497BA09AE5588BDC518B-2024-11-24-17-36-56","","665","","images/schematic_sequence/flight_scheme/flight_scheme_2.png","1","",""
"","","","","","image-button-response","129","484466","0.0-16.0-1.0-2.2","668703D4C675497BA09AE5588BDC518B","668703D4C675497BA09AE5588BDC518B","050cda97-60cd-4ae1-ad10-7c58cb9d76fb","a0a8f18c-a66e-4ba7-a170-23efbdc67501","{""participantId"":""668703D4C675497BA09AE5588BDC518B"",""assignmentId"":""050cda97-60cd-4ae1-ad10-7c58cb9d76fb"",""projectId"":""a0a8f18c-a66e-4ba7-a170-23efbdc67501""}","https://test12345.live/?participantId=668703D4C675497BA09AE5588BDC518B&assignmentId=050cda97-60cd-4ae1-ad10-7c58cb9d76fb&projectId=a0a8f18c-a66e-4ba7-a170-23efbdc67501","668703D4C675497BA09AE5588BDC518B-2024-11-24-17-36-56","","null","","[]","null","",""
"","","","","","image-button-response","130","488967","0.0-16.0-1.0-0.3","668703D4C675497BA09AE5588BDC518B","668703D4C675497BA09AE5588BDC518B","050cda97-60cd-4ae1-ad10-7c58cb9d76fb","a0a8f18c-a66e-4ba7-a170-23efbdc67501","{""participantId"":""668703D4C675497BA09AE5588BDC518B"",""assignmentId"":""050cda97-60cd-4ae1-ad10-7c58cb9d76fb"",""projectId"":""a0a8f18c-a66e-4ba7-a170-23efbdc67501""}","https://test12345.live/?participantId=668703D4C675497BA09AE5588BDC518B&assignmentId=050cda97-60cd-4ae1-ad10-7c58cb9d76fb&projectId=a0a8f18c-a66e-4ba7-a170-23efbdc67501","668703D4C675497BA09AE5588BDC518B-2024-11-24-17-36-56","","null","","images/schematic_sequence/flight_scheme/flight_scheme_6.png","null","",""
"","","","","","image-button-response","131","489675","0.0-16.0-1.0-1.3","668703D4C675497BA09AE5588BDC518B","668703D4C675497BA09AE5588BDC518B","050cda97-60cd-4ae1-ad10-7c58cb9d76fb","a0a8f18c-a66e-4ba7-a170-23efbdc67501","{""participantId"":""668703D4C675497BA09AE5588BDC518B"",""assignmentId"":""050cda97-60cd-4ae1-ad10-7c58cb9d76fb"",""projectId"":""a0a8f18c-a66e-4ba7-a170-23efbdc67501""}","https://test12345.live/?participantId=668703D4C675497BA09AE5588BDC518B&assignmentId=050cda97-60cd-4ae1-ad10-7c58cb9d76fb&projectId=a0a8f18c-a66e-4ba7-a170-23efbdc67501","668703D4C675497BA09AE5588BDC518B-2024-11-24-17-36-56","","707","","images/schematic_sequence/flight_scheme/flight_scheme_6.png","1","",""
"","","","","","image-button-response","132","491483","0.0-16.0-1.0-2.3","668703D4C675497BA09AE5588BDC518B","668703D4C675497BA09AE5588BDC518B","050cda97-60cd-4ae1-ad10-7c58cb9d76fb","a0a8f18c-a66e-4ba7-a170-23efbdc67501","{""participantId"":""668703D4C675497BA09AE5588BDC518B"",""assignmentId"":""050cda97-60cd-4ae1-ad10-7c58cb9d76fb"",""projectId"":""a0a8f18c-a66e-4ba7-a170-23efbdc67501""}","https://test12345.live/?participantId=668703D4C675497BA09AE5588BDC518B&assignmentId=050cda97-60cd-4ae1-ad10-7c58cb9d76fb&projectId=a0a8f18c-a66e-4ba7-a170-23efbdc67501","668703D4C675497BA09AE5588BDC518B-2024-11-24-17-36-56","","null","","[]","null","",""
"","","","","","image-button-response","133","495983","0.0-16.0-1.0-0.4","668703D4C675497BA09AE5588BDC518B","668703D4C675497BA09AE5588BDC518B","050cda97-60cd-4ae1-ad10-7c58cb9d76fb","a0a8f18c-a66e-4ba7-a170-23efbdc67501","{""participantId"":""668703D4C675497BA09AE5588BDC518B"",""assignmentId"":""050cda97-60cd-4ae1-ad10-7c58cb9d76fb"",""projectId"":""a0a8f18c-a66e-4ba7-a170-23efbdc67501""}","https://test12345.live/?participantId=668703D4C675497BA09AE5588BDC518B&assignmentId=050cda97-60cd-4ae1-ad10-7c58cb9d76fb&projectId=a0a8f18c-a66e-4ba7-a170-23efbdc67501","668703D4C675497BA09AE5588BDC518B-2024-11-24-17-36-56","","null","","images/schematic_sequence/flight_scheme/flight_scheme_8.png","null","",""
"","","","","","image-button-response","134","496565","0.0-16.0-1.0-1.4","668703D4C675497BA09AE5588BDC518B","668703D4C675497BA09AE5588BDC518B","050cda97-60cd-4ae1-ad10-7c58cb9d76fb","a0a8f18c-a66e-4ba7-a170-23efbdc67501","{""participantId"":""668703D4C675497BA09AE5588BDC518B"",""assignmentId"":""050cda97-60cd-4ae1-ad10-7c58cb9d76fb"",""projectId"":""a0a8f18c-a66e-4ba7-a170-23efbdc67501""}","https://test12345.live/?participantId=668703D4C675497BA09AE5588BDC518B&assignmentId=050cda97-60cd-4ae1-ad10-7c58cb9d76fb&projectId=a0a8f18c-a66e-4ba7-a170-23efbdc67501","668703D4C675497BA09AE5588BDC518B-2024-11-24-17-36-56","","581","","images/schematic_sequence/flight_scheme/flight_scheme_8.png","1","",""
"","","","","","image-button-response","135","498366","0.0-16.0-1.0-2.4","668703D4C675497BA09AE5588BDC518B","668703D4C675497BA09AE5588BDC518B","050cda97-60cd-4ae1-ad10-7c58cb9d76fb","a0a8f18c-a66e-4ba7-a170-23efbdc67501","{""participantId"":""668703D4C675497BA09AE5588BDC518B"",""assignmentId"":""050cda97-60cd-4ae1-ad10-7c58cb9d76fb"",""projectId"":""a0a8f18c-a66e-4ba7-a170-23efbdc67501""}","https://test12345.live/?participantId=668703D4C675497BA09AE5588BDC518B&assignmentId=050cda97-60cd-4ae1-ad10-7c58cb9d76fb&projectId=a0a8f18c-a66e-4ba7-a170-23efbdc67501","668703D4C675497BA09AE5588BDC518B-2024-11-24-17-36-56","","null","","[]","null","",""
"","","","","","image-button-response","136","502867","0.0-16.0-1.0-0.5","668703D4C675497BA09AE5588BDC518B","668703D4C675497BA09AE5588BDC518B","050cda97-60cd-4ae1-ad10-7c58cb9d76fb","a0a8f18c-a66e-4ba7-a170-23efbdc67501","{""participantId"":""668703D4C675497BA09AE5588BDC518B"",""assignmentId"":""050cda97-60cd-4ae1-ad10-7c58cb9d76fb"",""projectId"":""a0a8f18c-a66e-4ba7-a170-23efbdc67501""}","https://test12345.live/?participantId=668703D4C675497BA09AE5588BDC518B&assignmentId=050cda97-60cd-4ae1-ad10-7c58cb9d76fb&projectId=a0a8f18c-a66e-4ba7-a170-23efbdc67501","668703D4C675497BA09AE5588BDC518B-2024-11-24-17-36-56","","null","","images/schematic_sequence/flight_scheme/flight_scheme_3.png","null","",""
"","","","","","image-button-response","137","504051","0.0-16.0-1.0-1.5","668703D4C675497BA09AE5588BDC518B","668703D4C675497BA09AE5588BDC518B","050cda97-60cd-4ae1-ad10-7c58cb9d76fb","a0a8f18c-a66e-4ba7-a170-23efbdc67501","{""participantId"":""668703D4C675497BA09AE5588BDC518B"",""assignmentId"":""050cda97-60cd-4ae1-ad10-7c58cb9d76fb"",""projectId"":""a0a8f18c-a66e-4ba7-a170-23efbdc67501""}","https://test12345.live/?participantId=668703D4C675497BA09AE5588BDC518B&assignmentId=050cda97-60cd-4ae1-ad10-7c58cb9d76fb&projectId=a0a8f18c-a66e-4ba7-a170-23efbdc67501","668703D4C675497BA09AE5588BDC518B-2024-11-24-17-36-56","","1183","","images/schematic_sequence/flight_scheme/flight_scheme_3.png","0","",""
"","","","","","image-button-response","138","505852","0.0-16.0-1.0-2.5","668703D4C675497BA09AE5588BDC518B","668703D4C675497BA09AE5588BDC518B","050cda97-60cd-4ae1-ad10-7c58cb9d76fb","a0a8f18c-a66e-4ba7-a170-23efbdc67501","{""participantId"":""668703D4C675497BA09AE5588BDC518B"",""assignmentId"":""050cda97-60cd-4ae1-ad10-7c58cb9d76fb"",""projectId"":""a0a8f18c-a66e-4ba7-a170-23efbdc67501""}","https://test12345.live/?participantId=668703D4C675497BA09AE5588BDC518B&assignmentId=050cda97-60cd-4ae1-ad10-7c58cb9d76fb&projectId=a0a8f18c-a66e-4ba7-a170-23efbdc67501","668703D4C675497BA09AE5588BDC518B-2024-11-24-17-36-56","","null","","[]","null","",""
"","","","","","image-button-response","139","510367","0.0-16.0-1.0-0.6","668703D4C675497BA09AE5588BDC518B","668703D4C675497BA09AE5588BDC518B","050cda97-60cd-4ae1-ad10-7c58cb9d76fb","a0a8f18c-a66e-4ba7-a170-23efbdc67501","{""participantId"":""668703D4C675497BA09AE5588BDC518B"",""assignmentId"":""050cda97-60cd-4ae1-ad10-7c58cb9d76fb"",""projectId"":""a0a8f18c-a66e-4ba7-a170-23efbdc67501""}","https://test12345.live/?participantId=668703D4C675497BA09AE5588BDC518B&assignmentId=050cda97-60cd-4ae1-ad10-7c58cb9d76fb&projectId=a0a8f18c-a66e-4ba7-a170-23efbdc67501","668703D4C675497BA09AE5588BDC518B-2024-11-24-17-36-56","","null","","images/schematic_sequence/flight_scheme/flight_scheme_7.png","null","",""
"","","","","","image-button-response","140","510864","0.0-16.0-1.0-1.6","668703D4C675497BA09AE5588BDC518B","668703D4C675497BA09AE5588BDC518B","050cda97-60cd-4ae1-ad10-7c58cb9d76fb","a0a8f18c-a66e-4ba7-a170-23efbdc67501","{""participantId"":""668703D4C675497BA09AE5588BDC518B"",""assignmentId"":""050cda97-60cd-4ae1-ad10-7c58cb9d76fb"",""projectId"":""a0a8f18c-a66e-4ba7-a170-23efbdc67501""}","https://test12345.live/?participantId=668703D4C675497BA09AE5588BDC518B&assignmentId=050cda97-60cd-4ae1-ad10-7c58cb9d76fb&projectId=a0a8f18c-a66e-4ba7-a170-23efbdc67501","668703D4C675497BA09AE5588BDC518B-2024-11-24-17-36-56","","496","","images/schematic_sequence/flight_scheme/flight_scheme_7.png","0","",""
"","","","","","image-button-response","141","512666","0.0-16.0-1.0-2.6","668703D4C675497BA09AE5588BDC518B","668703D4C675497BA09AE5588BDC518B","050cda97-60cd-4ae1-ad10-7c58cb9d76fb","a0a8f18c-a66e-4ba7-a170-23efbdc67501","{""participantId"":""668703D4C675497BA09AE5588BDC518B"",""assignmentId"":""050cda97-60cd-4ae1-ad10-7c58cb9d76fb"",""projectId"":""a0a8f18c-a66e-4ba7-a170-23efbdc67501""}","https://test12345.live/?participantId=668703D4C675497BA09AE5588BDC518B&assignmentId=050cda97-60cd-4ae1-ad10-7c58cb9d76fb&projectId=a0a8f18c-a66e-4ba7-a170-23efbdc67501","668703D4C675497BA09AE5588BDC518B-2024-11-24-17-36-56","","null","","[]","null","",""
"","","","","","image-button-response","142","517167","0.0-16.0-1.0-0.7","668703D4C675497BA09AE5588BDC518B","668703D4C675497BA09AE5588BDC518B","050cda97-60cd-4ae1-ad10-7c58cb9d76fb","a0a8f18c-a66e-4ba7-a170-23efbdc67501","{""participantId"":""668703D4C675497BA09AE5588BDC518B"",""assignmentId"":""050cda97-60cd-4ae1-ad10-7c58cb9d76fb"",""projectId"":""a0a8f18c-a66e-4ba7-a170-23efbdc67501""}","https://test12345.live/?participantId=668703D4C675497BA09AE5588BDC518B&assignmentId=050cda97-60cd-4ae1-ad10-7c58cb9d76fb&projectId=a0a8f18c-a66e-4ba7-a170-23efbdc67501","668703D4C675497BA09AE5588BDC518B-2024-11-24-17-36-56","","null","","images/schematic_sequence/flight_scheme/flight_scheme_4.png","null","",""
