"success","timeout","failed_images","failed_audio","failed_video","trial_type","trial_index","time_elapsed","internal_node_id","subject","subject_id","study_id","session_id","urlvar","current_url","audio_id","view_history","rt","device_id","stimulus","response","estimated_stimulus_onset","seq_name"
"true","false","[]","[]","[]","preload","0","42565","0.0-0.0","67C755B1DA5740C58756E5FD16792FB3","67C755B1DA5740C58756E5FD16792FB3","5aa12418-5f0a-4cb7-a915-f40ecc7f3625","5e631737-0fa4-44a6-b227-7ba1d7345015","{""num_scrambled_semantic"":""8"",""num_scrambled_causal"":""4"",""num_scrambled_schematic"":""4"",""participantId"":""67C755B1DA5740C58756E5FD16792FB3"",""assignmentId"":""5aa12418-5f0a-4cb7-a915-f40ecc7f3625"",""projectId"":""5e631737-0fa4-44a6-b227-7ba1d7345015""}","https://test12345.live/?num_scrambled_semantic=8&num_scrambled_causal=4&num_scrambled_schematic=4&participantId=67C755B1DA5740C58756E5FD16792FB3&assignmentId=5aa12418-5f0a-4cb7-a915-f40ecc7f3625&projectId=5e631737-0fa4-44a6-b227-7ba1d7345015","67C755B1DA5740C58756E5FD16792FB3-2025-05-27-18-18-45","","","","","","",""
"","","","","","instructions","1","56294","0.0-1.0","67C755B1DA5740C58756E5FD16792FB3","67C755B1DA5740C58756E5FD16792FB3","5aa12418-5f0a-4cb7-a915-f40ecc7f3625","5e631737-0fa4-44a6-b227-7ba1d7345015","{""num_scrambled_semantic"":""8"",""num_scrambled_causal"":""4"",""num_scrambled_schematic"":""4"",""participantId"":""67C755B1DA5740C58756E5FD16792FB3"",""assignmentId"":""5aa12418-5f0a-4cb7-a915-f40ecc7f3625"",""projectId"":""5e631737-0fa4-44a6-b227-7ba1d7345015""}","https://test12345.live/?num_scrambled_semantic=8&num_scrambled_causal=4&num_scrambled_schematic=4&participantId=67C755B1DA5740C58756E5FD16792FB3&assignmentId=5aa12418-5f0a-4cb7-a915-f40ecc7f3625&projectId=5e631737-0fa4-44a6-b227-7ba1d7345015","67C755B1DA5740C58756E5FD16792FB3-2025-05-27-18-18-45","[{""page_index"":0,""viewing_time"":13728}]","13728","","","","",""
"","","","","","instructions","2","60614","0.0-2.0","67C755B1DA5740C58756E5FD16792FB3","67C755B1DA5740C58756E5FD16792FB3","5aa12418-5f0a-4cb7-a915-f40ecc7f3625","5e631737-0fa4-44a6-b227-7ba1d7345015","{""num_scrambled_semantic"":""8"",""num_scrambled_causal"":""4"",""num_scrambled_schematic"":""4"",""participantId"":""67C755B1DA5740C58756E5FD16792FB3"",""assignmentId"":""5aa12418-5f0a-4cb7-a915-f40ecc7f3625"",""projectId"":""5e631737-0fa4-44a6-b227-7ba1d7345015""}","https://test12345.live/?num_scrambled_semantic=8&num_scrambled_causal=4&num_scrambled_schematic=4&participantId=67C755B1DA5740C58756E5FD16792FB3&assignmentId=5aa12418-5f0a-4cb7-a915-f40ecc7f3625&projectId=5e631737-0fa4-44a6-b227-7ba1d7345015","67C755B1DA5740C58756E5FD16792FB3-2025-05-27-18-18-45","[{""page_index"":0,""viewing_time"":4319}]","4319","","","","",""
"true","","","","","fullscreen","3","62715","0.0-3.0","67C755B1DA5740C58756E5FD16792FB3","67C755B1DA5740C58756E5FD16792FB3","5aa12418-5f0a-4cb7-a915-f40ecc7f3625","5e631737-0fa4-44a6-b227-7ba1d7345015","{""num_scrambled_semantic"":""8"",""num_scrambled_causal"":""4"",""num_scrambled_schematic"":""4"",""participantId"":""67C755B1DA5740C58756E5FD16792FB3"",""assignmentId"":""5aa12418-5f0a-4cb7-a915-f40ecc7f3625"",""projectId"":""5e631737-0fa4-44a6-b227-7ba1d7345015""}","https://test12345.live/?num_scrambled_semantic=8&num_scrambled_causal=4&num_scrambled_schematic=4&participantId=67C755B1DA5740C58756E5FD16792FB3&assignmentId=5aa12418-5f0a-4cb7-a915-f40ecc7f3625&projectId=5e631737-0fa4-44a6-b227-7ba1d7345015","67C755B1DA5740C58756E5FD16792FB3-2025-05-27-18-18-45","","1087","","","","",""
"","","","","","initialize-microphone","4","69529","0.0-4.0-0.0","67C755B1DA5740C58756E5FD16792FB3","67C755B1DA5740C58756E5FD16792FB3","5aa12418-5f0a-4cb7-a915-f40ecc7f3625","5e631737-0fa4-44a6-b227-7ba1d7345015","{""num_scrambled_semantic"":""8"",""num_scrambled_causal"":""4"",""num_scrambled_schematic"":""4"",""participantId"":""67C755B1DA5740C58756E5FD16792FB3"",""assignmentId"":""5aa12418-5f0a-4cb7-a915-f40ecc7f3625"",""projectId"":""5e631737-0fa4-44a6-b227-7ba1d7345015""}","https://test12345.live/?num_scrambled_semantic=8&num_scrambled_causal=4&num_scrambled_schematic=4&participantId=67C755B1DA5740C58756E5FD16792FB3&assignmentId=5aa12418-5f0a-4cb7-a915-f40ecc7f3625&projectId=5e631737-0fa4-44a6-b227-7ba1d7345015","67C755B1DA5740C58756E5FD16792FB3-2025-05-27-18-18-45","","","4659562b13a83696b2f6656b196da68f7684b0d94387a87f8133a25778d3df6a","","","",""
"","","","","","html-audio-response","5","84838","0.0-4.0-1.0","67C755B1DA5740C58756E5FD16792FB3","67C755B1DA5740C58756E5FD16792FB3","5aa12418-5f0a-4cb7-a915-f40ecc7f3625","5e631737-0fa4-44a6-b227-7ba1d7345015","{""num_scrambled_semantic"":""8"",""num_scrambled_causal"":""4"",""num_scrambled_schematic"":""4"",""participantId"":""67C755B1DA5740C58756E5FD16792FB3"",""assignmentId"":""5aa12418-5f0a-4cb7-a915-f40ecc7f3625"",""projectId"":""5e631737-0fa4-44a6-b227-7ba1d7345015""}","https://test12345.live/?num_scrambled_semantic=8&num_scrambled_causal=4&num_scrambled_schematic=4&participantId=67C755B1DA5740C58756E5FD16792FB3&assignmentId=5aa12418-5f0a-4cb7-a915-f40ecc7f3625&projectId=5e631737-0fa4-44a6-b227-7ba1d7345015","67C755B1DA5740C58756E5FD16792FB3-2025-05-27-18-18-45","","4165","","<span style=""color: red; font-size: 24px""> NOW RECORDING</span>
        <p>Please test Microphone</p>","","4",""
"","","","","","html-button-response","6","86262","0.0-4.0-2.0","67C755B1DA5740C58756E5FD16792FB3","67C755B1DA5740C58756E5FD16792FB3","5aa12418-5f0a-4cb7-a915-f40ecc7f3625","5e631737-0fa4-44a6-b227-7ba1d7345015","{""num_scrambled_semantic"":""8"",""num_scrambled_causal"":""4"",""num_scrambled_schematic"":""4"",""participantId"":""67C755B1DA5740C58756E5FD16792FB3"",""assignmentId"":""5aa12418-5f0a-4cb7-a915-f40ecc7f3625"",""projectId"":""5e631737-0fa4-44a6-b227-7ba1d7345015""}","https://test12345.live/?num_scrambled_semantic=8&num_scrambled_causal=4&num_scrambled_schematic=4&participantId=67C755B1DA5740C58756E5FD16792FB3&assignmentId=5aa12418-5f0a-4cb7-a915-f40ecc7f3625&projectId=5e631737-0fa4-44a6-b227-7ba1d7345015","67C755B1DA5740C58756E5FD16792FB3-2025-05-27-18-18-45","","1422","","<p style=""font-size:48px; color:red;"">Is Microphone OK?</p>","1","",""
"","","","","","instructions","7","95438","0.0-5.0","67C755B1DA5740C58756E5FD16792FB3","67C755B1DA5740C58756E5FD16792FB3","5aa12418-5f0a-4cb7-a915-f40ecc7f3625","5e631737-0fa4-44a6-b227-7ba1d7345015","{""num_scrambled_semantic"":""8"",""num_scrambled_causal"":""4"",""num_scrambled_schematic"":""4"",""participantId"":""67C755B1DA5740C58756E5FD16792FB3"",""assignmentId"":""5aa12418-5f0a-4cb7-a915-f40ecc7f3625"",""projectId"":""5e631737-0fa4-44a6-b227-7ba1d7345015""}","https://test12345.live/?num_scrambled_semantic=8&num_scrambled_causal=4&num_scrambled_schematic=4&participantId=67C755B1DA5740C58756E5FD16792FB3&assignmentId=5aa12418-5f0a-4cb7-a915-f40ecc7f3625&projectId=5e631737-0fa4-44a6-b227-7ba1d7345015","67C755B1DA5740C58756E5FD16792FB3-2025-05-27-18-18-45","[{""page_index"":0,""viewing_time"":3439},{""page_index"":1,""viewing_time"":5736}]","9175","","","","",""
"","","","","","image-button-response","8","101450","0.0-6.0-0.0","67C755B1DA5740C58756E5FD16792FB3","67C755B1DA5740C58756E5FD16792FB3","5aa12418-5f0a-4cb7-a915-f40ecc7f3625","5e631737-0fa4-44a6-b227-7ba1d7345015","{""num_scrambled_semantic"":""8"",""num_scrambled_causal"":""4"",""num_scrambled_schematic"":""4"",""participantId"":""67C755B1DA5740C58756E5FD16792FB3"",""assignmentId"":""5aa12418-5f0a-4cb7-a915-f40ecc7f3625"",""projectId"":""5e631737-0fa4-44a6-b227-7ba1d7345015""}","https://test12345.live/?num_scrambled_semantic=8&num_scrambled_causal=4&num_scrambled_schematic=4&participantId=67C755B1DA5740C58756E5FD16792FB3&assignmentId=5aa12418-5f0a-4cb7-a915-f40ecc7f3625&projectId=5e631737-0fa4-44a6-b227-7ba1d7345015","67C755B1DA5740C58756E5FD16792FB3-2025-05-27-18-18-45","","null","","images/instructions/movie_0.png","null","",""
"","","","","","image-button-response","9","105958","0.0-6.0-1.0-0.0","67C755B1DA5740C58756E5FD16792FB3","67C755B1DA5740C58756E5FD16792FB3","5aa12418-5f0a-4cb7-a915-f40ecc7f3625","5e631737-0fa4-44a6-b227-7ba1d7345015","{""num_scrambled_semantic"":""8"",""num_scrambled_causal"":""4"",""num_scrambled_schematic"":""4"",""participantId"":""67C755B1DA5740C58756E5FD16792FB3"",""assignmentId"":""5aa12418-5f0a-4cb7-a915-f40ecc7f3625"",""projectId"":""5e631737-0fa4-44a6-b227-7ba1d7345015""}","https://test12345.live/?num_scrambled_semantic=8&num_scrambled_causal=4&num_scrambled_schematic=4&participantId=67C755B1DA5740C58756E5FD16792FB3&assignmentId=5aa12418-5f0a-4cb7-a915-f40ecc7f3625&projectId=5e631737-0fa4-44a6-b227-7ba1d7345015","67C755B1DA5740C58756E5FD16792FB3-2025-05-27-18-18-45","","null","","images/instructions/movie_1.png","null","",""
"","","","","","image-button-response","10","108238","0.0-6.0-1.0-1.0","67C755B1DA5740C58756E5FD16792FB3","67C755B1DA5740C58756E5FD16792FB3","5aa12418-5f0a-4cb7-a915-f40ecc7f3625","5e631737-0fa4-44a6-b227-7ba1d7345015","{""num_scrambled_semantic"":""8"",""num_scrambled_causal"":""4"",""num_scrambled_schematic"":""4"",""participantId"":""67C755B1DA5740C58756E5FD16792FB3"",""assignmentId"":""5aa12418-5f0a-4cb7-a915-f40ecc7f3625"",""projectId"":""5e631737-0fa4-44a6-b227-7ba1d7345015""}","https://test12345.live/?num_scrambled_semantic=8&num_scrambled_causal=4&num_scrambled_schematic=4&participantId=67C755B1DA5740C58756E5FD16792FB3&assignmentId=5aa12418-5f0a-4cb7-a915-f40ecc7f3625&projectId=5e631737-0fa4-44a6-b227-7ba1d7345015","67C755B1DA5740C58756E5FD16792FB3-2025-05-27-18-18-45","","2279","","images/instructions/movie_1.png","0","",""
"","","","","","image-button-response","11","110040","0.0-6.0-1.0-2.0","67C755B1DA5740C58756E5FD16792FB3","67C755B1DA5740C58756E5FD16792FB3","5aa12418-5f0a-4cb7-a915-f40ecc7f3625","5e631737-0fa4-44a6-b227-7ba1d7345015","{""num_scrambled_semantic"":""8"",""num_scrambled_causal"":""4"",""num_scrambled_schematic"":""4"",""participantId"":""67C755B1DA5740C58756E5FD16792FB3"",""assignmentId"":""5aa12418-5f0a-4cb7-a915-f40ecc7f3625"",""projectId"":""5e631737-0fa4-44a6-b227-7ba1d7345015""}","https://test12345.live/?num_scrambled_semantic=8&num_scrambled_causal=4&num_scrambled_schematic=4&participantId=67C755B1DA5740C58756E5FD16792FB3&assignmentId=5aa12418-5f0a-4cb7-a915-f40ecc7f3625&projectId=5e631737-0fa4-44a6-b227-7ba1d7345015","67C755B1DA5740C58756E5FD16792FB3-2025-05-27-18-18-45","","null","","[]","null","",""
"","","","","","image-button-response","12","114550","0.0-6.0-1.0-0.1","67C755B1DA5740C58756E5FD16792FB3","67C755B1DA5740C58756E5FD16792FB3","5aa12418-5f0a-4cb7-a915-f40ecc7f3625","5e631737-0fa4-44a6-b227-7ba1d7345015","{""num_scrambled_semantic"":""8"",""num_scrambled_causal"":""4"",""num_scrambled_schematic"":""4"",""participantId"":""67C755B1DA5740C58756E5FD16792FB3"",""assignmentId"":""5aa12418-5f0a-4cb7-a915-f40ecc7f3625"",""projectId"":""5e631737-0fa4-44a6-b227-7ba1d7345015""}","https://test12345.live/?num_scrambled_semantic=8&num_scrambled_causal=4&num_scrambled_schematic=4&participantId=67C755B1DA5740C58756E5FD16792FB3&assignmentId=5aa12418-5f0a-4cb7-a915-f40ecc7f3625&projectId=5e631737-0fa4-44a6-b227-7ba1d7345015","67C755B1DA5740C58756E5FD16792FB3-2025-05-27-18-18-45","","null","","images/instructions/movie_2.png","null","",""
"","","","","","image-button-response","13","117742","0.0-6.0-1.0-1.1","67C755B1DA5740C58756E5FD16792FB3","67C755B1DA5740C58756E5FD16792FB3","5aa12418-5f0a-4cb7-a915-f40ecc7f3625","5e631737-0fa4-44a6-b227-7ba1d7345015","{""num_scrambled_semantic"":""8"",""num_scrambled_causal"":""4"",""num_scrambled_schematic"":""4"",""participantId"":""67C755B1DA5740C58756E5FD16792FB3"",""assignmentId"":""5aa12418-5f0a-4cb7-a915-f40ecc7f3625"",""projectId"":""5e631737-0fa4-44a6-b227-7ba1d7345015""}","https://test12345.live/?num_scrambled_semantic=8&num_scrambled_causal=4&num_scrambled_schematic=4&participantId=67C755B1DA5740C58756E5FD16792FB3&assignmentId=5aa12418-5f0a-4cb7-a915-f40ecc7f3625&projectId=5e631737-0fa4-44a6-b227-7ba1d7345015","67C755B1DA5740C58756E5FD16792FB3-2025-05-27-18-18-45","","3190","","images/instructions/movie_2.png","0","",""
"","","","","","image-button-response","14","119549","0.0-6.0-1.0-2.1","67C755B1DA5740C58756E5FD16792FB3","67C755B1DA5740C58756E5FD16792FB3","5aa12418-5f0a-4cb7-a915-f40ecc7f3625","5e631737-0fa4-44a6-b227-7ba1d7345015","{""num_scrambled_semantic"":""8"",""num_scrambled_causal"":""4"",""num_scrambled_schematic"":""4"",""participantId"":""67C755B1DA5740C58756E5FD16792FB3"",""assignmentId"":""5aa12418-5f0a-4cb7-a915-f40ecc7f3625"",""projectId"":""5e631737-0fa4-44a6-b227-7ba1d7345015""}","https://test12345.live/?num_scrambled_semantic=8&num_scrambled_causal=4&num_scrambled_schematic=4&participantId=67C755B1DA5740C58756E5FD16792FB3&assignmentId=5aa12418-5f0a-4cb7-a915-f40ecc7f3625&projectId=5e631737-0fa4-44a6-b227-7ba1d7345015","67C755B1DA5740C58756E5FD16792FB3-2025-05-27-18-18-45","","null","","[]","null","",""
"","","","","","image-button-response","15","124061","0.0-6.0-1.0-0.2","67C755B1DA5740C58756E5FD16792FB3","67C755B1DA5740C58756E5FD16792FB3","5aa12418-5f0a-4cb7-a915-f40ecc7f3625","5e631737-0fa4-44a6-b227-7ba1d7345015","{""num_scrambled_semantic"":""8"",""num_scrambled_causal"":""4"",""num_scrambled_schematic"":""4"",""participantId"":""67C755B1DA5740C58756E5FD16792FB3"",""assignmentId"":""5aa12418-5f0a-4cb7-a915-f40ecc7f3625"",""projectId"":""5e631737-0fa4-44a6-b227-7ba1d7345015""}","https://test12345.live/?num_scrambled_semantic=8&num_scrambled_causal=4&num_scrambled_schematic=4&participantId=67C755B1DA5740C58756E5FD16792FB3&assignmentId=5aa12418-5f0a-4cb7-a915-f40ecc7f3625&projectId=5e631737-0fa4-44a6-b227-7ba1d7345015","67C755B1DA5740C58756E5FD16792FB3-2025-05-27-18-18-45","","null","","images/instructions/movie_3.png","null","",""
"","","","","","image-button-response","16","124958","0.0-6.0-1.0-1.2","67C755B1DA5740C58756E5FD16792FB3","67C755B1DA5740C58756E5FD16792FB3","5aa12418-5f0a-4cb7-a915-f40ecc7f3625","5e631737-0fa4-44a6-b227-7ba1d7345015","{""num_scrambled_semantic"":""8"",""num_scrambled_causal"":""4"",""num_scrambled_schematic"":""4"",""participantId"":""67C755B1DA5740C58756E5FD16792FB3"",""assignmentId"":""5aa12418-5f0a-4cb7-a915-f40ecc7f3625"",""projectId"":""5e631737-0fa4-44a6-b227-7ba1d7345015""}","https://test12345.live/?num_scrambled_semantic=8&num_scrambled_causal=4&num_scrambled_schematic=4&participantId=67C755B1DA5740C58756E5FD16792FB3&assignmentId=5aa12418-5f0a-4cb7-a915-f40ecc7f3625&projectId=5e631737-0fa4-44a6-b227-7ba1d7345015","67C755B1DA5740C58756E5FD16792FB3-2025-05-27-18-18-45","","896","","images/instructions/movie_3.png","0","",""
"","","","","","image-button-response","17","126760","0.0-6.0-1.0-2.2","67C755B1DA5740C58756E5FD16792FB3","67C755B1DA5740C58756E5FD16792FB3","5aa12418-5f0a-4cb7-a915-f40ecc7f3625","5e631737-0fa4-44a6-b227-7ba1d7345015","{""num_scrambled_semantic"":""8"",""num_scrambled_causal"":""4"",""num_scrambled_schematic"":""4"",""participantId"":""67C755B1DA5740C58756E5FD16792FB3"",""assignmentId"":""5aa12418-5f0a-4cb7-a915-f40ecc7f3625"",""projectId"":""5e631737-0fa4-44a6-b227-7ba1d7345015""}","https://test12345.live/?num_scrambled_semantic=8&num_scrambled_causal=4&num_scrambled_schematic=4&participantId=67C755B1DA5740C58756E5FD16792FB3&assignmentId=5aa12418-5f0a-4cb7-a915-f40ecc7f3625&projectId=5e631737-0fa4-44a6-b227-7ba1d7345015","67C755B1DA5740C58756E5FD16792FB3-2025-05-27-18-18-45","","null","","[]","null","",""
"","","","","","image-button-response","18","131270","0.0-6.0-1.0-0.3","67C755B1DA5740C58756E5FD16792FB3","67C755B1DA5740C58756E5FD16792FB3","5aa12418-5f0a-4cb7-a915-f40ecc7f3625","5e631737-0fa4-44a6-b227-7ba1d7345015","{""num_scrambled_semantic"":""8"",""num_scrambled_causal"":""4"",""num_scrambled_schematic"":""4"",""participantId"":""67C755B1DA5740C58756E5FD16792FB3"",""assignmentId"":""5aa12418-5f0a-4cb7-a915-f40ecc7f3625"",""projectId"":""5e631737-0fa4-44a6-b227-7ba1d7345015""}","https://test12345.live/?num_scrambled_semantic=8&num_scrambled_causal=4&num_scrambled_schematic=4&participantId=67C755B1DA5740C58756E5FD16792FB3&assignmentId=5aa12418-5f0a-4cb7-a915-f40ecc7f3625&projectId=5e631737-0fa4-44a6-b227-7ba1d7345015","67C755B1DA5740C58756E5FD16792FB3-2025-05-27-18-18-45","","null","","images/instructions/movie_4.png","null","",""
"","","","","","image-button-response","19","131846","0.0-6.0-1.0-1.3","67C755B1DA5740C58756E5FD16792FB3","67C755B1DA5740C58756E5FD16792FB3","5aa12418-5f0a-4cb7-a915-f40ecc7f3625","5e631737-0fa4-44a6-b227-7ba1d7345015","{""num_scrambled_semantic"":""8"",""num_scrambled_causal"":""4"",""num_scrambled_schematic"":""4"",""participantId"":""67C755B1DA5740C58756E5FD16792FB3"",""assignmentId"":""5aa12418-5f0a-4cb7-a915-f40ecc7f3625"",""projectId"":""5e631737-0fa4-44a6-b227-7ba1d7345015""}","https://test12345.live/?num_scrambled_semantic=8&num_scrambled_causal=4&num_scrambled_schematic=4&participantId=67C755B1DA5740C58756E5FD16792FB3&assignmentId=5aa12418-5f0a-4cb7-a915-f40ecc7f3625&projectId=5e631737-0fa4-44a6-b227-7ba1d7345015","67C755B1DA5740C58756E5FD16792FB3-2025-05-27-18-18-45","","574","","images/instructions/movie_4.png","0","",""
"","","","","","image-button-response","20","133650","0.0-6.0-1.0-2.3","67C755B1DA5740C58756E5FD16792FB3","67C755B1DA5740C58756E5FD16792FB3","5aa12418-5f0a-4cb7-a915-f40ecc7f3625","5e631737-0fa4-44a6-b227-7ba1d7345015","{""num_scrambled_semantic"":""8"",""num_scrambled_causal"":""4"",""num_scrambled_schematic"":""4"",""participantId"":""67C755B1DA5740C58756E5FD16792FB3"",""assignmentId"":""5aa12418-5f0a-4cb7-a915-f40ecc7f3625"",""projectId"":""5e631737-0fa4-44a6-b227-7ba1d7345015""}","https://test12345.live/?num_scrambled_semantic=8&num_scrambled_causal=4&num_scrambled_schematic=4&participantId=67C755B1DA5740C58756E5FD16792FB3&assignmentId=5aa12418-5f0a-4cb7-a915-f40ecc7f3625&projectId=5e631737-0fa4-44a6-b227-7ba1d7345015","67C755B1DA5740C58756E5FD16792FB3-2025-05-27-18-18-45","","null","","[]","null","",""
"","","","","","instructions","21","140662","0.0-7.0","67C755B1DA5740C58756E5FD16792FB3","67C755B1DA5740C58756E5FD16792FB3","5aa12418-5f0a-4cb7-a915-f40ecc7f3625","5e631737-0fa4-44a6-b227-7ba1d7345015","{""num_scrambled_semantic"":""8"",""num_scrambled_causal"":""4"",""num_scrambled_schematic"":""4"",""participantId"":""67C755B1DA5740C58756E5FD16792FB3"",""assignmentId"":""5aa12418-5f0a-4cb7-a915-f40ecc7f3625"",""projectId"":""5e631737-0fa4-44a6-b227-7ba1d7345015""}","https://test12345.live/?num_scrambled_semantic=8&num_scrambled_causal=4&num_scrambled_schematic=4&participantId=67C755B1DA5740C58756E5FD16792FB3&assignmentId=5aa12418-5f0a-4cb7-a915-f40ecc7f3625&projectId=5e631737-0fa4-44a6-b227-7ba1d7345015","67C755B1DA5740C58756E5FD16792FB3-2025-05-27-18-18-45","[{""page_index"":0,""viewing_time"":6115},{""page_index"":1,""viewing_time"":896}]","7011","","","","",""
"","","","","","html-audio-response","22","157286","0.0-8.0","67C755B1DA5740C58756E5FD16792FB3","67C755B1DA5740C58756E5FD16792FB3","5aa12418-5f0a-4cb7-a915-f40ecc7f3625","5e631737-0fa4-44a6-b227-7ba1d7345015","{""num_scrambled_semantic"":""8"",""num_scrambled_causal"":""4"",""num_scrambled_schematic"":""4"",""participantId"":""67C755B1DA5740C58756E5FD16792FB3"",""assignmentId"":""5aa12418-5f0a-4cb7-a915-f40ecc7f3625"",""projectId"":""5e631737-0fa4-44a6-b227-7ba1d7345015""}","https://test12345.live/?num_scrambled_semantic=8&num_scrambled_causal=4&num_scrambled_schematic=4&participantId=67C755B1DA5740C58756E5FD16792FB3&assignmentId=5aa12418-5f0a-4cb7-a915-f40ecc7f3625&projectId=5e631737-0fa4-44a6-b227-7ba1d7345015","67C755B1DA5740C58756E5FD16792FB3-2025-05-27-18-18-45","","4391","","[""<span style=\""color: red; font-size: 24px\""> NOW RECORDING</span><p>Please say out loud all the images you saw in the exact order you saw them. Try to recall as many images as you can, but remember: getting the order right is more important than the number of images you recall.</p>""]","","2",""
"","","","","","instructions","23","158150","0.0-9.0","67C755B1DA5740C58756E5FD16792FB3","67C755B1DA5740C58756E5FD16792FB3","5aa12418-5f0a-4cb7-a915-f40ecc7f3625","5e631737-0fa4-44a6-b227-7ba1d7345015","{""num_scrambled_semantic"":""8"",""num_scrambled_causal"":""4"",""num_scrambled_schematic"":""4"",""participantId"":""67C755B1DA5740C58756E5FD16792FB3"",""assignmentId"":""5aa12418-5f0a-4cb7-a915-f40ecc7f3625"",""projectId"":""5e631737-0fa4-44a6-b227-7ba1d7345015""}","https://test12345.live/?num_scrambled_semantic=8&num_scrambled_causal=4&num_scrambled_schematic=4&participantId=67C755B1DA5740C58756E5FD16792FB3&assignmentId=5aa12418-5f0a-4cb7-a915-f40ecc7f3625&projectId=5e631737-0fa4-44a6-b227-7ba1d7345015","67C755B1DA5740C58756E5FD16792FB3-2025-05-27-18-18-45","[{""page_index"":0,""viewing_time"":860}]","860","","","","",""
"","","","","","image-button-response","24","164170","0.0-10.0-0.0","67C755B1DA5740C58756E5FD16792FB3","67C755B1DA5740C58756E5FD16792FB3","5aa12418-5f0a-4cb7-a915-f40ecc7f3625","5e631737-0fa4-44a6-b227-7ba1d7345015","{""num_scrambled_semantic"":""8"",""num_scrambled_causal"":""4"",""num_scrambled_schematic"":""4"",""participantId"":""67C755B1DA5740C58756E5FD16792FB3"",""assignmentId"":""5aa12418-5f0a-4cb7-a915-f40ecc7f3625"",""projectId"":""5e631737-0fa4-44a6-b227-7ba1d7345015""}","https://test12345.live/?num_scrambled_semantic=8&num_scrambled_causal=4&num_scrambled_schematic=4&participantId=67C755B1DA5740C58756E5FD16792FB3&assignmentId=5aa12418-5f0a-4cb7-a915-f40ecc7f3625&projectId=5e631737-0fa4-44a6-b227-7ba1d7345015","67C755B1DA5740C58756E5FD16792FB3-2025-05-27-18-18-45","","null","","images/semantic_sequence/market_semantic/market_semantic_0.png","null","",""
"","","","","","image-button-response","25","168690","0.0-10.0-1.0-0.0","67C755B1DA5740C58756E5FD16792FB3","67C755B1DA5740C58756E5FD16792FB3","5aa12418-5f0a-4cb7-a915-f40ecc7f3625","5e631737-0fa4-44a6-b227-7ba1d7345015","{""num_scrambled_semantic"":""8"",""num_scrambled_causal"":""4"",""num_scrambled_schematic"":""4"",""participantId"":""67C755B1DA5740C58756E5FD16792FB3"",""assignmentId"":""5aa12418-5f0a-4cb7-a915-f40ecc7f3625"",""projectId"":""5e631737-0fa4-44a6-b227-7ba1d7345015""}","https://test12345.live/?num_scrambled_semantic=8&num_scrambled_causal=4&num_scrambled_schematic=4&participantId=67C755B1DA5740C58756E5FD16792FB3&assignmentId=5aa12418-5f0a-4cb7-a915-f40ecc7f3625&projectId=5e631737-0fa4-44a6-b227-7ba1d7345015","67C755B1DA5740C58756E5FD16792FB3-2025-05-27-18-18-45","","null","","images/semantic_sequence/market_semantic/market_semantic_2.png","null","",""
"","","","","","image-button-response","26","169614","0.0-10.0-1.0-1.0","67C755B1DA5740C58756E5FD16792FB3","67C755B1DA5740C58756E5FD16792FB3","5aa12418-5f0a-4cb7-a915-f40ecc7f3625","5e631737-0fa4-44a6-b227-7ba1d7345015","{""num_scrambled_semantic"":""8"",""num_scrambled_causal"":""4"",""num_scrambled_schematic"":""4"",""participantId"":""67C755B1DA5740C58756E5FD16792FB3"",""assignmentId"":""5aa12418-5f0a-4cb7-a915-f40ecc7f3625"",""projectId"":""5e631737-0fa4-44a6-b227-7ba1d7345015""}","https://test12345.live/?num_scrambled_semantic=8&num_scrambled_causal=4&num_scrambled_schematic=4&participantId=67C755B1DA5740C58756E5FD16792FB3&assignmentId=5aa12418-5f0a-4cb7-a915-f40ecc7f3625&projectId=5e631737-0fa4-44a6-b227-7ba1d7345015","67C755B1DA5740C58756E5FD16792FB3-2025-05-27-18-18-45","","923","","images/semantic_sequence/market_semantic/market_semantic_2.png","1","",""
"","","","","","image-button-response","27","171418","0.0-10.0-1.0-2.0","67C755B1DA5740C58756E5FD16792FB3","67C755B1DA5740C58756E5FD16792FB3","5aa12418-5f0a-4cb7-a915-f40ecc7f3625","5e631737-0fa4-44a6-b227-7ba1d7345015","{""num_scrambled_semantic"":""8"",""num_scrambled_causal"":""4"",""num_scrambled_schematic"":""4"",""participantId"":""67C755B1DA5740C58756E5FD16792FB3"",""assignmentId"":""5aa12418-5f0a-4cb7-a915-f40ecc7f3625"",""projectId"":""5e631737-0fa4-44a6-b227-7ba1d7345015""}","https://test12345.live/?num_scrambled_semantic=8&num_scrambled_causal=4&num_scrambled_schematic=4&participantId=67C755B1DA5740C58756E5FD16792FB3&assignmentId=5aa12418-5f0a-4cb7-a915-f40ecc7f3625&projectId=5e631737-0fa4-44a6-b227-7ba1d7345015","67C755B1DA5740C58756E5FD16792FB3-2025-05-27-18-18-45","","null","","[]","null","",""
"","","","","","image-button-response","28","175930","0.0-10.0-1.0-0.1","67C755B1DA5740C58756E5FD16792FB3","67C755B1DA5740C58756E5FD16792FB3","5aa12418-5f0a-4cb7-a915-f40ecc7f3625","5e631737-0fa4-44a6-b227-7ba1d7345015","{""num_scrambled_semantic"":""8"",""num_scrambled_causal"":""4"",""num_scrambled_schematic"":""4"",""participantId"":""67C755B1DA5740C58756E5FD16792FB3"",""assignmentId"":""5aa12418-5f0a-4cb7-a915-f40ecc7f3625"",""projectId"":""5e631737-0fa4-44a6-b227-7ba1d7345015""}","https://test12345.live/?num_scrambled_semantic=8&num_scrambled_causal=4&num_scrambled_schematic=4&participantId=67C755B1DA5740C58756E5FD16792FB3&assignmentId=5aa12418-5f0a-4cb7-a915-f40ecc7f3625&projectId=5e631737-0fa4-44a6-b227-7ba1d7345015","67C755B1DA5740C58756E5FD16792FB3-2025-05-27-18-18-45","","null","","images/semantic_sequence/market_semantic/market_semantic_1.png","null","",""
"","","","","","image-button-response","29","176806","0.0-10.0-1.0-1.1","67C755B1DA5740C58756E5FD16792FB3","67C755B1DA5740C58756E5FD16792FB3","5aa12418-5f0a-4cb7-a915-f40ecc7f3625","5e631737-0fa4-44a6-b227-7ba1d7345015","{""num_scrambled_semantic"":""8"",""num_scrambled_causal"":""4"",""num_scrambled_schematic"":""4"",""participantId"":""67C755B1DA5740C58756E5FD16792FB3"",""assignmentId"":""5aa12418-5f0a-4cb7-a915-f40ecc7f3625"",""projectId"":""5e631737-0fa4-44a6-b227-7ba1d7345015""}","https://test12345.live/?num_scrambled_semantic=8&num_scrambled_causal=4&num_scrambled_schematic=4&participantId=67C755B1DA5740C58756E5FD16792FB3&assignmentId=5aa12418-5f0a-4cb7-a915-f40ecc7f3625&projectId=5e631737-0fa4-44a6-b227-7ba1d7345015","67C755B1DA5740C58756E5FD16792FB3-2025-05-27-18-18-45","","874","","images/semantic_sequence/market_semantic/market_semantic_1.png","1","",""
"","","","","","image-button-response","30","178620","0.0-10.0-1.0-2.1","67C755B1DA5740C58756E5FD16792FB3","67C755B1DA5740C58756E5FD16792FB3","5aa12418-5f0a-4cb7-a915-f40ecc7f3625","5e631737-0fa4-44a6-b227-7ba1d7345015","{""num_scrambled_semantic"":""8"",""num_scrambled_causal"":""4"",""num_scrambled_schematic"":""4"",""participantId"":""67C755B1DA5740C58756E5FD16792FB3"",""assignmentId"":""5aa12418-5f0a-4cb7-a915-f40ecc7f3625"",""projectId"":""5e631737-0fa4-44a6-b227-7ba1d7345015""}","https://test12345.live/?num_scrambled_semantic=8&num_scrambled_causal=4&num_scrambled_schematic=4&participantId=67C755B1DA5740C58756E5FD16792FB3&assignmentId=5aa12418-5f0a-4cb7-a915-f40ecc7f3625&projectId=5e631737-0fa4-44a6-b227-7ba1d7345015","67C755B1DA5740C58756E5FD16792FB3-2025-05-27-18-18-45","","null","","[]","null","",""
"","","","","","image-button-response","31","183140","0.0-10.0-1.0-0.2","67C755B1DA5740C58756E5FD16792FB3","67C755B1DA5740C58756E5FD16792FB3","5aa12418-5f0a-4cb7-a915-f40ecc7f3625","5e631737-0fa4-44a6-b227-7ba1d7345015","{""num_scrambled_semantic"":""8"",""num_scrambled_causal"":""4"",""num_scrambled_schematic"":""4"",""participantId"":""67C755B1DA5740C58756E5FD16792FB3"",""assignmentId"":""5aa12418-5f0a-4cb7-a915-f40ecc7f3625"",""projectId"":""5e631737-0fa4-44a6-b227-7ba1d7345015""}","https://test12345.live/?num_scrambled_semantic=8&num_scrambled_causal=4&num_scrambled_schematic=4&participantId=67C755B1DA5740C58756E5FD16792FB3&assignmentId=5aa12418-5f0a-4cb7-a915-f40ecc7f3625&projectId=5e631737-0fa4-44a6-b227-7ba1d7345015","67C755B1DA5740C58756E5FD16792FB3-2025-05-27-18-18-45","","null","","images/semantic_sequence/market_semantic/market_semantic_ten.png","null","",""
"","","","","","image-button-response","32","184270","0.0-10.0-1.0-1.2","67C755B1DA5740C58756E5FD16792FB3","67C755B1DA5740C58756E5FD16792FB3","5aa12418-5f0a-4cb7-a915-f40ecc7f3625","5e631737-0fa4-44a6-b227-7ba1d7345015","{""num_scrambled_semantic"":""8"",""num_scrambled_causal"":""4"",""num_scrambled_schematic"":""4"",""participantId"":""67C755B1DA5740C58756E5FD16792FB3"",""assignmentId"":""5aa12418-5f0a-4cb7-a915-f40ecc7f3625"",""projectId"":""5e631737-0fa4-44a6-b227-7ba1d7345015""}","https://test12345.live/?num_scrambled_semantic=8&num_scrambled_causal=4&num_scrambled_schematic=4&participantId=67C755B1DA5740C58756E5FD16792FB3&assignmentId=5aa12418-5f0a-4cb7-a915-f40ecc7f3625&projectId=5e631737-0fa4-44a6-b227-7ba1d7345015","67C755B1DA5740C58756E5FD16792FB3-2025-05-27-18-18-45","","1129","","images/semantic_sequence/market_semantic/market_semantic_ten.png","1","",""
"","","","","","image-button-response","33","186080","0.0-10.0-1.0-2.2","67C755B1DA5740C58756E5FD16792FB3","67C755B1DA5740C58756E5FD16792FB3","5aa12418-5f0a-4cb7-a915-f40ecc7f3625","5e631737-0fa4-44a6-b227-7ba1d7345015","{""num_scrambled_semantic"":""8"",""num_scrambled_causal"":""4"",""num_scrambled_schematic"":""4"",""participantId"":""67C755B1DA5740C58756E5FD16792FB3"",""assignmentId"":""5aa12418-5f0a-4cb7-a915-f40ecc7f3625"",""projectId"":""5e631737-0fa4-44a6-b227-7ba1d7345015""}","https://test12345.live/?num_scrambled_semantic=8&num_scrambled_causal=4&num_scrambled_schematic=4&participantId=67C755B1DA5740C58756E5FD16792FB3&assignmentId=5aa12418-5f0a-4cb7-a915-f40ecc7f3625&projectId=5e631737-0fa4-44a6-b227-7ba1d7345015","67C755B1DA5740C58756E5FD16792FB3-2025-05-27-18-18-45","","null","","[]","null","",""
"","","","","","image-button-response","34","190600","0.0-10.0-1.0-0.3","67C755B1DA5740C58756E5FD16792FB3","67C755B1DA5740C58756E5FD16792FB3","5aa12418-5f0a-4cb7-a915-f40ecc7f3625","5e631737-0fa4-44a6-b227-7ba1d7345015","{""num_scrambled_semantic"":""8"",""num_scrambled_causal"":""4"",""num_scrambled_schematic"":""4"",""participantId"":""67C755B1DA5740C58756E5FD16792FB3"",""assignmentId"":""5aa12418-5f0a-4cb7-a915-f40ecc7f3625"",""projectId"":""5e631737-0fa4-44a6-b227-7ba1d7345015""}","https://test12345.live/?num_scrambled_semantic=8&num_scrambled_causal=4&num_scrambled_schematic=4&participantId=67C755B1DA5740C58756E5FD16792FB3&assignmentId=5aa12418-5f0a-4cb7-a915-f40ecc7f3625&projectId=5e631737-0fa4-44a6-b227-7ba1d7345015","67C755B1DA5740C58756E5FD16792FB3-2025-05-27-18-18-45","","null","","images/semantic_sequence/market_semantic/market_semantic_6.png","null","",""
"","","","","","image-button-response","35","193774","0.0-10.0-1.0-1.3","67C755B1DA5740C58756E5FD16792FB3","67C755B1DA5740C58756E5FD16792FB3","5aa12418-5f0a-4cb7-a915-f40ecc7f3625","5e631737-0fa4-44a6-b227-7ba1d7345015","{""num_scrambled_semantic"":""8"",""num_scrambled_causal"":""4"",""num_scrambled_schematic"":""4"",""participantId"":""67C755B1DA5740C58756E5FD16792FB3"",""assignmentId"":""5aa12418-5f0a-4cb7-a915-f40ecc7f3625"",""projectId"":""5e631737-0fa4-44a6-b227-7ba1d7345015""}","https://test12345.live/?num_scrambled_semantic=8&num_scrambled_causal=4&num_scrambled_schematic=4&participantId=67C755B1DA5740C58756E5FD16792FB3&assignmentId=5aa12418-5f0a-4cb7-a915-f40ecc7f3625&projectId=5e631737-0fa4-44a6-b227-7ba1d7345015","67C755B1DA5740C58756E5FD16792FB3-2025-05-27-18-18-45","","3172","","images/semantic_sequence/market_semantic/market_semantic_6.png","1","",""
"","","","","","image-button-response","36","195580","0.0-10.0-1.0-2.3","67C755B1DA5740C58756E5FD16792FB3","67C755B1DA5740C58756E5FD16792FB3","5aa12418-5f0a-4cb7-a915-f40ecc7f3625","5e631737-0fa4-44a6-b227-7ba1d7345015","{""num_scrambled_semantic"":""8"",""num_scrambled_causal"":""4"",""num_scrambled_schematic"":""4"",""participantId"":""67C755B1DA5740C58756E5FD16792FB3"",""assignmentId"":""5aa12418-5f0a-4cb7-a915-f40ecc7f3625"",""projectId"":""5e631737-0fa4-44a6-b227-7ba1d7345015""}","https://test12345.live/?num_scrambled_semantic=8&num_scrambled_causal=4&num_scrambled_schematic=4&participantId=67C755B1DA5740C58756E5FD16792FB3&assignmentId=5aa12418-5f0a-4cb7-a915-f40ecc7f3625&projectId=5e631737-0fa4-44a6-b227-7ba1d7345015","67C755B1DA5740C58756E5FD16792FB3-2025-05-27-18-18-45","","null","","[]","null","",""
"","","","","","image-button-response","37","200100","0.0-10.0-1.0-0.4","67C755B1DA5740C58756E5FD16792FB3","67C755B1DA5740C58756E5FD16792FB3","5aa12418-5f0a-4cb7-a915-f40ecc7f3625","5e631737-0fa4-44a6-b227-7ba1d7345015","{""num_scrambled_semantic"":""8"",""num_scrambled_causal"":""4"",""num_scrambled_schematic"":""4"",""participantId"":""67C755B1DA5740C58756E5FD16792FB3"",""assignmentId"":""5aa12418-5f0a-4cb7-a915-f40ecc7f3625"",""projectId"":""5e631737-0fa4-44a6-b227-7ba1d7345015""}","https://test12345.live/?num_scrambled_semantic=8&num_scrambled_causal=4&num_scrambled_schematic=4&participantId=67C755B1DA5740C58756E5FD16792FB3&assignmentId=5aa12418-5f0a-4cb7-a915-f40ecc7f3625&projectId=5e631737-0fa4-44a6-b227-7ba1d7345015","67C755B1DA5740C58756E5FD16792FB3-2025-05-27-18-18-45","","null","","images/semantic_sequence/market_semantic/market_semantic_9.png","null","",""
"","","","","","image-button-response","38","201982","0.0-10.0-1.0-1.4","67C755B1DA5740C58756E5FD16792FB3","67C755B1DA5740C58756E5FD16792FB3","5aa12418-5f0a-4cb7-a915-f40ecc7f3625","5e631737-0fa4-44a6-b227-7ba1d7345015","{""num_scrambled_semantic"":""8"",""num_scrambled_causal"":""4"",""num_scrambled_schematic"":""4"",""participantId"":""67C755B1DA5740C58756E5FD16792FB3"",""assignmentId"":""5aa12418-5f0a-4cb7-a915-f40ecc7f3625"",""projectId"":""5e631737-0fa4-44a6-b227-7ba1d7345015""}","https://test12345.live/?num_scrambled_semantic=8&num_scrambled_causal=4&num_scrambled_schematic=4&participantId=67C755B1DA5740C58756E5FD16792FB3&assignmentId=5aa12418-5f0a-4cb7-a915-f40ecc7f3625&projectId=5e631737-0fa4-44a6-b227-7ba1d7345015","67C755B1DA5740C58756E5FD16792FB3-2025-05-27-18-18-45","","1881","","images/semantic_sequence/market_semantic/market_semantic_9.png","0","",""
"","","","","","image-button-response","39","203800","0.0-10.0-1.0-2.4","67C755B1DA5740C58756E5FD16792FB3","67C755B1DA5740C58756E5FD16792FB3","5aa12418-5f0a-4cb7-a915-f40ecc7f3625","5e631737-0fa4-44a6-b227-7ba1d7345015","{""num_scrambled_semantic"":""8"",""num_scrambled_causal"":""4"",""num_scrambled_schematic"":""4"",""participantId"":""67C755B1DA5740C58756E5FD16792FB3"",""assignmentId"":""5aa12418-5f0a-4cb7-a915-f40ecc7f3625"",""projectId"":""5e631737-0fa4-44a6-b227-7ba1d7345015""}","https://test12345.live/?num_scrambled_semantic=8&num_scrambled_causal=4&num_scrambled_schematic=4&participantId=67C755B1DA5740C58756E5FD16792FB3&assignmentId=5aa12418-5f0a-4cb7-a915-f40ecc7f3625&projectId=5e631737-0fa4-44a6-b227-7ba1d7345015","67C755B1DA5740C58756E5FD16792FB3-2025-05-27-18-18-45","","null","","[]","null","",""
"","","","","","image-button-response","40","208310","0.0-10.0-1.0-0.5","67C755B1DA5740C58756E5FD16792FB3","67C755B1DA5740C58756E5FD16792FB3","5aa12418-5f0a-4cb7-a915-f40ecc7f3625","5e631737-0fa4-44a6-b227-7ba1d7345015","{""num_scrambled_semantic"":""8"",""num_scrambled_causal"":""4"",""num_scrambled_schematic"":""4"",""participantId"":""67C755B1DA5740C58756E5FD16792FB3"",""assignmentId"":""5aa12418-5f0a-4cb7-a915-f40ecc7f3625"",""projectId"":""5e631737-0fa4-44a6-b227-7ba1d7345015""}","https://test12345.live/?num_scrambled_semantic=8&num_scrambled_causal=4&num_scrambled_schematic=4&participantId=67C755B1DA5740C58756E5FD16792FB3&assignmentId=5aa12418-5f0a-4cb7-a915-f40ecc7f3625&projectId=5e631737-0fa4-44a6-b227-7ba1d7345015","67C755B1DA5740C58756E5FD16792FB3-2025-05-27-18-18-45","","null","","images/semantic_sequence/market_semantic/market_semantic_8.png","null","",""
"","","","","","image-button-response","41","212214","0.0-10.0-1.0-1.5","67C755B1DA5740C58756E5FD16792FB3","67C755B1DA5740C58756E5FD16792FB3","5aa12418-5f0a-4cb7-a915-f40ecc7f3625","5e631737-0fa4-44a6-b227-7ba1d7345015","{""num_scrambled_semantic"":""8"",""num_scrambled_causal"":""4"",""num_scrambled_schematic"":""4"",""participantId"":""67C755B1DA5740C58756E5FD16792FB3"",""assignmentId"":""5aa12418-5f0a-4cb7-a915-f40ecc7f3625"",""projectId"":""5e631737-0fa4-44a6-b227-7ba1d7345015""}","https://test12345.live/?num_scrambled_semantic=8&num_scrambled_causal=4&num_scrambled_schematic=4&participantId=67C755B1DA5740C58756E5FD16792FB3&assignmentId=5aa12418-5f0a-4cb7-a915-f40ecc7f3625&projectId=5e631737-0fa4-44a6-b227-7ba1d7345015","67C755B1DA5740C58756E5FD16792FB3-2025-05-27-18-18-45","","3902","","images/semantic_sequence/market_semantic/market_semantic_8.png","1","",""
"","","","","","image-button-response","42","214020","0.0-10.0-1.0-2.5","67C755B1DA5740C58756E5FD16792FB3","67C755B1DA5740C58756E5FD16792FB3","5aa12418-5f0a-4cb7-a915-f40ecc7f3625","5e631737-0fa4-44a6-b227-7ba1d7345015","{""num_scrambled_semantic"":""8"",""num_scrambled_causal"":""4"",""num_scrambled_schematic"":""4"",""participantId"":""67C755B1DA5740C58756E5FD16792FB3"",""assignmentId"":""5aa12418-5f0a-4cb7-a915-f40ecc7f3625"",""projectId"":""5e631737-0fa4-44a6-b227-7ba1d7345015""}","https://test12345.live/?num_scrambled_semantic=8&num_scrambled_causal=4&num_scrambled_schematic=4&participantId=67C755B1DA5740C58756E5FD16792FB3&assignmentId=5aa12418-5f0a-4cb7-a915-f40ecc7f3625&projectId=5e631737-0fa4-44a6-b227-7ba1d7345015","67C755B1DA5740C58756E5FD16792FB3-2025-05-27-18-18-45","","null","","[]","null","",""
"","","","","","image-button-response","43","218526","0.0-10.0-1.0-0.6","67C755B1DA5740C58756E5FD16792FB3","67C755B1DA5740C58756E5FD16792FB3","5aa12418-5f0a-4cb7-a915-f40ecc7f3625","5e631737-0fa4-44a6-b227-7ba1d7345015","{""num_scrambled_semantic"":""8"",""num_scrambled_causal"":""4"",""num_scrambled_schematic"":""4"",""participantId"":""67C755B1DA5740C58756E5FD16792FB3"",""assignmentId"":""5aa12418-5f0a-4cb7-a915-f40ecc7f3625"",""projectId"":""5e631737-0fa4-44a6-b227-7ba1d7345015""}","https://test12345.live/?num_scrambled_semantic=8&num_scrambled_causal=4&num_scrambled_schematic=4&participantId=67C755B1DA5740C58756E5FD16792FB3&assignmentId=5aa12418-5f0a-4cb7-a915-f40ecc7f3625&projectId=5e631737-0fa4-44a6-b227-7ba1d7345015","67C755B1DA5740C58756E5FD16792FB3-2025-05-27-18-18-45","","null","","images/semantic_sequence/market_semantic/market_semantic_5.png","null","",""
"","","","","","image-button-response","44","219678","0.0-10.0-1.0-1.6","67C755B1DA5740C58756E5FD16792FB3","67C755B1DA5740C58756E5FD16792FB3","5aa12418-5f0a-4cb7-a915-f40ecc7f3625","5e631737-0fa4-44a6-b227-7ba1d7345015","{""num_scrambled_semantic"":""8"",""num_scrambled_causal"":""4"",""num_scrambled_schematic"":""4"",""participantId"":""67C755B1DA5740C58756E5FD16792FB3"",""assignmentId"":""5aa12418-5f0a-4cb7-a915-f40ecc7f3625"",""projectId"":""5e631737-0fa4-44a6-b227-7ba1d7345015""}","https://test12345.live/?num_scrambled_semantic=8&num_scrambled_causal=4&num_scrambled_schematic=4&participantId=67C755B1DA5740C58756E5FD16792FB3&assignmentId=5aa12418-5f0a-4cb7-a915-f40ecc7f3625&projectId=5e631737-0fa4-44a6-b227-7ba1d7345015","67C755B1DA5740C58756E5FD16792FB3-2025-05-27-18-18-45","","1150","","images/semantic_sequence/market_semantic/market_semantic_5.png","1","",""
"","","","","","image-button-response","45","221480","0.0-10.0-1.0-2.6","67C755B1DA5740C58756E5FD16792FB3","67C755B1DA5740C58756E5FD16792FB3","5aa12418-5f0a-4cb7-a915-f40ecc7f3625","5e631737-0fa4-44a6-b227-7ba1d7345015","{""num_scrambled_semantic"":""8"",""num_scrambled_causal"":""4"",""num_scrambled_schematic"":""4"",""participantId"":""67C755B1DA5740C58756E5FD16792FB3"",""assignmentId"":""5aa12418-5f0a-4cb7-a915-f40ecc7f3625"",""projectId"":""5e631737-0fa4-44a6-b227-7ba1d7345015""}","https://test12345.live/?num_scrambled_semantic=8&num_scrambled_causal=4&num_scrambled_schematic=4&participantId=67C755B1DA5740C58756E5FD16792FB3&assignmentId=5aa12418-5f0a-4cb7-a915-f40ecc7f3625&projectId=5e631737-0fa4-44a6-b227-7ba1d7345015","67C755B1DA5740C58756E5FD16792FB3-2025-05-27-18-18-45","","null","","[]","null","",""
"","","","","","image-button-response","46","226000","0.0-10.0-1.0-0.7","67C755B1DA5740C58756E5FD16792FB3","67C755B1DA5740C58756E5FD16792FB3","5aa12418-5f0a-4cb7-a915-f40ecc7f3625","5e631737-0fa4-44a6-b227-7ba1d7345015","{""num_scrambled_semantic"":""8"",""num_scrambled_causal"":""4"",""num_scrambled_schematic"":""4"",""participantId"":""67C755B1DA5740C58756E5FD16792FB3"",""assignmentId"":""5aa12418-5f0a-4cb7-a915-f40ecc7f3625"",""projectId"":""5e631737-0fa4-44a6-b227-7ba1d7345015""}","https://test12345.live/?num_scrambled_semantic=8&num_scrambled_causal=4&num_scrambled_schematic=4&participantId=67C755B1DA5740C58756E5FD16792FB3&assignmentId=5aa12418-5f0a-4cb7-a915-f40ecc7f3625&projectId=5e631737-0fa4-44a6-b227-7ba1d7345015","67C755B1DA5740C58756E5FD16792FB3-2025-05-27-18-18-45","","null","","images/semantic_sequence/market_semantic/market_semantic_4.png","null","",""
"","","","","","image-button-response","47","229094","0.0-10.0-1.0-1.7","67C755B1DA5740C58756E5FD16792FB3","67C755B1DA5740C58756E5FD16792FB3","5aa12418-5f0a-4cb7-a915-f40ecc7f3625","5e631737-0fa4-44a6-b227-7ba1d7345015","{""num_scrambled_semantic"":""8"",""num_scrambled_causal"":""4"",""num_scrambled_schematic"":""4"",""participantId"":""67C755B1DA5740C58756E5FD16792FB3"",""assignmentId"":""5aa12418-5f0a-4cb7-a915-f40ecc7f3625"",""projectId"":""5e631737-0fa4-44a6-b227-7ba1d7345015""}","https://test12345.live/?num_scrambled_semantic=8&num_scrambled_causal=4&num_scrambled_schematic=4&participantId=67C755B1DA5740C58756E5FD16792FB3&assignmentId=5aa12418-5f0a-4cb7-a915-f40ecc7f3625&projectId=5e631737-0fa4-44a6-b227-7ba1d7345015","67C755B1DA5740C58756E5FD16792FB3-2025-05-27-18-18-45","","3093","","images/semantic_sequence/market_semantic/market_semantic_4.png","0","",""
"","","","","","image-button-response","48","230900","0.0-10.0-1.0-2.7","67C755B1DA5740C58756E5FD16792FB3","67C755B1DA5740C58756E5FD16792FB3","5aa12418-5f0a-4cb7-a915-f40ecc7f3625","5e631737-0fa4-44a6-b227-7ba1d7345015","{""num_scrambled_semantic"":""8"",""num_scrambled_causal"":""4"",""num_scrambled_schematic"":""4"",""participantId"":""67C755B1DA5740C58756E5FD16792FB3"",""assignmentId"":""5aa12418-5f0a-4cb7-a915-f40ecc7f3625"",""projectId"":""5e631737-0fa4-44a6-b227-7ba1d7345015""}","https://test12345.live/?num_scrambled_semantic=8&num_scrambled_causal=4&num_scrambled_schematic=4&participantId=67C755B1DA5740C58756E5FD16792FB3&assignmentId=5aa12418-5f0a-4cb7-a915-f40ecc7f3625&projectId=5e631737-0fa4-44a6-b227-7ba1d7345015","67C755B1DA5740C58756E5FD16792FB3-2025-05-27-18-18-45","","null","","[]","null","",""
"","","","","","image-button-response","49","235420","0.0-10.0-1.0-0.8","67C755B1DA5740C58756E5FD16792FB3","67C755B1DA5740C58756E5FD16792FB3","5aa12418-5f0a-4cb7-a915-f40ecc7f3625","5e631737-0fa4-44a6-b227-7ba1d7345015","{""num_scrambled_semantic"":""8"",""num_scrambled_causal"":""4"",""num_scrambled_schematic"":""4"",""participantId"":""67C755B1DA5740C58756E5FD16792FB3"",""assignmentId"":""5aa12418-5f0a-4cb7-a915-f40ecc7f3625"",""projectId"":""5e631737-0fa4-44a6-b227-7ba1d7345015""}","https://test12345.live/?num_scrambled_semantic=8&num_scrambled_causal=4&num_scrambled_schematic=4&participantId=67C755B1DA5740C58756E5FD16792FB3&assignmentId=5aa12418-5f0a-4cb7-a915-f40ecc7f3625&projectId=5e631737-0fa4-44a6-b227-7ba1d7345015","67C755B1DA5740C58756E5FD16792FB3-2025-05-27-18-18-45","","null","","images/semantic_sequence/market_semantic/market_semantic_3.png","null","",""
"","","","","","image-button-response","50","237926","0.0-10.0-1.0-1.8","67C755B1DA5740C58756E5FD16792FB3","67C755B1DA5740C58756E5FD16792FB3","5aa12418-5f0a-4cb7-a915-f40ecc7f3625","5e631737-0fa4-44a6-b227-7ba1d7345015","{""num_scrambled_semantic"":""8"",""num_scrambled_causal"":""4"",""num_scrambled_schematic"":""4"",""participantId"":""67C755B1DA5740C58756E5FD16792FB3"",""assignmentId"":""5aa12418-5f0a-4cb7-a915-f40ecc7f3625"",""projectId"":""5e631737-0fa4-44a6-b227-7ba1d7345015""}","https://test12345.live/?num_scrambled_semantic=8&num_scrambled_causal=4&num_scrambled_schematic=4&participantId=67C755B1DA5740C58756E5FD16792FB3&assignmentId=5aa12418-5f0a-4cb7-a915-f40ecc7f3625&projectId=5e631737-0fa4-44a6-b227-7ba1d7345015","67C755B1DA5740C58756E5FD16792FB3-2025-05-27-18-18-45","","2505","","images/semantic_sequence/market_semantic/market_semantic_3.png","1","",""
"","","","","","image-button-response","51","239730","0.0-10.0-1.0-2.8","67C755B1DA5740C58756E5FD16792FB3","67C755B1DA5740C58756E5FD16792FB3","5aa12418-5f0a-4cb7-a915-f40ecc7f3625","5e631737-0fa4-44a6-b227-7ba1d7345015","{""num_scrambled_semantic"":""8"",""num_scrambled_causal"":""4"",""num_scrambled_schematic"":""4"",""participantId"":""67C755B1DA5740C58756E5FD16792FB3"",""assignmentId"":""5aa12418-5f0a-4cb7-a915-f40ecc7f3625"",""projectId"":""5e631737-0fa4-44a6-b227-7ba1d7345015""}","https://test12345.live/?num_scrambled_semantic=8&num_scrambled_causal=4&num_scrambled_schematic=4&participantId=67C755B1DA5740C58756E5FD16792FB3&assignmentId=5aa12418-5f0a-4cb7-a915-f40ecc7f3625&projectId=5e631737-0fa4-44a6-b227-7ba1d7345015","67C755B1DA5740C58756E5FD16792FB3-2025-05-27-18-18-45","","null","","[]","null","",""
"","","","","","image-button-response","52","244250","0.0-10.0-1.0-0.9","67C755B1DA5740C58756E5FD16792FB3","67C755B1DA5740C58756E5FD16792FB3","5aa12418-5f0a-4cb7-a915-f40ecc7f3625","5e631737-0fa4-44a6-b227-7ba1d7345015","{""num_scrambled_semantic"":""8"",""num_scrambled_causal"":""4"",""num_scrambled_schematic"":""4"",""participantId"":""67C755B1DA5740C58756E5FD16792FB3"",""assignmentId"":""5aa12418-5f0a-4cb7-a915-f40ecc7f3625"",""projectId"":""5e631737-0fa4-44a6-b227-7ba1d7345015""}","https://test12345.live/?num_scrambled_semantic=8&num_scrambled_causal=4&num_scrambled_schematic=4&participantId=67C755B1DA5740C58756E5FD16792FB3&assignmentId=5aa12418-5f0a-4cb7-a915-f40ecc7f3625&projectId=5e631737-0fa4-44a6-b227-7ba1d7345015","67C755B1DA5740C58756E5FD16792FB3-2025-05-27-18-18-45","","null","","images/semantic_sequence/market_semantic/market_semantic_7.png","null","",""
"","","","","","image-button-response","53","245390","0.0-10.0-1.0-1.9","67C755B1DA5740C58756E5FD16792FB3","67C755B1DA5740C58756E5FD16792FB3","5aa12418-5f0a-4cb7-a915-f40ecc7f3625","5e631737-0fa4-44a6-b227-7ba1d7345015","{""num_scrambled_semantic"":""8"",""num_scrambled_causal"":""4"",""num_scrambled_schematic"":""4"",""participantId"":""67C755B1DA5740C58756E5FD16792FB3"",""assignmentId"":""5aa12418-5f0a-4cb7-a915-f40ecc7f3625"",""projectId"":""5e631737-0fa4-44a6-b227-7ba1d7345015""}","https://test12345.live/?num_scrambled_semantic=8&num_scrambled_causal=4&num_scrambled_schematic=4&participantId=67C755B1DA5740C58756E5FD16792FB3&assignmentId=5aa12418-5f0a-4cb7-a915-f40ecc7f3625&projectId=5e631737-0fa4-44a6-b227-7ba1d7345015","67C755B1DA5740C58756E5FD16792FB3-2025-05-27-18-18-45","","1138","","images/semantic_sequence/market_semantic/market_semantic_7.png","0","",""
"","","","","","image-button-response","54","247191","0.0-10.0-1.0-2.9","67C755B1DA5740C58756E5FD16792FB3","67C755B1DA5740C58756E5FD16792FB3","5aa12418-5f0a-4cb7-a915-f40ecc7f3625","5e631737-0fa4-44a6-b227-7ba1d7345015","{""num_scrambled_semantic"":""8"",""num_scrambled_causal"":""4"",""num_scrambled_schematic"":""4"",""participantId"":""67C755B1DA5740C58756E5FD16792FB3"",""assignmentId"":""5aa12418-5f0a-4cb7-a915-f40ecc7f3625"",""projectId"":""5e631737-0fa4-44a6-b227-7ba1d7345015""}","https://test12345.live/?num_scrambled_semantic=8&num_scrambled_causal=4&num_scrambled_schematic=4&participantId=67C755B1DA5740C58756E5FD16792FB3&assignmentId=5aa12418-5f0a-4cb7-a915-f40ecc7f3625&projectId=5e631737-0fa4-44a6-b227-7ba1d7345015","67C755B1DA5740C58756E5FD16792FB3-2025-05-27-18-18-45","","null","","[]","null","",""
"","","","","","html-audio-response","55","277238","0.0-11.0","67C755B1DA5740C58756E5FD16792FB3","67C755B1DA5740C58756E5FD16792FB3","5aa12418-5f0a-4cb7-a915-f40ecc7f3625","5e631737-0fa4-44a6-b227-7ba1d7345015","{""num_scrambled_semantic"":""8"",""num_scrambled_causal"":""4"",""num_scrambled_schematic"":""4"",""participantId"":""67C755B1DA5740C58756E5FD16792FB3"",""assignmentId"":""5aa12418-5f0a-4cb7-a915-f40ecc7f3625"",""projectId"":""5e631737-0fa4-44a6-b227-7ba1d7345015""}","https://test12345.live/?num_scrambled_semantic=8&num_scrambled_causal=4&num_scrambled_schematic=4&participantId=67C755B1DA5740C58756E5FD16792FB3&assignmentId=5aa12418-5f0a-4cb7-a915-f40ecc7f3625&projectId=5e631737-0fa4-44a6-b227-7ba1d7345015","67C755B1DA5740C58756E5FD16792FB3-2025-05-27-18-18-45","","4361","","[""<span style=\""color: red; font-size: 24px\""> NOW RECORDING</span><p>Please say out loud all the images you saw, in the exact order you saw them. Try to recall as many images as you can, but remember: getting the order right is more important than the number of images you recall.</p>""]","","14","market_semantic"
"","","","","","image-button-response","56","283247","0.0-12.0-0.0","67C755B1DA5740C58756E5FD16792FB3","67C755B1DA5740C58756E5FD16792FB3","5aa12418-5f0a-4cb7-a915-f40ecc7f3625","5e631737-0fa4-44a6-b227-7ba1d7345015","{""num_scrambled_semantic"":""8"",""num_scrambled_causal"":""4"",""num_scrambled_schematic"":""4"",""participantId"":""67C755B1DA5740C58756E5FD16792FB3"",""assignmentId"":""5aa12418-5f0a-4cb7-a915-f40ecc7f3625"",""projectId"":""5e631737-0fa4-44a6-b227-7ba1d7345015""}","https://test12345.live/?num_scrambled_semantic=8&num_scrambled_causal=4&num_scrambled_schematic=4&participantId=67C755B1DA5740C58756E5FD16792FB3&assignmentId=5aa12418-5f0a-4cb7-a915-f40ecc7f3625&projectId=5e631737-0fa4-44a6-b227-7ba1d7345015","67C755B1DA5740C58756E5FD16792FB3-2025-05-27-18-18-45","","null","","images/semantic_sequence/self_care_activities_semantic/self_care_activities_semantic_0.png","null","",""
"","","","","","image-button-response","57","287760","0.0-12.0-1.0-0.0","67C755B1DA5740C58756E5FD16792FB3","67C755B1DA5740C58756E5FD16792FB3","5aa12418-5f0a-4cb7-a915-f40ecc7f3625","5e631737-0fa4-44a6-b227-7ba1d7345015","{""num_scrambled_semantic"":""8"",""num_scrambled_causal"":""4"",""num_scrambled_schematic"":""4"",""participantId"":""67C755B1DA5740C58756E5FD16792FB3"",""assignmentId"":""5aa12418-5f0a-4cb7-a915-f40ecc7f3625"",""projectId"":""5e631737-0fa4-44a6-b227-7ba1d7345015""}","https://test12345.live/?num_scrambled_semantic=8&num_scrambled_causal=4&num_scrambled_schematic=4&participantId=67C755B1DA5740C58756E5FD16792FB3&assignmentId=5aa12418-5f0a-4cb7-a915-f40ecc7f3625&projectId=5e631737-0fa4-44a6-b227-7ba1d7345015","67C755B1DA5740C58756E5FD16792FB3-2025-05-27-18-18-45","","null","","images/semantic_sequence/self_care_activities_semantic/self_care_activities_semantic_5.png","null","",""
"","","","","","image-button-response","58","290846","0.0-12.0-1.0-1.0","67C755B1DA5740C58756E5FD16792FB3","67C755B1DA5740C58756E5FD16792FB3","5aa12418-5f0a-4cb7-a915-f40ecc7f3625","5e631737-0fa4-44a6-b227-7ba1d7345015","{""num_scrambled_semantic"":""8"",""num_scrambled_causal"":""4"",""num_scrambled_schematic"":""4"",""participantId"":""67C755B1DA5740C58756E5FD16792FB3"",""assignmentId"":""5aa12418-5f0a-4cb7-a915-f40ecc7f3625"",""projectId"":""5e631737-0fa4-44a6-b227-7ba1d7345015""}","https://test12345.live/?num_scrambled_semantic=8&num_scrambled_causal=4&num_scrambled_schematic=4&participantId=67C755B1DA5740C58756E5FD16792FB3&assignmentId=5aa12418-5f0a-4cb7-a915-f40ecc7f3625&projectId=5e631737-0fa4-44a6-b227-7ba1d7345015","67C755B1DA5740C58756E5FD16792FB3-2025-05-27-18-18-45","","3084","","images/semantic_sequence/self_care_activities_semantic/self_care_activities_semantic_5.png","0","",""
"","","","","","image-button-response","59","292650","0.0-12.0-1.0-2.0","67C755B1DA5740C58756E5FD16792FB3","67C755B1DA5740C58756E5FD16792FB3","5aa12418-5f0a-4cb7-a915-f40ecc7f3625","5e631737-0fa4-44a6-b227-7ba1d7345015","{""num_scrambled_semantic"":""8"",""num_scrambled_causal"":""4"",""num_scrambled_schematic"":""4"",""participantId"":""67C755B1DA5740C58756E5FD16792FB3"",""assignmentId"":""5aa12418-5f0a-4cb7-a915-f40ecc7f3625"",""projectId"":""5e631737-0fa4-44a6-b227-7ba1d7345015""}","https://test12345.live/?num_scrambled_semantic=8&num_scrambled_causal=4&num_scrambled_schematic=4&participantId=67C755B1DA5740C58756E5FD16792FB3&assignmentId=5aa12418-5f0a-4cb7-a915-f40ecc7f3625&projectId=5e631737-0fa4-44a6-b227-7ba1d7345015","67C755B1DA5740C58756E5FD16792FB3-2025-05-27-18-18-45","","null","","[]","null","",""
"","","","","","image-button-response","60","297156","0.0-12.0-1.0-0.1","67C755B1DA5740C58756E5FD16792FB3","67C755B1DA5740C58756E5FD16792FB3","5aa12418-5f0a-4cb7-a915-f40ecc7f3625","5e631737-0fa4-44a6-b227-7ba1d7345015","{""num_scrambled_semantic"":""8"",""num_scrambled_causal"":""4"",""num_scrambled_schematic"":""4"",""participantId"":""67C755B1DA5740C58756E5FD16792FB3"",""assignmentId"":""5aa12418-5f0a-4cb7-a915-f40ecc7f3625"",""projectId"":""5e631737-0fa4-44a6-b227-7ba1d7345015""}","https://test12345.live/?num_scrambled_semantic=8&num_scrambled_causal=4&num_scrambled_schematic=4&participantId=67C755B1DA5740C58756E5FD16792FB3&assignmentId=5aa12418-5f0a-4cb7-a915-f40ecc7f3625&projectId=5e631737-0fa4-44a6-b227-7ba1d7345015","67C755B1DA5740C58756E5FD16792FB3-2025-05-27-18-18-45","","null","","images/semantic_sequence/self_care_activities_semantic/self_care_activities_semantic_9.png","null","",""
"","","","","","image-button-response","61","298446","0.0-12.0-1.0-1.1","67C755B1DA5740C58756E5FD16792FB3","67C755B1DA5740C58756E5FD16792FB3","5aa12418-5f0a-4cb7-a915-f40ecc7f3625","5e631737-0fa4-44a6-b227-7ba1d7345015","{""num_scrambled_semantic"":""8"",""num_scrambled_causal"":""4"",""num_scrambled_schematic"":""4"",""participantId"":""67C755B1DA5740C58756E5FD16792FB3"",""assignmentId"":""5aa12418-5f0a-4cb7-a915-f40ecc7f3625"",""projectId"":""5e631737-0fa4-44a6-b227-7ba1d7345015""}","https://test12345.live/?num_scrambled_semantic=8&num_scrambled_causal=4&num_scrambled_schematic=4&participantId=67C755B1DA5740C58756E5FD16792FB3&assignmentId=5aa12418-5f0a-4cb7-a915-f40ecc7f3625&projectId=5e631737-0fa4-44a6-b227-7ba1d7345015","67C755B1DA5740C58756E5FD16792FB3-2025-05-27-18-18-45","","1288","","images/semantic_sequence/self_care_activities_semantic/self_care_activities_semantic_9.png","0","",""
"","","","","","image-button-response","62","300250","0.0-12.0-1.0-2.1","67C755B1DA5740C58756E5FD16792FB3","67C755B1DA5740C58756E5FD16792FB3","5aa12418-5f0a-4cb7-a915-f40ecc7f3625","5e631737-0fa4-44a6-b227-7ba1d7345015","{""num_scrambled_semantic"":""8"",""num_scrambled_causal"":""4"",""num_scrambled_schematic"":""4"",""participantId"":""67C755B1DA5740C58756E5FD16792FB3"",""assignmentId"":""5aa12418-5f0a-4cb7-a915-f40ecc7f3625"",""projectId"":""5e631737-0fa4-44a6-b227-7ba1d7345015""}","https://test12345.live/?num_scrambled_semantic=8&num_scrambled_causal=4&num_scrambled_schematic=4&participantId=67C755B1DA5740C58756E5FD16792FB3&assignmentId=5aa12418-5f0a-4cb7-a915-f40ecc7f3625&projectId=5e631737-0fa4-44a6-b227-7ba1d7345015","67C755B1DA5740C58756E5FD16792FB3-2025-05-27-18-18-45","","null","","[]","null","",""
"","","","","","image-button-response","63","304765","0.0-12.0-1.0-0.2","67C755B1DA5740C58756E5FD16792FB3","67C755B1DA5740C58756E5FD16792FB3","5aa12418-5f0a-4cb7-a915-f40ecc7f3625","5e631737-0fa4-44a6-b227-7ba1d7345015","{""num_scrambled_semantic"":""8"",""num_scrambled_causal"":""4"",""num_scrambled_schematic"":""4"",""participantId"":""67C755B1DA5740C58756E5FD16792FB3"",""assignmentId"":""5aa12418-5f0a-4cb7-a915-f40ecc7f3625"",""projectId"":""5e631737-0fa4-44a6-b227-7ba1d7345015""}","https://test12345.live/?num_scrambled_semantic=8&num_scrambled_causal=4&num_scrambled_schematic=4&participantId=67C755B1DA5740C58756E5FD16792FB3&assignmentId=5aa12418-5f0a-4cb7-a915-f40ecc7f3625&projectId=5e631737-0fa4-44a6-b227-7ba1d7345015","67C755B1DA5740C58756E5FD16792FB3-2025-05-27-18-18-45","","null","","images/semantic_sequence/self_care_activities_semantic/self_care_activities_semantic_7.png","null","",""
"","","","","","image-button-response","64","307478","0.0-12.0-1.0-1.2","67C755B1DA5740C58756E5FD16792FB3","67C755B1DA5740C58756E5FD16792FB3","5aa12418-5f0a-4cb7-a915-f40ecc7f3625","5e631737-0fa4-44a6-b227-7ba1d7345015","{""num_scrambled_semantic"":""8"",""num_scrambled_causal"":""4"",""num_scrambled_schematic"":""4"",""participantId"":""67C755B1DA5740C58756E5FD16792FB3"",""assignmentId"":""5aa12418-5f0a-4cb7-a915-f40ecc7f3625"",""projectId"":""5e631737-0fa4-44a6-b227-7ba1d7345015""}","https://test12345.live/?num_scrambled_semantic=8&num_scrambled_causal=4&num_scrambled_schematic=4&participantId=67C755B1DA5740C58756E5FD16792FB3&assignmentId=5aa12418-5f0a-4cb7-a915-f40ecc7f3625&projectId=5e631737-0fa4-44a6-b227-7ba1d7345015","67C755B1DA5740C58756E5FD16792FB3-2025-05-27-18-18-45","","2711","","images/semantic_sequence/self_care_activities_semantic/self_care_activities_semantic_7.png","0","",""
"","","","","","image-button-response","65","309280","0.0-12.0-1.0-2.2","67C755B1DA5740C58756E5FD16792FB3","67C755B1DA5740C58756E5FD16792FB3","5aa12418-5f0a-4cb7-a915-f40ecc7f3625","5e631737-0fa4-44a6-b227-7ba1d7345015","{""num_scrambled_semantic"":""8"",""num_scrambled_causal"":""4"",""num_scrambled_schematic"":""4"",""participantId"":""67C755B1DA5740C58756E5FD16792FB3"",""assignmentId"":""5aa12418-5f0a-4cb7-a915-f40ecc7f3625"",""projectId"":""5e631737-0fa4-44a6-b227-7ba1d7345015""}","https://test12345.live/?num_scrambled_semantic=8&num_scrambled_causal=4&num_scrambled_schematic=4&participantId=67C755B1DA5740C58756E5FD16792FB3&assignmentId=5aa12418-5f0a-4cb7-a915-f40ecc7f3625&projectId=5e631737-0fa4-44a6-b227-7ba1d7345015","67C755B1DA5740C58756E5FD16792FB3-2025-05-27-18-18-45","","null","","[]","null","",""
"","","","","","image-button-response","66","313800","0.0-12.0-1.0-0.3","67C755B1DA5740C58756E5FD16792FB3","67C755B1DA5740C58756E5FD16792FB3","5aa12418-5f0a-4cb7-a915-f40ecc7f3625","5e631737-0fa4-44a6-b227-7ba1d7345015","{""num_scrambled_semantic"":""8"",""num_scrambled_causal"":""4"",""num_scrambled_schematic"":""4"",""participantId"":""67C755B1DA5740C58756E5FD16792FB3"",""assignmentId"":""5aa12418-5f0a-4cb7-a915-f40ecc7f3625"",""projectId"":""5e631737-0fa4-44a6-b227-7ba1d7345015""}","https://test12345.live/?num_scrambled_semantic=8&num_scrambled_causal=4&num_scrambled_schematic=4&participantId=67C755B1DA5740C58756E5FD16792FB3&assignmentId=5aa12418-5f0a-4cb7-a915-f40ecc7f3625&projectId=5e631737-0fa4-44a6-b227-7ba1d7345015","67C755B1DA5740C58756E5FD16792FB3-2025-05-27-18-18-45","","null","","images/semantic_sequence/self_care_activities_semantic/self_care_activities_semantic_8.png","null","",""
"","","","","","image-button-response","67","314294","0.0-12.0-1.0-1.3","67C755B1DA5740C58756E5FD16792FB3","67C755B1DA5740C58756E5FD16792FB3","5aa12418-5f0a-4cb7-a915-f40ecc7f3625","5e631737-0fa4-44a6-b227-7ba1d7345015","{""num_scrambled_semantic"":""8"",""num_scrambled_causal"":""4"",""num_scrambled_schematic"":""4"",""participantId"":""67C755B1DA5740C58756E5FD16792FB3"",""assignmentId"":""5aa12418-5f0a-4cb7-a915-f40ecc7f3625"",""projectId"":""5e631737-0fa4-44a6-b227-7ba1d7345015""}","https://test12345.live/?num_scrambled_semantic=8&num_scrambled_causal=4&num_scrambled_schematic=4&participantId=67C755B1DA5740C58756E5FD16792FB3&assignmentId=5aa12418-5f0a-4cb7-a915-f40ecc7f3625&projectId=5e631737-0fa4-44a6-b227-7ba1d7345015","67C755B1DA5740C58756E5FD16792FB3-2025-05-27-18-18-45","","492","","images/semantic_sequence/self_care_activities_semantic/self_care_activities_semantic_8.png","0","",""
"","","","","","image-button-response","68","316100","0.0-12.0-1.0-2.3","67C755B1DA5740C58756E5FD16792FB3","67C755B1DA5740C58756E5FD16792FB3","5aa12418-5f0a-4cb7-a915-f40ecc7f3625","5e631737-0fa4-44a6-b227-7ba1d7345015","{""num_scrambled_semantic"":""8"",""num_scrambled_causal"":""4"",""num_scrambled_schematic"":""4"",""participantId"":""67C755B1DA5740C58756E5FD16792FB3"",""assignmentId"":""5aa12418-5f0a-4cb7-a915-f40ecc7f3625"",""projectId"":""5e631737-0fa4-44a6-b227-7ba1d7345015""}","https://test12345.live/?num_scrambled_semantic=8&num_scrambled_causal=4&num_scrambled_schematic=4&participantId=67C755B1DA5740C58756E5FD16792FB3&assignmentId=5aa12418-5f0a-4cb7-a915-f40ecc7f3625&projectId=5e631737-0fa4-44a6-b227-7ba1d7345015","67C755B1DA5740C58756E5FD16792FB3-2025-05-27-18-18-45","","null","","[]","null","",""
"","","","","","image-button-response","69","320610","0.0-12.0-1.0-0.4","67C755B1DA5740C58756E5FD16792FB3","67C755B1DA5740C58756E5FD16792FB3","5aa12418-5f0a-4cb7-a915-f40ecc7f3625","5e631737-0fa4-44a6-b227-7ba1d7345015","{""num_scrambled_semantic"":""8"",""num_scrambled_causal"":""4"",""num_scrambled_schematic"":""4"",""participantId"":""67C755B1DA5740C58756E5FD16792FB3"",""assignmentId"":""5aa12418-5f0a-4cb7-a915-f40ecc7f3625"",""projectId"":""5e631737-0fa4-44a6-b227-7ba1d7345015""}","https://test12345.live/?num_scrambled_semantic=8&num_scrambled_causal=4&num_scrambled_schematic=4&participantId=67C755B1DA5740C58756E5FD16792FB3&assignmentId=5aa12418-5f0a-4cb7-a915-f40ecc7f3625&projectId=5e631737-0fa4-44a6-b227-7ba1d7345015","67C755B1DA5740C58756E5FD16792FB3-2025-05-27-18-18-45","","null","","images/semantic_sequence/self_care_activities_semantic/self_care_activities_semantic_4.png","null","",""
"","","","","","image-button-response","70","321102","0.0-12.0-1.0-1.4","67C755B1DA5740C58756E5FD16792FB3","67C755B1DA5740C58756E5FD16792FB3","5aa12418-5f0a-4cb7-a915-f40ecc7f3625","5e631737-0fa4-44a6-b227-7ba1d7345015","{""num_scrambled_semantic"":""8"",""num_scrambled_causal"":""4"",""num_scrambled_schematic"":""4"",""participantId"":""67C755B1DA5740C58756E5FD16792FB3"",""assignmentId"":""5aa12418-5f0a-4cb7-a915-f40ecc7f3625"",""projectId"":""5e631737-0fa4-44a6-b227-7ba1d7345015""}","https://test12345.live/?num_scrambled_semantic=8&num_scrambled_causal=4&num_scrambled_schematic=4&participantId=67C755B1DA5740C58756E5FD16792FB3&assignmentId=5aa12418-5f0a-4cb7-a915-f40ecc7f3625&projectId=5e631737-0fa4-44a6-b227-7ba1d7345015","67C755B1DA5740C58756E5FD16792FB3-2025-05-27-18-18-45","","491","","images/semantic_sequence/self_care_activities_semantic/self_care_activities_semantic_4.png","0","",""
"","","","","","image-button-response","71","322910","0.0-12.0-1.0-2.4","67C755B1DA5740C58756E5FD16792FB3","67C755B1DA5740C58756E5FD16792FB3","5aa12418-5f0a-4cb7-a915-f40ecc7f3625","5e631737-0fa4-44a6-b227-7ba1d7345015","{""num_scrambled_semantic"":""8"",""num_scrambled_causal"":""4"",""num_scrambled_schematic"":""4"",""participantId"":""67C755B1DA5740C58756E5FD16792FB3"",""assignmentId"":""5aa12418-5f0a-4cb7-a915-f40ecc7f3625"",""projectId"":""5e631737-0fa4-44a6-b227-7ba1d7345015""}","https://test12345.live/?num_scrambled_semantic=8&num_scrambled_causal=4&num_scrambled_schematic=4&participantId=67C755B1DA5740C58756E5FD16792FB3&assignmentId=5aa12418-5f0a-4cb7-a915-f40ecc7f3625&projectId=5e631737-0fa4-44a6-b227-7ba1d7345015","67C755B1DA5740C58756E5FD16792FB3-2025-05-27-18-18-45","","null","","[]","null","",""
"","","","","","image-button-response","72","327420","0.0-12.0-1.0-0.5","67C755B1DA5740C58756E5FD16792FB3","67C755B1DA5740C58756E5FD16792FB3","5aa12418-5f0a-4cb7-a915-f40ecc7f3625","5e631737-0fa4-44a6-b227-7ba1d7345015","{""num_scrambled_semantic"":""8"",""num_scrambled_causal"":""4"",""num_scrambled_schematic"":""4"",""participantId"":""67C755B1DA5740C58756E5FD16792FB3"",""assignmentId"":""5aa12418-5f0a-4cb7-a915-f40ecc7f3625"",""projectId"":""5e631737-0fa4-44a6-b227-7ba1d7345015""}","https://test12345.live/?num_scrambled_semantic=8&num_scrambled_causal=4&num_scrambled_schematic=4&participantId=67C755B1DA5740C58756E5FD16792FB3&assignmentId=5aa12418-5f0a-4cb7-a915-f40ecc7f3625&projectId=5e631737-0fa4-44a6-b227-7ba1d7345015","67C755B1DA5740C58756E5FD16792FB3-2025-05-27-18-18-45","","null","","images/semantic_sequence/self_care_activities_semantic/self_care_activities_semantic_1.png","null","",""
"","","","","","image-button-response","73","328830","0.0-12.0-1.0-1.5","67C755B1DA5740C58756E5FD16792FB3","67C755B1DA5740C58756E5FD16792FB3","5aa12418-5f0a-4cb7-a915-f40ecc7f3625","5e631737-0fa4-44a6-b227-7ba1d7345015","{""num_scrambled_semantic"":""8"",""num_scrambled_causal"":""4"",""num_scrambled_schematic"":""4"",""participantId"":""67C755B1DA5740C58756E5FD16792FB3"",""assignmentId"":""5aa12418-5f0a-4cb7-a915-f40ecc7f3625"",""projectId"":""5e631737-0fa4-44a6-b227-7ba1d7345015""}","https://test12345.live/?num_scrambled_semantic=8&num_scrambled_causal=4&num_scrambled_schematic=4&participantId=67C755B1DA5740C58756E5FD16792FB3&assignmentId=5aa12418-5f0a-4cb7-a915-f40ecc7f3625&projectId=5e631737-0fa4-44a6-b227-7ba1d7345015","67C755B1DA5740C58756E5FD16792FB3-2025-05-27-18-18-45","","1409","","images/semantic_sequence/self_care_activities_semantic/self_care_activities_semantic_1.png","0","",""
"","","","","","image-button-response","74","330650","0.0-12.0-1.0-2.5","67C755B1DA5740C58756E5FD16792FB3","67C755B1DA5740C58756E5FD16792FB3","5aa12418-5f0a-4cb7-a915-f40ecc7f3625","5e631737-0fa4-44a6-b227-7ba1d7345015","{""num_scrambled_semantic"":""8"",""num_scrambled_causal"":""4"",""num_scrambled_schematic"":""4"",""participantId"":""67C755B1DA5740C58756E5FD16792FB3"",""assignmentId"":""5aa12418-5f0a-4cb7-a915-f40ecc7f3625"",""projectId"":""5e631737-0fa4-44a6-b227-7ba1d7345015""}","https://test12345.live/?num_scrambled_semantic=8&num_scrambled_causal=4&num_scrambled_schematic=4&participantId=67C755B1DA5740C58756E5FD16792FB3&assignmentId=5aa12418-5f0a-4cb7-a915-f40ecc7f3625&projectId=5e631737-0fa4-44a6-b227-7ba1d7345015","67C755B1DA5740C58756E5FD16792FB3-2025-05-27-18-18-45","","null","","[]","null","",""
"","","","","","image-button-response","75","335160","0.0-12.0-1.0-0.6","67C755B1DA5740C58756E5FD16792FB3","67C755B1DA5740C58756E5FD16792FB3","5aa12418-5f0a-4cb7-a915-f40ecc7f3625","5e631737-0fa4-44a6-b227-7ba1d7345015","{""num_scrambled_semantic"":""8"",""num_scrambled_causal"":""4"",""num_scrambled_schematic"":""4"",""participantId"":""67C755B1DA5740C58756E5FD16792FB3"",""assignmentId"":""5aa12418-5f0a-4cb7-a915-f40ecc7f3625"",""projectId"":""5e631737-0fa4-44a6-b227-7ba1d7345015""}","https://test12345.live/?num_scrambled_semantic=8&num_scrambled_causal=4&num_scrambled_schematic=4&participantId=67C755B1DA5740C58756E5FD16792FB3&assignmentId=5aa12418-5f0a-4cb7-a915-f40ecc7f3625&projectId=5e631737-0fa4-44a6-b227-7ba1d7345015","67C755B1DA5740C58756E5FD16792FB3-2025-05-27-18-18-45","","null","","images/semantic_sequence/self_care_activities_semantic/self_care_activities_semantic_2.png","null","",""
"","","","","","image-button-response","76","336198","0.0-12.0-1.0-1.6","67C755B1DA5740C58756E5FD16792FB3","67C755B1DA5740C58756E5FD16792FB3","5aa12418-5f0a-4cb7-a915-f40ecc7f3625","5e631737-0fa4-44a6-b227-7ba1d7345015","{""num_scrambled_semantic"":""8"",""num_scrambled_causal"":""4"",""num_scrambled_schematic"":""4"",""participantId"":""67C755B1DA5740C58756E5FD16792FB3"",""assignmentId"":""5aa12418-5f0a-4cb7-a915-f40ecc7f3625"",""projectId"":""5e631737-0fa4-44a6-b227-7ba1d7345015""}","https://test12345.live/?num_scrambled_semantic=8&num_scrambled_causal=4&num_scrambled_schematic=4&participantId=67C755B1DA5740C58756E5FD16792FB3&assignmentId=5aa12418-5f0a-4cb7-a915-f40ecc7f3625&projectId=5e631737-0fa4-44a6-b227-7ba1d7345015","67C755B1DA5740C58756E5FD16792FB3-2025-05-27-18-18-45","","1036","","images/semantic_sequence/self_care_activities_semantic/self_care_activities_semantic_2.png","0","",""
"","","","","","image-button-response","77","338010","0.0-12.0-1.0-2.6","67C755B1DA5740C58756E5FD16792FB3","67C755B1DA5740C58756E5FD16792FB3","5aa12418-5f0a-4cb7-a915-f40ecc7f3625","5e631737-0fa4-44a6-b227-7ba1d7345015","{""num_scrambled_semantic"":""8"",""num_scrambled_causal"":""4"",""num_scrambled_schematic"":""4"",""participantId"":""67C755B1DA5740C58756E5FD16792FB3"",""assignmentId"":""5aa12418-5f0a-4cb7-a915-f40ecc7f3625"",""projectId"":""5e631737-0fa4-44a6-b227-7ba1d7345015""}","https://test12345.live/?num_scrambled_semantic=8&num_scrambled_causal=4&num_scrambled_schematic=4&participantId=67C755B1DA5740C58756E5FD16792FB3&assignmentId=5aa12418-5f0a-4cb7-a915-f40ecc7f3625&projectId=5e631737-0fa4-44a6-b227-7ba1d7345015","67C755B1DA5740C58756E5FD16792FB3-2025-05-27-18-18-45","","null","","[]","null","",""
"","","","","","image-button-response","78","342525","0.0-12.0-1.0-0.7","67C755B1DA5740C58756E5FD16792FB3","67C755B1DA5740C58756E5FD16792FB3","5aa12418-5f0a-4cb7-a915-f40ecc7f3625","5e631737-0fa4-44a6-b227-7ba1d7345015","{""num_scrambled_semantic"":""8"",""num_scrambled_causal"":""4"",""num_scrambled_schematic"":""4"",""participantId"":""67C755B1DA5740C58756E5FD16792FB3"",""assignmentId"":""5aa12418-5f0a-4cb7-a915-f40ecc7f3625"",""projectId"":""5e631737-0fa4-44a6-b227-7ba1d7345015""}","https://test12345.live/?num_scrambled_semantic=8&num_scrambled_causal=4&num_scrambled_schematic=4&participantId=67C755B1DA5740C58756E5FD16792FB3&assignmentId=5aa12418-5f0a-4cb7-a915-f40ecc7f3625&projectId=5e631737-0fa4-44a6-b227-7ba1d7345015","67C755B1DA5740C58756E5FD16792FB3-2025-05-27-18-18-45","","null","","images/semantic_sequence/self_care_activities_semantic/self_care_activities_semantic_6.png","null","",""
"","","","","","image-button-response","79","343238","0.0-12.0-1.0-1.7","67C755B1DA5740C58756E5FD16792FB3","67C755B1DA5740C58756E5FD16792FB3","5aa12418-5f0a-4cb7-a915-f40ecc7f3625","5e631737-0fa4-44a6-b227-7ba1d7345015","{""num_scrambled_semantic"":""8"",""num_scrambled_causal"":""4"",""num_scrambled_schematic"":""4"",""participantId"":""67C755B1DA5740C58756E5FD16792FB3"",""assignmentId"":""5aa12418-5f0a-4cb7-a915-f40ecc7f3625"",""projectId"":""5e631737-0fa4-44a6-b227-7ba1d7345015""}","https://test12345.live/?num_scrambled_semantic=8&num_scrambled_causal=4&num_scrambled_schematic=4&participantId=67C755B1DA5740C58756E5FD16792FB3&assignmentId=5aa12418-5f0a-4cb7-a915-f40ecc7f3625&projectId=5e631737-0fa4-44a6-b227-7ba1d7345015","67C755B1DA5740C58756E5FD16792FB3-2025-05-27-18-18-45","","711","","images/semantic_sequence/self_care_activities_semantic/self_care_activities_semantic_6.png","1","",""
"","","","","","image-button-response","80","345040","0.0-12.0-1.0-2.7","67C755B1DA5740C58756E5FD16792FB3","67C755B1DA5740C58756E5FD16792FB3","5aa12418-5f0a-4cb7-a915-f40ecc7f3625","5e631737-0fa4-44a6-b227-7ba1d7345015","{""num_scrambled_semantic"":""8"",""num_scrambled_causal"":""4"",""num_scrambled_schematic"":""4"",""participantId"":""67C755B1DA5740C58756E5FD16792FB3"",""assignmentId"":""5aa12418-5f0a-4cb7-a915-f40ecc7f3625"",""projectId"":""5e631737-0fa4-44a6-b227-7ba1d7345015""}","https://test12345.live/?num_scrambled_semantic=8&num_scrambled_causal=4&num_scrambled_schematic=4&participantId=67C755B1DA5740C58756E5FD16792FB3&assignmentId=5aa12418-5f0a-4cb7-a915-f40ecc7f3625&projectId=5e631737-0fa4-44a6-b227-7ba1d7345015","67C755B1DA5740C58756E5FD16792FB3-2025-05-27-18-18-45","","null","","[]","null","",""
"","","","","","image-button-response","81","349550","0.0-12.0-1.0-0.8","67C755B1DA5740C58756E5FD16792FB3","67C755B1DA5740C58756E5FD16792FB3","5aa12418-5f0a-4cb7-a915-f40ecc7f3625","5e631737-0fa4-44a6-b227-7ba1d7345015","{""num_scrambled_semantic"":""8"",""num_scrambled_causal"":""4"",""num_scrambled_schematic"":""4"",""participantId"":""67C755B1DA5740C58756E5FD16792FB3"",""assignmentId"":""5aa12418-5f0a-4cb7-a915-f40ecc7f3625"",""projectId"":""5e631737-0fa4-44a6-b227-7ba1d7345015""}","https://test12345.live/?num_scrambled_semantic=8&num_scrambled_causal=4&num_scrambled_schematic=4&participantId=67C755B1DA5740C58756E5FD16792FB3&assignmentId=5aa12418-5f0a-4cb7-a915-f40ecc7f3625&projectId=5e631737-0fa4-44a6-b227-7ba1d7345015","67C755B1DA5740C58756E5FD16792FB3-2025-05-27-18-18-45","","null","","images/semantic_sequence/self_care_activities_semantic/self_care_activities_semantic_ten.png","null","",""
"","","","","","image-button-response","82","350734","0.0-12.0-1.0-1.8","67C755B1DA5740C58756E5FD16792FB3","67C755B1DA5740C58756E5FD16792FB3","5aa12418-5f0a-4cb7-a915-f40ecc7f3625","5e631737-0fa4-44a6-b227-7ba1d7345015","{""num_scrambled_semantic"":""8"",""num_scrambled_causal"":""4"",""num_scrambled_schematic"":""4"",""participantId"":""67C755B1DA5740C58756E5FD16792FB3"",""assignmentId"":""5aa12418-5f0a-4cb7-a915-f40ecc7f3625"",""projectId"":""5e631737-0fa4-44a6-b227-7ba1d7345015""}","https://test12345.live/?num_scrambled_semantic=8&num_scrambled_causal=4&num_scrambled_schematic=4&participantId=67C755B1DA5740C58756E5FD16792FB3&assignmentId=5aa12418-5f0a-4cb7-a915-f40ecc7f3625&projectId=5e631737-0fa4-44a6-b227-7ba1d7345015","67C755B1DA5740C58756E5FD16792FB3-2025-05-27-18-18-45","","1183","","images/semantic_sequence/self_care_activities_semantic/self_care_activities_semantic_ten.png","0","",""
"","","","","","image-button-response","83","352550","0.0-12.0-1.0-2.8","67C755B1DA5740C58756E5FD16792FB3","67C755B1DA5740C58756E5FD16792FB3","5aa12418-5f0a-4cb7-a915-f40ecc7f3625","5e631737-0fa4-44a6-b227-7ba1d7345015","{""num_scrambled_semantic"":""8"",""num_scrambled_causal"":""4"",""num_scrambled_schematic"":""4"",""participantId"":""67C755B1DA5740C58756E5FD16792FB3"",""assignmentId"":""5aa12418-5f0a-4cb7-a915-f40ecc7f3625"",""projectId"":""5e631737-0fa4-44a6-b227-7ba1d7345015""}","https://test12345.live/?num_scrambled_semantic=8&num_scrambled_causal=4&num_scrambled_schematic=4&participantId=67C755B1DA5740C58756E5FD16792FB3&assignmentId=5aa12418-5f0a-4cb7-a915-f40ecc7f3625&projectId=5e631737-0fa4-44a6-b227-7ba1d7345015","67C755B1DA5740C58756E5FD16792FB3-2025-05-27-18-18-45","","null","","[]","null","",""
"","","","","","image-button-response","84","357070","0.0-12.0-1.0-0.9","67C755B1DA5740C58756E5FD16792FB3","67C755B1DA5740C58756E5FD16792FB3","5aa12418-5f0a-4cb7-a915-f40ecc7f3625","5e631737-0fa4-44a6-b227-7ba1d7345015","{""num_scrambled_semantic"":""8"",""num_scrambled_causal"":""4"",""num_scrambled_schematic"":""4"",""participantId"":""67C755B1DA5740C58756E5FD16792FB3"",""assignmentId"":""5aa12418-5f0a-4cb7-a915-f40ecc7f3625"",""projectId"":""5e631737-0fa4-44a6-b227-7ba1d7345015""}","https://test12345.live/?num_scrambled_semantic=8&num_scrambled_causal=4&num_scrambled_schematic=4&participantId=67C755B1DA5740C58756E5FD16792FB3&assignmentId=5aa12418-5f0a-4cb7-a915-f40ecc7f3625&projectId=5e631737-0fa4-44a6-b227-7ba1d7345015","67C755B1DA5740C58756E5FD16792FB3-2025-05-27-18-18-45","","null","","images/semantic_sequence/self_care_activities_semantic/self_care_activities_semantic_3.png","null","",""
"","","","","","image-button-response","85","357966","0.0-12.0-1.0-1.9","67C755B1DA5740C58756E5FD16792FB3","67C755B1DA5740C58756E5FD16792FB3","5aa12418-5f0a-4cb7-a915-f40ecc7f3625","5e631737-0fa4-44a6-b227-7ba1d7345015","{""num_scrambled_semantic"":""8"",""num_scrambled_causal"":""4"",""num_scrambled_schematic"":""4"",""participantId"":""67C755B1DA5740C58756E5FD16792FB3"",""assignmentId"":""5aa12418-5f0a-4cb7-a915-f40ecc7f3625"",""projectId"":""5e631737-0fa4-44a6-b227-7ba1d7345015""}","https://test12345.live/?num_scrambled_semantic=8&num_scrambled_causal=4&num_scrambled_schematic=4&participantId=67C755B1DA5740C58756E5FD16792FB3&assignmentId=5aa12418-5f0a-4cb7-a915-f40ecc7f3625&projectId=5e631737-0fa4-44a6-b227-7ba1d7345015","67C755B1DA5740C58756E5FD16792FB3-2025-05-27-18-18-45","","895","","images/semantic_sequence/self_care_activities_semantic/self_care_activities_semantic_3.png","0","",""
"","","","","","image-button-response","86","359767","0.0-12.0-1.0-2.9","67C755B1DA5740C58756E5FD16792FB3","67C755B1DA5740C58756E5FD16792FB3","5aa12418-5f0a-4cb7-a915-f40ecc7f3625","5e631737-0fa4-44a6-b227-7ba1d7345015","{""num_scrambled_semantic"":""8"",""num_scrambled_causal"":""4"",""num_scrambled_schematic"":""4"",""participantId"":""67C755B1DA5740C58756E5FD16792FB3"",""assignmentId"":""5aa12418-5f0a-4cb7-a915-f40ecc7f3625"",""projectId"":""5e631737-0fa4-44a6-b227-7ba1d7345015""}","https://test12345.live/?num_scrambled_semantic=8&num_scrambled_causal=4&num_scrambled_schematic=4&participantId=67C755B1DA5740C58756E5FD16792FB3&assignmentId=5aa12418-5f0a-4cb7-a915-f40ecc7f3625&projectId=5e631737-0fa4-44a6-b227-7ba1d7345015","67C755B1DA5740C58756E5FD16792FB3-2025-05-27-18-18-45","","null","","[]","null","",""
"","","","","","html-audio-response","87","382150","0.0-13.0","67C755B1DA5740C58756E5FD16792FB3","67C755B1DA5740C58756E5FD16792FB3","5aa12418-5f0a-4cb7-a915-f40ecc7f3625","5e631737-0fa4-44a6-b227-7ba1d7345015","{""num_scrambled_semantic"":""8"",""num_scrambled_causal"":""4"",""num_scrambled_schematic"":""4"",""participantId"":""67C755B1DA5740C58756E5FD16792FB3"",""assignmentId"":""5aa12418-5f0a-4cb7-a915-f40ecc7f3625"",""projectId"":""5e631737-0fa4-44a6-b227-7ba1d7345015""}","https://test12345.live/?num_scrambled_semantic=8&num_scrambled_causal=4&num_scrambled_schematic=4&participantId=67C755B1DA5740C58756E5FD16792FB3&assignmentId=5aa12418-5f0a-4cb7-a915-f40ecc7f3625&projectId=5e631737-0fa4-44a6-b227-7ba1d7345015","67C755B1DA5740C58756E5FD16792FB3-2025-05-27-18-18-45","","1808","","[""<span style=\""color: red; font-size: 24px\""> NOW RECORDING</span><p>Please say out loud all the images you saw, in the exact order you saw them. Try to recall as many images as you can, but remember: getting the order right is more important than the number of images you recall.</p>""]","","2","self_care_activities_semantic"
"","","","","","image-button-response","88","388170","0.0-14.0-0.0","67C755B1DA5740C58756E5FD16792FB3","67C755B1DA5740C58756E5FD16792FB3","5aa12418-5f0a-4cb7-a915-f40ecc7f3625","5e631737-0fa4-44a6-b227-7ba1d7345015","{""num_scrambled_semantic"":""8"",""num_scrambled_causal"":""4"",""num_scrambled_schematic"":""4"",""participantId"":""67C755B1DA5740C58756E5FD16792FB3"",""assignmentId"":""5aa12418-5f0a-4cb7-a915-f40ecc7f3625"",""projectId"":""5e631737-0fa4-44a6-b227-7ba1d7345015""}","https://test12345.live/?num_scrambled_semantic=8&num_scrambled_causal=4&num_scrambled_schematic=4&participantId=67C755B1DA5740C58756E5FD16792FB3&assignmentId=5aa12418-5f0a-4cb7-a915-f40ecc7f3625&projectId=5e631737-0fa4-44a6-b227-7ba1d7345015","67C755B1DA5740C58756E5FD16792FB3-2025-05-27-18-18-45","","null","","images/causal_sequence/the_performance_causal/the_performance_causal_0.png","null","",""
"","","","","","image-button-response","89","392680","0.0-14.0-1.0-0.0","67C755B1DA5740C58756E5FD16792FB3","67C755B1DA5740C58756E5FD16792FB3","5aa12418-5f0a-4cb7-a915-f40ecc7f3625","5e631737-0fa4-44a6-b227-7ba1d7345015","{""num_scrambled_semantic"":""8"",""num_scrambled_causal"":""4"",""num_scrambled_schematic"":""4"",""participantId"":""67C755B1DA5740C58756E5FD16792FB3"",""assignmentId"":""5aa12418-5f0a-4cb7-a915-f40ecc7f3625"",""projectId"":""5e631737-0fa4-44a6-b227-7ba1d7345015""}","https://test12345.live/?num_scrambled_semantic=8&num_scrambled_causal=4&num_scrambled_schematic=4&participantId=67C755B1DA5740C58756E5FD16792FB3&assignmentId=5aa12418-5f0a-4cb7-a915-f40ecc7f3625&projectId=5e631737-0fa4-44a6-b227-7ba1d7345015","67C755B1DA5740C58756E5FD16792FB3-2025-05-27-18-18-45","","null","","images/causal_sequence/the_performance_causal/the_performance_causal_7.png","null","",""
"","","","","","image-button-response","90","395854","0.0-14.0-1.0-1.0","67C755B1DA5740C58756E5FD16792FB3","67C755B1DA5740C58756E5FD16792FB3","5aa12418-5f0a-4cb7-a915-f40ecc7f3625","5e631737-0fa4-44a6-b227-7ba1d7345015","{""num_scrambled_semantic"":""8"",""num_scrambled_causal"":""4"",""num_scrambled_schematic"":""4"",""participantId"":""67C755B1DA5740C58756E5FD16792FB3"",""assignmentId"":""5aa12418-5f0a-4cb7-a915-f40ecc7f3625"",""projectId"":""5e631737-0fa4-44a6-b227-7ba1d7345015""}","https://test12345.live/?num_scrambled_semantic=8&num_scrambled_causal=4&num_scrambled_schematic=4&participantId=67C755B1DA5740C58756E5FD16792FB3&assignmentId=5aa12418-5f0a-4cb7-a915-f40ecc7f3625&projectId=5e631737-0fa4-44a6-b227-7ba1d7345015","67C755B1DA5740C58756E5FD16792FB3-2025-05-27-18-18-45","","3172","","images/causal_sequence/the_performance_causal/the_performance_causal_7.png","0","",""
"","","","","","image-button-response","91","397660","0.0-14.0-1.0-2.0","67C755B1DA5740C58756E5FD16792FB3","67C755B1DA5740C58756E5FD16792FB3","5aa12418-5f0a-4cb7-a915-f40ecc7f3625","5e631737-0fa4-44a6-b227-7ba1d7345015","{""num_scrambled_semantic"":""8"",""num_scrambled_causal"":""4"",""num_scrambled_schematic"":""4"",""participantId"":""67C755B1DA5740C58756E5FD16792FB3"",""assignmentId"":""5aa12418-5f0a-4cb7-a915-f40ecc7f3625"",""projectId"":""5e631737-0fa4-44a6-b227-7ba1d7345015""}","https://test12345.live/?num_scrambled_semantic=8&num_scrambled_causal=4&num_scrambled_schematic=4&participantId=67C755B1DA5740C58756E5FD16792FB3&assignmentId=5aa12418-5f0a-4cb7-a915-f40ecc7f3625&projectId=5e631737-0fa4-44a6-b227-7ba1d7345015","67C755B1DA5740C58756E5FD16792FB3-2025-05-27-18-18-45","","null","","[]","null","",""
"","","","","","image-button-response","92","402170","0.0-14.0-1.0-0.1","67C755B1DA5740C58756E5FD16792FB3","67C755B1DA5740C58756E5FD16792FB3","5aa12418-5f0a-4cb7-a915-f40ecc7f3625","5e631737-0fa4-44a6-b227-7ba1d7345015","{""num_scrambled_semantic"":""8"",""num_scrambled_causal"":""4"",""num_scrambled_schematic"":""4"",""participantId"":""67C755B1DA5740C58756E5FD16792FB3"",""assignmentId"":""5aa12418-5f0a-4cb7-a915-f40ecc7f3625"",""projectId"":""5e631737-0fa4-44a6-b227-7ba1d7345015""}","https://test12345.live/?num_scrambled_semantic=8&num_scrambled_causal=4&num_scrambled_schematic=4&participantId=67C755B1DA5740C58756E5FD16792FB3&assignmentId=5aa12418-5f0a-4cb7-a915-f40ecc7f3625&projectId=5e631737-0fa4-44a6-b227-7ba1d7345015","67C755B1DA5740C58756E5FD16792FB3-2025-05-27-18-18-45","","null","","images/causal_sequence/the_performance_causal/the_performance_causal_1.png","null","",""
"","","","","","image-button-response","93","404294","0.0-14.0-1.0-1.1","67C755B1DA5740C58756E5FD16792FB3","67C755B1DA5740C58756E5FD16792FB3","5aa12418-5f0a-4cb7-a915-f40ecc7f3625","5e631737-0fa4-44a6-b227-7ba1d7345015","{""num_scrambled_semantic"":""8"",""num_scrambled_causal"":""4"",""num_scrambled_schematic"":""4"",""participantId"":""67C755B1DA5740C58756E5FD16792FB3"",""assignmentId"":""5aa12418-5f0a-4cb7-a915-f40ecc7f3625"",""projectId"":""5e631737-0fa4-44a6-b227-7ba1d7345015""}","https://test12345.live/?num_scrambled_semantic=8&num_scrambled_causal=4&num_scrambled_schematic=4&participantId=67C755B1DA5740C58756E5FD16792FB3&assignmentId=5aa12418-5f0a-4cb7-a915-f40ecc7f3625&projectId=5e631737-0fa4-44a6-b227-7ba1d7345015","67C755B1DA5740C58756E5FD16792FB3-2025-05-27-18-18-45","","2123","","images/causal_sequence/the_performance_causal/the_performance_causal_1.png","0","",""
"","","","","","image-button-response","94","406100","0.0-14.0-1.0-2.1","67C755B1DA5740C58756E5FD16792FB3","67C755B1DA5740C58756E5FD16792FB3","5aa12418-5f0a-4cb7-a915-f40ecc7f3625","5e631737-0fa4-44a6-b227-7ba1d7345015","{""num_scrambled_semantic"":""8"",""num_scrambled_causal"":""4"",""num_scrambled_schematic"":""4"",""participantId"":""67C755B1DA5740C58756E5FD16792FB3"",""assignmentId"":""5aa12418-5f0a-4cb7-a915-f40ecc7f3625"",""projectId"":""5e631737-0fa4-44a6-b227-7ba1d7345015""}","https://test12345.live/?num_scrambled_semantic=8&num_scrambled_causal=4&num_scrambled_schematic=4&participantId=67C755B1DA5740C58756E5FD16792FB3&assignmentId=5aa12418-5f0a-4cb7-a915-f40ecc7f3625&projectId=5e631737-0fa4-44a6-b227-7ba1d7345015","67C755B1DA5740C58756E5FD16792FB3-2025-05-27-18-18-45","","null","","[]","null","",""
"","","","","","image-button-response","95","410610","0.0-14.0-1.0-0.2","67C755B1DA5740C58756E5FD16792FB3","67C755B1DA5740C58756E5FD16792FB3","5aa12418-5f0a-4cb7-a915-f40ecc7f3625","5e631737-0fa4-44a6-b227-7ba1d7345015","{""num_scrambled_semantic"":""8"",""num_scrambled_causal"":""4"",""num_scrambled_schematic"":""4"",""participantId"":""67C755B1DA5740C58756E5FD16792FB3"",""assignmentId"":""5aa12418-5f0a-4cb7-a915-f40ecc7f3625"",""projectId"":""5e631737-0fa4-44a6-b227-7ba1d7345015""}","https://test12345.live/?num_scrambled_semantic=8&num_scrambled_causal=4&num_scrambled_schematic=4&participantId=67C755B1DA5740C58756E5FD16792FB3&assignmentId=5aa12418-5f0a-4cb7-a915-f40ecc7f3625&projectId=5e631737-0fa4-44a6-b227-7ba1d7345015","67C755B1DA5740C58756E5FD16792FB3-2025-05-27-18-18-45","","null","","images/causal_sequence/the_performance_causal/the_performance_causal_5.png","null","",""
"","","","","","image-button-response","96","411110","0.0-14.0-1.0-1.2","67C755B1DA5740C58756E5FD16792FB3","67C755B1DA5740C58756E5FD16792FB3","5aa12418-5f0a-4cb7-a915-f40ecc7f3625","5e631737-0fa4-44a6-b227-7ba1d7345015","{""num_scrambled_semantic"":""8"",""num_scrambled_causal"":""4"",""num_scrambled_schematic"":""4"",""participantId"":""67C755B1DA5740C58756E5FD16792FB3"",""assignmentId"":""5aa12418-5f0a-4cb7-a915-f40ecc7f3625"",""projectId"":""5e631737-0fa4-44a6-b227-7ba1d7345015""}","https://test12345.live/?num_scrambled_semantic=8&num_scrambled_causal=4&num_scrambled_schematic=4&participantId=67C755B1DA5740C58756E5FD16792FB3&assignmentId=5aa12418-5f0a-4cb7-a915-f40ecc7f3625&projectId=5e631737-0fa4-44a6-b227-7ba1d7345015","67C755B1DA5740C58756E5FD16792FB3-2025-05-27-18-18-45","","498","","images/causal_sequence/the_performance_causal/the_performance_causal_5.png","0","",""
"","","","","","image-button-response","97","412920","0.0-14.0-1.0-2.2","67C755B1DA5740C58756E5FD16792FB3","67C755B1DA5740C58756E5FD16792FB3","5aa12418-5f0a-4cb7-a915-f40ecc7f3625","5e631737-0fa4-44a6-b227-7ba1d7345015","{""num_scrambled_semantic"":""8"",""num_scrambled_causal"":""4"",""num_scrambled_schematic"":""4"",""participantId"":""67C755B1DA5740C58756E5FD16792FB3"",""assignmentId"":""5aa12418-5f0a-4cb7-a915-f40ecc7f3625"",""projectId"":""5e631737-0fa4-44a6-b227-7ba1d7345015""}","https://test12345.live/?num_scrambled_semantic=8&num_scrambled_causal=4&num_scrambled_schematic=4&participantId=67C755B1DA5740C58756E5FD16792FB3&assignmentId=5aa12418-5f0a-4cb7-a915-f40ecc7f3625&projectId=5e631737-0fa4-44a6-b227-7ba1d7345015","67C755B1DA5740C58756E5FD16792FB3-2025-05-27-18-18-45","","null","","[]","null","",""
"","","","","","image-button-response","98","417430","0.0-14.0-1.0-0.3","67C755B1DA5740C58756E5FD16792FB3","67C755B1DA5740C58756E5FD16792FB3","5aa12418-5f0a-4cb7-a915-f40ecc7f3625","5e631737-0fa4-44a6-b227-7ba1d7345015","{""num_scrambled_semantic"":""8"",""num_scrambled_causal"":""4"",""num_scrambled_schematic"":""4"",""participantId"":""67C755B1DA5740C58756E5FD16792FB3"",""assignmentId"":""5aa12418-5f0a-4cb7-a915-f40ecc7f3625"",""projectId"":""5e631737-0fa4-44a6-b227-7ba1d7345015""}","https://test12345.live/?num_scrambled_semantic=8&num_scrambled_causal=4&num_scrambled_schematic=4&participantId=67C755B1DA5740C58756E5FD16792FB3&assignmentId=5aa12418-5f0a-4cb7-a915-f40ecc7f3625&projectId=5e631737-0fa4-44a6-b227-7ba1d7345015","67C755B1DA5740C58756E5FD16792FB3-2025-05-27-18-18-45","","null","","images/causal_sequence/the_performance_causal/the_performance_causal_3.png","null","",""
"","","","","","image-button-response","99","417814","0.0-14.0-1.0-1.3","67C755B1DA5740C58756E5FD16792FB3","67C755B1DA5740C58756E5FD16792FB3","5aa12418-5f0a-4cb7-a915-f40ecc7f3625","5e631737-0fa4-44a6-b227-7ba1d7345015","{""num_scrambled_semantic"":""8"",""num_scrambled_causal"":""4"",""num_scrambled_schematic"":""4"",""participantId"":""67C755B1DA5740C58756E5FD16792FB3"",""assignmentId"":""5aa12418-5f0a-4cb7-a915-f40ecc7f3625"",""projectId"":""5e631737-0fa4-44a6-b227-7ba1d7345015""}","https://test12345.live/?num_scrambled_semantic=8&num_scrambled_causal=4&num_scrambled_schematic=4&participantId=67C755B1DA5740C58756E5FD16792FB3&assignmentId=5aa12418-5f0a-4cb7-a915-f40ecc7f3625&projectId=5e631737-0fa4-44a6-b227-7ba1d7345015","67C755B1DA5740C58756E5FD16792FB3-2025-05-27-18-18-45","","383","","images/causal_sequence/the_performance_causal/the_performance_causal_3.png","0","",""
"","","","","","image-button-response","100","419620","0.0-14.0-1.0-2.3","67C755B1DA5740C58756E5FD16792FB3","67C755B1DA5740C58756E5FD16792FB3","5aa12418-5f0a-4cb7-a915-f40ecc7f3625","5e631737-0fa4-44a6-b227-7ba1d7345015","{""num_scrambled_semantic"":""8"",""num_scrambled_causal"":""4"",""num_scrambled_schematic"":""4"",""participantId"":""67C755B1DA5740C58756E5FD16792FB3"",""assignmentId"":""5aa12418-5f0a-4cb7-a915-f40ecc7f3625"",""projectId"":""5e631737-0fa4-44a6-b227-7ba1d7345015""}","https://test12345.live/?num_scrambled_semantic=8&num_scrambled_causal=4&num_scrambled_schematic=4&participantId=67C755B1DA5740C58756E5FD16792FB3&assignmentId=5aa12418-5f0a-4cb7-a915-f40ecc7f3625&projectId=5e631737-0fa4-44a6-b227-7ba1d7345015","67C755B1DA5740C58756E5FD16792FB3-2025-05-27-18-18-45","","null","","[]","null","",""
"","","","","","image-button-response","101","424130","0.0-14.0-1.0-0.4","67C755B1DA5740C58756E5FD16792FB3","67C755B1DA5740C58756E5FD16792FB3","5aa12418-5f0a-4cb7-a915-f40ecc7f3625","5e631737-0fa4-44a6-b227-7ba1d7345015","{""num_scrambled_semantic"":""8"",""num_scrambled_causal"":""4"",""num_scrambled_schematic"":""4"",""participantId"":""67C755B1DA5740C58756E5FD16792FB3"",""assignmentId"":""5aa12418-5f0a-4cb7-a915-f40ecc7f3625"",""projectId"":""5e631737-0fa4-44a6-b227-7ba1d7345015""}","https://test12345.live/?num_scrambled_semantic=8&num_scrambled_causal=4&num_scrambled_schematic=4&participantId=67C755B1DA5740C58756E5FD16792FB3&assignmentId=5aa12418-5f0a-4cb7-a915-f40ecc7f3625&projectId=5e631737-0fa4-44a6-b227-7ba1d7345015","67C755B1DA5740C58756E5FD16792FB3-2025-05-27-18-18-45","","null","","images/causal_sequence/the_performance_causal/the_performance_causal_9.png","null","",""
"","","","","","image-button-response","102","428037","0.0-14.0-1.0-1.4","67C755B1DA5740C58756E5FD16792FB3","67C755B1DA5740C58756E5FD16792FB3","5aa12418-5f0a-4cb7-a915-f40ecc7f3625","5e631737-0fa4-44a6-b227-7ba1d7345015","{""num_scrambled_semantic"":""8"",""num_scrambled_causal"":""4"",""num_scrambled_schematic"":""4"",""participantId"":""67C755B1DA5740C58756E5FD16792FB3"",""assignmentId"":""5aa12418-5f0a-4cb7-a915-f40ecc7f3625"",""projectId"":""5e631737-0fa4-44a6-b227-7ba1d7345015""}","https://test12345.live/?num_scrambled_semantic=8&num_scrambled_causal=4&num_scrambled_schematic=4&participantId=67C755B1DA5740C58756E5FD16792FB3&assignmentId=5aa12418-5f0a-4cb7-a915-f40ecc7f3625&projectId=5e631737-0fa4-44a6-b227-7ba1d7345015","67C755B1DA5740C58756E5FD16792FB3-2025-05-27-18-18-45","","3906","","images/causal_sequence/the_performance_causal/the_performance_causal_9.png","0","",""
"","","","","","image-button-response","103","429840","0.0-14.0-1.0-2.4","67C755B1DA5740C58756E5FD16792FB3","67C755B1DA5740C58756E5FD16792FB3","5aa12418-5f0a-4cb7-a915-f40ecc7f3625","5e631737-0fa4-44a6-b227-7ba1d7345015","{""num_scrambled_semantic"":""8"",""num_scrambled_causal"":""4"",""num_scrambled_schematic"":""4"",""participantId"":""67C755B1DA5740C58756E5FD16792FB3"",""assignmentId"":""5aa12418-5f0a-4cb7-a915-f40ecc7f3625"",""projectId"":""5e631737-0fa4-44a6-b227-7ba1d7345015""}","https://test12345.live/?num_scrambled_semantic=8&num_scrambled_causal=4&num_scrambled_schematic=4&participantId=67C755B1DA5740C58756E5FD16792FB3&assignmentId=5aa12418-5f0a-4cb7-a915-f40ecc7f3625&projectId=5e631737-0fa4-44a6-b227-7ba1d7345015","67C755B1DA5740C58756E5FD16792FB3-2025-05-27-18-18-45","","null","","[]","null","",""
"","","","","","image-button-response","104","434360","0.0-14.0-1.0-0.5","67C755B1DA5740C58756E5FD16792FB3","67C755B1DA5740C58756E5FD16792FB3","5aa12418-5f0a-4cb7-a915-f40ecc7f3625","5e631737-0fa4-44a6-b227-7ba1d7345015","{""num_scrambled_semantic"":""8"",""num_scrambled_causal"":""4"",""num_scrambled_schematic"":""4"",""participantId"":""67C755B1DA5740C58756E5FD16792FB3"",""assignmentId"":""5aa12418-5f0a-4cb7-a915-f40ecc7f3625"",""projectId"":""5e631737-0fa4-44a6-b227-7ba1d7345015""}","https://test12345.live/?num_scrambled_semantic=8&num_scrambled_causal=4&num_scrambled_schematic=4&participantId=67C755B1DA5740C58756E5FD16792FB3&assignmentId=5aa12418-5f0a-4cb7-a915-f40ecc7f3625&projectId=5e631737-0fa4-44a6-b227-7ba1d7345015","67C755B1DA5740C58756E5FD16792FB3-2025-05-27-18-18-45","","null","","images/causal_sequence/the_performance_causal/the_performance_causal_2.png","null","",""
"","","","","","image-button-response","105","437126","0.0-14.0-1.0-1.5","67C755B1DA5740C58756E5FD16792FB3","67C755B1DA5740C58756E5FD16792FB3","5aa12418-5f0a-4cb7-a915-f40ecc7f3625","5e631737-0fa4-44a6-b227-7ba1d7345015","{""num_scrambled_semantic"":""8"",""num_scrambled_causal"":""4"",""num_scrambled_schematic"":""4"",""participantId"":""67C755B1DA5740C58756E5FD16792FB3"",""assignmentId"":""5aa12418-5f0a-4cb7-a915-f40ecc7f3625"",""projectId"":""5e631737-0fa4-44a6-b227-7ba1d7345015""}","https://test12345.live/?num_scrambled_semantic=8&num_scrambled_causal=4&num_scrambled_schematic=4&participantId=67C755B1DA5740C58756E5FD16792FB3&assignmentId=5aa12418-5f0a-4cb7-a915-f40ecc7f3625&projectId=5e631737-0fa4-44a6-b227-7ba1d7345015","67C755B1DA5740C58756E5FD16792FB3-2025-05-27-18-18-45","","2765","","images/causal_sequence/the_performance_causal/the_performance_causal_2.png","0","",""
"","","","","","image-button-response","106","438940","0.0-14.0-1.0-2.5","67C755B1DA5740C58756E5FD16792FB3","67C755B1DA5740C58756E5FD16792FB3","5aa12418-5f0a-4cb7-a915-f40ecc7f3625","5e631737-0fa4-44a6-b227-7ba1d7345015","{""num_scrambled_semantic"":""8"",""num_scrambled_causal"":""4"",""num_scrambled_schematic"":""4"",""participantId"":""67C755B1DA5740C58756E5FD16792FB3"",""assignmentId"":""5aa12418-5f0a-4cb7-a915-f40ecc7f3625"",""projectId"":""5e631737-0fa4-44a6-b227-7ba1d7345015""}","https://test12345.live/?num_scrambled_semantic=8&num_scrambled_causal=4&num_scrambled_schematic=4&participantId=67C755B1DA5740C58756E5FD16792FB3&assignmentId=5aa12418-5f0a-4cb7-a915-f40ecc7f3625&projectId=5e631737-0fa4-44a6-b227-7ba1d7345015","67C755B1DA5740C58756E5FD16792FB3-2025-05-27-18-18-45","","null","","[]","null","",""
"","","","","","image-button-response","107","443460","0.0-14.0-1.0-0.6","67C755B1DA5740C58756E5FD16792FB3","67C755B1DA5740C58756E5FD16792FB3","5aa12418-5f0a-4cb7-a915-f40ecc7f3625","5e631737-0fa4-44a6-b227-7ba1d7345015","{""num_scrambled_semantic"":""8"",""num_scrambled_causal"":""4"",""num_scrambled_schematic"":""4"",""participantId"":""67C755B1DA5740C58756E5FD16792FB3"",""assignmentId"":""5aa12418-5f0a-4cb7-a915-f40ecc7f3625"",""projectId"":""5e631737-0fa4-44a6-b227-7ba1d7345015""}","https://test12345.live/?num_scrambled_semantic=8&num_scrambled_causal=4&num_scrambled_schematic=4&participantId=67C755B1DA5740C58756E5FD16792FB3&assignmentId=5aa12418-5f0a-4cb7-a915-f40ecc7f3625&projectId=5e631737-0fa4-44a6-b227-7ba1d7345015","67C755B1DA5740C58756E5FD16792FB3-2025-05-27-18-18-45","","null","","images/causal_sequence/the_performance_causal/the_performance_causal_6.png","null","",""
"","","","","","image-button-response","108","444814","0.0-14.0-1.0-1.6","67C755B1DA5740C58756E5FD16792FB3","67C755B1DA5740C58756E5FD16792FB3","5aa12418-5f0a-4cb7-a915-f40ecc7f3625","5e631737-0fa4-44a6-b227-7ba1d7345015","{""num_scrambled_semantic"":""8"",""num_scrambled_causal"":""4"",""num_scrambled_schematic"":""4"",""participantId"":""67C755B1DA5740C58756E5FD16792FB3"",""assignmentId"":""5aa12418-5f0a-4cb7-a915-f40ecc7f3625"",""projectId"":""5e631737-0fa4-44a6-b227-7ba1d7345015""}","https://test12345.live/?num_scrambled_semantic=8&num_scrambled_causal=4&num_scrambled_schematic=4&participantId=67C755B1DA5740C58756E5FD16792FB3&assignmentId=5aa12418-5f0a-4cb7-a915-f40ecc7f3625&projectId=5e631737-0fa4-44a6-b227-7ba1d7345015","67C755B1DA5740C58756E5FD16792FB3-2025-05-27-18-18-45","","1352","","images/causal_sequence/the_performance_causal/the_performance_causal_6.png","0","",""
"","","","","","image-button-response","109","446630","0.0-14.0-1.0-2.6","67C755B1DA5740C58756E5FD16792FB3","67C755B1DA5740C58756E5FD16792FB3","5aa12418-5f0a-4cb7-a915-f40ecc7f3625","5e631737-0fa4-44a6-b227-7ba1d7345015","{""num_scrambled_semantic"":""8"",""num_scrambled_causal"":""4"",""num_scrambled_schematic"":""4"",""participantId"":""67C755B1DA5740C58756E5FD16792FB3"",""assignmentId"":""5aa12418-5f0a-4cb7-a915-f40ecc7f3625"",""projectId"":""5e631737-0fa4-44a6-b227-7ba1d7345015""}","https://test12345.live/?num_scrambled_semantic=8&num_scrambled_causal=4&num_scrambled_schematic=4&participantId=67C755B1DA5740C58756E5FD16792FB3&assignmentId=5aa12418-5f0a-4cb7-a915-f40ecc7f3625&projectId=5e631737-0fa4-44a6-b227-7ba1d7345015","67C755B1DA5740C58756E5FD16792FB3-2025-05-27-18-18-45","","null","","[]","null","",""
"","","","","","image-button-response","110","451150","0.0-14.0-1.0-0.7","67C755B1DA5740C58756E5FD16792FB3","67C755B1DA5740C58756E5FD16792FB3","5aa12418-5f0a-4cb7-a915-f40ecc7f3625","5e631737-0fa4-44a6-b227-7ba1d7345015","{""num_scrambled_semantic"":""8"",""num_scrambled_causal"":""4"",""num_scrambled_schematic"":""4"",""participantId"":""67C755B1DA5740C58756E5FD16792FB3"",""assignmentId"":""5aa12418-5f0a-4cb7-a915-f40ecc7f3625"",""projectId"":""5e631737-0fa4-44a6-b227-7ba1d7345015""}","https://test12345.live/?num_scrambled_semantic=8&num_scrambled_causal=4&num_scrambled_schematic=4&participantId=67C755B1DA5740C58756E5FD16792FB3&assignmentId=5aa12418-5f0a-4cb7-a915-f40ecc7f3625&projectId=5e631737-0fa4-44a6-b227-7ba1d7345015","67C755B1DA5740C58756E5FD16792FB3-2025-05-27-18-18-45","","null","","images/causal_sequence/the_performance_causal/the_performance_causal_8.png","null","",""
"","","","","","image-button-response","111","451982","0.0-14.0-1.0-1.7","67C755B1DA5740C58756E5FD16792FB3","67C755B1DA5740C58756E5FD16792FB3","5aa12418-5f0a-4cb7-a915-f40ecc7f3625","5e631737-0fa4-44a6-b227-7ba1d7345015","{""num_scrambled_semantic"":""8"",""num_scrambled_causal"":""4"",""num_scrambled_schematic"":""4"",""participantId"":""67C755B1DA5740C58756E5FD16792FB3"",""assignmentId"":""5aa12418-5f0a-4cb7-a915-f40ecc7f3625"",""projectId"":""5e631737-0fa4-44a6-b227-7ba1d7345015""}","https://test12345.live/?num_scrambled_semantic=8&num_scrambled_causal=4&num_scrambled_schematic=4&participantId=67C755B1DA5740C58756E5FD16792FB3&assignmentId=5aa12418-5f0a-4cb7-a915-f40ecc7f3625&projectId=5e631737-0fa4-44a6-b227-7ba1d7345015","67C755B1DA5740C58756E5FD16792FB3-2025-05-27-18-18-45","","831","","images/causal_sequence/the_performance_causal/the_performance_causal_8.png","0","",""
"","","","","","image-button-response","112","453790","0.0-14.0-1.0-2.7","67C755B1DA5740C58756E5FD16792FB3","67C755B1DA5740C58756E5FD16792FB3","5aa12418-5f0a-4cb7-a915-f40ecc7f3625","5e631737-0fa4-44a6-b227-7ba1d7345015","{""num_scrambled_semantic"":""8"",""num_scrambled_causal"":""4"",""num_scrambled_schematic"":""4"",""participantId"":""67C755B1DA5740C58756E5FD16792FB3"",""assignmentId"":""5aa12418-5f0a-4cb7-a915-f40ecc7f3625"",""projectId"":""5e631737-0fa4-44a6-b227-7ba1d7345015""}","https://test12345.live/?num_scrambled_semantic=8&num_scrambled_causal=4&num_scrambled_schematic=4&participantId=67C755B1DA5740C58756E5FD16792FB3&assignmentId=5aa12418-5f0a-4cb7-a915-f40ecc7f3625&projectId=5e631737-0fa4-44a6-b227-7ba1d7345015","67C755B1DA5740C58756E5FD16792FB3-2025-05-27-18-18-45","","null","","[]","null","",""
"","","","","","image-button-response","113","458297","0.0-14.0-1.0-0.8","67C755B1DA5740C58756E5FD16792FB3","67C755B1DA5740C58756E5FD16792FB3","5aa12418-5f0a-4cb7-a915-f40ecc7f3625","5e631737-0fa4-44a6-b227-7ba1d7345015","{""num_scrambled_semantic"":""8"",""num_scrambled_causal"":""4"",""num_scrambled_schematic"":""4"",""participantId"":""67C755B1DA5740C58756E5FD16792FB3"",""assignmentId"":""5aa12418-5f0a-4cb7-a915-f40ecc7f3625"",""projectId"":""5e631737-0fa4-44a6-b227-7ba1d7345015""}","https://test12345.live/?num_scrambled_semantic=8&num_scrambled_causal=4&num_scrambled_schematic=4&participantId=67C755B1DA5740C58756E5FD16792FB3&assignmentId=5aa12418-5f0a-4cb7-a915-f40ecc7f3625&projectId=5e631737-0fa4-44a6-b227-7ba1d7345015","67C755B1DA5740C58756E5FD16792FB3-2025-05-27-18-18-45","","null","","images/causal_sequence/the_performance_causal/the_performance_causal_ten.png","null","",""
