"success","timeout","failed_images","failed_audio","failed_video","trial_type","trial_index","time_elapsed","internal_node_id","subject","subject_id","study_id","session_id","urlvar","current_url","audio_id","view_history","rt","device_id","stimulus","response","estimated_stimulus_onset","seq_name"
"true","false","[]","[]","[]","preload","0","5784","0.0-0.0","688BAD21A190420FBC93CC5669EF6F25","688BAD21A190420FBC93CC5669EF6F25","2d7ac1b8-e2c3-4f65-93a6-b8f9e12405a0","03d12dc6-79b3-42a5-88c2-9b18a9e5f1ee","{""num_scrambled_semantic"":""8"",""num_scrambled_causal"":""4"",""num_scrambled_schematic"":""4"",""participantId"":""688BAD21A190420FBC93CC5669EF6F25"",""assignmentId"":""2d7ac1b8-e2c3-4f65-93a6-b8f9e12405a0"",""projectId"":""03d12dc6-79b3-42a5-88c2-9b18a9e5f1ee""}","https://test12345.live/?num_scrambled_semantic=8&num_scrambled_causal=4&num_scrambled_schematic=4&participantId=688BAD21A190420FBC93CC5669EF6F25&assignmentId=2d7ac1b8-e2c3-4f65-93a6-b8f9e12405a0&projectId=03d12dc6-79b3-42a5-88c2-9b18a9e5f1ee","688BAD21A190420FBC93CC5669EF6F25-2025-05-15-15-31-20","","","","","","",""
"","","","","","instructions","1","27598","0.0-1.0","688BAD21A190420FBC93CC5669EF6F25","688BAD21A190420FBC93CC5669EF6F25","2d7ac1b8-e2c3-4f65-93a6-b8f9e12405a0","03d12dc6-79b3-42a5-88c2-9b18a9e5f1ee","{""num_scrambled_semantic"":""8"",""num_scrambled_causal"":""4"",""num_scrambled_schematic"":""4"",""participantId"":""688BAD21A190420FBC93CC5669EF6F25"",""assignmentId"":""2d7ac1b8-e2c3-4f65-93a6-b8f9e12405a0"",""projectId"":""03d12dc6-79b3-42a5-88c2-9b18a9e5f1ee""}","https://test12345.live/?num_scrambled_semantic=8&num_scrambled_causal=4&num_scrambled_schematic=4&participantId=688BAD21A190420FBC93CC5669EF6F25&assignmentId=2d7ac1b8-e2c3-4f65-93a6-b8f9e12405a0&projectId=03d12dc6-79b3-42a5-88c2-9b18a9e5f1ee","688BAD21A190420FBC93CC5669EF6F25-2025-05-15-15-31-20","[{""page_index"":0,""viewing_time"":21812}]","21813","","","","",""
"","","","","","instructions","2","62148","0.0-2.0","688BAD21A190420FBC93CC5669EF6F25","688BAD21A190420FBC93CC5669EF6F25","2d7ac1b8-e2c3-4f65-93a6-b8f9e12405a0","03d12dc6-79b3-42a5-88c2-9b18a9e5f1ee","{""num_scrambled_semantic"":""8"",""num_scrambled_causal"":""4"",""num_scrambled_schematic"":""4"",""participantId"":""688BAD21A190420FBC93CC5669EF6F25"",""assignmentId"":""2d7ac1b8-e2c3-4f65-93a6-b8f9e12405a0"",""projectId"":""03d12dc6-79b3-42a5-88c2-9b18a9e5f1ee""}","https://test12345.live/?num_scrambled_semantic=8&num_scrambled_causal=4&num_scrambled_schematic=4&participantId=688BAD21A190420FBC93CC5669EF6F25&assignmentId=2d7ac1b8-e2c3-4f65-93a6-b8f9e12405a0&projectId=03d12dc6-79b3-42a5-88c2-9b18a9e5f1ee","688BAD21A190420FBC93CC5669EF6F25-2025-05-15-15-31-20","[{""page_index"":0,""viewing_time"":34549}]","34549","","","","",""
"true","","","","","fullscreen","3","71782","0.0-3.0","688BAD21A190420FBC93CC5669EF6F25","688BAD21A190420FBC93CC5669EF6F25","2d7ac1b8-e2c3-4f65-93a6-b8f9e12405a0","03d12dc6-79b3-42a5-88c2-9b18a9e5f1ee","{""num_scrambled_semantic"":""8"",""num_scrambled_causal"":""4"",""num_scrambled_schematic"":""4"",""participantId"":""688BAD21A190420FBC93CC5669EF6F25"",""assignmentId"":""2d7ac1b8-e2c3-4f65-93a6-b8f9e12405a0"",""projectId"":""03d12dc6-79b3-42a5-88c2-9b18a9e5f1ee""}","https://test12345.live/?num_scrambled_semantic=8&num_scrambled_causal=4&num_scrambled_schematic=4&participantId=688BAD21A190420FBC93CC5669EF6F25&assignmentId=2d7ac1b8-e2c3-4f65-93a6-b8f9e12405a0&projectId=03d12dc6-79b3-42a5-88c2-9b18a9e5f1ee","688BAD21A190420FBC93CC5669EF6F25-2025-05-15-15-31-20","","8624","","","","",""
"","","","","","initialize-microphone","4","79720","0.0-4.0-0.0","688BAD21A190420FBC93CC5669EF6F25","688BAD21A190420FBC93CC5669EF6F25","2d7ac1b8-e2c3-4f65-93a6-b8f9e12405a0","03d12dc6-79b3-42a5-88c2-9b18a9e5f1ee","{""num_scrambled_semantic"":""8"",""num_scrambled_causal"":""4"",""num_scrambled_schematic"":""4"",""participantId"":""688BAD21A190420FBC93CC5669EF6F25"",""assignmentId"":""2d7ac1b8-e2c3-4f65-93a6-b8f9e12405a0"",""projectId"":""03d12dc6-79b3-42a5-88c2-9b18a9e5f1ee""}","https://test12345.live/?num_scrambled_semantic=8&num_scrambled_causal=4&num_scrambled_schematic=4&participantId=688BAD21A190420FBC93CC5669EF6F25&assignmentId=2d7ac1b8-e2c3-4f65-93a6-b8f9e12405a0&projectId=03d12dc6-79b3-42a5-88c2-9b18a9e5f1ee","688BAD21A190420FBC93CC5669EF6F25-2025-05-15-15-31-20","","","50286b6061b84ae52c84b5f6100aa4d4dd3a06f201b3a9cc47ea091a7c597f25","","","",""
"","","","","","html-audio-response","5","95864","0.0-4.0-1.0","688BAD21A190420FBC93CC5669EF6F25","688BAD21A190420FBC93CC5669EF6F25","2d7ac1b8-e2c3-4f65-93a6-b8f9e12405a0","03d12dc6-79b3-42a5-88c2-9b18a9e5f1ee","{""num_scrambled_semantic"":""8"",""num_scrambled_causal"":""4"",""num_scrambled_schematic"":""4"",""participantId"":""688BAD21A190420FBC93CC5669EF6F25"",""assignmentId"":""2d7ac1b8-e2c3-4f65-93a6-b8f9e12405a0"",""projectId"":""03d12dc6-79b3-42a5-88c2-9b18a9e5f1ee""}","https://test12345.live/?num_scrambled_semantic=8&num_scrambled_causal=4&num_scrambled_schematic=4&participantId=688BAD21A190420FBC93CC5669EF6F25&assignmentId=2d7ac1b8-e2c3-4f65-93a6-b8f9e12405a0&projectId=03d12dc6-79b3-42a5-88c2-9b18a9e5f1ee","688BAD21A190420FBC93CC5669EF6F25-2025-05-15-15-31-20","","5943","","<span style=""color: red; font-size: 24px""> NOW RECORDING</span>
        <p>Please test Microphone</p>","","5",""
"","","","","","html-button-response","6","97523","0.0-4.0-2.0","688BAD21A190420FBC93CC5669EF6F25","688BAD21A190420FBC93CC5669EF6F25","2d7ac1b8-e2c3-4f65-93a6-b8f9e12405a0","03d12dc6-79b3-42a5-88c2-9b18a9e5f1ee","{""num_scrambled_semantic"":""8"",""num_scrambled_causal"":""4"",""num_scrambled_schematic"":""4"",""participantId"":""688BAD21A190420FBC93CC5669EF6F25"",""assignmentId"":""2d7ac1b8-e2c3-4f65-93a6-b8f9e12405a0"",""projectId"":""03d12dc6-79b3-42a5-88c2-9b18a9e5f1ee""}","https://test12345.live/?num_scrambled_semantic=8&num_scrambled_causal=4&num_scrambled_schematic=4&participantId=688BAD21A190420FBC93CC5669EF6F25&assignmentId=2d7ac1b8-e2c3-4f65-93a6-b8f9e12405a0&projectId=03d12dc6-79b3-42a5-88c2-9b18a9e5f1ee","688BAD21A190420FBC93CC5669EF6F25-2025-05-15-15-31-20","","1657","","<p style=""font-size:48px; color:red;"">Is Microphone OK?</p>","1","",""
"","","","","","instructions","7","113613","0.0-5.0","688BAD21A190420FBC93CC5669EF6F25","688BAD21A190420FBC93CC5669EF6F25","2d7ac1b8-e2c3-4f65-93a6-b8f9e12405a0","03d12dc6-79b3-42a5-88c2-9b18a9e5f1ee","{""num_scrambled_semantic"":""8"",""num_scrambled_causal"":""4"",""num_scrambled_schematic"":""4"",""participantId"":""688BAD21A190420FBC93CC5669EF6F25"",""assignmentId"":""2d7ac1b8-e2c3-4f65-93a6-b8f9e12405a0"",""projectId"":""03d12dc6-79b3-42a5-88c2-9b18a9e5f1ee""}","https://test12345.live/?num_scrambled_semantic=8&num_scrambled_causal=4&num_scrambled_schematic=4&participantId=688BAD21A190420FBC93CC5669EF6F25&assignmentId=2d7ac1b8-e2c3-4f65-93a6-b8f9e12405a0&projectId=03d12dc6-79b3-42a5-88c2-9b18a9e5f1ee","688BAD21A190420FBC93CC5669EF6F25-2025-05-15-15-31-20","[{""page_index"":0,""viewing_time"":5371},{""page_index"":1,""viewing_time"":10717}]","16089","","","","",""
"","","","","","image-button-response","8","119627","0.0-6.0-0.0","688BAD21A190420FBC93CC5669EF6F25","688BAD21A190420FBC93CC5669EF6F25","2d7ac1b8-e2c3-4f65-93a6-b8f9e12405a0","03d12dc6-79b3-42a5-88c2-9b18a9e5f1ee","{""num_scrambled_semantic"":""8"",""num_scrambled_causal"":""4"",""num_scrambled_schematic"":""4"",""participantId"":""688BAD21A190420FBC93CC5669EF6F25"",""assignmentId"":""2d7ac1b8-e2c3-4f65-93a6-b8f9e12405a0"",""projectId"":""03d12dc6-79b3-42a5-88c2-9b18a9e5f1ee""}","https://test12345.live/?num_scrambled_semantic=8&num_scrambled_causal=4&num_scrambled_schematic=4&participantId=688BAD21A190420FBC93CC5669EF6F25&assignmentId=2d7ac1b8-e2c3-4f65-93a6-b8f9e12405a0&projectId=03d12dc6-79b3-42a5-88c2-9b18a9e5f1ee","688BAD21A190420FBC93CC5669EF6F25-2025-05-15-15-31-20","","null","","images/instructions/movie_0.png","null","",""
"","","","","","image-button-response","9","124136","0.0-6.0-1.0-0.0","688BAD21A190420FBC93CC5669EF6F25","688BAD21A190420FBC93CC5669EF6F25","2d7ac1b8-e2c3-4f65-93a6-b8f9e12405a0","03d12dc6-79b3-42a5-88c2-9b18a9e5f1ee","{""num_scrambled_semantic"":""8"",""num_scrambled_causal"":""4"",""num_scrambled_schematic"":""4"",""participantId"":""688BAD21A190420FBC93CC5669EF6F25"",""assignmentId"":""2d7ac1b8-e2c3-4f65-93a6-b8f9e12405a0"",""projectId"":""03d12dc6-79b3-42a5-88c2-9b18a9e5f1ee""}","https://test12345.live/?num_scrambled_semantic=8&num_scrambled_causal=4&num_scrambled_schematic=4&participantId=688BAD21A190420FBC93CC5669EF6F25&assignmentId=2d7ac1b8-e2c3-4f65-93a6-b8f9e12405a0&projectId=03d12dc6-79b3-42a5-88c2-9b18a9e5f1ee","688BAD21A190420FBC93CC5669EF6F25-2025-05-15-15-31-20","","null","","images/instructions/movie_1.png","null","",""
"","","","","","image-button-response","10","127329","0.0-6.0-1.0-1.0","688BAD21A190420FBC93CC5669EF6F25","688BAD21A190420FBC93CC5669EF6F25","2d7ac1b8-e2c3-4f65-93a6-b8f9e12405a0","03d12dc6-79b3-42a5-88c2-9b18a9e5f1ee","{""num_scrambled_semantic"":""8"",""num_scrambled_causal"":""4"",""num_scrambled_schematic"":""4"",""participantId"":""688BAD21A190420FBC93CC5669EF6F25"",""assignmentId"":""2d7ac1b8-e2c3-4f65-93a6-b8f9e12405a0"",""projectId"":""03d12dc6-79b3-42a5-88c2-9b18a9e5f1ee""}","https://test12345.live/?num_scrambled_semantic=8&num_scrambled_causal=4&num_scrambled_schematic=4&participantId=688BAD21A190420FBC93CC5669EF6F25&assignmentId=2d7ac1b8-e2c3-4f65-93a6-b8f9e12405a0&projectId=03d12dc6-79b3-42a5-88c2-9b18a9e5f1ee","688BAD21A190420FBC93CC5669EF6F25-2025-05-15-15-31-20","","3192","","images/instructions/movie_1.png","0","",""
"","","","","","image-button-response","11","129137","0.0-6.0-1.0-2.0","688BAD21A190420FBC93CC5669EF6F25","688BAD21A190420FBC93CC5669EF6F25","2d7ac1b8-e2c3-4f65-93a6-b8f9e12405a0","03d12dc6-79b3-42a5-88c2-9b18a9e5f1ee","{""num_scrambled_semantic"":""8"",""num_scrambled_causal"":""4"",""num_scrambled_schematic"":""4"",""participantId"":""688BAD21A190420FBC93CC5669EF6F25"",""assignmentId"":""2d7ac1b8-e2c3-4f65-93a6-b8f9e12405a0"",""projectId"":""03d12dc6-79b3-42a5-88c2-9b18a9e5f1ee""}","https://test12345.live/?num_scrambled_semantic=8&num_scrambled_causal=4&num_scrambled_schematic=4&participantId=688BAD21A190420FBC93CC5669EF6F25&assignmentId=2d7ac1b8-e2c3-4f65-93a6-b8f9e12405a0&projectId=03d12dc6-79b3-42a5-88c2-9b18a9e5f1ee","688BAD21A190420FBC93CC5669EF6F25-2025-05-15-15-31-20","","null","","[]","null","",""
"","","","","","image-button-response","12","133646","0.0-6.0-1.0-0.1","688BAD21A190420FBC93CC5669EF6F25","688BAD21A190420FBC93CC5669EF6F25","2d7ac1b8-e2c3-4f65-93a6-b8f9e12405a0","03d12dc6-79b3-42a5-88c2-9b18a9e5f1ee","{""num_scrambled_semantic"":""8"",""num_scrambled_causal"":""4"",""num_scrambled_schematic"":""4"",""participantId"":""688BAD21A190420FBC93CC5669EF6F25"",""assignmentId"":""2d7ac1b8-e2c3-4f65-93a6-b8f9e12405a0"",""projectId"":""03d12dc6-79b3-42a5-88c2-9b18a9e5f1ee""}","https://test12345.live/?num_scrambled_semantic=8&num_scrambled_causal=4&num_scrambled_schematic=4&participantId=688BAD21A190420FBC93CC5669EF6F25&assignmentId=2d7ac1b8-e2c3-4f65-93a6-b8f9e12405a0&projectId=03d12dc6-79b3-42a5-88c2-9b18a9e5f1ee","688BAD21A190420FBC93CC5669EF6F25-2025-05-15-15-31-20","","null","","images/instructions/movie_2.png","null","",""
"","","","","","image-button-response","13","136485","0.0-6.0-1.0-1.1","688BAD21A190420FBC93CC5669EF6F25","688BAD21A190420FBC93CC5669EF6F25","2d7ac1b8-e2c3-4f65-93a6-b8f9e12405a0","03d12dc6-79b3-42a5-88c2-9b18a9e5f1ee","{""num_scrambled_semantic"":""8"",""num_scrambled_causal"":""4"",""num_scrambled_schematic"":""4"",""participantId"":""688BAD21A190420FBC93CC5669EF6F25"",""assignmentId"":""2d7ac1b8-e2c3-4f65-93a6-b8f9e12405a0"",""projectId"":""03d12dc6-79b3-42a5-88c2-9b18a9e5f1ee""}","https://test12345.live/?num_scrambled_semantic=8&num_scrambled_causal=4&num_scrambled_schematic=4&participantId=688BAD21A190420FBC93CC5669EF6F25&assignmentId=2d7ac1b8-e2c3-4f65-93a6-b8f9e12405a0&projectId=03d12dc6-79b3-42a5-88c2-9b18a9e5f1ee","688BAD21A190420FBC93CC5669EF6F25-2025-05-15-15-31-20","","2837","","images/instructions/movie_2.png","0","",""
"","","","","","image-button-response","14","138292","0.0-6.0-1.0-2.1","688BAD21A190420FBC93CC5669EF6F25","688BAD21A190420FBC93CC5669EF6F25","2d7ac1b8-e2c3-4f65-93a6-b8f9e12405a0","03d12dc6-79b3-42a5-88c2-9b18a9e5f1ee","{""num_scrambled_semantic"":""8"",""num_scrambled_causal"":""4"",""num_scrambled_schematic"":""4"",""participantId"":""688BAD21A190420FBC93CC5669EF6F25"",""assignmentId"":""2d7ac1b8-e2c3-4f65-93a6-b8f9e12405a0"",""projectId"":""03d12dc6-79b3-42a5-88c2-9b18a9e5f1ee""}","https://test12345.live/?num_scrambled_semantic=8&num_scrambled_causal=4&num_scrambled_schematic=4&participantId=688BAD21A190420FBC93CC5669EF6F25&assignmentId=2d7ac1b8-e2c3-4f65-93a6-b8f9e12405a0&projectId=03d12dc6-79b3-42a5-88c2-9b18a9e5f1ee","688BAD21A190420FBC93CC5669EF6F25-2025-05-15-15-31-20","","null","","[]","null","",""
"","","","","","image-button-response","15","142803","0.0-6.0-1.0-0.2","688BAD21A190420FBC93CC5669EF6F25","688BAD21A190420FBC93CC5669EF6F25","2d7ac1b8-e2c3-4f65-93a6-b8f9e12405a0","03d12dc6-79b3-42a5-88c2-9b18a9e5f1ee","{""num_scrambled_semantic"":""8"",""num_scrambled_causal"":""4"",""num_scrambled_schematic"":""4"",""participantId"":""688BAD21A190420FBC93CC5669EF6F25"",""assignmentId"":""2d7ac1b8-e2c3-4f65-93a6-b8f9e12405a0"",""projectId"":""03d12dc6-79b3-42a5-88c2-9b18a9e5f1ee""}","https://test12345.live/?num_scrambled_semantic=8&num_scrambled_causal=4&num_scrambled_schematic=4&participantId=688BAD21A190420FBC93CC5669EF6F25&assignmentId=2d7ac1b8-e2c3-4f65-93a6-b8f9e12405a0&projectId=03d12dc6-79b3-42a5-88c2-9b18a9e5f1ee","688BAD21A190420FBC93CC5669EF6F25-2025-05-15-15-31-20","","null","","images/instructions/movie_3.png","null","",""
"","","","","","image-button-response","16","143915","0.0-6.0-1.0-1.2","688BAD21A190420FBC93CC5669EF6F25","688BAD21A190420FBC93CC5669EF6F25","2d7ac1b8-e2c3-4f65-93a6-b8f9e12405a0","03d12dc6-79b3-42a5-88c2-9b18a9e5f1ee","{""num_scrambled_semantic"":""8"",""num_scrambled_causal"":""4"",""num_scrambled_schematic"":""4"",""participantId"":""688BAD21A190420FBC93CC5669EF6F25"",""assignmentId"":""2d7ac1b8-e2c3-4f65-93a6-b8f9e12405a0"",""projectId"":""03d12dc6-79b3-42a5-88c2-9b18a9e5f1ee""}","https://test12345.live/?num_scrambled_semantic=8&num_scrambled_causal=4&num_scrambled_schematic=4&participantId=688BAD21A190420FBC93CC5669EF6F25&assignmentId=2d7ac1b8-e2c3-4f65-93a6-b8f9e12405a0&projectId=03d12dc6-79b3-42a5-88c2-9b18a9e5f1ee","688BAD21A190420FBC93CC5669EF6F25-2025-05-15-15-31-20","","1111","","images/instructions/movie_3.png","0","",""
"","","","","","image-button-response","17","145717","0.0-6.0-1.0-2.2","688BAD21A190420FBC93CC5669EF6F25","688BAD21A190420FBC93CC5669EF6F25","2d7ac1b8-e2c3-4f65-93a6-b8f9e12405a0","03d12dc6-79b3-42a5-88c2-9b18a9e5f1ee","{""num_scrambled_semantic"":""8"",""num_scrambled_causal"":""4"",""num_scrambled_schematic"":""4"",""participantId"":""688BAD21A190420FBC93CC5669EF6F25"",""assignmentId"":""2d7ac1b8-e2c3-4f65-93a6-b8f9e12405a0"",""projectId"":""03d12dc6-79b3-42a5-88c2-9b18a9e5f1ee""}","https://test12345.live/?num_scrambled_semantic=8&num_scrambled_causal=4&num_scrambled_schematic=4&participantId=688BAD21A190420FBC93CC5669EF6F25&assignmentId=2d7ac1b8-e2c3-4f65-93a6-b8f9e12405a0&projectId=03d12dc6-79b3-42a5-88c2-9b18a9e5f1ee","688BAD21A190420FBC93CC5669EF6F25-2025-05-15-15-31-20","","null","","[]","null","",""
"","","","","","image-button-response","18","150222","0.0-6.0-1.0-0.3","688BAD21A190420FBC93CC5669EF6F25","688BAD21A190420FBC93CC5669EF6F25","2d7ac1b8-e2c3-4f65-93a6-b8f9e12405a0","03d12dc6-79b3-42a5-88c2-9b18a9e5f1ee","{""num_scrambled_semantic"":""8"",""num_scrambled_causal"":""4"",""num_scrambled_schematic"":""4"",""participantId"":""688BAD21A190420FBC93CC5669EF6F25"",""assignmentId"":""2d7ac1b8-e2c3-4f65-93a6-b8f9e12405a0"",""projectId"":""03d12dc6-79b3-42a5-88c2-9b18a9e5f1ee""}","https://test12345.live/?num_scrambled_semantic=8&num_scrambled_causal=4&num_scrambled_schematic=4&participantId=688BAD21A190420FBC93CC5669EF6F25&assignmentId=2d7ac1b8-e2c3-4f65-93a6-b8f9e12405a0&projectId=03d12dc6-79b3-42a5-88c2-9b18a9e5f1ee","688BAD21A190420FBC93CC5669EF6F25-2025-05-15-15-31-20","","null","","images/instructions/movie_4.png","null","",""
"","","","","","image-button-response","19","151436","0.0-6.0-1.0-1.3","688BAD21A190420FBC93CC5669EF6F25","688BAD21A190420FBC93CC5669EF6F25","2d7ac1b8-e2c3-4f65-93a6-b8f9e12405a0","03d12dc6-79b3-42a5-88c2-9b18a9e5f1ee","{""num_scrambled_semantic"":""8"",""num_scrambled_causal"":""4"",""num_scrambled_schematic"":""4"",""participantId"":""688BAD21A190420FBC93CC5669EF6F25"",""assignmentId"":""2d7ac1b8-e2c3-4f65-93a6-b8f9e12405a0"",""projectId"":""03d12dc6-79b3-42a5-88c2-9b18a9e5f1ee""}","https://test12345.live/?num_scrambled_semantic=8&num_scrambled_causal=4&num_scrambled_schematic=4&participantId=688BAD21A190420FBC93CC5669EF6F25&assignmentId=2d7ac1b8-e2c3-4f65-93a6-b8f9e12405a0&projectId=03d12dc6-79b3-42a5-88c2-9b18a9e5f1ee","688BAD21A190420FBC93CC5669EF6F25-2025-05-15-15-31-20","","1213","","images/instructions/movie_4.png","0","",""
"","","","","","image-button-response","20","153248","0.0-6.0-1.0-2.3","688BAD21A190420FBC93CC5669EF6F25","688BAD21A190420FBC93CC5669EF6F25","2d7ac1b8-e2c3-4f65-93a6-b8f9e12405a0","03d12dc6-79b3-42a5-88c2-9b18a9e5f1ee","{""num_scrambled_semantic"":""8"",""num_scrambled_causal"":""4"",""num_scrambled_schematic"":""4"",""participantId"":""688BAD21A190420FBC93CC5669EF6F25"",""assignmentId"":""2d7ac1b8-e2c3-4f65-93a6-b8f9e12405a0"",""projectId"":""03d12dc6-79b3-42a5-88c2-9b18a9e5f1ee""}","https://test12345.live/?num_scrambled_semantic=8&num_scrambled_causal=4&num_scrambled_schematic=4&participantId=688BAD21A190420FBC93CC5669EF6F25&assignmentId=2d7ac1b8-e2c3-4f65-93a6-b8f9e12405a0&projectId=03d12dc6-79b3-42a5-88c2-9b18a9e5f1ee","688BAD21A190420FBC93CC5669EF6F25-2025-05-15-15-31-20","","null","","[]","null","",""
"","","","","","instructions","21","163328","0.0-7.0","688BAD21A190420FBC93CC5669EF6F25","688BAD21A190420FBC93CC5669EF6F25","2d7ac1b8-e2c3-4f65-93a6-b8f9e12405a0","03d12dc6-79b3-42a5-88c2-9b18a9e5f1ee","{""num_scrambled_semantic"":""8"",""num_scrambled_causal"":""4"",""num_scrambled_schematic"":""4"",""participantId"":""688BAD21A190420FBC93CC5669EF6F25"",""assignmentId"":""2d7ac1b8-e2c3-4f65-93a6-b8f9e12405a0"",""projectId"":""03d12dc6-79b3-42a5-88c2-9b18a9e5f1ee""}","https://test12345.live/?num_scrambled_semantic=8&num_scrambled_causal=4&num_scrambled_schematic=4&participantId=688BAD21A190420FBC93CC5669EF6F25&assignmentId=2d7ac1b8-e2c3-4f65-93a6-b8f9e12405a0&projectId=03d12dc6-79b3-42a5-88c2-9b18a9e5f1ee","688BAD21A190420FBC93CC5669EF6F25-2025-05-15-15-31-20","[{""page_index"":0,""viewing_time"":9119},{""page_index"":1,""viewing_time"":959}]","10079","","","","",""
"","","","","","html-audio-response","22","215915","0.0-8.0","688BAD21A190420FBC93CC5669EF6F25","688BAD21A190420FBC93CC5669EF6F25","2d7ac1b8-e2c3-4f65-93a6-b8f9e12405a0","03d12dc6-79b3-42a5-88c2-9b18a9e5f1ee","{""num_scrambled_semantic"":""8"",""num_scrambled_causal"":""4"",""num_scrambled_schematic"":""4"",""participantId"":""688BAD21A190420FBC93CC5669EF6F25"",""assignmentId"":""2d7ac1b8-e2c3-4f65-93a6-b8f9e12405a0"",""projectId"":""03d12dc6-79b3-42a5-88c2-9b18a9e5f1ee""}","https://test12345.live/?num_scrambled_semantic=8&num_scrambled_causal=4&num_scrambled_schematic=4&participantId=688BAD21A190420FBC93CC5669EF6F25&assignmentId=2d7ac1b8-e2c3-4f65-93a6-b8f9e12405a0&projectId=03d12dc6-79b3-42a5-88c2-9b18a9e5f1ee","688BAD21A190420FBC93CC5669EF6F25-2025-05-15-15-31-20","","32264","","[""<span style=\""color: red; font-size: 24px\""> NOW RECORDING</span><p>Please say out loud all the images you saw, as many as you can remember. The images can be said in any order.</p>""]","","2",""
"","","","","","instructions","23","218191","0.0-9.0","688BAD21A190420FBC93CC5669EF6F25","688BAD21A190420FBC93CC5669EF6F25","2d7ac1b8-e2c3-4f65-93a6-b8f9e12405a0","03d12dc6-79b3-42a5-88c2-9b18a9e5f1ee","{""num_scrambled_semantic"":""8"",""num_scrambled_causal"":""4"",""num_scrambled_schematic"":""4"",""participantId"":""688BAD21A190420FBC93CC5669EF6F25"",""assignmentId"":""2d7ac1b8-e2c3-4f65-93a6-b8f9e12405a0"",""projectId"":""03d12dc6-79b3-42a5-88c2-9b18a9e5f1ee""}","https://test12345.live/?num_scrambled_semantic=8&num_scrambled_causal=4&num_scrambled_schematic=4&participantId=688BAD21A190420FBC93CC5669EF6F25&assignmentId=2d7ac1b8-e2c3-4f65-93a6-b8f9e12405a0&projectId=03d12dc6-79b3-42a5-88c2-9b18a9e5f1ee","688BAD21A190420FBC93CC5669EF6F25-2025-05-15-15-31-20","[{""page_index"":0,""viewing_time"":2267}]","2267","","","","",""
"","","","","","image-button-response","24","224203","0.0-10.0-0.0","688BAD21A190420FBC93CC5669EF6F25","688BAD21A190420FBC93CC5669EF6F25","2d7ac1b8-e2c3-4f65-93a6-b8f9e12405a0","03d12dc6-79b3-42a5-88c2-9b18a9e5f1ee","{""num_scrambled_semantic"":""8"",""num_scrambled_causal"":""4"",""num_scrambled_schematic"":""4"",""participantId"":""688BAD21A190420FBC93CC5669EF6F25"",""assignmentId"":""2d7ac1b8-e2c3-4f65-93a6-b8f9e12405a0"",""projectId"":""03d12dc6-79b3-42a5-88c2-9b18a9e5f1ee""}","https://test12345.live/?num_scrambled_semantic=8&num_scrambled_causal=4&num_scrambled_schematic=4&participantId=688BAD21A190420FBC93CC5669EF6F25&assignmentId=2d7ac1b8-e2c3-4f65-93a6-b8f9e12405a0&projectId=03d12dc6-79b3-42a5-88c2-9b18a9e5f1ee","688BAD21A190420FBC93CC5669EF6F25-2025-05-15-15-31-20","","null","","images/causal_sequence/dog_causal/dog_causal_0.png","null","",""
"","","","","","image-button-response","25","228717","0.0-10.0-1.0-0.0","688BAD21A190420FBC93CC5669EF6F25","688BAD21A190420FBC93CC5669EF6F25","2d7ac1b8-e2c3-4f65-93a6-b8f9e12405a0","03d12dc6-79b3-42a5-88c2-9b18a9e5f1ee","{""num_scrambled_semantic"":""8"",""num_scrambled_causal"":""4"",""num_scrambled_schematic"":""4"",""participantId"":""688BAD21A190420FBC93CC5669EF6F25"",""assignmentId"":""2d7ac1b8-e2c3-4f65-93a6-b8f9e12405a0"",""projectId"":""03d12dc6-79b3-42a5-88c2-9b18a9e5f1ee""}","https://test12345.live/?num_scrambled_semantic=8&num_scrambled_causal=4&num_scrambled_schematic=4&participantId=688BAD21A190420FBC93CC5669EF6F25&assignmentId=2d7ac1b8-e2c3-4f65-93a6-b8f9e12405a0&projectId=03d12dc6-79b3-42a5-88c2-9b18a9e5f1ee","688BAD21A190420FBC93CC5669EF6F25-2025-05-15-15-31-20","","null","","images/causal_sequence/dog_causal/dog_causal_ten.png","null","",""
"","","","","","image-button-response","26","231202","0.0-10.0-1.0-1.0","688BAD21A190420FBC93CC5669EF6F25","688BAD21A190420FBC93CC5669EF6F25","2d7ac1b8-e2c3-4f65-93a6-b8f9e12405a0","03d12dc6-79b3-42a5-88c2-9b18a9e5f1ee","{""num_scrambled_semantic"":""8"",""num_scrambled_causal"":""4"",""num_scrambled_schematic"":""4"",""participantId"":""688BAD21A190420FBC93CC5669EF6F25"",""assignmentId"":""2d7ac1b8-e2c3-4f65-93a6-b8f9e12405a0"",""projectId"":""03d12dc6-79b3-42a5-88c2-9b18a9e5f1ee""}","https://test12345.live/?num_scrambled_semantic=8&num_scrambled_causal=4&num_scrambled_schematic=4&participantId=688BAD21A190420FBC93CC5669EF6F25&assignmentId=2d7ac1b8-e2c3-4f65-93a6-b8f9e12405a0&projectId=03d12dc6-79b3-42a5-88c2-9b18a9e5f1ee","688BAD21A190420FBC93CC5669EF6F25-2025-05-15-15-31-20","","2484","","images/causal_sequence/dog_causal/dog_causal_ten.png","0","",""
"","","","","","image-button-response","27","233007","0.0-10.0-1.0-2.0","688BAD21A190420FBC93CC5669EF6F25","688BAD21A190420FBC93CC5669EF6F25","2d7ac1b8-e2c3-4f65-93a6-b8f9e12405a0","03d12dc6-79b3-42a5-88c2-9b18a9e5f1ee","{""num_scrambled_semantic"":""8"",""num_scrambled_causal"":""4"",""num_scrambled_schematic"":""4"",""participantId"":""688BAD21A190420FBC93CC5669EF6F25"",""assignmentId"":""2d7ac1b8-e2c3-4f65-93a6-b8f9e12405a0"",""projectId"":""03d12dc6-79b3-42a5-88c2-9b18a9e5f1ee""}","https://test12345.live/?num_scrambled_semantic=8&num_scrambled_causal=4&num_scrambled_schematic=4&participantId=688BAD21A190420FBC93CC5669EF6F25&assignmentId=2d7ac1b8-e2c3-4f65-93a6-b8f9e12405a0&projectId=03d12dc6-79b3-42a5-88c2-9b18a9e5f1ee","688BAD21A190420FBC93CC5669EF6F25-2025-05-15-15-31-20","","null","","[]","null","",""
"","","","","","image-button-response","28","237521","0.0-10.0-1.0-0.1","688BAD21A190420FBC93CC5669EF6F25","688BAD21A190420FBC93CC5669EF6F25","2d7ac1b8-e2c3-4f65-93a6-b8f9e12405a0","03d12dc6-79b3-42a5-88c2-9b18a9e5f1ee","{""num_scrambled_semantic"":""8"",""num_scrambled_causal"":""4"",""num_scrambled_schematic"":""4"",""participantId"":""688BAD21A190420FBC93CC5669EF6F25"",""assignmentId"":""2d7ac1b8-e2c3-4f65-93a6-b8f9e12405a0"",""projectId"":""03d12dc6-79b3-42a5-88c2-9b18a9e5f1ee""}","https://test12345.live/?num_scrambled_semantic=8&num_scrambled_causal=4&num_scrambled_schematic=4&participantId=688BAD21A190420FBC93CC5669EF6F25&assignmentId=2d7ac1b8-e2c3-4f65-93a6-b8f9e12405a0&projectId=03d12dc6-79b3-42a5-88c2-9b18a9e5f1ee","688BAD21A190420FBC93CC5669EF6F25-2025-05-15-15-31-20","","null","","images/causal_sequence/dog_causal/dog_causal_2.png","null","",""
"","","","","","image-button-response","29","238511","0.0-10.0-1.0-1.1","688BAD21A190420FBC93CC5669EF6F25","688BAD21A190420FBC93CC5669EF6F25","2d7ac1b8-e2c3-4f65-93a6-b8f9e12405a0","03d12dc6-79b3-42a5-88c2-9b18a9e5f1ee","{""num_scrambled_semantic"":""8"",""num_scrambled_causal"":""4"",""num_scrambled_schematic"":""4"",""participantId"":""688BAD21A190420FBC93CC5669EF6F25"",""assignmentId"":""2d7ac1b8-e2c3-4f65-93a6-b8f9e12405a0"",""projectId"":""03d12dc6-79b3-42a5-88c2-9b18a9e5f1ee""}","https://test12345.live/?num_scrambled_semantic=8&num_scrambled_causal=4&num_scrambled_schematic=4&participantId=688BAD21A190420FBC93CC5669EF6F25&assignmentId=2d7ac1b8-e2c3-4f65-93a6-b8f9e12405a0&projectId=03d12dc6-79b3-42a5-88c2-9b18a9e5f1ee","688BAD21A190420FBC93CC5669EF6F25-2025-05-15-15-31-20","","989","","images/causal_sequence/dog_causal/dog_causal_2.png","0","",""
"","","","","","image-button-response","30","240315","0.0-10.0-1.0-2.1","688BAD21A190420FBC93CC5669EF6F25","688BAD21A190420FBC93CC5669EF6F25","2d7ac1b8-e2c3-4f65-93a6-b8f9e12405a0","03d12dc6-79b3-42a5-88c2-9b18a9e5f1ee","{""num_scrambled_semantic"":""8"",""num_scrambled_causal"":""4"",""num_scrambled_schematic"":""4"",""participantId"":""688BAD21A190420FBC93CC5669EF6F25"",""assignmentId"":""2d7ac1b8-e2c3-4f65-93a6-b8f9e12405a0"",""projectId"":""03d12dc6-79b3-42a5-88c2-9b18a9e5f1ee""}","https://test12345.live/?num_scrambled_semantic=8&num_scrambled_causal=4&num_scrambled_schematic=4&participantId=688BAD21A190420FBC93CC5669EF6F25&assignmentId=2d7ac1b8-e2c3-4f65-93a6-b8f9e12405a0&projectId=03d12dc6-79b3-42a5-88c2-9b18a9e5f1ee","688BAD21A190420FBC93CC5669EF6F25-2025-05-15-15-31-20","","null","","[]","null","",""
"","","","","","image-button-response","31","244832","0.0-10.0-1.0-0.2","688BAD21A190420FBC93CC5669EF6F25","688BAD21A190420FBC93CC5669EF6F25","2d7ac1b8-e2c3-4f65-93a6-b8f9e12405a0","03d12dc6-79b3-42a5-88c2-9b18a9e5f1ee","{""num_scrambled_semantic"":""8"",""num_scrambled_causal"":""4"",""num_scrambled_schematic"":""4"",""participantId"":""688BAD21A190420FBC93CC5669EF6F25"",""assignmentId"":""2d7ac1b8-e2c3-4f65-93a6-b8f9e12405a0"",""projectId"":""03d12dc6-79b3-42a5-88c2-9b18a9e5f1ee""}","https://test12345.live/?num_scrambled_semantic=8&num_scrambled_causal=4&num_scrambled_schematic=4&participantId=688BAD21A190420FBC93CC5669EF6F25&assignmentId=2d7ac1b8-e2c3-4f65-93a6-b8f9e12405a0&projectId=03d12dc6-79b3-42a5-88c2-9b18a9e5f1ee","688BAD21A190420FBC93CC5669EF6F25-2025-05-15-15-31-20","","null","","images/causal_sequence/dog_causal/dog_causal_8.png","null","",""
"","","","","","image-button-response","32","245765","0.0-10.0-1.0-1.2","688BAD21A190420FBC93CC5669EF6F25","688BAD21A190420FBC93CC5669EF6F25","2d7ac1b8-e2c3-4f65-93a6-b8f9e12405a0","03d12dc6-79b3-42a5-88c2-9b18a9e5f1ee","{""num_scrambled_semantic"":""8"",""num_scrambled_causal"":""4"",""num_scrambled_schematic"":""4"",""participantId"":""688BAD21A190420FBC93CC5669EF6F25"",""assignmentId"":""2d7ac1b8-e2c3-4f65-93a6-b8f9e12405a0"",""projectId"":""03d12dc6-79b3-42a5-88c2-9b18a9e5f1ee""}","https://test12345.live/?num_scrambled_semantic=8&num_scrambled_causal=4&num_scrambled_schematic=4&participantId=688BAD21A190420FBC93CC5669EF6F25&assignmentId=2d7ac1b8-e2c3-4f65-93a6-b8f9e12405a0&projectId=03d12dc6-79b3-42a5-88c2-9b18a9e5f1ee","688BAD21A190420FBC93CC5669EF6F25-2025-05-15-15-31-20","","931","","images/causal_sequence/dog_causal/dog_causal_8.png","0","",""
"","","","","","image-button-response","33","247572","0.0-10.0-1.0-2.2","688BAD21A190420FBC93CC5669EF6F25","688BAD21A190420FBC93CC5669EF6F25","2d7ac1b8-e2c3-4f65-93a6-b8f9e12405a0","03d12dc6-79b3-42a5-88c2-9b18a9e5f1ee","{""num_scrambled_semantic"":""8"",""num_scrambled_causal"":""4"",""num_scrambled_schematic"":""4"",""participantId"":""688BAD21A190420FBC93CC5669EF6F25"",""assignmentId"":""2d7ac1b8-e2c3-4f65-93a6-b8f9e12405a0"",""projectId"":""03d12dc6-79b3-42a5-88c2-9b18a9e5f1ee""}","https://test12345.live/?num_scrambled_semantic=8&num_scrambled_causal=4&num_scrambled_schematic=4&participantId=688BAD21A190420FBC93CC5669EF6F25&assignmentId=2d7ac1b8-e2c3-4f65-93a6-b8f9e12405a0&projectId=03d12dc6-79b3-42a5-88c2-9b18a9e5f1ee","688BAD21A190420FBC93CC5669EF6F25-2025-05-15-15-31-20","","null","","[]","null","",""
"","","","","","image-button-response","34","252074","0.0-10.0-1.0-0.3","688BAD21A190420FBC93CC5669EF6F25","688BAD21A190420FBC93CC5669EF6F25","2d7ac1b8-e2c3-4f65-93a6-b8f9e12405a0","03d12dc6-79b3-42a5-88c2-9b18a9e5f1ee","{""num_scrambled_semantic"":""8"",""num_scrambled_causal"":""4"",""num_scrambled_schematic"":""4"",""participantId"":""688BAD21A190420FBC93CC5669EF6F25"",""assignmentId"":""2d7ac1b8-e2c3-4f65-93a6-b8f9e12405a0"",""projectId"":""03d12dc6-79b3-42a5-88c2-9b18a9e5f1ee""}","https://test12345.live/?num_scrambled_semantic=8&num_scrambled_causal=4&num_scrambled_schematic=4&participantId=688BAD21A190420FBC93CC5669EF6F25&assignmentId=2d7ac1b8-e2c3-4f65-93a6-b8f9e12405a0&projectId=03d12dc6-79b3-42a5-88c2-9b18a9e5f1ee","688BAD21A190420FBC93CC5669EF6F25-2025-05-15-15-31-20","","null","","images/causal_sequence/dog_causal/dog_causal_7.png","null","",""
"","","","","","image-button-response","35","253146","0.0-10.0-1.0-1.3","688BAD21A190420FBC93CC5669EF6F25","688BAD21A190420FBC93CC5669EF6F25","2d7ac1b8-e2c3-4f65-93a6-b8f9e12405a0","03d12dc6-79b3-42a5-88c2-9b18a9e5f1ee","{""num_scrambled_semantic"":""8"",""num_scrambled_causal"":""4"",""num_scrambled_schematic"":""4"",""participantId"":""688BAD21A190420FBC93CC5669EF6F25"",""assignmentId"":""2d7ac1b8-e2c3-4f65-93a6-b8f9e12405a0"",""projectId"":""03d12dc6-79b3-42a5-88c2-9b18a9e5f1ee""}","https://test12345.live/?num_scrambled_semantic=8&num_scrambled_causal=4&num_scrambled_schematic=4&participantId=688BAD21A190420FBC93CC5669EF6F25&assignmentId=2d7ac1b8-e2c3-4f65-93a6-b8f9e12405a0&projectId=03d12dc6-79b3-42a5-88c2-9b18a9e5f1ee","688BAD21A190420FBC93CC5669EF6F25-2025-05-15-15-31-20","","1071","","images/causal_sequence/dog_causal/dog_causal_7.png","0","",""
"","","","","","image-button-response","36","254950","0.0-10.0-1.0-2.3","688BAD21A190420FBC93CC5669EF6F25","688BAD21A190420FBC93CC5669EF6F25","2d7ac1b8-e2c3-4f65-93a6-b8f9e12405a0","03d12dc6-79b3-42a5-88c2-9b18a9e5f1ee","{""num_scrambled_semantic"":""8"",""num_scrambled_causal"":""4"",""num_scrambled_schematic"":""4"",""participantId"":""688BAD21A190420FBC93CC5669EF6F25"",""assignmentId"":""2d7ac1b8-e2c3-4f65-93a6-b8f9e12405a0"",""projectId"":""03d12dc6-79b3-42a5-88c2-9b18a9e5f1ee""}","https://test12345.live/?num_scrambled_semantic=8&num_scrambled_causal=4&num_scrambled_schematic=4&participantId=688BAD21A190420FBC93CC5669EF6F25&assignmentId=2d7ac1b8-e2c3-4f65-93a6-b8f9e12405a0&projectId=03d12dc6-79b3-42a5-88c2-9b18a9e5f1ee","688BAD21A190420FBC93CC5669EF6F25-2025-05-15-15-31-20","","null","","[]","null","",""
"","","","","","image-button-response","37","259464","0.0-10.0-1.0-0.4","688BAD21A190420FBC93CC5669EF6F25","688BAD21A190420FBC93CC5669EF6F25","2d7ac1b8-e2c3-4f65-93a6-b8f9e12405a0","03d12dc6-79b3-42a5-88c2-9b18a9e5f1ee","{""num_scrambled_semantic"":""8"",""num_scrambled_causal"":""4"",""num_scrambled_schematic"":""4"",""participantId"":""688BAD21A190420FBC93CC5669EF6F25"",""assignmentId"":""2d7ac1b8-e2c3-4f65-93a6-b8f9e12405a0"",""projectId"":""03d12dc6-79b3-42a5-88c2-9b18a9e5f1ee""}","https://test12345.live/?num_scrambled_semantic=8&num_scrambled_causal=4&num_scrambled_schematic=4&participantId=688BAD21A190420FBC93CC5669EF6F25&assignmentId=2d7ac1b8-e2c3-4f65-93a6-b8f9e12405a0&projectId=03d12dc6-79b3-42a5-88c2-9b18a9e5f1ee","688BAD21A190420FBC93CC5669EF6F25-2025-05-15-15-31-20","","null","","images/causal_sequence/dog_causal/dog_causal_3.png","null","",""
"","","","","","image-button-response","38","263061","0.0-10.0-1.0-1.4","688BAD21A190420FBC93CC5669EF6F25","688BAD21A190420FBC93CC5669EF6F25","2d7ac1b8-e2c3-4f65-93a6-b8f9e12405a0","03d12dc6-79b3-42a5-88c2-9b18a9e5f1ee","{""num_scrambled_semantic"":""8"",""num_scrambled_causal"":""4"",""num_scrambled_schematic"":""4"",""participantId"":""688BAD21A190420FBC93CC5669EF6F25"",""assignmentId"":""2d7ac1b8-e2c3-4f65-93a6-b8f9e12405a0"",""projectId"":""03d12dc6-79b3-42a5-88c2-9b18a9e5f1ee""}","https://test12345.live/?num_scrambled_semantic=8&num_scrambled_causal=4&num_scrambled_schematic=4&participantId=688BAD21A190420FBC93CC5669EF6F25&assignmentId=2d7ac1b8-e2c3-4f65-93a6-b8f9e12405a0&projectId=03d12dc6-79b3-42a5-88c2-9b18a9e5f1ee","688BAD21A190420FBC93CC5669EF6F25-2025-05-15-15-31-20","","3595","","images/causal_sequence/dog_causal/dog_causal_3.png","0","",""
"","","","","","image-button-response","39","264878","0.0-10.0-1.0-2.4","688BAD21A190420FBC93CC5669EF6F25","688BAD21A190420FBC93CC5669EF6F25","2d7ac1b8-e2c3-4f65-93a6-b8f9e12405a0","03d12dc6-79b3-42a5-88c2-9b18a9e5f1ee","{""num_scrambled_semantic"":""8"",""num_scrambled_causal"":""4"",""num_scrambled_schematic"":""4"",""participantId"":""688BAD21A190420FBC93CC5669EF6F25"",""assignmentId"":""2d7ac1b8-e2c3-4f65-93a6-b8f9e12405a0"",""projectId"":""03d12dc6-79b3-42a5-88c2-9b18a9e5f1ee""}","https://test12345.live/?num_scrambled_semantic=8&num_scrambled_causal=4&num_scrambled_schematic=4&participantId=688BAD21A190420FBC93CC5669EF6F25&assignmentId=2d7ac1b8-e2c3-4f65-93a6-b8f9e12405a0&projectId=03d12dc6-79b3-42a5-88c2-9b18a9e5f1ee","688BAD21A190420FBC93CC5669EF6F25-2025-05-15-15-31-20","","null","","[]","null","",""
"","","","","","image-button-response","40","269391","0.0-10.0-1.0-0.5","688BAD21A190420FBC93CC5669EF6F25","688BAD21A190420FBC93CC5669EF6F25","2d7ac1b8-e2c3-4f65-93a6-b8f9e12405a0","03d12dc6-79b3-42a5-88c2-9b18a9e5f1ee","{""num_scrambled_semantic"":""8"",""num_scrambled_causal"":""4"",""num_scrambled_schematic"":""4"",""participantId"":""688BAD21A190420FBC93CC5669EF6F25"",""assignmentId"":""2d7ac1b8-e2c3-4f65-93a6-b8f9e12405a0"",""projectId"":""03d12dc6-79b3-42a5-88c2-9b18a9e5f1ee""}","https://test12345.live/?num_scrambled_semantic=8&num_scrambled_causal=4&num_scrambled_schematic=4&participantId=688BAD21A190420FBC93CC5669EF6F25&assignmentId=2d7ac1b8-e2c3-4f65-93a6-b8f9e12405a0&projectId=03d12dc6-79b3-42a5-88c2-9b18a9e5f1ee","688BAD21A190420FBC93CC5669EF6F25-2025-05-15-15-31-20","","null","","images/causal_sequence/dog_causal/dog_causal_6.png","null","",""
"","","","","","image-button-response","41","270490","0.0-10.0-1.0-1.5","688BAD21A190420FBC93CC5669EF6F25","688BAD21A190420FBC93CC5669EF6F25","2d7ac1b8-e2c3-4f65-93a6-b8f9e12405a0","03d12dc6-79b3-42a5-88c2-9b18a9e5f1ee","{""num_scrambled_semantic"":""8"",""num_scrambled_causal"":""4"",""num_scrambled_schematic"":""4"",""participantId"":""688BAD21A190420FBC93CC5669EF6F25"",""assignmentId"":""2d7ac1b8-e2c3-4f65-93a6-b8f9e12405a0"",""projectId"":""03d12dc6-79b3-42a5-88c2-9b18a9e5f1ee""}","https://test12345.live/?num_scrambled_semantic=8&num_scrambled_causal=4&num_scrambled_schematic=4&participantId=688BAD21A190420FBC93CC5669EF6F25&assignmentId=2d7ac1b8-e2c3-4f65-93a6-b8f9e12405a0&projectId=03d12dc6-79b3-42a5-88c2-9b18a9e5f1ee","688BAD21A190420FBC93CC5669EF6F25-2025-05-15-15-31-20","","1097","","images/causal_sequence/dog_causal/dog_causal_6.png","0","",""
"","","","","","image-button-response","42","272308","0.0-10.0-1.0-2.5","688BAD21A190420FBC93CC5669EF6F25","688BAD21A190420FBC93CC5669EF6F25","2d7ac1b8-e2c3-4f65-93a6-b8f9e12405a0","03d12dc6-79b3-42a5-88c2-9b18a9e5f1ee","{""num_scrambled_semantic"":""8"",""num_scrambled_causal"":""4"",""num_scrambled_schematic"":""4"",""participantId"":""688BAD21A190420FBC93CC5669EF6F25"",""assignmentId"":""2d7ac1b8-e2c3-4f65-93a6-b8f9e12405a0"",""projectId"":""03d12dc6-79b3-42a5-88c2-9b18a9e5f1ee""}","https://test12345.live/?num_scrambled_semantic=8&num_scrambled_causal=4&num_scrambled_schematic=4&participantId=688BAD21A190420FBC93CC5669EF6F25&assignmentId=2d7ac1b8-e2c3-4f65-93a6-b8f9e12405a0&projectId=03d12dc6-79b3-42a5-88c2-9b18a9e5f1ee","688BAD21A190420FBC93CC5669EF6F25-2025-05-15-15-31-20","","null","","[]","null","",""
"","","","","","image-button-response","43","276825","0.0-10.0-1.0-0.6","688BAD21A190420FBC93CC5669EF6F25","688BAD21A190420FBC93CC5669EF6F25","2d7ac1b8-e2c3-4f65-93a6-b8f9e12405a0","03d12dc6-79b3-42a5-88c2-9b18a9e5f1ee","{""num_scrambled_semantic"":""8"",""num_scrambled_causal"":""4"",""num_scrambled_schematic"":""4"",""participantId"":""688BAD21A190420FBC93CC5669EF6F25"",""assignmentId"":""2d7ac1b8-e2c3-4f65-93a6-b8f9e12405a0"",""projectId"":""03d12dc6-79b3-42a5-88c2-9b18a9e5f1ee""}","https://test12345.live/?num_scrambled_semantic=8&num_scrambled_causal=4&num_scrambled_schematic=4&participantId=688BAD21A190420FBC93CC5669EF6F25&assignmentId=2d7ac1b8-e2c3-4f65-93a6-b8f9e12405a0&projectId=03d12dc6-79b3-42a5-88c2-9b18a9e5f1ee","688BAD21A190420FBC93CC5669EF6F25-2025-05-15-15-31-20","","null","","images/causal_sequence/dog_causal/dog_causal_9.png","null","",""
"","","","","","image-button-response","44","277888","0.0-10.0-1.0-1.6","688BAD21A190420FBC93CC5669EF6F25","688BAD21A190420FBC93CC5669EF6F25","2d7ac1b8-e2c3-4f65-93a6-b8f9e12405a0","03d12dc6-79b3-42a5-88c2-9b18a9e5f1ee","{""num_scrambled_semantic"":""8"",""num_scrambled_causal"":""4"",""num_scrambled_schematic"":""4"",""participantId"":""688BAD21A190420FBC93CC5669EF6F25"",""assignmentId"":""2d7ac1b8-e2c3-4f65-93a6-b8f9e12405a0"",""projectId"":""03d12dc6-79b3-42a5-88c2-9b18a9e5f1ee""}","https://test12345.live/?num_scrambled_semantic=8&num_scrambled_causal=4&num_scrambled_schematic=4&participantId=688BAD21A190420FBC93CC5669EF6F25&assignmentId=2d7ac1b8-e2c3-4f65-93a6-b8f9e12405a0&projectId=03d12dc6-79b3-42a5-88c2-9b18a9e5f1ee","688BAD21A190420FBC93CC5669EF6F25-2025-05-15-15-31-20","","1061","","images/causal_sequence/dog_causal/dog_causal_9.png","0","",""
"","","","","","image-button-response","45","279699","0.0-10.0-1.0-2.6","688BAD21A190420FBC93CC5669EF6F25","688BAD21A190420FBC93CC5669EF6F25","2d7ac1b8-e2c3-4f65-93a6-b8f9e12405a0","03d12dc6-79b3-42a5-88c2-9b18a9e5f1ee","{""num_scrambled_semantic"":""8"",""num_scrambled_causal"":""4"",""num_scrambled_schematic"":""4"",""participantId"":""688BAD21A190420FBC93CC5669EF6F25"",""assignmentId"":""2d7ac1b8-e2c3-4f65-93a6-b8f9e12405a0"",""projectId"":""03d12dc6-79b3-42a5-88c2-9b18a9e5f1ee""}","https://test12345.live/?num_scrambled_semantic=8&num_scrambled_causal=4&num_scrambled_schematic=4&participantId=688BAD21A190420FBC93CC5669EF6F25&assignmentId=2d7ac1b8-e2c3-4f65-93a6-b8f9e12405a0&projectId=03d12dc6-79b3-42a5-88c2-9b18a9e5f1ee","688BAD21A190420FBC93CC5669EF6F25-2025-05-15-15-31-20","","null","","[]","null","",""
"","","","","","image-button-response","46","284208","0.0-10.0-1.0-0.7","688BAD21A190420FBC93CC5669EF6F25","688BAD21A190420FBC93CC5669EF6F25","2d7ac1b8-e2c3-4f65-93a6-b8f9e12405a0","03d12dc6-79b3-42a5-88c2-9b18a9e5f1ee","{""num_scrambled_semantic"":""8"",""num_scrambled_causal"":""4"",""num_scrambled_schematic"":""4"",""participantId"":""688BAD21A190420FBC93CC5669EF6F25"",""assignmentId"":""2d7ac1b8-e2c3-4f65-93a6-b8f9e12405a0"",""projectId"":""03d12dc6-79b3-42a5-88c2-9b18a9e5f1ee""}","https://test12345.live/?num_scrambled_semantic=8&num_scrambled_causal=4&num_scrambled_schematic=4&participantId=688BAD21A190420FBC93CC5669EF6F25&assignmentId=2d7ac1b8-e2c3-4f65-93a6-b8f9e12405a0&projectId=03d12dc6-79b3-42a5-88c2-9b18a9e5f1ee","688BAD21A190420FBC93CC5669EF6F25-2025-05-15-15-31-20","","null","","images/causal_sequence/dog_causal/dog_causal_4.png","null","",""
"","","","","","image-button-response","47","285534","0.0-10.0-1.0-1.7","688BAD21A190420FBC93CC5669EF6F25","688BAD21A190420FBC93CC5669EF6F25","2d7ac1b8-e2c3-4f65-93a6-b8f9e12405a0","03d12dc6-79b3-42a5-88c2-9b18a9e5f1ee","{""num_scrambled_semantic"":""8"",""num_scrambled_causal"":""4"",""num_scrambled_schematic"":""4"",""participantId"":""688BAD21A190420FBC93CC5669EF6F25"",""assignmentId"":""2d7ac1b8-e2c3-4f65-93a6-b8f9e12405a0"",""projectId"":""03d12dc6-79b3-42a5-88c2-9b18a9e5f1ee""}","https://test12345.live/?num_scrambled_semantic=8&num_scrambled_causal=4&num_scrambled_schematic=4&participantId=688BAD21A190420FBC93CC5669EF6F25&assignmentId=2d7ac1b8-e2c3-4f65-93a6-b8f9e12405a0&projectId=03d12dc6-79b3-42a5-88c2-9b18a9e5f1ee","688BAD21A190420FBC93CC5669EF6F25-2025-05-15-15-31-20","","1324","","images/causal_sequence/dog_causal/dog_causal_4.png","0","",""
"","","","","","image-button-response","48","287344","0.0-10.0-1.0-2.7","688BAD21A190420FBC93CC5669EF6F25","688BAD21A190420FBC93CC5669EF6F25","2d7ac1b8-e2c3-4f65-93a6-b8f9e12405a0","03d12dc6-79b3-42a5-88c2-9b18a9e5f1ee","{""num_scrambled_semantic"":""8"",""num_scrambled_causal"":""4"",""num_scrambled_schematic"":""4"",""participantId"":""688BAD21A190420FBC93CC5669EF6F25"",""assignmentId"":""2d7ac1b8-e2c3-4f65-93a6-b8f9e12405a0"",""projectId"":""03d12dc6-79b3-42a5-88c2-9b18a9e5f1ee""}","https://test12345.live/?num_scrambled_semantic=8&num_scrambled_causal=4&num_scrambled_schematic=4&participantId=688BAD21A190420FBC93CC5669EF6F25&assignmentId=2d7ac1b8-e2c3-4f65-93a6-b8f9e12405a0&projectId=03d12dc6-79b3-42a5-88c2-9b18a9e5f1ee","688BAD21A190420FBC93CC5669EF6F25-2025-05-15-15-31-20","","null","","[]","null","",""
"","","","","","image-button-response","49","291852","0.0-10.0-1.0-0.8","688BAD21A190420FBC93CC5669EF6F25","688BAD21A190420FBC93CC5669EF6F25","2d7ac1b8-e2c3-4f65-93a6-b8f9e12405a0","03d12dc6-79b3-42a5-88c2-9b18a9e5f1ee","{""num_scrambled_semantic"":""8"",""num_scrambled_causal"":""4"",""num_scrambled_schematic"":""4"",""participantId"":""688BAD21A190420FBC93CC5669EF6F25"",""assignmentId"":""2d7ac1b8-e2c3-4f65-93a6-b8f9e12405a0"",""projectId"":""03d12dc6-79b3-42a5-88c2-9b18a9e5f1ee""}","https://test12345.live/?num_scrambled_semantic=8&num_scrambled_causal=4&num_scrambled_schematic=4&participantId=688BAD21A190420FBC93CC5669EF6F25&assignmentId=2d7ac1b8-e2c3-4f65-93a6-b8f9e12405a0&projectId=03d12dc6-79b3-42a5-88c2-9b18a9e5f1ee","688BAD21A190420FBC93CC5669EF6F25-2025-05-15-15-31-20","","null","","images/causal_sequence/dog_causal/dog_causal_1.png","null","",""
"","","","","","image-button-response","50","293237","0.0-10.0-1.0-1.8","688BAD21A190420FBC93CC5669EF6F25","688BAD21A190420FBC93CC5669EF6F25","2d7ac1b8-e2c3-4f65-93a6-b8f9e12405a0","03d12dc6-79b3-42a5-88c2-9b18a9e5f1ee","{""num_scrambled_semantic"":""8"",""num_scrambled_causal"":""4"",""num_scrambled_schematic"":""4"",""participantId"":""688BAD21A190420FBC93CC5669EF6F25"",""assignmentId"":""2d7ac1b8-e2c3-4f65-93a6-b8f9e12405a0"",""projectId"":""03d12dc6-79b3-42a5-88c2-9b18a9e5f1ee""}","https://test12345.live/?num_scrambled_semantic=8&num_scrambled_causal=4&num_scrambled_schematic=4&participantId=688BAD21A190420FBC93CC5669EF6F25&assignmentId=2d7ac1b8-e2c3-4f65-93a6-b8f9e12405a0&projectId=03d12dc6-79b3-42a5-88c2-9b18a9e5f1ee","688BAD21A190420FBC93CC5669EF6F25-2025-05-15-15-31-20","","1384","","images/causal_sequence/dog_causal/dog_causal_1.png","0","",""
"","","","","","image-button-response","51","295042","0.0-10.0-1.0-2.8","688BAD21A190420FBC93CC5669EF6F25","688BAD21A190420FBC93CC5669EF6F25","2d7ac1b8-e2c3-4f65-93a6-b8f9e12405a0","03d12dc6-79b3-42a5-88c2-9b18a9e5f1ee","{""num_scrambled_semantic"":""8"",""num_scrambled_causal"":""4"",""num_scrambled_schematic"":""4"",""participantId"":""688BAD21A190420FBC93CC5669EF6F25"",""assignmentId"":""2d7ac1b8-e2c3-4f65-93a6-b8f9e12405a0"",""projectId"":""03d12dc6-79b3-42a5-88c2-9b18a9e5f1ee""}","https://test12345.live/?num_scrambled_semantic=8&num_scrambled_causal=4&num_scrambled_schematic=4&participantId=688BAD21A190420FBC93CC5669EF6F25&assignmentId=2d7ac1b8-e2c3-4f65-93a6-b8f9e12405a0&projectId=03d12dc6-79b3-42a5-88c2-9b18a9e5f1ee","688BAD21A190420FBC93CC5669EF6F25-2025-05-15-15-31-20","","null","","[]","null","",""
"","","","","","image-button-response","52","299557","0.0-10.0-1.0-0.9","688BAD21A190420FBC93CC5669EF6F25","688BAD21A190420FBC93CC5669EF6F25","2d7ac1b8-e2c3-4f65-93a6-b8f9e12405a0","03d12dc6-79b3-42a5-88c2-9b18a9e5f1ee","{""num_scrambled_semantic"":""8"",""num_scrambled_causal"":""4"",""num_scrambled_schematic"":""4"",""participantId"":""688BAD21A190420FBC93CC5669EF6F25"",""assignmentId"":""2d7ac1b8-e2c3-4f65-93a6-b8f9e12405a0"",""projectId"":""03d12dc6-79b3-42a5-88c2-9b18a9e5f1ee""}","https://test12345.live/?num_scrambled_semantic=8&num_scrambled_causal=4&num_scrambled_schematic=4&participantId=688BAD21A190420FBC93CC5669EF6F25&assignmentId=2d7ac1b8-e2c3-4f65-93a6-b8f9e12405a0&projectId=03d12dc6-79b3-42a5-88c2-9b18a9e5f1ee","688BAD21A190420FBC93CC5669EF6F25-2025-05-15-15-31-20","","null","","images/causal_sequence/dog_causal/dog_causal_5.png","null","",""
"","","","","","image-button-response","53","300295","0.0-10.0-1.0-1.9","688BAD21A190420FBC93CC5669EF6F25","688BAD21A190420FBC93CC5669EF6F25","2d7ac1b8-e2c3-4f65-93a6-b8f9e12405a0","03d12dc6-79b3-42a5-88c2-9b18a9e5f1ee","{""num_scrambled_semantic"":""8"",""num_scrambled_causal"":""4"",""num_scrambled_schematic"":""4"",""participantId"":""688BAD21A190420FBC93CC5669EF6F25"",""assignmentId"":""2d7ac1b8-e2c3-4f65-93a6-b8f9e12405a0"",""projectId"":""03d12dc6-79b3-42a5-88c2-9b18a9e5f1ee""}","https://test12345.live/?num_scrambled_semantic=8&num_scrambled_causal=4&num_scrambled_schematic=4&participantId=688BAD21A190420FBC93CC5669EF6F25&assignmentId=2d7ac1b8-e2c3-4f65-93a6-b8f9e12405a0&projectId=03d12dc6-79b3-42a5-88c2-9b18a9e5f1ee","688BAD21A190420FBC93CC5669EF6F25-2025-05-15-15-31-20","","736","","images/causal_sequence/dog_causal/dog_causal_5.png","0","",""
"","","","","","image-button-response","54","302102","0.0-10.0-1.0-2.9","688BAD21A190420FBC93CC5669EF6F25","688BAD21A190420FBC93CC5669EF6F25","2d7ac1b8-e2c3-4f65-93a6-b8f9e12405a0","03d12dc6-79b3-42a5-88c2-9b18a9e5f1ee","{""num_scrambled_semantic"":""8"",""num_scrambled_causal"":""4"",""num_scrambled_schematic"":""4"",""participantId"":""688BAD21A190420FBC93CC5669EF6F25"",""assignmentId"":""2d7ac1b8-e2c3-4f65-93a6-b8f9e12405a0"",""projectId"":""03d12dc6-79b3-42a5-88c2-9b18a9e5f1ee""}","https://test12345.live/?num_scrambled_semantic=8&num_scrambled_causal=4&num_scrambled_schematic=4&participantId=688BAD21A190420FBC93CC5669EF6F25&assignmentId=2d7ac1b8-e2c3-4f65-93a6-b8f9e12405a0&projectId=03d12dc6-79b3-42a5-88c2-9b18a9e5f1ee","688BAD21A190420FBC93CC5669EF6F25-2025-05-15-15-31-20","","null","","[]","null","",""
"","","","","","html-audio-response","55","358699","0.0-11.0","688BAD21A190420FBC93CC5669EF6F25","688BAD21A190420FBC93CC5669EF6F25","2d7ac1b8-e2c3-4f65-93a6-b8f9e12405a0","03d12dc6-79b3-42a5-88c2-9b18a9e5f1ee","{""num_scrambled_semantic"":""8"",""num_scrambled_causal"":""4"",""num_scrambled_schematic"":""4"",""participantId"":""688BAD21A190420FBC93CC5669EF6F25"",""assignmentId"":""2d7ac1b8-e2c3-4f65-93a6-b8f9e12405a0"",""projectId"":""03d12dc6-79b3-42a5-88c2-9b18a9e5f1ee""}","https://test12345.live/?num_scrambled_semantic=8&num_scrambled_causal=4&num_scrambled_schematic=4&participantId=688BAD21A190420FBC93CC5669EF6F25&assignmentId=2d7ac1b8-e2c3-4f65-93a6-b8f9e12405a0&projectId=03d12dc6-79b3-42a5-88c2-9b18a9e5f1ee","688BAD21A190420FBC93CC5669EF6F25-2025-05-15-15-31-20","","54762","","[""<span style=\""color: red; font-size: 24px\""> NOW RECORDING</span><p>Please say out loud all the images you saw, as many as you can remember. The images can be said in any order.</p>""]","","1","dog_causal"
"","","","","","image-button-response","56","364723","0.0-12.0-0.0","688BAD21A190420FBC93CC5669EF6F25","688BAD21A190420FBC93CC5669EF6F25","2d7ac1b8-e2c3-4f65-93a6-b8f9e12405a0","03d12dc6-79b3-42a5-88c2-9b18a9e5f1ee","{""num_scrambled_semantic"":""8"",""num_scrambled_causal"":""4"",""num_scrambled_schematic"":""4"",""participantId"":""688BAD21A190420FBC93CC5669EF6F25"",""assignmentId"":""2d7ac1b8-e2c3-4f65-93a6-b8f9e12405a0"",""projectId"":""03d12dc6-79b3-42a5-88c2-9b18a9e5f1ee""}","https://test12345.live/?num_scrambled_semantic=8&num_scrambled_causal=4&num_scrambled_schematic=4&participantId=688BAD21A190420FBC93CC5669EF6F25&assignmentId=2d7ac1b8-e2c3-4f65-93a6-b8f9e12405a0&projectId=03d12dc6-79b3-42a5-88c2-9b18a9e5f1ee","688BAD21A190420FBC93CC5669EF6F25-2025-05-15-15-31-20","","null","","images/schematic_sequence/dinner_party_scheme/dinner_party_scheme_0.png","null","",""
"","","","","","image-button-response","57","369229","0.0-12.0-1.0-0.0","688BAD21A190420FBC93CC5669EF6F25","688BAD21A190420FBC93CC5669EF6F25","2d7ac1b8-e2c3-4f65-93a6-b8f9e12405a0","03d12dc6-79b3-42a5-88c2-9b18a9e5f1ee","{""num_scrambled_semantic"":""8"",""num_scrambled_causal"":""4"",""num_scrambled_schematic"":""4"",""participantId"":""688BAD21A190420FBC93CC5669EF6F25"",""assignmentId"":""2d7ac1b8-e2c3-4f65-93a6-b8f9e12405a0"",""projectId"":""03d12dc6-79b3-42a5-88c2-9b18a9e5f1ee""}","https://test12345.live/?num_scrambled_semantic=8&num_scrambled_causal=4&num_scrambled_schematic=4&participantId=688BAD21A190420FBC93CC5669EF6F25&assignmentId=2d7ac1b8-e2c3-4f65-93a6-b8f9e12405a0&projectId=03d12dc6-79b3-42a5-88c2-9b18a9e5f1ee","688BAD21A190420FBC93CC5669EF6F25-2025-05-15-15-31-20","","null","","images/schematic_sequence/dinner_party_scheme/dinner_party_scheme_7.png","null","",""
"","","","","","image-button-response","58","371218","0.0-12.0-1.0-1.0","688BAD21A190420FBC93CC5669EF6F25","688BAD21A190420FBC93CC5669EF6F25","2d7ac1b8-e2c3-4f65-93a6-b8f9e12405a0","03d12dc6-79b3-42a5-88c2-9b18a9e5f1ee","{""num_scrambled_semantic"":""8"",""num_scrambled_causal"":""4"",""num_scrambled_schematic"":""4"",""participantId"":""688BAD21A190420FBC93CC5669EF6F25"",""assignmentId"":""2d7ac1b8-e2c3-4f65-93a6-b8f9e12405a0"",""projectId"":""03d12dc6-79b3-42a5-88c2-9b18a9e5f1ee""}","https://test12345.live/?num_scrambled_semantic=8&num_scrambled_causal=4&num_scrambled_schematic=4&participantId=688BAD21A190420FBC93CC5669EF6F25&assignmentId=2d7ac1b8-e2c3-4f65-93a6-b8f9e12405a0&projectId=03d12dc6-79b3-42a5-88c2-9b18a9e5f1ee","688BAD21A190420FBC93CC5669EF6F25-2025-05-15-15-31-20","","1988","","images/schematic_sequence/dinner_party_scheme/dinner_party_scheme_7.png","0","",""
"","","","","","image-button-response","59","373035","0.0-12.0-1.0-2.0","688BAD21A190420FBC93CC5669EF6F25","688BAD21A190420FBC93CC5669EF6F25","2d7ac1b8-e2c3-4f65-93a6-b8f9e12405a0","03d12dc6-79b3-42a5-88c2-9b18a9e5f1ee","{""num_scrambled_semantic"":""8"",""num_scrambled_causal"":""4"",""num_scrambled_schematic"":""4"",""participantId"":""688BAD21A190420FBC93CC5669EF6F25"",""assignmentId"":""2d7ac1b8-e2c3-4f65-93a6-b8f9e12405a0"",""projectId"":""03d12dc6-79b3-42a5-88c2-9b18a9e5f1ee""}","https://test12345.live/?num_scrambled_semantic=8&num_scrambled_causal=4&num_scrambled_schematic=4&participantId=688BAD21A190420FBC93CC5669EF6F25&assignmentId=2d7ac1b8-e2c3-4f65-93a6-b8f9e12405a0&projectId=03d12dc6-79b3-42a5-88c2-9b18a9e5f1ee","688BAD21A190420FBC93CC5669EF6F25-2025-05-15-15-31-20","","null","","[]","null","",""
"","","","","","image-button-response","60","377545","0.0-12.0-1.0-0.1","688BAD21A190420FBC93CC5669EF6F25","688BAD21A190420FBC93CC5669EF6F25","2d7ac1b8-e2c3-4f65-93a6-b8f9e12405a0","03d12dc6-79b3-42a5-88c2-9b18a9e5f1ee","{""num_scrambled_semantic"":""8"",""num_scrambled_causal"":""4"",""num_scrambled_schematic"":""4"",""participantId"":""688BAD21A190420FBC93CC5669EF6F25"",""assignmentId"":""2d7ac1b8-e2c3-4f65-93a6-b8f9e12405a0"",""projectId"":""03d12dc6-79b3-42a5-88c2-9b18a9e5f1ee""}","https://test12345.live/?num_scrambled_semantic=8&num_scrambled_causal=4&num_scrambled_schematic=4&participantId=688BAD21A190420FBC93CC5669EF6F25&assignmentId=2d7ac1b8-e2c3-4f65-93a6-b8f9e12405a0&projectId=03d12dc6-79b3-42a5-88c2-9b18a9e5f1ee","688BAD21A190420FBC93CC5669EF6F25-2025-05-15-15-31-20","","null","","images/schematic_sequence/dinner_party_scheme/dinner_party_scheme_8.png","null","",""
"","","","","","image-button-response","61","379210","0.0-12.0-1.0-1.1","688BAD21A190420FBC93CC5669EF6F25","688BAD21A190420FBC93CC5669EF6F25","2d7ac1b8-e2c3-4f65-93a6-b8f9e12405a0","03d12dc6-79b3-42a5-88c2-9b18a9e5f1ee","{""num_scrambled_semantic"":""8"",""num_scrambled_causal"":""4"",""num_scrambled_schematic"":""4"",""participantId"":""688BAD21A190420FBC93CC5669EF6F25"",""assignmentId"":""2d7ac1b8-e2c3-4f65-93a6-b8f9e12405a0"",""projectId"":""03d12dc6-79b3-42a5-88c2-9b18a9e5f1ee""}","https://test12345.live/?num_scrambled_semantic=8&num_scrambled_causal=4&num_scrambled_schematic=4&participantId=688BAD21A190420FBC93CC5669EF6F25&assignmentId=2d7ac1b8-e2c3-4f65-93a6-b8f9e12405a0&projectId=03d12dc6-79b3-42a5-88c2-9b18a9e5f1ee","688BAD21A190420FBC93CC5669EF6F25-2025-05-15-15-31-20","","1663","","images/schematic_sequence/dinner_party_scheme/dinner_party_scheme_8.png","0","",""
"","","","","","image-button-response","62","381012","0.0-12.0-1.0-2.1","688BAD21A190420FBC93CC5669EF6F25","688BAD21A190420FBC93CC5669EF6F25","2d7ac1b8-e2c3-4f65-93a6-b8f9e12405a0","03d12dc6-79b3-42a5-88c2-9b18a9e5f1ee","{""num_scrambled_semantic"":""8"",""num_scrambled_causal"":""4"",""num_scrambled_schematic"":""4"",""participantId"":""688BAD21A190420FBC93CC5669EF6F25"",""assignmentId"":""2d7ac1b8-e2c3-4f65-93a6-b8f9e12405a0"",""projectId"":""03d12dc6-79b3-42a5-88c2-9b18a9e5f1ee""}","https://test12345.live/?num_scrambled_semantic=8&num_scrambled_causal=4&num_scrambled_schematic=4&participantId=688BAD21A190420FBC93CC5669EF6F25&assignmentId=2d7ac1b8-e2c3-4f65-93a6-b8f9e12405a0&projectId=03d12dc6-79b3-42a5-88c2-9b18a9e5f1ee","688BAD21A190420FBC93CC5669EF6F25-2025-05-15-15-31-20","","null","","[]","null","",""
"","","","","","image-button-response","63","385524","0.0-12.0-1.0-0.2","688BAD21A190420FBC93CC5669EF6F25","688BAD21A190420FBC93CC5669EF6F25","2d7ac1b8-e2c3-4f65-93a6-b8f9e12405a0","03d12dc6-79b3-42a5-88c2-9b18a9e5f1ee","{""num_scrambled_semantic"":""8"",""num_scrambled_causal"":""4"",""num_scrambled_schematic"":""4"",""participantId"":""688BAD21A190420FBC93CC5669EF6F25"",""assignmentId"":""2d7ac1b8-e2c3-4f65-93a6-b8f9e12405a0"",""projectId"":""03d12dc6-79b3-42a5-88c2-9b18a9e5f1ee""}","https://test12345.live/?num_scrambled_semantic=8&num_scrambled_causal=4&num_scrambled_schematic=4&participantId=688BAD21A190420FBC93CC5669EF6F25&assignmentId=2d7ac1b8-e2c3-4f65-93a6-b8f9e12405a0&projectId=03d12dc6-79b3-42a5-88c2-9b18a9e5f1ee","688BAD21A190420FBC93CC5669EF6F25-2025-05-15-15-31-20","","null","","images/schematic_sequence/dinner_party_scheme/dinner_party_scheme_ten.png","null","",""
"","","","","","image-button-response","64","386994","0.0-12.0-1.0-1.2","688BAD21A190420FBC93CC5669EF6F25","688BAD21A190420FBC93CC5669EF6F25","2d7ac1b8-e2c3-4f65-93a6-b8f9e12405a0","03d12dc6-79b3-42a5-88c2-9b18a9e5f1ee","{""num_scrambled_semantic"":""8"",""num_scrambled_causal"":""4"",""num_scrambled_schematic"":""4"",""participantId"":""688BAD21A190420FBC93CC5669EF6F25"",""assignmentId"":""2d7ac1b8-e2c3-4f65-93a6-b8f9e12405a0"",""projectId"":""03d12dc6-79b3-42a5-88c2-9b18a9e5f1ee""}","https://test12345.live/?num_scrambled_semantic=8&num_scrambled_causal=4&num_scrambled_schematic=4&participantId=688BAD21A190420FBC93CC5669EF6F25&assignmentId=2d7ac1b8-e2c3-4f65-93a6-b8f9e12405a0&projectId=03d12dc6-79b3-42a5-88c2-9b18a9e5f1ee","688BAD21A190420FBC93CC5669EF6F25-2025-05-15-15-31-20","","1468","","images/schematic_sequence/dinner_party_scheme/dinner_party_scheme_ten.png","0","",""
"","","","","","image-button-response","65","388805","0.0-12.0-1.0-2.2","688BAD21A190420FBC93CC5669EF6F25","688BAD21A190420FBC93CC5669EF6F25","2d7ac1b8-e2c3-4f65-93a6-b8f9e12405a0","03d12dc6-79b3-42a5-88c2-9b18a9e5f1ee","{""num_scrambled_semantic"":""8"",""num_scrambled_causal"":""4"",""num_scrambled_schematic"":""4"",""participantId"":""688BAD21A190420FBC93CC5669EF6F25"",""assignmentId"":""2d7ac1b8-e2c3-4f65-93a6-b8f9e12405a0"",""projectId"":""03d12dc6-79b3-42a5-88c2-9b18a9e5f1ee""}","https://test12345.live/?num_scrambled_semantic=8&num_scrambled_causal=4&num_scrambled_schematic=4&participantId=688BAD21A190420FBC93CC5669EF6F25&assignmentId=2d7ac1b8-e2c3-4f65-93a6-b8f9e12405a0&projectId=03d12dc6-79b3-42a5-88c2-9b18a9e5f1ee","688BAD21A190420FBC93CC5669EF6F25-2025-05-15-15-31-20","","null","","[]","null","",""
"","","","","","image-button-response","66","393319","0.0-12.0-1.0-0.3","688BAD21A190420FBC93CC5669EF6F25","688BAD21A190420FBC93CC5669EF6F25","2d7ac1b8-e2c3-4f65-93a6-b8f9e12405a0","03d12dc6-79b3-42a5-88c2-9b18a9e5f1ee","{""num_scrambled_semantic"":""8"",""num_scrambled_causal"":""4"",""num_scrambled_schematic"":""4"",""participantId"":""688BAD21A190420FBC93CC5669EF6F25"",""assignmentId"":""2d7ac1b8-e2c3-4f65-93a6-b8f9e12405a0"",""projectId"":""03d12dc6-79b3-42a5-88c2-9b18a9e5f1ee""}","https://test12345.live/?num_scrambled_semantic=8&num_scrambled_causal=4&num_scrambled_schematic=4&participantId=688BAD21A190420FBC93CC5669EF6F25&assignmentId=2d7ac1b8-e2c3-4f65-93a6-b8f9e12405a0&projectId=03d12dc6-79b3-42a5-88c2-9b18a9e5f1ee","688BAD21A190420FBC93CC5669EF6F25-2025-05-15-15-31-20","","null","","images/schematic_sequence/dinner_party_scheme/dinner_party_scheme_5.png","null","",""
"","","","","","image-button-response","67","394045","0.0-12.0-1.0-1.3","688BAD21A190420FBC93CC5669EF6F25","688BAD21A190420FBC93CC5669EF6F25","2d7ac1b8-e2c3-4f65-93a6-b8f9e12405a0","03d12dc6-79b3-42a5-88c2-9b18a9e5f1ee","{""num_scrambled_semantic"":""8"",""num_scrambled_causal"":""4"",""num_scrambled_schematic"":""4"",""participantId"":""688BAD21A190420FBC93CC5669EF6F25"",""assignmentId"":""2d7ac1b8-e2c3-4f65-93a6-b8f9e12405a0"",""projectId"":""03d12dc6-79b3-42a5-88c2-9b18a9e5f1ee""}","https://test12345.live/?num_scrambled_semantic=8&num_scrambled_causal=4&num_scrambled_schematic=4&participantId=688BAD21A190420FBC93CC5669EF6F25&assignmentId=2d7ac1b8-e2c3-4f65-93a6-b8f9e12405a0&projectId=03d12dc6-79b3-42a5-88c2-9b18a9e5f1ee","688BAD21A190420FBC93CC5669EF6F25-2025-05-15-15-31-20","","724","","images/schematic_sequence/dinner_party_scheme/dinner_party_scheme_5.png","0","",""
"","","","","","image-button-response","68","395856","0.0-12.0-1.0-2.3","688BAD21A190420FBC93CC5669EF6F25","688BAD21A190420FBC93CC5669EF6F25","2d7ac1b8-e2c3-4f65-93a6-b8f9e12405a0","03d12dc6-79b3-42a5-88c2-9b18a9e5f1ee","{""num_scrambled_semantic"":""8"",""num_scrambled_causal"":""4"",""num_scrambled_schematic"":""4"",""participantId"":""688BAD21A190420FBC93CC5669EF6F25"",""assignmentId"":""2d7ac1b8-e2c3-4f65-93a6-b8f9e12405a0"",""projectId"":""03d12dc6-79b3-42a5-88c2-9b18a9e5f1ee""}","https://test12345.live/?num_scrambled_semantic=8&num_scrambled_causal=4&num_scrambled_schematic=4&participantId=688BAD21A190420FBC93CC5669EF6F25&assignmentId=2d7ac1b8-e2c3-4f65-93a6-b8f9e12405a0&projectId=03d12dc6-79b3-42a5-88c2-9b18a9e5f1ee","688BAD21A190420FBC93CC5669EF6F25-2025-05-15-15-31-20","","null","","[]","null","",""
"","","","","","image-button-response","69","400368","0.0-12.0-1.0-0.4","688BAD21A190420FBC93CC5669EF6F25","688BAD21A190420FBC93CC5669EF6F25","2d7ac1b8-e2c3-4f65-93a6-b8f9e12405a0","03d12dc6-79b3-42a5-88c2-9b18a9e5f1ee","{""num_scrambled_semantic"":""8"",""num_scrambled_causal"":""4"",""num_scrambled_schematic"":""4"",""participantId"":""688BAD21A190420FBC93CC5669EF6F25"",""assignmentId"":""2d7ac1b8-e2c3-4f65-93a6-b8f9e12405a0"",""projectId"":""03d12dc6-79b3-42a5-88c2-9b18a9e5f1ee""}","https://test12345.live/?num_scrambled_semantic=8&num_scrambled_causal=4&num_scrambled_schematic=4&participantId=688BAD21A190420FBC93CC5669EF6F25&assignmentId=2d7ac1b8-e2c3-4f65-93a6-b8f9e12405a0&projectId=03d12dc6-79b3-42a5-88c2-9b18a9e5f1ee","688BAD21A190420FBC93CC5669EF6F25-2025-05-15-15-31-20","","null","","images/schematic_sequence/dinner_party_scheme/dinner_party_scheme_9.png","null","",""
"","","","","","image-button-response","70","401244","0.0-12.0-1.0-1.4","688BAD21A190420FBC93CC5669EF6F25","688BAD21A190420FBC93CC5669EF6F25","2d7ac1b8-e2c3-4f65-93a6-b8f9e12405a0","03d12dc6-79b3-42a5-88c2-9b18a9e5f1ee","{""num_scrambled_semantic"":""8"",""num_scrambled_causal"":""4"",""num_scrambled_schematic"":""4"",""participantId"":""688BAD21A190420FBC93CC5669EF6F25"",""assignmentId"":""2d7ac1b8-e2c3-4f65-93a6-b8f9e12405a0"",""projectId"":""03d12dc6-79b3-42a5-88c2-9b18a9e5f1ee""}","https://test12345.live/?num_scrambled_semantic=8&num_scrambled_causal=4&num_scrambled_schematic=4&participantId=688BAD21A190420FBC93CC5669EF6F25&assignmentId=2d7ac1b8-e2c3-4f65-93a6-b8f9e12405a0&projectId=03d12dc6-79b3-42a5-88c2-9b18a9e5f1ee","688BAD21A190420FBC93CC5669EF6F25-2025-05-15-15-31-20","","874","","images/schematic_sequence/dinner_party_scheme/dinner_party_scheme_9.png","0","",""
"","","","","","image-button-response","71","403047","0.0-12.0-1.0-2.4","688BAD21A190420FBC93CC5669EF6F25","688BAD21A190420FBC93CC5669EF6F25","2d7ac1b8-e2c3-4f65-93a6-b8f9e12405a0","03d12dc6-79b3-42a5-88c2-9b18a9e5f1ee","{""num_scrambled_semantic"":""8"",""num_scrambled_causal"":""4"",""num_scrambled_schematic"":""4"",""participantId"":""688BAD21A190420FBC93CC5669EF6F25"",""assignmentId"":""2d7ac1b8-e2c3-4f65-93a6-b8f9e12405a0"",""projectId"":""03d12dc6-79b3-42a5-88c2-9b18a9e5f1ee""}","https://test12345.live/?num_scrambled_semantic=8&num_scrambled_causal=4&num_scrambled_schematic=4&participantId=688BAD21A190420FBC93CC5669EF6F25&assignmentId=2d7ac1b8-e2c3-4f65-93a6-b8f9e12405a0&projectId=03d12dc6-79b3-42a5-88c2-9b18a9e5f1ee","688BAD21A190420FBC93CC5669EF6F25-2025-05-15-15-31-20","","null","","[]","null","",""
"","","","","","image-button-response","72","407557","0.0-12.0-1.0-0.5","688BAD21A190420FBC93CC5669EF6F25","688BAD21A190420FBC93CC5669EF6F25","2d7ac1b8-e2c3-4f65-93a6-b8f9e12405a0","03d12dc6-79b3-42a5-88c2-9b18a9e5f1ee","{""num_scrambled_semantic"":""8"",""num_scrambled_causal"":""4"",""num_scrambled_schematic"":""4"",""participantId"":""688BAD21A190420FBC93CC5669EF6F25"",""assignmentId"":""2d7ac1b8-e2c3-4f65-93a6-b8f9e12405a0"",""projectId"":""03d12dc6-79b3-42a5-88c2-9b18a9e5f1ee""}","https://test12345.live/?num_scrambled_semantic=8&num_scrambled_causal=4&num_scrambled_schematic=4&participantId=688BAD21A190420FBC93CC5669EF6F25&assignmentId=2d7ac1b8-e2c3-4f65-93a6-b8f9e12405a0&projectId=03d12dc6-79b3-42a5-88c2-9b18a9e5f1ee","688BAD21A190420FBC93CC5669EF6F25-2025-05-15-15-31-20","","null","","images/schematic_sequence/dinner_party_scheme/dinner_party_scheme_6.png","null","",""
"","","","","","image-button-response","73","408750","0.0-12.0-1.0-1.5","688BAD21A190420FBC93CC5669EF6F25","688BAD21A190420FBC93CC5669EF6F25","2d7ac1b8-e2c3-4f65-93a6-b8f9e12405a0","03d12dc6-79b3-42a5-88c2-9b18a9e5f1ee","{""num_scrambled_semantic"":""8"",""num_scrambled_causal"":""4"",""num_scrambled_schematic"":""4"",""participantId"":""688BAD21A190420FBC93CC5669EF6F25"",""assignmentId"":""2d7ac1b8-e2c3-4f65-93a6-b8f9e12405a0"",""projectId"":""03d12dc6-79b3-42a5-88c2-9b18a9e5f1ee""}","https://test12345.live/?num_scrambled_semantic=8&num_scrambled_causal=4&num_scrambled_schematic=4&participantId=688BAD21A190420FBC93CC5669EF6F25&assignmentId=2d7ac1b8-e2c3-4f65-93a6-b8f9e12405a0&projectId=03d12dc6-79b3-42a5-88c2-9b18a9e5f1ee","688BAD21A190420FBC93CC5669EF6F25-2025-05-15-15-31-20","","1191","","images/schematic_sequence/dinner_party_scheme/dinner_party_scheme_6.png","0","",""
"","","","","","image-button-response","74","410554","0.0-12.0-1.0-2.5","688BAD21A190420FBC93CC5669EF6F25","688BAD21A190420FBC93CC5669EF6F25","2d7ac1b8-e2c3-4f65-93a6-b8f9e12405a0","03d12dc6-79b3-42a5-88c2-9b18a9e5f1ee","{""num_scrambled_semantic"":""8"",""num_scrambled_causal"":""4"",""num_scrambled_schematic"":""4"",""participantId"":""688BAD21A190420FBC93CC5669EF6F25"",""assignmentId"":""2d7ac1b8-e2c3-4f65-93a6-b8f9e12405a0"",""projectId"":""03d12dc6-79b3-42a5-88c2-9b18a9e5f1ee""}","https://test12345.live/?num_scrambled_semantic=8&num_scrambled_causal=4&num_scrambled_schematic=4&participantId=688BAD21A190420FBC93CC5669EF6F25&assignmentId=2d7ac1b8-e2c3-4f65-93a6-b8f9e12405a0&projectId=03d12dc6-79b3-42a5-88c2-9b18a9e5f1ee","688BAD21A190420FBC93CC5669EF6F25-2025-05-15-15-31-20","","null","","[]","null","",""
"","","","","","image-button-response","75","415059","0.0-12.0-1.0-0.6","688BAD21A190420FBC93CC5669EF6F25","688BAD21A190420FBC93CC5669EF6F25","2d7ac1b8-e2c3-4f65-93a6-b8f9e12405a0","03d12dc6-79b3-42a5-88c2-9b18a9e5f1ee","{""num_scrambled_semantic"":""8"",""num_scrambled_causal"":""4"",""num_scrambled_schematic"":""4"",""participantId"":""688BAD21A190420FBC93CC5669EF6F25"",""assignmentId"":""2d7ac1b8-e2c3-4f65-93a6-b8f9e12405a0"",""projectId"":""03d12dc6-79b3-42a5-88c2-9b18a9e5f1ee""}","https://test12345.live/?num_scrambled_semantic=8&num_scrambled_causal=4&num_scrambled_schematic=4&participantId=688BAD21A190420FBC93CC5669EF6F25&assignmentId=2d7ac1b8-e2c3-4f65-93a6-b8f9e12405a0&projectId=03d12dc6-79b3-42a5-88c2-9b18a9e5f1ee","688BAD21A190420FBC93CC5669EF6F25-2025-05-15-15-31-20","","null","","images/schematic_sequence/dinner_party_scheme/dinner_party_scheme_4.png","null","",""
"","","","","","image-button-response","76","416365","0.0-12.0-1.0-1.6","688BAD21A190420FBC93CC5669EF6F25","688BAD21A190420FBC93CC5669EF6F25","2d7ac1b8-e2c3-4f65-93a6-b8f9e12405a0","03d12dc6-79b3-42a5-88c2-9b18a9e5f1ee","{""num_scrambled_semantic"":""8"",""num_scrambled_causal"":""4"",""num_scrambled_schematic"":""4"",""participantId"":""688BAD21A190420FBC93CC5669EF6F25"",""assignmentId"":""2d7ac1b8-e2c3-4f65-93a6-b8f9e12405a0"",""projectId"":""03d12dc6-79b3-42a5-88c2-9b18a9e5f1ee""}","https://test12345.live/?num_scrambled_semantic=8&num_scrambled_causal=4&num_scrambled_schematic=4&participantId=688BAD21A190420FBC93CC5669EF6F25&assignmentId=2d7ac1b8-e2c3-4f65-93a6-b8f9e12405a0&projectId=03d12dc6-79b3-42a5-88c2-9b18a9e5f1ee","688BAD21A190420FBC93CC5669EF6F25-2025-05-15-15-31-20","","1305","","images/schematic_sequence/dinner_party_scheme/dinner_party_scheme_4.png","0","",""
"","","","","","image-button-response","77","418171","0.0-12.0-1.0-2.6","688BAD21A190420FBC93CC5669EF6F25","688BAD21A190420FBC93CC5669EF6F25","2d7ac1b8-e2c3-4f65-93a6-b8f9e12405a0","03d12dc6-79b3-42a5-88c2-9b18a9e5f1ee","{""num_scrambled_semantic"":""8"",""num_scrambled_causal"":""4"",""num_scrambled_schematic"":""4"",""participantId"":""688BAD21A190420FBC93CC5669EF6F25"",""assignmentId"":""2d7ac1b8-e2c3-4f65-93a6-b8f9e12405a0"",""projectId"":""03d12dc6-79b3-42a5-88c2-9b18a9e5f1ee""}","https://test12345.live/?num_scrambled_semantic=8&num_scrambled_causal=4&num_scrambled_schematic=4&participantId=688BAD21A190420FBC93CC5669EF6F25&assignmentId=2d7ac1b8-e2c3-4f65-93a6-b8f9e12405a0&projectId=03d12dc6-79b3-42a5-88c2-9b18a9e5f1ee","688BAD21A190420FBC93CC5669EF6F25-2025-05-15-15-31-20","","null","","[]","null","",""
"","","","","","image-button-response","78","422687","0.0-12.0-1.0-0.7","688BAD21A190420FBC93CC5669EF6F25","688BAD21A190420FBC93CC5669EF6F25","2d7ac1b8-e2c3-4f65-93a6-b8f9e12405a0","03d12dc6-79b3-42a5-88c2-9b18a9e5f1ee","{""num_scrambled_semantic"":""8"",""num_scrambled_causal"":""4"",""num_scrambled_schematic"":""4"",""participantId"":""688BAD21A190420FBC93CC5669EF6F25"",""assignmentId"":""2d7ac1b8-e2c3-4f65-93a6-b8f9e12405a0"",""projectId"":""03d12dc6-79b3-42a5-88c2-9b18a9e5f1ee""}","https://test12345.live/?num_scrambled_semantic=8&num_scrambled_causal=4&num_scrambled_schematic=4&participantId=688BAD21A190420FBC93CC5669EF6F25&assignmentId=2d7ac1b8-e2c3-4f65-93a6-b8f9e12405a0&projectId=03d12dc6-79b3-42a5-88c2-9b18a9e5f1ee","688BAD21A190420FBC93CC5669EF6F25-2025-05-15-15-31-20","","null","","images/schematic_sequence/dinner_party_scheme/dinner_party_scheme_1.png","null","",""
"","","","","","image-button-response","79","423564","0.0-12.0-1.0-1.7","688BAD21A190420FBC93CC5669EF6F25","688BAD21A190420FBC93CC5669EF6F25","2d7ac1b8-e2c3-4f65-93a6-b8f9e12405a0","03d12dc6-79b3-42a5-88c2-9b18a9e5f1ee","{""num_scrambled_semantic"":""8"",""num_scrambled_causal"":""4"",""num_scrambled_schematic"":""4"",""participantId"":""688BAD21A190420FBC93CC5669EF6F25"",""assignmentId"":""2d7ac1b8-e2c3-4f65-93a6-b8f9e12405a0"",""projectId"":""03d12dc6-79b3-42a5-88c2-9b18a9e5f1ee""}","https://test12345.live/?num_scrambled_semantic=8&num_scrambled_causal=4&num_scrambled_schematic=4&participantId=688BAD21A190420FBC93CC5669EF6F25&assignmentId=2d7ac1b8-e2c3-4f65-93a6-b8f9e12405a0&projectId=03d12dc6-79b3-42a5-88c2-9b18a9e5f1ee","688BAD21A190420FBC93CC5669EF6F25-2025-05-15-15-31-20","","876","","images/schematic_sequence/dinner_party_scheme/dinner_party_scheme_1.png","0","",""
"","","","","","image-button-response","80","425369","0.0-12.0-1.0-2.7","688BAD21A190420FBC93CC5669EF6F25","688BAD21A190420FBC93CC5669EF6F25","2d7ac1b8-e2c3-4f65-93a6-b8f9e12405a0","03d12dc6-79b3-42a5-88c2-9b18a9e5f1ee","{""num_scrambled_semantic"":""8"",""num_scrambled_causal"":""4"",""num_scrambled_schematic"":""4"",""participantId"":""688BAD21A190420FBC93CC5669EF6F25"",""assignmentId"":""2d7ac1b8-e2c3-4f65-93a6-b8f9e12405a0"",""projectId"":""03d12dc6-79b3-42a5-88c2-9b18a9e5f1ee""}","https://test12345.live/?num_scrambled_semantic=8&num_scrambled_causal=4&num_scrambled_schematic=4&participantId=688BAD21A190420FBC93CC5669EF6F25&assignmentId=2d7ac1b8-e2c3-4f65-93a6-b8f9e12405a0&projectId=03d12dc6-79b3-42a5-88c2-9b18a9e5f1ee","688BAD21A190420FBC93CC5669EF6F25-2025-05-15-15-31-20","","null","","[]","null","",""
"","","","","","image-button-response","81","429876","0.0-12.0-1.0-0.8","688BAD21A190420FBC93CC5669EF6F25","688BAD21A190420FBC93CC5669EF6F25","2d7ac1b8-e2c3-4f65-93a6-b8f9e12405a0","03d12dc6-79b3-42a5-88c2-9b18a9e5f1ee","{""num_scrambled_semantic"":""8"",""num_scrambled_causal"":""4"",""num_scrambled_schematic"":""4"",""participantId"":""688BAD21A190420FBC93CC5669EF6F25"",""assignmentId"":""2d7ac1b8-e2c3-4f65-93a6-b8f9e12405a0"",""projectId"":""03d12dc6-79b3-42a5-88c2-9b18a9e5f1ee""}","https://test12345.live/?num_scrambled_semantic=8&num_scrambled_causal=4&num_scrambled_schematic=4&participantId=688BAD21A190420FBC93CC5669EF6F25&assignmentId=2d7ac1b8-e2c3-4f65-93a6-b8f9e12405a0&projectId=03d12dc6-79b3-42a5-88c2-9b18a9e5f1ee","688BAD21A190420FBC93CC5669EF6F25-2025-05-15-15-31-20","","null","","images/schematic_sequence/dinner_party_scheme/dinner_party_scheme_3.png","null","",""
"","","","","","image-button-response","82","430471","0.0-12.0-1.0-1.8","688BAD21A190420FBC93CC5669EF6F25","688BAD21A190420FBC93CC5669EF6F25","2d7ac1b8-e2c3-4f65-93a6-b8f9e12405a0","03d12dc6-79b3-42a5-88c2-9b18a9e5f1ee","{""num_scrambled_semantic"":""8"",""num_scrambled_causal"":""4"",""num_scrambled_schematic"":""4"",""participantId"":""688BAD21A190420FBC93CC5669EF6F25"",""assignmentId"":""2d7ac1b8-e2c3-4f65-93a6-b8f9e12405a0"",""projectId"":""03d12dc6-79b3-42a5-88c2-9b18a9e5f1ee""}","https://test12345.live/?num_scrambled_semantic=8&num_scrambled_causal=4&num_scrambled_schematic=4&participantId=688BAD21A190420FBC93CC5669EF6F25&assignmentId=2d7ac1b8-e2c3-4f65-93a6-b8f9e12405a0&projectId=03d12dc6-79b3-42a5-88c2-9b18a9e5f1ee","688BAD21A190420FBC93CC5669EF6F25-2025-05-15-15-31-20","","594","","images/schematic_sequence/dinner_party_scheme/dinner_party_scheme_3.png","0","",""
"","","","","","image-button-response","83","432284","0.0-12.0-1.0-2.8","688BAD21A190420FBC93CC5669EF6F25","688BAD21A190420FBC93CC5669EF6F25","2d7ac1b8-e2c3-4f65-93a6-b8f9e12405a0","03d12dc6-79b3-42a5-88c2-9b18a9e5f1ee","{""num_scrambled_semantic"":""8"",""num_scrambled_causal"":""4"",""num_scrambled_schematic"":""4"",""participantId"":""688BAD21A190420FBC93CC5669EF6F25"",""assignmentId"":""2d7ac1b8-e2c3-4f65-93a6-b8f9e12405a0"",""projectId"":""03d12dc6-79b3-42a5-88c2-9b18a9e5f1ee""}","https://test12345.live/?num_scrambled_semantic=8&num_scrambled_causal=4&num_scrambled_schematic=4&participantId=688BAD21A190420FBC93CC5669EF6F25&assignmentId=2d7ac1b8-e2c3-4f65-93a6-b8f9e12405a0&projectId=03d12dc6-79b3-42a5-88c2-9b18a9e5f1ee","688BAD21A190420FBC93CC5669EF6F25-2025-05-15-15-31-20","","null","","[]","null","",""
"","","","","","image-button-response","84","436789","0.0-12.0-1.0-0.9","688BAD21A190420FBC93CC5669EF6F25","688BAD21A190420FBC93CC5669EF6F25","2d7ac1b8-e2c3-4f65-93a6-b8f9e12405a0","03d12dc6-79b3-42a5-88c2-9b18a9e5f1ee","{""num_scrambled_semantic"":""8"",""num_scrambled_causal"":""4"",""num_scrambled_schematic"":""4"",""participantId"":""688BAD21A190420FBC93CC5669EF6F25"",""assignmentId"":""2d7ac1b8-e2c3-4f65-93a6-b8f9e12405a0"",""projectId"":""03d12dc6-79b3-42a5-88c2-9b18a9e5f1ee""}","https://test12345.live/?num_scrambled_semantic=8&num_scrambled_causal=4&num_scrambled_schematic=4&participantId=688BAD21A190420FBC93CC5669EF6F25&assignmentId=2d7ac1b8-e2c3-4f65-93a6-b8f9e12405a0&projectId=03d12dc6-79b3-42a5-88c2-9b18a9e5f1ee","688BAD21A190420FBC93CC5669EF6F25-2025-05-15-15-31-20","","null","","images/schematic_sequence/dinner_party_scheme/dinner_party_scheme_2.png","null","",""
"","","","","","image-button-response","85","437619","0.0-12.0-1.0-1.9","688BAD21A190420FBC93CC5669EF6F25","688BAD21A190420FBC93CC5669EF6F25","2d7ac1b8-e2c3-4f65-93a6-b8f9e12405a0","03d12dc6-79b3-42a5-88c2-9b18a9e5f1ee","{""num_scrambled_semantic"":""8"",""num_scrambled_causal"":""4"",""num_scrambled_schematic"":""4"",""participantId"":""688BAD21A190420FBC93CC5669EF6F25"",""assignmentId"":""2d7ac1b8-e2c3-4f65-93a6-b8f9e12405a0"",""projectId"":""03d12dc6-79b3-42a5-88c2-9b18a9e5f1ee""}","https://test12345.live/?num_scrambled_semantic=8&num_scrambled_causal=4&num_scrambled_schematic=4&participantId=688BAD21A190420FBC93CC5669EF6F25&assignmentId=2d7ac1b8-e2c3-4f65-93a6-b8f9e12405a0&projectId=03d12dc6-79b3-42a5-88c2-9b18a9e5f1ee","688BAD21A190420FBC93CC5669EF6F25-2025-05-15-15-31-20","","828","","images/schematic_sequence/dinner_party_scheme/dinner_party_scheme_2.png","0","",""
"","","","","","image-button-response","86","439428","0.0-12.0-1.0-2.9","688BAD21A190420FBC93CC5669EF6F25","688BAD21A190420FBC93CC5669EF6F25","2d7ac1b8-e2c3-4f65-93a6-b8f9e12405a0","03d12dc6-79b3-42a5-88c2-9b18a9e5f1ee","{""num_scrambled_semantic"":""8"",""num_scrambled_causal"":""4"",""num_scrambled_schematic"":""4"",""participantId"":""688BAD21A190420FBC93CC5669EF6F25"",""assignmentId"":""2d7ac1b8-e2c3-4f65-93a6-b8f9e12405a0"",""projectId"":""03d12dc6-79b3-42a5-88c2-9b18a9e5f1ee""}","https://test12345.live/?num_scrambled_semantic=8&num_scrambled_causal=4&num_scrambled_schematic=4&participantId=688BAD21A190420FBC93CC5669EF6F25&assignmentId=2d7ac1b8-e2c3-4f65-93a6-b8f9e12405a0&projectId=03d12dc6-79b3-42a5-88c2-9b18a9e5f1ee","688BAD21A190420FBC93CC5669EF6F25-2025-05-15-15-31-20","","null","","[]","null","",""
"","","","","","html-audio-response","87","476911","0.0-13.0","688BAD21A190420FBC93CC5669EF6F25","688BAD21A190420FBC93CC5669EF6F25","2d7ac1b8-e2c3-4f65-93a6-b8f9e12405a0","03d12dc6-79b3-42a5-88c2-9b18a9e5f1ee","{""num_scrambled_semantic"":""8"",""num_scrambled_causal"":""4"",""num_scrambled_schematic"":""4"",""participantId"":""688BAD21A190420FBC93CC5669EF6F25"",""assignmentId"":""2d7ac1b8-e2c3-4f65-93a6-b8f9e12405a0"",""projectId"":""03d12dc6-79b3-42a5-88c2-9b18a9e5f1ee""}","https://test12345.live/?num_scrambled_semantic=8&num_scrambled_causal=4&num_scrambled_schematic=4&participantId=688BAD21A190420FBC93CC5669EF6F25&assignmentId=2d7ac1b8-e2c3-4f65-93a6-b8f9e12405a0&projectId=03d12dc6-79b3-42a5-88c2-9b18a9e5f1ee","688BAD21A190420FBC93CC5669EF6F25-2025-05-15-15-31-20","","36524","","[""<span style=\""color: red; font-size: 24px\""> NOW RECORDING</span><p>Please say out loud all the images you saw, as many as you can remember. The images can be said in any order.</p>""]","","2","dinner_party_scheme"
"","","","","","image-button-response","88","482930","0.0-14.0-0.0","688BAD21A190420FBC93CC5669EF6F25","688BAD21A190420FBC93CC5669EF6F25","2d7ac1b8-e2c3-4f65-93a6-b8f9e12405a0","03d12dc6-79b3-42a5-88c2-9b18a9e5f1ee","{""num_scrambled_semantic"":""8"",""num_scrambled_causal"":""4"",""num_scrambled_schematic"":""4"",""participantId"":""688BAD21A190420FBC93CC5669EF6F25"",""assignmentId"":""2d7ac1b8-e2c3-4f65-93a6-b8f9e12405a0"",""projectId"":""03d12dc6-79b3-42a5-88c2-9b18a9e5f1ee""}","https://test12345.live/?num_scrambled_semantic=8&num_scrambled_causal=4&num_scrambled_schematic=4&participantId=688BAD21A190420FBC93CC5669EF6F25&assignmentId=2d7ac1b8-e2c3-4f65-93a6-b8f9e12405a0&projectId=03d12dc6-79b3-42a5-88c2-9b18a9e5f1ee","688BAD21A190420FBC93CC5669EF6F25-2025-05-15-15-31-20","","null","","images/schematic_sequence/restaurant_scheme/restaurant_scheme_0.png","null","",""
"","","","","","image-button-response","89","487446","0.0-14.0-1.0-0.0","688BAD21A190420FBC93CC5669EF6F25","688BAD21A190420FBC93CC5669EF6F25","2d7ac1b8-e2c3-4f65-93a6-b8f9e12405a0","03d12dc6-79b3-42a5-88c2-9b18a9e5f1ee","{""num_scrambled_semantic"":""8"",""num_scrambled_causal"":""4"",""num_scrambled_schematic"":""4"",""participantId"":""688BAD21A190420FBC93CC5669EF6F25"",""assignmentId"":""2d7ac1b8-e2c3-4f65-93a6-b8f9e12405a0"",""projectId"":""03d12dc6-79b3-42a5-88c2-9b18a9e5f1ee""}","https://test12345.live/?num_scrambled_semantic=8&num_scrambled_causal=4&num_scrambled_schematic=4&participantId=688BAD21A190420FBC93CC5669EF6F25&assignmentId=2d7ac1b8-e2c3-4f65-93a6-b8f9e12405a0&projectId=03d12dc6-79b3-42a5-88c2-9b18a9e5f1ee","688BAD21A190420FBC93CC5669EF6F25-2025-05-15-15-31-20","","null","","images/schematic_sequence/restaurant_scheme/restaurant_scheme_1.png","null","",""
"","","","","","image-button-response","90","489774","0.0-14.0-1.0-1.0","688BAD21A190420FBC93CC5669EF6F25","688BAD21A190420FBC93CC5669EF6F25","2d7ac1b8-e2c3-4f65-93a6-b8f9e12405a0","03d12dc6-79b3-42a5-88c2-9b18a9e5f1ee","{""num_scrambled_semantic"":""8"",""num_scrambled_causal"":""4"",""num_scrambled_schematic"":""4"",""participantId"":""688BAD21A190420FBC93CC5669EF6F25"",""assignmentId"":""2d7ac1b8-e2c3-4f65-93a6-b8f9e12405a0"",""projectId"":""03d12dc6-79b3-42a5-88c2-9b18a9e5f1ee""}","https://test12345.live/?num_scrambled_semantic=8&num_scrambled_causal=4&num_scrambled_schematic=4&participantId=688BAD21A190420FBC93CC5669EF6F25&assignmentId=2d7ac1b8-e2c3-4f65-93a6-b8f9e12405a0&projectId=03d12dc6-79b3-42a5-88c2-9b18a9e5f1ee","688BAD21A190420FBC93CC5669EF6F25-2025-05-15-15-31-20","","2326","","images/schematic_sequence/restaurant_scheme/restaurant_scheme_1.png","0","",""
"","","","","","image-button-response","91","491579","0.0-14.0-1.0-2.0","688BAD21A190420FBC93CC5669EF6F25","688BAD21A190420FBC93CC5669EF6F25","2d7ac1b8-e2c3-4f65-93a6-b8f9e12405a0","03d12dc6-79b3-42a5-88c2-9b18a9e5f1ee","{""num_scrambled_semantic"":""8"",""num_scrambled_causal"":""4"",""num_scrambled_schematic"":""4"",""participantId"":""688BAD21A190420FBC93CC5669EF6F25"",""assignmentId"":""2d7ac1b8-e2c3-4f65-93a6-b8f9e12405a0"",""projectId"":""03d12dc6-79b3-42a5-88c2-9b18a9e5f1ee""}","https://test12345.live/?num_scrambled_semantic=8&num_scrambled_causal=4&num_scrambled_schematic=4&participantId=688BAD21A190420FBC93CC5669EF6F25&assignmentId=2d7ac1b8-e2c3-4f65-93a6-b8f9e12405a0&projectId=03d12dc6-79b3-42a5-88c2-9b18a9e5f1ee","688BAD21A190420FBC93CC5669EF6F25-2025-05-15-15-31-20","","null","","[]","null","",""
"","","","","","image-button-response","92","496091","0.0-14.0-1.0-0.1","688BAD21A190420FBC93CC5669EF6F25","688BAD21A190420FBC93CC5669EF6F25","2d7ac1b8-e2c3-4f65-93a6-b8f9e12405a0","03d12dc6-79b3-42a5-88c2-9b18a9e5f1ee","{""num_scrambled_semantic"":""8"",""num_scrambled_causal"":""4"",""num_scrambled_schematic"":""4"",""participantId"":""688BAD21A190420FBC93CC5669EF6F25"",""assignmentId"":""2d7ac1b8-e2c3-4f65-93a6-b8f9e12405a0"",""projectId"":""03d12dc6-79b3-42a5-88c2-9b18a9e5f1ee""}","https://test12345.live/?num_scrambled_semantic=8&num_scrambled_causal=4&num_scrambled_schematic=4&participantId=688BAD21A190420FBC93CC5669EF6F25&assignmentId=2d7ac1b8-e2c3-4f65-93a6-b8f9e12405a0&projectId=03d12dc6-79b3-42a5-88c2-9b18a9e5f1ee","688BAD21A190420FBC93CC5669EF6F25-2025-05-15-15-31-20","","null","","images/schematic_sequence/restaurant_scheme/restaurant_scheme_3.png","null","",""
"","","","","","image-button-response","93","498191","0.0-14.0-1.0-1.1","688BAD21A190420FBC93CC5669EF6F25","688BAD21A190420FBC93CC5669EF6F25","2d7ac1b8-e2c3-4f65-93a6-b8f9e12405a0","03d12dc6-79b3-42a5-88c2-9b18a9e5f1ee","{""num_scrambled_semantic"":""8"",""num_scrambled_causal"":""4"",""num_scrambled_schematic"":""4"",""participantId"":""688BAD21A190420FBC93CC5669EF6F25"",""assignmentId"":""2d7ac1b8-e2c3-4f65-93a6-b8f9e12405a0"",""projectId"":""03d12dc6-79b3-42a5-88c2-9b18a9e5f1ee""}","https://test12345.live/?num_scrambled_semantic=8&num_scrambled_causal=4&num_scrambled_schematic=4&participantId=688BAD21A190420FBC93CC5669EF6F25&assignmentId=2d7ac1b8-e2c3-4f65-93a6-b8f9e12405a0&projectId=03d12dc6-79b3-42a5-88c2-9b18a9e5f1ee","688BAD21A190420FBC93CC5669EF6F25-2025-05-15-15-31-20","","2099","","images/schematic_sequence/restaurant_scheme/restaurant_scheme_3.png","1","",""
"","","","","","image-button-response","94","500002","0.0-14.0-1.0-2.1","688BAD21A190420FBC93CC5669EF6F25","688BAD21A190420FBC93CC5669EF6F25","2d7ac1b8-e2c3-4f65-93a6-b8f9e12405a0","03d12dc6-79b3-42a5-88c2-9b18a9e5f1ee","{""num_scrambled_semantic"":""8"",""num_scrambled_causal"":""4"",""num_scrambled_schematic"":""4"",""participantId"":""688BAD21A190420FBC93CC5669EF6F25"",""assignmentId"":""2d7ac1b8-e2c3-4f65-93a6-b8f9e12405a0"",""projectId"":""03d12dc6-79b3-42a5-88c2-9b18a9e5f1ee""}","https://test12345.live/?num_scrambled_semantic=8&num_scrambled_causal=4&num_scrambled_schematic=4&participantId=688BAD21A190420FBC93CC5669EF6F25&assignmentId=2d7ac1b8-e2c3-4f65-93a6-b8f9e12405a0&projectId=03d12dc6-79b3-42a5-88c2-9b18a9e5f1ee","688BAD21A190420FBC93CC5669EF6F25-2025-05-15-15-31-20","","null","","[]","null","",""
"","","","","","image-button-response","95","504510","0.0-14.0-1.0-0.2","688BAD21A190420FBC93CC5669EF6F25","688BAD21A190420FBC93CC5669EF6F25","2d7ac1b8-e2c3-4f65-93a6-b8f9e12405a0","03d12dc6-79b3-42a5-88c2-9b18a9e5f1ee","{""num_scrambled_semantic"":""8"",""num_scrambled_causal"":""4"",""num_scrambled_schematic"":""4"",""participantId"":""688BAD21A190420FBC93CC5669EF6F25"",""assignmentId"":""2d7ac1b8-e2c3-4f65-93a6-b8f9e12405a0"",""projectId"":""03d12dc6-79b3-42a5-88c2-9b18a9e5f1ee""}","https://test12345.live/?num_scrambled_semantic=8&num_scrambled_causal=4&num_scrambled_schematic=4&participantId=688BAD21A190420FBC93CC5669EF6F25&assignmentId=2d7ac1b8-e2c3-4f65-93a6-b8f9e12405a0&projectId=03d12dc6-79b3-42a5-88c2-9b18a9e5f1ee","688BAD21A190420FBC93CC5669EF6F25-2025-05-15-15-31-20","","null","","images/schematic_sequence/restaurant_scheme/restaurant_scheme_8.png","null","",""
"","","","","","image-button-response","96","505518","0.0-14.0-1.0-1.2","688BAD21A190420FBC93CC5669EF6F25","688BAD21A190420FBC93CC5669EF6F25","2d7ac1b8-e2c3-4f65-93a6-b8f9e12405a0","03d12dc6-79b3-42a5-88c2-9b18a9e5f1ee","{""num_scrambled_semantic"":""8"",""num_scrambled_causal"":""4"",""num_scrambled_schematic"":""4"",""participantId"":""688BAD21A190420FBC93CC5669EF6F25"",""assignmentId"":""2d7ac1b8-e2c3-4f65-93a6-b8f9e12405a0"",""projectId"":""03d12dc6-79b3-42a5-88c2-9b18a9e5f1ee""}","https://test12345.live/?num_scrambled_semantic=8&num_scrambled_causal=4&num_scrambled_schematic=4&participantId=688BAD21A190420FBC93CC5669EF6F25&assignmentId=2d7ac1b8-e2c3-4f65-93a6-b8f9e12405a0&projectId=03d12dc6-79b3-42a5-88c2-9b18a9e5f1ee","688BAD21A190420FBC93CC5669EF6F25-2025-05-15-15-31-20","","1006","","images/schematic_sequence/restaurant_scheme/restaurant_scheme_8.png","1","",""
"","","","","","image-button-response","97","507329","0.0-14.0-1.0-2.2","688BAD21A190420FBC93CC5669EF6F25","688BAD21A190420FBC93CC5669EF6F25","2d7ac1b8-e2c3-4f65-93a6-b8f9e12405a0","03d12dc6-79b3-42a5-88c2-9b18a9e5f1ee","{""num_scrambled_semantic"":""8"",""num_scrambled_causal"":""4"",""num_scrambled_schematic"":""4"",""participantId"":""688BAD21A190420FBC93CC5669EF6F25"",""assignmentId"":""2d7ac1b8-e2c3-4f65-93a6-b8f9e12405a0"",""projectId"":""03d12dc6-79b3-42a5-88c2-9b18a9e5f1ee""}","https://test12345.live/?num_scrambled_semantic=8&num_scrambled_causal=4&num_scrambled_schematic=4&participantId=688BAD21A190420FBC93CC5669EF6F25&assignmentId=2d7ac1b8-e2c3-4f65-93a6-b8f9e12405a0&projectId=03d12dc6-79b3-42a5-88c2-9b18a9e5f1ee","688BAD21A190420FBC93CC5669EF6F25-2025-05-15-15-31-20","","null","","[]","null","",""
"","","","","","image-button-response","98","511832","0.0-14.0-1.0-0.3","688BAD21A190420FBC93CC5669EF6F25","688BAD21A190420FBC93CC5669EF6F25","2d7ac1b8-e2c3-4f65-93a6-b8f9e12405a0","03d12dc6-79b3-42a5-88c2-9b18a9e5f1ee","{""num_scrambled_semantic"":""8"",""num_scrambled_causal"":""4"",""num_scrambled_schematic"":""4"",""participantId"":""688BAD21A190420FBC93CC5669EF6F25"",""assignmentId"":""2d7ac1b8-e2c3-4f65-93a6-b8f9e12405a0"",""projectId"":""03d12dc6-79b3-42a5-88c2-9b18a9e5f1ee""}","https://test12345.live/?num_scrambled_semantic=8&num_scrambled_causal=4&num_scrambled_schematic=4&participantId=688BAD21A190420FBC93CC5669EF6F25&assignmentId=2d7ac1b8-e2c3-4f65-93a6-b8f9e12405a0&projectId=03d12dc6-79b3-42a5-88c2-9b18a9e5f1ee","688BAD21A190420FBC93CC5669EF6F25-2025-05-15-15-31-20","","null","","images/schematic_sequence/restaurant_scheme/restaurant_scheme_5.png","null","",""
"","","","","","image-button-response","99","512719","0.0-14.0-1.0-1.3","688BAD21A190420FBC93CC5669EF6F25","688BAD21A190420FBC93CC5669EF6F25","2d7ac1b8-e2c3-4f65-93a6-b8f9e12405a0","03d12dc6-79b3-42a5-88c2-9b18a9e5f1ee","{""num_scrambled_semantic"":""8"",""num_scrambled_causal"":""4"",""num_scrambled_schematic"":""4"",""participantId"":""688BAD21A190420FBC93CC5669EF6F25"",""assignmentId"":""2d7ac1b8-e2c3-4f65-93a6-b8f9e12405a0"",""projectId"":""03d12dc6-79b3-42a5-88c2-9b18a9e5f1ee""}","https://test12345.live/?num_scrambled_semantic=8&num_scrambled_causal=4&num_scrambled_schematic=4&participantId=688BAD21A190420FBC93CC5669EF6F25&assignmentId=2d7ac1b8-e2c3-4f65-93a6-b8f9e12405a0&projectId=03d12dc6-79b3-42a5-88c2-9b18a9e5f1ee","688BAD21A190420FBC93CC5669EF6F25-2025-05-15-15-31-20","","886","","images/schematic_sequence/restaurant_scheme/restaurant_scheme_5.png","0","",""
"","","","","","image-button-response","100","514531","0.0-14.0-1.0-2.3","688BAD21A190420FBC93CC5669EF6F25","688BAD21A190420FBC93CC5669EF6F25","2d7ac1b8-e2c3-4f65-93a6-b8f9e12405a0","03d12dc6-79b3-42a5-88c2-9b18a9e5f1ee","{""num_scrambled_semantic"":""8"",""num_scrambled_causal"":""4"",""num_scrambled_schematic"":""4"",""participantId"":""688BAD21A190420FBC93CC5669EF6F25"",""assignmentId"":""2d7ac1b8-e2c3-4f65-93a6-b8f9e12405a0"",""projectId"":""03d12dc6-79b3-42a5-88c2-9b18a9e5f1ee""}","https://test12345.live/?num_scrambled_semantic=8&num_scrambled_causal=4&num_scrambled_schematic=4&participantId=688BAD21A190420FBC93CC5669EF6F25&assignmentId=2d7ac1b8-e2c3-4f65-93a6-b8f9e12405a0&projectId=03d12dc6-79b3-42a5-88c2-9b18a9e5f1ee","688BAD21A190420FBC93CC5669EF6F25-2025-05-15-15-31-20","","null","","[]","null","",""
"","","","","","image-button-response","101","519042","0.0-14.0-1.0-0.4","688BAD21A190420FBC93CC5669EF6F25","688BAD21A190420FBC93CC5669EF6F25","2d7ac1b8-e2c3-4f65-93a6-b8f9e12405a0","03d12dc6-79b3-42a5-88c2-9b18a9e5f1ee","{""num_scrambled_semantic"":""8"",""num_scrambled_causal"":""4"",""num_scrambled_schematic"":""4"",""participantId"":""688BAD21A190420FBC93CC5669EF6F25"",""assignmentId"":""2d7ac1b8-e2c3-4f65-93a6-b8f9e12405a0"",""projectId"":""03d12dc6-79b3-42a5-88c2-9b18a9e5f1ee""}","https://test12345.live/?num_scrambled_semantic=8&num_scrambled_causal=4&num_scrambled_schematic=4&participantId=688BAD21A190420FBC93CC5669EF6F25&assignmentId=2d7ac1b8-e2c3-4f65-93a6-b8f9e12405a0&projectId=03d12dc6-79b3-42a5-88c2-9b18a9e5f1ee","688BAD21A190420FBC93CC5669EF6F25-2025-05-15-15-31-20","","null","","images/schematic_sequence/restaurant_scheme/restaurant_scheme_7.png","null","",""
"","","","","","image-button-response","102","519708","0.0-14.0-1.0-1.4","688BAD21A190420FBC93CC5669EF6F25","688BAD21A190420FBC93CC5669EF6F25","2d7ac1b8-e2c3-4f65-93a6-b8f9e12405a0","03d12dc6-79b3-42a5-88c2-9b18a9e5f1ee","{""num_scrambled_semantic"":""8"",""num_scrambled_causal"":""4"",""num_scrambled_schematic"":""4"",""participantId"":""688BAD21A190420FBC93CC5669EF6F25"",""assignmentId"":""2d7ac1b8-e2c3-4f65-93a6-b8f9e12405a0"",""projectId"":""03d12dc6-79b3-42a5-88c2-9b18a9e5f1ee""}","https://test12345.live/?num_scrambled_semantic=8&num_scrambled_causal=4&num_scrambled_schematic=4&participantId=688BAD21A190420FBC93CC5669EF6F25&assignmentId=2d7ac1b8-e2c3-4f65-93a6-b8f9e12405a0&projectId=03d12dc6-79b3-42a5-88c2-9b18a9e5f1ee","688BAD21A190420FBC93CC5669EF6F25-2025-05-15-15-31-20","","665","","images/schematic_sequence/restaurant_scheme/restaurant_scheme_7.png","1","",""
"","","","","","image-button-response","103","521514","0.0-14.0-1.0-2.4","688BAD21A190420FBC93CC5669EF6F25","688BAD21A190420FBC93CC5669EF6F25","2d7ac1b8-e2c3-4f65-93a6-b8f9e12405a0","03d12dc6-79b3-42a5-88c2-9b18a9e5f1ee","{""num_scrambled_semantic"":""8"",""num_scrambled_causal"":""4"",""num_scrambled_schematic"":""4"",""participantId"":""688BAD21A190420FBC93CC5669EF6F25"",""assignmentId"":""2d7ac1b8-e2c3-4f65-93a6-b8f9e12405a0"",""projectId"":""03d12dc6-79b3-42a5-88c2-9b18a9e5f1ee""}","https://test12345.live/?num_scrambled_semantic=8&num_scrambled_causal=4&num_scrambled_schematic=4&participantId=688BAD21A190420FBC93CC5669EF6F25&assignmentId=2d7ac1b8-e2c3-4f65-93a6-b8f9e12405a0&projectId=03d12dc6-79b3-42a5-88c2-9b18a9e5f1ee","688BAD21A190420FBC93CC5669EF6F25-2025-05-15-15-31-20","","null","","[]","null","",""
"","","","","","image-button-response","104","526021","0.0-14.0-1.0-0.5","688BAD21A190420FBC93CC5669EF6F25","688BAD21A190420FBC93CC5669EF6F25","2d7ac1b8-e2c3-4f65-93a6-b8f9e12405a0","03d12dc6-79b3-42a5-88c2-9b18a9e5f1ee","{""num_scrambled_semantic"":""8"",""num_scrambled_causal"":""4"",""num_scrambled_schematic"":""4"",""participantId"":""688BAD21A190420FBC93CC5669EF6F25"",""assignmentId"":""2d7ac1b8-e2c3-4f65-93a6-b8f9e12405a0"",""projectId"":""03d12dc6-79b3-42a5-88c2-9b18a9e5f1ee""}","https://test12345.live/?num_scrambled_semantic=8&num_scrambled_causal=4&num_scrambled_schematic=4&participantId=688BAD21A190420FBC93CC5669EF6F25&assignmentId=2d7ac1b8-e2c3-4f65-93a6-b8f9e12405a0&projectId=03d12dc6-79b3-42a5-88c2-9b18a9e5f1ee","688BAD21A190420FBC93CC5669EF6F25-2025-05-15-15-31-20","","null","","images/schematic_sequence/restaurant_scheme/restaurant_scheme_4.png","null","",""
"","","","","","image-button-response","105","526822","0.0-14.0-1.0-1.5","688BAD21A190420FBC93CC5669EF6F25","688BAD21A190420FBC93CC5669EF6F25","2d7ac1b8-e2c3-4f65-93a6-b8f9e12405a0","03d12dc6-79b3-42a5-88c2-9b18a9e5f1ee","{""num_scrambled_semantic"":""8"",""num_scrambled_causal"":""4"",""num_scrambled_schematic"":""4"",""participantId"":""688BAD21A190420FBC93CC5669EF6F25"",""assignmentId"":""2d7ac1b8-e2c3-4f65-93a6-b8f9e12405a0"",""projectId"":""03d12dc6-79b3-42a5-88c2-9b18a9e5f1ee""}","https://test12345.live/?num_scrambled_semantic=8&num_scrambled_causal=4&num_scrambled_schematic=4&participantId=688BAD21A190420FBC93CC5669EF6F25&assignmentId=2d7ac1b8-e2c3-4f65-93a6-b8f9e12405a0&projectId=03d12dc6-79b3-42a5-88c2-9b18a9e5f1ee","688BAD21A190420FBC93CC5669EF6F25-2025-05-15-15-31-20","","800","","images/schematic_sequence/restaurant_scheme/restaurant_scheme_4.png","0","",""
"","","","","","image-button-response","106","528630","0.0-14.0-1.0-2.5","688BAD21A190420FBC93CC5669EF6F25","688BAD21A190420FBC93CC5669EF6F25","2d7ac1b8-e2c3-4f65-93a6-b8f9e12405a0","03d12dc6-79b3-42a5-88c2-9b18a9e5f1ee","{""num_scrambled_semantic"":""8"",""num_scrambled_causal"":""4"",""num_scrambled_schematic"":""4"",""participantId"":""688BAD21A190420FBC93CC5669EF6F25"",""assignmentId"":""2d7ac1b8-e2c3-4f65-93a6-b8f9e12405a0"",""projectId"":""03d12dc6-79b3-42a5-88c2-9b18a9e5f1ee""}","https://test12345.live/?num_scrambled_semantic=8&num_scrambled_causal=4&num_scrambled_schematic=4&participantId=688BAD21A190420FBC93CC5669EF6F25&assignmentId=2d7ac1b8-e2c3-4f65-93a6-b8f9e12405a0&projectId=03d12dc6-79b3-42a5-88c2-9b18a9e5f1ee","688BAD21A190420FBC93CC5669EF6F25-2025-05-15-15-31-20","","null","","[]","null","",""
"","","","","","image-button-response","107","533134","0.0-14.0-1.0-0.6","688BAD21A190420FBC93CC5669EF6F25","688BAD21A190420FBC93CC5669EF6F25","2d7ac1b8-e2c3-4f65-93a6-b8f9e12405a0","03d12dc6-79b3-42a5-88c2-9b18a9e5f1ee","{""num_scrambled_semantic"":""8"",""num_scrambled_causal"":""4"",""num_scrambled_schematic"":""4"",""participantId"":""688BAD21A190420FBC93CC5669EF6F25"",""assignmentId"":""2d7ac1b8-e2c3-4f65-93a6-b8f9e12405a0"",""projectId"":""03d12dc6-79b3-42a5-88c2-9b18a9e5f1ee""}","https://test12345.live/?num_scrambled_semantic=8&num_scrambled_causal=4&num_scrambled_schematic=4&participantId=688BAD21A190420FBC93CC5669EF6F25&assignmentId=2d7ac1b8-e2c3-4f65-93a6-b8f9e12405a0&projectId=03d12dc6-79b3-42a5-88c2-9b18a9e5f1ee","688BAD21A190420FBC93CC5669EF6F25-2025-05-15-15-31-20","","null","","images/schematic_sequence/restaurant_scheme/restaurant_scheme_ten.png","null","",""
"","","","","","image-button-response","108","534835","0.0-14.0-1.0-1.6","688BAD21A190420FBC93CC5669EF6F25","688BAD21A190420FBC93CC5669EF6F25","2d7ac1b8-e2c3-4f65-93a6-b8f9e12405a0","03d12dc6-79b3-42a5-88c2-9b18a9e5f1ee","{""num_scrambled_semantic"":""8"",""num_scrambled_causal"":""4"",""num_scrambled_schematic"":""4"",""participantId"":""688BAD21A190420FBC93CC5669EF6F25"",""assignmentId"":""2d7ac1b8-e2c3-4f65-93a6-b8f9e12405a0"",""projectId"":""03d12dc6-79b3-42a5-88c2-9b18a9e5f1ee""}","https://test12345.live/?num_scrambled_semantic=8&num_scrambled_causal=4&num_scrambled_schematic=4&participantId=688BAD21A190420FBC93CC5669EF6F25&assignmentId=2d7ac1b8-e2c3-4f65-93a6-b8f9e12405a0&projectId=03d12dc6-79b3-42a5-88c2-9b18a9e5f1ee","688BAD21A190420FBC93CC5669EF6F25-2025-05-15-15-31-20","","1699","","images/schematic_sequence/restaurant_scheme/restaurant_scheme_ten.png","0","",""
"","","","","","image-button-response","109","536647","0.0-14.0-1.0-2.6","688BAD21A190420FBC93CC5669EF6F25","688BAD21A190420FBC93CC5669EF6F25","2d7ac1b8-e2c3-4f65-93a6-b8f9e12405a0","03d12dc6-79b3-42a5-88c2-9b18a9e5f1ee","{""num_scrambled_semantic"":""8"",""num_scrambled_causal"":""4"",""num_scrambled_schematic"":""4"",""participantId"":""688BAD21A190420FBC93CC5669EF6F25"",""assignmentId"":""2d7ac1b8-e2c3-4f65-93a6-b8f9e12405a0"",""projectId"":""03d12dc6-79b3-42a5-88c2-9b18a9e5f1ee""}","https://test12345.live/?num_scrambled_semantic=8&num_scrambled_causal=4&num_scrambled_schematic=4&participantId=688BAD21A190420FBC93CC5669EF6F25&assignmentId=2d7ac1b8-e2c3-4f65-93a6-b8f9e12405a0&projectId=03d12dc6-79b3-42a5-88c2-9b18a9e5f1ee","688BAD21A190420FBC93CC5669EF6F25-2025-05-15-15-31-20","","null","","[]","null","",""
"","","","","","image-button-response","110","541159","0.0-14.0-1.0-0.7","688BAD21A190420FBC93CC5669EF6F25","688BAD21A190420FBC93CC5669EF6F25","2d7ac1b8-e2c3-4f65-93a6-b8f9e12405a0","03d12dc6-79b3-42a5-88c2-9b18a9e5f1ee","{""num_scrambled_semantic"":""8"",""num_scrambled_causal"":""4"",""num_scrambled_schematic"":""4"",""participantId"":""688BAD21A190420FBC93CC5669EF6F25"",""assignmentId"":""2d7ac1b8-e2c3-4f65-93a6-b8f9e12405a0"",""projectId"":""03d12dc6-79b3-42a5-88c2-9b18a9e5f1ee""}","https://test12345.live/?num_scrambled_semantic=8&num_scrambled_causal=4&num_scrambled_schematic=4&participantId=688BAD21A190420FBC93CC5669EF6F25&assignmentId=2d7ac1b8-e2c3-4f65-93a6-b8f9e12405a0&projectId=03d12dc6-79b3-42a5-88c2-9b18a9e5f1ee","688BAD21A190420FBC93CC5669EF6F25-2025-05-15-15-31-20","","null","","images/schematic_sequence/restaurant_scheme/restaurant_scheme_2.png","null","",""
"","","","","","image-button-response","111","542012","0.0-14.0-1.0-1.7","688BAD21A190420FBC93CC5669EF6F25","688BAD21A190420FBC93CC5669EF6F25","2d7ac1b8-e2c3-4f65-93a6-b8f9e12405a0","03d12dc6-79b3-42a5-88c2-9b18a9e5f1ee","{""num_scrambled_semantic"":""8"",""num_scrambled_causal"":""4"",""num_scrambled_schematic"":""4"",""participantId"":""688BAD21A190420FBC93CC5669EF6F25"",""assignmentId"":""2d7ac1b8-e2c3-4f65-93a6-b8f9e12405a0"",""projectId"":""03d12dc6-79b3-42a5-88c2-9b18a9e5f1ee""}","https://test12345.live/?num_scrambled_semantic=8&num_scrambled_causal=4&num_scrambled_schematic=4&participantId=688BAD21A190420FBC93CC5669EF6F25&assignmentId=2d7ac1b8-e2c3-4f65-93a6-b8f9e12405a0&projectId=03d12dc6-79b3-42a5-88c2-9b18a9e5f1ee","688BAD21A190420FBC93CC5669EF6F25-2025-05-15-15-31-20","","851","","images/schematic_sequence/restaurant_scheme/restaurant_scheme_2.png","0","",""
"","","","","","image-button-response","112","543828","0.0-14.0-1.0-2.7","688BAD21A190420FBC93CC5669EF6F25","688BAD21A190420FBC93CC5669EF6F25","2d7ac1b8-e2c3-4f65-93a6-b8f9e12405a0","03d12dc6-79b3-42a5-88c2-9b18a9e5f1ee","{""num_scrambled_semantic"":""8"",""num_scrambled_causal"":""4"",""num_scrambled_schematic"":""4"",""participantId"":""688BAD21A190420FBC93CC5669EF6F25"",""assignmentId"":""2d7ac1b8-e2c3-4f65-93a6-b8f9e12405a0"",""projectId"":""03d12dc6-79b3-42a5-88c2-9b18a9e5f1ee""}","https://test12345.live/?num_scrambled_semantic=8&num_scrambled_causal=4&num_scrambled_schematic=4&participantId=688BAD21A190420FBC93CC5669EF6F25&assignmentId=2d7ac1b8-e2c3-4f65-93a6-b8f9e12405a0&projectId=03d12dc6-79b3-42a5-88c2-9b18a9e5f1ee","688BAD21A190420FBC93CC5669EF6F25-2025-05-15-15-31-20","","null","","[]","null","",""
"","","","","","image-button-response","113","548335","0.0-14.0-1.0-0.8","688BAD21A190420FBC93CC5669EF6F25","688BAD21A190420FBC93CC5669EF6F25","2d7ac1b8-e2c3-4f65-93a6-b8f9e12405a0","03d12dc6-79b3-42a5-88c2-9b18a9e5f1ee","{""num_scrambled_semantic"":""8"",""num_scrambled_causal"":""4"",""num_scrambled_schematic"":""4"",""participantId"":""688BAD21A190420FBC93CC5669EF6F25"",""assignmentId"":""2d7ac1b8-e2c3-4f65-93a6-b8f9e12405a0"",""projectId"":""03d12dc6-79b3-42a5-88c2-9b18a9e5f1ee""}","https://test12345.live/?num_scrambled_semantic=8&num_scrambled_causal=4&num_scrambled_schematic=4&participantId=688BAD21A190420FBC93CC5669EF6F25&assignmentId=2d7ac1b8-e2c3-4f65-93a6-b8f9e12405a0&projectId=03d12dc6-79b3-42a5-88c2-9b18a9e5f1ee","688BAD21A190420FBC93CC5669EF6F25-2025-05-15-15-31-20","","null","","images/schematic_sequence/restaurant_scheme/restaurant_scheme_9.png","null","",""
"","","","","","image-button-response","114","549205","0.0-14.0-1.0-1.8","688BAD21A190420FBC93CC5669EF6F25","688BAD21A190420FBC93CC5669EF6F25","2d7ac1b8-e2c3-4f65-93a6-b8f9e12405a0","03d12dc6-79b3-42a5-88c2-9b18a9e5f1ee","{""num_scrambled_semantic"":""8"",""num_scrambled_causal"":""4"",""num_scrambled_schematic"":""4"",""participantId"":""688BAD21A190420FBC93CC5669EF6F25"",""assignmentId"":""2d7ac1b8-e2c3-4f65-93a6-b8f9e12405a0"",""projectId"":""03d12dc6-79b3-42a5-88c2-9b18a9e5f1ee""}","https://test12345.live/?num_scrambled_semantic=8&num_scrambled_causal=4&num_scrambled_schematic=4&participantId=688BAD21A190420FBC93CC5669EF6F25&assignmentId=2d7ac1b8-e2c3-4f65-93a6-b8f9e12405a0&projectId=03d12dc6-79b3-42a5-88c2-9b18a9e5f1ee","688BAD21A190420FBC93CC5669EF6F25-2025-05-15-15-31-20","","869","","images/schematic_sequence/restaurant_scheme/restaurant_scheme_9.png","0","",""
