"success","timeout","failed_images","failed_audio","failed_video","trial_type","trial_index","time_elapsed","internal_node_id","subject","subject_id","study_id","session_id","urlvar","current_url","audio_id","view_history","rt","device_id","stimulus","response","estimated_stimulus_onset","seq_name"
"true","false","[]","[]","[]","preload","0","356100","0.0-0.0","68BDBD31B9074683B7921C16B13C0895","68BDBD31B9074683B7921C16B13C0895","1e51ac5b-b4f9-4227-b9b7-c547b5f2990e","a0a8f18c-a66e-4ba7-a170-23efbdc67501","{""participantId"":""68BDBD31B9074683B7921C16B13C0895"",""assignmentId"":""1e51ac5b-b4f9-4227-b9b7-c547b5f2990e"",""projectId"":""a0a8f18c-a66e-4ba7-a170-23efbdc67501""}","https://test12345.live/?participantId=68BDBD31B9074683B7921C16B13C0895&assignmentId=1e51ac5b-b4f9-4227-b9b7-c547b5f2990e&projectId=a0a8f18c-a66e-4ba7-a170-23efbdc67501","68BDBD31B9074683B7921C16B13C0895-2024-11-24-19-08-56","","","","","","",""
"","","","","","instructions","1","390896","0.0-1.0","68BDBD31B9074683B7921C16B13C0895","68BDBD31B9074683B7921C16B13C0895","1e51ac5b-b4f9-4227-b9b7-c547b5f2990e","a0a8f18c-a66e-4ba7-a170-23efbdc67501","{""participantId"":""68BDBD31B9074683B7921C16B13C0895"",""assignmentId"":""1e51ac5b-b4f9-4227-b9b7-c547b5f2990e"",""projectId"":""a0a8f18c-a66e-4ba7-a170-23efbdc67501""}","https://test12345.live/?participantId=68BDBD31B9074683B7921C16B13C0895&assignmentId=1e51ac5b-b4f9-4227-b9b7-c547b5f2990e&projectId=a0a8f18c-a66e-4ba7-a170-23efbdc67501","68BDBD31B9074683B7921C16B13C0895-2024-11-24-19-08-56","[{""page_index"":0,""viewing_time"":34792}]","34793","","","","",""
"","","","","","instructions","2","427197","0.0-2.0","68BDBD31B9074683B7921C16B13C0895","68BDBD31B9074683B7921C16B13C0895","1e51ac5b-b4f9-4227-b9b7-c547b5f2990e","a0a8f18c-a66e-4ba7-a170-23efbdc67501","{""participantId"":""68BDBD31B9074683B7921C16B13C0895"",""assignmentId"":""1e51ac5b-b4f9-4227-b9b7-c547b5f2990e"",""projectId"":""a0a8f18c-a66e-4ba7-a170-23efbdc67501""}","https://test12345.live/?participantId=68BDBD31B9074683B7921C16B13C0895&assignmentId=1e51ac5b-b4f9-4227-b9b7-c547b5f2990e&projectId=a0a8f18c-a66e-4ba7-a170-23efbdc67501","68BDBD31B9074683B7921C16B13C0895-2024-11-24-19-08-56","[{""page_index"":0,""viewing_time"":36300}]","36300","","","","",""
"true","","","","","fullscreen","3","433400","0.0-3.0","68BDBD31B9074683B7921C16B13C0895","68BDBD31B9074683B7921C16B13C0895","1e51ac5b-b4f9-4227-b9b7-c547b5f2990e","a0a8f18c-a66e-4ba7-a170-23efbdc67501","{""participantId"":""68BDBD31B9074683B7921C16B13C0895"",""assignmentId"":""1e51ac5b-b4f9-4227-b9b7-c547b5f2990e"",""projectId"":""a0a8f18c-a66e-4ba7-a170-23efbdc67501""}","https://test12345.live/?participantId=68BDBD31B9074683B7921C16B13C0895&assignmentId=1e51ac5b-b4f9-4227-b9b7-c547b5f2990e&projectId=a0a8f18c-a66e-4ba7-a170-23efbdc67501","68BDBD31B9074683B7921C16B13C0895-2024-11-24-19-08-56","","5188","","","","",""
"","","","","","initialize-microphone","4","466007","0.0-4.0-0.0","68BDBD31B9074683B7921C16B13C0895","68BDBD31B9074683B7921C16B13C0895","1e51ac5b-b4f9-4227-b9b7-c547b5f2990e","a0a8f18c-a66e-4ba7-a170-23efbdc67501","{""participantId"":""68BDBD31B9074683B7921C16B13C0895"",""assignmentId"":""1e51ac5b-b4f9-4227-b9b7-c547b5f2990e"",""projectId"":""a0a8f18c-a66e-4ba7-a170-23efbdc67501""}","https://test12345.live/?participantId=68BDBD31B9074683B7921C16B13C0895&assignmentId=1e51ac5b-b4f9-4227-b9b7-c547b5f2990e&projectId=a0a8f18c-a66e-4ba7-a170-23efbdc67501","68BDBD31B9074683B7921C16B13C0895-2024-11-24-19-08-56","","","","","","",""
"","","","","","html-audio-response","5","488942","0.0-4.0-1.0","68BDBD31B9074683B7921C16B13C0895","68BDBD31B9074683B7921C16B13C0895","1e51ac5b-b4f9-4227-b9b7-c547b5f2990e","a0a8f18c-a66e-4ba7-a170-23efbdc67501","{""participantId"":""68BDBD31B9074683B7921C16B13C0895"",""assignmentId"":""1e51ac5b-b4f9-4227-b9b7-c547b5f2990e"",""projectId"":""a0a8f18c-a66e-4ba7-a170-23efbdc67501""}","https://test12345.live/?participantId=68BDBD31B9074683B7921C16B13C0895&assignmentId=1e51ac5b-b4f9-4227-b9b7-c547b5f2990e&projectId=a0a8f18c-a66e-4ba7-a170-23efbdc67501","68BDBD31B9074683B7921C16B13C0895-2024-11-24-19-08-56","","2970","","<span style=""color: red; font-size: 24px""> NOW RECORDING</span>
        <p>Please test Microphone</p>","","12",""
"","","","","","html-button-response","6","500400","0.0-4.0-2.0","68BDBD31B9074683B7921C16B13C0895","68BDBD31B9074683B7921C16B13C0895","1e51ac5b-b4f9-4227-b9b7-c547b5f2990e","a0a8f18c-a66e-4ba7-a170-23efbdc67501","{""participantId"":""68BDBD31B9074683B7921C16B13C0895"",""assignmentId"":""1e51ac5b-b4f9-4227-b9b7-c547b5f2990e"",""projectId"":""a0a8f18c-a66e-4ba7-a170-23efbdc67501""}","https://test12345.live/?participantId=68BDBD31B9074683B7921C16B13C0895&assignmentId=1e51ac5b-b4f9-4227-b9b7-c547b5f2990e&projectId=a0a8f18c-a66e-4ba7-a170-23efbdc67501","68BDBD31B9074683B7921C16B13C0895-2024-11-24-19-08-56","","11456","","<p style=""font-size:48px; color:red;"">Is Microphone OK?</p>","1","",""
"","","","","","instructions","7","528222","0.0-5.0","68BDBD31B9074683B7921C16B13C0895","68BDBD31B9074683B7921C16B13C0895","1e51ac5b-b4f9-4227-b9b7-c547b5f2990e","a0a8f18c-a66e-4ba7-a170-23efbdc67501","{""participantId"":""68BDBD31B9074683B7921C16B13C0895"",""assignmentId"":""1e51ac5b-b4f9-4227-b9b7-c547b5f2990e"",""projectId"":""a0a8f18c-a66e-4ba7-a170-23efbdc67501""}","https://test12345.live/?participantId=68BDBD31B9074683B7921C16B13C0895&assignmentId=1e51ac5b-b4f9-4227-b9b7-c547b5f2990e&projectId=a0a8f18c-a66e-4ba7-a170-23efbdc67501","68BDBD31B9074683B7921C16B13C0895-2024-11-24-19-08-56","[{""page_index"":0,""viewing_time"":10934},{""page_index"":1,""viewing_time"":16887}]","27821","","","","",""
"","","","","","image-button-response","8","534231","0.0-6.0-0.0","68BDBD31B9074683B7921C16B13C0895","68BDBD31B9074683B7921C16B13C0895","1e51ac5b-b4f9-4227-b9b7-c547b5f2990e","a0a8f18c-a66e-4ba7-a170-23efbdc67501","{""participantId"":""68BDBD31B9074683B7921C16B13C0895"",""assignmentId"":""1e51ac5b-b4f9-4227-b9b7-c547b5f2990e"",""projectId"":""a0a8f18c-a66e-4ba7-a170-23efbdc67501""}","https://test12345.live/?participantId=68BDBD31B9074683B7921C16B13C0895&assignmentId=1e51ac5b-b4f9-4227-b9b7-c547b5f2990e&projectId=a0a8f18c-a66e-4ba7-a170-23efbdc67501","68BDBD31B9074683B7921C16B13C0895-2024-11-24-19-08-56","","null","","images/instructions/movie_0.png","null","",""
"","","","","","image-button-response","9","538737","0.0-6.0-1.0-0.0","68BDBD31B9074683B7921C16B13C0895","68BDBD31B9074683B7921C16B13C0895","1e51ac5b-b4f9-4227-b9b7-c547b5f2990e","a0a8f18c-a66e-4ba7-a170-23efbdc67501","{""participantId"":""68BDBD31B9074683B7921C16B13C0895"",""assignmentId"":""1e51ac5b-b4f9-4227-b9b7-c547b5f2990e"",""projectId"":""a0a8f18c-a66e-4ba7-a170-23efbdc67501""}","https://test12345.live/?participantId=68BDBD31B9074683B7921C16B13C0895&assignmentId=1e51ac5b-b4f9-4227-b9b7-c547b5f2990e&projectId=a0a8f18c-a66e-4ba7-a170-23efbdc67501","68BDBD31B9074683B7921C16B13C0895-2024-11-24-19-08-56","","null","","images/instructions/movie_1.png","null","",""
"","","","","","image-button-response","10","542753","0.0-6.0-1.0-1.0","68BDBD31B9074683B7921C16B13C0895","68BDBD31B9074683B7921C16B13C0895","1e51ac5b-b4f9-4227-b9b7-c547b5f2990e","a0a8f18c-a66e-4ba7-a170-23efbdc67501","{""participantId"":""68BDBD31B9074683B7921C16B13C0895"",""assignmentId"":""1e51ac5b-b4f9-4227-b9b7-c547b5f2990e"",""projectId"":""a0a8f18c-a66e-4ba7-a170-23efbdc67501""}","https://test12345.live/?participantId=68BDBD31B9074683B7921C16B13C0895&assignmentId=1e51ac5b-b4f9-4227-b9b7-c547b5f2990e&projectId=a0a8f18c-a66e-4ba7-a170-23efbdc67501","68BDBD31B9074683B7921C16B13C0895-2024-11-24-19-08-56","","null","","images/instructions/movie_1.png","null","",""
"","","","","","image-button-response","11","544560","0.0-6.0-1.0-2.0","68BDBD31B9074683B7921C16B13C0895","68BDBD31B9074683B7921C16B13C0895","1e51ac5b-b4f9-4227-b9b7-c547b5f2990e","a0a8f18c-a66e-4ba7-a170-23efbdc67501","{""participantId"":""68BDBD31B9074683B7921C16B13C0895"",""assignmentId"":""1e51ac5b-b4f9-4227-b9b7-c547b5f2990e"",""projectId"":""a0a8f18c-a66e-4ba7-a170-23efbdc67501""}","https://test12345.live/?participantId=68BDBD31B9074683B7921C16B13C0895&assignmentId=1e51ac5b-b4f9-4227-b9b7-c547b5f2990e&projectId=a0a8f18c-a66e-4ba7-a170-23efbdc67501","68BDBD31B9074683B7921C16B13C0895-2024-11-24-19-08-56","","null","","[]","null","",""
"","","","","","image-button-response","12","549074","0.0-6.0-1.0-0.1","68BDBD31B9074683B7921C16B13C0895","68BDBD31B9074683B7921C16B13C0895","1e51ac5b-b4f9-4227-b9b7-c547b5f2990e","a0a8f18c-a66e-4ba7-a170-23efbdc67501","{""participantId"":""68BDBD31B9074683B7921C16B13C0895"",""assignmentId"":""1e51ac5b-b4f9-4227-b9b7-c547b5f2990e"",""projectId"":""a0a8f18c-a66e-4ba7-a170-23efbdc67501""}","https://test12345.live/?participantId=68BDBD31B9074683B7921C16B13C0895&assignmentId=1e51ac5b-b4f9-4227-b9b7-c547b5f2990e&projectId=a0a8f18c-a66e-4ba7-a170-23efbdc67501","68BDBD31B9074683B7921C16B13C0895-2024-11-24-19-08-56","","null","","images/instructions/movie_2.png","null","",""
"","","","","","image-button-response","13","552988","0.0-6.0-1.0-1.1","68BDBD31B9074683B7921C16B13C0895","68BDBD31B9074683B7921C16B13C0895","1e51ac5b-b4f9-4227-b9b7-c547b5f2990e","a0a8f18c-a66e-4ba7-a170-23efbdc67501","{""participantId"":""68BDBD31B9074683B7921C16B13C0895"",""assignmentId"":""1e51ac5b-b4f9-4227-b9b7-c547b5f2990e"",""projectId"":""a0a8f18c-a66e-4ba7-a170-23efbdc67501""}","https://test12345.live/?participantId=68BDBD31B9074683B7921C16B13C0895&assignmentId=1e51ac5b-b4f9-4227-b9b7-c547b5f2990e&projectId=a0a8f18c-a66e-4ba7-a170-23efbdc67501","68BDBD31B9074683B7921C16B13C0895-2024-11-24-19-08-56","","3911","","images/instructions/movie_2.png","0","",""
"","","","","","image-button-response","14","554793","0.0-6.0-1.0-2.1","68BDBD31B9074683B7921C16B13C0895","68BDBD31B9074683B7921C16B13C0895","1e51ac5b-b4f9-4227-b9b7-c547b5f2990e","a0a8f18c-a66e-4ba7-a170-23efbdc67501","{""participantId"":""68BDBD31B9074683B7921C16B13C0895"",""assignmentId"":""1e51ac5b-b4f9-4227-b9b7-c547b5f2990e"",""projectId"":""a0a8f18c-a66e-4ba7-a170-23efbdc67501""}","https://test12345.live/?participantId=68BDBD31B9074683B7921C16B13C0895&assignmentId=1e51ac5b-b4f9-4227-b9b7-c547b5f2990e&projectId=a0a8f18c-a66e-4ba7-a170-23efbdc67501","68BDBD31B9074683B7921C16B13C0895-2024-11-24-19-08-56","","null","","[]","null","",""
"","","","","","image-button-response","15","559296","0.0-6.0-1.0-0.2","68BDBD31B9074683B7921C16B13C0895","68BDBD31B9074683B7921C16B13C0895","1e51ac5b-b4f9-4227-b9b7-c547b5f2990e","a0a8f18c-a66e-4ba7-a170-23efbdc67501","{""participantId"":""68BDBD31B9074683B7921C16B13C0895"",""assignmentId"":""1e51ac5b-b4f9-4227-b9b7-c547b5f2990e"",""projectId"":""a0a8f18c-a66e-4ba7-a170-23efbdc67501""}","https://test12345.live/?participantId=68BDBD31B9074683B7921C16B13C0895&assignmentId=1e51ac5b-b4f9-4227-b9b7-c547b5f2990e&projectId=a0a8f18c-a66e-4ba7-a170-23efbdc67501","68BDBD31B9074683B7921C16B13C0895-2024-11-24-19-08-56","","null","","images/instructions/movie_3.png","null","",""
"","","","","","image-button-response","16","561758","0.0-6.0-1.0-1.2","68BDBD31B9074683B7921C16B13C0895","68BDBD31B9074683B7921C16B13C0895","1e51ac5b-b4f9-4227-b9b7-c547b5f2990e","a0a8f18c-a66e-4ba7-a170-23efbdc67501","{""participantId"":""68BDBD31B9074683B7921C16B13C0895"",""assignmentId"":""1e51ac5b-b4f9-4227-b9b7-c547b5f2990e"",""projectId"":""a0a8f18c-a66e-4ba7-a170-23efbdc67501""}","https://test12345.live/?participantId=68BDBD31B9074683B7921C16B13C0895&assignmentId=1e51ac5b-b4f9-4227-b9b7-c547b5f2990e&projectId=a0a8f18c-a66e-4ba7-a170-23efbdc67501","68BDBD31B9074683B7921C16B13C0895-2024-11-24-19-08-56","","2457","","images/instructions/movie_3.png","0","",""
"","","","","","image-button-response","17","563567","0.0-6.0-1.0-2.2","68BDBD31B9074683B7921C16B13C0895","68BDBD31B9074683B7921C16B13C0895","1e51ac5b-b4f9-4227-b9b7-c547b5f2990e","a0a8f18c-a66e-4ba7-a170-23efbdc67501","{""participantId"":""68BDBD31B9074683B7921C16B13C0895"",""assignmentId"":""1e51ac5b-b4f9-4227-b9b7-c547b5f2990e"",""projectId"":""a0a8f18c-a66e-4ba7-a170-23efbdc67501""}","https://test12345.live/?participantId=68BDBD31B9074683B7921C16B13C0895&assignmentId=1e51ac5b-b4f9-4227-b9b7-c547b5f2990e&projectId=a0a8f18c-a66e-4ba7-a170-23efbdc67501","68BDBD31B9074683B7921C16B13C0895-2024-11-24-19-08-56","","null","","[]","null","",""
"","","","","","image-button-response","18","568073","0.0-6.0-1.0-0.3","68BDBD31B9074683B7921C16B13C0895","68BDBD31B9074683B7921C16B13C0895","1e51ac5b-b4f9-4227-b9b7-c547b5f2990e","a0a8f18c-a66e-4ba7-a170-23efbdc67501","{""participantId"":""68BDBD31B9074683B7921C16B13C0895"",""assignmentId"":""1e51ac5b-b4f9-4227-b9b7-c547b5f2990e"",""projectId"":""a0a8f18c-a66e-4ba7-a170-23efbdc67501""}","https://test12345.live/?participantId=68BDBD31B9074683B7921C16B13C0895&assignmentId=1e51ac5b-b4f9-4227-b9b7-c547b5f2990e&projectId=a0a8f18c-a66e-4ba7-a170-23efbdc67501","68BDBD31B9074683B7921C16B13C0895-2024-11-24-19-08-56","","null","","images/instructions/movie_4.png","null","",""
"","","","","","image-button-response","19","570490","0.0-6.0-1.0-1.3","68BDBD31B9074683B7921C16B13C0895","68BDBD31B9074683B7921C16B13C0895","1e51ac5b-b4f9-4227-b9b7-c547b5f2990e","a0a8f18c-a66e-4ba7-a170-23efbdc67501","{""participantId"":""68BDBD31B9074683B7921C16B13C0895"",""assignmentId"":""1e51ac5b-b4f9-4227-b9b7-c547b5f2990e"",""projectId"":""a0a8f18c-a66e-4ba7-a170-23efbdc67501""}","https://test12345.live/?participantId=68BDBD31B9074683B7921C16B13C0895&assignmentId=1e51ac5b-b4f9-4227-b9b7-c547b5f2990e&projectId=a0a8f18c-a66e-4ba7-a170-23efbdc67501","68BDBD31B9074683B7921C16B13C0895-2024-11-24-19-08-56","","2414","","images/instructions/movie_4.png","0","",""
"","","","","","image-button-response","20","572300","0.0-6.0-1.0-2.3","68BDBD31B9074683B7921C16B13C0895","68BDBD31B9074683B7921C16B13C0895","1e51ac5b-b4f9-4227-b9b7-c547b5f2990e","a0a8f18c-a66e-4ba7-a170-23efbdc67501","{""participantId"":""68BDBD31B9074683B7921C16B13C0895"",""assignmentId"":""1e51ac5b-b4f9-4227-b9b7-c547b5f2990e"",""projectId"":""a0a8f18c-a66e-4ba7-a170-23efbdc67501""}","https://test12345.live/?participantId=68BDBD31B9074683B7921C16B13C0895&assignmentId=1e51ac5b-b4f9-4227-b9b7-c547b5f2990e&projectId=a0a8f18c-a66e-4ba7-a170-23efbdc67501","68BDBD31B9074683B7921C16B13C0895-2024-11-24-19-08-56","","null","","[]","null","",""
"","","","","","instructions","21","597867","0.0-7.0","68BDBD31B9074683B7921C16B13C0895","68BDBD31B9074683B7921C16B13C0895","1e51ac5b-b4f9-4227-b9b7-c547b5f2990e","a0a8f18c-a66e-4ba7-a170-23efbdc67501","{""participantId"":""68BDBD31B9074683B7921C16B13C0895"",""assignmentId"":""1e51ac5b-b4f9-4227-b9b7-c547b5f2990e"",""projectId"":""a0a8f18c-a66e-4ba7-a170-23efbdc67501""}","https://test12345.live/?participantId=68BDBD31B9074683B7921C16B13C0895&assignmentId=1e51ac5b-b4f9-4227-b9b7-c547b5f2990e&projectId=a0a8f18c-a66e-4ba7-a170-23efbdc67501","68BDBD31B9074683B7921C16B13C0895-2024-11-24-19-08-56","[{""page_index"":0,""viewing_time"":23645},{""page_index"":1,""viewing_time"":1921}]","25566","","","","",""
"","","","","","html-audio-response","22","663547","0.0-8.0","68BDBD31B9074683B7921C16B13C0895","68BDBD31B9074683B7921C16B13C0895","1e51ac5b-b4f9-4227-b9b7-c547b5f2990e","a0a8f18c-a66e-4ba7-a170-23efbdc67501","{""participantId"":""68BDBD31B9074683B7921C16B13C0895"",""assignmentId"":""1e51ac5b-b4f9-4227-b9b7-c547b5f2990e"",""projectId"":""a0a8f18c-a66e-4ba7-a170-23efbdc67501""}","https://test12345.live/?participantId=68BDBD31B9074683B7921C16B13C0895&assignmentId=1e51ac5b-b4f9-4227-b9b7-c547b5f2990e&projectId=a0a8f18c-a66e-4ba7-a170-23efbdc67501","68BDBD31B9074683B7921C16B13C0895-2024-11-24-19-08-56","","52152","","[""<span style=\""color: red; font-size: 24px\""> NOW RECORDING</span><p>Please say out loud all the images you saw, as many as you can remember. The images can be said in any order.</p>""]","","18",""
"","","","","","instructions","23","687635","0.0-9.0","68BDBD31B9074683B7921C16B13C0895","68BDBD31B9074683B7921C16B13C0895","1e51ac5b-b4f9-4227-b9b7-c547b5f2990e","a0a8f18c-a66e-4ba7-a170-23efbdc67501","{""participantId"":""68BDBD31B9074683B7921C16B13C0895"",""assignmentId"":""1e51ac5b-b4f9-4227-b9b7-c547b5f2990e"",""projectId"":""a0a8f18c-a66e-4ba7-a170-23efbdc67501""}","https://test12345.live/?participantId=68BDBD31B9074683B7921C16B13C0895&assignmentId=1e51ac5b-b4f9-4227-b9b7-c547b5f2990e&projectId=a0a8f18c-a66e-4ba7-a170-23efbdc67501","68BDBD31B9074683B7921C16B13C0895-2024-11-24-19-08-56","[{""page_index"":0,""viewing_time"":24066}]","24066","","","","",""
"","","","","","image-button-response","24","693644","0.0-10.0-0.0","68BDBD31B9074683B7921C16B13C0895","68BDBD31B9074683B7921C16B13C0895","1e51ac5b-b4f9-4227-b9b7-c547b5f2990e","a0a8f18c-a66e-4ba7-a170-23efbdc67501","{""participantId"":""68BDBD31B9074683B7921C16B13C0895"",""assignmentId"":""1e51ac5b-b4f9-4227-b9b7-c547b5f2990e"",""projectId"":""a0a8f18c-a66e-4ba7-a170-23efbdc67501""}","https://test12345.live/?participantId=68BDBD31B9074683B7921C16B13C0895&assignmentId=1e51ac5b-b4f9-4227-b9b7-c547b5f2990e&projectId=a0a8f18c-a66e-4ba7-a170-23efbdc67501","68BDBD31B9074683B7921C16B13C0895-2024-11-24-19-08-56","","null","","images/schematic_sequence/flight_scheme/flight_scheme_0.png","null","",""
"","","","","","image-button-response","25","698147","0.0-10.0-1.0-0.0","68BDBD31B9074683B7921C16B13C0895","68BDBD31B9074683B7921C16B13C0895","1e51ac5b-b4f9-4227-b9b7-c547b5f2990e","a0a8f18c-a66e-4ba7-a170-23efbdc67501","{""participantId"":""68BDBD31B9074683B7921C16B13C0895"",""assignmentId"":""1e51ac5b-b4f9-4227-b9b7-c547b5f2990e"",""projectId"":""a0a8f18c-a66e-4ba7-a170-23efbdc67501""}","https://test12345.live/?participantId=68BDBD31B9074683B7921C16B13C0895&assignmentId=1e51ac5b-b4f9-4227-b9b7-c547b5f2990e&projectId=a0a8f18c-a66e-4ba7-a170-23efbdc67501","68BDBD31B9074683B7921C16B13C0895-2024-11-24-19-08-56","","null","","images/schematic_sequence/flight_scheme/flight_scheme_ten.png","null","",""
"","","","","","image-button-response","26","699704","0.0-10.0-1.0-1.0","68BDBD31B9074683B7921C16B13C0895","68BDBD31B9074683B7921C16B13C0895","1e51ac5b-b4f9-4227-b9b7-c547b5f2990e","a0a8f18c-a66e-4ba7-a170-23efbdc67501","{""participantId"":""68BDBD31B9074683B7921C16B13C0895"",""assignmentId"":""1e51ac5b-b4f9-4227-b9b7-c547b5f2990e"",""projectId"":""a0a8f18c-a66e-4ba7-a170-23efbdc67501""}","https://test12345.live/?participantId=68BDBD31B9074683B7921C16B13C0895&assignmentId=1e51ac5b-b4f9-4227-b9b7-c547b5f2990e&projectId=a0a8f18c-a66e-4ba7-a170-23efbdc67501","68BDBD31B9074683B7921C16B13C0895-2024-11-24-19-08-56","","1554","","images/schematic_sequence/flight_scheme/flight_scheme_ten.png","0","",""
"","","","","","image-button-response","27","701516","0.0-10.0-1.0-2.0","68BDBD31B9074683B7921C16B13C0895","68BDBD31B9074683B7921C16B13C0895","1e51ac5b-b4f9-4227-b9b7-c547b5f2990e","a0a8f18c-a66e-4ba7-a170-23efbdc67501","{""participantId"":""68BDBD31B9074683B7921C16B13C0895"",""assignmentId"":""1e51ac5b-b4f9-4227-b9b7-c547b5f2990e"",""projectId"":""a0a8f18c-a66e-4ba7-a170-23efbdc67501""}","https://test12345.live/?participantId=68BDBD31B9074683B7921C16B13C0895&assignmentId=1e51ac5b-b4f9-4227-b9b7-c547b5f2990e&projectId=a0a8f18c-a66e-4ba7-a170-23efbdc67501","68BDBD31B9074683B7921C16B13C0895-2024-11-24-19-08-56","","null","","[]","null","",""
"","","","","","image-button-response","28","706023","0.0-10.0-1.0-0.1","68BDBD31B9074683B7921C16B13C0895","68BDBD31B9074683B7921C16B13C0895","1e51ac5b-b4f9-4227-b9b7-c547b5f2990e","a0a8f18c-a66e-4ba7-a170-23efbdc67501","{""participantId"":""68BDBD31B9074683B7921C16B13C0895"",""assignmentId"":""1e51ac5b-b4f9-4227-b9b7-c547b5f2990e"",""projectId"":""a0a8f18c-a66e-4ba7-a170-23efbdc67501""}","https://test12345.live/?participantId=68BDBD31B9074683B7921C16B13C0895&assignmentId=1e51ac5b-b4f9-4227-b9b7-c547b5f2990e&projectId=a0a8f18c-a66e-4ba7-a170-23efbdc67501","68BDBD31B9074683B7921C16B13C0895-2024-11-24-19-08-56","","null","","images/schematic_sequence/flight_scheme/flight_scheme_1.png","null","",""
"","","","","","image-button-response","29","707640","0.0-10.0-1.0-1.1","68BDBD31B9074683B7921C16B13C0895","68BDBD31B9074683B7921C16B13C0895","1e51ac5b-b4f9-4227-b9b7-c547b5f2990e","a0a8f18c-a66e-4ba7-a170-23efbdc67501","{""participantId"":""68BDBD31B9074683B7921C16B13C0895"",""assignmentId"":""1e51ac5b-b4f9-4227-b9b7-c547b5f2990e"",""projectId"":""a0a8f18c-a66e-4ba7-a170-23efbdc67501""}","https://test12345.live/?participantId=68BDBD31B9074683B7921C16B13C0895&assignmentId=1e51ac5b-b4f9-4227-b9b7-c547b5f2990e&projectId=a0a8f18c-a66e-4ba7-a170-23efbdc67501","68BDBD31B9074683B7921C16B13C0895-2024-11-24-19-08-56","","1614","","images/schematic_sequence/flight_scheme/flight_scheme_1.png","0","",""
"","","","","","image-button-response","30","709455","0.0-10.0-1.0-2.1","68BDBD31B9074683B7921C16B13C0895","68BDBD31B9074683B7921C16B13C0895","1e51ac5b-b4f9-4227-b9b7-c547b5f2990e","a0a8f18c-a66e-4ba7-a170-23efbdc67501","{""participantId"":""68BDBD31B9074683B7921C16B13C0895"",""assignmentId"":""1e51ac5b-b4f9-4227-b9b7-c547b5f2990e"",""projectId"":""a0a8f18c-a66e-4ba7-a170-23efbdc67501""}","https://test12345.live/?participantId=68BDBD31B9074683B7921C16B13C0895&assignmentId=1e51ac5b-b4f9-4227-b9b7-c547b5f2990e&projectId=a0a8f18c-a66e-4ba7-a170-23efbdc67501","68BDBD31B9074683B7921C16B13C0895-2024-11-24-19-08-56","","null","","[]","null","",""
"","","","","","image-button-response","31","713961","0.0-10.0-1.0-0.2","68BDBD31B9074683B7921C16B13C0895","68BDBD31B9074683B7921C16B13C0895","1e51ac5b-b4f9-4227-b9b7-c547b5f2990e","a0a8f18c-a66e-4ba7-a170-23efbdc67501","{""participantId"":""68BDBD31B9074683B7921C16B13C0895"",""assignmentId"":""1e51ac5b-b4f9-4227-b9b7-c547b5f2990e"",""projectId"":""a0a8f18c-a66e-4ba7-a170-23efbdc67501""}","https://test12345.live/?participantId=68BDBD31B9074683B7921C16B13C0895&assignmentId=1e51ac5b-b4f9-4227-b9b7-c547b5f2990e&projectId=a0a8f18c-a66e-4ba7-a170-23efbdc67501","68BDBD31B9074683B7921C16B13C0895-2024-11-24-19-08-56","","null","","images/schematic_sequence/flight_scheme/flight_scheme_3.png","null","",""
"","","","","","image-button-response","32","716494","0.0-10.0-1.0-1.2","68BDBD31B9074683B7921C16B13C0895","68BDBD31B9074683B7921C16B13C0895","1e51ac5b-b4f9-4227-b9b7-c547b5f2990e","a0a8f18c-a66e-4ba7-a170-23efbdc67501","{""participantId"":""68BDBD31B9074683B7921C16B13C0895"",""assignmentId"":""1e51ac5b-b4f9-4227-b9b7-c547b5f2990e"",""projectId"":""a0a8f18c-a66e-4ba7-a170-23efbdc67501""}","https://test12345.live/?participantId=68BDBD31B9074683B7921C16B13C0895&assignmentId=1e51ac5b-b4f9-4227-b9b7-c547b5f2990e&projectId=a0a8f18c-a66e-4ba7-a170-23efbdc67501","68BDBD31B9074683B7921C16B13C0895-2024-11-24-19-08-56","","2529","","images/schematic_sequence/flight_scheme/flight_scheme_3.png","0","",""
"","","","","","image-button-response","33","718303","0.0-10.0-1.0-2.2","68BDBD31B9074683B7921C16B13C0895","68BDBD31B9074683B7921C16B13C0895","1e51ac5b-b4f9-4227-b9b7-c547b5f2990e","a0a8f18c-a66e-4ba7-a170-23efbdc67501","{""participantId"":""68BDBD31B9074683B7921C16B13C0895"",""assignmentId"":""1e51ac5b-b4f9-4227-b9b7-c547b5f2990e"",""projectId"":""a0a8f18c-a66e-4ba7-a170-23efbdc67501""}","https://test12345.live/?participantId=68BDBD31B9074683B7921C16B13C0895&assignmentId=1e51ac5b-b4f9-4227-b9b7-c547b5f2990e&projectId=a0a8f18c-a66e-4ba7-a170-23efbdc67501","68BDBD31B9074683B7921C16B13C0895-2024-11-24-19-08-56","","null","","[]","null","",""
"","","","","","image-button-response","34","722806","0.0-10.0-1.0-0.3","68BDBD31B9074683B7921C16B13C0895","68BDBD31B9074683B7921C16B13C0895","1e51ac5b-b4f9-4227-b9b7-c547b5f2990e","a0a8f18c-a66e-4ba7-a170-23efbdc67501","{""participantId"":""68BDBD31B9074683B7921C16B13C0895"",""assignmentId"":""1e51ac5b-b4f9-4227-b9b7-c547b5f2990e"",""projectId"":""a0a8f18c-a66e-4ba7-a170-23efbdc67501""}","https://test12345.live/?participantId=68BDBD31B9074683B7921C16B13C0895&assignmentId=1e51ac5b-b4f9-4227-b9b7-c547b5f2990e&projectId=a0a8f18c-a66e-4ba7-a170-23efbdc67501","68BDBD31B9074683B7921C16B13C0895-2024-11-24-19-08-56","","null","","images/schematic_sequence/flight_scheme/flight_scheme_9.png","null","",""
"","","","","","image-button-response","35","724408","0.0-10.0-1.0-1.3","68BDBD31B9074683B7921C16B13C0895","68BDBD31B9074683B7921C16B13C0895","1e51ac5b-b4f9-4227-b9b7-c547b5f2990e","a0a8f18c-a66e-4ba7-a170-23efbdc67501","{""participantId"":""68BDBD31B9074683B7921C16B13C0895"",""assignmentId"":""1e51ac5b-b4f9-4227-b9b7-c547b5f2990e"",""projectId"":""a0a8f18c-a66e-4ba7-a170-23efbdc67501""}","https://test12345.live/?participantId=68BDBD31B9074683B7921C16B13C0895&assignmentId=1e51ac5b-b4f9-4227-b9b7-c547b5f2990e&projectId=a0a8f18c-a66e-4ba7-a170-23efbdc67501","68BDBD31B9074683B7921C16B13C0895-2024-11-24-19-08-56","","1598","","images/schematic_sequence/flight_scheme/flight_scheme_9.png","0","",""
"","","","","","image-button-response","36","726224","0.0-10.0-1.0-2.3","68BDBD31B9074683B7921C16B13C0895","68BDBD31B9074683B7921C16B13C0895","1e51ac5b-b4f9-4227-b9b7-c547b5f2990e","a0a8f18c-a66e-4ba7-a170-23efbdc67501","{""participantId"":""68BDBD31B9074683B7921C16B13C0895"",""assignmentId"":""1e51ac5b-b4f9-4227-b9b7-c547b5f2990e"",""projectId"":""a0a8f18c-a66e-4ba7-a170-23efbdc67501""}","https://test12345.live/?participantId=68BDBD31B9074683B7921C16B13C0895&assignmentId=1e51ac5b-b4f9-4227-b9b7-c547b5f2990e&projectId=a0a8f18c-a66e-4ba7-a170-23efbdc67501","68BDBD31B9074683B7921C16B13C0895-2024-11-24-19-08-56","","null","","[]","null","",""
"","","","","","image-button-response","37","730733","0.0-10.0-1.0-0.4","68BDBD31B9074683B7921C16B13C0895","68BDBD31B9074683B7921C16B13C0895","1e51ac5b-b4f9-4227-b9b7-c547b5f2990e","a0a8f18c-a66e-4ba7-a170-23efbdc67501","{""participantId"":""68BDBD31B9074683B7921C16B13C0895"",""assignmentId"":""1e51ac5b-b4f9-4227-b9b7-c547b5f2990e"",""projectId"":""a0a8f18c-a66e-4ba7-a170-23efbdc67501""}","https://test12345.live/?participantId=68BDBD31B9074683B7921C16B13C0895&assignmentId=1e51ac5b-b4f9-4227-b9b7-c547b5f2990e&projectId=a0a8f18c-a66e-4ba7-a170-23efbdc67501","68BDBD31B9074683B7921C16B13C0895-2024-11-24-19-08-56","","null","","images/schematic_sequence/flight_scheme/flight_scheme_2.png","null","",""
"","","","","","image-button-response","38","731976","0.0-10.0-1.0-1.4","68BDBD31B9074683B7921C16B13C0895","68BDBD31B9074683B7921C16B13C0895","1e51ac5b-b4f9-4227-b9b7-c547b5f2990e","a0a8f18c-a66e-4ba7-a170-23efbdc67501","{""participantId"":""68BDBD31B9074683B7921C16B13C0895"",""assignmentId"":""1e51ac5b-b4f9-4227-b9b7-c547b5f2990e"",""projectId"":""a0a8f18c-a66e-4ba7-a170-23efbdc67501""}","https://test12345.live/?participantId=68BDBD31B9074683B7921C16B13C0895&assignmentId=1e51ac5b-b4f9-4227-b9b7-c547b5f2990e&projectId=a0a8f18c-a66e-4ba7-a170-23efbdc67501","68BDBD31B9074683B7921C16B13C0895-2024-11-24-19-08-56","","1238","","images/schematic_sequence/flight_scheme/flight_scheme_2.png","1","",""
"","","","","","image-button-response","39","733791","0.0-10.0-1.0-2.4","68BDBD31B9074683B7921C16B13C0895","68BDBD31B9074683B7921C16B13C0895","1e51ac5b-b4f9-4227-b9b7-c547b5f2990e","a0a8f18c-a66e-4ba7-a170-23efbdc67501","{""participantId"":""68BDBD31B9074683B7921C16B13C0895"",""assignmentId"":""1e51ac5b-b4f9-4227-b9b7-c547b5f2990e"",""projectId"":""a0a8f18c-a66e-4ba7-a170-23efbdc67501""}","https://test12345.live/?participantId=68BDBD31B9074683B7921C16B13C0895&assignmentId=1e51ac5b-b4f9-4227-b9b7-c547b5f2990e&projectId=a0a8f18c-a66e-4ba7-a170-23efbdc67501","68BDBD31B9074683B7921C16B13C0895-2024-11-24-19-08-56","","null","","[]","null","",""
"","","","","","image-button-response","40","738294","0.0-10.0-1.0-0.5","68BDBD31B9074683B7921C16B13C0895","68BDBD31B9074683B7921C16B13C0895","1e51ac5b-b4f9-4227-b9b7-c547b5f2990e","a0a8f18c-a66e-4ba7-a170-23efbdc67501","{""participantId"":""68BDBD31B9074683B7921C16B13C0895"",""assignmentId"":""1e51ac5b-b4f9-4227-b9b7-c547b5f2990e"",""projectId"":""a0a8f18c-a66e-4ba7-a170-23efbdc67501""}","https://test12345.live/?participantId=68BDBD31B9074683B7921C16B13C0895&assignmentId=1e51ac5b-b4f9-4227-b9b7-c547b5f2990e&projectId=a0a8f18c-a66e-4ba7-a170-23efbdc67501","68BDBD31B9074683B7921C16B13C0895-2024-11-24-19-08-56","","null","","images/schematic_sequence/flight_scheme/flight_scheme_7.png","null","",""
"","","","","","image-button-response","41","739492","0.0-10.0-1.0-1.5","68BDBD31B9074683B7921C16B13C0895","68BDBD31B9074683B7921C16B13C0895","1e51ac5b-b4f9-4227-b9b7-c547b5f2990e","a0a8f18c-a66e-4ba7-a170-23efbdc67501","{""participantId"":""68BDBD31B9074683B7921C16B13C0895"",""assignmentId"":""1e51ac5b-b4f9-4227-b9b7-c547b5f2990e"",""projectId"":""a0a8f18c-a66e-4ba7-a170-23efbdc67501""}","https://test12345.live/?participantId=68BDBD31B9074683B7921C16B13C0895&assignmentId=1e51ac5b-b4f9-4227-b9b7-c547b5f2990e&projectId=a0a8f18c-a66e-4ba7-a170-23efbdc67501","68BDBD31B9074683B7921C16B13C0895-2024-11-24-19-08-56","","1195","","images/schematic_sequence/flight_scheme/flight_scheme_7.png","0","",""
"","","","","","image-button-response","42","741306","0.0-10.0-1.0-2.5","68BDBD31B9074683B7921C16B13C0895","68BDBD31B9074683B7921C16B13C0895","1e51ac5b-b4f9-4227-b9b7-c547b5f2990e","a0a8f18c-a66e-4ba7-a170-23efbdc67501","{""participantId"":""68BDBD31B9074683B7921C16B13C0895"",""assignmentId"":""1e51ac5b-b4f9-4227-b9b7-c547b5f2990e"",""projectId"":""a0a8f18c-a66e-4ba7-a170-23efbdc67501""}","https://test12345.live/?participantId=68BDBD31B9074683B7921C16B13C0895&assignmentId=1e51ac5b-b4f9-4227-b9b7-c547b5f2990e&projectId=a0a8f18c-a66e-4ba7-a170-23efbdc67501","68BDBD31B9074683B7921C16B13C0895-2024-11-24-19-08-56","","null","","[]","null","",""
"","","","","","image-button-response","43","745817","0.0-10.0-1.0-0.6","68BDBD31B9074683B7921C16B13C0895","68BDBD31B9074683B7921C16B13C0895","1e51ac5b-b4f9-4227-b9b7-c547b5f2990e","a0a8f18c-a66e-4ba7-a170-23efbdc67501","{""participantId"":""68BDBD31B9074683B7921C16B13C0895"",""assignmentId"":""1e51ac5b-b4f9-4227-b9b7-c547b5f2990e"",""projectId"":""a0a8f18c-a66e-4ba7-a170-23efbdc67501""}","https://test12345.live/?participantId=68BDBD31B9074683B7921C16B13C0895&assignmentId=1e51ac5b-b4f9-4227-b9b7-c547b5f2990e&projectId=a0a8f18c-a66e-4ba7-a170-23efbdc67501","68BDBD31B9074683B7921C16B13C0895-2024-11-24-19-08-56","","null","","images/schematic_sequence/flight_scheme/flight_scheme_4.png","null","",""
"","","","","","image-button-response","44","747181","0.0-10.0-1.0-1.6","68BDBD31B9074683B7921C16B13C0895","68BDBD31B9074683B7921C16B13C0895","1e51ac5b-b4f9-4227-b9b7-c547b5f2990e","a0a8f18c-a66e-4ba7-a170-23efbdc67501","{""participantId"":""68BDBD31B9074683B7921C16B13C0895"",""assignmentId"":""1e51ac5b-b4f9-4227-b9b7-c547b5f2990e"",""projectId"":""a0a8f18c-a66e-4ba7-a170-23efbdc67501""}","https://test12345.live/?participantId=68BDBD31B9074683B7921C16B13C0895&assignmentId=1e51ac5b-b4f9-4227-b9b7-c547b5f2990e&projectId=a0a8f18c-a66e-4ba7-a170-23efbdc67501","68BDBD31B9074683B7921C16B13C0895-2024-11-24-19-08-56","","1360","","images/schematic_sequence/flight_scheme/flight_scheme_4.png","0","",""
"","","","","","image-button-response","45","748996","0.0-10.0-1.0-2.6","68BDBD31B9074683B7921C16B13C0895","68BDBD31B9074683B7921C16B13C0895","1e51ac5b-b4f9-4227-b9b7-c547b5f2990e","a0a8f18c-a66e-4ba7-a170-23efbdc67501","{""participantId"":""68BDBD31B9074683B7921C16B13C0895"",""assignmentId"":""1e51ac5b-b4f9-4227-b9b7-c547b5f2990e"",""projectId"":""a0a8f18c-a66e-4ba7-a170-23efbdc67501""}","https://test12345.live/?participantId=68BDBD31B9074683B7921C16B13C0895&assignmentId=1e51ac5b-b4f9-4227-b9b7-c547b5f2990e&projectId=a0a8f18c-a66e-4ba7-a170-23efbdc67501","68BDBD31B9074683B7921C16B13C0895-2024-11-24-19-08-56","","null","","[]","null","",""
"","","","","","image-button-response","46","753515","0.0-10.0-1.0-0.7","68BDBD31B9074683B7921C16B13C0895","68BDBD31B9074683B7921C16B13C0895","1e51ac5b-b4f9-4227-b9b7-c547b5f2990e","a0a8f18c-a66e-4ba7-a170-23efbdc67501","{""participantId"":""68BDBD31B9074683B7921C16B13C0895"",""assignmentId"":""1e51ac5b-b4f9-4227-b9b7-c547b5f2990e"",""projectId"":""a0a8f18c-a66e-4ba7-a170-23efbdc67501""}","https://test12345.live/?participantId=68BDBD31B9074683B7921C16B13C0895&assignmentId=1e51ac5b-b4f9-4227-b9b7-c547b5f2990e&projectId=a0a8f18c-a66e-4ba7-a170-23efbdc67501","68BDBD31B9074683B7921C16B13C0895-2024-11-24-19-08-56","","null","","images/schematic_sequence/flight_scheme/flight_scheme_6.png","null","",""
"","","","","","image-button-response","47","755394","0.0-10.0-1.0-1.7","68BDBD31B9074683B7921C16B13C0895","68BDBD31B9074683B7921C16B13C0895","1e51ac5b-b4f9-4227-b9b7-c547b5f2990e","a0a8f18c-a66e-4ba7-a170-23efbdc67501","{""participantId"":""68BDBD31B9074683B7921C16B13C0895"",""assignmentId"":""1e51ac5b-b4f9-4227-b9b7-c547b5f2990e"",""projectId"":""a0a8f18c-a66e-4ba7-a170-23efbdc67501""}","https://test12345.live/?participantId=68BDBD31B9074683B7921C16B13C0895&assignmentId=1e51ac5b-b4f9-4227-b9b7-c547b5f2990e&projectId=a0a8f18c-a66e-4ba7-a170-23efbdc67501","68BDBD31B9074683B7921C16B13C0895-2024-11-24-19-08-56","","1876","","images/schematic_sequence/flight_scheme/flight_scheme_6.png","1","",""
"","","","","","image-button-response","48","757206","0.0-10.0-1.0-2.7","68BDBD31B9074683B7921C16B13C0895","68BDBD31B9074683B7921C16B13C0895","1e51ac5b-b4f9-4227-b9b7-c547b5f2990e","a0a8f18c-a66e-4ba7-a170-23efbdc67501","{""participantId"":""68BDBD31B9074683B7921C16B13C0895"",""assignmentId"":""1e51ac5b-b4f9-4227-b9b7-c547b5f2990e"",""projectId"":""a0a8f18c-a66e-4ba7-a170-23efbdc67501""}","https://test12345.live/?participantId=68BDBD31B9074683B7921C16B13C0895&assignmentId=1e51ac5b-b4f9-4227-b9b7-c547b5f2990e&projectId=a0a8f18c-a66e-4ba7-a170-23efbdc67501","68BDBD31B9074683B7921C16B13C0895-2024-11-24-19-08-56","","null","","[]","null","",""
"","","","","","image-button-response","49","761723","0.0-10.0-1.0-0.8","68BDBD31B9074683B7921C16B13C0895","68BDBD31B9074683B7921C16B13C0895","1e51ac5b-b4f9-4227-b9b7-c547b5f2990e","a0a8f18c-a66e-4ba7-a170-23efbdc67501","{""participantId"":""68BDBD31B9074683B7921C16B13C0895"",""assignmentId"":""1e51ac5b-b4f9-4227-b9b7-c547b5f2990e"",""projectId"":""a0a8f18c-a66e-4ba7-a170-23efbdc67501""}","https://test12345.live/?participantId=68BDBD31B9074683B7921C16B13C0895&assignmentId=1e51ac5b-b4f9-4227-b9b7-c547b5f2990e&projectId=a0a8f18c-a66e-4ba7-a170-23efbdc67501","68BDBD31B9074683B7921C16B13C0895-2024-11-24-19-08-56","","null","","images/schematic_sequence/flight_scheme/flight_scheme_5.png","null","",""
"","","","","","image-button-response","50","763082","0.0-10.0-1.0-1.8","68BDBD31B9074683B7921C16B13C0895","68BDBD31B9074683B7921C16B13C0895","1e51ac5b-b4f9-4227-b9b7-c547b5f2990e","a0a8f18c-a66e-4ba7-a170-23efbdc67501","{""participantId"":""68BDBD31B9074683B7921C16B13C0895"",""assignmentId"":""1e51ac5b-b4f9-4227-b9b7-c547b5f2990e"",""projectId"":""a0a8f18c-a66e-4ba7-a170-23efbdc67501""}","https://test12345.live/?participantId=68BDBD31B9074683B7921C16B13C0895&assignmentId=1e51ac5b-b4f9-4227-b9b7-c547b5f2990e&projectId=a0a8f18c-a66e-4ba7-a170-23efbdc67501","68BDBD31B9074683B7921C16B13C0895-2024-11-24-19-08-56","","1356","","images/schematic_sequence/flight_scheme/flight_scheme_5.png","0","",""
"","","","","","image-button-response","51","764890","0.0-10.0-1.0-2.8","68BDBD31B9074683B7921C16B13C0895","68BDBD31B9074683B7921C16B13C0895","1e51ac5b-b4f9-4227-b9b7-c547b5f2990e","a0a8f18c-a66e-4ba7-a170-23efbdc67501","{""participantId"":""68BDBD31B9074683B7921C16B13C0895"",""assignmentId"":""1e51ac5b-b4f9-4227-b9b7-c547b5f2990e"",""projectId"":""a0a8f18c-a66e-4ba7-a170-23efbdc67501""}","https://test12345.live/?participantId=68BDBD31B9074683B7921C16B13C0895&assignmentId=1e51ac5b-b4f9-4227-b9b7-c547b5f2990e&projectId=a0a8f18c-a66e-4ba7-a170-23efbdc67501","68BDBD31B9074683B7921C16B13C0895-2024-11-24-19-08-56","","null","","[]","null","",""
"","","","","","image-button-response","52","769400","0.0-10.0-1.0-0.9","68BDBD31B9074683B7921C16B13C0895","68BDBD31B9074683B7921C16B13C0895","1e51ac5b-b4f9-4227-b9b7-c547b5f2990e","a0a8f18c-a66e-4ba7-a170-23efbdc67501","{""participantId"":""68BDBD31B9074683B7921C16B13C0895"",""assignmentId"":""1e51ac5b-b4f9-4227-b9b7-c547b5f2990e"",""projectId"":""a0a8f18c-a66e-4ba7-a170-23efbdc67501""}","https://test12345.live/?participantId=68BDBD31B9074683B7921C16B13C0895&assignmentId=1e51ac5b-b4f9-4227-b9b7-c547b5f2990e&projectId=a0a8f18c-a66e-4ba7-a170-23efbdc67501","68BDBD31B9074683B7921C16B13C0895-2024-11-24-19-08-56","","null","","images/schematic_sequence/flight_scheme/flight_scheme_8.png","null","",""
"","","","","","image-button-response","53","771394","0.0-10.0-1.0-1.9","68BDBD31B9074683B7921C16B13C0895","68BDBD31B9074683B7921C16B13C0895","1e51ac5b-b4f9-4227-b9b7-c547b5f2990e","a0a8f18c-a66e-4ba7-a170-23efbdc67501","{""participantId"":""68BDBD31B9074683B7921C16B13C0895"",""assignmentId"":""1e51ac5b-b4f9-4227-b9b7-c547b5f2990e"",""projectId"":""a0a8f18c-a66e-4ba7-a170-23efbdc67501""}","https://test12345.live/?participantId=68BDBD31B9074683B7921C16B13C0895&assignmentId=1e51ac5b-b4f9-4227-b9b7-c547b5f2990e&projectId=a0a8f18c-a66e-4ba7-a170-23efbdc67501","68BDBD31B9074683B7921C16B13C0895-2024-11-24-19-08-56","","1992","","images/schematic_sequence/flight_scheme/flight_scheme_8.png","1","",""
"","","","","","image-button-response","54","773205","0.0-10.0-1.0-2.9","68BDBD31B9074683B7921C16B13C0895","68BDBD31B9074683B7921C16B13C0895","1e51ac5b-b4f9-4227-b9b7-c547b5f2990e","a0a8f18c-a66e-4ba7-a170-23efbdc67501","{""participantId"":""68BDBD31B9074683B7921C16B13C0895"",""assignmentId"":""1e51ac5b-b4f9-4227-b9b7-c547b5f2990e"",""projectId"":""a0a8f18c-a66e-4ba7-a170-23efbdc67501""}","https://test12345.live/?participantId=68BDBD31B9074683B7921C16B13C0895&assignmentId=1e51ac5b-b4f9-4227-b9b7-c547b5f2990e&projectId=a0a8f18c-a66e-4ba7-a170-23efbdc67501","68BDBD31B9074683B7921C16B13C0895-2024-11-24-19-08-56","","null","","[]","null","",""
"","","","","","html-audio-response","55","815466","0.0-11.0","68BDBD31B9074683B7921C16B13C0895","68BDBD31B9074683B7921C16B13C0895","1e51ac5b-b4f9-4227-b9b7-c547b5f2990e","a0a8f18c-a66e-4ba7-a170-23efbdc67501","{""participantId"":""68BDBD31B9074683B7921C16B13C0895"",""assignmentId"":""1e51ac5b-b4f9-4227-b9b7-c547b5f2990e"",""projectId"":""a0a8f18c-a66e-4ba7-a170-23efbdc67501""}","https://test12345.live/?participantId=68BDBD31B9074683B7921C16B13C0895&assignmentId=1e51ac5b-b4f9-4227-b9b7-c547b5f2990e&projectId=a0a8f18c-a66e-4ba7-a170-23efbdc67501","68BDBD31B9074683B7921C16B13C0895-2024-11-24-19-08-56","","36662","","[""<span style=\""color: red; font-size: 24px\""> NOW RECORDING</span><p>Please say out loud all the images you saw, as many as you can remember. The images can be said in any order.</p>""]","","8","flight_scheme"
"","","","","","image-button-response","56","821487","0.0-12.0-0.0","68BDBD31B9074683B7921C16B13C0895","68BDBD31B9074683B7921C16B13C0895","1e51ac5b-b4f9-4227-b9b7-c547b5f2990e","a0a8f18c-a66e-4ba7-a170-23efbdc67501","{""participantId"":""68BDBD31B9074683B7921C16B13C0895"",""assignmentId"":""1e51ac5b-b4f9-4227-b9b7-c547b5f2990e"",""projectId"":""a0a8f18c-a66e-4ba7-a170-23efbdc67501""}","https://test12345.live/?participantId=68BDBD31B9074683B7921C16B13C0895&assignmentId=1e51ac5b-b4f9-4227-b9b7-c547b5f2990e&projectId=a0a8f18c-a66e-4ba7-a170-23efbdc67501","68BDBD31B9074683B7921C16B13C0895-2024-11-24-19-08-56","","null","","images/schematic_sequence/restaurant_scheme/restaurant_scheme_0.png","null","",""
"","","","","","image-button-response","57","825993","0.0-12.0-1.0-0.0","68BDBD31B9074683B7921C16B13C0895","68BDBD31B9074683B7921C16B13C0895","1e51ac5b-b4f9-4227-b9b7-c547b5f2990e","a0a8f18c-a66e-4ba7-a170-23efbdc67501","{""participantId"":""68BDBD31B9074683B7921C16B13C0895"",""assignmentId"":""1e51ac5b-b4f9-4227-b9b7-c547b5f2990e"",""projectId"":""a0a8f18c-a66e-4ba7-a170-23efbdc67501""}","https://test12345.live/?participantId=68BDBD31B9074683B7921C16B13C0895&assignmentId=1e51ac5b-b4f9-4227-b9b7-c547b5f2990e&projectId=a0a8f18c-a66e-4ba7-a170-23efbdc67501","68BDBD31B9074683B7921C16B13C0895-2024-11-24-19-08-56","","null","","images/schematic_sequence/restaurant_scheme/restaurant_scheme_1.png","null","",""
"","","","","","image-button-response","58","829996","0.0-12.0-1.0-1.0","68BDBD31B9074683B7921C16B13C0895","68BDBD31B9074683B7921C16B13C0895","1e51ac5b-b4f9-4227-b9b7-c547b5f2990e","a0a8f18c-a66e-4ba7-a170-23efbdc67501","{""participantId"":""68BDBD31B9074683B7921C16B13C0895"",""assignmentId"":""1e51ac5b-b4f9-4227-b9b7-c547b5f2990e"",""projectId"":""a0a8f18c-a66e-4ba7-a170-23efbdc67501""}","https://test12345.live/?participantId=68BDBD31B9074683B7921C16B13C0895&assignmentId=1e51ac5b-b4f9-4227-b9b7-c547b5f2990e&projectId=a0a8f18c-a66e-4ba7-a170-23efbdc67501","68BDBD31B9074683B7921C16B13C0895-2024-11-24-19-08-56","","null","","images/schematic_sequence/restaurant_scheme/restaurant_scheme_1.png","null","",""
"","","","","","image-button-response","59","831805","0.0-12.0-1.0-2.0","68BDBD31B9074683B7921C16B13C0895","68BDBD31B9074683B7921C16B13C0895","1e51ac5b-b4f9-4227-b9b7-c547b5f2990e","a0a8f18c-a66e-4ba7-a170-23efbdc67501","{""participantId"":""68BDBD31B9074683B7921C16B13C0895"",""assignmentId"":""1e51ac5b-b4f9-4227-b9b7-c547b5f2990e"",""projectId"":""a0a8f18c-a66e-4ba7-a170-23efbdc67501""}","https://test12345.live/?participantId=68BDBD31B9074683B7921C16B13C0895&assignmentId=1e51ac5b-b4f9-4227-b9b7-c547b5f2990e&projectId=a0a8f18c-a66e-4ba7-a170-23efbdc67501","68BDBD31B9074683B7921C16B13C0895-2024-11-24-19-08-56","","null","","[]","null","",""
"","","","","","image-button-response","60","836322","0.0-12.0-1.0-0.1","68BDBD31B9074683B7921C16B13C0895","68BDBD31B9074683B7921C16B13C0895","1e51ac5b-b4f9-4227-b9b7-c547b5f2990e","a0a8f18c-a66e-4ba7-a170-23efbdc67501","{""participantId"":""68BDBD31B9074683B7921C16B13C0895"",""assignmentId"":""1e51ac5b-b4f9-4227-b9b7-c547b5f2990e"",""projectId"":""a0a8f18c-a66e-4ba7-a170-23efbdc67501""}","https://test12345.live/?participantId=68BDBD31B9074683B7921C16B13C0895&assignmentId=1e51ac5b-b4f9-4227-b9b7-c547b5f2990e&projectId=a0a8f18c-a66e-4ba7-a170-23efbdc67501","68BDBD31B9074683B7921C16B13C0895-2024-11-24-19-08-56","","null","","images/schematic_sequence/restaurant_scheme/restaurant_scheme_2.png","null","",""
"","","","","","image-button-response","61","839427","0.0-12.0-1.0-1.1","68BDBD31B9074683B7921C16B13C0895","68BDBD31B9074683B7921C16B13C0895","1e51ac5b-b4f9-4227-b9b7-c547b5f2990e","a0a8f18c-a66e-4ba7-a170-23efbdc67501","{""participantId"":""68BDBD31B9074683B7921C16B13C0895"",""assignmentId"":""1e51ac5b-b4f9-4227-b9b7-c547b5f2990e"",""projectId"":""a0a8f18c-a66e-4ba7-a170-23efbdc67501""}","https://test12345.live/?participantId=68BDBD31B9074683B7921C16B13C0895&assignmentId=1e51ac5b-b4f9-4227-b9b7-c547b5f2990e&projectId=a0a8f18c-a66e-4ba7-a170-23efbdc67501","68BDBD31B9074683B7921C16B13C0895-2024-11-24-19-08-56","","3102","","images/schematic_sequence/restaurant_scheme/restaurant_scheme_2.png","1","",""
"","","","","","image-button-response","62","841243","0.0-12.0-1.0-2.1","68BDBD31B9074683B7921C16B13C0895","68BDBD31B9074683B7921C16B13C0895","1e51ac5b-b4f9-4227-b9b7-c547b5f2990e","a0a8f18c-a66e-4ba7-a170-23efbdc67501","{""participantId"":""68BDBD31B9074683B7921C16B13C0895"",""assignmentId"":""1e51ac5b-b4f9-4227-b9b7-c547b5f2990e"",""projectId"":""a0a8f18c-a66e-4ba7-a170-23efbdc67501""}","https://test12345.live/?participantId=68BDBD31B9074683B7921C16B13C0895&assignmentId=1e51ac5b-b4f9-4227-b9b7-c547b5f2990e&projectId=a0a8f18c-a66e-4ba7-a170-23efbdc67501","68BDBD31B9074683B7921C16B13C0895-2024-11-24-19-08-56","","null","","[]","null","",""
"","","","","","image-button-response","63","845753","0.0-12.0-1.0-0.2","68BDBD31B9074683B7921C16B13C0895","68BDBD31B9074683B7921C16B13C0895","1e51ac5b-b4f9-4227-b9b7-c547b5f2990e","a0a8f18c-a66e-4ba7-a170-23efbdc67501","{""participantId"":""68BDBD31B9074683B7921C16B13C0895"",""assignmentId"":""1e51ac5b-b4f9-4227-b9b7-c547b5f2990e"",""projectId"":""a0a8f18c-a66e-4ba7-a170-23efbdc67501""}","https://test12345.live/?participantId=68BDBD31B9074683B7921C16B13C0895&assignmentId=1e51ac5b-b4f9-4227-b9b7-c547b5f2990e&projectId=a0a8f18c-a66e-4ba7-a170-23efbdc67501","68BDBD31B9074683B7921C16B13C0895-2024-11-24-19-08-56","","null","","images/schematic_sequence/restaurant_scheme/restaurant_scheme_3.png","null","",""
"","","","","","image-button-response","64","847233","0.0-12.0-1.0-1.2","68BDBD31B9074683B7921C16B13C0895","68BDBD31B9074683B7921C16B13C0895","1e51ac5b-b4f9-4227-b9b7-c547b5f2990e","a0a8f18c-a66e-4ba7-a170-23efbdc67501","{""participantId"":""68BDBD31B9074683B7921C16B13C0895"",""assignmentId"":""1e51ac5b-b4f9-4227-b9b7-c547b5f2990e"",""projectId"":""a0a8f18c-a66e-4ba7-a170-23efbdc67501""}","https://test12345.live/?participantId=68BDBD31B9074683B7921C16B13C0895&assignmentId=1e51ac5b-b4f9-4227-b9b7-c547b5f2990e&projectId=a0a8f18c-a66e-4ba7-a170-23efbdc67501","68BDBD31B9074683B7921C16B13C0895-2024-11-24-19-08-56","","1477","","images/schematic_sequence/restaurant_scheme/restaurant_scheme_3.png","1","",""
"","","","","","image-button-response","65","849050","0.0-12.0-1.0-2.2","68BDBD31B9074683B7921C16B13C0895","68BDBD31B9074683B7921C16B13C0895","1e51ac5b-b4f9-4227-b9b7-c547b5f2990e","a0a8f18c-a66e-4ba7-a170-23efbdc67501","{""participantId"":""68BDBD31B9074683B7921C16B13C0895"",""assignmentId"":""1e51ac5b-b4f9-4227-b9b7-c547b5f2990e"",""projectId"":""a0a8f18c-a66e-4ba7-a170-23efbdc67501""}","https://test12345.live/?participantId=68BDBD31B9074683B7921C16B13C0895&assignmentId=1e51ac5b-b4f9-4227-b9b7-c547b5f2990e&projectId=a0a8f18c-a66e-4ba7-a170-23efbdc67501","68BDBD31B9074683B7921C16B13C0895-2024-11-24-19-08-56","","null","","[]","null","",""
"","","","","","image-button-response","66","853554","0.0-12.0-1.0-0.3","68BDBD31B9074683B7921C16B13C0895","68BDBD31B9074683B7921C16B13C0895","1e51ac5b-b4f9-4227-b9b7-c547b5f2990e","a0a8f18c-a66e-4ba7-a170-23efbdc67501","{""participantId"":""68BDBD31B9074683B7921C16B13C0895"",""assignmentId"":""1e51ac5b-b4f9-4227-b9b7-c547b5f2990e"",""projectId"":""a0a8f18c-a66e-4ba7-a170-23efbdc67501""}","https://test12345.live/?participantId=68BDBD31B9074683B7921C16B13C0895&assignmentId=1e51ac5b-b4f9-4227-b9b7-c547b5f2990e&projectId=a0a8f18c-a66e-4ba7-a170-23efbdc67501","68BDBD31B9074683B7921C16B13C0895-2024-11-24-19-08-56","","null","","images/schematic_sequence/restaurant_scheme/restaurant_scheme_4.png","null","",""
"","","","","","image-button-response","67","855411","0.0-12.0-1.0-1.3","68BDBD31B9074683B7921C16B13C0895","68BDBD31B9074683B7921C16B13C0895","1e51ac5b-b4f9-4227-b9b7-c547b5f2990e","a0a8f18c-a66e-4ba7-a170-23efbdc67501","{""participantId"":""68BDBD31B9074683B7921C16B13C0895"",""assignmentId"":""1e51ac5b-b4f9-4227-b9b7-c547b5f2990e"",""projectId"":""a0a8f18c-a66e-4ba7-a170-23efbdc67501""}","https://test12345.live/?participantId=68BDBD31B9074683B7921C16B13C0895&assignmentId=1e51ac5b-b4f9-4227-b9b7-c547b5f2990e&projectId=a0a8f18c-a66e-4ba7-a170-23efbdc67501","68BDBD31B9074683B7921C16B13C0895-2024-11-24-19-08-56","","1853","","images/schematic_sequence/restaurant_scheme/restaurant_scheme_4.png","0","",""
"","","","","","image-button-response","68","857219","0.0-12.0-1.0-2.3","68BDBD31B9074683B7921C16B13C0895","68BDBD31B9074683B7921C16B13C0895","1e51ac5b-b4f9-4227-b9b7-c547b5f2990e","a0a8f18c-a66e-4ba7-a170-23efbdc67501","{""participantId"":""68BDBD31B9074683B7921C16B13C0895"",""assignmentId"":""1e51ac5b-b4f9-4227-b9b7-c547b5f2990e"",""projectId"":""a0a8f18c-a66e-4ba7-a170-23efbdc67501""}","https://test12345.live/?participantId=68BDBD31B9074683B7921C16B13C0895&assignmentId=1e51ac5b-b4f9-4227-b9b7-c547b5f2990e&projectId=a0a8f18c-a66e-4ba7-a170-23efbdc67501","68BDBD31B9074683B7921C16B13C0895-2024-11-24-19-08-56","","null","","[]","null","",""
"","","","","","image-button-response","69","861723","0.0-12.0-1.0-0.4","68BDBD31B9074683B7921C16B13C0895","68BDBD31B9074683B7921C16B13C0895","1e51ac5b-b4f9-4227-b9b7-c547b5f2990e","a0a8f18c-a66e-4ba7-a170-23efbdc67501","{""participantId"":""68BDBD31B9074683B7921C16B13C0895"",""assignmentId"":""1e51ac5b-b4f9-4227-b9b7-c547b5f2990e"",""projectId"":""a0a8f18c-a66e-4ba7-a170-23efbdc67501""}","https://test12345.live/?participantId=68BDBD31B9074683B7921C16B13C0895&assignmentId=1e51ac5b-b4f9-4227-b9b7-c547b5f2990e&projectId=a0a8f18c-a66e-4ba7-a170-23efbdc67501","68BDBD31B9074683B7921C16B13C0895-2024-11-24-19-08-56","","null","","images/schematic_sequence/restaurant_scheme/restaurant_scheme_5.png","null","",""
"","","","","","image-button-response","70","863215","0.0-12.0-1.0-1.4","68BDBD31B9074683B7921C16B13C0895","68BDBD31B9074683B7921C16B13C0895","1e51ac5b-b4f9-4227-b9b7-c547b5f2990e","a0a8f18c-a66e-4ba7-a170-23efbdc67501","{""participantId"":""68BDBD31B9074683B7921C16B13C0895"",""assignmentId"":""1e51ac5b-b4f9-4227-b9b7-c547b5f2990e"",""projectId"":""a0a8f18c-a66e-4ba7-a170-23efbdc67501""}","https://test12345.live/?participantId=68BDBD31B9074683B7921C16B13C0895&assignmentId=1e51ac5b-b4f9-4227-b9b7-c547b5f2990e&projectId=a0a8f18c-a66e-4ba7-a170-23efbdc67501","68BDBD31B9074683B7921C16B13C0895-2024-11-24-19-08-56","","1490","","images/schematic_sequence/restaurant_scheme/restaurant_scheme_5.png","0","",""
"","","","","","image-button-response","71","865021","0.0-12.0-1.0-2.4","68BDBD31B9074683B7921C16B13C0895","68BDBD31B9074683B7921C16B13C0895","1e51ac5b-b4f9-4227-b9b7-c547b5f2990e","a0a8f18c-a66e-4ba7-a170-23efbdc67501","{""participantId"":""68BDBD31B9074683B7921C16B13C0895"",""assignmentId"":""1e51ac5b-b4f9-4227-b9b7-c547b5f2990e"",""projectId"":""a0a8f18c-a66e-4ba7-a170-23efbdc67501""}","https://test12345.live/?participantId=68BDBD31B9074683B7921C16B13C0895&assignmentId=1e51ac5b-b4f9-4227-b9b7-c547b5f2990e&projectId=a0a8f18c-a66e-4ba7-a170-23efbdc67501","68BDBD31B9074683B7921C16B13C0895-2024-11-24-19-08-56","","null","","[]","null","",""
"","","","","","image-button-response","72","869526","0.0-12.0-1.0-0.5","68BDBD31B9074683B7921C16B13C0895","68BDBD31B9074683B7921C16B13C0895","1e51ac5b-b4f9-4227-b9b7-c547b5f2990e","a0a8f18c-a66e-4ba7-a170-23efbdc67501","{""participantId"":""68BDBD31B9074683B7921C16B13C0895"",""assignmentId"":""1e51ac5b-b4f9-4227-b9b7-c547b5f2990e"",""projectId"":""a0a8f18c-a66e-4ba7-a170-23efbdc67501""}","https://test12345.live/?participantId=68BDBD31B9074683B7921C16B13C0895&assignmentId=1e51ac5b-b4f9-4227-b9b7-c547b5f2990e&projectId=a0a8f18c-a66e-4ba7-a170-23efbdc67501","68BDBD31B9074683B7921C16B13C0895-2024-11-24-19-08-56","","null","","images/schematic_sequence/restaurant_scheme/restaurant_scheme_6.png","null","",""
"","","","","","image-button-response","73","870898","0.0-12.0-1.0-1.5","68BDBD31B9074683B7921C16B13C0895","68BDBD31B9074683B7921C16B13C0895","1e51ac5b-b4f9-4227-b9b7-c547b5f2990e","a0a8f18c-a66e-4ba7-a170-23efbdc67501","{""participantId"":""68BDBD31B9074683B7921C16B13C0895"",""assignmentId"":""1e51ac5b-b4f9-4227-b9b7-c547b5f2990e"",""projectId"":""a0a8f18c-a66e-4ba7-a170-23efbdc67501""}","https://test12345.live/?participantId=68BDBD31B9074683B7921C16B13C0895&assignmentId=1e51ac5b-b4f9-4227-b9b7-c547b5f2990e&projectId=a0a8f18c-a66e-4ba7-a170-23efbdc67501","68BDBD31B9074683B7921C16B13C0895-2024-11-24-19-08-56","","1368","","images/schematic_sequence/restaurant_scheme/restaurant_scheme_6.png","1","",""
"","","","","","image-button-response","74","872702","0.0-12.0-1.0-2.5","68BDBD31B9074683B7921C16B13C0895","68BDBD31B9074683B7921C16B13C0895","1e51ac5b-b4f9-4227-b9b7-c547b5f2990e","a0a8f18c-a66e-4ba7-a170-23efbdc67501","{""participantId"":""68BDBD31B9074683B7921C16B13C0895"",""assignmentId"":""1e51ac5b-b4f9-4227-b9b7-c547b5f2990e"",""projectId"":""a0a8f18c-a66e-4ba7-a170-23efbdc67501""}","https://test12345.live/?participantId=68BDBD31B9074683B7921C16B13C0895&assignmentId=1e51ac5b-b4f9-4227-b9b7-c547b5f2990e&projectId=a0a8f18c-a66e-4ba7-a170-23efbdc67501","68BDBD31B9074683B7921C16B13C0895-2024-11-24-19-08-56","","null","","[]","null","",""
"","","","","","image-button-response","75","877205","0.0-12.0-1.0-0.6","68BDBD31B9074683B7921C16B13C0895","68BDBD31B9074683B7921C16B13C0895","1e51ac5b-b4f9-4227-b9b7-c547b5f2990e","a0a8f18c-a66e-4ba7-a170-23efbdc67501","{""participantId"":""68BDBD31B9074683B7921C16B13C0895"",""assignmentId"":""1e51ac5b-b4f9-4227-b9b7-c547b5f2990e"",""projectId"":""a0a8f18c-a66e-4ba7-a170-23efbdc67501""}","https://test12345.live/?participantId=68BDBD31B9074683B7921C16B13C0895&assignmentId=1e51ac5b-b4f9-4227-b9b7-c547b5f2990e&projectId=a0a8f18c-a66e-4ba7-a170-23efbdc67501","68BDBD31B9074683B7921C16B13C0895-2024-11-24-19-08-56","","null","","images/schematic_sequence/restaurant_scheme/restaurant_scheme_7.png","null","",""
"","","","","","image-button-response","76","878413","0.0-12.0-1.0-1.6","68BDBD31B9074683B7921C16B13C0895","68BDBD31B9074683B7921C16B13C0895","1e51ac5b-b4f9-4227-b9b7-c547b5f2990e","a0a8f18c-a66e-4ba7-a170-23efbdc67501","{""participantId"":""68BDBD31B9074683B7921C16B13C0895"",""assignmentId"":""1e51ac5b-b4f9-4227-b9b7-c547b5f2990e"",""projectId"":""a0a8f18c-a66e-4ba7-a170-23efbdc67501""}","https://test12345.live/?participantId=68BDBD31B9074683B7921C16B13C0895&assignmentId=1e51ac5b-b4f9-4227-b9b7-c547b5f2990e&projectId=a0a8f18c-a66e-4ba7-a170-23efbdc67501","68BDBD31B9074683B7921C16B13C0895-2024-11-24-19-08-56","","1204","","images/schematic_sequence/restaurant_scheme/restaurant_scheme_7.png","1","",""
"","","","","","image-button-response","77","880217","0.0-12.0-1.0-2.6","68BDBD31B9074683B7921C16B13C0895","68BDBD31B9074683B7921C16B13C0895","1e51ac5b-b4f9-4227-b9b7-c547b5f2990e","a0a8f18c-a66e-4ba7-a170-23efbdc67501","{""participantId"":""68BDBD31B9074683B7921C16B13C0895"",""assignmentId"":""1e51ac5b-b4f9-4227-b9b7-c547b5f2990e"",""projectId"":""a0a8f18c-a66e-4ba7-a170-23efbdc67501""}","https://test12345.live/?participantId=68BDBD31B9074683B7921C16B13C0895&assignmentId=1e51ac5b-b4f9-4227-b9b7-c547b5f2990e&projectId=a0a8f18c-a66e-4ba7-a170-23efbdc67501","68BDBD31B9074683B7921C16B13C0895-2024-11-24-19-08-56","","null","","[]","null","",""
"","","","","","image-button-response","78","884723","0.0-12.0-1.0-0.7","68BDBD31B9074683B7921C16B13C0895","68BDBD31B9074683B7921C16B13C0895","1e51ac5b-b4f9-4227-b9b7-c547b5f2990e","a0a8f18c-a66e-4ba7-a170-23efbdc67501","{""participantId"":""68BDBD31B9074683B7921C16B13C0895"",""assignmentId"":""1e51ac5b-b4f9-4227-b9b7-c547b5f2990e"",""projectId"":""a0a8f18c-a66e-4ba7-a170-23efbdc67501""}","https://test12345.live/?participantId=68BDBD31B9074683B7921C16B13C0895&assignmentId=1e51ac5b-b4f9-4227-b9b7-c547b5f2990e&projectId=a0a8f18c-a66e-4ba7-a170-23efbdc67501","68BDBD31B9074683B7921C16B13C0895-2024-11-24-19-08-56","","null","","images/schematic_sequence/restaurant_scheme/restaurant_scheme_8.png","null","",""
"","","","","","image-button-response","79","886309","0.0-12.0-1.0-1.7","68BDBD31B9074683B7921C16B13C0895","68BDBD31B9074683B7921C16B13C0895","1e51ac5b-b4f9-4227-b9b7-c547b5f2990e","a0a8f18c-a66e-4ba7-a170-23efbdc67501","{""participantId"":""68BDBD31B9074683B7921C16B13C0895"",""assignmentId"":""1e51ac5b-b4f9-4227-b9b7-c547b5f2990e"",""projectId"":""a0a8f18c-a66e-4ba7-a170-23efbdc67501""}","https://test12345.live/?participantId=68BDBD31B9074683B7921C16B13C0895&assignmentId=1e51ac5b-b4f9-4227-b9b7-c547b5f2990e&projectId=a0a8f18c-a66e-4ba7-a170-23efbdc67501","68BDBD31B9074683B7921C16B13C0895-2024-11-24-19-08-56","","1579","","images/schematic_sequence/restaurant_scheme/restaurant_scheme_8.png","1","",""
"","","","","","image-button-response","80","888121","0.0-12.0-1.0-2.7","68BDBD31B9074683B7921C16B13C0895","68BDBD31B9074683B7921C16B13C0895","1e51ac5b-b4f9-4227-b9b7-c547b5f2990e","a0a8f18c-a66e-4ba7-a170-23efbdc67501","{""participantId"":""68BDBD31B9074683B7921C16B13C0895"",""assignmentId"":""1e51ac5b-b4f9-4227-b9b7-c547b5f2990e"",""projectId"":""a0a8f18c-a66e-4ba7-a170-23efbdc67501""}","https://test12345.live/?participantId=68BDBD31B9074683B7921C16B13C0895&assignmentId=1e51ac5b-b4f9-4227-b9b7-c547b5f2990e&projectId=a0a8f18c-a66e-4ba7-a170-23efbdc67501","68BDBD31B9074683B7921C16B13C0895-2024-11-24-19-08-56","","null","","[]","null","",""
"","","","","","image-button-response","81","892638","0.0-12.0-1.0-0.8","68BDBD31B9074683B7921C16B13C0895","68BDBD31B9074683B7921C16B13C0895","1e51ac5b-b4f9-4227-b9b7-c547b5f2990e","a0a8f18c-a66e-4ba7-a170-23efbdc67501","{""participantId"":""68BDBD31B9074683B7921C16B13C0895"",""assignmentId"":""1e51ac5b-b4f9-4227-b9b7-c547b5f2990e"",""projectId"":""a0a8f18c-a66e-4ba7-a170-23efbdc67501""}","https://test12345.live/?participantId=68BDBD31B9074683B7921C16B13C0895&assignmentId=1e51ac5b-b4f9-4227-b9b7-c547b5f2990e&projectId=a0a8f18c-a66e-4ba7-a170-23efbdc67501","68BDBD31B9074683B7921C16B13C0895-2024-11-24-19-08-56","","null","","images/schematic_sequence/restaurant_scheme/restaurant_scheme_9.png","null","",""
"","","","","","image-button-response","82","893915","0.0-12.0-1.0-1.8","68BDBD31B9074683B7921C16B13C0895","68BDBD31B9074683B7921C16B13C0895","1e51ac5b-b4f9-4227-b9b7-c547b5f2990e","a0a8f18c-a66e-4ba7-a170-23efbdc67501","{""participantId"":""68BDBD31B9074683B7921C16B13C0895"",""assignmentId"":""1e51ac5b-b4f9-4227-b9b7-c547b5f2990e"",""projectId"":""a0a8f18c-a66e-4ba7-a170-23efbdc67501""}","https://test12345.live/?participantId=68BDBD31B9074683B7921C16B13C0895&assignmentId=1e51ac5b-b4f9-4227-b9b7-c547b5f2990e&projectId=a0a8f18c-a66e-4ba7-a170-23efbdc67501","68BDBD31B9074683B7921C16B13C0895-2024-11-24-19-08-56","","1273","","images/schematic_sequence/restaurant_scheme/restaurant_scheme_9.png","0","",""
"","","","","","image-button-response","83","895716","0.0-12.0-1.0-2.8","68BDBD31B9074683B7921C16B13C0895","68BDBD31B9074683B7921C16B13C0895","1e51ac5b-b4f9-4227-b9b7-c547b5f2990e","a0a8f18c-a66e-4ba7-a170-23efbdc67501","{""participantId"":""68BDBD31B9074683B7921C16B13C0895"",""assignmentId"":""1e51ac5b-b4f9-4227-b9b7-c547b5f2990e"",""projectId"":""a0a8f18c-a66e-4ba7-a170-23efbdc67501""}","https://test12345.live/?participantId=68BDBD31B9074683B7921C16B13C0895&assignmentId=1e51ac5b-b4f9-4227-b9b7-c547b5f2990e&projectId=a0a8f18c-a66e-4ba7-a170-23efbdc67501","68BDBD31B9074683B7921C16B13C0895-2024-11-24-19-08-56","","null","","[]","null","",""
"","","","","","image-button-response","84","900224","0.0-12.0-1.0-0.9","68BDBD31B9074683B7921C16B13C0895","68BDBD31B9074683B7921C16B13C0895","1e51ac5b-b4f9-4227-b9b7-c547b5f2990e","a0a8f18c-a66e-4ba7-a170-23efbdc67501","{""participantId"":""68BDBD31B9074683B7921C16B13C0895"",""assignmentId"":""1e51ac5b-b4f9-4227-b9b7-c547b5f2990e"",""projectId"":""a0a8f18c-a66e-4ba7-a170-23efbdc67501""}","https://test12345.live/?participantId=68BDBD31B9074683B7921C16B13C0895&assignmentId=1e51ac5b-b4f9-4227-b9b7-c547b5f2990e&projectId=a0a8f18c-a66e-4ba7-a170-23efbdc67501","68BDBD31B9074683B7921C16B13C0895-2024-11-24-19-08-56","","null","","images/schematic_sequence/restaurant_scheme/restaurant_scheme_ten.png","null","",""
"","","","","","image-button-response","85","901731","0.0-12.0-1.0-1.9","68BDBD31B9074683B7921C16B13C0895","68BDBD31B9074683B7921C16B13C0895","1e51ac5b-b4f9-4227-b9b7-c547b5f2990e","a0a8f18c-a66e-4ba7-a170-23efbdc67501","{""participantId"":""68BDBD31B9074683B7921C16B13C0895"",""assignmentId"":""1e51ac5b-b4f9-4227-b9b7-c547b5f2990e"",""projectId"":""a0a8f18c-a66e-4ba7-a170-23efbdc67501""}","https://test12345.live/?participantId=68BDBD31B9074683B7921C16B13C0895&assignmentId=1e51ac5b-b4f9-4227-b9b7-c547b5f2990e&projectId=a0a8f18c-a66e-4ba7-a170-23efbdc67501","68BDBD31B9074683B7921C16B13C0895-2024-11-24-19-08-56","","1505","","images/schematic_sequence/restaurant_scheme/restaurant_scheme_ten.png","0","",""
"","","","","","image-button-response","86","903545","0.0-12.0-1.0-2.9","68BDBD31B9074683B7921C16B13C0895","68BDBD31B9074683B7921C16B13C0895","1e51ac5b-b4f9-4227-b9b7-c547b5f2990e","a0a8f18c-a66e-4ba7-a170-23efbdc67501","{""participantId"":""68BDBD31B9074683B7921C16B13C0895"",""assignmentId"":""1e51ac5b-b4f9-4227-b9b7-c547b5f2990e"",""projectId"":""a0a8f18c-a66e-4ba7-a170-23efbdc67501""}","https://test12345.live/?participantId=68BDBD31B9074683B7921C16B13C0895&assignmentId=1e51ac5b-b4f9-4227-b9b7-c547b5f2990e&projectId=a0a8f18c-a66e-4ba7-a170-23efbdc67501","68BDBD31B9074683B7921C16B13C0895-2024-11-24-19-08-56","","null","","[]","null","",""
"","","","","","html-audio-response","87","938613","0.0-13.0","68BDBD31B9074683B7921C16B13C0895","68BDBD31B9074683B7921C16B13C0895","1e51ac5b-b4f9-4227-b9b7-c547b5f2990e","a0a8f18c-a66e-4ba7-a170-23efbdc67501","{""participantId"":""68BDBD31B9074683B7921C16B13C0895"",""assignmentId"":""1e51ac5b-b4f9-4227-b9b7-c547b5f2990e"",""projectId"":""a0a8f18c-a66e-4ba7-a170-23efbdc67501""}","https://test12345.live/?participantId=68BDBD31B9074683B7921C16B13C0895&assignmentId=1e51ac5b-b4f9-4227-b9b7-c547b5f2990e&projectId=a0a8f18c-a66e-4ba7-a170-23efbdc67501","68BDBD31B9074683B7921C16B13C0895-2024-11-24-19-08-56","","3844","","[""<span style=\""color: red; font-size: 24px\""> NOW RECORDING</span><p>Please say out loud all the images you saw, as many as you can remember. The images can be said in any order.</p>""]","","6","restaurant_scheme"
"","","","","","image-button-response","88","944629","0.0-14.0-0.0","68BDBD31B9074683B7921C16B13C0895","68BDBD31B9074683B7921C16B13C0895","1e51ac5b-b4f9-4227-b9b7-c547b5f2990e","a0a8f18c-a66e-4ba7-a170-23efbdc67501","{""participantId"":""68BDBD31B9074683B7921C16B13C0895"",""assignmentId"":""1e51ac5b-b4f9-4227-b9b7-c547b5f2990e"",""projectId"":""a0a8f18c-a66e-4ba7-a170-23efbdc67501""}","https://test12345.live/?participantId=68BDBD31B9074683B7921C16B13C0895&assignmentId=1e51ac5b-b4f9-4227-b9b7-c547b5f2990e&projectId=a0a8f18c-a66e-4ba7-a170-23efbdc67501","68BDBD31B9074683B7921C16B13C0895-2024-11-24-19-08-56","","null","","images/causal_sequence/dog_causal/dog_causal_0.png","null","",""
"","","","","","image-button-response","89","949134","0.0-14.0-1.0-0.0","68BDBD31B9074683B7921C16B13C0895","68BDBD31B9074683B7921C16B13C0895","1e51ac5b-b4f9-4227-b9b7-c547b5f2990e","a0a8f18c-a66e-4ba7-a170-23efbdc67501","{""participantId"":""68BDBD31B9074683B7921C16B13C0895"",""assignmentId"":""1e51ac5b-b4f9-4227-b9b7-c547b5f2990e"",""projectId"":""a0a8f18c-a66e-4ba7-a170-23efbdc67501""}","https://test12345.live/?participantId=68BDBD31B9074683B7921C16B13C0895&assignmentId=1e51ac5b-b4f9-4227-b9b7-c547b5f2990e&projectId=a0a8f18c-a66e-4ba7-a170-23efbdc67501","68BDBD31B9074683B7921C16B13C0895-2024-11-24-19-08-56","","null","","images/causal_sequence/dog_causal/dog_causal_1.png","null","",""
"","","","","","image-button-response","90","950534","0.0-14.0-1.0-1.0","68BDBD31B9074683B7921C16B13C0895","68BDBD31B9074683B7921C16B13C0895","1e51ac5b-b4f9-4227-b9b7-c547b5f2990e","a0a8f18c-a66e-4ba7-a170-23efbdc67501","{""participantId"":""68BDBD31B9074683B7921C16B13C0895"",""assignmentId"":""1e51ac5b-b4f9-4227-b9b7-c547b5f2990e"",""projectId"":""a0a8f18c-a66e-4ba7-a170-23efbdc67501""}","https://test12345.live/?participantId=68BDBD31B9074683B7921C16B13C0895&assignmentId=1e51ac5b-b4f9-4227-b9b7-c547b5f2990e&projectId=a0a8f18c-a66e-4ba7-a170-23efbdc67501","68BDBD31B9074683B7921C16B13C0895-2024-11-24-19-08-56","","1397","","images/causal_sequence/dog_causal/dog_causal_1.png","0","",""
"","","","","","image-button-response","91","952343","0.0-14.0-1.0-2.0","68BDBD31B9074683B7921C16B13C0895","68BDBD31B9074683B7921C16B13C0895","1e51ac5b-b4f9-4227-b9b7-c547b5f2990e","a0a8f18c-a66e-4ba7-a170-23efbdc67501","{""participantId"":""68BDBD31B9074683B7921C16B13C0895"",""assignmentId"":""1e51ac5b-b4f9-4227-b9b7-c547b5f2990e"",""projectId"":""a0a8f18c-a66e-4ba7-a170-23efbdc67501""}","https://test12345.live/?participantId=68BDBD31B9074683B7921C16B13C0895&assignmentId=1e51ac5b-b4f9-4227-b9b7-c547b5f2990e&projectId=a0a8f18c-a66e-4ba7-a170-23efbdc67501","68BDBD31B9074683B7921C16B13C0895-2024-11-24-19-08-56","","null","","[]","null","",""
"","","","","","image-button-response","92","956847","0.0-14.0-1.0-0.1","68BDBD31B9074683B7921C16B13C0895","68BDBD31B9074683B7921C16B13C0895","1e51ac5b-b4f9-4227-b9b7-c547b5f2990e","a0a8f18c-a66e-4ba7-a170-23efbdc67501","{""participantId"":""68BDBD31B9074683B7921C16B13C0895"",""assignmentId"":""1e51ac5b-b4f9-4227-b9b7-c547b5f2990e"",""projectId"":""a0a8f18c-a66e-4ba7-a170-23efbdc67501""}","https://test12345.live/?participantId=68BDBD31B9074683B7921C16B13C0895&assignmentId=1e51ac5b-b4f9-4227-b9b7-c547b5f2990e&projectId=a0a8f18c-a66e-4ba7-a170-23efbdc67501","68BDBD31B9074683B7921C16B13C0895-2024-11-24-19-08-56","","null","","images/causal_sequence/dog_causal/dog_causal_2.png","null","",""
"","","","","","image-button-response","93","958006","0.0-14.0-1.0-1.1","68BDBD31B9074683B7921C16B13C0895","68BDBD31B9074683B7921C16B13C0895","1e51ac5b-b4f9-4227-b9b7-c547b5f2990e","a0a8f18c-a66e-4ba7-a170-23efbdc67501","{""participantId"":""68BDBD31B9074683B7921C16B13C0895"",""assignmentId"":""1e51ac5b-b4f9-4227-b9b7-c547b5f2990e"",""projectId"":""a0a8f18c-a66e-4ba7-a170-23efbdc67501""}","https://test12345.live/?participantId=68BDBD31B9074683B7921C16B13C0895&assignmentId=1e51ac5b-b4f9-4227-b9b7-c547b5f2990e&projectId=a0a8f18c-a66e-4ba7-a170-23efbdc67501","68BDBD31B9074683B7921C16B13C0895-2024-11-24-19-08-56","","1154","","images/causal_sequence/dog_causal/dog_causal_2.png","0","",""
"","","","","","image-button-response","94","959817","0.0-14.0-1.0-2.1","68BDBD31B9074683B7921C16B13C0895","68BDBD31B9074683B7921C16B13C0895","1e51ac5b-b4f9-4227-b9b7-c547b5f2990e","a0a8f18c-a66e-4ba7-a170-23efbdc67501","{""participantId"":""68BDBD31B9074683B7921C16B13C0895"",""assignmentId"":""1e51ac5b-b4f9-4227-b9b7-c547b5f2990e"",""projectId"":""a0a8f18c-a66e-4ba7-a170-23efbdc67501""}","https://test12345.live/?participantId=68BDBD31B9074683B7921C16B13C0895&assignmentId=1e51ac5b-b4f9-4227-b9b7-c547b5f2990e&projectId=a0a8f18c-a66e-4ba7-a170-23efbdc67501","68BDBD31B9074683B7921C16B13C0895-2024-11-24-19-08-56","","null","","[]","null","",""
"","","","","","image-button-response","95","964321","0.0-14.0-1.0-0.2","68BDBD31B9074683B7921C16B13C0895","68BDBD31B9074683B7921C16B13C0895","1e51ac5b-b4f9-4227-b9b7-c547b5f2990e","a0a8f18c-a66e-4ba7-a170-23efbdc67501","{""participantId"":""68BDBD31B9074683B7921C16B13C0895"",""assignmentId"":""1e51ac5b-b4f9-4227-b9b7-c547b5f2990e"",""projectId"":""a0a8f18c-a66e-4ba7-a170-23efbdc67501""}","https://test12345.live/?participantId=68BDBD31B9074683B7921C16B13C0895&assignmentId=1e51ac5b-b4f9-4227-b9b7-c547b5f2990e&projectId=a0a8f18c-a66e-4ba7-a170-23efbdc67501","68BDBD31B9074683B7921C16B13C0895-2024-11-24-19-08-56","","null","","images/causal_sequence/dog_causal/dog_causal_3.png","null","",""
"","","","","","image-button-response","96","965738","0.0-14.0-1.0-1.2","68BDBD31B9074683B7921C16B13C0895","68BDBD31B9074683B7921C16B13C0895","1e51ac5b-b4f9-4227-b9b7-c547b5f2990e","a0a8f18c-a66e-4ba7-a170-23efbdc67501","{""participantId"":""68BDBD31B9074683B7921C16B13C0895"",""assignmentId"":""1e51ac5b-b4f9-4227-b9b7-c547b5f2990e"",""projectId"":""a0a8f18c-a66e-4ba7-a170-23efbdc67501""}","https://test12345.live/?participantId=68BDBD31B9074683B7921C16B13C0895&assignmentId=1e51ac5b-b4f9-4227-b9b7-c547b5f2990e&projectId=a0a8f18c-a66e-4ba7-a170-23efbdc67501","68BDBD31B9074683B7921C16B13C0895-2024-11-24-19-08-56","","1415","","images/causal_sequence/dog_causal/dog_causal_3.png","0","",""
"","","","","","image-button-response","97","967554","0.0-14.0-1.0-2.2","68BDBD31B9074683B7921C16B13C0895","68BDBD31B9074683B7921C16B13C0895","1e51ac5b-b4f9-4227-b9b7-c547b5f2990e","a0a8f18c-a66e-4ba7-a170-23efbdc67501","{""participantId"":""68BDBD31B9074683B7921C16B13C0895"",""assignmentId"":""1e51ac5b-b4f9-4227-b9b7-c547b5f2990e"",""projectId"":""a0a8f18c-a66e-4ba7-a170-23efbdc67501""}","https://test12345.live/?participantId=68BDBD31B9074683B7921C16B13C0895&assignmentId=1e51ac5b-b4f9-4227-b9b7-c547b5f2990e&projectId=a0a8f18c-a66e-4ba7-a170-23efbdc67501","68BDBD31B9074683B7921C16B13C0895-2024-11-24-19-08-56","","null","","[]","null","",""
"","","","","","image-button-response","98","972067","0.0-14.0-1.0-0.3","68BDBD31B9074683B7921C16B13C0895","68BDBD31B9074683B7921C16B13C0895","1e51ac5b-b4f9-4227-b9b7-c547b5f2990e","a0a8f18c-a66e-4ba7-a170-23efbdc67501","{""participantId"":""68BDBD31B9074683B7921C16B13C0895"",""assignmentId"":""1e51ac5b-b4f9-4227-b9b7-c547b5f2990e"",""projectId"":""a0a8f18c-a66e-4ba7-a170-23efbdc67501""}","https://test12345.live/?participantId=68BDBD31B9074683B7921C16B13C0895&assignmentId=1e51ac5b-b4f9-4227-b9b7-c547b5f2990e&projectId=a0a8f18c-a66e-4ba7-a170-23efbdc67501","68BDBD31B9074683B7921C16B13C0895-2024-11-24-19-08-56","","null","","images/causal_sequence/dog_causal/dog_causal_4.png","null","",""
"","","","","","image-button-response","99","973655","0.0-14.0-1.0-1.3","68BDBD31B9074683B7921C16B13C0895","68BDBD31B9074683B7921C16B13C0895","1e51ac5b-b4f9-4227-b9b7-c547b5f2990e","a0a8f18c-a66e-4ba7-a170-23efbdc67501","{""participantId"":""68BDBD31B9074683B7921C16B13C0895"",""assignmentId"":""1e51ac5b-b4f9-4227-b9b7-c547b5f2990e"",""projectId"":""a0a8f18c-a66e-4ba7-a170-23efbdc67501""}","https://test12345.live/?participantId=68BDBD31B9074683B7921C16B13C0895&assignmentId=1e51ac5b-b4f9-4227-b9b7-c547b5f2990e&projectId=a0a8f18c-a66e-4ba7-a170-23efbdc67501","68BDBD31B9074683B7921C16B13C0895-2024-11-24-19-08-56","","1586","","images/causal_sequence/dog_causal/dog_causal_4.png","0","",""
"","","","","","image-button-response","100","975463","0.0-14.0-1.0-2.3","68BDBD31B9074683B7921C16B13C0895","68BDBD31B9074683B7921C16B13C0895","1e51ac5b-b4f9-4227-b9b7-c547b5f2990e","a0a8f18c-a66e-4ba7-a170-23efbdc67501","{""participantId"":""68BDBD31B9074683B7921C16B13C0895"",""assignmentId"":""1e51ac5b-b4f9-4227-b9b7-c547b5f2990e"",""projectId"":""a0a8f18c-a66e-4ba7-a170-23efbdc67501""}","https://test12345.live/?participantId=68BDBD31B9074683B7921C16B13C0895&assignmentId=1e51ac5b-b4f9-4227-b9b7-c547b5f2990e&projectId=a0a8f18c-a66e-4ba7-a170-23efbdc67501","68BDBD31B9074683B7921C16B13C0895-2024-11-24-19-08-56","","null","","[]","null","",""
"","","","","","image-button-response","101","979982","0.0-14.0-1.0-0.4","68BDBD31B9074683B7921C16B13C0895","68BDBD31B9074683B7921C16B13C0895","1e51ac5b-b4f9-4227-b9b7-c547b5f2990e","a0a8f18c-a66e-4ba7-a170-23efbdc67501","{""participantId"":""68BDBD31B9074683B7921C16B13C0895"",""assignmentId"":""1e51ac5b-b4f9-4227-b9b7-c547b5f2990e"",""projectId"":""a0a8f18c-a66e-4ba7-a170-23efbdc67501""}","https://test12345.live/?participantId=68BDBD31B9074683B7921C16B13C0895&assignmentId=1e51ac5b-b4f9-4227-b9b7-c547b5f2990e&projectId=a0a8f18c-a66e-4ba7-a170-23efbdc67501","68BDBD31B9074683B7921C16B13C0895-2024-11-24-19-08-56","","null","","images/causal_sequence/dog_causal/dog_causal_5.png","null","",""
"","","","","","image-button-response","102","981195","0.0-14.0-1.0-1.4","68BDBD31B9074683B7921C16B13C0895","68BDBD31B9074683B7921C16B13C0895","1e51ac5b-b4f9-4227-b9b7-c547b5f2990e","a0a8f18c-a66e-4ba7-a170-23efbdc67501","{""participantId"":""68BDBD31B9074683B7921C16B13C0895"",""assignmentId"":""1e51ac5b-b4f9-4227-b9b7-c547b5f2990e"",""projectId"":""a0a8f18c-a66e-4ba7-a170-23efbdc67501""}","https://test12345.live/?participantId=68BDBD31B9074683B7921C16B13C0895&assignmentId=1e51ac5b-b4f9-4227-b9b7-c547b5f2990e&projectId=a0a8f18c-a66e-4ba7-a170-23efbdc67501","68BDBD31B9074683B7921C16B13C0895-2024-11-24-19-08-56","","1210","","images/causal_sequence/dog_causal/dog_causal_5.png","0","",""
"","","","","","image-button-response","103","983010","0.0-14.0-1.0-2.4","68BDBD31B9074683B7921C16B13C0895","68BDBD31B9074683B7921C16B13C0895","1e51ac5b-b4f9-4227-b9b7-c547b5f2990e","a0a8f18c-a66e-4ba7-a170-23efbdc67501","{""participantId"":""68BDBD31B9074683B7921C16B13C0895"",""assignmentId"":""1e51ac5b-b4f9-4227-b9b7-c547b5f2990e"",""projectId"":""a0a8f18c-a66e-4ba7-a170-23efbdc67501""}","https://test12345.live/?participantId=68BDBD31B9074683B7921C16B13C0895&assignmentId=1e51ac5b-b4f9-4227-b9b7-c547b5f2990e&projectId=a0a8f18c-a66e-4ba7-a170-23efbdc67501","68BDBD31B9074683B7921C16B13C0895-2024-11-24-19-08-56","","null","","[]","null","",""
"","","","","","image-button-response","104","987526","0.0-14.0-1.0-0.5","68BDBD31B9074683B7921C16B13C0895","68BDBD31B9074683B7921C16B13C0895","1e51ac5b-b4f9-4227-b9b7-c547b5f2990e","a0a8f18c-a66e-4ba7-a170-23efbdc67501","{""participantId"":""68BDBD31B9074683B7921C16B13C0895"",""assignmentId"":""1e51ac5b-b4f9-4227-b9b7-c547b5f2990e"",""projectId"":""a0a8f18c-a66e-4ba7-a170-23efbdc67501""}","https://test12345.live/?participantId=68BDBD31B9074683B7921C16B13C0895&assignmentId=1e51ac5b-b4f9-4227-b9b7-c547b5f2990e&projectId=a0a8f18c-a66e-4ba7-a170-23efbdc67501","68BDBD31B9074683B7921C16B13C0895-2024-11-24-19-08-56","","null","","images/causal_sequence/dog_causal/dog_causal_6.png","null","",""
"","","","","","image-button-response","105","989083","0.0-14.0-1.0-1.5","68BDBD31B9074683B7921C16B13C0895","68BDBD31B9074683B7921C16B13C0895","1e51ac5b-b4f9-4227-b9b7-c547b5f2990e","a0a8f18c-a66e-4ba7-a170-23efbdc67501","{""participantId"":""68BDBD31B9074683B7921C16B13C0895"",""assignmentId"":""1e51ac5b-b4f9-4227-b9b7-c547b5f2990e"",""projectId"":""a0a8f18c-a66e-4ba7-a170-23efbdc67501""}","https://test12345.live/?participantId=68BDBD31B9074683B7921C16B13C0895&assignmentId=1e51ac5b-b4f9-4227-b9b7-c547b5f2990e&projectId=a0a8f18c-a66e-4ba7-a170-23efbdc67501","68BDBD31B9074683B7921C16B13C0895-2024-11-24-19-08-56","","1553","","images/causal_sequence/dog_causal/dog_causal_6.png","0","",""
"","","","","","image-button-response","106","990893","0.0-14.0-1.0-2.5","68BDBD31B9074683B7921C16B13C0895","68BDBD31B9074683B7921C16B13C0895","1e51ac5b-b4f9-4227-b9b7-c547b5f2990e","a0a8f18c-a66e-4ba7-a170-23efbdc67501","{""participantId"":""68BDBD31B9074683B7921C16B13C0895"",""assignmentId"":""1e51ac5b-b4f9-4227-b9b7-c547b5f2990e"",""projectId"":""a0a8f18c-a66e-4ba7-a170-23efbdc67501""}","https://test12345.live/?participantId=68BDBD31B9074683B7921C16B13C0895&assignmentId=1e51ac5b-b4f9-4227-b9b7-c547b5f2990e&projectId=a0a8f18c-a66e-4ba7-a170-23efbdc67501","68BDBD31B9074683B7921C16B13C0895-2024-11-24-19-08-56","","null","","[]","null","",""
"","","","","","image-button-response","107","995410","0.0-14.0-1.0-0.6","68BDBD31B9074683B7921C16B13C0895","68BDBD31B9074683B7921C16B13C0895","1e51ac5b-b4f9-4227-b9b7-c547b5f2990e","a0a8f18c-a66e-4ba7-a170-23efbdc67501","{""participantId"":""68BDBD31B9074683B7921C16B13C0895"",""assignmentId"":""1e51ac5b-b4f9-4227-b9b7-c547b5f2990e"",""projectId"":""a0a8f18c-a66e-4ba7-a170-23efbdc67501""}","https://test12345.live/?participantId=68BDBD31B9074683B7921C16B13C0895&assignmentId=1e51ac5b-b4f9-4227-b9b7-c547b5f2990e&projectId=a0a8f18c-a66e-4ba7-a170-23efbdc67501","68BDBD31B9074683B7921C16B13C0895-2024-11-24-19-08-56","","null","","images/causal_sequence/dog_causal/dog_causal_7.png","null","",""
"","","","","","image-button-response","108","997359","0.0-14.0-1.0-1.6","68BDBD31B9074683B7921C16B13C0895","68BDBD31B9074683B7921C16B13C0895","1e51ac5b-b4f9-4227-b9b7-c547b5f2990e","a0a8f18c-a66e-4ba7-a170-23efbdc67501","{""participantId"":""68BDBD31B9074683B7921C16B13C0895"",""assignmentId"":""1e51ac5b-b4f9-4227-b9b7-c547b5f2990e"",""projectId"":""a0a8f18c-a66e-4ba7-a170-23efbdc67501""}","https://test12345.live/?participantId=68BDBD31B9074683B7921C16B13C0895&assignmentId=1e51ac5b-b4f9-4227-b9b7-c547b5f2990e&projectId=a0a8f18c-a66e-4ba7-a170-23efbdc67501","68BDBD31B9074683B7921C16B13C0895-2024-11-24-19-08-56","","1946","","images/causal_sequence/dog_causal/dog_causal_7.png","0","",""
"","","","","","image-button-response","109","999161","0.0-14.0-1.0-2.6","68BDBD31B9074683B7921C16B13C0895","68BDBD31B9074683B7921C16B13C0895","1e51ac5b-b4f9-4227-b9b7-c547b5f2990e","a0a8f18c-a66e-4ba7-a170-23efbdc67501","{""participantId"":""68BDBD31B9074683B7921C16B13C0895"",""assignmentId"":""1e51ac5b-b4f9-4227-b9b7-c547b5f2990e"",""projectId"":""a0a8f18c-a66e-4ba7-a170-23efbdc67501""}","https://test12345.live/?participantId=68BDBD31B9074683B7921C16B13C0895&assignmentId=1e51ac5b-b4f9-4227-b9b7-c547b5f2990e&projectId=a0a8f18c-a66e-4ba7-a170-23efbdc67501","68BDBD31B9074683B7921C16B13C0895-2024-11-24-19-08-56","","null","","[]","null","",""
"","","","","","image-button-response","110","1003665","0.0-14.0-1.0-0.7","68BDBD31B9074683B7921C16B13C0895","68BDBD31B9074683B7921C16B13C0895","1e51ac5b-b4f9-4227-b9b7-c547b5f2990e","a0a8f18c-a66e-4ba7-a170-23efbdc67501","{""participantId"":""68BDBD31B9074683B7921C16B13C0895"",""assignmentId"":""1e51ac5b-b4f9-4227-b9b7-c547b5f2990e"",""projectId"":""a0a8f18c-a66e-4ba7-a170-23efbdc67501""}","https://test12345.live/?participantId=68BDBD31B9074683B7921C16B13C0895&assignmentId=1e51ac5b-b4f9-4227-b9b7-c547b5f2990e&projectId=a0a8f18c-a66e-4ba7-a170-23efbdc67501","68BDBD31B9074683B7921C16B13C0895-2024-11-24-19-08-56","","null","","images/causal_sequence/dog_causal/dog_causal_8.png","null","",""
"","","","","","image-button-response","111","1004941","0.0-14.0-1.0-1.7","68BDBD31B9074683B7921C16B13C0895","68BDBD31B9074683B7921C16B13C0895","1e51ac5b-b4f9-4227-b9b7-c547b5f2990e","a0a8f18c-a66e-4ba7-a170-23efbdc67501","{""participantId"":""68BDBD31B9074683B7921C16B13C0895"",""assignmentId"":""1e51ac5b-b4f9-4227-b9b7-c547b5f2990e"",""projectId"":""a0a8f18c-a66e-4ba7-a170-23efbdc67501""}","https://test12345.live/?participantId=68BDBD31B9074683B7921C16B13C0895&assignmentId=1e51ac5b-b4f9-4227-b9b7-c547b5f2990e&projectId=a0a8f18c-a66e-4ba7-a170-23efbdc67501","68BDBD31B9074683B7921C16B13C0895-2024-11-24-19-08-56","","1273","","images/causal_sequence/dog_causal/dog_causal_8.png","0","",""
"","","","","","image-button-response","112","1006749","0.0-14.0-1.0-2.7","68BDBD31B9074683B7921C16B13C0895","68BDBD31B9074683B7921C16B13C0895","1e51ac5b-b4f9-4227-b9b7-c547b5f2990e","a0a8f18c-a66e-4ba7-a170-23efbdc67501","{""participantId"":""68BDBD31B9074683B7921C16B13C0895"",""assignmentId"":""1e51ac5b-b4f9-4227-b9b7-c547b5f2990e"",""projectId"":""a0a8f18c-a66e-4ba7-a170-23efbdc67501""}","https://test12345.live/?participantId=68BDBD31B9074683B7921C16B13C0895&assignmentId=1e51ac5b-b4f9-4227-b9b7-c547b5f2990e&projectId=a0a8f18c-a66e-4ba7-a170-23efbdc67501","68BDBD31B9074683B7921C16B13C0895-2024-11-24-19-08-56","","null","","[]","null","",""
"","","","","","image-button-response","113","1011268","0.0-14.0-1.0-0.8","68BDBD31B9074683B7921C16B13C0895","68BDBD31B9074683B7921C16B13C0895","1e51ac5b-b4f9-4227-b9b7-c547b5f2990e","a0a8f18c-a66e-4ba7-a170-23efbdc67501","{""participantId"":""68BDBD31B9074683B7921C16B13C0895"",""assignmentId"":""1e51ac5b-b4f9-4227-b9b7-c547b5f2990e"",""projectId"":""a0a8f18c-a66e-4ba7-a170-23efbdc67501""}","https://test12345.live/?participantId=68BDBD31B9074683B7921C16B13C0895&assignmentId=1e51ac5b-b4f9-4227-b9b7-c547b5f2990e&projectId=a0a8f18c-a66e-4ba7-a170-23efbdc67501","68BDBD31B9074683B7921C16B13C0895-2024-11-24-19-08-56","","null","","images/causal_sequence/dog_causal/dog_causal_9.png","null","",""
"","","","","","image-button-response","114","1012601","0.0-14.0-1.0-1.8","68BDBD31B9074683B7921C16B13C0895","68BDBD31B9074683B7921C16B13C0895","1e51ac5b-b4f9-4227-b9b7-c547b5f2990e","a0a8f18c-a66e-4ba7-a170-23efbdc67501","{""participantId"":""68BDBD31B9074683B7921C16B13C0895"",""assignmentId"":""1e51ac5b-b4f9-4227-b9b7-c547b5f2990e"",""projectId"":""a0a8f18c-a66e-4ba7-a170-23efbdc67501""}","https://test12345.live/?participantId=68BDBD31B9074683B7921C16B13C0895&assignmentId=1e51ac5b-b4f9-4227-b9b7-c547b5f2990e&projectId=a0a8f18c-a66e-4ba7-a170-23efbdc67501","68BDBD31B9074683B7921C16B13C0895-2024-11-24-19-08-56","","1331","","images/causal_sequence/dog_causal/dog_causal_9.png","0","",""
"","","","","","image-button-response","115","1014404","0.0-14.0-1.0-2.8","68BDBD31B9074683B7921C16B13C0895","68BDBD31B9074683B7921C16B13C0895","1e51ac5b-b4f9-4227-b9b7-c547b5f2990e","a0a8f18c-a66e-4ba7-a170-23efbdc67501","{""participantId"":""68BDBD31B9074683B7921C16B13C0895"",""assignmentId"":""1e51ac5b-b4f9-4227-b9b7-c547b5f2990e"",""projectId"":""a0a8f18c-a66e-4ba7-a170-23efbdc67501""}","https://test12345.live/?participantId=68BDBD31B9074683B7921C16B13C0895&assignmentId=1e51ac5b-b4f9-4227-b9b7-c547b5f2990e&projectId=a0a8f18c-a66e-4ba7-a170-23efbdc67501","68BDBD31B9074683B7921C16B13C0895-2024-11-24-19-08-56","","null","","[]","null","",""
"","","","","","image-button-response","116","1018910","0.0-14.0-1.0-0.9","68BDBD31B9074683B7921C16B13C0895","68BDBD31B9074683B7921C16B13C0895","1e51ac5b-b4f9-4227-b9b7-c547b5f2990e","a0a8f18c-a66e-4ba7-a170-23efbdc67501","{""participantId"":""68BDBD31B9074683B7921C16B13C0895"",""assignmentId"":""1e51ac5b-b4f9-4227-b9b7-c547b5f2990e"",""projectId"":""a0a8f18c-a66e-4ba7-a170-23efbdc67501""}","https://test12345.live/?participantId=68BDBD31B9074683B7921C16B13C0895&assignmentId=1e51ac5b-b4f9-4227-b9b7-c547b5f2990e&projectId=a0a8f18c-a66e-4ba7-a170-23efbdc67501","68BDBD31B9074683B7921C16B13C0895-2024-11-24-19-08-56","","null","","images/causal_sequence/dog_causal/dog_causal_ten.png","null","",""
"","","","","","image-button-response","117","1019901","0.0-14.0-1.0-1.9","68BDBD31B9074683B7921C16B13C0895","68BDBD31B9074683B7921C16B13C0895","1e51ac5b-b4f9-4227-b9b7-c547b5f2990e","a0a8f18c-a66e-4ba7-a170-23efbdc67501","{""participantId"":""68BDBD31B9074683B7921C16B13C0895"",""assignmentId"":""1e51ac5b-b4f9-4227-b9b7-c547b5f2990e"",""projectId"":""a0a8f18c-a66e-4ba7-a170-23efbdc67501""}","https://test12345.live/?participantId=68BDBD31B9074683B7921C16B13C0895&assignmentId=1e51ac5b-b4f9-4227-b9b7-c547b5f2990e&projectId=a0a8f18c-a66e-4ba7-a170-23efbdc67501","68BDBD31B9074683B7921C16B13C0895-2024-11-24-19-08-56","","988","","images/causal_sequence/dog_causal/dog_causal_ten.png","0","",""
"","","","","","image-button-response","118","1021703","0.0-14.0-1.0-2.9","68BDBD31B9074683B7921C16B13C0895","68BDBD31B9074683B7921C16B13C0895","1e51ac5b-b4f9-4227-b9b7-c547b5f2990e","a0a8f18c-a66e-4ba7-a170-23efbdc67501","{""participantId"":""68BDBD31B9074683B7921C16B13C0895"",""assignmentId"":""1e51ac5b-b4f9-4227-b9b7-c547b5f2990e"",""projectId"":""a0a8f18c-a66e-4ba7-a170-23efbdc67501""}","https://test12345.live/?participantId=68BDBD31B9074683B7921C16B13C0895&assignmentId=1e51ac5b-b4f9-4227-b9b7-c547b5f2990e&projectId=a0a8f18c-a66e-4ba7-a170-23efbdc67501","68BDBD31B9074683B7921C16B13C0895-2024-11-24-19-08-56","","null","","[]","null","",""
"","","","","","html-audio-response","119","1070586","0.0-15.0","68BDBD31B9074683B7921C16B13C0895","68BDBD31B9074683B7921C16B13C0895","1e51ac5b-b4f9-4227-b9b7-c547b5f2990e","a0a8f18c-a66e-4ba7-a170-23efbdc67501","{""participantId"":""68BDBD31B9074683B7921C16B13C0895"",""assignmentId"":""1e51ac5b-b4f9-4227-b9b7-c547b5f2990e"",""projectId"":""a0a8f18c-a66e-4ba7-a170-23efbdc67501""}","https://test12345.live/?participantId=68BDBD31B9074683B7921C16B13C0895&assignmentId=1e51ac5b-b4f9-4227-b9b7-c547b5f2990e&projectId=a0a8f18c-a66e-4ba7-a170-23efbdc67501","68BDBD31B9074683B7921C16B13C0895-2024-11-24-19-08-56","","9746","","[""<span style=\""color: red; font-size: 24px\""> NOW RECORDING</span><p>Please say out loud all the images you saw, as many as you can remember. The images can be said in any order.</p>""]","","5","dog_causal"
"","","","","","image-button-response","120","1076596","0.0-16.0-0.0","68BDBD31B9074683B7921C16B13C0895","68BDBD31B9074683B7921C16B13C0895","1e51ac5b-b4f9-4227-b9b7-c547b5f2990e","a0a8f18c-a66e-4ba7-a170-23efbdc67501","{""participantId"":""68BDBD31B9074683B7921C16B13C0895"",""assignmentId"":""1e51ac5b-b4f9-4227-b9b7-c547b5f2990e"",""projectId"":""a0a8f18c-a66e-4ba7-a170-23efbdc67501""}","https://test12345.live/?participantId=68BDBD31B9074683B7921C16B13C0895&assignmentId=1e51ac5b-b4f9-4227-b9b7-c547b5f2990e&projectId=a0a8f18c-a66e-4ba7-a170-23efbdc67501","68BDBD31B9074683B7921C16B13C0895-2024-11-24-19-08-56","","null","","images/causal_sequence/museum_causal/museum_causal_0.png","null","",""
"","","","","","image-button-response","121","1081112","0.0-16.0-1.0-0.0","68BDBD31B9074683B7921C16B13C0895","68BDBD31B9074683B7921C16B13C0895","1e51ac5b-b4f9-4227-b9b7-c547b5f2990e","a0a8f18c-a66e-4ba7-a170-23efbdc67501","{""participantId"":""68BDBD31B9074683B7921C16B13C0895"",""assignmentId"":""1e51ac5b-b4f9-4227-b9b7-c547b5f2990e"",""projectId"":""a0a8f18c-a66e-4ba7-a170-23efbdc67501""}","https://test12345.live/?participantId=68BDBD31B9074683B7921C16B13C0895&assignmentId=1e51ac5b-b4f9-4227-b9b7-c547b5f2990e&projectId=a0a8f18c-a66e-4ba7-a170-23efbdc67501","68BDBD31B9074683B7921C16B13C0895-2024-11-24-19-08-56","","null","","images/causal_sequence/museum_causal/museum_causal_5.png","null","",""
"","","","","","image-button-response","122","1083115","0.0-16.0-1.0-1.0","68BDBD31B9074683B7921C16B13C0895","68BDBD31B9074683B7921C16B13C0895","1e51ac5b-b4f9-4227-b9b7-c547b5f2990e","a0a8f18c-a66e-4ba7-a170-23efbdc67501","{""participantId"":""68BDBD31B9074683B7921C16B13C0895"",""assignmentId"":""1e51ac5b-b4f9-4227-b9b7-c547b5f2990e"",""projectId"":""a0a8f18c-a66e-4ba7-a170-23efbdc67501""}","https://test12345.live/?participantId=68BDBD31B9074683B7921C16B13C0895&assignmentId=1e51ac5b-b4f9-4227-b9b7-c547b5f2990e&projectId=a0a8f18c-a66e-4ba7-a170-23efbdc67501","68BDBD31B9074683B7921C16B13C0895-2024-11-24-19-08-56","","2000","","images/causal_sequence/museum_causal/museum_causal_5.png","0","",""
"","","","","","image-button-response","123","1084927","0.0-16.0-1.0-2.0","68BDBD31B9074683B7921C16B13C0895","68BDBD31B9074683B7921C16B13C0895","1e51ac5b-b4f9-4227-b9b7-c547b5f2990e","a0a8f18c-a66e-4ba7-a170-23efbdc67501","{""participantId"":""68BDBD31B9074683B7921C16B13C0895"",""assignmentId"":""1e51ac5b-b4f9-4227-b9b7-c547b5f2990e"",""projectId"":""a0a8f18c-a66e-4ba7-a170-23efbdc67501""}","https://test12345.live/?participantId=68BDBD31B9074683B7921C16B13C0895&assignmentId=1e51ac5b-b4f9-4227-b9b7-c547b5f2990e&projectId=a0a8f18c-a66e-4ba7-a170-23efbdc67501","68BDBD31B9074683B7921C16B13C0895-2024-11-24-19-08-56","","null","","[]","null","",""
"","","","","","image-button-response","124","1089434","0.0-16.0-1.0-0.1","68BDBD31B9074683B7921C16B13C0895","68BDBD31B9074683B7921C16B13C0895","1e51ac5b-b4f9-4227-b9b7-c547b5f2990e","a0a8f18c-a66e-4ba7-a170-23efbdc67501","{""participantId"":""68BDBD31B9074683B7921C16B13C0895"",""assignmentId"":""1e51ac5b-b4f9-4227-b9b7-c547b5f2990e"",""projectId"":""a0a8f18c-a66e-4ba7-a170-23efbdc67501""}","https://test12345.live/?participantId=68BDBD31B9074683B7921C16B13C0895&assignmentId=1e51ac5b-b4f9-4227-b9b7-c547b5f2990e&projectId=a0a8f18c-a66e-4ba7-a170-23efbdc67501","68BDBD31B9074683B7921C16B13C0895-2024-11-24-19-08-56","","null","","images/causal_sequence/museum_causal/museum_causal_ten.png","null","",""
"","","","","","image-button-response","125","1091162","0.0-16.0-1.0-1.1","68BDBD31B9074683B7921C16B13C0895","68BDBD31B9074683B7921C16B13C0895","1e51ac5b-b4f9-4227-b9b7-c547b5f2990e","a0a8f18c-a66e-4ba7-a170-23efbdc67501","{""participantId"":""68BDBD31B9074683B7921C16B13C0895"",""assignmentId"":""1e51ac5b-b4f9-4227-b9b7-c547b5f2990e"",""projectId"":""a0a8f18c-a66e-4ba7-a170-23efbdc67501""}","https://test12345.live/?participantId=68BDBD31B9074683B7921C16B13C0895&assignmentId=1e51ac5b-b4f9-4227-b9b7-c547b5f2990e&projectId=a0a8f18c-a66e-4ba7-a170-23efbdc67501","68BDBD31B9074683B7921C16B13C0895-2024-11-24-19-08-56","","1725","","images/causal_sequence/museum_causal/museum_causal_ten.png","0","",""
"","","","","","image-button-response","126","1092971","0.0-16.0-1.0-2.1","68BDBD31B9074683B7921C16B13C0895","68BDBD31B9074683B7921C16B13C0895","1e51ac5b-b4f9-4227-b9b7-c547b5f2990e","a0a8f18c-a66e-4ba7-a170-23efbdc67501","{""participantId"":""68BDBD31B9074683B7921C16B13C0895"",""assignmentId"":""1e51ac5b-b4f9-4227-b9b7-c547b5f2990e"",""projectId"":""a0a8f18c-a66e-4ba7-a170-23efbdc67501""}","https://test12345.live/?participantId=68BDBD31B9074683B7921C16B13C0895&assignmentId=1e51ac5b-b4f9-4227-b9b7-c547b5f2990e&projectId=a0a8f18c-a66e-4ba7-a170-23efbdc67501","68BDBD31B9074683B7921C16B13C0895-2024-11-24-19-08-56","","null","","[]","null","",""
"","","","","","image-button-response","127","1097480","0.0-16.0-1.0-0.2","68BDBD31B9074683B7921C16B13C0895","68BDBD31B9074683B7921C16B13C0895","1e51ac5b-b4f9-4227-b9b7-c547b5f2990e","a0a8f18c-a66e-4ba7-a170-23efbdc67501","{""participantId"":""68BDBD31B9074683B7921C16B13C0895"",""assignmentId"":""1e51ac5b-b4f9-4227-b9b7-c547b5f2990e"",""projectId"":""a0a8f18c-a66e-4ba7-a170-23efbdc67501""}","https://test12345.live/?participantId=68BDBD31B9074683B7921C16B13C0895&assignmentId=1e51ac5b-b4f9-4227-b9b7-c547b5f2990e&projectId=a0a8f18c-a66e-4ba7-a170-23efbdc67501","68BDBD31B9074683B7921C16B13C0895-2024-11-24-19-08-56","","null","","images/causal_sequence/museum_causal/museum_causal_7.png","null","",""
"","","","","","image-button-response","128","1098736","0.0-16.0-1.0-1.2","68BDBD31B9074683B7921C16B13C0895","68BDBD31B9074683B7921C16B13C0895","1e51ac5b-b4f9-4227-b9b7-c547b5f2990e","a0a8f18c-a66e-4ba7-a170-23efbdc67501","{""participantId"":""68BDBD31B9074683B7921C16B13C0895"",""assignmentId"":""1e51ac5b-b4f9-4227-b9b7-c547b5f2990e"",""projectId"":""a0a8f18c-a66e-4ba7-a170-23efbdc67501""}","https://test12345.live/?participantId=68BDBD31B9074683B7921C16B13C0895&assignmentId=1e51ac5b-b4f9-4227-b9b7-c547b5f2990e&projectId=a0a8f18c-a66e-4ba7-a170-23efbdc67501","68BDBD31B9074683B7921C16B13C0895-2024-11-24-19-08-56","","1253","","images/causal_sequence/museum_causal/museum_causal_7.png","1","",""
"","","","","","image-button-response","129","1100540","0.0-16.0-1.0-2.2","68BDBD31B9074683B7921C16B13C0895","68BDBD31B9074683B7921C16B13C0895","1e51ac5b-b4f9-4227-b9b7-c547b5f2990e","a0a8f18c-a66e-4ba7-a170-23efbdc67501","{""participantId"":""68BDBD31B9074683B7921C16B13C0895"",""assignmentId"":""1e51ac5b-b4f9-4227-b9b7-c547b5f2990e"",""projectId"":""a0a8f18c-a66e-4ba7-a170-23efbdc67501""}","https://test12345.live/?participantId=68BDBD31B9074683B7921C16B13C0895&assignmentId=1e51ac5b-b4f9-4227-b9b7-c547b5f2990e&projectId=a0a8f18c-a66e-4ba7-a170-23efbdc67501","68BDBD31B9074683B7921C16B13C0895-2024-11-24-19-08-56","","null","","[]","null","",""
"","","","","","image-button-response","130","1105053","0.0-16.0-1.0-0.3","68BDBD31B9074683B7921C16B13C0895","68BDBD31B9074683B7921C16B13C0895","1e51ac5b-b4f9-4227-b9b7-c547b5f2990e","a0a8f18c-a66e-4ba7-a170-23efbdc67501","{""participantId"":""68BDBD31B9074683B7921C16B13C0895"",""assignmentId"":""1e51ac5b-b4f9-4227-b9b7-c547b5f2990e"",""projectId"":""a0a8f18c-a66e-4ba7-a170-23efbdc67501""}","https://test12345.live/?participantId=68BDBD31B9074683B7921C16B13C0895&assignmentId=1e51ac5b-b4f9-4227-b9b7-c547b5f2990e&projectId=a0a8f18c-a66e-4ba7-a170-23efbdc67501","68BDBD31B9074683B7921C16B13C0895-2024-11-24-19-08-56","","null","","images/causal_sequence/museum_causal/museum_causal_8.png","null","",""
"","","","","","image-button-response","131","1106354","0.0-16.0-1.0-1.3","68BDBD31B9074683B7921C16B13C0895","68BDBD31B9074683B7921C16B13C0895","1e51ac5b-b4f9-4227-b9b7-c547b5f2990e","a0a8f18c-a66e-4ba7-a170-23efbdc67501","{""participantId"":""68BDBD31B9074683B7921C16B13C0895"",""assignmentId"":""1e51ac5b-b4f9-4227-b9b7-c547b5f2990e"",""projectId"":""a0a8f18c-a66e-4ba7-a170-23efbdc67501""}","https://test12345.live/?participantId=68BDBD31B9074683B7921C16B13C0895&assignmentId=1e51ac5b-b4f9-4227-b9b7-c547b5f2990e&projectId=a0a8f18c-a66e-4ba7-a170-23efbdc67501","68BDBD31B9074683B7921C16B13C0895-2024-11-24-19-08-56","","1297","","images/causal_sequence/museum_causal/museum_causal_8.png","0","",""
"","","","","","image-button-response","132","1108169","0.0-16.0-1.0-2.3","68BDBD31B9074683B7921C16B13C0895","68BDBD31B9074683B7921C16B13C0895","1e51ac5b-b4f9-4227-b9b7-c547b5f2990e","a0a8f18c-a66e-4ba7-a170-23efbdc67501","{""participantId"":""68BDBD31B9074683B7921C16B13C0895"",""assignmentId"":""1e51ac5b-b4f9-4227-b9b7-c547b5f2990e"",""projectId"":""a0a8f18c-a66e-4ba7-a170-23efbdc67501""}","https://test12345.live/?participantId=68BDBD31B9074683B7921C16B13C0895&assignmentId=1e51ac5b-b4f9-4227-b9b7-c547b5f2990e&projectId=a0a8f18c-a66e-4ba7-a170-23efbdc67501","68BDBD31B9074683B7921C16B13C0895-2024-11-24-19-08-56","","null","","[]","null","",""
"","","","","","image-button-response","133","1112673","0.0-16.0-1.0-0.4","68BDBD31B9074683B7921C16B13C0895","68BDBD31B9074683B7921C16B13C0895","1e51ac5b-b4f9-4227-b9b7-c547b5f2990e","a0a8f18c-a66e-4ba7-a170-23efbdc67501","{""participantId"":""68BDBD31B9074683B7921C16B13C0895"",""assignmentId"":""1e51ac5b-b4f9-4227-b9b7-c547b5f2990e"",""projectId"":""a0a8f18c-a66e-4ba7-a170-23efbdc67501""}","https://test12345.live/?participantId=68BDBD31B9074683B7921C16B13C0895&assignmentId=1e51ac5b-b4f9-4227-b9b7-c547b5f2990e&projectId=a0a8f18c-a66e-4ba7-a170-23efbdc67501","68BDBD31B9074683B7921C16B13C0895-2024-11-24-19-08-56","","null","","images/causal_sequence/museum_causal/museum_causal_1.png","null","",""
"","","","","","image-button-response","134","1113881","0.0-16.0-1.0-1.4","68BDBD31B9074683B7921C16B13C0895","68BDBD31B9074683B7921C16B13C0895","1e51ac5b-b4f9-4227-b9b7-c547b5f2990e","a0a8f18c-a66e-4ba7-a170-23efbdc67501","{""participantId"":""68BDBD31B9074683B7921C16B13C0895"",""assignmentId"":""1e51ac5b-b4f9-4227-b9b7-c547b5f2990e"",""projectId"":""a0a8f18c-a66e-4ba7-a170-23efbdc67501""}","https://test12345.live/?participantId=68BDBD31B9074683B7921C16B13C0895&assignmentId=1e51ac5b-b4f9-4227-b9b7-c547b5f2990e&projectId=a0a8f18c-a66e-4ba7-a170-23efbdc67501","68BDBD31B9074683B7921C16B13C0895-2024-11-24-19-08-56","","1207","","images/causal_sequence/museum_causal/museum_causal_1.png","0","",""
"","","","","","image-button-response","135","1115693","0.0-16.0-1.0-2.4","68BDBD31B9074683B7921C16B13C0895","68BDBD31B9074683B7921C16B13C0895","1e51ac5b-b4f9-4227-b9b7-c547b5f2990e","a0a8f18c-a66e-4ba7-a170-23efbdc67501","{""participantId"":""68BDBD31B9074683B7921C16B13C0895"",""assignmentId"":""1e51ac5b-b4f9-4227-b9b7-c547b5f2990e"",""projectId"":""a0a8f18c-a66e-4ba7-a170-23efbdc67501""}","https://test12345.live/?participantId=68BDBD31B9074683B7921C16B13C0895&assignmentId=1e51ac5b-b4f9-4227-b9b7-c547b5f2990e&projectId=a0a8f18c-a66e-4ba7-a170-23efbdc67501","68BDBD31B9074683B7921C16B13C0895-2024-11-24-19-08-56","","null","","[]","null","",""
"","","","","","image-button-response","136","1120195","0.0-16.0-1.0-0.5","68BDBD31B9074683B7921C16B13C0895","68BDBD31B9074683B7921C16B13C0895","1e51ac5b-b4f9-4227-b9b7-c547b5f2990e","a0a8f18c-a66e-4ba7-a170-23efbdc67501","{""participantId"":""68BDBD31B9074683B7921C16B13C0895"",""assignmentId"":""1e51ac5b-b4f9-4227-b9b7-c547b5f2990e"",""projectId"":""a0a8f18c-a66e-4ba7-a170-23efbdc67501""}","https://test12345.live/?participantId=68BDBD31B9074683B7921C16B13C0895&assignmentId=1e51ac5b-b4f9-4227-b9b7-c547b5f2990e&projectId=a0a8f18c-a66e-4ba7-a170-23efbdc67501","68BDBD31B9074683B7921C16B13C0895-2024-11-24-19-08-56","","null","","images/causal_sequence/museum_causal/museum_causal_3.png","null","",""
"","","","","","image-button-response","137","1122040","0.0-16.0-1.0-1.5","68BDBD31B9074683B7921C16B13C0895","68BDBD31B9074683B7921C16B13C0895","1e51ac5b-b4f9-4227-b9b7-c547b5f2990e","a0a8f18c-a66e-4ba7-a170-23efbdc67501","{""participantId"":""68BDBD31B9074683B7921C16B13C0895"",""assignmentId"":""1e51ac5b-b4f9-4227-b9b7-c547b5f2990e"",""projectId"":""a0a8f18c-a66e-4ba7-a170-23efbdc67501""}","https://test12345.live/?participantId=68BDBD31B9074683B7921C16B13C0895&assignmentId=1e51ac5b-b4f9-4227-b9b7-c547b5f2990e&projectId=a0a8f18c-a66e-4ba7-a170-23efbdc67501","68BDBD31B9074683B7921C16B13C0895-2024-11-24-19-08-56","","1843","","images/causal_sequence/museum_causal/museum_causal_3.png","0","",""
"","","","","","image-button-response","138","1123856","0.0-16.0-1.0-2.5","68BDBD31B9074683B7921C16B13C0895","68BDBD31B9074683B7921C16B13C0895","1e51ac5b-b4f9-4227-b9b7-c547b5f2990e","a0a8f18c-a66e-4ba7-a170-23efbdc67501","{""participantId"":""68BDBD31B9074683B7921C16B13C0895"",""assignmentId"":""1e51ac5b-b4f9-4227-b9b7-c547b5f2990e"",""projectId"":""a0a8f18c-a66e-4ba7-a170-23efbdc67501""}","https://test12345.live/?participantId=68BDBD31B9074683B7921C16B13C0895&assignmentId=1e51ac5b-b4f9-4227-b9b7-c547b5f2990e&projectId=a0a8f18c-a66e-4ba7-a170-23efbdc67501","68BDBD31B9074683B7921C16B13C0895-2024-11-24-19-08-56","","null","","[]","null","",""
"","","","","","image-button-response","139","1128373","0.0-16.0-1.0-0.6","68BDBD31B9074683B7921C16B13C0895","68BDBD31B9074683B7921C16B13C0895","1e51ac5b-b4f9-4227-b9b7-c547b5f2990e","a0a8f18c-a66e-4ba7-a170-23efbdc67501","{""participantId"":""68BDBD31B9074683B7921C16B13C0895"",""assignmentId"":""1e51ac5b-b4f9-4227-b9b7-c547b5f2990e"",""projectId"":""a0a8f18c-a66e-4ba7-a170-23efbdc67501""}","https://test12345.live/?participantId=68BDBD31B9074683B7921C16B13C0895&assignmentId=1e51ac5b-b4f9-4227-b9b7-c547b5f2990e&projectId=a0a8f18c-a66e-4ba7-a170-23efbdc67501","68BDBD31B9074683B7921C16B13C0895-2024-11-24-19-08-56","","null","","images/causal_sequence/museum_causal/museum_causal_9.png","null","",""
"","","","","","image-button-response","140","1129675","0.0-16.0-1.0-1.6","68BDBD31B9074683B7921C16B13C0895","68BDBD31B9074683B7921C16B13C0895","1e51ac5b-b4f9-4227-b9b7-c547b5f2990e","a0a8f18c-a66e-4ba7-a170-23efbdc67501","{""participantId"":""68BDBD31B9074683B7921C16B13C0895"",""assignmentId"":""1e51ac5b-b4f9-4227-b9b7-c547b5f2990e"",""projectId"":""a0a8f18c-a66e-4ba7-a170-23efbdc67501""}","https://test12345.live/?participantId=68BDBD31B9074683B7921C16B13C0895&assignmentId=1e51ac5b-b4f9-4227-b9b7-c547b5f2990e&projectId=a0a8f18c-a66e-4ba7-a170-23efbdc67501","68BDBD31B9074683B7921C16B13C0895-2024-11-24-19-08-56","","1299","","images/causal_sequence/museum_causal/museum_causal_9.png","0","",""
"","","","","","image-button-response","141","1131479","0.0-16.0-1.0-2.6","68BDBD31B9074683B7921C16B13C0895","68BDBD31B9074683B7921C16B13C0895","1e51ac5b-b4f9-4227-b9b7-c547b5f2990e","a0a8f18c-a66e-4ba7-a170-23efbdc67501","{""participantId"":""68BDBD31B9074683B7921C16B13C0895"",""assignmentId"":""1e51ac5b-b4f9-4227-b9b7-c547b5f2990e"",""projectId"":""a0a8f18c-a66e-4ba7-a170-23efbdc67501""}","https://test12345.live/?participantId=68BDBD31B9074683B7921C16B13C0895&assignmentId=1e51ac5b-b4f9-4227-b9b7-c547b5f2990e&projectId=a0a8f18c-a66e-4ba7-a170-23efbdc67501","68BDBD31B9074683B7921C16B13C0895-2024-11-24-19-08-56","","null","","[]","null","",""
"","","","","","image-button-response","142","1135992","0.0-16.0-1.0-0.7","68BDBD31B9074683B7921C16B13C0895","68BDBD31B9074683B7921C16B13C0895","1e51ac5b-b4f9-4227-b9b7-c547b5f2990e","a0a8f18c-a66e-4ba7-a170-23efbdc67501","{""participantId"":""68BDBD31B9074683B7921C16B13C0895"",""assignmentId"":""1e51ac5b-b4f9-4227-b9b7-c547b5f2990e"",""projectId"":""a0a8f18c-a66e-4ba7-a170-23efbdc67501""}","https://test12345.live/?participantId=68BDBD31B9074683B7921C16B13C0895&assignmentId=1e51ac5b-b4f9-4227-b9b7-c547b5f2990e&projectId=a0a8f18c-a66e-4ba7-a170-23efbdc67501","68BDBD31B9074683B7921C16B13C0895-2024-11-24-19-08-56","","null","","images/causal_sequence/museum_causal/museum_causal_4.png","null","",""
"","","","","","image-button-response","143","1137085","0.0-16.0-1.0-1.7","68BDBD31B9074683B7921C16B13C0895","68BDBD31B9074683B7921C16B13C0895","1e51ac5b-b4f9-4227-b9b7-c547b5f2990e","a0a8f18c-a66e-4ba7-a170-23efbdc67501","{""participantId"":""68BDBD31B9074683B7921C16B13C0895"",""assignmentId"":""1e51ac5b-b4f9-4227-b9b7-c547b5f2990e"",""projectId"":""a0a8f18c-a66e-4ba7-a170-23efbdc67501""}","https://test12345.live/?participantId=68BDBD31B9074683B7921C16B13C0895&assignmentId=1e51ac5b-b4f9-4227-b9b7-c547b5f2990e&projectId=a0a8f18c-a66e-4ba7-a170-23efbdc67501","68BDBD31B9074683B7921C16B13C0895-2024-11-24-19-08-56","","1089","","images/causal_sequence/museum_causal/museum_causal_4.png","1","",""
