"success","timeout","failed_images","failed_audio","failed_video","trial_type","trial_index","time_elapsed","internal_node_id","subject","subject_id","study_id","session_id","urlvar","current_url","audio_id","view_history","rt","device_id","stimulus","response","estimated_stimulus_onset","seq_name"
"true","false","[]","[]","[]","preload","0","115677","0.0-0.0","6972F22F718946CC8DBB689A45FAC7E5","6972F22F718946CC8DBB689A45FAC7E5","9d67303c-6542-458f-b451-c6f2611af37b","051c06f1-75cc-4548-856d-4923ddaba0dc","{""num_scrambled_semantic"":""8"",""num_scrambled_causal"":""4"",""num_scrambled_schematic"":""4"",""participantId"":""6972F22F718946CC8DBB689A45FAC7E5"",""assignmentId"":""9d67303c-6542-458f-b451-c6f2611af37b"",""projectId"":""051c06f1-75cc-4548-856d-4923ddaba0dc""}","https://test12345.live/?num_scrambled_semantic=8&num_scrambled_causal=4&num_scrambled_schematic=4&participantId=6972F22F718946CC8DBB689A45FAC7E5&assignmentId=9d67303c-6542-458f-b451-c6f2611af37b&projectId=051c06f1-75cc-4548-856d-4923ddaba0dc","6972F22F718946CC8DBB689A45FAC7E5-2025-05-15-18-52-09","","","","","","",""
"","","","","","instructions","1","192742","0.0-1.0","6972F22F718946CC8DBB689A45FAC7E5","6972F22F718946CC8DBB689A45FAC7E5","9d67303c-6542-458f-b451-c6f2611af37b","051c06f1-75cc-4548-856d-4923ddaba0dc","{""num_scrambled_semantic"":""8"",""num_scrambled_causal"":""4"",""num_scrambled_schematic"":""4"",""participantId"":""6972F22F718946CC8DBB689A45FAC7E5"",""assignmentId"":""9d67303c-6542-458f-b451-c6f2611af37b"",""projectId"":""051c06f1-75cc-4548-856d-4923ddaba0dc""}","https://test12345.live/?num_scrambled_semantic=8&num_scrambled_causal=4&num_scrambled_schematic=4&participantId=6972F22F718946CC8DBB689A45FAC7E5&assignmentId=9d67303c-6542-458f-b451-c6f2611af37b&projectId=051c06f1-75cc-4548-856d-4923ddaba0dc","6972F22F718946CC8DBB689A45FAC7E5-2025-05-15-18-52-09","[{""page_index"":0,""viewing_time"":77062}]","77063","","","","",""
"","","","","","instructions","2","194672","0.0-2.0","6972F22F718946CC8DBB689A45FAC7E5","6972F22F718946CC8DBB689A45FAC7E5","9d67303c-6542-458f-b451-c6f2611af37b","051c06f1-75cc-4548-856d-4923ddaba0dc","{""num_scrambled_semantic"":""8"",""num_scrambled_causal"":""4"",""num_scrambled_schematic"":""4"",""participantId"":""6972F22F718946CC8DBB689A45FAC7E5"",""assignmentId"":""9d67303c-6542-458f-b451-c6f2611af37b"",""projectId"":""051c06f1-75cc-4548-856d-4923ddaba0dc""}","https://test12345.live/?num_scrambled_semantic=8&num_scrambled_causal=4&num_scrambled_schematic=4&participantId=6972F22F718946CC8DBB689A45FAC7E5&assignmentId=9d67303c-6542-458f-b451-c6f2611af37b&projectId=051c06f1-75cc-4548-856d-4923ddaba0dc","6972F22F718946CC8DBB689A45FAC7E5-2025-05-15-18-52-09","[{""page_index"":0,""viewing_time"":1929}]","1929","","","","",""
"true","","","","","fullscreen","3","197037","0.0-3.0","6972F22F718946CC8DBB689A45FAC7E5","6972F22F718946CC8DBB689A45FAC7E5","9d67303c-6542-458f-b451-c6f2611af37b","051c06f1-75cc-4548-856d-4923ddaba0dc","{""num_scrambled_semantic"":""8"",""num_scrambled_causal"":""4"",""num_scrambled_schematic"":""4"",""participantId"":""6972F22F718946CC8DBB689A45FAC7E5"",""assignmentId"":""9d67303c-6542-458f-b451-c6f2611af37b"",""projectId"":""051c06f1-75cc-4548-856d-4923ddaba0dc""}","https://test12345.live/?num_scrambled_semantic=8&num_scrambled_causal=4&num_scrambled_schematic=4&participantId=6972F22F718946CC8DBB689A45FAC7E5&assignmentId=9d67303c-6542-458f-b451-c6f2611af37b&projectId=051c06f1-75cc-4548-856d-4923ddaba0dc","6972F22F718946CC8DBB689A45FAC7E5-2025-05-15-18-52-09","","1363","","","","",""
"","","","","","initialize-microphone","4","202899","0.0-4.0-0.0","6972F22F718946CC8DBB689A45FAC7E5","6972F22F718946CC8DBB689A45FAC7E5","9d67303c-6542-458f-b451-c6f2611af37b","051c06f1-75cc-4548-856d-4923ddaba0dc","{""num_scrambled_semantic"":""8"",""num_scrambled_causal"":""4"",""num_scrambled_schematic"":""4"",""participantId"":""6972F22F718946CC8DBB689A45FAC7E5"",""assignmentId"":""9d67303c-6542-458f-b451-c6f2611af37b"",""projectId"":""051c06f1-75cc-4548-856d-4923ddaba0dc""}","https://test12345.live/?num_scrambled_semantic=8&num_scrambled_causal=4&num_scrambled_schematic=4&participantId=6972F22F718946CC8DBB689A45FAC7E5&assignmentId=9d67303c-6542-458f-b451-c6f2611af37b&projectId=051c06f1-75cc-4548-856d-4923ddaba0dc","6972F22F718946CC8DBB689A45FAC7E5-2025-05-15-18-52-09","","","f9b4928d3b78da87f93aa93060b606a26fe9e5012dbbdba518ced58d9959fddd","","","",""
"","","","","","html-audio-response","5","221041","0.0-4.0-1.0","6972F22F718946CC8DBB689A45FAC7E5","6972F22F718946CC8DBB689A45FAC7E5","9d67303c-6542-458f-b451-c6f2611af37b","051c06f1-75cc-4548-856d-4923ddaba0dc","{""num_scrambled_semantic"":""8"",""num_scrambled_causal"":""4"",""num_scrambled_schematic"":""4"",""participantId"":""6972F22F718946CC8DBB689A45FAC7E5"",""assignmentId"":""9d67303c-6542-458f-b451-c6f2611af37b"",""projectId"":""051c06f1-75cc-4548-856d-4923ddaba0dc""}","https://test12345.live/?num_scrambled_semantic=8&num_scrambled_causal=4&num_scrambled_schematic=4&participantId=6972F22F718946CC8DBB689A45FAC7E5&assignmentId=9d67303c-6542-458f-b451-c6f2611af37b&projectId=051c06f1-75cc-4548-856d-4923ddaba0dc","6972F22F718946CC8DBB689A45FAC7E5-2025-05-15-18-52-09","","1577","","<span style=""color: red; font-size: 24px""> NOW RECORDING</span>
        <p>Please test Microphone</p>","","2",""
"","","","","","html-button-response","6","222714","0.0-4.0-2.0","6972F22F718946CC8DBB689A45FAC7E5","6972F22F718946CC8DBB689A45FAC7E5","9d67303c-6542-458f-b451-c6f2611af37b","051c06f1-75cc-4548-856d-4923ddaba0dc","{""num_scrambled_semantic"":""8"",""num_scrambled_causal"":""4"",""num_scrambled_schematic"":""4"",""participantId"":""6972F22F718946CC8DBB689A45FAC7E5"",""assignmentId"":""9d67303c-6542-458f-b451-c6f2611af37b"",""projectId"":""051c06f1-75cc-4548-856d-4923ddaba0dc""}","https://test12345.live/?num_scrambled_semantic=8&num_scrambled_causal=4&num_scrambled_schematic=4&participantId=6972F22F718946CC8DBB689A45FAC7E5&assignmentId=9d67303c-6542-458f-b451-c6f2611af37b&projectId=051c06f1-75cc-4548-856d-4923ddaba0dc","6972F22F718946CC8DBB689A45FAC7E5-2025-05-15-18-52-09","","1671","","<p style=""font-size:48px; color:red;"">Is Microphone OK?</p>","1","",""
"","","","","","instructions","7","236953","0.0-5.0","6972F22F718946CC8DBB689A45FAC7E5","6972F22F718946CC8DBB689A45FAC7E5","9d67303c-6542-458f-b451-c6f2611af37b","051c06f1-75cc-4548-856d-4923ddaba0dc","{""num_scrambled_semantic"":""8"",""num_scrambled_causal"":""4"",""num_scrambled_schematic"":""4"",""participantId"":""6972F22F718946CC8DBB689A45FAC7E5"",""assignmentId"":""9d67303c-6542-458f-b451-c6f2611af37b"",""projectId"":""051c06f1-75cc-4548-856d-4923ddaba0dc""}","https://test12345.live/?num_scrambled_semantic=8&num_scrambled_causal=4&num_scrambled_schematic=4&participantId=6972F22F718946CC8DBB689A45FAC7E5&assignmentId=9d67303c-6542-458f-b451-c6f2611af37b&projectId=051c06f1-75cc-4548-856d-4923ddaba0dc","6972F22F718946CC8DBB689A45FAC7E5-2025-05-15-18-52-09","[{""page_index"":0,""viewing_time"":6535},{""page_index"":1,""viewing_time"":7703}]","14238","","","","",""
"","","","","","image-button-response","8","242964","0.0-6.0-0.0","6972F22F718946CC8DBB689A45FAC7E5","6972F22F718946CC8DBB689A45FAC7E5","9d67303c-6542-458f-b451-c6f2611af37b","051c06f1-75cc-4548-856d-4923ddaba0dc","{""num_scrambled_semantic"":""8"",""num_scrambled_causal"":""4"",""num_scrambled_schematic"":""4"",""participantId"":""6972F22F718946CC8DBB689A45FAC7E5"",""assignmentId"":""9d67303c-6542-458f-b451-c6f2611af37b"",""projectId"":""051c06f1-75cc-4548-856d-4923ddaba0dc""}","https://test12345.live/?num_scrambled_semantic=8&num_scrambled_causal=4&num_scrambled_schematic=4&participantId=6972F22F718946CC8DBB689A45FAC7E5&assignmentId=9d67303c-6542-458f-b451-c6f2611af37b&projectId=051c06f1-75cc-4548-856d-4923ddaba0dc","6972F22F718946CC8DBB689A45FAC7E5-2025-05-15-18-52-09","","null","","images/instructions/movie_0.png","null","",""
"","","","","","image-button-response","9","247473","0.0-6.0-1.0-0.0","6972F22F718946CC8DBB689A45FAC7E5","6972F22F718946CC8DBB689A45FAC7E5","9d67303c-6542-458f-b451-c6f2611af37b","051c06f1-75cc-4548-856d-4923ddaba0dc","{""num_scrambled_semantic"":""8"",""num_scrambled_causal"":""4"",""num_scrambled_schematic"":""4"",""participantId"":""6972F22F718946CC8DBB689A45FAC7E5"",""assignmentId"":""9d67303c-6542-458f-b451-c6f2611af37b"",""projectId"":""051c06f1-75cc-4548-856d-4923ddaba0dc""}","https://test12345.live/?num_scrambled_semantic=8&num_scrambled_causal=4&num_scrambled_schematic=4&participantId=6972F22F718946CC8DBB689A45FAC7E5&assignmentId=9d67303c-6542-458f-b451-c6f2611af37b&projectId=051c06f1-75cc-4548-856d-4923ddaba0dc","6972F22F718946CC8DBB689A45FAC7E5-2025-05-15-18-52-09","","null","","images/instructions/movie_1.png","null","",""
"","","","","","image-button-response","10","249607","0.0-6.0-1.0-1.0","6972F22F718946CC8DBB689A45FAC7E5","6972F22F718946CC8DBB689A45FAC7E5","9d67303c-6542-458f-b451-c6f2611af37b","051c06f1-75cc-4548-856d-4923ddaba0dc","{""num_scrambled_semantic"":""8"",""num_scrambled_causal"":""4"",""num_scrambled_schematic"":""4"",""participantId"":""6972F22F718946CC8DBB689A45FAC7E5"",""assignmentId"":""9d67303c-6542-458f-b451-c6f2611af37b"",""projectId"":""051c06f1-75cc-4548-856d-4923ddaba0dc""}","https://test12345.live/?num_scrambled_semantic=8&num_scrambled_causal=4&num_scrambled_schematic=4&participantId=6972F22F718946CC8DBB689A45FAC7E5&assignmentId=9d67303c-6542-458f-b451-c6f2611af37b&projectId=051c06f1-75cc-4548-856d-4923ddaba0dc","6972F22F718946CC8DBB689A45FAC7E5-2025-05-15-18-52-09","","2132","","images/instructions/movie_1.png","0","",""
"","","","","","image-button-response","11","251418","0.0-6.0-1.0-2.0","6972F22F718946CC8DBB689A45FAC7E5","6972F22F718946CC8DBB689A45FAC7E5","9d67303c-6542-458f-b451-c6f2611af37b","051c06f1-75cc-4548-856d-4923ddaba0dc","{""num_scrambled_semantic"":""8"",""num_scrambled_causal"":""4"",""num_scrambled_schematic"":""4"",""participantId"":""6972F22F718946CC8DBB689A45FAC7E5"",""assignmentId"":""9d67303c-6542-458f-b451-c6f2611af37b"",""projectId"":""051c06f1-75cc-4548-856d-4923ddaba0dc""}","https://test12345.live/?num_scrambled_semantic=8&num_scrambled_causal=4&num_scrambled_schematic=4&participantId=6972F22F718946CC8DBB689A45FAC7E5&assignmentId=9d67303c-6542-458f-b451-c6f2611af37b&projectId=051c06f1-75cc-4548-856d-4923ddaba0dc","6972F22F718946CC8DBB689A45FAC7E5-2025-05-15-18-52-09","","null","","[]","null","",""
"","","","","","image-button-response","12","255932","0.0-6.0-1.0-0.1","6972F22F718946CC8DBB689A45FAC7E5","6972F22F718946CC8DBB689A45FAC7E5","9d67303c-6542-458f-b451-c6f2611af37b","051c06f1-75cc-4548-856d-4923ddaba0dc","{""num_scrambled_semantic"":""8"",""num_scrambled_causal"":""4"",""num_scrambled_schematic"":""4"",""participantId"":""6972F22F718946CC8DBB689A45FAC7E5"",""assignmentId"":""9d67303c-6542-458f-b451-c6f2611af37b"",""projectId"":""051c06f1-75cc-4548-856d-4923ddaba0dc""}","https://test12345.live/?num_scrambled_semantic=8&num_scrambled_causal=4&num_scrambled_schematic=4&participantId=6972F22F718946CC8DBB689A45FAC7E5&assignmentId=9d67303c-6542-458f-b451-c6f2611af37b&projectId=051c06f1-75cc-4548-856d-4923ddaba0dc","6972F22F718946CC8DBB689A45FAC7E5-2025-05-15-18-52-09","","null","","images/instructions/movie_2.png","null","",""
"","","","","","image-button-response","13","259938","0.0-6.0-1.0-1.1","6972F22F718946CC8DBB689A45FAC7E5","6972F22F718946CC8DBB689A45FAC7E5","9d67303c-6542-458f-b451-c6f2611af37b","051c06f1-75cc-4548-856d-4923ddaba0dc","{""num_scrambled_semantic"":""8"",""num_scrambled_causal"":""4"",""num_scrambled_schematic"":""4"",""participantId"":""6972F22F718946CC8DBB689A45FAC7E5"",""assignmentId"":""9d67303c-6542-458f-b451-c6f2611af37b"",""projectId"":""051c06f1-75cc-4548-856d-4923ddaba0dc""}","https://test12345.live/?num_scrambled_semantic=8&num_scrambled_causal=4&num_scrambled_schematic=4&participantId=6972F22F718946CC8DBB689A45FAC7E5&assignmentId=9d67303c-6542-458f-b451-c6f2611af37b&projectId=051c06f1-75cc-4548-856d-4923ddaba0dc","6972F22F718946CC8DBB689A45FAC7E5-2025-05-15-18-52-09","","null","","images/instructions/movie_2.png","null","",""
"","","","","","image-button-response","14","261762","0.0-6.0-1.0-2.1","6972F22F718946CC8DBB689A45FAC7E5","6972F22F718946CC8DBB689A45FAC7E5","9d67303c-6542-458f-b451-c6f2611af37b","051c06f1-75cc-4548-856d-4923ddaba0dc","{""num_scrambled_semantic"":""8"",""num_scrambled_causal"":""4"",""num_scrambled_schematic"":""4"",""participantId"":""6972F22F718946CC8DBB689A45FAC7E5"",""assignmentId"":""9d67303c-6542-458f-b451-c6f2611af37b"",""projectId"":""051c06f1-75cc-4548-856d-4923ddaba0dc""}","https://test12345.live/?num_scrambled_semantic=8&num_scrambled_causal=4&num_scrambled_schematic=4&participantId=6972F22F718946CC8DBB689A45FAC7E5&assignmentId=9d67303c-6542-458f-b451-c6f2611af37b&projectId=051c06f1-75cc-4548-856d-4923ddaba0dc","6972F22F718946CC8DBB689A45FAC7E5-2025-05-15-18-52-09","","null","","[]","null","",""
"","","","","","image-button-response","15","266271","0.0-6.0-1.0-0.2","6972F22F718946CC8DBB689A45FAC7E5","6972F22F718946CC8DBB689A45FAC7E5","9d67303c-6542-458f-b451-c6f2611af37b","051c06f1-75cc-4548-856d-4923ddaba0dc","{""num_scrambled_semantic"":""8"",""num_scrambled_causal"":""4"",""num_scrambled_schematic"":""4"",""participantId"":""6972F22F718946CC8DBB689A45FAC7E5"",""assignmentId"":""9d67303c-6542-458f-b451-c6f2611af37b"",""projectId"":""051c06f1-75cc-4548-856d-4923ddaba0dc""}","https://test12345.live/?num_scrambled_semantic=8&num_scrambled_causal=4&num_scrambled_schematic=4&participantId=6972F22F718946CC8DBB689A45FAC7E5&assignmentId=9d67303c-6542-458f-b451-c6f2611af37b&projectId=051c06f1-75cc-4548-856d-4923ddaba0dc","6972F22F718946CC8DBB689A45FAC7E5-2025-05-15-18-52-09","","null","","images/instructions/movie_3.png","null","",""
"","","","","","image-button-response","16","267298","0.0-6.0-1.0-1.2","6972F22F718946CC8DBB689A45FAC7E5","6972F22F718946CC8DBB689A45FAC7E5","9d67303c-6542-458f-b451-c6f2611af37b","051c06f1-75cc-4548-856d-4923ddaba0dc","{""num_scrambled_semantic"":""8"",""num_scrambled_causal"":""4"",""num_scrambled_schematic"":""4"",""participantId"":""6972F22F718946CC8DBB689A45FAC7E5"",""assignmentId"":""9d67303c-6542-458f-b451-c6f2611af37b"",""projectId"":""051c06f1-75cc-4548-856d-4923ddaba0dc""}","https://test12345.live/?num_scrambled_semantic=8&num_scrambled_causal=4&num_scrambled_schematic=4&participantId=6972F22F718946CC8DBB689A45FAC7E5&assignmentId=9d67303c-6542-458f-b451-c6f2611af37b&projectId=051c06f1-75cc-4548-856d-4923ddaba0dc","6972F22F718946CC8DBB689A45FAC7E5-2025-05-15-18-52-09","","1025","","images/instructions/movie_3.png","0","",""
"","","","","","image-button-response","17","269110","0.0-6.0-1.0-2.2","6972F22F718946CC8DBB689A45FAC7E5","6972F22F718946CC8DBB689A45FAC7E5","9d67303c-6542-458f-b451-c6f2611af37b","051c06f1-75cc-4548-856d-4923ddaba0dc","{""num_scrambled_semantic"":""8"",""num_scrambled_causal"":""4"",""num_scrambled_schematic"":""4"",""participantId"":""6972F22F718946CC8DBB689A45FAC7E5"",""assignmentId"":""9d67303c-6542-458f-b451-c6f2611af37b"",""projectId"":""051c06f1-75cc-4548-856d-4923ddaba0dc""}","https://test12345.live/?num_scrambled_semantic=8&num_scrambled_causal=4&num_scrambled_schematic=4&participantId=6972F22F718946CC8DBB689A45FAC7E5&assignmentId=9d67303c-6542-458f-b451-c6f2611af37b&projectId=051c06f1-75cc-4548-856d-4923ddaba0dc","6972F22F718946CC8DBB689A45FAC7E5-2025-05-15-18-52-09","","null","","[]","null","",""
"","","","","","image-button-response","18","273613","0.0-6.0-1.0-0.3","6972F22F718946CC8DBB689A45FAC7E5","6972F22F718946CC8DBB689A45FAC7E5","9d67303c-6542-458f-b451-c6f2611af37b","051c06f1-75cc-4548-856d-4923ddaba0dc","{""num_scrambled_semantic"":""8"",""num_scrambled_causal"":""4"",""num_scrambled_schematic"":""4"",""participantId"":""6972F22F718946CC8DBB689A45FAC7E5"",""assignmentId"":""9d67303c-6542-458f-b451-c6f2611af37b"",""projectId"":""051c06f1-75cc-4548-856d-4923ddaba0dc""}","https://test12345.live/?num_scrambled_semantic=8&num_scrambled_causal=4&num_scrambled_schematic=4&participantId=6972F22F718946CC8DBB689A45FAC7E5&assignmentId=9d67303c-6542-458f-b451-c6f2611af37b&projectId=051c06f1-75cc-4548-856d-4923ddaba0dc","6972F22F718946CC8DBB689A45FAC7E5-2025-05-15-18-52-09","","null","","images/instructions/movie_4.png","null","",""
"","","","","","image-button-response","19","274458","0.0-6.0-1.0-1.3","6972F22F718946CC8DBB689A45FAC7E5","6972F22F718946CC8DBB689A45FAC7E5","9d67303c-6542-458f-b451-c6f2611af37b","051c06f1-75cc-4548-856d-4923ddaba0dc","{""num_scrambled_semantic"":""8"",""num_scrambled_causal"":""4"",""num_scrambled_schematic"":""4"",""participantId"":""6972F22F718946CC8DBB689A45FAC7E5"",""assignmentId"":""9d67303c-6542-458f-b451-c6f2611af37b"",""projectId"":""051c06f1-75cc-4548-856d-4923ddaba0dc""}","https://test12345.live/?num_scrambled_semantic=8&num_scrambled_causal=4&num_scrambled_schematic=4&participantId=6972F22F718946CC8DBB689A45FAC7E5&assignmentId=9d67303c-6542-458f-b451-c6f2611af37b&projectId=051c06f1-75cc-4548-856d-4923ddaba0dc","6972F22F718946CC8DBB689A45FAC7E5-2025-05-15-18-52-09","","843","","images/instructions/movie_4.png","0","",""
"","","","","","image-button-response","20","276274","0.0-6.0-1.0-2.3","6972F22F718946CC8DBB689A45FAC7E5","6972F22F718946CC8DBB689A45FAC7E5","9d67303c-6542-458f-b451-c6f2611af37b","051c06f1-75cc-4548-856d-4923ddaba0dc","{""num_scrambled_semantic"":""8"",""num_scrambled_causal"":""4"",""num_scrambled_schematic"":""4"",""participantId"":""6972F22F718946CC8DBB689A45FAC7E5"",""assignmentId"":""9d67303c-6542-458f-b451-c6f2611af37b"",""projectId"":""051c06f1-75cc-4548-856d-4923ddaba0dc""}","https://test12345.live/?num_scrambled_semantic=8&num_scrambled_causal=4&num_scrambled_schematic=4&participantId=6972F22F718946CC8DBB689A45FAC7E5&assignmentId=9d67303c-6542-458f-b451-c6f2611af37b&projectId=051c06f1-75cc-4548-856d-4923ddaba0dc","6972F22F718946CC8DBB689A45FAC7E5-2025-05-15-18-52-09","","null","","[]","null","",""
"","","","","","instructions","21","286242","0.0-7.0","6972F22F718946CC8DBB689A45FAC7E5","6972F22F718946CC8DBB689A45FAC7E5","9d67303c-6542-458f-b451-c6f2611af37b","051c06f1-75cc-4548-856d-4923ddaba0dc","{""num_scrambled_semantic"":""8"",""num_scrambled_causal"":""4"",""num_scrambled_schematic"":""4"",""participantId"":""6972F22F718946CC8DBB689A45FAC7E5"",""assignmentId"":""9d67303c-6542-458f-b451-c6f2611af37b"",""projectId"":""051c06f1-75cc-4548-856d-4923ddaba0dc""}","https://test12345.live/?num_scrambled_semantic=8&num_scrambled_causal=4&num_scrambled_schematic=4&participantId=6972F22F718946CC8DBB689A45FAC7E5&assignmentId=9d67303c-6542-458f-b451-c6f2611af37b&projectId=051c06f1-75cc-4548-856d-4923ddaba0dc","6972F22F718946CC8DBB689A45FAC7E5-2025-05-15-18-52-09","[{""page_index"":0,""viewing_time"":7308},{""page_index"":1,""viewing_time"":2659}]","9967","","","","",""
"","","","","","html-audio-response","22","297258","0.0-8.0","6972F22F718946CC8DBB689A45FAC7E5","6972F22F718946CC8DBB689A45FAC7E5","9d67303c-6542-458f-b451-c6f2611af37b","051c06f1-75cc-4548-856d-4923ddaba0dc","{""num_scrambled_semantic"":""8"",""num_scrambled_causal"":""4"",""num_scrambled_schematic"":""4"",""participantId"":""6972F22F718946CC8DBB689A45FAC7E5"",""assignmentId"":""9d67303c-6542-458f-b451-c6f2611af37b"",""projectId"":""051c06f1-75cc-4548-856d-4923ddaba0dc""}","https://test12345.live/?num_scrambled_semantic=8&num_scrambled_causal=4&num_scrambled_schematic=4&participantId=6972F22F718946CC8DBB689A45FAC7E5&assignmentId=9d67303c-6542-458f-b451-c6f2611af37b&projectId=051c06f1-75cc-4548-856d-4923ddaba0dc","6972F22F718946CC8DBB689A45FAC7E5-2025-05-15-18-52-09","","5294","","[""<span style=\""color: red; font-size: 24px\""> NOW RECORDING</span><p>Please say out loud all the images you saw, as many as you can remember. The images can be said in any order.</p>""]","","3",""
"","","","","","instructions","23","299178","0.0-9.0","6972F22F718946CC8DBB689A45FAC7E5","6972F22F718946CC8DBB689A45FAC7E5","9d67303c-6542-458f-b451-c6f2611af37b","051c06f1-75cc-4548-856d-4923ddaba0dc","{""num_scrambled_semantic"":""8"",""num_scrambled_causal"":""4"",""num_scrambled_schematic"":""4"",""participantId"":""6972F22F718946CC8DBB689A45FAC7E5"",""assignmentId"":""9d67303c-6542-458f-b451-c6f2611af37b"",""projectId"":""051c06f1-75cc-4548-856d-4923ddaba0dc""}","https://test12345.live/?num_scrambled_semantic=8&num_scrambled_causal=4&num_scrambled_schematic=4&participantId=6972F22F718946CC8DBB689A45FAC7E5&assignmentId=9d67303c-6542-458f-b451-c6f2611af37b&projectId=051c06f1-75cc-4548-856d-4923ddaba0dc","6972F22F718946CC8DBB689A45FAC7E5-2025-05-15-18-52-09","[{""page_index"":0,""viewing_time"":1916}]","1916","","","","",""
"","","","","","image-button-response","24","305180","0.0-10.0-0.0","6972F22F718946CC8DBB689A45FAC7E5","6972F22F718946CC8DBB689A45FAC7E5","9d67303c-6542-458f-b451-c6f2611af37b","051c06f1-75cc-4548-856d-4923ddaba0dc","{""num_scrambled_semantic"":""8"",""num_scrambled_causal"":""4"",""num_scrambled_schematic"":""4"",""participantId"":""6972F22F718946CC8DBB689A45FAC7E5"",""assignmentId"":""9d67303c-6542-458f-b451-c6f2611af37b"",""projectId"":""051c06f1-75cc-4548-856d-4923ddaba0dc""}","https://test12345.live/?num_scrambled_semantic=8&num_scrambled_causal=4&num_scrambled_schematic=4&participantId=6972F22F718946CC8DBB689A45FAC7E5&assignmentId=9d67303c-6542-458f-b451-c6f2611af37b&projectId=051c06f1-75cc-4548-856d-4923ddaba0dc","6972F22F718946CC8DBB689A45FAC7E5-2025-05-15-18-52-09","","null","","images/semantic_sequence/maintaining_a_car_semantic/maintaining_a_car_semantic_0.png","null","",""
"","","","","","image-button-response","25","309689","0.0-10.0-1.0-0.0","6972F22F718946CC8DBB689A45FAC7E5","6972F22F718946CC8DBB689A45FAC7E5","9d67303c-6542-458f-b451-c6f2611af37b","051c06f1-75cc-4548-856d-4923ddaba0dc","{""num_scrambled_semantic"":""8"",""num_scrambled_causal"":""4"",""num_scrambled_schematic"":""4"",""participantId"":""6972F22F718946CC8DBB689A45FAC7E5"",""assignmentId"":""9d67303c-6542-458f-b451-c6f2611af37b"",""projectId"":""051c06f1-75cc-4548-856d-4923ddaba0dc""}","https://test12345.live/?num_scrambled_semantic=8&num_scrambled_causal=4&num_scrambled_schematic=4&participantId=6972F22F718946CC8DBB689A45FAC7E5&assignmentId=9d67303c-6542-458f-b451-c6f2611af37b&projectId=051c06f1-75cc-4548-856d-4923ddaba0dc","6972F22F718946CC8DBB689A45FAC7E5-2025-05-15-18-52-09","","null","","images/semantic_sequence/maintaining_a_car_semantic/maintaining_a_car_semantic_1.png","null","",""
"","","","","","image-button-response","26","311433","0.0-10.0-1.0-1.0","6972F22F718946CC8DBB689A45FAC7E5","6972F22F718946CC8DBB689A45FAC7E5","9d67303c-6542-458f-b451-c6f2611af37b","051c06f1-75cc-4548-856d-4923ddaba0dc","{""num_scrambled_semantic"":""8"",""num_scrambled_causal"":""4"",""num_scrambled_schematic"":""4"",""participantId"":""6972F22F718946CC8DBB689A45FAC7E5"",""assignmentId"":""9d67303c-6542-458f-b451-c6f2611af37b"",""projectId"":""051c06f1-75cc-4548-856d-4923ddaba0dc""}","https://test12345.live/?num_scrambled_semantic=8&num_scrambled_causal=4&num_scrambled_schematic=4&participantId=6972F22F718946CC8DBB689A45FAC7E5&assignmentId=9d67303c-6542-458f-b451-c6f2611af37b&projectId=051c06f1-75cc-4548-856d-4923ddaba0dc","6972F22F718946CC8DBB689A45FAC7E5-2025-05-15-18-52-09","","1742","","images/semantic_sequence/maintaining_a_car_semantic/maintaining_a_car_semantic_1.png","0","",""
"","","","","","image-button-response","27","313242","0.0-10.0-1.0-2.0","6972F22F718946CC8DBB689A45FAC7E5","6972F22F718946CC8DBB689A45FAC7E5","9d67303c-6542-458f-b451-c6f2611af37b","051c06f1-75cc-4548-856d-4923ddaba0dc","{""num_scrambled_semantic"":""8"",""num_scrambled_causal"":""4"",""num_scrambled_schematic"":""4"",""participantId"":""6972F22F718946CC8DBB689A45FAC7E5"",""assignmentId"":""9d67303c-6542-458f-b451-c6f2611af37b"",""projectId"":""051c06f1-75cc-4548-856d-4923ddaba0dc""}","https://test12345.live/?num_scrambled_semantic=8&num_scrambled_causal=4&num_scrambled_schematic=4&participantId=6972F22F718946CC8DBB689A45FAC7E5&assignmentId=9d67303c-6542-458f-b451-c6f2611af37b&projectId=051c06f1-75cc-4548-856d-4923ddaba0dc","6972F22F718946CC8DBB689A45FAC7E5-2025-05-15-18-52-09","","null","","[]","null","",""
"","","","","","image-button-response","28","317759","0.0-10.0-1.0-0.1","6972F22F718946CC8DBB689A45FAC7E5","6972F22F718946CC8DBB689A45FAC7E5","9d67303c-6542-458f-b451-c6f2611af37b","051c06f1-75cc-4548-856d-4923ddaba0dc","{""num_scrambled_semantic"":""8"",""num_scrambled_causal"":""4"",""num_scrambled_schematic"":""4"",""participantId"":""6972F22F718946CC8DBB689A45FAC7E5"",""assignmentId"":""9d67303c-6542-458f-b451-c6f2611af37b"",""projectId"":""051c06f1-75cc-4548-856d-4923ddaba0dc""}","https://test12345.live/?num_scrambled_semantic=8&num_scrambled_causal=4&num_scrambled_schematic=4&participantId=6972F22F718946CC8DBB689A45FAC7E5&assignmentId=9d67303c-6542-458f-b451-c6f2611af37b&projectId=051c06f1-75cc-4548-856d-4923ddaba0dc","6972F22F718946CC8DBB689A45FAC7E5-2025-05-15-18-52-09","","null","","images/semantic_sequence/maintaining_a_car_semantic/maintaining_a_car_semantic_8.png","null","",""
"","","","","","image-button-response","29","321458","0.0-10.0-1.0-1.1","6972F22F718946CC8DBB689A45FAC7E5","6972F22F718946CC8DBB689A45FAC7E5","9d67303c-6542-458f-b451-c6f2611af37b","051c06f1-75cc-4548-856d-4923ddaba0dc","{""num_scrambled_semantic"":""8"",""num_scrambled_causal"":""4"",""num_scrambled_schematic"":""4"",""participantId"":""6972F22F718946CC8DBB689A45FAC7E5"",""assignmentId"":""9d67303c-6542-458f-b451-c6f2611af37b"",""projectId"":""051c06f1-75cc-4548-856d-4923ddaba0dc""}","https://test12345.live/?num_scrambled_semantic=8&num_scrambled_causal=4&num_scrambled_schematic=4&participantId=6972F22F718946CC8DBB689A45FAC7E5&assignmentId=9d67303c-6542-458f-b451-c6f2611af37b&projectId=051c06f1-75cc-4548-856d-4923ddaba0dc","6972F22F718946CC8DBB689A45FAC7E5-2025-05-15-18-52-09","","3697","","images/semantic_sequence/maintaining_a_car_semantic/maintaining_a_car_semantic_8.png","0","",""
"","","","","","image-button-response","30","323269","0.0-10.0-1.0-2.1","6972F22F718946CC8DBB689A45FAC7E5","6972F22F718946CC8DBB689A45FAC7E5","9d67303c-6542-458f-b451-c6f2611af37b","051c06f1-75cc-4548-856d-4923ddaba0dc","{""num_scrambled_semantic"":""8"",""num_scrambled_causal"":""4"",""num_scrambled_schematic"":""4"",""participantId"":""6972F22F718946CC8DBB689A45FAC7E5"",""assignmentId"":""9d67303c-6542-458f-b451-c6f2611af37b"",""projectId"":""051c06f1-75cc-4548-856d-4923ddaba0dc""}","https://test12345.live/?num_scrambled_semantic=8&num_scrambled_causal=4&num_scrambled_schematic=4&participantId=6972F22F718946CC8DBB689A45FAC7E5&assignmentId=9d67303c-6542-458f-b451-c6f2611af37b&projectId=051c06f1-75cc-4548-856d-4923ddaba0dc","6972F22F718946CC8DBB689A45FAC7E5-2025-05-15-18-52-09","","null","","[]","null","",""
"","","","","","image-button-response","31","327781","0.0-10.0-1.0-0.2","6972F22F718946CC8DBB689A45FAC7E5","6972F22F718946CC8DBB689A45FAC7E5","9d67303c-6542-458f-b451-c6f2611af37b","051c06f1-75cc-4548-856d-4923ddaba0dc","{""num_scrambled_semantic"":""8"",""num_scrambled_causal"":""4"",""num_scrambled_schematic"":""4"",""participantId"":""6972F22F718946CC8DBB689A45FAC7E5"",""assignmentId"":""9d67303c-6542-458f-b451-c6f2611af37b"",""projectId"":""051c06f1-75cc-4548-856d-4923ddaba0dc""}","https://test12345.live/?num_scrambled_semantic=8&num_scrambled_causal=4&num_scrambled_schematic=4&participantId=6972F22F718946CC8DBB689A45FAC7E5&assignmentId=9d67303c-6542-458f-b451-c6f2611af37b&projectId=051c06f1-75cc-4548-856d-4923ddaba0dc","6972F22F718946CC8DBB689A45FAC7E5-2025-05-15-18-52-09","","null","","images/semantic_sequence/maintaining_a_car_semantic/maintaining_a_car_semantic_5.png","null","",""
"","","","","","image-button-response","32","328538","0.0-10.0-1.0-1.2","6972F22F718946CC8DBB689A45FAC7E5","6972F22F718946CC8DBB689A45FAC7E5","9d67303c-6542-458f-b451-c6f2611af37b","051c06f1-75cc-4548-856d-4923ddaba0dc","{""num_scrambled_semantic"":""8"",""num_scrambled_causal"":""4"",""num_scrambled_schematic"":""4"",""participantId"":""6972F22F718946CC8DBB689A45FAC7E5"",""assignmentId"":""9d67303c-6542-458f-b451-c6f2611af37b"",""projectId"":""051c06f1-75cc-4548-856d-4923ddaba0dc""}","https://test12345.live/?num_scrambled_semantic=8&num_scrambled_causal=4&num_scrambled_schematic=4&participantId=6972F22F718946CC8DBB689A45FAC7E5&assignmentId=9d67303c-6542-458f-b451-c6f2611af37b&projectId=051c06f1-75cc-4548-856d-4923ddaba0dc","6972F22F718946CC8DBB689A45FAC7E5-2025-05-15-18-52-09","","756","","images/semantic_sequence/maintaining_a_car_semantic/maintaining_a_car_semantic_5.png","0","",""
"","","","","","image-button-response","33","330344","0.0-10.0-1.0-2.2","6972F22F718946CC8DBB689A45FAC7E5","6972F22F718946CC8DBB689A45FAC7E5","9d67303c-6542-458f-b451-c6f2611af37b","051c06f1-75cc-4548-856d-4923ddaba0dc","{""num_scrambled_semantic"":""8"",""num_scrambled_causal"":""4"",""num_scrambled_schematic"":""4"",""participantId"":""6972F22F718946CC8DBB689A45FAC7E5"",""assignmentId"":""9d67303c-6542-458f-b451-c6f2611af37b"",""projectId"":""051c06f1-75cc-4548-856d-4923ddaba0dc""}","https://test12345.live/?num_scrambled_semantic=8&num_scrambled_causal=4&num_scrambled_schematic=4&participantId=6972F22F718946CC8DBB689A45FAC7E5&assignmentId=9d67303c-6542-458f-b451-c6f2611af37b&projectId=051c06f1-75cc-4548-856d-4923ddaba0dc","6972F22F718946CC8DBB689A45FAC7E5-2025-05-15-18-52-09","","null","","[]","null","",""
"","","","","","image-button-response","34","334851","0.0-10.0-1.0-0.3","6972F22F718946CC8DBB689A45FAC7E5","6972F22F718946CC8DBB689A45FAC7E5","9d67303c-6542-458f-b451-c6f2611af37b","051c06f1-75cc-4548-856d-4923ddaba0dc","{""num_scrambled_semantic"":""8"",""num_scrambled_causal"":""4"",""num_scrambled_schematic"":""4"",""participantId"":""6972F22F718946CC8DBB689A45FAC7E5"",""assignmentId"":""9d67303c-6542-458f-b451-c6f2611af37b"",""projectId"":""051c06f1-75cc-4548-856d-4923ddaba0dc""}","https://test12345.live/?num_scrambled_semantic=8&num_scrambled_causal=4&num_scrambled_schematic=4&participantId=6972F22F718946CC8DBB689A45FAC7E5&assignmentId=9d67303c-6542-458f-b451-c6f2611af37b&projectId=051c06f1-75cc-4548-856d-4923ddaba0dc","6972F22F718946CC8DBB689A45FAC7E5-2025-05-15-18-52-09","","null","","images/semantic_sequence/maintaining_a_car_semantic/maintaining_a_car_semantic_3.png","null","",""
"","","","","","image-button-response","35","338855","0.0-10.0-1.0-1.3","6972F22F718946CC8DBB689A45FAC7E5","6972F22F718946CC8DBB689A45FAC7E5","9d67303c-6542-458f-b451-c6f2611af37b","051c06f1-75cc-4548-856d-4923ddaba0dc","{""num_scrambled_semantic"":""8"",""num_scrambled_causal"":""4"",""num_scrambled_schematic"":""4"",""participantId"":""6972F22F718946CC8DBB689A45FAC7E5"",""assignmentId"":""9d67303c-6542-458f-b451-c6f2611af37b"",""projectId"":""051c06f1-75cc-4548-856d-4923ddaba0dc""}","https://test12345.live/?num_scrambled_semantic=8&num_scrambled_causal=4&num_scrambled_schematic=4&participantId=6972F22F718946CC8DBB689A45FAC7E5&assignmentId=9d67303c-6542-458f-b451-c6f2611af37b&projectId=051c06f1-75cc-4548-856d-4923ddaba0dc","6972F22F718946CC8DBB689A45FAC7E5-2025-05-15-18-52-09","","null","","images/semantic_sequence/maintaining_a_car_semantic/maintaining_a_car_semantic_3.png","null","",""
"","","","","","image-button-response","36","340661","0.0-10.0-1.0-2.3","6972F22F718946CC8DBB689A45FAC7E5","6972F22F718946CC8DBB689A45FAC7E5","9d67303c-6542-458f-b451-c6f2611af37b","051c06f1-75cc-4548-856d-4923ddaba0dc","{""num_scrambled_semantic"":""8"",""num_scrambled_causal"":""4"",""num_scrambled_schematic"":""4"",""participantId"":""6972F22F718946CC8DBB689A45FAC7E5"",""assignmentId"":""9d67303c-6542-458f-b451-c6f2611af37b"",""projectId"":""051c06f1-75cc-4548-856d-4923ddaba0dc""}","https://test12345.live/?num_scrambled_semantic=8&num_scrambled_causal=4&num_scrambled_schematic=4&participantId=6972F22F718946CC8DBB689A45FAC7E5&assignmentId=9d67303c-6542-458f-b451-c6f2611af37b&projectId=051c06f1-75cc-4548-856d-4923ddaba0dc","6972F22F718946CC8DBB689A45FAC7E5-2025-05-15-18-52-09","","null","","[]","null","",""
"","","","","","image-button-response","37","345169","0.0-10.0-1.0-0.4","6972F22F718946CC8DBB689A45FAC7E5","6972F22F718946CC8DBB689A45FAC7E5","9d67303c-6542-458f-b451-c6f2611af37b","051c06f1-75cc-4548-856d-4923ddaba0dc","{""num_scrambled_semantic"":""8"",""num_scrambled_causal"":""4"",""num_scrambled_schematic"":""4"",""participantId"":""6972F22F718946CC8DBB689A45FAC7E5"",""assignmentId"":""9d67303c-6542-458f-b451-c6f2611af37b"",""projectId"":""051c06f1-75cc-4548-856d-4923ddaba0dc""}","https://test12345.live/?num_scrambled_semantic=8&num_scrambled_causal=4&num_scrambled_schematic=4&participantId=6972F22F718946CC8DBB689A45FAC7E5&assignmentId=9d67303c-6542-458f-b451-c6f2611af37b&projectId=051c06f1-75cc-4548-856d-4923ddaba0dc","6972F22F718946CC8DBB689A45FAC7E5-2025-05-15-18-52-09","","null","","images/semantic_sequence/maintaining_a_car_semantic/maintaining_a_car_semantic_2.png","null","",""
"","","","","","image-button-response","38","346034","0.0-10.0-1.0-1.4","6972F22F718946CC8DBB689A45FAC7E5","6972F22F718946CC8DBB689A45FAC7E5","9d67303c-6542-458f-b451-c6f2611af37b","051c06f1-75cc-4548-856d-4923ddaba0dc","{""num_scrambled_semantic"":""8"",""num_scrambled_causal"":""4"",""num_scrambled_schematic"":""4"",""participantId"":""6972F22F718946CC8DBB689A45FAC7E5"",""assignmentId"":""9d67303c-6542-458f-b451-c6f2611af37b"",""projectId"":""051c06f1-75cc-4548-856d-4923ddaba0dc""}","https://test12345.live/?num_scrambled_semantic=8&num_scrambled_causal=4&num_scrambled_schematic=4&participantId=6972F22F718946CC8DBB689A45FAC7E5&assignmentId=9d67303c-6542-458f-b451-c6f2611af37b&projectId=051c06f1-75cc-4548-856d-4923ddaba0dc","6972F22F718946CC8DBB689A45FAC7E5-2025-05-15-18-52-09","","864","","images/semantic_sequence/maintaining_a_car_semantic/maintaining_a_car_semantic_2.png","0","",""
"","","","","","image-button-response","39","347844","0.0-10.0-1.0-2.4","6972F22F718946CC8DBB689A45FAC7E5","6972F22F718946CC8DBB689A45FAC7E5","9d67303c-6542-458f-b451-c6f2611af37b","051c06f1-75cc-4548-856d-4923ddaba0dc","{""num_scrambled_semantic"":""8"",""num_scrambled_causal"":""4"",""num_scrambled_schematic"":""4"",""participantId"":""6972F22F718946CC8DBB689A45FAC7E5"",""assignmentId"":""9d67303c-6542-458f-b451-c6f2611af37b"",""projectId"":""051c06f1-75cc-4548-856d-4923ddaba0dc""}","https://test12345.live/?num_scrambled_semantic=8&num_scrambled_causal=4&num_scrambled_schematic=4&participantId=6972F22F718946CC8DBB689A45FAC7E5&assignmentId=9d67303c-6542-458f-b451-c6f2611af37b&projectId=051c06f1-75cc-4548-856d-4923ddaba0dc","6972F22F718946CC8DBB689A45FAC7E5-2025-05-15-18-52-09","","null","","[]","null","",""
"","","","","","image-button-response","40","352355","0.0-10.0-1.0-0.5","6972F22F718946CC8DBB689A45FAC7E5","6972F22F718946CC8DBB689A45FAC7E5","9d67303c-6542-458f-b451-c6f2611af37b","051c06f1-75cc-4548-856d-4923ddaba0dc","{""num_scrambled_semantic"":""8"",""num_scrambled_causal"":""4"",""num_scrambled_schematic"":""4"",""participantId"":""6972F22F718946CC8DBB689A45FAC7E5"",""assignmentId"":""9d67303c-6542-458f-b451-c6f2611af37b"",""projectId"":""051c06f1-75cc-4548-856d-4923ddaba0dc""}","https://test12345.live/?num_scrambled_semantic=8&num_scrambled_causal=4&num_scrambled_schematic=4&participantId=6972F22F718946CC8DBB689A45FAC7E5&assignmentId=9d67303c-6542-458f-b451-c6f2611af37b&projectId=051c06f1-75cc-4548-856d-4923ddaba0dc","6972F22F718946CC8DBB689A45FAC7E5-2025-05-15-18-52-09","","null","","images/semantic_sequence/maintaining_a_car_semantic/maintaining_a_car_semantic_6.png","null","",""
"","","","","","image-button-response","41","353495","0.0-10.0-1.0-1.5","6972F22F718946CC8DBB689A45FAC7E5","6972F22F718946CC8DBB689A45FAC7E5","9d67303c-6542-458f-b451-c6f2611af37b","051c06f1-75cc-4548-856d-4923ddaba0dc","{""num_scrambled_semantic"":""8"",""num_scrambled_causal"":""4"",""num_scrambled_schematic"":""4"",""participantId"":""6972F22F718946CC8DBB689A45FAC7E5"",""assignmentId"":""9d67303c-6542-458f-b451-c6f2611af37b"",""projectId"":""051c06f1-75cc-4548-856d-4923ddaba0dc""}","https://test12345.live/?num_scrambled_semantic=8&num_scrambled_causal=4&num_scrambled_schematic=4&participantId=6972F22F718946CC8DBB689A45FAC7E5&assignmentId=9d67303c-6542-458f-b451-c6f2611af37b&projectId=051c06f1-75cc-4548-856d-4923ddaba0dc","6972F22F718946CC8DBB689A45FAC7E5-2025-05-15-18-52-09","","1138","","images/semantic_sequence/maintaining_a_car_semantic/maintaining_a_car_semantic_6.png","0","",""
"","","","","","image-button-response","42","355309","0.0-10.0-1.0-2.5","6972F22F718946CC8DBB689A45FAC7E5","6972F22F718946CC8DBB689A45FAC7E5","9d67303c-6542-458f-b451-c6f2611af37b","051c06f1-75cc-4548-856d-4923ddaba0dc","{""num_scrambled_semantic"":""8"",""num_scrambled_causal"":""4"",""num_scrambled_schematic"":""4"",""participantId"":""6972F22F718946CC8DBB689A45FAC7E5"",""assignmentId"":""9d67303c-6542-458f-b451-c6f2611af37b"",""projectId"":""051c06f1-75cc-4548-856d-4923ddaba0dc""}","https://test12345.live/?num_scrambled_semantic=8&num_scrambled_causal=4&num_scrambled_schematic=4&participantId=6972F22F718946CC8DBB689A45FAC7E5&assignmentId=9d67303c-6542-458f-b451-c6f2611af37b&projectId=051c06f1-75cc-4548-856d-4923ddaba0dc","6972F22F718946CC8DBB689A45FAC7E5-2025-05-15-18-52-09","","null","","[]","null","",""
"","","","","","image-button-response","43","359812","0.0-10.0-1.0-0.6","6972F22F718946CC8DBB689A45FAC7E5","6972F22F718946CC8DBB689A45FAC7E5","9d67303c-6542-458f-b451-c6f2611af37b","051c06f1-75cc-4548-856d-4923ddaba0dc","{""num_scrambled_semantic"":""8"",""num_scrambled_causal"":""4"",""num_scrambled_schematic"":""4"",""participantId"":""6972F22F718946CC8DBB689A45FAC7E5"",""assignmentId"":""9d67303c-6542-458f-b451-c6f2611af37b"",""projectId"":""051c06f1-75cc-4548-856d-4923ddaba0dc""}","https://test12345.live/?num_scrambled_semantic=8&num_scrambled_causal=4&num_scrambled_schematic=4&participantId=6972F22F718946CC8DBB689A45FAC7E5&assignmentId=9d67303c-6542-458f-b451-c6f2611af37b&projectId=051c06f1-75cc-4548-856d-4923ddaba0dc","6972F22F718946CC8DBB689A45FAC7E5-2025-05-15-18-52-09","","null","","images/semantic_sequence/maintaining_a_car_semantic/maintaining_a_car_semantic_ten.png","null","",""
"","","","","","image-button-response","44","360387","0.0-10.0-1.0-1.6","6972F22F718946CC8DBB689A45FAC7E5","6972F22F718946CC8DBB689A45FAC7E5","9d67303c-6542-458f-b451-c6f2611af37b","051c06f1-75cc-4548-856d-4923ddaba0dc","{""num_scrambled_semantic"":""8"",""num_scrambled_causal"":""4"",""num_scrambled_schematic"":""4"",""participantId"":""6972F22F718946CC8DBB689A45FAC7E5"",""assignmentId"":""9d67303c-6542-458f-b451-c6f2611af37b"",""projectId"":""051c06f1-75cc-4548-856d-4923ddaba0dc""}","https://test12345.live/?num_scrambled_semantic=8&num_scrambled_causal=4&num_scrambled_schematic=4&participantId=6972F22F718946CC8DBB689A45FAC7E5&assignmentId=9d67303c-6542-458f-b451-c6f2611af37b&projectId=051c06f1-75cc-4548-856d-4923ddaba0dc","6972F22F718946CC8DBB689A45FAC7E5-2025-05-15-18-52-09","","573","","images/semantic_sequence/maintaining_a_car_semantic/maintaining_a_car_semantic_ten.png","0","",""
"","","","","","image-button-response","45","362195","0.0-10.0-1.0-2.6","6972F22F718946CC8DBB689A45FAC7E5","6972F22F718946CC8DBB689A45FAC7E5","9d67303c-6542-458f-b451-c6f2611af37b","051c06f1-75cc-4548-856d-4923ddaba0dc","{""num_scrambled_semantic"":""8"",""num_scrambled_causal"":""4"",""num_scrambled_schematic"":""4"",""participantId"":""6972F22F718946CC8DBB689A45FAC7E5"",""assignmentId"":""9d67303c-6542-458f-b451-c6f2611af37b"",""projectId"":""051c06f1-75cc-4548-856d-4923ddaba0dc""}","https://test12345.live/?num_scrambled_semantic=8&num_scrambled_causal=4&num_scrambled_schematic=4&participantId=6972F22F718946CC8DBB689A45FAC7E5&assignmentId=9d67303c-6542-458f-b451-c6f2611af37b&projectId=051c06f1-75cc-4548-856d-4923ddaba0dc","6972F22F718946CC8DBB689A45FAC7E5-2025-05-15-18-52-09","","null","","[]","null","",""
"","","","","","image-button-response","46","366713","0.0-10.0-1.0-0.7","6972F22F718946CC8DBB689A45FAC7E5","6972F22F718946CC8DBB689A45FAC7E5","9d67303c-6542-458f-b451-c6f2611af37b","051c06f1-75cc-4548-856d-4923ddaba0dc","{""num_scrambled_semantic"":""8"",""num_scrambled_causal"":""4"",""num_scrambled_schematic"":""4"",""participantId"":""6972F22F718946CC8DBB689A45FAC7E5"",""assignmentId"":""9d67303c-6542-458f-b451-c6f2611af37b"",""projectId"":""051c06f1-75cc-4548-856d-4923ddaba0dc""}","https://test12345.live/?num_scrambled_semantic=8&num_scrambled_causal=4&num_scrambled_schematic=4&participantId=6972F22F718946CC8DBB689A45FAC7E5&assignmentId=9d67303c-6542-458f-b451-c6f2611af37b&projectId=051c06f1-75cc-4548-856d-4923ddaba0dc","6972F22F718946CC8DBB689A45FAC7E5-2025-05-15-18-52-09","","null","","images/semantic_sequence/maintaining_a_car_semantic/maintaining_a_car_semantic_4.png","null","",""
"","","","","","image-button-response","47","367204","0.0-10.0-1.0-1.7","6972F22F718946CC8DBB689A45FAC7E5","6972F22F718946CC8DBB689A45FAC7E5","9d67303c-6542-458f-b451-c6f2611af37b","051c06f1-75cc-4548-856d-4923ddaba0dc","{""num_scrambled_semantic"":""8"",""num_scrambled_causal"":""4"",""num_scrambled_schematic"":""4"",""participantId"":""6972F22F718946CC8DBB689A45FAC7E5"",""assignmentId"":""9d67303c-6542-458f-b451-c6f2611af37b"",""projectId"":""051c06f1-75cc-4548-856d-4923ddaba0dc""}","https://test12345.live/?num_scrambled_semantic=8&num_scrambled_causal=4&num_scrambled_schematic=4&participantId=6972F22F718946CC8DBB689A45FAC7E5&assignmentId=9d67303c-6542-458f-b451-c6f2611af37b&projectId=051c06f1-75cc-4548-856d-4923ddaba0dc","6972F22F718946CC8DBB689A45FAC7E5-2025-05-15-18-52-09","","489","","images/semantic_sequence/maintaining_a_car_semantic/maintaining_a_car_semantic_4.png","0","",""
"","","","","","image-button-response","48","369020","0.0-10.0-1.0-2.7","6972F22F718946CC8DBB689A45FAC7E5","6972F22F718946CC8DBB689A45FAC7E5","9d67303c-6542-458f-b451-c6f2611af37b","051c06f1-75cc-4548-856d-4923ddaba0dc","{""num_scrambled_semantic"":""8"",""num_scrambled_causal"":""4"",""num_scrambled_schematic"":""4"",""participantId"":""6972F22F718946CC8DBB689A45FAC7E5"",""assignmentId"":""9d67303c-6542-458f-b451-c6f2611af37b"",""projectId"":""051c06f1-75cc-4548-856d-4923ddaba0dc""}","https://test12345.live/?num_scrambled_semantic=8&num_scrambled_causal=4&num_scrambled_schematic=4&participantId=6972F22F718946CC8DBB689A45FAC7E5&assignmentId=9d67303c-6542-458f-b451-c6f2611af37b&projectId=051c06f1-75cc-4548-856d-4923ddaba0dc","6972F22F718946CC8DBB689A45FAC7E5-2025-05-15-18-52-09","","null","","[]","null","",""
"","","","","","image-button-response","49","373544","0.0-10.0-1.0-0.8","6972F22F718946CC8DBB689A45FAC7E5","6972F22F718946CC8DBB689A45FAC7E5","9d67303c-6542-458f-b451-c6f2611af37b","051c06f1-75cc-4548-856d-4923ddaba0dc","{""num_scrambled_semantic"":""8"",""num_scrambled_causal"":""4"",""num_scrambled_schematic"":""4"",""participantId"":""6972F22F718946CC8DBB689A45FAC7E5"",""assignmentId"":""9d67303c-6542-458f-b451-c6f2611af37b"",""projectId"":""051c06f1-75cc-4548-856d-4923ddaba0dc""}","https://test12345.live/?num_scrambled_semantic=8&num_scrambled_causal=4&num_scrambled_schematic=4&participantId=6972F22F718946CC8DBB689A45FAC7E5&assignmentId=9d67303c-6542-458f-b451-c6f2611af37b&projectId=051c06f1-75cc-4548-856d-4923ddaba0dc","6972F22F718946CC8DBB689A45FAC7E5-2025-05-15-18-52-09","","null","","images/semantic_sequence/maintaining_a_car_semantic/maintaining_a_car_semantic_9.png","null","",""
"","","","","","image-button-response","50","374016","0.0-10.0-1.0-1.8","6972F22F718946CC8DBB689A45FAC7E5","6972F22F718946CC8DBB689A45FAC7E5","9d67303c-6542-458f-b451-c6f2611af37b","051c06f1-75cc-4548-856d-4923ddaba0dc","{""num_scrambled_semantic"":""8"",""num_scrambled_causal"":""4"",""num_scrambled_schematic"":""4"",""participantId"":""6972F22F718946CC8DBB689A45FAC7E5"",""assignmentId"":""9d67303c-6542-458f-b451-c6f2611af37b"",""projectId"":""051c06f1-75cc-4548-856d-4923ddaba0dc""}","https://test12345.live/?num_scrambled_semantic=8&num_scrambled_causal=4&num_scrambled_schematic=4&participantId=6972F22F718946CC8DBB689A45FAC7E5&assignmentId=9d67303c-6542-458f-b451-c6f2611af37b&projectId=051c06f1-75cc-4548-856d-4923ddaba0dc","6972F22F718946CC8DBB689A45FAC7E5-2025-05-15-18-52-09","","471","","images/semantic_sequence/maintaining_a_car_semantic/maintaining_a_car_semantic_9.png","0","",""
"","","","","","image-button-response","51","375831","0.0-10.0-1.0-2.8","6972F22F718946CC8DBB689A45FAC7E5","6972F22F718946CC8DBB689A45FAC7E5","9d67303c-6542-458f-b451-c6f2611af37b","051c06f1-75cc-4548-856d-4923ddaba0dc","{""num_scrambled_semantic"":""8"",""num_scrambled_causal"":""4"",""num_scrambled_schematic"":""4"",""participantId"":""6972F22F718946CC8DBB689A45FAC7E5"",""assignmentId"":""9d67303c-6542-458f-b451-c6f2611af37b"",""projectId"":""051c06f1-75cc-4548-856d-4923ddaba0dc""}","https://test12345.live/?num_scrambled_semantic=8&num_scrambled_causal=4&num_scrambled_schematic=4&participantId=6972F22F718946CC8DBB689A45FAC7E5&assignmentId=9d67303c-6542-458f-b451-c6f2611af37b&projectId=051c06f1-75cc-4548-856d-4923ddaba0dc","6972F22F718946CC8DBB689A45FAC7E5-2025-05-15-18-52-09","","null","","[]","null","",""
"","","","","","image-button-response","52","380342","0.0-10.0-1.0-0.9","6972F22F718946CC8DBB689A45FAC7E5","6972F22F718946CC8DBB689A45FAC7E5","9d67303c-6542-458f-b451-c6f2611af37b","051c06f1-75cc-4548-856d-4923ddaba0dc","{""num_scrambled_semantic"":""8"",""num_scrambled_causal"":""4"",""num_scrambled_schematic"":""4"",""participantId"":""6972F22F718946CC8DBB689A45FAC7E5"",""assignmentId"":""9d67303c-6542-458f-b451-c6f2611af37b"",""projectId"":""051c06f1-75cc-4548-856d-4923ddaba0dc""}","https://test12345.live/?num_scrambled_semantic=8&num_scrambled_causal=4&num_scrambled_schematic=4&participantId=6972F22F718946CC8DBB689A45FAC7E5&assignmentId=9d67303c-6542-458f-b451-c6f2611af37b&projectId=051c06f1-75cc-4548-856d-4923ddaba0dc","6972F22F718946CC8DBB689A45FAC7E5-2025-05-15-18-52-09","","null","","images/semantic_sequence/maintaining_a_car_semantic/maintaining_a_car_semantic_7.png","null","",""
"","","","","","image-button-response","53","380779","0.0-10.0-1.0-1.9","6972F22F718946CC8DBB689A45FAC7E5","6972F22F718946CC8DBB689A45FAC7E5","9d67303c-6542-458f-b451-c6f2611af37b","051c06f1-75cc-4548-856d-4923ddaba0dc","{""num_scrambled_semantic"":""8"",""num_scrambled_causal"":""4"",""num_scrambled_schematic"":""4"",""participantId"":""6972F22F718946CC8DBB689A45FAC7E5"",""assignmentId"":""9d67303c-6542-458f-b451-c6f2611af37b"",""projectId"":""051c06f1-75cc-4548-856d-4923ddaba0dc""}","https://test12345.live/?num_scrambled_semantic=8&num_scrambled_causal=4&num_scrambled_schematic=4&participantId=6972F22F718946CC8DBB689A45FAC7E5&assignmentId=9d67303c-6542-458f-b451-c6f2611af37b&projectId=051c06f1-75cc-4548-856d-4923ddaba0dc","6972F22F718946CC8DBB689A45FAC7E5-2025-05-15-18-52-09","","435","","images/semantic_sequence/maintaining_a_car_semantic/maintaining_a_car_semantic_7.png","0","",""
"","","","","","image-button-response","54","382586","0.0-10.0-1.0-2.9","6972F22F718946CC8DBB689A45FAC7E5","6972F22F718946CC8DBB689A45FAC7E5","9d67303c-6542-458f-b451-c6f2611af37b","051c06f1-75cc-4548-856d-4923ddaba0dc","{""num_scrambled_semantic"":""8"",""num_scrambled_causal"":""4"",""num_scrambled_schematic"":""4"",""participantId"":""6972F22F718946CC8DBB689A45FAC7E5"",""assignmentId"":""9d67303c-6542-458f-b451-c6f2611af37b"",""projectId"":""051c06f1-75cc-4548-856d-4923ddaba0dc""}","https://test12345.live/?num_scrambled_semantic=8&num_scrambled_causal=4&num_scrambled_schematic=4&participantId=6972F22F718946CC8DBB689A45FAC7E5&assignmentId=9d67303c-6542-458f-b451-c6f2611af37b&projectId=051c06f1-75cc-4548-856d-4923ddaba0dc","6972F22F718946CC8DBB689A45FAC7E5-2025-05-15-18-52-09","","null","","[]","null","",""
"","","","","","html-audio-response","55","430067","0.0-11.0","6972F22F718946CC8DBB689A45FAC7E5","6972F22F718946CC8DBB689A45FAC7E5","9d67303c-6542-458f-b451-c6f2611af37b","051c06f1-75cc-4548-856d-4923ddaba0dc","{""num_scrambled_semantic"":""8"",""num_scrambled_causal"":""4"",""num_scrambled_schematic"":""4"",""participantId"":""6972F22F718946CC8DBB689A45FAC7E5"",""assignmentId"":""9d67303c-6542-458f-b451-c6f2611af37b"",""projectId"":""051c06f1-75cc-4548-856d-4923ddaba0dc""}","https://test12345.live/?num_scrambled_semantic=8&num_scrambled_causal=4&num_scrambled_schematic=4&participantId=6972F22F718946CC8DBB689A45FAC7E5&assignmentId=9d67303c-6542-458f-b451-c6f2611af37b&projectId=051c06f1-75cc-4548-856d-4923ddaba0dc","6972F22F718946CC8DBB689A45FAC7E5-2025-05-15-18-52-09","","37105","","[""<span style=\""color: red; font-size: 24px\""> NOW RECORDING</span><p>Please say out loud all the images you saw, as many as you can remember. The images can be said in any order.</p>""]","","2","maintaining_a_car_semantic"
"","","","","","image-button-response","56","436081","0.0-12.0-0.0","6972F22F718946CC8DBB689A45FAC7E5","6972F22F718946CC8DBB689A45FAC7E5","9d67303c-6542-458f-b451-c6f2611af37b","051c06f1-75cc-4548-856d-4923ddaba0dc","{""num_scrambled_semantic"":""8"",""num_scrambled_causal"":""4"",""num_scrambled_schematic"":""4"",""participantId"":""6972F22F718946CC8DBB689A45FAC7E5"",""assignmentId"":""9d67303c-6542-458f-b451-c6f2611af37b"",""projectId"":""051c06f1-75cc-4548-856d-4923ddaba0dc""}","https://test12345.live/?num_scrambled_semantic=8&num_scrambled_causal=4&num_scrambled_schematic=4&participantId=6972F22F718946CC8DBB689A45FAC7E5&assignmentId=9d67303c-6542-458f-b451-c6f2611af37b&projectId=051c06f1-75cc-4548-856d-4923ddaba0dc","6972F22F718946CC8DBB689A45FAC7E5-2025-05-15-18-52-09","","null","","images/causal_sequence/the_performance_causal/the_performance_causal_0.png","null","",""
"","","","","","image-button-response","57","440604","0.0-12.0-1.0-0.0","6972F22F718946CC8DBB689A45FAC7E5","6972F22F718946CC8DBB689A45FAC7E5","9d67303c-6542-458f-b451-c6f2611af37b","051c06f1-75cc-4548-856d-4923ddaba0dc","{""num_scrambled_semantic"":""8"",""num_scrambled_causal"":""4"",""num_scrambled_schematic"":""4"",""participantId"":""6972F22F718946CC8DBB689A45FAC7E5"",""assignmentId"":""9d67303c-6542-458f-b451-c6f2611af37b"",""projectId"":""051c06f1-75cc-4548-856d-4923ddaba0dc""}","https://test12345.live/?num_scrambled_semantic=8&num_scrambled_causal=4&num_scrambled_schematic=4&participantId=6972F22F718946CC8DBB689A45FAC7E5&assignmentId=9d67303c-6542-458f-b451-c6f2611af37b&projectId=051c06f1-75cc-4548-856d-4923ddaba0dc","6972F22F718946CC8DBB689A45FAC7E5-2025-05-15-18-52-09","","null","","images/causal_sequence/the_performance_causal/the_performance_causal_1.png","null","",""
"","","","","","image-button-response","58","442379","0.0-12.0-1.0-1.0","6972F22F718946CC8DBB689A45FAC7E5","6972F22F718946CC8DBB689A45FAC7E5","9d67303c-6542-458f-b451-c6f2611af37b","051c06f1-75cc-4548-856d-4923ddaba0dc","{""num_scrambled_semantic"":""8"",""num_scrambled_causal"":""4"",""num_scrambled_schematic"":""4"",""participantId"":""6972F22F718946CC8DBB689A45FAC7E5"",""assignmentId"":""9d67303c-6542-458f-b451-c6f2611af37b"",""projectId"":""051c06f1-75cc-4548-856d-4923ddaba0dc""}","https://test12345.live/?num_scrambled_semantic=8&num_scrambled_causal=4&num_scrambled_schematic=4&participantId=6972F22F718946CC8DBB689A45FAC7E5&assignmentId=9d67303c-6542-458f-b451-c6f2611af37b&projectId=051c06f1-75cc-4548-856d-4923ddaba0dc","6972F22F718946CC8DBB689A45FAC7E5-2025-05-15-18-52-09","","1773","","images/causal_sequence/the_performance_causal/the_performance_causal_1.png","0","",""
"","","","","","image-button-response","59","444182","0.0-12.0-1.0-2.0","6972F22F718946CC8DBB689A45FAC7E5","6972F22F718946CC8DBB689A45FAC7E5","9d67303c-6542-458f-b451-c6f2611af37b","051c06f1-75cc-4548-856d-4923ddaba0dc","{""num_scrambled_semantic"":""8"",""num_scrambled_causal"":""4"",""num_scrambled_schematic"":""4"",""participantId"":""6972F22F718946CC8DBB689A45FAC7E5"",""assignmentId"":""9d67303c-6542-458f-b451-c6f2611af37b"",""projectId"":""051c06f1-75cc-4548-856d-4923ddaba0dc""}","https://test12345.live/?num_scrambled_semantic=8&num_scrambled_causal=4&num_scrambled_schematic=4&participantId=6972F22F718946CC8DBB689A45FAC7E5&assignmentId=9d67303c-6542-458f-b451-c6f2611af37b&projectId=051c06f1-75cc-4548-856d-4923ddaba0dc","6972F22F718946CC8DBB689A45FAC7E5-2025-05-15-18-52-09","","null","","[]","null","",""
"","","","","","image-button-response","60","448692","0.0-12.0-1.0-0.1","6972F22F718946CC8DBB689A45FAC7E5","6972F22F718946CC8DBB689A45FAC7E5","9d67303c-6542-458f-b451-c6f2611af37b","051c06f1-75cc-4548-856d-4923ddaba0dc","{""num_scrambled_semantic"":""8"",""num_scrambled_causal"":""4"",""num_scrambled_schematic"":""4"",""participantId"":""6972F22F718946CC8DBB689A45FAC7E5"",""assignmentId"":""9d67303c-6542-458f-b451-c6f2611af37b"",""projectId"":""051c06f1-75cc-4548-856d-4923ddaba0dc""}","https://test12345.live/?num_scrambled_semantic=8&num_scrambled_causal=4&num_scrambled_schematic=4&participantId=6972F22F718946CC8DBB689A45FAC7E5&assignmentId=9d67303c-6542-458f-b451-c6f2611af37b&projectId=051c06f1-75cc-4548-856d-4923ddaba0dc","6972F22F718946CC8DBB689A45FAC7E5-2025-05-15-18-52-09","","null","","images/causal_sequence/the_performance_causal/the_performance_causal_5.png","null","",""
"","","","","","image-button-response","61","449572","0.0-12.0-1.0-1.1","6972F22F718946CC8DBB689A45FAC7E5","6972F22F718946CC8DBB689A45FAC7E5","9d67303c-6542-458f-b451-c6f2611af37b","051c06f1-75cc-4548-856d-4923ddaba0dc","{""num_scrambled_semantic"":""8"",""num_scrambled_causal"":""4"",""num_scrambled_schematic"":""4"",""participantId"":""6972F22F718946CC8DBB689A45FAC7E5"",""assignmentId"":""9d67303c-6542-458f-b451-c6f2611af37b"",""projectId"":""051c06f1-75cc-4548-856d-4923ddaba0dc""}","https://test12345.live/?num_scrambled_semantic=8&num_scrambled_causal=4&num_scrambled_schematic=4&participantId=6972F22F718946CC8DBB689A45FAC7E5&assignmentId=9d67303c-6542-458f-b451-c6f2611af37b&projectId=051c06f1-75cc-4548-856d-4923ddaba0dc","6972F22F718946CC8DBB689A45FAC7E5-2025-05-15-18-52-09","","878","","images/causal_sequence/the_performance_causal/the_performance_causal_5.png","0","",""
"","","","","","image-button-response","62","451382","0.0-12.0-1.0-2.1","6972F22F718946CC8DBB689A45FAC7E5","6972F22F718946CC8DBB689A45FAC7E5","9d67303c-6542-458f-b451-c6f2611af37b","051c06f1-75cc-4548-856d-4923ddaba0dc","{""num_scrambled_semantic"":""8"",""num_scrambled_causal"":""4"",""num_scrambled_schematic"":""4"",""participantId"":""6972F22F718946CC8DBB689A45FAC7E5"",""assignmentId"":""9d67303c-6542-458f-b451-c6f2611af37b"",""projectId"":""051c06f1-75cc-4548-856d-4923ddaba0dc""}","https://test12345.live/?num_scrambled_semantic=8&num_scrambled_causal=4&num_scrambled_schematic=4&participantId=6972F22F718946CC8DBB689A45FAC7E5&assignmentId=9d67303c-6542-458f-b451-c6f2611af37b&projectId=051c06f1-75cc-4548-856d-4923ddaba0dc","6972F22F718946CC8DBB689A45FAC7E5-2025-05-15-18-52-09","","null","","[]","null","",""
"","","","","","image-button-response","63","455890","0.0-12.0-1.0-0.2","6972F22F718946CC8DBB689A45FAC7E5","6972F22F718946CC8DBB689A45FAC7E5","9d67303c-6542-458f-b451-c6f2611af37b","051c06f1-75cc-4548-856d-4923ddaba0dc","{""num_scrambled_semantic"":""8"",""num_scrambled_causal"":""4"",""num_scrambled_schematic"":""4"",""participantId"":""6972F22F718946CC8DBB689A45FAC7E5"",""assignmentId"":""9d67303c-6542-458f-b451-c6f2611af37b"",""projectId"":""051c06f1-75cc-4548-856d-4923ddaba0dc""}","https://test12345.live/?num_scrambled_semantic=8&num_scrambled_causal=4&num_scrambled_schematic=4&participantId=6972F22F718946CC8DBB689A45FAC7E5&assignmentId=9d67303c-6542-458f-b451-c6f2611af37b&projectId=051c06f1-75cc-4548-856d-4923ddaba0dc","6972F22F718946CC8DBB689A45FAC7E5-2025-05-15-18-52-09","","null","","images/causal_sequence/the_performance_causal/the_performance_causal_9.png","null","",""
"","","","","","image-button-response","64","456713","0.0-12.0-1.0-1.2","6972F22F718946CC8DBB689A45FAC7E5","6972F22F718946CC8DBB689A45FAC7E5","9d67303c-6542-458f-b451-c6f2611af37b","051c06f1-75cc-4548-856d-4923ddaba0dc","{""num_scrambled_semantic"":""8"",""num_scrambled_causal"":""4"",""num_scrambled_schematic"":""4"",""participantId"":""6972F22F718946CC8DBB689A45FAC7E5"",""assignmentId"":""9d67303c-6542-458f-b451-c6f2611af37b"",""projectId"":""051c06f1-75cc-4548-856d-4923ddaba0dc""}","https://test12345.live/?num_scrambled_semantic=8&num_scrambled_causal=4&num_scrambled_schematic=4&participantId=6972F22F718946CC8DBB689A45FAC7E5&assignmentId=9d67303c-6542-458f-b451-c6f2611af37b&projectId=051c06f1-75cc-4548-856d-4923ddaba0dc","6972F22F718946CC8DBB689A45FAC7E5-2025-05-15-18-52-09","","821","","images/causal_sequence/the_performance_causal/the_performance_causal_9.png","0","",""
"","","","","","image-button-response","65","458529","0.0-12.0-1.0-2.2","6972F22F718946CC8DBB689A45FAC7E5","6972F22F718946CC8DBB689A45FAC7E5","9d67303c-6542-458f-b451-c6f2611af37b","051c06f1-75cc-4548-856d-4923ddaba0dc","{""num_scrambled_semantic"":""8"",""num_scrambled_causal"":""4"",""num_scrambled_schematic"":""4"",""participantId"":""6972F22F718946CC8DBB689A45FAC7E5"",""assignmentId"":""9d67303c-6542-458f-b451-c6f2611af37b"",""projectId"":""051c06f1-75cc-4548-856d-4923ddaba0dc""}","https://test12345.live/?num_scrambled_semantic=8&num_scrambled_causal=4&num_scrambled_schematic=4&participantId=6972F22F718946CC8DBB689A45FAC7E5&assignmentId=9d67303c-6542-458f-b451-c6f2611af37b&projectId=051c06f1-75cc-4548-856d-4923ddaba0dc","6972F22F718946CC8DBB689A45FAC7E5-2025-05-15-18-52-09","","null","","[]","null","",""
"","","","","","image-button-response","66","463040","0.0-12.0-1.0-0.3","6972F22F718946CC8DBB689A45FAC7E5","6972F22F718946CC8DBB689A45FAC7E5","9d67303c-6542-458f-b451-c6f2611af37b","051c06f1-75cc-4548-856d-4923ddaba0dc","{""num_scrambled_semantic"":""8"",""num_scrambled_causal"":""4"",""num_scrambled_schematic"":""4"",""participantId"":""6972F22F718946CC8DBB689A45FAC7E5"",""assignmentId"":""9d67303c-6542-458f-b451-c6f2611af37b"",""projectId"":""051c06f1-75cc-4548-856d-4923ddaba0dc""}","https://test12345.live/?num_scrambled_semantic=8&num_scrambled_causal=4&num_scrambled_schematic=4&participantId=6972F22F718946CC8DBB689A45FAC7E5&assignmentId=9d67303c-6542-458f-b451-c6f2611af37b&projectId=051c06f1-75cc-4548-856d-4923ddaba0dc","6972F22F718946CC8DBB689A45FAC7E5-2025-05-15-18-52-09","","null","","images/causal_sequence/the_performance_causal/the_performance_causal_ten.png","null","",""
"","","","","","image-button-response","67","463667","0.0-12.0-1.0-1.3","6972F22F718946CC8DBB689A45FAC7E5","6972F22F718946CC8DBB689A45FAC7E5","9d67303c-6542-458f-b451-c6f2611af37b","051c06f1-75cc-4548-856d-4923ddaba0dc","{""num_scrambled_semantic"":""8"",""num_scrambled_causal"":""4"",""num_scrambled_schematic"":""4"",""participantId"":""6972F22F718946CC8DBB689A45FAC7E5"",""assignmentId"":""9d67303c-6542-458f-b451-c6f2611af37b"",""projectId"":""051c06f1-75cc-4548-856d-4923ddaba0dc""}","https://test12345.live/?num_scrambled_semantic=8&num_scrambled_causal=4&num_scrambled_schematic=4&participantId=6972F22F718946CC8DBB689A45FAC7E5&assignmentId=9d67303c-6542-458f-b451-c6f2611af37b&projectId=051c06f1-75cc-4548-856d-4923ddaba0dc","6972F22F718946CC8DBB689A45FAC7E5-2025-05-15-18-52-09","","625","","images/causal_sequence/the_performance_causal/the_performance_causal_ten.png","0","",""
"","","","","","image-button-response","68","465472","0.0-12.0-1.0-2.3","6972F22F718946CC8DBB689A45FAC7E5","6972F22F718946CC8DBB689A45FAC7E5","9d67303c-6542-458f-b451-c6f2611af37b","051c06f1-75cc-4548-856d-4923ddaba0dc","{""num_scrambled_semantic"":""8"",""num_scrambled_causal"":""4"",""num_scrambled_schematic"":""4"",""participantId"":""6972F22F718946CC8DBB689A45FAC7E5"",""assignmentId"":""9d67303c-6542-458f-b451-c6f2611af37b"",""projectId"":""051c06f1-75cc-4548-856d-4923ddaba0dc""}","https://test12345.live/?num_scrambled_semantic=8&num_scrambled_causal=4&num_scrambled_schematic=4&participantId=6972F22F718946CC8DBB689A45FAC7E5&assignmentId=9d67303c-6542-458f-b451-c6f2611af37b&projectId=051c06f1-75cc-4548-856d-4923ddaba0dc","6972F22F718946CC8DBB689A45FAC7E5-2025-05-15-18-52-09","","null","","[]","null","",""
"","","","","","image-button-response","69","469975","0.0-12.0-1.0-0.4","6972F22F718946CC8DBB689A45FAC7E5","6972F22F718946CC8DBB689A45FAC7E5","9d67303c-6542-458f-b451-c6f2611af37b","051c06f1-75cc-4548-856d-4923ddaba0dc","{""num_scrambled_semantic"":""8"",""num_scrambled_causal"":""4"",""num_scrambled_schematic"":""4"",""participantId"":""6972F22F718946CC8DBB689A45FAC7E5"",""assignmentId"":""9d67303c-6542-458f-b451-c6f2611af37b"",""projectId"":""051c06f1-75cc-4548-856d-4923ddaba0dc""}","https://test12345.live/?num_scrambled_semantic=8&num_scrambled_causal=4&num_scrambled_schematic=4&participantId=6972F22F718946CC8DBB689A45FAC7E5&assignmentId=9d67303c-6542-458f-b451-c6f2611af37b&projectId=051c06f1-75cc-4548-856d-4923ddaba0dc","6972F22F718946CC8DBB689A45FAC7E5-2025-05-15-18-52-09","","null","","images/causal_sequence/the_performance_causal/the_performance_causal_2.png","null","",""
"","","","","","image-button-response","70","470962","0.0-12.0-1.0-1.4","6972F22F718946CC8DBB689A45FAC7E5","6972F22F718946CC8DBB689A45FAC7E5","9d67303c-6542-458f-b451-c6f2611af37b","051c06f1-75cc-4548-856d-4923ddaba0dc","{""num_scrambled_semantic"":""8"",""num_scrambled_causal"":""4"",""num_scrambled_schematic"":""4"",""participantId"":""6972F22F718946CC8DBB689A45FAC7E5"",""assignmentId"":""9d67303c-6542-458f-b451-c6f2611af37b"",""projectId"":""051c06f1-75cc-4548-856d-4923ddaba0dc""}","https://test12345.live/?num_scrambled_semantic=8&num_scrambled_causal=4&num_scrambled_schematic=4&participantId=6972F22F718946CC8DBB689A45FAC7E5&assignmentId=9d67303c-6542-458f-b451-c6f2611af37b&projectId=051c06f1-75cc-4548-856d-4923ddaba0dc","6972F22F718946CC8DBB689A45FAC7E5-2025-05-15-18-52-09","","986","","images/causal_sequence/the_performance_causal/the_performance_causal_2.png","0","",""
"","","","","","image-button-response","71","472766","0.0-12.0-1.0-2.4","6972F22F718946CC8DBB689A45FAC7E5","6972F22F718946CC8DBB689A45FAC7E5","9d67303c-6542-458f-b451-c6f2611af37b","051c06f1-75cc-4548-856d-4923ddaba0dc","{""num_scrambled_semantic"":""8"",""num_scrambled_causal"":""4"",""num_scrambled_schematic"":""4"",""participantId"":""6972F22F718946CC8DBB689A45FAC7E5"",""assignmentId"":""9d67303c-6542-458f-b451-c6f2611af37b"",""projectId"":""051c06f1-75cc-4548-856d-4923ddaba0dc""}","https://test12345.live/?num_scrambled_semantic=8&num_scrambled_causal=4&num_scrambled_schematic=4&participantId=6972F22F718946CC8DBB689A45FAC7E5&assignmentId=9d67303c-6542-458f-b451-c6f2611af37b&projectId=051c06f1-75cc-4548-856d-4923ddaba0dc","6972F22F718946CC8DBB689A45FAC7E5-2025-05-15-18-52-09","","null","","[]","null","",""
"","","","","","image-button-response","72","477270","0.0-12.0-1.0-0.5","6972F22F718946CC8DBB689A45FAC7E5","6972F22F718946CC8DBB689A45FAC7E5","9d67303c-6542-458f-b451-c6f2611af37b","051c06f1-75cc-4548-856d-4923ddaba0dc","{""num_scrambled_semantic"":""8"",""num_scrambled_causal"":""4"",""num_scrambled_schematic"":""4"",""participantId"":""6972F22F718946CC8DBB689A45FAC7E5"",""assignmentId"":""9d67303c-6542-458f-b451-c6f2611af37b"",""projectId"":""051c06f1-75cc-4548-856d-4923ddaba0dc""}","https://test12345.live/?num_scrambled_semantic=8&num_scrambled_causal=4&num_scrambled_schematic=4&participantId=6972F22F718946CC8DBB689A45FAC7E5&assignmentId=9d67303c-6542-458f-b451-c6f2611af37b&projectId=051c06f1-75cc-4548-856d-4923ddaba0dc","6972F22F718946CC8DBB689A45FAC7E5-2025-05-15-18-52-09","","null","","images/causal_sequence/the_performance_causal/the_performance_causal_6.png","null","",""
"","","","","","image-button-response","73","478692","0.0-12.0-1.0-1.5","6972F22F718946CC8DBB689A45FAC7E5","6972F22F718946CC8DBB689A45FAC7E5","9d67303c-6542-458f-b451-c6f2611af37b","051c06f1-75cc-4548-856d-4923ddaba0dc","{""num_scrambled_semantic"":""8"",""num_scrambled_causal"":""4"",""num_scrambled_schematic"":""4"",""participantId"":""6972F22F718946CC8DBB689A45FAC7E5"",""assignmentId"":""9d67303c-6542-458f-b451-c6f2611af37b"",""projectId"":""051c06f1-75cc-4548-856d-4923ddaba0dc""}","https://test12345.live/?num_scrambled_semantic=8&num_scrambled_causal=4&num_scrambled_schematic=4&participantId=6972F22F718946CC8DBB689A45FAC7E5&assignmentId=9d67303c-6542-458f-b451-c6f2611af37b&projectId=051c06f1-75cc-4548-856d-4923ddaba0dc","6972F22F718946CC8DBB689A45FAC7E5-2025-05-15-18-52-09","","1420","","images/causal_sequence/the_performance_causal/the_performance_causal_6.png","0","",""
"","","","","","image-button-response","74","480502","0.0-12.0-1.0-2.5","6972F22F718946CC8DBB689A45FAC7E5","6972F22F718946CC8DBB689A45FAC7E5","9d67303c-6542-458f-b451-c6f2611af37b","051c06f1-75cc-4548-856d-4923ddaba0dc","{""num_scrambled_semantic"":""8"",""num_scrambled_causal"":""4"",""num_scrambled_schematic"":""4"",""participantId"":""6972F22F718946CC8DBB689A45FAC7E5"",""assignmentId"":""9d67303c-6542-458f-b451-c6f2611af37b"",""projectId"":""051c06f1-75cc-4548-856d-4923ddaba0dc""}","https://test12345.live/?num_scrambled_semantic=8&num_scrambled_causal=4&num_scrambled_schematic=4&participantId=6972F22F718946CC8DBB689A45FAC7E5&assignmentId=9d67303c-6542-458f-b451-c6f2611af37b&projectId=051c06f1-75cc-4548-856d-4923ddaba0dc","6972F22F718946CC8DBB689A45FAC7E5-2025-05-15-18-52-09","","null","","[]","null","",""
"","","","","","image-button-response","75","485014","0.0-12.0-1.0-0.6","6972F22F718946CC8DBB689A45FAC7E5","6972F22F718946CC8DBB689A45FAC7E5","9d67303c-6542-458f-b451-c6f2611af37b","051c06f1-75cc-4548-856d-4923ddaba0dc","{""num_scrambled_semantic"":""8"",""num_scrambled_causal"":""4"",""num_scrambled_schematic"":""4"",""participantId"":""6972F22F718946CC8DBB689A45FAC7E5"",""assignmentId"":""9d67303c-6542-458f-b451-c6f2611af37b"",""projectId"":""051c06f1-75cc-4548-856d-4923ddaba0dc""}","https://test12345.live/?num_scrambled_semantic=8&num_scrambled_causal=4&num_scrambled_schematic=4&participantId=6972F22F718946CC8DBB689A45FAC7E5&assignmentId=9d67303c-6542-458f-b451-c6f2611af37b&projectId=051c06f1-75cc-4548-856d-4923ddaba0dc","6972F22F718946CC8DBB689A45FAC7E5-2025-05-15-18-52-09","","null","","images/causal_sequence/the_performance_causal/the_performance_causal_7.png","null","",""
"","","","","","image-button-response","76","486037","0.0-12.0-1.0-1.6","6972F22F718946CC8DBB689A45FAC7E5","6972F22F718946CC8DBB689A45FAC7E5","9d67303c-6542-458f-b451-c6f2611af37b","051c06f1-75cc-4548-856d-4923ddaba0dc","{""num_scrambled_semantic"":""8"",""num_scrambled_causal"":""4"",""num_scrambled_schematic"":""4"",""participantId"":""6972F22F718946CC8DBB689A45FAC7E5"",""assignmentId"":""9d67303c-6542-458f-b451-c6f2611af37b"",""projectId"":""051c06f1-75cc-4548-856d-4923ddaba0dc""}","https://test12345.live/?num_scrambled_semantic=8&num_scrambled_causal=4&num_scrambled_schematic=4&participantId=6972F22F718946CC8DBB689A45FAC7E5&assignmentId=9d67303c-6542-458f-b451-c6f2611af37b&projectId=051c06f1-75cc-4548-856d-4923ddaba0dc","6972F22F718946CC8DBB689A45FAC7E5-2025-05-15-18-52-09","","1021","","images/causal_sequence/the_performance_causal/the_performance_causal_7.png","0","",""
"","","","","","image-button-response","77","487847","0.0-12.0-1.0-2.6","6972F22F718946CC8DBB689A45FAC7E5","6972F22F718946CC8DBB689A45FAC7E5","9d67303c-6542-458f-b451-c6f2611af37b","051c06f1-75cc-4548-856d-4923ddaba0dc","{""num_scrambled_semantic"":""8"",""num_scrambled_causal"":""4"",""num_scrambled_schematic"":""4"",""participantId"":""6972F22F718946CC8DBB689A45FAC7E5"",""assignmentId"":""9d67303c-6542-458f-b451-c6f2611af37b"",""projectId"":""051c06f1-75cc-4548-856d-4923ddaba0dc""}","https://test12345.live/?num_scrambled_semantic=8&num_scrambled_causal=4&num_scrambled_schematic=4&participantId=6972F22F718946CC8DBB689A45FAC7E5&assignmentId=9d67303c-6542-458f-b451-c6f2611af37b&projectId=051c06f1-75cc-4548-856d-4923ddaba0dc","6972F22F718946CC8DBB689A45FAC7E5-2025-05-15-18-52-09","","null","","[]","null","",""
"","","","","","image-button-response","78","492362","0.0-12.0-1.0-0.7","6972F22F718946CC8DBB689A45FAC7E5","6972F22F718946CC8DBB689A45FAC7E5","9d67303c-6542-458f-b451-c6f2611af37b","051c06f1-75cc-4548-856d-4923ddaba0dc","{""num_scrambled_semantic"":""8"",""num_scrambled_causal"":""4"",""num_scrambled_schematic"":""4"",""participantId"":""6972F22F718946CC8DBB689A45FAC7E5"",""assignmentId"":""9d67303c-6542-458f-b451-c6f2611af37b"",""projectId"":""051c06f1-75cc-4548-856d-4923ddaba0dc""}","https://test12345.live/?num_scrambled_semantic=8&num_scrambled_causal=4&num_scrambled_schematic=4&participantId=6972F22F718946CC8DBB689A45FAC7E5&assignmentId=9d67303c-6542-458f-b451-c6f2611af37b&projectId=051c06f1-75cc-4548-856d-4923ddaba0dc","6972F22F718946CC8DBB689A45FAC7E5-2025-05-15-18-52-09","","null","","images/causal_sequence/the_performance_causal/the_performance_causal_3.png","null","",""
"","","","","","image-button-response","79","493186","0.0-12.0-1.0-1.7","6972F22F718946CC8DBB689A45FAC7E5","6972F22F718946CC8DBB689A45FAC7E5","9d67303c-6542-458f-b451-c6f2611af37b","051c06f1-75cc-4548-856d-4923ddaba0dc","{""num_scrambled_semantic"":""8"",""num_scrambled_causal"":""4"",""num_scrambled_schematic"":""4"",""participantId"":""6972F22F718946CC8DBB689A45FAC7E5"",""assignmentId"":""9d67303c-6542-458f-b451-c6f2611af37b"",""projectId"":""051c06f1-75cc-4548-856d-4923ddaba0dc""}","https://test12345.live/?num_scrambled_semantic=8&num_scrambled_causal=4&num_scrambled_schematic=4&participantId=6972F22F718946CC8DBB689A45FAC7E5&assignmentId=9d67303c-6542-458f-b451-c6f2611af37b&projectId=051c06f1-75cc-4548-856d-4923ddaba0dc","6972F22F718946CC8DBB689A45FAC7E5-2025-05-15-18-52-09","","822","","images/causal_sequence/the_performance_causal/the_performance_causal_3.png","0","",""
"","","","","","image-button-response","80","495002","0.0-12.0-1.0-2.7","6972F22F718946CC8DBB689A45FAC7E5","6972F22F718946CC8DBB689A45FAC7E5","9d67303c-6542-458f-b451-c6f2611af37b","051c06f1-75cc-4548-856d-4923ddaba0dc","{""num_scrambled_semantic"":""8"",""num_scrambled_causal"":""4"",""num_scrambled_schematic"":""4"",""participantId"":""6972F22F718946CC8DBB689A45FAC7E5"",""assignmentId"":""9d67303c-6542-458f-b451-c6f2611af37b"",""projectId"":""051c06f1-75cc-4548-856d-4923ddaba0dc""}","https://test12345.live/?num_scrambled_semantic=8&num_scrambled_causal=4&num_scrambled_schematic=4&participantId=6972F22F718946CC8DBB689A45FAC7E5&assignmentId=9d67303c-6542-458f-b451-c6f2611af37b&projectId=051c06f1-75cc-4548-856d-4923ddaba0dc","6972F22F718946CC8DBB689A45FAC7E5-2025-05-15-18-52-09","","null","","[]","null","",""
"","","","","","image-button-response","81","499514","0.0-12.0-1.0-0.8","6972F22F718946CC8DBB689A45FAC7E5","6972F22F718946CC8DBB689A45FAC7E5","9d67303c-6542-458f-b451-c6f2611af37b","051c06f1-75cc-4548-856d-4923ddaba0dc","{""num_scrambled_semantic"":""8"",""num_scrambled_causal"":""4"",""num_scrambled_schematic"":""4"",""participantId"":""6972F22F718946CC8DBB689A45FAC7E5"",""assignmentId"":""9d67303c-6542-458f-b451-c6f2611af37b"",""projectId"":""051c06f1-75cc-4548-856d-4923ddaba0dc""}","https://test12345.live/?num_scrambled_semantic=8&num_scrambled_causal=4&num_scrambled_schematic=4&participantId=6972F22F718946CC8DBB689A45FAC7E5&assignmentId=9d67303c-6542-458f-b451-c6f2611af37b&projectId=051c06f1-75cc-4548-856d-4923ddaba0dc","6972F22F718946CC8DBB689A45FAC7E5-2025-05-15-18-52-09","","null","","images/causal_sequence/the_performance_causal/the_performance_causal_4.png","null","",""
"","","","","","image-button-response","82","500708","0.0-12.0-1.0-1.8","6972F22F718946CC8DBB689A45FAC7E5","6972F22F718946CC8DBB689A45FAC7E5","9d67303c-6542-458f-b451-c6f2611af37b","051c06f1-75cc-4548-856d-4923ddaba0dc","{""num_scrambled_semantic"":""8"",""num_scrambled_causal"":""4"",""num_scrambled_schematic"":""4"",""participantId"":""6972F22F718946CC8DBB689A45FAC7E5"",""assignmentId"":""9d67303c-6542-458f-b451-c6f2611af37b"",""projectId"":""051c06f1-75cc-4548-856d-4923ddaba0dc""}","https://test12345.live/?num_scrambled_semantic=8&num_scrambled_causal=4&num_scrambled_schematic=4&participantId=6972F22F718946CC8DBB689A45FAC7E5&assignmentId=9d67303c-6542-458f-b451-c6f2611af37b&projectId=051c06f1-75cc-4548-856d-4923ddaba0dc","6972F22F718946CC8DBB689A45FAC7E5-2025-05-15-18-52-09","","1191","","images/causal_sequence/the_performance_causal/the_performance_causal_4.png","0","",""
"","","","","","image-button-response","83","502514","0.0-12.0-1.0-2.8","6972F22F718946CC8DBB689A45FAC7E5","6972F22F718946CC8DBB689A45FAC7E5","9d67303c-6542-458f-b451-c6f2611af37b","051c06f1-75cc-4548-856d-4923ddaba0dc","{""num_scrambled_semantic"":""8"",""num_scrambled_causal"":""4"",""num_scrambled_schematic"":""4"",""participantId"":""6972F22F718946CC8DBB689A45FAC7E5"",""assignmentId"":""9d67303c-6542-458f-b451-c6f2611af37b"",""projectId"":""051c06f1-75cc-4548-856d-4923ddaba0dc""}","https://test12345.live/?num_scrambled_semantic=8&num_scrambled_causal=4&num_scrambled_schematic=4&participantId=6972F22F718946CC8DBB689A45FAC7E5&assignmentId=9d67303c-6542-458f-b451-c6f2611af37b&projectId=051c06f1-75cc-4548-856d-4923ddaba0dc","6972F22F718946CC8DBB689A45FAC7E5-2025-05-15-18-52-09","","null","","[]","null","",""
"","","","","","image-button-response","84","507020","0.0-12.0-1.0-0.9","6972F22F718946CC8DBB689A45FAC7E5","6972F22F718946CC8DBB689A45FAC7E5","9d67303c-6542-458f-b451-c6f2611af37b","051c06f1-75cc-4548-856d-4923ddaba0dc","{""num_scrambled_semantic"":""8"",""num_scrambled_causal"":""4"",""num_scrambled_schematic"":""4"",""participantId"":""6972F22F718946CC8DBB689A45FAC7E5"",""assignmentId"":""9d67303c-6542-458f-b451-c6f2611af37b"",""projectId"":""051c06f1-75cc-4548-856d-4923ddaba0dc""}","https://test12345.live/?num_scrambled_semantic=8&num_scrambled_causal=4&num_scrambled_schematic=4&participantId=6972F22F718946CC8DBB689A45FAC7E5&assignmentId=9d67303c-6542-458f-b451-c6f2611af37b&projectId=051c06f1-75cc-4548-856d-4923ddaba0dc","6972F22F718946CC8DBB689A45FAC7E5-2025-05-15-18-52-09","","null","","images/causal_sequence/the_performance_causal/the_performance_causal_8.png","null","",""
"","","","","","image-button-response","85","507764","0.0-12.0-1.0-1.9","6972F22F718946CC8DBB689A45FAC7E5","6972F22F718946CC8DBB689A45FAC7E5","9d67303c-6542-458f-b451-c6f2611af37b","051c06f1-75cc-4548-856d-4923ddaba0dc","{""num_scrambled_semantic"":""8"",""num_scrambled_causal"":""4"",""num_scrambled_schematic"":""4"",""participantId"":""6972F22F718946CC8DBB689A45FAC7E5"",""assignmentId"":""9d67303c-6542-458f-b451-c6f2611af37b"",""projectId"":""051c06f1-75cc-4548-856d-4923ddaba0dc""}","https://test12345.live/?num_scrambled_semantic=8&num_scrambled_causal=4&num_scrambled_schematic=4&participantId=6972F22F718946CC8DBB689A45FAC7E5&assignmentId=9d67303c-6542-458f-b451-c6f2611af37b&projectId=051c06f1-75cc-4548-856d-4923ddaba0dc","6972F22F718946CC8DBB689A45FAC7E5-2025-05-15-18-52-09","","743","","images/causal_sequence/the_performance_causal/the_performance_causal_8.png","0","",""
"","","","","","image-button-response","86","509576","0.0-12.0-1.0-2.9","6972F22F718946CC8DBB689A45FAC7E5","6972F22F718946CC8DBB689A45FAC7E5","9d67303c-6542-458f-b451-c6f2611af37b","051c06f1-75cc-4548-856d-4923ddaba0dc","{""num_scrambled_semantic"":""8"",""num_scrambled_causal"":""4"",""num_scrambled_schematic"":""4"",""participantId"":""6972F22F718946CC8DBB689A45FAC7E5"",""assignmentId"":""9d67303c-6542-458f-b451-c6f2611af37b"",""projectId"":""051c06f1-75cc-4548-856d-4923ddaba0dc""}","https://test12345.live/?num_scrambled_semantic=8&num_scrambled_causal=4&num_scrambled_schematic=4&participantId=6972F22F718946CC8DBB689A45FAC7E5&assignmentId=9d67303c-6542-458f-b451-c6f2611af37b&projectId=051c06f1-75cc-4548-856d-4923ddaba0dc","6972F22F718946CC8DBB689A45FAC7E5-2025-05-15-18-52-09","","null","","[]","null","",""
"","","","","","html-audio-response","87","539835","0.0-13.0","6972F22F718946CC8DBB689A45FAC7E5","6972F22F718946CC8DBB689A45FAC7E5","9d67303c-6542-458f-b451-c6f2611af37b","051c06f1-75cc-4548-856d-4923ddaba0dc","{""num_scrambled_semantic"":""8"",""num_scrambled_causal"":""4"",""num_scrambled_schematic"":""4"",""participantId"":""6972F22F718946CC8DBB689A45FAC7E5"",""assignmentId"":""9d67303c-6542-458f-b451-c6f2611af37b"",""projectId"":""051c06f1-75cc-4548-856d-4923ddaba0dc""}","https://test12345.live/?num_scrambled_semantic=8&num_scrambled_causal=4&num_scrambled_schematic=4&participantId=6972F22F718946CC8DBB689A45FAC7E5&assignmentId=9d67303c-6542-458f-b451-c6f2611af37b&projectId=051c06f1-75cc-4548-856d-4923ddaba0dc","6972F22F718946CC8DBB689A45FAC7E5-2025-05-15-18-52-09","","24398","","[""<span style=\""color: red; font-size: 24px\""> NOW RECORDING</span><p>Please say out loud all the images you saw, as many as you can remember. The images can be said in any order.</p>""]","","2","the_performance_causal"
"","","","","","image-button-response","88","545853","0.0-14.0-0.0","6972F22F718946CC8DBB689A45FAC7E5","6972F22F718946CC8DBB689A45FAC7E5","9d67303c-6542-458f-b451-c6f2611af37b","051c06f1-75cc-4548-856d-4923ddaba0dc","{""num_scrambled_semantic"":""8"",""num_scrambled_causal"":""4"",""num_scrambled_schematic"":""4"",""participantId"":""6972F22F718946CC8DBB689A45FAC7E5"",""assignmentId"":""9d67303c-6542-458f-b451-c6f2611af37b"",""projectId"":""051c06f1-75cc-4548-856d-4923ddaba0dc""}","https://test12345.live/?num_scrambled_semantic=8&num_scrambled_causal=4&num_scrambled_schematic=4&participantId=6972F22F718946CC8DBB689A45FAC7E5&assignmentId=9d67303c-6542-458f-b451-c6f2611af37b&projectId=051c06f1-75cc-4548-856d-4923ddaba0dc","6972F22F718946CC8DBB689A45FAC7E5-2025-05-15-18-52-09","","null","","images/semantic_sequence/self_care_activities_semantic/self_care_activities_semantic_0.png","null","",""
"","","","","","image-button-response","89","550365","0.0-14.0-1.0-0.0","6972F22F718946CC8DBB689A45FAC7E5","6972F22F718946CC8DBB689A45FAC7E5","9d67303c-6542-458f-b451-c6f2611af37b","051c06f1-75cc-4548-856d-4923ddaba0dc","{""num_scrambled_semantic"":""8"",""num_scrambled_causal"":""4"",""num_scrambled_schematic"":""4"",""participantId"":""6972F22F718946CC8DBB689A45FAC7E5"",""assignmentId"":""9d67303c-6542-458f-b451-c6f2611af37b"",""projectId"":""051c06f1-75cc-4548-856d-4923ddaba0dc""}","https://test12345.live/?num_scrambled_semantic=8&num_scrambled_causal=4&num_scrambled_schematic=4&participantId=6972F22F718946CC8DBB689A45FAC7E5&assignmentId=9d67303c-6542-458f-b451-c6f2611af37b&projectId=051c06f1-75cc-4548-856d-4923ddaba0dc","6972F22F718946CC8DBB689A45FAC7E5-2025-05-15-18-52-09","","null","","images/semantic_sequence/self_care_activities_semantic/self_care_activities_semantic_1.png","null","",""
"","","","","","image-button-response","90","551980","0.0-14.0-1.0-1.0","6972F22F718946CC8DBB689A45FAC7E5","6972F22F718946CC8DBB689A45FAC7E5","9d67303c-6542-458f-b451-c6f2611af37b","051c06f1-75cc-4548-856d-4923ddaba0dc","{""num_scrambled_semantic"":""8"",""num_scrambled_causal"":""4"",""num_scrambled_schematic"":""4"",""participantId"":""6972F22F718946CC8DBB689A45FAC7E5"",""assignmentId"":""9d67303c-6542-458f-b451-c6f2611af37b"",""projectId"":""051c06f1-75cc-4548-856d-4923ddaba0dc""}","https://test12345.live/?num_scrambled_semantic=8&num_scrambled_causal=4&num_scrambled_schematic=4&participantId=6972F22F718946CC8DBB689A45FAC7E5&assignmentId=9d67303c-6542-458f-b451-c6f2611af37b&projectId=051c06f1-75cc-4548-856d-4923ddaba0dc","6972F22F718946CC8DBB689A45FAC7E5-2025-05-15-18-52-09","","1613","","images/semantic_sequence/self_care_activities_semantic/self_care_activities_semantic_1.png","0","",""
"","","","","","image-button-response","91","553796","0.0-14.0-1.0-2.0","6972F22F718946CC8DBB689A45FAC7E5","6972F22F718946CC8DBB689A45FAC7E5","9d67303c-6542-458f-b451-c6f2611af37b","051c06f1-75cc-4548-856d-4923ddaba0dc","{""num_scrambled_semantic"":""8"",""num_scrambled_causal"":""4"",""num_scrambled_schematic"":""4"",""participantId"":""6972F22F718946CC8DBB689A45FAC7E5"",""assignmentId"":""9d67303c-6542-458f-b451-c6f2611af37b"",""projectId"":""051c06f1-75cc-4548-856d-4923ddaba0dc""}","https://test12345.live/?num_scrambled_semantic=8&num_scrambled_causal=4&num_scrambled_schematic=4&participantId=6972F22F718946CC8DBB689A45FAC7E5&assignmentId=9d67303c-6542-458f-b451-c6f2611af37b&projectId=051c06f1-75cc-4548-856d-4923ddaba0dc","6972F22F718946CC8DBB689A45FAC7E5-2025-05-15-18-52-09","","null","","[]","null","",""
"","","","","","image-button-response","92","558306","0.0-14.0-1.0-0.1","6972F22F718946CC8DBB689A45FAC7E5","6972F22F718946CC8DBB689A45FAC7E5","9d67303c-6542-458f-b451-c6f2611af37b","051c06f1-75cc-4548-856d-4923ddaba0dc","{""num_scrambled_semantic"":""8"",""num_scrambled_causal"":""4"",""num_scrambled_schematic"":""4"",""participantId"":""6972F22F718946CC8DBB689A45FAC7E5"",""assignmentId"":""9d67303c-6542-458f-b451-c6f2611af37b"",""projectId"":""051c06f1-75cc-4548-856d-4923ddaba0dc""}","https://test12345.live/?num_scrambled_semantic=8&num_scrambled_causal=4&num_scrambled_schematic=4&participantId=6972F22F718946CC8DBB689A45FAC7E5&assignmentId=9d67303c-6542-458f-b451-c6f2611af37b&projectId=051c06f1-75cc-4548-856d-4923ddaba0dc","6972F22F718946CC8DBB689A45FAC7E5-2025-05-15-18-52-09","","null","","images/semantic_sequence/self_care_activities_semantic/self_care_activities_semantic_2.png","null","",""
"","","","","","image-button-response","93","558757","0.0-14.0-1.0-1.1","6972F22F718946CC8DBB689A45FAC7E5","6972F22F718946CC8DBB689A45FAC7E5","9d67303c-6542-458f-b451-c6f2611af37b","051c06f1-75cc-4548-856d-4923ddaba0dc","{""num_scrambled_semantic"":""8"",""num_scrambled_causal"":""4"",""num_scrambled_schematic"":""4"",""participantId"":""6972F22F718946CC8DBB689A45FAC7E5"",""assignmentId"":""9d67303c-6542-458f-b451-c6f2611af37b"",""projectId"":""051c06f1-75cc-4548-856d-4923ddaba0dc""}","https://test12345.live/?num_scrambled_semantic=8&num_scrambled_causal=4&num_scrambled_schematic=4&participantId=6972F22F718946CC8DBB689A45FAC7E5&assignmentId=9d67303c-6542-458f-b451-c6f2611af37b&projectId=051c06f1-75cc-4548-856d-4923ddaba0dc","6972F22F718946CC8DBB689A45FAC7E5-2025-05-15-18-52-09","","449","","images/semantic_sequence/self_care_activities_semantic/self_care_activities_semantic_2.png","0","",""
"","","","","","image-button-response","94","560567","0.0-14.0-1.0-2.1","6972F22F718946CC8DBB689A45FAC7E5","6972F22F718946CC8DBB689A45FAC7E5","9d67303c-6542-458f-b451-c6f2611af37b","051c06f1-75cc-4548-856d-4923ddaba0dc","{""num_scrambled_semantic"":""8"",""num_scrambled_causal"":""4"",""num_scrambled_schematic"":""4"",""participantId"":""6972F22F718946CC8DBB689A45FAC7E5"",""assignmentId"":""9d67303c-6542-458f-b451-c6f2611af37b"",""projectId"":""051c06f1-75cc-4548-856d-4923ddaba0dc""}","https://test12345.live/?num_scrambled_semantic=8&num_scrambled_causal=4&num_scrambled_schematic=4&participantId=6972F22F718946CC8DBB689A45FAC7E5&assignmentId=9d67303c-6542-458f-b451-c6f2611af37b&projectId=051c06f1-75cc-4548-856d-4923ddaba0dc","6972F22F718946CC8DBB689A45FAC7E5-2025-05-15-18-52-09","","null","","[]","null","",""
"","","","","","image-button-response","95","565085","0.0-14.0-1.0-0.2","6972F22F718946CC8DBB689A45FAC7E5","6972F22F718946CC8DBB689A45FAC7E5","9d67303c-6542-458f-b451-c6f2611af37b","051c06f1-75cc-4548-856d-4923ddaba0dc","{""num_scrambled_semantic"":""8"",""num_scrambled_causal"":""4"",""num_scrambled_schematic"":""4"",""participantId"":""6972F22F718946CC8DBB689A45FAC7E5"",""assignmentId"":""9d67303c-6542-458f-b451-c6f2611af37b"",""projectId"":""051c06f1-75cc-4548-856d-4923ddaba0dc""}","https://test12345.live/?num_scrambled_semantic=8&num_scrambled_causal=4&num_scrambled_schematic=4&participantId=6972F22F718946CC8DBB689A45FAC7E5&assignmentId=9d67303c-6542-458f-b451-c6f2611af37b&projectId=051c06f1-75cc-4548-856d-4923ddaba0dc","6972F22F718946CC8DBB689A45FAC7E5-2025-05-15-18-52-09","","null","","images/semantic_sequence/self_care_activities_semantic/self_care_activities_semantic_3.png","null","",""
"","","","","","image-button-response","96","566756","0.0-14.0-1.0-1.2","6972F22F718946CC8DBB689A45FAC7E5","6972F22F718946CC8DBB689A45FAC7E5","9d67303c-6542-458f-b451-c6f2611af37b","051c06f1-75cc-4548-856d-4923ddaba0dc","{""num_scrambled_semantic"":""8"",""num_scrambled_causal"":""4"",""num_scrambled_schematic"":""4"",""participantId"":""6972F22F718946CC8DBB689A45FAC7E5"",""assignmentId"":""9d67303c-6542-458f-b451-c6f2611af37b"",""projectId"":""051c06f1-75cc-4548-856d-4923ddaba0dc""}","https://test12345.live/?num_scrambled_semantic=8&num_scrambled_causal=4&num_scrambled_schematic=4&participantId=6972F22F718946CC8DBB689A45FAC7E5&assignmentId=9d67303c-6542-458f-b451-c6f2611af37b&projectId=051c06f1-75cc-4548-856d-4923ddaba0dc","6972F22F718946CC8DBB689A45FAC7E5-2025-05-15-18-52-09","","1670","","images/semantic_sequence/self_care_activities_semantic/self_care_activities_semantic_3.png","0","",""
"","","","","","image-button-response","97","568573","0.0-14.0-1.0-2.2","6972F22F718946CC8DBB689A45FAC7E5","6972F22F718946CC8DBB689A45FAC7E5","9d67303c-6542-458f-b451-c6f2611af37b","051c06f1-75cc-4548-856d-4923ddaba0dc","{""num_scrambled_semantic"":""8"",""num_scrambled_causal"":""4"",""num_scrambled_schematic"":""4"",""participantId"":""6972F22F718946CC8DBB689A45FAC7E5"",""assignmentId"":""9d67303c-6542-458f-b451-c6f2611af37b"",""projectId"":""051c06f1-75cc-4548-856d-4923ddaba0dc""}","https://test12345.live/?num_scrambled_semantic=8&num_scrambled_causal=4&num_scrambled_schematic=4&participantId=6972F22F718946CC8DBB689A45FAC7E5&assignmentId=9d67303c-6542-458f-b451-c6f2611af37b&projectId=051c06f1-75cc-4548-856d-4923ddaba0dc","6972F22F718946CC8DBB689A45FAC7E5-2025-05-15-18-52-09","","null","","[]","null","",""
"","","","","","image-button-response","98","573081","0.0-14.0-1.0-0.3","6972F22F718946CC8DBB689A45FAC7E5","6972F22F718946CC8DBB689A45FAC7E5","9d67303c-6542-458f-b451-c6f2611af37b","051c06f1-75cc-4548-856d-4923ddaba0dc","{""num_scrambled_semantic"":""8"",""num_scrambled_causal"":""4"",""num_scrambled_schematic"":""4"",""participantId"":""6972F22F718946CC8DBB689A45FAC7E5"",""assignmentId"":""9d67303c-6542-458f-b451-c6f2611af37b"",""projectId"":""051c06f1-75cc-4548-856d-4923ddaba0dc""}","https://test12345.live/?num_scrambled_semantic=8&num_scrambled_causal=4&num_scrambled_schematic=4&participantId=6972F22F718946CC8DBB689A45FAC7E5&assignmentId=9d67303c-6542-458f-b451-c6f2611af37b&projectId=051c06f1-75cc-4548-856d-4923ddaba0dc","6972F22F718946CC8DBB689A45FAC7E5-2025-05-15-18-52-09","","null","","images/semantic_sequence/self_care_activities_semantic/self_care_activities_semantic_4.png","null","",""
"","","","","","image-button-response","99","574269","0.0-14.0-1.0-1.3","6972F22F718946CC8DBB689A45FAC7E5","6972F22F718946CC8DBB689A45FAC7E5","9d67303c-6542-458f-b451-c6f2611af37b","051c06f1-75cc-4548-856d-4923ddaba0dc","{""num_scrambled_semantic"":""8"",""num_scrambled_causal"":""4"",""num_scrambled_schematic"":""4"",""participantId"":""6972F22F718946CC8DBB689A45FAC7E5"",""assignmentId"":""9d67303c-6542-458f-b451-c6f2611af37b"",""projectId"":""051c06f1-75cc-4548-856d-4923ddaba0dc""}","https://test12345.live/?num_scrambled_semantic=8&num_scrambled_causal=4&num_scrambled_schematic=4&participantId=6972F22F718946CC8DBB689A45FAC7E5&assignmentId=9d67303c-6542-458f-b451-c6f2611af37b&projectId=051c06f1-75cc-4548-856d-4923ddaba0dc","6972F22F718946CC8DBB689A45FAC7E5-2025-05-15-18-52-09","","1186","","images/semantic_sequence/self_care_activities_semantic/self_care_activities_semantic_4.png","0","",""
"","","","","","image-button-response","100","576085","0.0-14.0-1.0-2.3","6972F22F718946CC8DBB689A45FAC7E5","6972F22F718946CC8DBB689A45FAC7E5","9d67303c-6542-458f-b451-c6f2611af37b","051c06f1-75cc-4548-856d-4923ddaba0dc","{""num_scrambled_semantic"":""8"",""num_scrambled_causal"":""4"",""num_scrambled_schematic"":""4"",""participantId"":""6972F22F718946CC8DBB689A45FAC7E5"",""assignmentId"":""9d67303c-6542-458f-b451-c6f2611af37b"",""projectId"":""051c06f1-75cc-4548-856d-4923ddaba0dc""}","https://test12345.live/?num_scrambled_semantic=8&num_scrambled_causal=4&num_scrambled_schematic=4&participantId=6972F22F718946CC8DBB689A45FAC7E5&assignmentId=9d67303c-6542-458f-b451-c6f2611af37b&projectId=051c06f1-75cc-4548-856d-4923ddaba0dc","6972F22F718946CC8DBB689A45FAC7E5-2025-05-15-18-52-09","","null","","[]","null","",""
"","","","","","image-button-response","101","580601","0.0-14.0-1.0-0.4","6972F22F718946CC8DBB689A45FAC7E5","6972F22F718946CC8DBB689A45FAC7E5","9d67303c-6542-458f-b451-c6f2611af37b","051c06f1-75cc-4548-856d-4923ddaba0dc","{""num_scrambled_semantic"":""8"",""num_scrambled_causal"":""4"",""num_scrambled_schematic"":""4"",""participantId"":""6972F22F718946CC8DBB689A45FAC7E5"",""assignmentId"":""9d67303c-6542-458f-b451-c6f2611af37b"",""projectId"":""051c06f1-75cc-4548-856d-4923ddaba0dc""}","https://test12345.live/?num_scrambled_semantic=8&num_scrambled_causal=4&num_scrambled_schematic=4&participantId=6972F22F718946CC8DBB689A45FAC7E5&assignmentId=9d67303c-6542-458f-b451-c6f2611af37b&projectId=051c06f1-75cc-4548-856d-4923ddaba0dc","6972F22F718946CC8DBB689A45FAC7E5-2025-05-15-18-52-09","","null","","images/semantic_sequence/self_care_activities_semantic/self_care_activities_semantic_5.png","null","",""
"","","","","","image-button-response","102","581716","0.0-14.0-1.0-1.4","6972F22F718946CC8DBB689A45FAC7E5","6972F22F718946CC8DBB689A45FAC7E5","9d67303c-6542-458f-b451-c6f2611af37b","051c06f1-75cc-4548-856d-4923ddaba0dc","{""num_scrambled_semantic"":""8"",""num_scrambled_causal"":""4"",""num_scrambled_schematic"":""4"",""participantId"":""6972F22F718946CC8DBB689A45FAC7E5"",""assignmentId"":""9d67303c-6542-458f-b451-c6f2611af37b"",""projectId"":""051c06f1-75cc-4548-856d-4923ddaba0dc""}","https://test12345.live/?num_scrambled_semantic=8&num_scrambled_causal=4&num_scrambled_schematic=4&participantId=6972F22F718946CC8DBB689A45FAC7E5&assignmentId=9d67303c-6542-458f-b451-c6f2611af37b&projectId=051c06f1-75cc-4548-856d-4923ddaba0dc","6972F22F718946CC8DBB689A45FAC7E5-2025-05-15-18-52-09","","1113","","images/semantic_sequence/self_care_activities_semantic/self_care_activities_semantic_5.png","0","",""
"","","","","","image-button-response","103","583527","0.0-14.0-1.0-2.4","6972F22F718946CC8DBB689A45FAC7E5","6972F22F718946CC8DBB689A45FAC7E5","9d67303c-6542-458f-b451-c6f2611af37b","051c06f1-75cc-4548-856d-4923ddaba0dc","{""num_scrambled_semantic"":""8"",""num_scrambled_causal"":""4"",""num_scrambled_schematic"":""4"",""participantId"":""6972F22F718946CC8DBB689A45FAC7E5"",""assignmentId"":""9d67303c-6542-458f-b451-c6f2611af37b"",""projectId"":""051c06f1-75cc-4548-856d-4923ddaba0dc""}","https://test12345.live/?num_scrambled_semantic=8&num_scrambled_causal=4&num_scrambled_schematic=4&participantId=6972F22F718946CC8DBB689A45FAC7E5&assignmentId=9d67303c-6542-458f-b451-c6f2611af37b&projectId=051c06f1-75cc-4548-856d-4923ddaba0dc","6972F22F718946CC8DBB689A45FAC7E5-2025-05-15-18-52-09","","null","","[]","null","",""
"","","","","","image-button-response","104","588046","0.0-14.0-1.0-0.5","6972F22F718946CC8DBB689A45FAC7E5","6972F22F718946CC8DBB689A45FAC7E5","9d67303c-6542-458f-b451-c6f2611af37b","051c06f1-75cc-4548-856d-4923ddaba0dc","{""num_scrambled_semantic"":""8"",""num_scrambled_causal"":""4"",""num_scrambled_schematic"":""4"",""participantId"":""6972F22F718946CC8DBB689A45FAC7E5"",""assignmentId"":""9d67303c-6542-458f-b451-c6f2611af37b"",""projectId"":""051c06f1-75cc-4548-856d-4923ddaba0dc""}","https://test12345.live/?num_scrambled_semantic=8&num_scrambled_causal=4&num_scrambled_schematic=4&participantId=6972F22F718946CC8DBB689A45FAC7E5&assignmentId=9d67303c-6542-458f-b451-c6f2611af37b&projectId=051c06f1-75cc-4548-856d-4923ddaba0dc","6972F22F718946CC8DBB689A45FAC7E5-2025-05-15-18-52-09","","null","","images/semantic_sequence/self_care_activities_semantic/self_care_activities_semantic_6.png","null","",""
"","","","","","image-button-response","105","588540","0.0-14.0-1.0-1.5","6972F22F718946CC8DBB689A45FAC7E5","6972F22F718946CC8DBB689A45FAC7E5","9d67303c-6542-458f-b451-c6f2611af37b","051c06f1-75cc-4548-856d-4923ddaba0dc","{""num_scrambled_semantic"":""8"",""num_scrambled_causal"":""4"",""num_scrambled_schematic"":""4"",""participantId"":""6972F22F718946CC8DBB689A45FAC7E5"",""assignmentId"":""9d67303c-6542-458f-b451-c6f2611af37b"",""projectId"":""051c06f1-75cc-4548-856d-4923ddaba0dc""}","https://test12345.live/?num_scrambled_semantic=8&num_scrambled_causal=4&num_scrambled_schematic=4&participantId=6972F22F718946CC8DBB689A45FAC7E5&assignmentId=9d67303c-6542-458f-b451-c6f2611af37b&projectId=051c06f1-75cc-4548-856d-4923ddaba0dc","6972F22F718946CC8DBB689A45FAC7E5-2025-05-15-18-52-09","","493","","images/semantic_sequence/self_care_activities_semantic/self_care_activities_semantic_6.png","0","",""
"","","","","","image-button-response","106","590347","0.0-14.0-1.0-2.5","6972F22F718946CC8DBB689A45FAC7E5","6972F22F718946CC8DBB689A45FAC7E5","9d67303c-6542-458f-b451-c6f2611af37b","051c06f1-75cc-4548-856d-4923ddaba0dc","{""num_scrambled_semantic"":""8"",""num_scrambled_causal"":""4"",""num_scrambled_schematic"":""4"",""participantId"":""6972F22F718946CC8DBB689A45FAC7E5"",""assignmentId"":""9d67303c-6542-458f-b451-c6f2611af37b"",""projectId"":""051c06f1-75cc-4548-856d-4923ddaba0dc""}","https://test12345.live/?num_scrambled_semantic=8&num_scrambled_causal=4&num_scrambled_schematic=4&participantId=6972F22F718946CC8DBB689A45FAC7E5&assignmentId=9d67303c-6542-458f-b451-c6f2611af37b&projectId=051c06f1-75cc-4548-856d-4923ddaba0dc","6972F22F718946CC8DBB689A45FAC7E5-2025-05-15-18-52-09","","null","","[]","null","",""
"","","","","","image-button-response","107","594860","0.0-14.0-1.0-0.6","6972F22F718946CC8DBB689A45FAC7E5","6972F22F718946CC8DBB689A45FAC7E5","9d67303c-6542-458f-b451-c6f2611af37b","051c06f1-75cc-4548-856d-4923ddaba0dc","{""num_scrambled_semantic"":""8"",""num_scrambled_causal"":""4"",""num_scrambled_schematic"":""4"",""participantId"":""6972F22F718946CC8DBB689A45FAC7E5"",""assignmentId"":""9d67303c-6542-458f-b451-c6f2611af37b"",""projectId"":""051c06f1-75cc-4548-856d-4923ddaba0dc""}","https://test12345.live/?num_scrambled_semantic=8&num_scrambled_causal=4&num_scrambled_schematic=4&participantId=6972F22F718946CC8DBB689A45FAC7E5&assignmentId=9d67303c-6542-458f-b451-c6f2611af37b&projectId=051c06f1-75cc-4548-856d-4923ddaba0dc","6972F22F718946CC8DBB689A45FAC7E5-2025-05-15-18-52-09","","null","","images/semantic_sequence/self_care_activities_semantic/self_care_activities_semantic_7.png","null","",""
"","","","","","image-button-response","108","595597","0.0-14.0-1.0-1.6","6972F22F718946CC8DBB689A45FAC7E5","6972F22F718946CC8DBB689A45FAC7E5","9d67303c-6542-458f-b451-c6f2611af37b","051c06f1-75cc-4548-856d-4923ddaba0dc","{""num_scrambled_semantic"":""8"",""num_scrambled_causal"":""4"",""num_scrambled_schematic"":""4"",""participantId"":""6972F22F718946CC8DBB689A45FAC7E5"",""assignmentId"":""9d67303c-6542-458f-b451-c6f2611af37b"",""projectId"":""051c06f1-75cc-4548-856d-4923ddaba0dc""}","https://test12345.live/?num_scrambled_semantic=8&num_scrambled_causal=4&num_scrambled_schematic=4&participantId=6972F22F718946CC8DBB689A45FAC7E5&assignmentId=9d67303c-6542-458f-b451-c6f2611af37b&projectId=051c06f1-75cc-4548-856d-4923ddaba0dc","6972F22F718946CC8DBB689A45FAC7E5-2025-05-15-18-52-09","","736","","images/semantic_sequence/self_care_activities_semantic/self_care_activities_semantic_7.png","0","",""
"","","","","","image-button-response","109","597403","0.0-14.0-1.0-2.6","6972F22F718946CC8DBB689A45FAC7E5","6972F22F718946CC8DBB689A45FAC7E5","9d67303c-6542-458f-b451-c6f2611af37b","051c06f1-75cc-4548-856d-4923ddaba0dc","{""num_scrambled_semantic"":""8"",""num_scrambled_causal"":""4"",""num_scrambled_schematic"":""4"",""participantId"":""6972F22F718946CC8DBB689A45FAC7E5"",""assignmentId"":""9d67303c-6542-458f-b451-c6f2611af37b"",""projectId"":""051c06f1-75cc-4548-856d-4923ddaba0dc""}","https://test12345.live/?num_scrambled_semantic=8&num_scrambled_causal=4&num_scrambled_schematic=4&participantId=6972F22F718946CC8DBB689A45FAC7E5&assignmentId=9d67303c-6542-458f-b451-c6f2611af37b&projectId=051c06f1-75cc-4548-856d-4923ddaba0dc","6972F22F718946CC8DBB689A45FAC7E5-2025-05-15-18-52-09","","null","","[]","null","",""
"","","","","","image-button-response","110","601914","0.0-14.0-1.0-0.7","6972F22F718946CC8DBB689A45FAC7E5","6972F22F718946CC8DBB689A45FAC7E5","9d67303c-6542-458f-b451-c6f2611af37b","051c06f1-75cc-4548-856d-4923ddaba0dc","{""num_scrambled_semantic"":""8"",""num_scrambled_causal"":""4"",""num_scrambled_schematic"":""4"",""participantId"":""6972F22F718946CC8DBB689A45FAC7E5"",""assignmentId"":""9d67303c-6542-458f-b451-c6f2611af37b"",""projectId"":""051c06f1-75cc-4548-856d-4923ddaba0dc""}","https://test12345.live/?num_scrambled_semantic=8&num_scrambled_causal=4&num_scrambled_schematic=4&participantId=6972F22F718946CC8DBB689A45FAC7E5&assignmentId=9d67303c-6542-458f-b451-c6f2611af37b&projectId=051c06f1-75cc-4548-856d-4923ddaba0dc","6972F22F718946CC8DBB689A45FAC7E5-2025-05-15-18-52-09","","null","","images/semantic_sequence/self_care_activities_semantic/self_care_activities_semantic_8.png","null","",""
"","","","","","image-button-response","111","603317","0.0-14.0-1.0-1.7","6972F22F718946CC8DBB689A45FAC7E5","6972F22F718946CC8DBB689A45FAC7E5","9d67303c-6542-458f-b451-c6f2611af37b","051c06f1-75cc-4548-856d-4923ddaba0dc","{""num_scrambled_semantic"":""8"",""num_scrambled_causal"":""4"",""num_scrambled_schematic"":""4"",""participantId"":""6972F22F718946CC8DBB689A45FAC7E5"",""assignmentId"":""9d67303c-6542-458f-b451-c6f2611af37b"",""projectId"":""051c06f1-75cc-4548-856d-4923ddaba0dc""}","https://test12345.live/?num_scrambled_semantic=8&num_scrambled_causal=4&num_scrambled_schematic=4&participantId=6972F22F718946CC8DBB689A45FAC7E5&assignmentId=9d67303c-6542-458f-b451-c6f2611af37b&projectId=051c06f1-75cc-4548-856d-4923ddaba0dc","6972F22F718946CC8DBB689A45FAC7E5-2025-05-15-18-52-09","","1401","","images/semantic_sequence/self_care_activities_semantic/self_care_activities_semantic_8.png","0","",""
"","","","","","image-button-response","112","605128","0.0-14.0-1.0-2.7","6972F22F718946CC8DBB689A45FAC7E5","6972F22F718946CC8DBB689A45FAC7E5","9d67303c-6542-458f-b451-c6f2611af37b","051c06f1-75cc-4548-856d-4923ddaba0dc","{""num_scrambled_semantic"":""8"",""num_scrambled_causal"":""4"",""num_scrambled_schematic"":""4"",""participantId"":""6972F22F718946CC8DBB689A45FAC7E5"",""assignmentId"":""9d67303c-6542-458f-b451-c6f2611af37b"",""projectId"":""051c06f1-75cc-4548-856d-4923ddaba0dc""}","https://test12345.live/?num_scrambled_semantic=8&num_scrambled_causal=4&num_scrambled_schematic=4&participantId=6972F22F718946CC8DBB689A45FAC7E5&assignmentId=9d67303c-6542-458f-b451-c6f2611af37b&projectId=051c06f1-75cc-4548-856d-4923ddaba0dc","6972F22F718946CC8DBB689A45FAC7E5-2025-05-15-18-52-09","","null","","[]","null","",""
"","","","","","image-button-response","113","609645","0.0-14.0-1.0-0.8","6972F22F718946CC8DBB689A45FAC7E5","6972F22F718946CC8DBB689A45FAC7E5","9d67303c-6542-458f-b451-c6f2611af37b","051c06f1-75cc-4548-856d-4923ddaba0dc","{""num_scrambled_semantic"":""8"",""num_scrambled_causal"":""4"",""num_scrambled_schematic"":""4"",""participantId"":""6972F22F718946CC8DBB689A45FAC7E5"",""assignmentId"":""9d67303c-6542-458f-b451-c6f2611af37b"",""projectId"":""051c06f1-75cc-4548-856d-4923ddaba0dc""}","https://test12345.live/?num_scrambled_semantic=8&num_scrambled_causal=4&num_scrambled_schematic=4&participantId=6972F22F718946CC8DBB689A45FAC7E5&assignmentId=9d67303c-6542-458f-b451-c6f2611af37b&projectId=051c06f1-75cc-4548-856d-4923ddaba0dc","6972F22F718946CC8DBB689A45FAC7E5-2025-05-15-18-52-09","","null","","images/semantic_sequence/self_care_activities_semantic/self_care_activities_semantic_9.png","null","",""
