"success","timeout","failed_images","failed_audio","failed_video","trial_type","trial_index","time_elapsed","internal_node_id","subject","subject_id","study_id","session_id","urlvar","current_url","audio_id","view_history","rt","device_id","stimulus","response","estimated_stimulus_onset","seq_name"
"true","false","[]","[]","[]","preload","0","4362","0.0-0.0","69F48D9CF5A7492A9A516BCDD6200C09","69F48D9CF5A7492A9A516BCDD6200C09","0198ee4b-c2d7-779a-8212-cd2bf722eb6b","0198ee3c-27ac-7803-a9ea-f3b4ad4ad678","{""num_scrambled_semantic"":""8"",""num_scrambled_causal"":""4"",""num_scrambled_schematic"":""4"",""participantId"":""69F48D9CF5A7492A9A516BCDD6200C09"",""assignmentId"":""0198ee4b-c2d7-779a-8212-cd2bf722eb6b"",""projectId"":""0198ee3c-27ac-7803-a9ea-f3b4ad4ad678""}","https://test12345.live/?num_scrambled_semantic=8&num_scrambled_causal=4&num_scrambled_schematic=4&participantId=69F48D9CF5A7492A9A516BCDD6200C09&assignmentId=0198ee4b-c2d7-779a-8212-cd2bf722eb6b&projectId=0198ee3c-27ac-7803-a9ea-f3b4ad4ad678","69F48D9CF5A7492A9A516BCDD6200C09-2025-08-28-02-13-41","","","","","","",""
"","","","","","instructions","1","18258","0.0-1.0","69F48D9CF5A7492A9A516BCDD6200C09","69F48D9CF5A7492A9A516BCDD6200C09","0198ee4b-c2d7-779a-8212-cd2bf722eb6b","0198ee3c-27ac-7803-a9ea-f3b4ad4ad678","{""num_scrambled_semantic"":""8"",""num_scrambled_causal"":""4"",""num_scrambled_schematic"":""4"",""participantId"":""69F48D9CF5A7492A9A516BCDD6200C09"",""assignmentId"":""0198ee4b-c2d7-779a-8212-cd2bf722eb6b"",""projectId"":""0198ee3c-27ac-7803-a9ea-f3b4ad4ad678""}","https://test12345.live/?num_scrambled_semantic=8&num_scrambled_causal=4&num_scrambled_schematic=4&participantId=69F48D9CF5A7492A9A516BCDD6200C09&assignmentId=0198ee4b-c2d7-779a-8212-cd2bf722eb6b&projectId=0198ee3c-27ac-7803-a9ea-f3b4ad4ad678","69F48D9CF5A7492A9A516BCDD6200C09-2025-08-28-02-13-41","[{""page_index"":0,""viewing_time"":13895}]","13895","","","","",""
"","","","","","instructions","2","22899","0.0-2.0","69F48D9CF5A7492A9A516BCDD6200C09","69F48D9CF5A7492A9A516BCDD6200C09","0198ee4b-c2d7-779a-8212-cd2bf722eb6b","0198ee3c-27ac-7803-a9ea-f3b4ad4ad678","{""num_scrambled_semantic"":""8"",""num_scrambled_causal"":""4"",""num_scrambled_schematic"":""4"",""participantId"":""69F48D9CF5A7492A9A516BCDD6200C09"",""assignmentId"":""0198ee4b-c2d7-779a-8212-cd2bf722eb6b"",""projectId"":""0198ee3c-27ac-7803-a9ea-f3b4ad4ad678""}","https://test12345.live/?num_scrambled_semantic=8&num_scrambled_causal=4&num_scrambled_schematic=4&participantId=69F48D9CF5A7492A9A516BCDD6200C09&assignmentId=0198ee4b-c2d7-779a-8212-cd2bf722eb6b&projectId=0198ee3c-27ac-7803-a9ea-f3b4ad4ad678","69F48D9CF5A7492A9A516BCDD6200C09-2025-08-28-02-13-41","[{""page_index"":0,""viewing_time"":4640}]","4640","","","","",""
"true","","","","","fullscreen","3","25633","0.0-3.0","69F48D9CF5A7492A9A516BCDD6200C09","69F48D9CF5A7492A9A516BCDD6200C09","0198ee4b-c2d7-779a-8212-cd2bf722eb6b","0198ee3c-27ac-7803-a9ea-f3b4ad4ad678","{""num_scrambled_semantic"":""8"",""num_scrambled_causal"":""4"",""num_scrambled_schematic"":""4"",""participantId"":""69F48D9CF5A7492A9A516BCDD6200C09"",""assignmentId"":""0198ee4b-c2d7-779a-8212-cd2bf722eb6b"",""projectId"":""0198ee3c-27ac-7803-a9ea-f3b4ad4ad678""}","https://test12345.live/?num_scrambled_semantic=8&num_scrambled_causal=4&num_scrambled_schematic=4&participantId=69F48D9CF5A7492A9A516BCDD6200C09&assignmentId=0198ee4b-c2d7-779a-8212-cd2bf722eb6b&projectId=0198ee3c-27ac-7803-a9ea-f3b4ad4ad678","69F48D9CF5A7492A9A516BCDD6200C09-2025-08-28-02-13-41","","1733","","","","",""
"","","","","","initialize-microphone","4","31498","0.0-4.0-0.0","69F48D9CF5A7492A9A516BCDD6200C09","69F48D9CF5A7492A9A516BCDD6200C09","0198ee4b-c2d7-779a-8212-cd2bf722eb6b","0198ee3c-27ac-7803-a9ea-f3b4ad4ad678","{""num_scrambled_semantic"":""8"",""num_scrambled_causal"":""4"",""num_scrambled_schematic"":""4"",""participantId"":""69F48D9CF5A7492A9A516BCDD6200C09"",""assignmentId"":""0198ee4b-c2d7-779a-8212-cd2bf722eb6b"",""projectId"":""0198ee3c-27ac-7803-a9ea-f3b4ad4ad678""}","https://test12345.live/?num_scrambled_semantic=8&num_scrambled_causal=4&num_scrambled_schematic=4&participantId=69F48D9CF5A7492A9A516BCDD6200C09&assignmentId=0198ee4b-c2d7-779a-8212-cd2bf722eb6b&projectId=0198ee3c-27ac-7803-a9ea-f3b4ad4ad678","69F48D9CF5A7492A9A516BCDD6200C09-2025-08-28-02-13-41","","","38f6833aee965a690f6675a0c38cc9cff0bb4dcfd3489187642ee5df825817d9","","","",""
"","","","","","html-audio-response","5","41460","0.0-4.0-1.0","69F48D9CF5A7492A9A516BCDD6200C09","69F48D9CF5A7492A9A516BCDD6200C09","0198ee4b-c2d7-779a-8212-cd2bf722eb6b","0198ee3c-27ac-7803-a9ea-f3b4ad4ad678","{""num_scrambled_semantic"":""8"",""num_scrambled_causal"":""4"",""num_scrambled_schematic"":""4"",""participantId"":""69F48D9CF5A7492A9A516BCDD6200C09"",""assignmentId"":""0198ee4b-c2d7-779a-8212-cd2bf722eb6b"",""projectId"":""0198ee3c-27ac-7803-a9ea-f3b4ad4ad678""}","https://test12345.live/?num_scrambled_semantic=8&num_scrambled_causal=4&num_scrambled_schematic=4&participantId=69F48D9CF5A7492A9A516BCDD6200C09&assignmentId=0198ee4b-c2d7-779a-8212-cd2bf722eb6b&projectId=0198ee3c-27ac-7803-a9ea-f3b4ad4ad678","69F48D9CF5A7492A9A516BCDD6200C09-2025-08-28-02-13-41","","2927","","<span style=""color: red; font-size: 24px""> NOW RECORDING</span>
        <p>Please test Microphone</p>","","16",""
"","","","","","html-button-response","6","43749","0.0-4.0-2.0","69F48D9CF5A7492A9A516BCDD6200C09","69F48D9CF5A7492A9A516BCDD6200C09","0198ee4b-c2d7-779a-8212-cd2bf722eb6b","0198ee3c-27ac-7803-a9ea-f3b4ad4ad678","{""num_scrambled_semantic"":""8"",""num_scrambled_causal"":""4"",""num_scrambled_schematic"":""4"",""participantId"":""69F48D9CF5A7492A9A516BCDD6200C09"",""assignmentId"":""0198ee4b-c2d7-779a-8212-cd2bf722eb6b"",""projectId"":""0198ee3c-27ac-7803-a9ea-f3b4ad4ad678""}","https://test12345.live/?num_scrambled_semantic=8&num_scrambled_causal=4&num_scrambled_schematic=4&participantId=69F48D9CF5A7492A9A516BCDD6200C09&assignmentId=0198ee4b-c2d7-779a-8212-cd2bf722eb6b&projectId=0198ee3c-27ac-7803-a9ea-f3b4ad4ad678","69F48D9CF5A7492A9A516BCDD6200C09-2025-08-28-02-13-41","","2287","","<p style=""font-size:48px; color:red;"">Is Microphone OK?</p>","1","",""
"","","","","","instructions","7","49813","0.0-5.0","69F48D9CF5A7492A9A516BCDD6200C09","69F48D9CF5A7492A9A516BCDD6200C09","0198ee4b-c2d7-779a-8212-cd2bf722eb6b","0198ee3c-27ac-7803-a9ea-f3b4ad4ad678","{""num_scrambled_semantic"":""8"",""num_scrambled_causal"":""4"",""num_scrambled_schematic"":""4"",""participantId"":""69F48D9CF5A7492A9A516BCDD6200C09"",""assignmentId"":""0198ee4b-c2d7-779a-8212-cd2bf722eb6b"",""projectId"":""0198ee3c-27ac-7803-a9ea-f3b4ad4ad678""}","https://test12345.live/?num_scrambled_semantic=8&num_scrambled_causal=4&num_scrambled_schematic=4&participantId=69F48D9CF5A7492A9A516BCDD6200C09&assignmentId=0198ee4b-c2d7-779a-8212-cd2bf722eb6b&projectId=0198ee3c-27ac-7803-a9ea-f3b4ad4ad678","69F48D9CF5A7492A9A516BCDD6200C09-2025-08-28-02-13-41","[{""page_index"":0,""viewing_time"":2026},{""page_index"":1,""viewing_time"":4038}]","6064","","","","",""
"","","","","","image-button-response","8","55816","0.0-6.0-0.0","69F48D9CF5A7492A9A516BCDD6200C09","69F48D9CF5A7492A9A516BCDD6200C09","0198ee4b-c2d7-779a-8212-cd2bf722eb6b","0198ee3c-27ac-7803-a9ea-f3b4ad4ad678","{""num_scrambled_semantic"":""8"",""num_scrambled_causal"":""4"",""num_scrambled_schematic"":""4"",""participantId"":""69F48D9CF5A7492A9A516BCDD6200C09"",""assignmentId"":""0198ee4b-c2d7-779a-8212-cd2bf722eb6b"",""projectId"":""0198ee3c-27ac-7803-a9ea-f3b4ad4ad678""}","https://test12345.live/?num_scrambled_semantic=8&num_scrambled_causal=4&num_scrambled_schematic=4&participantId=69F48D9CF5A7492A9A516BCDD6200C09&assignmentId=0198ee4b-c2d7-779a-8212-cd2bf722eb6b&projectId=0198ee3c-27ac-7803-a9ea-f3b4ad4ad678","69F48D9CF5A7492A9A516BCDD6200C09-2025-08-28-02-13-41","","null","","images/instructions/movie_0.png","null","",""
"","","","","","image-button-response","9","60321","0.0-6.0-1.0-0.0","69F48D9CF5A7492A9A516BCDD6200C09","69F48D9CF5A7492A9A516BCDD6200C09","0198ee4b-c2d7-779a-8212-cd2bf722eb6b","0198ee3c-27ac-7803-a9ea-f3b4ad4ad678","{""num_scrambled_semantic"":""8"",""num_scrambled_causal"":""4"",""num_scrambled_schematic"":""4"",""participantId"":""69F48D9CF5A7492A9A516BCDD6200C09"",""assignmentId"":""0198ee4b-c2d7-779a-8212-cd2bf722eb6b"",""projectId"":""0198ee3c-27ac-7803-a9ea-f3b4ad4ad678""}","https://test12345.live/?num_scrambled_semantic=8&num_scrambled_causal=4&num_scrambled_schematic=4&participantId=69F48D9CF5A7492A9A516BCDD6200C09&assignmentId=0198ee4b-c2d7-779a-8212-cd2bf722eb6b&projectId=0198ee3c-27ac-7803-a9ea-f3b4ad4ad678","69F48D9CF5A7492A9A516BCDD6200C09-2025-08-28-02-13-41","","null","","images/instructions/movie_1.png","null","",""
"","","","","","image-button-response","10","60578","0.0-6.0-1.0-1.0","69F48D9CF5A7492A9A516BCDD6200C09","69F48D9CF5A7492A9A516BCDD6200C09","0198ee4b-c2d7-779a-8212-cd2bf722eb6b","0198ee3c-27ac-7803-a9ea-f3b4ad4ad678","{""num_scrambled_semantic"":""8"",""num_scrambled_causal"":""4"",""num_scrambled_schematic"":""4"",""participantId"":""69F48D9CF5A7492A9A516BCDD6200C09"",""assignmentId"":""0198ee4b-c2d7-779a-8212-cd2bf722eb6b"",""projectId"":""0198ee3c-27ac-7803-a9ea-f3b4ad4ad678""}","https://test12345.live/?num_scrambled_semantic=8&num_scrambled_causal=4&num_scrambled_schematic=4&participantId=69F48D9CF5A7492A9A516BCDD6200C09&assignmentId=0198ee4b-c2d7-779a-8212-cd2bf722eb6b&projectId=0198ee3c-27ac-7803-a9ea-f3b4ad4ad678","69F48D9CF5A7492A9A516BCDD6200C09-2025-08-28-02-13-41","","255","","images/instructions/movie_1.png","1","",""
"","","","","","image-button-response","11","62380","0.0-6.0-1.0-2.0","69F48D9CF5A7492A9A516BCDD6200C09","69F48D9CF5A7492A9A516BCDD6200C09","0198ee4b-c2d7-779a-8212-cd2bf722eb6b","0198ee3c-27ac-7803-a9ea-f3b4ad4ad678","{""num_scrambled_semantic"":""8"",""num_scrambled_causal"":""4"",""num_scrambled_schematic"":""4"",""participantId"":""69F48D9CF5A7492A9A516BCDD6200C09"",""assignmentId"":""0198ee4b-c2d7-779a-8212-cd2bf722eb6b"",""projectId"":""0198ee3c-27ac-7803-a9ea-f3b4ad4ad678""}","https://test12345.live/?num_scrambled_semantic=8&num_scrambled_causal=4&num_scrambled_schematic=4&participantId=69F48D9CF5A7492A9A516BCDD6200C09&assignmentId=0198ee4b-c2d7-779a-8212-cd2bf722eb6b&projectId=0198ee3c-27ac-7803-a9ea-f3b4ad4ad678","69F48D9CF5A7492A9A516BCDD6200C09-2025-08-28-02-13-41","","null","","[]","null","",""
"","","","","","image-button-response","12","66882","0.0-6.0-1.0-0.1","69F48D9CF5A7492A9A516BCDD6200C09","69F48D9CF5A7492A9A516BCDD6200C09","0198ee4b-c2d7-779a-8212-cd2bf722eb6b","0198ee3c-27ac-7803-a9ea-f3b4ad4ad678","{""num_scrambled_semantic"":""8"",""num_scrambled_causal"":""4"",""num_scrambled_schematic"":""4"",""participantId"":""69F48D9CF5A7492A9A516BCDD6200C09"",""assignmentId"":""0198ee4b-c2d7-779a-8212-cd2bf722eb6b"",""projectId"":""0198ee3c-27ac-7803-a9ea-f3b4ad4ad678""}","https://test12345.live/?num_scrambled_semantic=8&num_scrambled_causal=4&num_scrambled_schematic=4&participantId=69F48D9CF5A7492A9A516BCDD6200C09&assignmentId=0198ee4b-c2d7-779a-8212-cd2bf722eb6b&projectId=0198ee3c-27ac-7803-a9ea-f3b4ad4ad678","69F48D9CF5A7492A9A516BCDD6200C09-2025-08-28-02-13-41","","null","","images/instructions/movie_2.png","null","",""
"","","","","","image-button-response","13","69596","0.0-6.0-1.0-1.1","69F48D9CF5A7492A9A516BCDD6200C09","69F48D9CF5A7492A9A516BCDD6200C09","0198ee4b-c2d7-779a-8212-cd2bf722eb6b","0198ee3c-27ac-7803-a9ea-f3b4ad4ad678","{""num_scrambled_semantic"":""8"",""num_scrambled_causal"":""4"",""num_scrambled_schematic"":""4"",""participantId"":""69F48D9CF5A7492A9A516BCDD6200C09"",""assignmentId"":""0198ee4b-c2d7-779a-8212-cd2bf722eb6b"",""projectId"":""0198ee3c-27ac-7803-a9ea-f3b4ad4ad678""}","https://test12345.live/?num_scrambled_semantic=8&num_scrambled_causal=4&num_scrambled_schematic=4&participantId=69F48D9CF5A7492A9A516BCDD6200C09&assignmentId=0198ee4b-c2d7-779a-8212-cd2bf722eb6b&projectId=0198ee3c-27ac-7803-a9ea-f3b4ad4ad678","69F48D9CF5A7492A9A516BCDD6200C09-2025-08-28-02-13-41","","2712","","images/instructions/movie_2.png","1","",""
"","","","","","image-button-response","14","71400","0.0-6.0-1.0-2.1","69F48D9CF5A7492A9A516BCDD6200C09","69F48D9CF5A7492A9A516BCDD6200C09","0198ee4b-c2d7-779a-8212-cd2bf722eb6b","0198ee3c-27ac-7803-a9ea-f3b4ad4ad678","{""num_scrambled_semantic"":""8"",""num_scrambled_causal"":""4"",""num_scrambled_schematic"":""4"",""participantId"":""69F48D9CF5A7492A9A516BCDD6200C09"",""assignmentId"":""0198ee4b-c2d7-779a-8212-cd2bf722eb6b"",""projectId"":""0198ee3c-27ac-7803-a9ea-f3b4ad4ad678""}","https://test12345.live/?num_scrambled_semantic=8&num_scrambled_causal=4&num_scrambled_schematic=4&participantId=69F48D9CF5A7492A9A516BCDD6200C09&assignmentId=0198ee4b-c2d7-779a-8212-cd2bf722eb6b&projectId=0198ee3c-27ac-7803-a9ea-f3b4ad4ad678","69F48D9CF5A7492A9A516BCDD6200C09-2025-08-28-02-13-41","","null","","[]","null","",""
"","","","","","image-button-response","15","75902","0.0-6.0-1.0-0.2","69F48D9CF5A7492A9A516BCDD6200C09","69F48D9CF5A7492A9A516BCDD6200C09","0198ee4b-c2d7-779a-8212-cd2bf722eb6b","0198ee3c-27ac-7803-a9ea-f3b4ad4ad678","{""num_scrambled_semantic"":""8"",""num_scrambled_causal"":""4"",""num_scrambled_schematic"":""4"",""participantId"":""69F48D9CF5A7492A9A516BCDD6200C09"",""assignmentId"":""0198ee4b-c2d7-779a-8212-cd2bf722eb6b"",""projectId"":""0198ee3c-27ac-7803-a9ea-f3b4ad4ad678""}","https://test12345.live/?num_scrambled_semantic=8&num_scrambled_causal=4&num_scrambled_schematic=4&participantId=69F48D9CF5A7492A9A516BCDD6200C09&assignmentId=0198ee4b-c2d7-779a-8212-cd2bf722eb6b&projectId=0198ee3c-27ac-7803-a9ea-f3b4ad4ad678","69F48D9CF5A7492A9A516BCDD6200C09-2025-08-28-02-13-41","","null","","images/instructions/movie_3.png","null","",""
"","","","","","image-button-response","16","77438","0.0-6.0-1.0-1.2","69F48D9CF5A7492A9A516BCDD6200C09","69F48D9CF5A7492A9A516BCDD6200C09","0198ee4b-c2d7-779a-8212-cd2bf722eb6b","0198ee3c-27ac-7803-a9ea-f3b4ad4ad678","{""num_scrambled_semantic"":""8"",""num_scrambled_causal"":""4"",""num_scrambled_schematic"":""4"",""participantId"":""69F48D9CF5A7492A9A516BCDD6200C09"",""assignmentId"":""0198ee4b-c2d7-779a-8212-cd2bf722eb6b"",""projectId"":""0198ee3c-27ac-7803-a9ea-f3b4ad4ad678""}","https://test12345.live/?num_scrambled_semantic=8&num_scrambled_causal=4&num_scrambled_schematic=4&participantId=69F48D9CF5A7492A9A516BCDD6200C09&assignmentId=0198ee4b-c2d7-779a-8212-cd2bf722eb6b&projectId=0198ee3c-27ac-7803-a9ea-f3b4ad4ad678","69F48D9CF5A7492A9A516BCDD6200C09-2025-08-28-02-13-41","","1534","","images/instructions/movie_3.png","0","",""
"","","","","","image-button-response","17","79239","0.0-6.0-1.0-2.2","69F48D9CF5A7492A9A516BCDD6200C09","69F48D9CF5A7492A9A516BCDD6200C09","0198ee4b-c2d7-779a-8212-cd2bf722eb6b","0198ee3c-27ac-7803-a9ea-f3b4ad4ad678","{""num_scrambled_semantic"":""8"",""num_scrambled_causal"":""4"",""num_scrambled_schematic"":""4"",""participantId"":""69F48D9CF5A7492A9A516BCDD6200C09"",""assignmentId"":""0198ee4b-c2d7-779a-8212-cd2bf722eb6b"",""projectId"":""0198ee3c-27ac-7803-a9ea-f3b4ad4ad678""}","https://test12345.live/?num_scrambled_semantic=8&num_scrambled_causal=4&num_scrambled_schematic=4&participantId=69F48D9CF5A7492A9A516BCDD6200C09&assignmentId=0198ee4b-c2d7-779a-8212-cd2bf722eb6b&projectId=0198ee3c-27ac-7803-a9ea-f3b4ad4ad678","69F48D9CF5A7492A9A516BCDD6200C09-2025-08-28-02-13-41","","null","","[]","null","",""
"","","","","","image-button-response","18","83742","0.0-6.0-1.0-0.3","69F48D9CF5A7492A9A516BCDD6200C09","69F48D9CF5A7492A9A516BCDD6200C09","0198ee4b-c2d7-779a-8212-cd2bf722eb6b","0198ee3c-27ac-7803-a9ea-f3b4ad4ad678","{""num_scrambled_semantic"":""8"",""num_scrambled_causal"":""4"",""num_scrambled_schematic"":""4"",""participantId"":""69F48D9CF5A7492A9A516BCDD6200C09"",""assignmentId"":""0198ee4b-c2d7-779a-8212-cd2bf722eb6b"",""projectId"":""0198ee3c-27ac-7803-a9ea-f3b4ad4ad678""}","https://test12345.live/?num_scrambled_semantic=8&num_scrambled_causal=4&num_scrambled_schematic=4&participantId=69F48D9CF5A7492A9A516BCDD6200C09&assignmentId=0198ee4b-c2d7-779a-8212-cd2bf722eb6b&projectId=0198ee3c-27ac-7803-a9ea-f3b4ad4ad678","69F48D9CF5A7492A9A516BCDD6200C09-2025-08-28-02-13-41","","null","","images/instructions/movie_4.png","null","",""
"","","","","","image-button-response","19","85275","0.0-6.0-1.0-1.3","69F48D9CF5A7492A9A516BCDD6200C09","69F48D9CF5A7492A9A516BCDD6200C09","0198ee4b-c2d7-779a-8212-cd2bf722eb6b","0198ee3c-27ac-7803-a9ea-f3b4ad4ad678","{""num_scrambled_semantic"":""8"",""num_scrambled_causal"":""4"",""num_scrambled_schematic"":""4"",""participantId"":""69F48D9CF5A7492A9A516BCDD6200C09"",""assignmentId"":""0198ee4b-c2d7-779a-8212-cd2bf722eb6b"",""projectId"":""0198ee3c-27ac-7803-a9ea-f3b4ad4ad678""}","https://test12345.live/?num_scrambled_semantic=8&num_scrambled_causal=4&num_scrambled_schematic=4&participantId=69F48D9CF5A7492A9A516BCDD6200C09&assignmentId=0198ee4b-c2d7-779a-8212-cd2bf722eb6b&projectId=0198ee3c-27ac-7803-a9ea-f3b4ad4ad678","69F48D9CF5A7492A9A516BCDD6200C09-2025-08-28-02-13-41","","1531","","images/instructions/movie_4.png","0","",""
"","","","","","image-button-response","20","87078","0.0-6.0-1.0-2.3","69F48D9CF5A7492A9A516BCDD6200C09","69F48D9CF5A7492A9A516BCDD6200C09","0198ee4b-c2d7-779a-8212-cd2bf722eb6b","0198ee3c-27ac-7803-a9ea-f3b4ad4ad678","{""num_scrambled_semantic"":""8"",""num_scrambled_causal"":""4"",""num_scrambled_schematic"":""4"",""participantId"":""69F48D9CF5A7492A9A516BCDD6200C09"",""assignmentId"":""0198ee4b-c2d7-779a-8212-cd2bf722eb6b"",""projectId"":""0198ee3c-27ac-7803-a9ea-f3b4ad4ad678""}","https://test12345.live/?num_scrambled_semantic=8&num_scrambled_causal=4&num_scrambled_schematic=4&participantId=69F48D9CF5A7492A9A516BCDD6200C09&assignmentId=0198ee4b-c2d7-779a-8212-cd2bf722eb6b&projectId=0198ee3c-27ac-7803-a9ea-f3b4ad4ad678","69F48D9CF5A7492A9A516BCDD6200C09-2025-08-28-02-13-41","","null","","[]","null","",""
"","","","","","instructions","21","104755","0.0-7.0","69F48D9CF5A7492A9A516BCDD6200C09","69F48D9CF5A7492A9A516BCDD6200C09","0198ee4b-c2d7-779a-8212-cd2bf722eb6b","0198ee3c-27ac-7803-a9ea-f3b4ad4ad678","{""num_scrambled_semantic"":""8"",""num_scrambled_causal"":""4"",""num_scrambled_schematic"":""4"",""participantId"":""69F48D9CF5A7492A9A516BCDD6200C09"",""assignmentId"":""0198ee4b-c2d7-779a-8212-cd2bf722eb6b"",""projectId"":""0198ee3c-27ac-7803-a9ea-f3b4ad4ad678""}","https://test12345.live/?num_scrambled_semantic=8&num_scrambled_causal=4&num_scrambled_schematic=4&participantId=69F48D9CF5A7492A9A516BCDD6200C09&assignmentId=0198ee4b-c2d7-779a-8212-cd2bf722eb6b&projectId=0198ee3c-27ac-7803-a9ea-f3b4ad4ad678","69F48D9CF5A7492A9A516BCDD6200C09-2025-08-28-02-13-41","[{""page_index"":0,""viewing_time"":17676}]","17677","","","","",""
"","","","","","html-audio-response","22","126951","0.0-8.0","69F48D9CF5A7492A9A516BCDD6200C09","69F48D9CF5A7492A9A516BCDD6200C09","0198ee4b-c2d7-779a-8212-cd2bf722eb6b","0198ee3c-27ac-7803-a9ea-f3b4ad4ad678","{""num_scrambled_semantic"":""8"",""num_scrambled_causal"":""4"",""num_scrambled_schematic"":""4"",""participantId"":""69F48D9CF5A7492A9A516BCDD6200C09"",""assignmentId"":""0198ee4b-c2d7-779a-8212-cd2bf722eb6b"",""projectId"":""0198ee3c-27ac-7803-a9ea-f3b4ad4ad678""}","https://test12345.live/?num_scrambled_semantic=8&num_scrambled_causal=4&num_scrambled_schematic=4&participantId=69F48D9CF5A7492A9A516BCDD6200C09&assignmentId=0198ee4b-c2d7-779a-8212-cd2bf722eb6b&projectId=0198ee3c-27ac-7803-a9ea-f3b4ad4ad678","69F48D9CF5A7492A9A516BCDD6200C09-2025-08-28-02-13-41","","12246","","[""<span style=\""color: red; font-size: 24px\""> NOW RECORDING</span><p>Please say out loud all the images you saw, in the order of the story they create. Try to recall the sequence of events as they appeared in the story, not necessarily the order they were presented on the screen.</p>""]","","6",""
"","","","","","instructions","23","133408","0.0-9.0","69F48D9CF5A7492A9A516BCDD6200C09","69F48D9CF5A7492A9A516BCDD6200C09","0198ee4b-c2d7-779a-8212-cd2bf722eb6b","0198ee3c-27ac-7803-a9ea-f3b4ad4ad678","{""num_scrambled_semantic"":""8"",""num_scrambled_causal"":""4"",""num_scrambled_schematic"":""4"",""participantId"":""69F48D9CF5A7492A9A516BCDD6200C09"",""assignmentId"":""0198ee4b-c2d7-779a-8212-cd2bf722eb6b"",""projectId"":""0198ee3c-27ac-7803-a9ea-f3b4ad4ad678""}","https://test12345.live/?num_scrambled_semantic=8&num_scrambled_causal=4&num_scrambled_schematic=4&participantId=69F48D9CF5A7492A9A516BCDD6200C09&assignmentId=0198ee4b-c2d7-779a-8212-cd2bf722eb6b&projectId=0198ee3c-27ac-7803-a9ea-f3b4ad4ad678","69F48D9CF5A7492A9A516BCDD6200C09-2025-08-28-02-13-41","[{""page_index"":0,""viewing_time"":6450}]","6450","","","","",""
"","","","","","image-button-response","24","139410","0.0-10.0-0.0","69F48D9CF5A7492A9A516BCDD6200C09","69F48D9CF5A7492A9A516BCDD6200C09","0198ee4b-c2d7-779a-8212-cd2bf722eb6b","0198ee3c-27ac-7803-a9ea-f3b4ad4ad678","{""num_scrambled_semantic"":""8"",""num_scrambled_causal"":""4"",""num_scrambled_schematic"":""4"",""participantId"":""69F48D9CF5A7492A9A516BCDD6200C09"",""assignmentId"":""0198ee4b-c2d7-779a-8212-cd2bf722eb6b"",""projectId"":""0198ee3c-27ac-7803-a9ea-f3b4ad4ad678""}","https://test12345.live/?num_scrambled_semantic=8&num_scrambled_causal=4&num_scrambled_schematic=4&participantId=69F48D9CF5A7492A9A516BCDD6200C09&assignmentId=0198ee4b-c2d7-779a-8212-cd2bf722eb6b&projectId=0198ee3c-27ac-7803-a9ea-f3b4ad4ad678","69F48D9CF5A7492A9A516BCDD6200C09-2025-08-28-02-13-41","","null","","images/semantic_sequence/redecorating_a_house_semantic/redecorating_a_house_semantic_0.png","null","",""
"","","","","","image-button-response","25","143914","0.0-10.0-1.0-0.0","69F48D9CF5A7492A9A516BCDD6200C09","69F48D9CF5A7492A9A516BCDD6200C09","0198ee4b-c2d7-779a-8212-cd2bf722eb6b","0198ee3c-27ac-7803-a9ea-f3b4ad4ad678","{""num_scrambled_semantic"":""8"",""num_scrambled_causal"":""4"",""num_scrambled_schematic"":""4"",""participantId"":""69F48D9CF5A7492A9A516BCDD6200C09"",""assignmentId"":""0198ee4b-c2d7-779a-8212-cd2bf722eb6b"",""projectId"":""0198ee3c-27ac-7803-a9ea-f3b4ad4ad678""}","https://test12345.live/?num_scrambled_semantic=8&num_scrambled_causal=4&num_scrambled_schematic=4&participantId=69F48D9CF5A7492A9A516BCDD6200C09&assignmentId=0198ee4b-c2d7-779a-8212-cd2bf722eb6b&projectId=0198ee3c-27ac-7803-a9ea-f3b4ad4ad678","69F48D9CF5A7492A9A516BCDD6200C09-2025-08-28-02-13-41","","null","","images/semantic_sequence/redecorating_a_house_semantic/redecorating_a_house_semantic_9.png","null","",""
"","","","","","image-button-response","26","145973","0.0-10.0-1.0-1.0","69F48D9CF5A7492A9A516BCDD6200C09","69F48D9CF5A7492A9A516BCDD6200C09","0198ee4b-c2d7-779a-8212-cd2bf722eb6b","0198ee3c-27ac-7803-a9ea-f3b4ad4ad678","{""num_scrambled_semantic"":""8"",""num_scrambled_causal"":""4"",""num_scrambled_schematic"":""4"",""participantId"":""69F48D9CF5A7492A9A516BCDD6200C09"",""assignmentId"":""0198ee4b-c2d7-779a-8212-cd2bf722eb6b"",""projectId"":""0198ee3c-27ac-7803-a9ea-f3b4ad4ad678""}","https://test12345.live/?num_scrambled_semantic=8&num_scrambled_causal=4&num_scrambled_schematic=4&participantId=69F48D9CF5A7492A9A516BCDD6200C09&assignmentId=0198ee4b-c2d7-779a-8212-cd2bf722eb6b&projectId=0198ee3c-27ac-7803-a9ea-f3b4ad4ad678","69F48D9CF5A7492A9A516BCDD6200C09-2025-08-28-02-13-41","","2056","","images/semantic_sequence/redecorating_a_house_semantic/redecorating_a_house_semantic_9.png","0","",""
"","","","","","image-button-response","27","147776","0.0-10.0-1.0-2.0","69F48D9CF5A7492A9A516BCDD6200C09","69F48D9CF5A7492A9A516BCDD6200C09","0198ee4b-c2d7-779a-8212-cd2bf722eb6b","0198ee3c-27ac-7803-a9ea-f3b4ad4ad678","{""num_scrambled_semantic"":""8"",""num_scrambled_causal"":""4"",""num_scrambled_schematic"":""4"",""participantId"":""69F48D9CF5A7492A9A516BCDD6200C09"",""assignmentId"":""0198ee4b-c2d7-779a-8212-cd2bf722eb6b"",""projectId"":""0198ee3c-27ac-7803-a9ea-f3b4ad4ad678""}","https://test12345.live/?num_scrambled_semantic=8&num_scrambled_causal=4&num_scrambled_schematic=4&participantId=69F48D9CF5A7492A9A516BCDD6200C09&assignmentId=0198ee4b-c2d7-779a-8212-cd2bf722eb6b&projectId=0198ee3c-27ac-7803-a9ea-f3b4ad4ad678","69F48D9CF5A7492A9A516BCDD6200C09-2025-08-28-02-13-41","","null","","[]","null","",""
"","","","","","image-button-response","28","152278","0.0-10.0-1.0-0.1","69F48D9CF5A7492A9A516BCDD6200C09","69F48D9CF5A7492A9A516BCDD6200C09","0198ee4b-c2d7-779a-8212-cd2bf722eb6b","0198ee3c-27ac-7803-a9ea-f3b4ad4ad678","{""num_scrambled_semantic"":""8"",""num_scrambled_causal"":""4"",""num_scrambled_schematic"":""4"",""participantId"":""69F48D9CF5A7492A9A516BCDD6200C09"",""assignmentId"":""0198ee4b-c2d7-779a-8212-cd2bf722eb6b"",""projectId"":""0198ee3c-27ac-7803-a9ea-f3b4ad4ad678""}","https://test12345.live/?num_scrambled_semantic=8&num_scrambled_causal=4&num_scrambled_schematic=4&participantId=69F48D9CF5A7492A9A516BCDD6200C09&assignmentId=0198ee4b-c2d7-779a-8212-cd2bf722eb6b&projectId=0198ee3c-27ac-7803-a9ea-f3b4ad4ad678","69F48D9CF5A7492A9A516BCDD6200C09-2025-08-28-02-13-41","","null","","images/semantic_sequence/redecorating_a_house_semantic/redecorating_a_house_semantic_6.png","null","",""
"","","","","","image-button-response","29","153878","0.0-10.0-1.0-1.1","69F48D9CF5A7492A9A516BCDD6200C09","69F48D9CF5A7492A9A516BCDD6200C09","0198ee4b-c2d7-779a-8212-cd2bf722eb6b","0198ee3c-27ac-7803-a9ea-f3b4ad4ad678","{""num_scrambled_semantic"":""8"",""num_scrambled_causal"":""4"",""num_scrambled_schematic"":""4"",""participantId"":""69F48D9CF5A7492A9A516BCDD6200C09"",""assignmentId"":""0198ee4b-c2d7-779a-8212-cd2bf722eb6b"",""projectId"":""0198ee3c-27ac-7803-a9ea-f3b4ad4ad678""}","https://test12345.live/?num_scrambled_semantic=8&num_scrambled_causal=4&num_scrambled_schematic=4&participantId=69F48D9CF5A7492A9A516BCDD6200C09&assignmentId=0198ee4b-c2d7-779a-8212-cd2bf722eb6b&projectId=0198ee3c-27ac-7803-a9ea-f3b4ad4ad678","69F48D9CF5A7492A9A516BCDD6200C09-2025-08-28-02-13-41","","1597","","images/semantic_sequence/redecorating_a_house_semantic/redecorating_a_house_semantic_6.png","0","",""
"","","","","","image-button-response","30","155680","0.0-10.0-1.0-2.1","69F48D9CF5A7492A9A516BCDD6200C09","69F48D9CF5A7492A9A516BCDD6200C09","0198ee4b-c2d7-779a-8212-cd2bf722eb6b","0198ee3c-27ac-7803-a9ea-f3b4ad4ad678","{""num_scrambled_semantic"":""8"",""num_scrambled_causal"":""4"",""num_scrambled_schematic"":""4"",""participantId"":""69F48D9CF5A7492A9A516BCDD6200C09"",""assignmentId"":""0198ee4b-c2d7-779a-8212-cd2bf722eb6b"",""projectId"":""0198ee3c-27ac-7803-a9ea-f3b4ad4ad678""}","https://test12345.live/?num_scrambled_semantic=8&num_scrambled_causal=4&num_scrambled_schematic=4&participantId=69F48D9CF5A7492A9A516BCDD6200C09&assignmentId=0198ee4b-c2d7-779a-8212-cd2bf722eb6b&projectId=0198ee3c-27ac-7803-a9ea-f3b4ad4ad678","69F48D9CF5A7492A9A516BCDD6200C09-2025-08-28-02-13-41","","null","","[]","null","",""
"","","","","","image-button-response","31","160182","0.0-10.0-1.0-0.2","69F48D9CF5A7492A9A516BCDD6200C09","69F48D9CF5A7492A9A516BCDD6200C09","0198ee4b-c2d7-779a-8212-cd2bf722eb6b","0198ee3c-27ac-7803-a9ea-f3b4ad4ad678","{""num_scrambled_semantic"":""8"",""num_scrambled_causal"":""4"",""num_scrambled_schematic"":""4"",""participantId"":""69F48D9CF5A7492A9A516BCDD6200C09"",""assignmentId"":""0198ee4b-c2d7-779a-8212-cd2bf722eb6b"",""projectId"":""0198ee3c-27ac-7803-a9ea-f3b4ad4ad678""}","https://test12345.live/?num_scrambled_semantic=8&num_scrambled_causal=4&num_scrambled_schematic=4&participantId=69F48D9CF5A7492A9A516BCDD6200C09&assignmentId=0198ee4b-c2d7-779a-8212-cd2bf722eb6b&projectId=0198ee3c-27ac-7803-a9ea-f3b4ad4ad678","69F48D9CF5A7492A9A516BCDD6200C09-2025-08-28-02-13-41","","null","","images/semantic_sequence/redecorating_a_house_semantic/redecorating_a_house_semantic_2.png","null","",""
"","","","","","image-button-response","32","161494","0.0-10.0-1.0-1.2","69F48D9CF5A7492A9A516BCDD6200C09","69F48D9CF5A7492A9A516BCDD6200C09","0198ee4b-c2d7-779a-8212-cd2bf722eb6b","0198ee3c-27ac-7803-a9ea-f3b4ad4ad678","{""num_scrambled_semantic"":""8"",""num_scrambled_causal"":""4"",""num_scrambled_schematic"":""4"",""participantId"":""69F48D9CF5A7492A9A516BCDD6200C09"",""assignmentId"":""0198ee4b-c2d7-779a-8212-cd2bf722eb6b"",""projectId"":""0198ee3c-27ac-7803-a9ea-f3b4ad4ad678""}","https://test12345.live/?num_scrambled_semantic=8&num_scrambled_causal=4&num_scrambled_schematic=4&participantId=69F48D9CF5A7492A9A516BCDD6200C09&assignmentId=0198ee4b-c2d7-779a-8212-cd2bf722eb6b&projectId=0198ee3c-27ac-7803-a9ea-f3b4ad4ad678","69F48D9CF5A7492A9A516BCDD6200C09-2025-08-28-02-13-41","","1310","","images/semantic_sequence/redecorating_a_house_semantic/redecorating_a_house_semantic_2.png","0","",""
"","","","","","image-button-response","33","163296","0.0-10.0-1.0-2.2","69F48D9CF5A7492A9A516BCDD6200C09","69F48D9CF5A7492A9A516BCDD6200C09","0198ee4b-c2d7-779a-8212-cd2bf722eb6b","0198ee3c-27ac-7803-a9ea-f3b4ad4ad678","{""num_scrambled_semantic"":""8"",""num_scrambled_causal"":""4"",""num_scrambled_schematic"":""4"",""participantId"":""69F48D9CF5A7492A9A516BCDD6200C09"",""assignmentId"":""0198ee4b-c2d7-779a-8212-cd2bf722eb6b"",""projectId"":""0198ee3c-27ac-7803-a9ea-f3b4ad4ad678""}","https://test12345.live/?num_scrambled_semantic=8&num_scrambled_causal=4&num_scrambled_schematic=4&participantId=69F48D9CF5A7492A9A516BCDD6200C09&assignmentId=0198ee4b-c2d7-779a-8212-cd2bf722eb6b&projectId=0198ee3c-27ac-7803-a9ea-f3b4ad4ad678","69F48D9CF5A7492A9A516BCDD6200C09-2025-08-28-02-13-41","","null","","[]","null","",""
"","","","","","image-button-response","34","167800","0.0-10.0-1.0-0.3","69F48D9CF5A7492A9A516BCDD6200C09","69F48D9CF5A7492A9A516BCDD6200C09","0198ee4b-c2d7-779a-8212-cd2bf722eb6b","0198ee3c-27ac-7803-a9ea-f3b4ad4ad678","{""num_scrambled_semantic"":""8"",""num_scrambled_causal"":""4"",""num_scrambled_schematic"":""4"",""participantId"":""69F48D9CF5A7492A9A516BCDD6200C09"",""assignmentId"":""0198ee4b-c2d7-779a-8212-cd2bf722eb6b"",""projectId"":""0198ee3c-27ac-7803-a9ea-f3b4ad4ad678""}","https://test12345.live/?num_scrambled_semantic=8&num_scrambled_causal=4&num_scrambled_schematic=4&participantId=69F48D9CF5A7492A9A516BCDD6200C09&assignmentId=0198ee4b-c2d7-779a-8212-cd2bf722eb6b&projectId=0198ee3c-27ac-7803-a9ea-f3b4ad4ad678","69F48D9CF5A7492A9A516BCDD6200C09-2025-08-28-02-13-41","","null","","images/semantic_sequence/redecorating_a_house_semantic/redecorating_a_house_semantic_8.png","null","",""
"","","","","","image-button-response","35","169400","0.0-10.0-1.0-1.3","69F48D9CF5A7492A9A516BCDD6200C09","69F48D9CF5A7492A9A516BCDD6200C09","0198ee4b-c2d7-779a-8212-cd2bf722eb6b","0198ee3c-27ac-7803-a9ea-f3b4ad4ad678","{""num_scrambled_semantic"":""8"",""num_scrambled_causal"":""4"",""num_scrambled_schematic"":""4"",""participantId"":""69F48D9CF5A7492A9A516BCDD6200C09"",""assignmentId"":""0198ee4b-c2d7-779a-8212-cd2bf722eb6b"",""projectId"":""0198ee3c-27ac-7803-a9ea-f3b4ad4ad678""}","https://test12345.live/?num_scrambled_semantic=8&num_scrambled_causal=4&num_scrambled_schematic=4&participantId=69F48D9CF5A7492A9A516BCDD6200C09&assignmentId=0198ee4b-c2d7-779a-8212-cd2bf722eb6b&projectId=0198ee3c-27ac-7803-a9ea-f3b4ad4ad678","69F48D9CF5A7492A9A516BCDD6200C09-2025-08-28-02-13-41","","1599","","images/semantic_sequence/redecorating_a_house_semantic/redecorating_a_house_semantic_8.png","0","",""
"","","","","","image-button-response","36","171201","0.0-10.0-1.0-2.3","69F48D9CF5A7492A9A516BCDD6200C09","69F48D9CF5A7492A9A516BCDD6200C09","0198ee4b-c2d7-779a-8212-cd2bf722eb6b","0198ee3c-27ac-7803-a9ea-f3b4ad4ad678","{""num_scrambled_semantic"":""8"",""num_scrambled_causal"":""4"",""num_scrambled_schematic"":""4"",""participantId"":""69F48D9CF5A7492A9A516BCDD6200C09"",""assignmentId"":""0198ee4b-c2d7-779a-8212-cd2bf722eb6b"",""projectId"":""0198ee3c-27ac-7803-a9ea-f3b4ad4ad678""}","https://test12345.live/?num_scrambled_semantic=8&num_scrambled_causal=4&num_scrambled_schematic=4&participantId=69F48D9CF5A7492A9A516BCDD6200C09&assignmentId=0198ee4b-c2d7-779a-8212-cd2bf722eb6b&projectId=0198ee3c-27ac-7803-a9ea-f3b4ad4ad678","69F48D9CF5A7492A9A516BCDD6200C09-2025-08-28-02-13-41","","null","","[]","null","",""
"","","","","","image-button-response","37","175704","0.0-10.0-1.0-0.4","69F48D9CF5A7492A9A516BCDD6200C09","69F48D9CF5A7492A9A516BCDD6200C09","0198ee4b-c2d7-779a-8212-cd2bf722eb6b","0198ee3c-27ac-7803-a9ea-f3b4ad4ad678","{""num_scrambled_semantic"":""8"",""num_scrambled_causal"":""4"",""num_scrambled_schematic"":""4"",""participantId"":""69F48D9CF5A7492A9A516BCDD6200C09"",""assignmentId"":""0198ee4b-c2d7-779a-8212-cd2bf722eb6b"",""projectId"":""0198ee3c-27ac-7803-a9ea-f3b4ad4ad678""}","https://test12345.live/?num_scrambled_semantic=8&num_scrambled_causal=4&num_scrambled_schematic=4&participantId=69F48D9CF5A7492A9A516BCDD6200C09&assignmentId=0198ee4b-c2d7-779a-8212-cd2bf722eb6b&projectId=0198ee3c-27ac-7803-a9ea-f3b4ad4ad678","69F48D9CF5A7492A9A516BCDD6200C09-2025-08-28-02-13-41","","null","","images/semantic_sequence/redecorating_a_house_semantic/redecorating_a_house_semantic_7.png","null","",""
"","","","","","image-button-response","38","177160","0.0-10.0-1.0-1.4","69F48D9CF5A7492A9A516BCDD6200C09","69F48D9CF5A7492A9A516BCDD6200C09","0198ee4b-c2d7-779a-8212-cd2bf722eb6b","0198ee3c-27ac-7803-a9ea-f3b4ad4ad678","{""num_scrambled_semantic"":""8"",""num_scrambled_causal"":""4"",""num_scrambled_schematic"":""4"",""participantId"":""69F48D9CF5A7492A9A516BCDD6200C09"",""assignmentId"":""0198ee4b-c2d7-779a-8212-cd2bf722eb6b"",""projectId"":""0198ee3c-27ac-7803-a9ea-f3b4ad4ad678""}","https://test12345.live/?num_scrambled_semantic=8&num_scrambled_causal=4&num_scrambled_schematic=4&participantId=69F48D9CF5A7492A9A516BCDD6200C09&assignmentId=0198ee4b-c2d7-779a-8212-cd2bf722eb6b&projectId=0198ee3c-27ac-7803-a9ea-f3b4ad4ad678","69F48D9CF5A7492A9A516BCDD6200C09-2025-08-28-02-13-41","","1454","","images/semantic_sequence/redecorating_a_house_semantic/redecorating_a_house_semantic_7.png","0","",""
"","","","","","image-button-response","39","178962","0.0-10.0-1.0-2.4","69F48D9CF5A7492A9A516BCDD6200C09","69F48D9CF5A7492A9A516BCDD6200C09","0198ee4b-c2d7-779a-8212-cd2bf722eb6b","0198ee3c-27ac-7803-a9ea-f3b4ad4ad678","{""num_scrambled_semantic"":""8"",""num_scrambled_causal"":""4"",""num_scrambled_schematic"":""4"",""participantId"":""69F48D9CF5A7492A9A516BCDD6200C09"",""assignmentId"":""0198ee4b-c2d7-779a-8212-cd2bf722eb6b"",""projectId"":""0198ee3c-27ac-7803-a9ea-f3b4ad4ad678""}","https://test12345.live/?num_scrambled_semantic=8&num_scrambled_causal=4&num_scrambled_schematic=4&participantId=69F48D9CF5A7492A9A516BCDD6200C09&assignmentId=0198ee4b-c2d7-779a-8212-cd2bf722eb6b&projectId=0198ee3c-27ac-7803-a9ea-f3b4ad4ad678","69F48D9CF5A7492A9A516BCDD6200C09-2025-08-28-02-13-41","","null","","[]","null","",""
"","","","","","image-button-response","40","183465","0.0-10.0-1.0-0.5","69F48D9CF5A7492A9A516BCDD6200C09","69F48D9CF5A7492A9A516BCDD6200C09","0198ee4b-c2d7-779a-8212-cd2bf722eb6b","0198ee3c-27ac-7803-a9ea-f3b4ad4ad678","{""num_scrambled_semantic"":""8"",""num_scrambled_causal"":""4"",""num_scrambled_schematic"":""4"",""participantId"":""69F48D9CF5A7492A9A516BCDD6200C09"",""assignmentId"":""0198ee4b-c2d7-779a-8212-cd2bf722eb6b"",""projectId"":""0198ee3c-27ac-7803-a9ea-f3b4ad4ad678""}","https://test12345.live/?num_scrambled_semantic=8&num_scrambled_causal=4&num_scrambled_schematic=4&participantId=69F48D9CF5A7492A9A516BCDD6200C09&assignmentId=0198ee4b-c2d7-779a-8212-cd2bf722eb6b&projectId=0198ee3c-27ac-7803-a9ea-f3b4ad4ad678","69F48D9CF5A7492A9A516BCDD6200C09-2025-08-28-02-13-41","","null","","images/semantic_sequence/redecorating_a_house_semantic/redecorating_a_house_semantic_5.png","null","",""
"","","","","","image-button-response","41","184991","0.0-10.0-1.0-1.5","69F48D9CF5A7492A9A516BCDD6200C09","69F48D9CF5A7492A9A516BCDD6200C09","0198ee4b-c2d7-779a-8212-cd2bf722eb6b","0198ee3c-27ac-7803-a9ea-f3b4ad4ad678","{""num_scrambled_semantic"":""8"",""num_scrambled_causal"":""4"",""num_scrambled_schematic"":""4"",""participantId"":""69F48D9CF5A7492A9A516BCDD6200C09"",""assignmentId"":""0198ee4b-c2d7-779a-8212-cd2bf722eb6b"",""projectId"":""0198ee3c-27ac-7803-a9ea-f3b4ad4ad678""}","https://test12345.live/?num_scrambled_semantic=8&num_scrambled_causal=4&num_scrambled_schematic=4&participantId=69F48D9CF5A7492A9A516BCDD6200C09&assignmentId=0198ee4b-c2d7-779a-8212-cd2bf722eb6b&projectId=0198ee3c-27ac-7803-a9ea-f3b4ad4ad678","69F48D9CF5A7492A9A516BCDD6200C09-2025-08-28-02-13-41","","1524","","images/semantic_sequence/redecorating_a_house_semantic/redecorating_a_house_semantic_5.png","0","",""
"","","","","","image-button-response","42","186793","0.0-10.0-1.0-2.5","69F48D9CF5A7492A9A516BCDD6200C09","69F48D9CF5A7492A9A516BCDD6200C09","0198ee4b-c2d7-779a-8212-cd2bf722eb6b","0198ee3c-27ac-7803-a9ea-f3b4ad4ad678","{""num_scrambled_semantic"":""8"",""num_scrambled_causal"":""4"",""num_scrambled_schematic"":""4"",""participantId"":""69F48D9CF5A7492A9A516BCDD6200C09"",""assignmentId"":""0198ee4b-c2d7-779a-8212-cd2bf722eb6b"",""projectId"":""0198ee3c-27ac-7803-a9ea-f3b4ad4ad678""}","https://test12345.live/?num_scrambled_semantic=8&num_scrambled_causal=4&num_scrambled_schematic=4&participantId=69F48D9CF5A7492A9A516BCDD6200C09&assignmentId=0198ee4b-c2d7-779a-8212-cd2bf722eb6b&projectId=0198ee3c-27ac-7803-a9ea-f3b4ad4ad678","69F48D9CF5A7492A9A516BCDD6200C09-2025-08-28-02-13-41","","null","","[]","null","",""
"","","","","","image-button-response","43","191295","0.0-10.0-1.0-0.6","69F48D9CF5A7492A9A516BCDD6200C09","69F48D9CF5A7492A9A516BCDD6200C09","0198ee4b-c2d7-779a-8212-cd2bf722eb6b","0198ee3c-27ac-7803-a9ea-f3b4ad4ad678","{""num_scrambled_semantic"":""8"",""num_scrambled_causal"":""4"",""num_scrambled_schematic"":""4"",""participantId"":""69F48D9CF5A7492A9A516BCDD6200C09"",""assignmentId"":""0198ee4b-c2d7-779a-8212-cd2bf722eb6b"",""projectId"":""0198ee3c-27ac-7803-a9ea-f3b4ad4ad678""}","https://test12345.live/?num_scrambled_semantic=8&num_scrambled_causal=4&num_scrambled_schematic=4&participantId=69F48D9CF5A7492A9A516BCDD6200C09&assignmentId=0198ee4b-c2d7-779a-8212-cd2bf722eb6b&projectId=0198ee3c-27ac-7803-a9ea-f3b4ad4ad678","69F48D9CF5A7492A9A516BCDD6200C09-2025-08-28-02-13-41","","null","","images/semantic_sequence/redecorating_a_house_semantic/redecorating_a_house_semantic_4.png","null","",""
"","","","","","image-button-response","44","192300","0.0-10.0-1.0-1.6","69F48D9CF5A7492A9A516BCDD6200C09","69F48D9CF5A7492A9A516BCDD6200C09","0198ee4b-c2d7-779a-8212-cd2bf722eb6b","0198ee3c-27ac-7803-a9ea-f3b4ad4ad678","{""num_scrambled_semantic"":""8"",""num_scrambled_causal"":""4"",""num_scrambled_schematic"":""4"",""participantId"":""69F48D9CF5A7492A9A516BCDD6200C09"",""assignmentId"":""0198ee4b-c2d7-779a-8212-cd2bf722eb6b"",""projectId"":""0198ee3c-27ac-7803-a9ea-f3b4ad4ad678""}","https://test12345.live/?num_scrambled_semantic=8&num_scrambled_causal=4&num_scrambled_schematic=4&participantId=69F48D9CF5A7492A9A516BCDD6200C09&assignmentId=0198ee4b-c2d7-779a-8212-cd2bf722eb6b&projectId=0198ee3c-27ac-7803-a9ea-f3b4ad4ad678","69F48D9CF5A7492A9A516BCDD6200C09-2025-08-28-02-13-41","","1003","","images/semantic_sequence/redecorating_a_house_semantic/redecorating_a_house_semantic_4.png","0","",""
"","","","","","image-button-response","45","194102","0.0-10.0-1.0-2.6","69F48D9CF5A7492A9A516BCDD6200C09","69F48D9CF5A7492A9A516BCDD6200C09","0198ee4b-c2d7-779a-8212-cd2bf722eb6b","0198ee3c-27ac-7803-a9ea-f3b4ad4ad678","{""num_scrambled_semantic"":""8"",""num_scrambled_causal"":""4"",""num_scrambled_schematic"":""4"",""participantId"":""69F48D9CF5A7492A9A516BCDD6200C09"",""assignmentId"":""0198ee4b-c2d7-779a-8212-cd2bf722eb6b"",""projectId"":""0198ee3c-27ac-7803-a9ea-f3b4ad4ad678""}","https://test12345.live/?num_scrambled_semantic=8&num_scrambled_causal=4&num_scrambled_schematic=4&participantId=69F48D9CF5A7492A9A516BCDD6200C09&assignmentId=0198ee4b-c2d7-779a-8212-cd2bf722eb6b&projectId=0198ee3c-27ac-7803-a9ea-f3b4ad4ad678","69F48D9CF5A7492A9A516BCDD6200C09-2025-08-28-02-13-41","","null","","[]","null","",""
"","","","","","image-button-response","46","198604","0.0-10.0-1.0-0.7","69F48D9CF5A7492A9A516BCDD6200C09","69F48D9CF5A7492A9A516BCDD6200C09","0198ee4b-c2d7-779a-8212-cd2bf722eb6b","0198ee3c-27ac-7803-a9ea-f3b4ad4ad678","{""num_scrambled_semantic"":""8"",""num_scrambled_causal"":""4"",""num_scrambled_schematic"":""4"",""participantId"":""69F48D9CF5A7492A9A516BCDD6200C09"",""assignmentId"":""0198ee4b-c2d7-779a-8212-cd2bf722eb6b"",""projectId"":""0198ee3c-27ac-7803-a9ea-f3b4ad4ad678""}","https://test12345.live/?num_scrambled_semantic=8&num_scrambled_causal=4&num_scrambled_schematic=4&participantId=69F48D9CF5A7492A9A516BCDD6200C09&assignmentId=0198ee4b-c2d7-779a-8212-cd2bf722eb6b&projectId=0198ee3c-27ac-7803-a9ea-f3b4ad4ad678","69F48D9CF5A7492A9A516BCDD6200C09-2025-08-28-02-13-41","","null","","images/semantic_sequence/redecorating_a_house_semantic/redecorating_a_house_semantic_1.png","null","",""
"","","","","","image-button-response","47","199860","0.0-10.0-1.0-1.7","69F48D9CF5A7492A9A516BCDD6200C09","69F48D9CF5A7492A9A516BCDD6200C09","0198ee4b-c2d7-779a-8212-cd2bf722eb6b","0198ee3c-27ac-7803-a9ea-f3b4ad4ad678","{""num_scrambled_semantic"":""8"",""num_scrambled_causal"":""4"",""num_scrambled_schematic"":""4"",""participantId"":""69F48D9CF5A7492A9A516BCDD6200C09"",""assignmentId"":""0198ee4b-c2d7-779a-8212-cd2bf722eb6b"",""projectId"":""0198ee3c-27ac-7803-a9ea-f3b4ad4ad678""}","https://test12345.live/?num_scrambled_semantic=8&num_scrambled_causal=4&num_scrambled_schematic=4&participantId=69F48D9CF5A7492A9A516BCDD6200C09&assignmentId=0198ee4b-c2d7-779a-8212-cd2bf722eb6b&projectId=0198ee3c-27ac-7803-a9ea-f3b4ad4ad678","69F48D9CF5A7492A9A516BCDD6200C09-2025-08-28-02-13-41","","1254","","images/semantic_sequence/redecorating_a_house_semantic/redecorating_a_house_semantic_1.png","0","",""
"","","","","","image-button-response","48","201662","0.0-10.0-1.0-2.7","69F48D9CF5A7492A9A516BCDD6200C09","69F48D9CF5A7492A9A516BCDD6200C09","0198ee4b-c2d7-779a-8212-cd2bf722eb6b","0198ee3c-27ac-7803-a9ea-f3b4ad4ad678","{""num_scrambled_semantic"":""8"",""num_scrambled_causal"":""4"",""num_scrambled_schematic"":""4"",""participantId"":""69F48D9CF5A7492A9A516BCDD6200C09"",""assignmentId"":""0198ee4b-c2d7-779a-8212-cd2bf722eb6b"",""projectId"":""0198ee3c-27ac-7803-a9ea-f3b4ad4ad678""}","https://test12345.live/?num_scrambled_semantic=8&num_scrambled_causal=4&num_scrambled_schematic=4&participantId=69F48D9CF5A7492A9A516BCDD6200C09&assignmentId=0198ee4b-c2d7-779a-8212-cd2bf722eb6b&projectId=0198ee3c-27ac-7803-a9ea-f3b4ad4ad678","69F48D9CF5A7492A9A516BCDD6200C09-2025-08-28-02-13-41","","null","","[]","null","",""
"","","","","","image-button-response","49","206165","0.0-10.0-1.0-0.8","69F48D9CF5A7492A9A516BCDD6200C09","69F48D9CF5A7492A9A516BCDD6200C09","0198ee4b-c2d7-779a-8212-cd2bf722eb6b","0198ee3c-27ac-7803-a9ea-f3b4ad4ad678","{""num_scrambled_semantic"":""8"",""num_scrambled_causal"":""4"",""num_scrambled_schematic"":""4"",""participantId"":""69F48D9CF5A7492A9A516BCDD6200C09"",""assignmentId"":""0198ee4b-c2d7-779a-8212-cd2bf722eb6b"",""projectId"":""0198ee3c-27ac-7803-a9ea-f3b4ad4ad678""}","https://test12345.live/?num_scrambled_semantic=8&num_scrambled_causal=4&num_scrambled_schematic=4&participantId=69F48D9CF5A7492A9A516BCDD6200C09&assignmentId=0198ee4b-c2d7-779a-8212-cd2bf722eb6b&projectId=0198ee3c-27ac-7803-a9ea-f3b4ad4ad678","69F48D9CF5A7492A9A516BCDD6200C09-2025-08-28-02-13-41","","null","","images/semantic_sequence/redecorating_a_house_semantic/redecorating_a_house_semantic_ten.png","null","",""
"","","","","","image-button-response","50","207250","0.0-10.0-1.0-1.8","69F48D9CF5A7492A9A516BCDD6200C09","69F48D9CF5A7492A9A516BCDD6200C09","0198ee4b-c2d7-779a-8212-cd2bf722eb6b","0198ee3c-27ac-7803-a9ea-f3b4ad4ad678","{""num_scrambled_semantic"":""8"",""num_scrambled_causal"":""4"",""num_scrambled_schematic"":""4"",""participantId"":""69F48D9CF5A7492A9A516BCDD6200C09"",""assignmentId"":""0198ee4b-c2d7-779a-8212-cd2bf722eb6b"",""projectId"":""0198ee3c-27ac-7803-a9ea-f3b4ad4ad678""}","https://test12345.live/?num_scrambled_semantic=8&num_scrambled_causal=4&num_scrambled_schematic=4&participantId=69F48D9CF5A7492A9A516BCDD6200C09&assignmentId=0198ee4b-c2d7-779a-8212-cd2bf722eb6b&projectId=0198ee3c-27ac-7803-a9ea-f3b4ad4ad678","69F48D9CF5A7492A9A516BCDD6200C09-2025-08-28-02-13-41","","1084","","images/semantic_sequence/redecorating_a_house_semantic/redecorating_a_house_semantic_ten.png","0","",""
"","","","","","image-button-response","51","209052","0.0-10.0-1.0-2.8","69F48D9CF5A7492A9A516BCDD6200C09","69F48D9CF5A7492A9A516BCDD6200C09","0198ee4b-c2d7-779a-8212-cd2bf722eb6b","0198ee3c-27ac-7803-a9ea-f3b4ad4ad678","{""num_scrambled_semantic"":""8"",""num_scrambled_causal"":""4"",""num_scrambled_schematic"":""4"",""participantId"":""69F48D9CF5A7492A9A516BCDD6200C09"",""assignmentId"":""0198ee4b-c2d7-779a-8212-cd2bf722eb6b"",""projectId"":""0198ee3c-27ac-7803-a9ea-f3b4ad4ad678""}","https://test12345.live/?num_scrambled_semantic=8&num_scrambled_causal=4&num_scrambled_schematic=4&participantId=69F48D9CF5A7492A9A516BCDD6200C09&assignmentId=0198ee4b-c2d7-779a-8212-cd2bf722eb6b&projectId=0198ee3c-27ac-7803-a9ea-f3b4ad4ad678","69F48D9CF5A7492A9A516BCDD6200C09-2025-08-28-02-13-41","","null","","[]","null","",""
"","","","","","image-button-response","52","213555","0.0-10.0-1.0-0.9","69F48D9CF5A7492A9A516BCDD6200C09","69F48D9CF5A7492A9A516BCDD6200C09","0198ee4b-c2d7-779a-8212-cd2bf722eb6b","0198ee3c-27ac-7803-a9ea-f3b4ad4ad678","{""num_scrambled_semantic"":""8"",""num_scrambled_causal"":""4"",""num_scrambled_schematic"":""4"",""participantId"":""69F48D9CF5A7492A9A516BCDD6200C09"",""assignmentId"":""0198ee4b-c2d7-779a-8212-cd2bf722eb6b"",""projectId"":""0198ee3c-27ac-7803-a9ea-f3b4ad4ad678""}","https://test12345.live/?num_scrambled_semantic=8&num_scrambled_causal=4&num_scrambled_schematic=4&participantId=69F48D9CF5A7492A9A516BCDD6200C09&assignmentId=0198ee4b-c2d7-779a-8212-cd2bf722eb6b&projectId=0198ee3c-27ac-7803-a9ea-f3b4ad4ad678","69F48D9CF5A7492A9A516BCDD6200C09-2025-08-28-02-13-41","","null","","images/semantic_sequence/redecorating_a_house_semantic/redecorating_a_house_semantic_3.png","null","",""
"","","","","","image-button-response","53","214451","0.0-10.0-1.0-1.9","69F48D9CF5A7492A9A516BCDD6200C09","69F48D9CF5A7492A9A516BCDD6200C09","0198ee4b-c2d7-779a-8212-cd2bf722eb6b","0198ee3c-27ac-7803-a9ea-f3b4ad4ad678","{""num_scrambled_semantic"":""8"",""num_scrambled_causal"":""4"",""num_scrambled_schematic"":""4"",""participantId"":""69F48D9CF5A7492A9A516BCDD6200C09"",""assignmentId"":""0198ee4b-c2d7-779a-8212-cd2bf722eb6b"",""projectId"":""0198ee3c-27ac-7803-a9ea-f3b4ad4ad678""}","https://test12345.live/?num_scrambled_semantic=8&num_scrambled_causal=4&num_scrambled_schematic=4&participantId=69F48D9CF5A7492A9A516BCDD6200C09&assignmentId=0198ee4b-c2d7-779a-8212-cd2bf722eb6b&projectId=0198ee3c-27ac-7803-a9ea-f3b4ad4ad678","69F48D9CF5A7492A9A516BCDD6200C09-2025-08-28-02-13-41","","894","","images/semantic_sequence/redecorating_a_house_semantic/redecorating_a_house_semantic_3.png","0","",""
"","","","","","image-button-response","54","216252","0.0-10.0-1.0-2.9","69F48D9CF5A7492A9A516BCDD6200C09","69F48D9CF5A7492A9A516BCDD6200C09","0198ee4b-c2d7-779a-8212-cd2bf722eb6b","0198ee3c-27ac-7803-a9ea-f3b4ad4ad678","{""num_scrambled_semantic"":""8"",""num_scrambled_causal"":""4"",""num_scrambled_schematic"":""4"",""participantId"":""69F48D9CF5A7492A9A516BCDD6200C09"",""assignmentId"":""0198ee4b-c2d7-779a-8212-cd2bf722eb6b"",""projectId"":""0198ee3c-27ac-7803-a9ea-f3b4ad4ad678""}","https://test12345.live/?num_scrambled_semantic=8&num_scrambled_causal=4&num_scrambled_schematic=4&participantId=69F48D9CF5A7492A9A516BCDD6200C09&assignmentId=0198ee4b-c2d7-779a-8212-cd2bf722eb6b&projectId=0198ee3c-27ac-7803-a9ea-f3b4ad4ad678","69F48D9CF5A7492A9A516BCDD6200C09-2025-08-28-02-13-41","","null","","[]","null","",""
"","","","","","html-audio-response","55","243266","0.0-11.0","69F48D9CF5A7492A9A516BCDD6200C09","69F48D9CF5A7492A9A516BCDD6200C09","0198ee4b-c2d7-779a-8212-cd2bf722eb6b","0198ee3c-27ac-7803-a9ea-f3b4ad4ad678","{""num_scrambled_semantic"":""8"",""num_scrambled_causal"":""4"",""num_scrambled_schematic"":""4"",""participantId"":""69F48D9CF5A7492A9A516BCDD6200C09"",""assignmentId"":""0198ee4b-c2d7-779a-8212-cd2bf722eb6b"",""projectId"":""0198ee3c-27ac-7803-a9ea-f3b4ad4ad678""}","https://test12345.live/?num_scrambled_semantic=8&num_scrambled_causal=4&num_scrambled_schematic=4&participantId=69F48D9CF5A7492A9A516BCDD6200C09&assignmentId=0198ee4b-c2d7-779a-8212-cd2bf722eb6b&projectId=0198ee3c-27ac-7803-a9ea-f3b4ad4ad678","69F48D9CF5A7492A9A516BCDD6200C09-2025-08-28-02-13-41","","15286","","[""<span style=\""color: red; font-size: 24px\""> NOW RECORDING</span><p>Please say out loud all the images you saw, in the order of the story they create. Try to recall the sequence of events as they appeared in the story, not necessarily the order they were presented on the screen.</p>""]","","1","redecorating_a_house_semantic"
"","","","","","image-button-response","56","249273","0.0-12.0-0.0","69F48D9CF5A7492A9A516BCDD6200C09","69F48D9CF5A7492A9A516BCDD6200C09","0198ee4b-c2d7-779a-8212-cd2bf722eb6b","0198ee3c-27ac-7803-a9ea-f3b4ad4ad678","{""num_scrambled_semantic"":""8"",""num_scrambled_causal"":""4"",""num_scrambled_schematic"":""4"",""participantId"":""69F48D9CF5A7492A9A516BCDD6200C09"",""assignmentId"":""0198ee4b-c2d7-779a-8212-cd2bf722eb6b"",""projectId"":""0198ee3c-27ac-7803-a9ea-f3b4ad4ad678""}","https://test12345.live/?num_scrambled_semantic=8&num_scrambled_causal=4&num_scrambled_schematic=4&participantId=69F48D9CF5A7492A9A516BCDD6200C09&assignmentId=0198ee4b-c2d7-779a-8212-cd2bf722eb6b&projectId=0198ee3c-27ac-7803-a9ea-f3b4ad4ad678","69F48D9CF5A7492A9A516BCDD6200C09-2025-08-28-02-13-41","","null","","images/schematic_sequence/supermarket_scheme/supermarket_scheme_0.png","null","",""
"","","","","","image-button-response","57","253776","0.0-12.0-1.0-0.0","69F48D9CF5A7492A9A516BCDD6200C09","69F48D9CF5A7492A9A516BCDD6200C09","0198ee4b-c2d7-779a-8212-cd2bf722eb6b","0198ee3c-27ac-7803-a9ea-f3b4ad4ad678","{""num_scrambled_semantic"":""8"",""num_scrambled_causal"":""4"",""num_scrambled_schematic"":""4"",""participantId"":""69F48D9CF5A7492A9A516BCDD6200C09"",""assignmentId"":""0198ee4b-c2d7-779a-8212-cd2bf722eb6b"",""projectId"":""0198ee3c-27ac-7803-a9ea-f3b4ad4ad678""}","https://test12345.live/?num_scrambled_semantic=8&num_scrambled_causal=4&num_scrambled_schematic=4&participantId=69F48D9CF5A7492A9A516BCDD6200C09&assignmentId=0198ee4b-c2d7-779a-8212-cd2bf722eb6b&projectId=0198ee3c-27ac-7803-a9ea-f3b4ad4ad678","69F48D9CF5A7492A9A516BCDD6200C09-2025-08-28-02-13-41","","null","","images/schematic_sequence/supermarket_scheme/supermarket_scheme_8.png","null","",""
"","","","","","image-button-response","58","255071","0.0-12.0-1.0-1.0","69F48D9CF5A7492A9A516BCDD6200C09","69F48D9CF5A7492A9A516BCDD6200C09","0198ee4b-c2d7-779a-8212-cd2bf722eb6b","0198ee3c-27ac-7803-a9ea-f3b4ad4ad678","{""num_scrambled_semantic"":""8"",""num_scrambled_causal"":""4"",""num_scrambled_schematic"":""4"",""participantId"":""69F48D9CF5A7492A9A516BCDD6200C09"",""assignmentId"":""0198ee4b-c2d7-779a-8212-cd2bf722eb6b"",""projectId"":""0198ee3c-27ac-7803-a9ea-f3b4ad4ad678""}","https://test12345.live/?num_scrambled_semantic=8&num_scrambled_causal=4&num_scrambled_schematic=4&participantId=69F48D9CF5A7492A9A516BCDD6200C09&assignmentId=0198ee4b-c2d7-779a-8212-cd2bf722eb6b&projectId=0198ee3c-27ac-7803-a9ea-f3b4ad4ad678","69F48D9CF5A7492A9A516BCDD6200C09-2025-08-28-02-13-41","","1293","","images/schematic_sequence/supermarket_scheme/supermarket_scheme_8.png","0","",""
"","","","","","image-button-response","59","256874","0.0-12.0-1.0-2.0","69F48D9CF5A7492A9A516BCDD6200C09","69F48D9CF5A7492A9A516BCDD6200C09","0198ee4b-c2d7-779a-8212-cd2bf722eb6b","0198ee3c-27ac-7803-a9ea-f3b4ad4ad678","{""num_scrambled_semantic"":""8"",""num_scrambled_causal"":""4"",""num_scrambled_schematic"":""4"",""participantId"":""69F48D9CF5A7492A9A516BCDD6200C09"",""assignmentId"":""0198ee4b-c2d7-779a-8212-cd2bf722eb6b"",""projectId"":""0198ee3c-27ac-7803-a9ea-f3b4ad4ad678""}","https://test12345.live/?num_scrambled_semantic=8&num_scrambled_causal=4&num_scrambled_schematic=4&participantId=69F48D9CF5A7492A9A516BCDD6200C09&assignmentId=0198ee4b-c2d7-779a-8212-cd2bf722eb6b&projectId=0198ee3c-27ac-7803-a9ea-f3b4ad4ad678","69F48D9CF5A7492A9A516BCDD6200C09-2025-08-28-02-13-41","","null","","[]","null","",""
"","","","","","image-button-response","60","261376","0.0-12.0-1.0-0.1","69F48D9CF5A7492A9A516BCDD6200C09","69F48D9CF5A7492A9A516BCDD6200C09","0198ee4b-c2d7-779a-8212-cd2bf722eb6b","0198ee3c-27ac-7803-a9ea-f3b4ad4ad678","{""num_scrambled_semantic"":""8"",""num_scrambled_causal"":""4"",""num_scrambled_schematic"":""4"",""participantId"":""69F48D9CF5A7492A9A516BCDD6200C09"",""assignmentId"":""0198ee4b-c2d7-779a-8212-cd2bf722eb6b"",""projectId"":""0198ee3c-27ac-7803-a9ea-f3b4ad4ad678""}","https://test12345.live/?num_scrambled_semantic=8&num_scrambled_causal=4&num_scrambled_schematic=4&participantId=69F48D9CF5A7492A9A516BCDD6200C09&assignmentId=0198ee4b-c2d7-779a-8212-cd2bf722eb6b&projectId=0198ee3c-27ac-7803-a9ea-f3b4ad4ad678","69F48D9CF5A7492A9A516BCDD6200C09-2025-08-28-02-13-41","","null","","images/schematic_sequence/supermarket_scheme/supermarket_scheme_9.png","null","",""
"","","","","","image-button-response","61","262723","0.0-12.0-1.0-1.1","69F48D9CF5A7492A9A516BCDD6200C09","69F48D9CF5A7492A9A516BCDD6200C09","0198ee4b-c2d7-779a-8212-cd2bf722eb6b","0198ee3c-27ac-7803-a9ea-f3b4ad4ad678","{""num_scrambled_semantic"":""8"",""num_scrambled_causal"":""4"",""num_scrambled_schematic"":""4"",""participantId"":""69F48D9CF5A7492A9A516BCDD6200C09"",""assignmentId"":""0198ee4b-c2d7-779a-8212-cd2bf722eb6b"",""projectId"":""0198ee3c-27ac-7803-a9ea-f3b4ad4ad678""}","https://test12345.live/?num_scrambled_semantic=8&num_scrambled_causal=4&num_scrambled_schematic=4&participantId=69F48D9CF5A7492A9A516BCDD6200C09&assignmentId=0198ee4b-c2d7-779a-8212-cd2bf722eb6b&projectId=0198ee3c-27ac-7803-a9ea-f3b4ad4ad678","69F48D9CF5A7492A9A516BCDD6200C09-2025-08-28-02-13-41","","1346","","images/schematic_sequence/supermarket_scheme/supermarket_scheme_9.png","0","",""
"","","","","","image-button-response","62","264524","0.0-12.0-1.0-2.1","69F48D9CF5A7492A9A516BCDD6200C09","69F48D9CF5A7492A9A516BCDD6200C09","0198ee4b-c2d7-779a-8212-cd2bf722eb6b","0198ee3c-27ac-7803-a9ea-f3b4ad4ad678","{""num_scrambled_semantic"":""8"",""num_scrambled_causal"":""4"",""num_scrambled_schematic"":""4"",""participantId"":""69F48D9CF5A7492A9A516BCDD6200C09"",""assignmentId"":""0198ee4b-c2d7-779a-8212-cd2bf722eb6b"",""projectId"":""0198ee3c-27ac-7803-a9ea-f3b4ad4ad678""}","https://test12345.live/?num_scrambled_semantic=8&num_scrambled_causal=4&num_scrambled_schematic=4&participantId=69F48D9CF5A7492A9A516BCDD6200C09&assignmentId=0198ee4b-c2d7-779a-8212-cd2bf722eb6b&projectId=0198ee3c-27ac-7803-a9ea-f3b4ad4ad678","69F48D9CF5A7492A9A516BCDD6200C09-2025-08-28-02-13-41","","null","","[]","null","",""
"","","","","","image-button-response","63","269026","0.0-12.0-1.0-0.2","69F48D9CF5A7492A9A516BCDD6200C09","69F48D9CF5A7492A9A516BCDD6200C09","0198ee4b-c2d7-779a-8212-cd2bf722eb6b","0198ee3c-27ac-7803-a9ea-f3b4ad4ad678","{""num_scrambled_semantic"":""8"",""num_scrambled_causal"":""4"",""num_scrambled_schematic"":""4"",""participantId"":""69F48D9CF5A7492A9A516BCDD6200C09"",""assignmentId"":""0198ee4b-c2d7-779a-8212-cd2bf722eb6b"",""projectId"":""0198ee3c-27ac-7803-a9ea-f3b4ad4ad678""}","https://test12345.live/?num_scrambled_semantic=8&num_scrambled_causal=4&num_scrambled_schematic=4&participantId=69F48D9CF5A7492A9A516BCDD6200C09&assignmentId=0198ee4b-c2d7-779a-8212-cd2bf722eb6b&projectId=0198ee3c-27ac-7803-a9ea-f3b4ad4ad678","69F48D9CF5A7492A9A516BCDD6200C09-2025-08-28-02-13-41","","null","","images/schematic_sequence/supermarket_scheme/supermarket_scheme_3.png","null","",""
"","","","","","image-button-response","64","270792","0.0-12.0-1.0-1.2","69F48D9CF5A7492A9A516BCDD6200C09","69F48D9CF5A7492A9A516BCDD6200C09","0198ee4b-c2d7-779a-8212-cd2bf722eb6b","0198ee3c-27ac-7803-a9ea-f3b4ad4ad678","{""num_scrambled_semantic"":""8"",""num_scrambled_causal"":""4"",""num_scrambled_schematic"":""4"",""participantId"":""69F48D9CF5A7492A9A516BCDD6200C09"",""assignmentId"":""0198ee4b-c2d7-779a-8212-cd2bf722eb6b"",""projectId"":""0198ee3c-27ac-7803-a9ea-f3b4ad4ad678""}","https://test12345.live/?num_scrambled_semantic=8&num_scrambled_causal=4&num_scrambled_schematic=4&participantId=69F48D9CF5A7492A9A516BCDD6200C09&assignmentId=0198ee4b-c2d7-779a-8212-cd2bf722eb6b&projectId=0198ee3c-27ac-7803-a9ea-f3b4ad4ad678","69F48D9CF5A7492A9A516BCDD6200C09-2025-08-28-02-13-41","","1763","","images/schematic_sequence/supermarket_scheme/supermarket_scheme_3.png","1","",""
"","","","","","image-button-response","65","272594","0.0-12.0-1.0-2.2","69F48D9CF5A7492A9A516BCDD6200C09","69F48D9CF5A7492A9A516BCDD6200C09","0198ee4b-c2d7-779a-8212-cd2bf722eb6b","0198ee3c-27ac-7803-a9ea-f3b4ad4ad678","{""num_scrambled_semantic"":""8"",""num_scrambled_causal"":""4"",""num_scrambled_schematic"":""4"",""participantId"":""69F48D9CF5A7492A9A516BCDD6200C09"",""assignmentId"":""0198ee4b-c2d7-779a-8212-cd2bf722eb6b"",""projectId"":""0198ee3c-27ac-7803-a9ea-f3b4ad4ad678""}","https://test12345.live/?num_scrambled_semantic=8&num_scrambled_causal=4&num_scrambled_schematic=4&participantId=69F48D9CF5A7492A9A516BCDD6200C09&assignmentId=0198ee4b-c2d7-779a-8212-cd2bf722eb6b&projectId=0198ee3c-27ac-7803-a9ea-f3b4ad4ad678","69F48D9CF5A7492A9A516BCDD6200C09-2025-08-28-02-13-41","","null","","[]","null","",""
"","","","","","image-button-response","66","277098","0.0-12.0-1.0-0.3","69F48D9CF5A7492A9A516BCDD6200C09","69F48D9CF5A7492A9A516BCDD6200C09","0198ee4b-c2d7-779a-8212-cd2bf722eb6b","0198ee3c-27ac-7803-a9ea-f3b4ad4ad678","{""num_scrambled_semantic"":""8"",""num_scrambled_causal"":""4"",""num_scrambled_schematic"":""4"",""participantId"":""69F48D9CF5A7492A9A516BCDD6200C09"",""assignmentId"":""0198ee4b-c2d7-779a-8212-cd2bf722eb6b"",""projectId"":""0198ee3c-27ac-7803-a9ea-f3b4ad4ad678""}","https://test12345.live/?num_scrambled_semantic=8&num_scrambled_causal=4&num_scrambled_schematic=4&participantId=69F48D9CF5A7492A9A516BCDD6200C09&assignmentId=0198ee4b-c2d7-779a-8212-cd2bf722eb6b&projectId=0198ee3c-27ac-7803-a9ea-f3b4ad4ad678","69F48D9CF5A7492A9A516BCDD6200C09-2025-08-28-02-13-41","","null","","images/schematic_sequence/supermarket_scheme/supermarket_scheme_2.png","null","",""
"","","","","","image-button-response","67","279394","0.0-12.0-1.0-1.3","69F48D9CF5A7492A9A516BCDD6200C09","69F48D9CF5A7492A9A516BCDD6200C09","0198ee4b-c2d7-779a-8212-cd2bf722eb6b","0198ee3c-27ac-7803-a9ea-f3b4ad4ad678","{""num_scrambled_semantic"":""8"",""num_scrambled_causal"":""4"",""num_scrambled_schematic"":""4"",""participantId"":""69F48D9CF5A7492A9A516BCDD6200C09"",""assignmentId"":""0198ee4b-c2d7-779a-8212-cd2bf722eb6b"",""projectId"":""0198ee3c-27ac-7803-a9ea-f3b4ad4ad678""}","https://test12345.live/?num_scrambled_semantic=8&num_scrambled_causal=4&num_scrambled_schematic=4&participantId=69F48D9CF5A7492A9A516BCDD6200C09&assignmentId=0198ee4b-c2d7-779a-8212-cd2bf722eb6b&projectId=0198ee3c-27ac-7803-a9ea-f3b4ad4ad678","69F48D9CF5A7492A9A516BCDD6200C09-2025-08-28-02-13-41","","2295","","images/schematic_sequence/supermarket_scheme/supermarket_scheme_2.png","1","",""
"","","","","","image-button-response","68","281196","0.0-12.0-1.0-2.3","69F48D9CF5A7492A9A516BCDD6200C09","69F48D9CF5A7492A9A516BCDD6200C09","0198ee4b-c2d7-779a-8212-cd2bf722eb6b","0198ee3c-27ac-7803-a9ea-f3b4ad4ad678","{""num_scrambled_semantic"":""8"",""num_scrambled_causal"":""4"",""num_scrambled_schematic"":""4"",""participantId"":""69F48D9CF5A7492A9A516BCDD6200C09"",""assignmentId"":""0198ee4b-c2d7-779a-8212-cd2bf722eb6b"",""projectId"":""0198ee3c-27ac-7803-a9ea-f3b4ad4ad678""}","https://test12345.live/?num_scrambled_semantic=8&num_scrambled_causal=4&num_scrambled_schematic=4&participantId=69F48D9CF5A7492A9A516BCDD6200C09&assignmentId=0198ee4b-c2d7-779a-8212-cd2bf722eb6b&projectId=0198ee3c-27ac-7803-a9ea-f3b4ad4ad678","69F48D9CF5A7492A9A516BCDD6200C09-2025-08-28-02-13-41","","null","","[]","null","",""
"","","","","","image-button-response","69","285701","0.0-12.0-1.0-0.4","69F48D9CF5A7492A9A516BCDD6200C09","69F48D9CF5A7492A9A516BCDD6200C09","0198ee4b-c2d7-779a-8212-cd2bf722eb6b","0198ee3c-27ac-7803-a9ea-f3b4ad4ad678","{""num_scrambled_semantic"":""8"",""num_scrambled_causal"":""4"",""num_scrambled_schematic"":""4"",""participantId"":""69F48D9CF5A7492A9A516BCDD6200C09"",""assignmentId"":""0198ee4b-c2d7-779a-8212-cd2bf722eb6b"",""projectId"":""0198ee3c-27ac-7803-a9ea-f3b4ad4ad678""}","https://test12345.live/?num_scrambled_semantic=8&num_scrambled_causal=4&num_scrambled_schematic=4&participantId=69F48D9CF5A7492A9A516BCDD6200C09&assignmentId=0198ee4b-c2d7-779a-8212-cd2bf722eb6b&projectId=0198ee3c-27ac-7803-a9ea-f3b4ad4ad678","69F48D9CF5A7492A9A516BCDD6200C09-2025-08-28-02-13-41","","null","","images/schematic_sequence/supermarket_scheme/supermarket_scheme_7.png","null","",""
"","","","","","image-button-response","70","287481","0.0-12.0-1.0-1.4","69F48D9CF5A7492A9A516BCDD6200C09","69F48D9CF5A7492A9A516BCDD6200C09","0198ee4b-c2d7-779a-8212-cd2bf722eb6b","0198ee3c-27ac-7803-a9ea-f3b4ad4ad678","{""num_scrambled_semantic"":""8"",""num_scrambled_causal"":""4"",""num_scrambled_schematic"":""4"",""participantId"":""69F48D9CF5A7492A9A516BCDD6200C09"",""assignmentId"":""0198ee4b-c2d7-779a-8212-cd2bf722eb6b"",""projectId"":""0198ee3c-27ac-7803-a9ea-f3b4ad4ad678""}","https://test12345.live/?num_scrambled_semantic=8&num_scrambled_causal=4&num_scrambled_schematic=4&participantId=69F48D9CF5A7492A9A516BCDD6200C09&assignmentId=0198ee4b-c2d7-779a-8212-cd2bf722eb6b&projectId=0198ee3c-27ac-7803-a9ea-f3b4ad4ad678","69F48D9CF5A7492A9A516BCDD6200C09-2025-08-28-02-13-41","","1778","","images/schematic_sequence/supermarket_scheme/supermarket_scheme_7.png","0","",""
"","","","","","image-button-response","71","289283","0.0-12.0-1.0-2.4","69F48D9CF5A7492A9A516BCDD6200C09","69F48D9CF5A7492A9A516BCDD6200C09","0198ee4b-c2d7-779a-8212-cd2bf722eb6b","0198ee3c-27ac-7803-a9ea-f3b4ad4ad678","{""num_scrambled_semantic"":""8"",""num_scrambled_causal"":""4"",""num_scrambled_schematic"":""4"",""participantId"":""69F48D9CF5A7492A9A516BCDD6200C09"",""assignmentId"":""0198ee4b-c2d7-779a-8212-cd2bf722eb6b"",""projectId"":""0198ee3c-27ac-7803-a9ea-f3b4ad4ad678""}","https://test12345.live/?num_scrambled_semantic=8&num_scrambled_causal=4&num_scrambled_schematic=4&participantId=69F48D9CF5A7492A9A516BCDD6200C09&assignmentId=0198ee4b-c2d7-779a-8212-cd2bf722eb6b&projectId=0198ee3c-27ac-7803-a9ea-f3b4ad4ad678","69F48D9CF5A7492A9A516BCDD6200C09-2025-08-28-02-13-41","","null","","[]","null","",""
"","","","","","image-button-response","72","293785","0.0-12.0-1.0-0.5","69F48D9CF5A7492A9A516BCDD6200C09","69F48D9CF5A7492A9A516BCDD6200C09","0198ee4b-c2d7-779a-8212-cd2bf722eb6b","0198ee3c-27ac-7803-a9ea-f3b4ad4ad678","{""num_scrambled_semantic"":""8"",""num_scrambled_causal"":""4"",""num_scrambled_schematic"":""4"",""participantId"":""69F48D9CF5A7492A9A516BCDD6200C09"",""assignmentId"":""0198ee4b-c2d7-779a-8212-cd2bf722eb6b"",""projectId"":""0198ee3c-27ac-7803-a9ea-f3b4ad4ad678""}","https://test12345.live/?num_scrambled_semantic=8&num_scrambled_causal=4&num_scrambled_schematic=4&participantId=69F48D9CF5A7492A9A516BCDD6200C09&assignmentId=0198ee4b-c2d7-779a-8212-cd2bf722eb6b&projectId=0198ee3c-27ac-7803-a9ea-f3b4ad4ad678","69F48D9CF5A7492A9A516BCDD6200C09-2025-08-28-02-13-41","","null","","images/schematic_sequence/supermarket_scheme/supermarket_scheme_ten.png","null","",""
"","","","","","image-button-response","73","295626","0.0-12.0-1.0-1.5","69F48D9CF5A7492A9A516BCDD6200C09","69F48D9CF5A7492A9A516BCDD6200C09","0198ee4b-c2d7-779a-8212-cd2bf722eb6b","0198ee3c-27ac-7803-a9ea-f3b4ad4ad678","{""num_scrambled_semantic"":""8"",""num_scrambled_causal"":""4"",""num_scrambled_schematic"":""4"",""participantId"":""69F48D9CF5A7492A9A516BCDD6200C09"",""assignmentId"":""0198ee4b-c2d7-779a-8212-cd2bf722eb6b"",""projectId"":""0198ee3c-27ac-7803-a9ea-f3b4ad4ad678""}","https://test12345.live/?num_scrambled_semantic=8&num_scrambled_causal=4&num_scrambled_schematic=4&participantId=69F48D9CF5A7492A9A516BCDD6200C09&assignmentId=0198ee4b-c2d7-779a-8212-cd2bf722eb6b&projectId=0198ee3c-27ac-7803-a9ea-f3b4ad4ad678","69F48D9CF5A7492A9A516BCDD6200C09-2025-08-28-02-13-41","","1840","","images/schematic_sequence/supermarket_scheme/supermarket_scheme_ten.png","1","",""
"","","","","","image-button-response","74","297429","0.0-12.0-1.0-2.5","69F48D9CF5A7492A9A516BCDD6200C09","69F48D9CF5A7492A9A516BCDD6200C09","0198ee4b-c2d7-779a-8212-cd2bf722eb6b","0198ee3c-27ac-7803-a9ea-f3b4ad4ad678","{""num_scrambled_semantic"":""8"",""num_scrambled_causal"":""4"",""num_scrambled_schematic"":""4"",""participantId"":""69F48D9CF5A7492A9A516BCDD6200C09"",""assignmentId"":""0198ee4b-c2d7-779a-8212-cd2bf722eb6b"",""projectId"":""0198ee3c-27ac-7803-a9ea-f3b4ad4ad678""}","https://test12345.live/?num_scrambled_semantic=8&num_scrambled_causal=4&num_scrambled_schematic=4&participantId=69F48D9CF5A7492A9A516BCDD6200C09&assignmentId=0198ee4b-c2d7-779a-8212-cd2bf722eb6b&projectId=0198ee3c-27ac-7803-a9ea-f3b4ad4ad678","69F48D9CF5A7492A9A516BCDD6200C09-2025-08-28-02-13-41","","null","","[]","null","",""
"","","","","","image-button-response","75","301931","0.0-12.0-1.0-0.6","69F48D9CF5A7492A9A516BCDD6200C09","69F48D9CF5A7492A9A516BCDD6200C09","0198ee4b-c2d7-779a-8212-cd2bf722eb6b","0198ee3c-27ac-7803-a9ea-f3b4ad4ad678","{""num_scrambled_semantic"":""8"",""num_scrambled_causal"":""4"",""num_scrambled_schematic"":""4"",""participantId"":""69F48D9CF5A7492A9A516BCDD6200C09"",""assignmentId"":""0198ee4b-c2d7-779a-8212-cd2bf722eb6b"",""projectId"":""0198ee3c-27ac-7803-a9ea-f3b4ad4ad678""}","https://test12345.live/?num_scrambled_semantic=8&num_scrambled_causal=4&num_scrambled_schematic=4&participantId=69F48D9CF5A7492A9A516BCDD6200C09&assignmentId=0198ee4b-c2d7-779a-8212-cd2bf722eb6b&projectId=0198ee3c-27ac-7803-a9ea-f3b4ad4ad678","69F48D9CF5A7492A9A516BCDD6200C09-2025-08-28-02-13-41","","null","","images/schematic_sequence/supermarket_scheme/supermarket_scheme_1.png","null","",""
"","","","","","image-button-response","76","303330","0.0-12.0-1.0-1.6","69F48D9CF5A7492A9A516BCDD6200C09","69F48D9CF5A7492A9A516BCDD6200C09","0198ee4b-c2d7-779a-8212-cd2bf722eb6b","0198ee3c-27ac-7803-a9ea-f3b4ad4ad678","{""num_scrambled_semantic"":""8"",""num_scrambled_causal"":""4"",""num_scrambled_schematic"":""4"",""participantId"":""69F48D9CF5A7492A9A516BCDD6200C09"",""assignmentId"":""0198ee4b-c2d7-779a-8212-cd2bf722eb6b"",""projectId"":""0198ee3c-27ac-7803-a9ea-f3b4ad4ad678""}","https://test12345.live/?num_scrambled_semantic=8&num_scrambled_causal=4&num_scrambled_schematic=4&participantId=69F48D9CF5A7492A9A516BCDD6200C09&assignmentId=0198ee4b-c2d7-779a-8212-cd2bf722eb6b&projectId=0198ee3c-27ac-7803-a9ea-f3b4ad4ad678","69F48D9CF5A7492A9A516BCDD6200C09-2025-08-28-02-13-41","","1397","","images/schematic_sequence/supermarket_scheme/supermarket_scheme_1.png","1","",""
"","","","","","image-button-response","77","305133","0.0-12.0-1.0-2.6","69F48D9CF5A7492A9A516BCDD6200C09","69F48D9CF5A7492A9A516BCDD6200C09","0198ee4b-c2d7-779a-8212-cd2bf722eb6b","0198ee3c-27ac-7803-a9ea-f3b4ad4ad678","{""num_scrambled_semantic"":""8"",""num_scrambled_causal"":""4"",""num_scrambled_schematic"":""4"",""participantId"":""69F48D9CF5A7492A9A516BCDD6200C09"",""assignmentId"":""0198ee4b-c2d7-779a-8212-cd2bf722eb6b"",""projectId"":""0198ee3c-27ac-7803-a9ea-f3b4ad4ad678""}","https://test12345.live/?num_scrambled_semantic=8&num_scrambled_causal=4&num_scrambled_schematic=4&participantId=69F48D9CF5A7492A9A516BCDD6200C09&assignmentId=0198ee4b-c2d7-779a-8212-cd2bf722eb6b&projectId=0198ee3c-27ac-7803-a9ea-f3b4ad4ad678","69F48D9CF5A7492A9A516BCDD6200C09-2025-08-28-02-13-41","","null","","[]","null","",""
"","","","","","image-button-response","78","309635","0.0-12.0-1.0-0.7","69F48D9CF5A7492A9A516BCDD6200C09","69F48D9CF5A7492A9A516BCDD6200C09","0198ee4b-c2d7-779a-8212-cd2bf722eb6b","0198ee3c-27ac-7803-a9ea-f3b4ad4ad678","{""num_scrambled_semantic"":""8"",""num_scrambled_causal"":""4"",""num_scrambled_schematic"":""4"",""participantId"":""69F48D9CF5A7492A9A516BCDD6200C09"",""assignmentId"":""0198ee4b-c2d7-779a-8212-cd2bf722eb6b"",""projectId"":""0198ee3c-27ac-7803-a9ea-f3b4ad4ad678""}","https://test12345.live/?num_scrambled_semantic=8&num_scrambled_causal=4&num_scrambled_schematic=4&participantId=69F48D9CF5A7492A9A516BCDD6200C09&assignmentId=0198ee4b-c2d7-779a-8212-cd2bf722eb6b&projectId=0198ee3c-27ac-7803-a9ea-f3b4ad4ad678","69F48D9CF5A7492A9A516BCDD6200C09-2025-08-28-02-13-41","","null","","images/schematic_sequence/supermarket_scheme/supermarket_scheme_4.png","null","",""
"","","","","","image-button-response","79","311680","0.0-12.0-1.0-1.7","69F48D9CF5A7492A9A516BCDD6200C09","69F48D9CF5A7492A9A516BCDD6200C09","0198ee4b-c2d7-779a-8212-cd2bf722eb6b","0198ee3c-27ac-7803-a9ea-f3b4ad4ad678","{""num_scrambled_semantic"":""8"",""num_scrambled_causal"":""4"",""num_scrambled_schematic"":""4"",""participantId"":""69F48D9CF5A7492A9A516BCDD6200C09"",""assignmentId"":""0198ee4b-c2d7-779a-8212-cd2bf722eb6b"",""projectId"":""0198ee3c-27ac-7803-a9ea-f3b4ad4ad678""}","https://test12345.live/?num_scrambled_semantic=8&num_scrambled_causal=4&num_scrambled_schematic=4&participantId=69F48D9CF5A7492A9A516BCDD6200C09&assignmentId=0198ee4b-c2d7-779a-8212-cd2bf722eb6b&projectId=0198ee3c-27ac-7803-a9ea-f3b4ad4ad678","69F48D9CF5A7492A9A516BCDD6200C09-2025-08-28-02-13-41","","2043","","images/schematic_sequence/supermarket_scheme/supermarket_scheme_4.png","0","",""
"","","","","","image-button-response","80","313482","0.0-12.0-1.0-2.7","69F48D9CF5A7492A9A516BCDD6200C09","69F48D9CF5A7492A9A516BCDD6200C09","0198ee4b-c2d7-779a-8212-cd2bf722eb6b","0198ee3c-27ac-7803-a9ea-f3b4ad4ad678","{""num_scrambled_semantic"":""8"",""num_scrambled_causal"":""4"",""num_scrambled_schematic"":""4"",""participantId"":""69F48D9CF5A7492A9A516BCDD6200C09"",""assignmentId"":""0198ee4b-c2d7-779a-8212-cd2bf722eb6b"",""projectId"":""0198ee3c-27ac-7803-a9ea-f3b4ad4ad678""}","https://test12345.live/?num_scrambled_semantic=8&num_scrambled_causal=4&num_scrambled_schematic=4&participantId=69F48D9CF5A7492A9A516BCDD6200C09&assignmentId=0198ee4b-c2d7-779a-8212-cd2bf722eb6b&projectId=0198ee3c-27ac-7803-a9ea-f3b4ad4ad678","69F48D9CF5A7492A9A516BCDD6200C09-2025-08-28-02-13-41","","null","","[]","null","",""
"","","","","","image-button-response","81","317984","0.0-12.0-1.0-0.8","69F48D9CF5A7492A9A516BCDD6200C09","69F48D9CF5A7492A9A516BCDD6200C09","0198ee4b-c2d7-779a-8212-cd2bf722eb6b","0198ee3c-27ac-7803-a9ea-f3b4ad4ad678","{""num_scrambled_semantic"":""8"",""num_scrambled_causal"":""4"",""num_scrambled_schematic"":""4"",""participantId"":""69F48D9CF5A7492A9A516BCDD6200C09"",""assignmentId"":""0198ee4b-c2d7-779a-8212-cd2bf722eb6b"",""projectId"":""0198ee3c-27ac-7803-a9ea-f3b4ad4ad678""}","https://test12345.live/?num_scrambled_semantic=8&num_scrambled_causal=4&num_scrambled_schematic=4&participantId=69F48D9CF5A7492A9A516BCDD6200C09&assignmentId=0198ee4b-c2d7-779a-8212-cd2bf722eb6b&projectId=0198ee3c-27ac-7803-a9ea-f3b4ad4ad678","69F48D9CF5A7492A9A516BCDD6200C09-2025-08-28-02-13-41","","null","","images/schematic_sequence/supermarket_scheme/supermarket_scheme_5.png","null","",""
"","","","","","image-button-response","82","319930","0.0-12.0-1.0-1.8","69F48D9CF5A7492A9A516BCDD6200C09","69F48D9CF5A7492A9A516BCDD6200C09","0198ee4b-c2d7-779a-8212-cd2bf722eb6b","0198ee3c-27ac-7803-a9ea-f3b4ad4ad678","{""num_scrambled_semantic"":""8"",""num_scrambled_causal"":""4"",""num_scrambled_schematic"":""4"",""participantId"":""69F48D9CF5A7492A9A516BCDD6200C09"",""assignmentId"":""0198ee4b-c2d7-779a-8212-cd2bf722eb6b"",""projectId"":""0198ee3c-27ac-7803-a9ea-f3b4ad4ad678""}","https://test12345.live/?num_scrambled_semantic=8&num_scrambled_causal=4&num_scrambled_schematic=4&participantId=69F48D9CF5A7492A9A516BCDD6200C09&assignmentId=0198ee4b-c2d7-779a-8212-cd2bf722eb6b&projectId=0198ee3c-27ac-7803-a9ea-f3b4ad4ad678","69F48D9CF5A7492A9A516BCDD6200C09-2025-08-28-02-13-41","","1945","","images/schematic_sequence/supermarket_scheme/supermarket_scheme_5.png","1","",""
"","","","","","image-button-response","83","321734","0.0-12.0-1.0-2.8","69F48D9CF5A7492A9A516BCDD6200C09","69F48D9CF5A7492A9A516BCDD6200C09","0198ee4b-c2d7-779a-8212-cd2bf722eb6b","0198ee3c-27ac-7803-a9ea-f3b4ad4ad678","{""num_scrambled_semantic"":""8"",""num_scrambled_causal"":""4"",""num_scrambled_schematic"":""4"",""participantId"":""69F48D9CF5A7492A9A516BCDD6200C09"",""assignmentId"":""0198ee4b-c2d7-779a-8212-cd2bf722eb6b"",""projectId"":""0198ee3c-27ac-7803-a9ea-f3b4ad4ad678""}","https://test12345.live/?num_scrambled_semantic=8&num_scrambled_causal=4&num_scrambled_schematic=4&participantId=69F48D9CF5A7492A9A516BCDD6200C09&assignmentId=0198ee4b-c2d7-779a-8212-cd2bf722eb6b&projectId=0198ee3c-27ac-7803-a9ea-f3b4ad4ad678","69F48D9CF5A7492A9A516BCDD6200C09-2025-08-28-02-13-41","","null","","[]","null","",""
"","","","","","image-button-response","84","326238","0.0-12.0-1.0-0.9","69F48D9CF5A7492A9A516BCDD6200C09","69F48D9CF5A7492A9A516BCDD6200C09","0198ee4b-c2d7-779a-8212-cd2bf722eb6b","0198ee3c-27ac-7803-a9ea-f3b4ad4ad678","{""num_scrambled_semantic"":""8"",""num_scrambled_causal"":""4"",""num_scrambled_schematic"":""4"",""participantId"":""69F48D9CF5A7492A9A516BCDD6200C09"",""assignmentId"":""0198ee4b-c2d7-779a-8212-cd2bf722eb6b"",""projectId"":""0198ee3c-27ac-7803-a9ea-f3b4ad4ad678""}","https://test12345.live/?num_scrambled_semantic=8&num_scrambled_causal=4&num_scrambled_schematic=4&participantId=69F48D9CF5A7492A9A516BCDD6200C09&assignmentId=0198ee4b-c2d7-779a-8212-cd2bf722eb6b&projectId=0198ee3c-27ac-7803-a9ea-f3b4ad4ad678","69F48D9CF5A7492A9A516BCDD6200C09-2025-08-28-02-13-41","","null","","images/schematic_sequence/supermarket_scheme/supermarket_scheme_6.png","null","",""
"","","","","","image-button-response","85","327843","0.0-12.0-1.0-1.9","69F48D9CF5A7492A9A516BCDD6200C09","69F48D9CF5A7492A9A516BCDD6200C09","0198ee4b-c2d7-779a-8212-cd2bf722eb6b","0198ee3c-27ac-7803-a9ea-f3b4ad4ad678","{""num_scrambled_semantic"":""8"",""num_scrambled_causal"":""4"",""num_scrambled_schematic"":""4"",""participantId"":""69F48D9CF5A7492A9A516BCDD6200C09"",""assignmentId"":""0198ee4b-c2d7-779a-8212-cd2bf722eb6b"",""projectId"":""0198ee3c-27ac-7803-a9ea-f3b4ad4ad678""}","https://test12345.live/?num_scrambled_semantic=8&num_scrambled_causal=4&num_scrambled_schematic=4&participantId=69F48D9CF5A7492A9A516BCDD6200C09&assignmentId=0198ee4b-c2d7-779a-8212-cd2bf722eb6b&projectId=0198ee3c-27ac-7803-a9ea-f3b4ad4ad678","69F48D9CF5A7492A9A516BCDD6200C09-2025-08-28-02-13-41","","1603","","images/schematic_sequence/supermarket_scheme/supermarket_scheme_6.png","0","",""
"","","","","","image-button-response","86","329644","0.0-12.0-1.0-2.9","69F48D9CF5A7492A9A516BCDD6200C09","69F48D9CF5A7492A9A516BCDD6200C09","0198ee4b-c2d7-779a-8212-cd2bf722eb6b","0198ee3c-27ac-7803-a9ea-f3b4ad4ad678","{""num_scrambled_semantic"":""8"",""num_scrambled_causal"":""4"",""num_scrambled_schematic"":""4"",""participantId"":""69F48D9CF5A7492A9A516BCDD6200C09"",""assignmentId"":""0198ee4b-c2d7-779a-8212-cd2bf722eb6b"",""projectId"":""0198ee3c-27ac-7803-a9ea-f3b4ad4ad678""}","https://test12345.live/?num_scrambled_semantic=8&num_scrambled_causal=4&num_scrambled_schematic=4&participantId=69F48D9CF5A7492A9A516BCDD6200C09&assignmentId=0198ee4b-c2d7-779a-8212-cd2bf722eb6b&projectId=0198ee3c-27ac-7803-a9ea-f3b4ad4ad678","69F48D9CF5A7492A9A516BCDD6200C09-2025-08-28-02-13-41","","null","","[]","null","",""
"","","","","","html-audio-response","87","347828","0.0-13.0","69F48D9CF5A7492A9A516BCDD6200C09","69F48D9CF5A7492A9A516BCDD6200C09","0198ee4b-c2d7-779a-8212-cd2bf722eb6b","0198ee3c-27ac-7803-a9ea-f3b4ad4ad678","{""num_scrambled_semantic"":""8"",""num_scrambled_causal"":""4"",""num_scrambled_schematic"":""4"",""participantId"":""69F48D9CF5A7492A9A516BCDD6200C09"",""assignmentId"":""0198ee4b-c2d7-779a-8212-cd2bf722eb6b"",""projectId"":""0198ee3c-27ac-7803-a9ea-f3b4ad4ad678""}","https://test12345.live/?num_scrambled_semantic=8&num_scrambled_causal=4&num_scrambled_schematic=4&participantId=69F48D9CF5A7492A9A516BCDD6200C09&assignmentId=0198ee4b-c2d7-779a-8212-cd2bf722eb6b&projectId=0198ee3c-27ac-7803-a9ea-f3b4ad4ad678","69F48D9CF5A7492A9A516BCDD6200C09-2025-08-28-02-13-41","","16678","","[""<span style=\""color: red; font-size: 24px\""> NOW RECORDING</span><p>Please say out loud all the images you saw, in the order of the story they create. Try to recall the sequence of events as they appeared in the story, not necessarily the order they were presented on the screen.</p>""]","","5","supermarket_scheme"
"","","","","","image-button-response","88","353834","0.0-14.0-0.0","69F48D9CF5A7492A9A516BCDD6200C09","69F48D9CF5A7492A9A516BCDD6200C09","0198ee4b-c2d7-779a-8212-cd2bf722eb6b","0198ee3c-27ac-7803-a9ea-f3b4ad4ad678","{""num_scrambled_semantic"":""8"",""num_scrambled_causal"":""4"",""num_scrambled_schematic"":""4"",""participantId"":""69F48D9CF5A7492A9A516BCDD6200C09"",""assignmentId"":""0198ee4b-c2d7-779a-8212-cd2bf722eb6b"",""projectId"":""0198ee3c-27ac-7803-a9ea-f3b4ad4ad678""}","https://test12345.live/?num_scrambled_semantic=8&num_scrambled_causal=4&num_scrambled_schematic=4&participantId=69F48D9CF5A7492A9A516BCDD6200C09&assignmentId=0198ee4b-c2d7-779a-8212-cd2bf722eb6b&projectId=0198ee3c-27ac-7803-a9ea-f3b4ad4ad678","69F48D9CF5A7492A9A516BCDD6200C09-2025-08-28-02-13-41","","null","","images/causal_sequence/museum_causal/museum_causal_0.png","null","",""
"","","","","","image-button-response","89","358336","0.0-14.0-1.0-0.0","69F48D9CF5A7492A9A516BCDD6200C09","69F48D9CF5A7492A9A516BCDD6200C09","0198ee4b-c2d7-779a-8212-cd2bf722eb6b","0198ee3c-27ac-7803-a9ea-f3b4ad4ad678","{""num_scrambled_semantic"":""8"",""num_scrambled_causal"":""4"",""num_scrambled_schematic"":""4"",""participantId"":""69F48D9CF5A7492A9A516BCDD6200C09"",""assignmentId"":""0198ee4b-c2d7-779a-8212-cd2bf722eb6b"",""projectId"":""0198ee3c-27ac-7803-a9ea-f3b4ad4ad678""}","https://test12345.live/?num_scrambled_semantic=8&num_scrambled_causal=4&num_scrambled_schematic=4&participantId=69F48D9CF5A7492A9A516BCDD6200C09&assignmentId=0198ee4b-c2d7-779a-8212-cd2bf722eb6b&projectId=0198ee3c-27ac-7803-a9ea-f3b4ad4ad678","69F48D9CF5A7492A9A516BCDD6200C09-2025-08-28-02-13-41","","null","","images/causal_sequence/museum_causal/museum_causal_9.png","null","",""
"","","","","","image-button-response","90","359941","0.0-14.0-1.0-1.0","69F48D9CF5A7492A9A516BCDD6200C09","69F48D9CF5A7492A9A516BCDD6200C09","0198ee4b-c2d7-779a-8212-cd2bf722eb6b","0198ee3c-27ac-7803-a9ea-f3b4ad4ad678","{""num_scrambled_semantic"":""8"",""num_scrambled_causal"":""4"",""num_scrambled_schematic"":""4"",""participantId"":""69F48D9CF5A7492A9A516BCDD6200C09"",""assignmentId"":""0198ee4b-c2d7-779a-8212-cd2bf722eb6b"",""projectId"":""0198ee3c-27ac-7803-a9ea-f3b4ad4ad678""}","https://test12345.live/?num_scrambled_semantic=8&num_scrambled_causal=4&num_scrambled_schematic=4&participantId=69F48D9CF5A7492A9A516BCDD6200C09&assignmentId=0198ee4b-c2d7-779a-8212-cd2bf722eb6b&projectId=0198ee3c-27ac-7803-a9ea-f3b4ad4ad678","69F48D9CF5A7492A9A516BCDD6200C09-2025-08-28-02-13-41","","1602","","images/causal_sequence/museum_causal/museum_causal_9.png","1","",""
"","","","","","image-button-response","91","361743","0.0-14.0-1.0-2.0","69F48D9CF5A7492A9A516BCDD6200C09","69F48D9CF5A7492A9A516BCDD6200C09","0198ee4b-c2d7-779a-8212-cd2bf722eb6b","0198ee3c-27ac-7803-a9ea-f3b4ad4ad678","{""num_scrambled_semantic"":""8"",""num_scrambled_causal"":""4"",""num_scrambled_schematic"":""4"",""participantId"":""69F48D9CF5A7492A9A516BCDD6200C09"",""assignmentId"":""0198ee4b-c2d7-779a-8212-cd2bf722eb6b"",""projectId"":""0198ee3c-27ac-7803-a9ea-f3b4ad4ad678""}","https://test12345.live/?num_scrambled_semantic=8&num_scrambled_causal=4&num_scrambled_schematic=4&participantId=69F48D9CF5A7492A9A516BCDD6200C09&assignmentId=0198ee4b-c2d7-779a-8212-cd2bf722eb6b&projectId=0198ee3c-27ac-7803-a9ea-f3b4ad4ad678","69F48D9CF5A7492A9A516BCDD6200C09-2025-08-28-02-13-41","","null","","[]","null","",""
"","","","","","image-button-response","92","366246","0.0-14.0-1.0-0.1","69F48D9CF5A7492A9A516BCDD6200C09","69F48D9CF5A7492A9A516BCDD6200C09","0198ee4b-c2d7-779a-8212-cd2bf722eb6b","0198ee3c-27ac-7803-a9ea-f3b4ad4ad678","{""num_scrambled_semantic"":""8"",""num_scrambled_causal"":""4"",""num_scrambled_schematic"":""4"",""participantId"":""69F48D9CF5A7492A9A516BCDD6200C09"",""assignmentId"":""0198ee4b-c2d7-779a-8212-cd2bf722eb6b"",""projectId"":""0198ee3c-27ac-7803-a9ea-f3b4ad4ad678""}","https://test12345.live/?num_scrambled_semantic=8&num_scrambled_causal=4&num_scrambled_schematic=4&participantId=69F48D9CF5A7492A9A516BCDD6200C09&assignmentId=0198ee4b-c2d7-779a-8212-cd2bf722eb6b&projectId=0198ee3c-27ac-7803-a9ea-f3b4ad4ad678","69F48D9CF5A7492A9A516BCDD6200C09-2025-08-28-02-13-41","","null","","images/causal_sequence/museum_causal/museum_causal_ten.png","null","",""
"","","","","","image-button-response","93","367910","0.0-14.0-1.0-1.1","69F48D9CF5A7492A9A516BCDD6200C09","69F48D9CF5A7492A9A516BCDD6200C09","0198ee4b-c2d7-779a-8212-cd2bf722eb6b","0198ee3c-27ac-7803-a9ea-f3b4ad4ad678","{""num_scrambled_semantic"":""8"",""num_scrambled_causal"":""4"",""num_scrambled_schematic"":""4"",""participantId"":""69F48D9CF5A7492A9A516BCDD6200C09"",""assignmentId"":""0198ee4b-c2d7-779a-8212-cd2bf722eb6b"",""projectId"":""0198ee3c-27ac-7803-a9ea-f3b4ad4ad678""}","https://test12345.live/?num_scrambled_semantic=8&num_scrambled_causal=4&num_scrambled_schematic=4&participantId=69F48D9CF5A7492A9A516BCDD6200C09&assignmentId=0198ee4b-c2d7-779a-8212-cd2bf722eb6b&projectId=0198ee3c-27ac-7803-a9ea-f3b4ad4ad678","69F48D9CF5A7492A9A516BCDD6200C09-2025-08-28-02-13-41","","1661","","images/causal_sequence/museum_causal/museum_causal_ten.png","0","",""
"","","","","","image-button-response","94","369712","0.0-14.0-1.0-2.1","69F48D9CF5A7492A9A516BCDD6200C09","69F48D9CF5A7492A9A516BCDD6200C09","0198ee4b-c2d7-779a-8212-cd2bf722eb6b","0198ee3c-27ac-7803-a9ea-f3b4ad4ad678","{""num_scrambled_semantic"":""8"",""num_scrambled_causal"":""4"",""num_scrambled_schematic"":""4"",""participantId"":""69F48D9CF5A7492A9A516BCDD6200C09"",""assignmentId"":""0198ee4b-c2d7-779a-8212-cd2bf722eb6b"",""projectId"":""0198ee3c-27ac-7803-a9ea-f3b4ad4ad678""}","https://test12345.live/?num_scrambled_semantic=8&num_scrambled_causal=4&num_scrambled_schematic=4&participantId=69F48D9CF5A7492A9A516BCDD6200C09&assignmentId=0198ee4b-c2d7-779a-8212-cd2bf722eb6b&projectId=0198ee3c-27ac-7803-a9ea-f3b4ad4ad678","69F48D9CF5A7492A9A516BCDD6200C09-2025-08-28-02-13-41","","null","","[]","null","",""
"","","","","","image-button-response","95","374213","0.0-14.0-1.0-0.2","69F48D9CF5A7492A9A516BCDD6200C09","69F48D9CF5A7492A9A516BCDD6200C09","0198ee4b-c2d7-779a-8212-cd2bf722eb6b","0198ee3c-27ac-7803-a9ea-f3b4ad4ad678","{""num_scrambled_semantic"":""8"",""num_scrambled_causal"":""4"",""num_scrambled_schematic"":""4"",""participantId"":""69F48D9CF5A7492A9A516BCDD6200C09"",""assignmentId"":""0198ee4b-c2d7-779a-8212-cd2bf722eb6b"",""projectId"":""0198ee3c-27ac-7803-a9ea-f3b4ad4ad678""}","https://test12345.live/?num_scrambled_semantic=8&num_scrambled_causal=4&num_scrambled_schematic=4&participantId=69F48D9CF5A7492A9A516BCDD6200C09&assignmentId=0198ee4b-c2d7-779a-8212-cd2bf722eb6b&projectId=0198ee3c-27ac-7803-a9ea-f3b4ad4ad678","69F48D9CF5A7492A9A516BCDD6200C09-2025-08-28-02-13-41","","null","","images/causal_sequence/museum_causal/museum_causal_1.png","null","",""
"","","","","","image-button-response","96","375693","0.0-14.0-1.0-1.2","69F48D9CF5A7492A9A516BCDD6200C09","69F48D9CF5A7492A9A516BCDD6200C09","0198ee4b-c2d7-779a-8212-cd2bf722eb6b","0198ee3c-27ac-7803-a9ea-f3b4ad4ad678","{""num_scrambled_semantic"":""8"",""num_scrambled_causal"":""4"",""num_scrambled_schematic"":""4"",""participantId"":""69F48D9CF5A7492A9A516BCDD6200C09"",""assignmentId"":""0198ee4b-c2d7-779a-8212-cd2bf722eb6b"",""projectId"":""0198ee3c-27ac-7803-a9ea-f3b4ad4ad678""}","https://test12345.live/?num_scrambled_semantic=8&num_scrambled_causal=4&num_scrambled_schematic=4&participantId=69F48D9CF5A7492A9A516BCDD6200C09&assignmentId=0198ee4b-c2d7-779a-8212-cd2bf722eb6b&projectId=0198ee3c-27ac-7803-a9ea-f3b4ad4ad678","69F48D9CF5A7492A9A516BCDD6200C09-2025-08-28-02-13-41","","1478","","images/causal_sequence/museum_causal/museum_causal_1.png","0","",""
"","","","","","image-button-response","97","377495","0.0-14.0-1.0-2.2","69F48D9CF5A7492A9A516BCDD6200C09","69F48D9CF5A7492A9A516BCDD6200C09","0198ee4b-c2d7-779a-8212-cd2bf722eb6b","0198ee3c-27ac-7803-a9ea-f3b4ad4ad678","{""num_scrambled_semantic"":""8"",""num_scrambled_causal"":""4"",""num_scrambled_schematic"":""4"",""participantId"":""69F48D9CF5A7492A9A516BCDD6200C09"",""assignmentId"":""0198ee4b-c2d7-779a-8212-cd2bf722eb6b"",""projectId"":""0198ee3c-27ac-7803-a9ea-f3b4ad4ad678""}","https://test12345.live/?num_scrambled_semantic=8&num_scrambled_causal=4&num_scrambled_schematic=4&participantId=69F48D9CF5A7492A9A516BCDD6200C09&assignmentId=0198ee4b-c2d7-779a-8212-cd2bf722eb6b&projectId=0198ee3c-27ac-7803-a9ea-f3b4ad4ad678","69F48D9CF5A7492A9A516BCDD6200C09-2025-08-28-02-13-41","","null","","[]","null","",""
"","","","","","image-button-response","98","381998","0.0-14.0-1.0-0.3","69F48D9CF5A7492A9A516BCDD6200C09","69F48D9CF5A7492A9A516BCDD6200C09","0198ee4b-c2d7-779a-8212-cd2bf722eb6b","0198ee3c-27ac-7803-a9ea-f3b4ad4ad678","{""num_scrambled_semantic"":""8"",""num_scrambled_causal"":""4"",""num_scrambled_schematic"":""4"",""participantId"":""69F48D9CF5A7492A9A516BCDD6200C09"",""assignmentId"":""0198ee4b-c2d7-779a-8212-cd2bf722eb6b"",""projectId"":""0198ee3c-27ac-7803-a9ea-f3b4ad4ad678""}","https://test12345.live/?num_scrambled_semantic=8&num_scrambled_causal=4&num_scrambled_schematic=4&participantId=69F48D9CF5A7492A9A516BCDD6200C09&assignmentId=0198ee4b-c2d7-779a-8212-cd2bf722eb6b&projectId=0198ee3c-27ac-7803-a9ea-f3b4ad4ad678","69F48D9CF5A7492A9A516BCDD6200C09-2025-08-28-02-13-41","","null","","images/causal_sequence/museum_causal/museum_causal_4.png","null","",""
"","","","","","image-button-response","99","383025","0.0-14.0-1.0-1.3","69F48D9CF5A7492A9A516BCDD6200C09","69F48D9CF5A7492A9A516BCDD6200C09","0198ee4b-c2d7-779a-8212-cd2bf722eb6b","0198ee3c-27ac-7803-a9ea-f3b4ad4ad678","{""num_scrambled_semantic"":""8"",""num_scrambled_causal"":""4"",""num_scrambled_schematic"":""4"",""participantId"":""69F48D9CF5A7492A9A516BCDD6200C09"",""assignmentId"":""0198ee4b-c2d7-779a-8212-cd2bf722eb6b"",""projectId"":""0198ee3c-27ac-7803-a9ea-f3b4ad4ad678""}","https://test12345.live/?num_scrambled_semantic=8&num_scrambled_causal=4&num_scrambled_schematic=4&participantId=69F48D9CF5A7492A9A516BCDD6200C09&assignmentId=0198ee4b-c2d7-779a-8212-cd2bf722eb6b&projectId=0198ee3c-27ac-7803-a9ea-f3b4ad4ad678","69F48D9CF5A7492A9A516BCDD6200C09-2025-08-28-02-13-41","","1024","","images/causal_sequence/museum_causal/museum_causal_4.png","1","",""
"","","","","","image-button-response","100","384829","0.0-14.0-1.0-2.3","69F48D9CF5A7492A9A516BCDD6200C09","69F48D9CF5A7492A9A516BCDD6200C09","0198ee4b-c2d7-779a-8212-cd2bf722eb6b","0198ee3c-27ac-7803-a9ea-f3b4ad4ad678","{""num_scrambled_semantic"":""8"",""num_scrambled_causal"":""4"",""num_scrambled_schematic"":""4"",""participantId"":""69F48D9CF5A7492A9A516BCDD6200C09"",""assignmentId"":""0198ee4b-c2d7-779a-8212-cd2bf722eb6b"",""projectId"":""0198ee3c-27ac-7803-a9ea-f3b4ad4ad678""}","https://test12345.live/?num_scrambled_semantic=8&num_scrambled_causal=4&num_scrambled_schematic=4&participantId=69F48D9CF5A7492A9A516BCDD6200C09&assignmentId=0198ee4b-c2d7-779a-8212-cd2bf722eb6b&projectId=0198ee3c-27ac-7803-a9ea-f3b4ad4ad678","69F48D9CF5A7492A9A516BCDD6200C09-2025-08-28-02-13-41","","null","","[]","null","",""
"","","","","","image-button-response","101","389331","0.0-14.0-1.0-0.4","69F48D9CF5A7492A9A516BCDD6200C09","69F48D9CF5A7492A9A516BCDD6200C09","0198ee4b-c2d7-779a-8212-cd2bf722eb6b","0198ee3c-27ac-7803-a9ea-f3b4ad4ad678","{""num_scrambled_semantic"":""8"",""num_scrambled_causal"":""4"",""num_scrambled_schematic"":""4"",""participantId"":""69F48D9CF5A7492A9A516BCDD6200C09"",""assignmentId"":""0198ee4b-c2d7-779a-8212-cd2bf722eb6b"",""projectId"":""0198ee3c-27ac-7803-a9ea-f3b4ad4ad678""}","https://test12345.live/?num_scrambled_semantic=8&num_scrambled_causal=4&num_scrambled_schematic=4&participantId=69F48D9CF5A7492A9A516BCDD6200C09&assignmentId=0198ee4b-c2d7-779a-8212-cd2bf722eb6b&projectId=0198ee3c-27ac-7803-a9ea-f3b4ad4ad678","69F48D9CF5A7492A9A516BCDD6200C09-2025-08-28-02-13-41","","null","","images/causal_sequence/museum_causal/museum_causal_6.png","null","",""
"","","","","","image-button-response","102","390340","0.0-14.0-1.0-1.4","69F48D9CF5A7492A9A516BCDD6200C09","69F48D9CF5A7492A9A516BCDD6200C09","0198ee4b-c2d7-779a-8212-cd2bf722eb6b","0198ee3c-27ac-7803-a9ea-f3b4ad4ad678","{""num_scrambled_semantic"":""8"",""num_scrambled_causal"":""4"",""num_scrambled_schematic"":""4"",""participantId"":""69F48D9CF5A7492A9A516BCDD6200C09"",""assignmentId"":""0198ee4b-c2d7-779a-8212-cd2bf722eb6b"",""projectId"":""0198ee3c-27ac-7803-a9ea-f3b4ad4ad678""}","https://test12345.live/?num_scrambled_semantic=8&num_scrambled_causal=4&num_scrambled_schematic=4&participantId=69F48D9CF5A7492A9A516BCDD6200C09&assignmentId=0198ee4b-c2d7-779a-8212-cd2bf722eb6b&projectId=0198ee3c-27ac-7803-a9ea-f3b4ad4ad678","69F48D9CF5A7492A9A516BCDD6200C09-2025-08-28-02-13-41","","1007","","images/causal_sequence/museum_causal/museum_causal_6.png","0","",""
"","","","","","image-button-response","103","392143","0.0-14.0-1.0-2.4","69F48D9CF5A7492A9A516BCDD6200C09","69F48D9CF5A7492A9A516BCDD6200C09","0198ee4b-c2d7-779a-8212-cd2bf722eb6b","0198ee3c-27ac-7803-a9ea-f3b4ad4ad678","{""num_scrambled_semantic"":""8"",""num_scrambled_causal"":""4"",""num_scrambled_schematic"":""4"",""participantId"":""69F48D9CF5A7492A9A516BCDD6200C09"",""assignmentId"":""0198ee4b-c2d7-779a-8212-cd2bf722eb6b"",""projectId"":""0198ee3c-27ac-7803-a9ea-f3b4ad4ad678""}","https://test12345.live/?num_scrambled_semantic=8&num_scrambled_causal=4&num_scrambled_schematic=4&participantId=69F48D9CF5A7492A9A516BCDD6200C09&assignmentId=0198ee4b-c2d7-779a-8212-cd2bf722eb6b&projectId=0198ee3c-27ac-7803-a9ea-f3b4ad4ad678","69F48D9CF5A7492A9A516BCDD6200C09-2025-08-28-02-13-41","","null","","[]","null","",""
"","","","","","image-button-response","104","396645","0.0-14.0-1.0-0.5","69F48D9CF5A7492A9A516BCDD6200C09","69F48D9CF5A7492A9A516BCDD6200C09","0198ee4b-c2d7-779a-8212-cd2bf722eb6b","0198ee3c-27ac-7803-a9ea-f3b4ad4ad678","{""num_scrambled_semantic"":""8"",""num_scrambled_causal"":""4"",""num_scrambled_schematic"":""4"",""participantId"":""69F48D9CF5A7492A9A516BCDD6200C09"",""assignmentId"":""0198ee4b-c2d7-779a-8212-cd2bf722eb6b"",""projectId"":""0198ee3c-27ac-7803-a9ea-f3b4ad4ad678""}","https://test12345.live/?num_scrambled_semantic=8&num_scrambled_causal=4&num_scrambled_schematic=4&participantId=69F48D9CF5A7492A9A516BCDD6200C09&assignmentId=0198ee4b-c2d7-779a-8212-cd2bf722eb6b&projectId=0198ee3c-27ac-7803-a9ea-f3b4ad4ad678","69F48D9CF5A7492A9A516BCDD6200C09-2025-08-28-02-13-41","","null","","images/causal_sequence/museum_causal/museum_causal_3.png","null","",""
"","","","","","image-button-response","105","399291","0.0-14.0-1.0-1.5","69F48D9CF5A7492A9A516BCDD6200C09","69F48D9CF5A7492A9A516BCDD6200C09","0198ee4b-c2d7-779a-8212-cd2bf722eb6b","0198ee3c-27ac-7803-a9ea-f3b4ad4ad678","{""num_scrambled_semantic"":""8"",""num_scrambled_causal"":""4"",""num_scrambled_schematic"":""4"",""participantId"":""69F48D9CF5A7492A9A516BCDD6200C09"",""assignmentId"":""0198ee4b-c2d7-779a-8212-cd2bf722eb6b"",""projectId"":""0198ee3c-27ac-7803-a9ea-f3b4ad4ad678""}","https://test12345.live/?num_scrambled_semantic=8&num_scrambled_causal=4&num_scrambled_schematic=4&participantId=69F48D9CF5A7492A9A516BCDD6200C09&assignmentId=0198ee4b-c2d7-779a-8212-cd2bf722eb6b&projectId=0198ee3c-27ac-7803-a9ea-f3b4ad4ad678","69F48D9CF5A7492A9A516BCDD6200C09-2025-08-28-02-13-41","","2644","","images/causal_sequence/museum_causal/museum_causal_3.png","0","",""
"","","","","","image-button-response","106","401095","0.0-14.0-1.0-2.5","69F48D9CF5A7492A9A516BCDD6200C09","69F48D9CF5A7492A9A516BCDD6200C09","0198ee4b-c2d7-779a-8212-cd2bf722eb6b","0198ee3c-27ac-7803-a9ea-f3b4ad4ad678","{""num_scrambled_semantic"":""8"",""num_scrambled_causal"":""4"",""num_scrambled_schematic"":""4"",""participantId"":""69F48D9CF5A7492A9A516BCDD6200C09"",""assignmentId"":""0198ee4b-c2d7-779a-8212-cd2bf722eb6b"",""projectId"":""0198ee3c-27ac-7803-a9ea-f3b4ad4ad678""}","https://test12345.live/?num_scrambled_semantic=8&num_scrambled_causal=4&num_scrambled_schematic=4&participantId=69F48D9CF5A7492A9A516BCDD6200C09&assignmentId=0198ee4b-c2d7-779a-8212-cd2bf722eb6b&projectId=0198ee3c-27ac-7803-a9ea-f3b4ad4ad678","69F48D9CF5A7492A9A516BCDD6200C09-2025-08-28-02-13-41","","null","","[]","null","",""
"","","","","","image-button-response","107","405599","0.0-14.0-1.0-0.6","69F48D9CF5A7492A9A516BCDD6200C09","69F48D9CF5A7492A9A516BCDD6200C09","0198ee4b-c2d7-779a-8212-cd2bf722eb6b","0198ee3c-27ac-7803-a9ea-f3b4ad4ad678","{""num_scrambled_semantic"":""8"",""num_scrambled_causal"":""4"",""num_scrambled_schematic"":""4"",""participantId"":""69F48D9CF5A7492A9A516BCDD6200C09"",""assignmentId"":""0198ee4b-c2d7-779a-8212-cd2bf722eb6b"",""projectId"":""0198ee3c-27ac-7803-a9ea-f3b4ad4ad678""}","https://test12345.live/?num_scrambled_semantic=8&num_scrambled_causal=4&num_scrambled_schematic=4&participantId=69F48D9CF5A7492A9A516BCDD6200C09&assignmentId=0198ee4b-c2d7-779a-8212-cd2bf722eb6b&projectId=0198ee3c-27ac-7803-a9ea-f3b4ad4ad678","69F48D9CF5A7492A9A516BCDD6200C09-2025-08-28-02-13-41","","null","","images/causal_sequence/museum_causal/museum_causal_8.png","null","",""
"","","","","","image-button-response","108","406872","0.0-14.0-1.0-1.6","69F48D9CF5A7492A9A516BCDD6200C09","69F48D9CF5A7492A9A516BCDD6200C09","0198ee4b-c2d7-779a-8212-cd2bf722eb6b","0198ee3c-27ac-7803-a9ea-f3b4ad4ad678","{""num_scrambled_semantic"":""8"",""num_scrambled_causal"":""4"",""num_scrambled_schematic"":""4"",""participantId"":""69F48D9CF5A7492A9A516BCDD6200C09"",""assignmentId"":""0198ee4b-c2d7-779a-8212-cd2bf722eb6b"",""projectId"":""0198ee3c-27ac-7803-a9ea-f3b4ad4ad678""}","https://test12345.live/?num_scrambled_semantic=8&num_scrambled_causal=4&num_scrambled_schematic=4&participantId=69F48D9CF5A7492A9A516BCDD6200C09&assignmentId=0198ee4b-c2d7-779a-8212-cd2bf722eb6b&projectId=0198ee3c-27ac-7803-a9ea-f3b4ad4ad678","69F48D9CF5A7492A9A516BCDD6200C09-2025-08-28-02-13-41","","1272","","images/causal_sequence/museum_causal/museum_causal_8.png","0","",""
"","","","","","image-button-response","109","408674","0.0-14.0-1.0-2.6","69F48D9CF5A7492A9A516BCDD6200C09","69F48D9CF5A7492A9A516BCDD6200C09","0198ee4b-c2d7-779a-8212-cd2bf722eb6b","0198ee3c-27ac-7803-a9ea-f3b4ad4ad678","{""num_scrambled_semantic"":""8"",""num_scrambled_causal"":""4"",""num_scrambled_schematic"":""4"",""participantId"":""69F48D9CF5A7492A9A516BCDD6200C09"",""assignmentId"":""0198ee4b-c2d7-779a-8212-cd2bf722eb6b"",""projectId"":""0198ee3c-27ac-7803-a9ea-f3b4ad4ad678""}","https://test12345.live/?num_scrambled_semantic=8&num_scrambled_causal=4&num_scrambled_schematic=4&participantId=69F48D9CF5A7492A9A516BCDD6200C09&assignmentId=0198ee4b-c2d7-779a-8212-cd2bf722eb6b&projectId=0198ee3c-27ac-7803-a9ea-f3b4ad4ad678","69F48D9CF5A7492A9A516BCDD6200C09-2025-08-28-02-13-41","","null","","[]","null","",""
"","","","","","image-button-response","110","413176","0.0-14.0-1.0-0.7","69F48D9CF5A7492A9A516BCDD6200C09","69F48D9CF5A7492A9A516BCDD6200C09","0198ee4b-c2d7-779a-8212-cd2bf722eb6b","0198ee3c-27ac-7803-a9ea-f3b4ad4ad678","{""num_scrambled_semantic"":""8"",""num_scrambled_causal"":""4"",""num_scrambled_schematic"":""4"",""participantId"":""69F48D9CF5A7492A9A516BCDD6200C09"",""assignmentId"":""0198ee4b-c2d7-779a-8212-cd2bf722eb6b"",""projectId"":""0198ee3c-27ac-7803-a9ea-f3b4ad4ad678""}","https://test12345.live/?num_scrambled_semantic=8&num_scrambled_causal=4&num_scrambled_schematic=4&participantId=69F48D9CF5A7492A9A516BCDD6200C09&assignmentId=0198ee4b-c2d7-779a-8212-cd2bf722eb6b&projectId=0198ee3c-27ac-7803-a9ea-f3b4ad4ad678","69F48D9CF5A7492A9A516BCDD6200C09-2025-08-28-02-13-41","","null","","images/causal_sequence/museum_causal/museum_causal_7.png","null","",""
"","","","","","image-button-response","111","414343","0.0-14.0-1.0-1.7","69F48D9CF5A7492A9A516BCDD6200C09","69F48D9CF5A7492A9A516BCDD6200C09","0198ee4b-c2d7-779a-8212-cd2bf722eb6b","0198ee3c-27ac-7803-a9ea-f3b4ad4ad678","{""num_scrambled_semantic"":""8"",""num_scrambled_causal"":""4"",""num_scrambled_schematic"":""4"",""participantId"":""69F48D9CF5A7492A9A516BCDD6200C09"",""assignmentId"":""0198ee4b-c2d7-779a-8212-cd2bf722eb6b"",""projectId"":""0198ee3c-27ac-7803-a9ea-f3b4ad4ad678""}","https://test12345.live/?num_scrambled_semantic=8&num_scrambled_causal=4&num_scrambled_schematic=4&participantId=69F48D9CF5A7492A9A516BCDD6200C09&assignmentId=0198ee4b-c2d7-779a-8212-cd2bf722eb6b&projectId=0198ee3c-27ac-7803-a9ea-f3b4ad4ad678","69F48D9CF5A7492A9A516BCDD6200C09-2025-08-28-02-13-41","","1165","","images/causal_sequence/museum_causal/museum_causal_7.png","1","",""
"","","","","","image-button-response","112","416146","0.0-14.0-1.0-2.7","69F48D9CF5A7492A9A516BCDD6200C09","69F48D9CF5A7492A9A516BCDD6200C09","0198ee4b-c2d7-779a-8212-cd2bf722eb6b","0198ee3c-27ac-7803-a9ea-f3b4ad4ad678","{""num_scrambled_semantic"":""8"",""num_scrambled_causal"":""4"",""num_scrambled_schematic"":""4"",""participantId"":""69F48D9CF5A7492A9A516BCDD6200C09"",""assignmentId"":""0198ee4b-c2d7-779a-8212-cd2bf722eb6b"",""projectId"":""0198ee3c-27ac-7803-a9ea-f3b4ad4ad678""}","https://test12345.live/?num_scrambled_semantic=8&num_scrambled_causal=4&num_scrambled_schematic=4&participantId=69F48D9CF5A7492A9A516BCDD6200C09&assignmentId=0198ee4b-c2d7-779a-8212-cd2bf722eb6b&projectId=0198ee3c-27ac-7803-a9ea-f3b4ad4ad678","69F48D9CF5A7492A9A516BCDD6200C09-2025-08-28-02-13-41","","null","","[]","null","",""
"","","","","","image-button-response","113","420649","0.0-14.0-1.0-0.8","69F48D9CF5A7492A9A516BCDD6200C09","69F48D9CF5A7492A9A516BCDD6200C09","0198ee4b-c2d7-779a-8212-cd2bf722eb6b","0198ee3c-27ac-7803-a9ea-f3b4ad4ad678","{""num_scrambled_semantic"":""8"",""num_scrambled_causal"":""4"",""num_scrambled_schematic"":""4"",""participantId"":""69F48D9CF5A7492A9A516BCDD6200C09"",""assignmentId"":""0198ee4b-c2d7-779a-8212-cd2bf722eb6b"",""projectId"":""0198ee3c-27ac-7803-a9ea-f3b4ad4ad678""}","https://test12345.live/?num_scrambled_semantic=8&num_scrambled_causal=4&num_scrambled_schematic=4&participantId=69F48D9CF5A7492A9A516BCDD6200C09&assignmentId=0198ee4b-c2d7-779a-8212-cd2bf722eb6b&projectId=0198ee3c-27ac-7803-a9ea-f3b4ad4ad678","69F48D9CF5A7492A9A516BCDD6200C09-2025-08-28-02-13-41","","null","","images/causal_sequence/museum_causal/museum_causal_5.png","null","",""
