"success","timeout","failed_images","failed_audio","failed_video","trial_type","trial_index","time_elapsed","internal_node_id","subject","subject_id","study_id","session_id","urlvar","current_url","audio_id","view_history","rt","device_id","stimulus","response","estimated_stimulus_onset","seq_name"
"true","false","[]","[]","[]","preload","0","3682","0.0-0.0","6BA782BB5F7B4870B0D3954AE5514AFB","6BA782BB5F7B4870B0D3954AE5514AFB","0198bcf9-30ef-7407-8caf-c29c8062eff3","0198bbb8-fd11-701d-9147-68794ad37298","{""num_scrambled_semantic"":""8"",""num_scrambled_causal"":""4"",""num_scrambled_schematic"":""4"",""participantId"":""6BA782BB5F7B4870B0D3954AE5514AFB"",""assignmentId"":""0198bcf9-30ef-7407-8caf-c29c8062eff3"",""projectId"":""0198bbb8-fd11-701d-9147-68794ad37298""}","https://test12345.live/?num_scrambled_semantic=8&num_scrambled_causal=4&num_scrambled_schematic=4&participantId=6BA782BB5F7B4870B0D3954AE5514AFB&assignmentId=0198bcf9-30ef-7407-8caf-c29c8062eff3&projectId=0198bbb8-fd11-701d-9147-68794ad37298","6BA782BB5F7B4870B0D3954AE5514AFB-2025-08-18-12-13-40","","","","","","",""
"","","","","","instructions","1","73428","0.0-1.0","6BA782BB5F7B4870B0D3954AE5514AFB","6BA782BB5F7B4870B0D3954AE5514AFB","0198bcf9-30ef-7407-8caf-c29c8062eff3","0198bbb8-fd11-701d-9147-68794ad37298","{""num_scrambled_semantic"":""8"",""num_scrambled_causal"":""4"",""num_scrambled_schematic"":""4"",""participantId"":""6BA782BB5F7B4870B0D3954AE5514AFB"",""assignmentId"":""0198bcf9-30ef-7407-8caf-c29c8062eff3"",""projectId"":""0198bbb8-fd11-701d-9147-68794ad37298""}","https://test12345.live/?num_scrambled_semantic=8&num_scrambled_causal=4&num_scrambled_schematic=4&participantId=6BA782BB5F7B4870B0D3954AE5514AFB&assignmentId=0198bcf9-30ef-7407-8caf-c29c8062eff3&projectId=0198bbb8-fd11-701d-9147-68794ad37298","6BA782BB5F7B4870B0D3954AE5514AFB-2025-08-18-12-13-40","[{""page_index"":0,""viewing_time"":69748}]","69748","","","","",""
"","","","","","instructions","2","88494","0.0-2.0","6BA782BB5F7B4870B0D3954AE5514AFB","6BA782BB5F7B4870B0D3954AE5514AFB","0198bcf9-30ef-7407-8caf-c29c8062eff3","0198bbb8-fd11-701d-9147-68794ad37298","{""num_scrambled_semantic"":""8"",""num_scrambled_causal"":""4"",""num_scrambled_schematic"":""4"",""participantId"":""6BA782BB5F7B4870B0D3954AE5514AFB"",""assignmentId"":""0198bcf9-30ef-7407-8caf-c29c8062eff3"",""projectId"":""0198bbb8-fd11-701d-9147-68794ad37298""}","https://test12345.live/?num_scrambled_semantic=8&num_scrambled_causal=4&num_scrambled_schematic=4&participantId=6BA782BB5F7B4870B0D3954AE5514AFB&assignmentId=0198bcf9-30ef-7407-8caf-c29c8062eff3&projectId=0198bbb8-fd11-701d-9147-68794ad37298","6BA782BB5F7B4870B0D3954AE5514AFB-2025-08-18-12-13-40","[{""page_index"":0,""viewing_time"":15066}]","15066","","","","",""
"true","","","","","fullscreen","3","92744","0.0-3.0","6BA782BB5F7B4870B0D3954AE5514AFB","6BA782BB5F7B4870B0D3954AE5514AFB","0198bcf9-30ef-7407-8caf-c29c8062eff3","0198bbb8-fd11-701d-9147-68794ad37298","{""num_scrambled_semantic"":""8"",""num_scrambled_causal"":""4"",""num_scrambled_schematic"":""4"",""participantId"":""6BA782BB5F7B4870B0D3954AE5514AFB"",""assignmentId"":""0198bcf9-30ef-7407-8caf-c29c8062eff3"",""projectId"":""0198bbb8-fd11-701d-9147-68794ad37298""}","https://test12345.live/?num_scrambled_semantic=8&num_scrambled_causal=4&num_scrambled_schematic=4&participantId=6BA782BB5F7B4870B0D3954AE5514AFB&assignmentId=0198bcf9-30ef-7407-8caf-c29c8062eff3&projectId=0198bbb8-fd11-701d-9147-68794ad37298","6BA782BB5F7B4870B0D3954AE5514AFB-2025-08-18-12-13-40","","3246","","","","",""
"","","","","","initialize-microphone","4","110918","0.0-4.0-0.0","6BA782BB5F7B4870B0D3954AE5514AFB","6BA782BB5F7B4870B0D3954AE5514AFB","0198bcf9-30ef-7407-8caf-c29c8062eff3","0198bbb8-fd11-701d-9147-68794ad37298","{""num_scrambled_semantic"":""8"",""num_scrambled_causal"":""4"",""num_scrambled_schematic"":""4"",""participantId"":""6BA782BB5F7B4870B0D3954AE5514AFB"",""assignmentId"":""0198bcf9-30ef-7407-8caf-c29c8062eff3"",""projectId"":""0198bbb8-fd11-701d-9147-68794ad37298""}","https://test12345.live/?num_scrambled_semantic=8&num_scrambled_causal=4&num_scrambled_schematic=4&participantId=6BA782BB5F7B4870B0D3954AE5514AFB&assignmentId=0198bcf9-30ef-7407-8caf-c29c8062eff3&projectId=0198bbb8-fd11-701d-9147-68794ad37298","6BA782BB5F7B4870B0D3954AE5514AFB-2025-08-18-12-13-40","","","a4b914a0da6150fedde7221a2606831965590a4b2b5c65e9a1e608bfa6de1baf","","","",""
"","","","","","html-audio-response","5","132395","0.0-4.0-1.0","6BA782BB5F7B4870B0D3954AE5514AFB","6BA782BB5F7B4870B0D3954AE5514AFB","0198bcf9-30ef-7407-8caf-c29c8062eff3","0198bbb8-fd11-701d-9147-68794ad37298","{""num_scrambled_semantic"":""8"",""num_scrambled_causal"":""4"",""num_scrambled_schematic"":""4"",""participantId"":""6BA782BB5F7B4870B0D3954AE5514AFB"",""assignmentId"":""0198bcf9-30ef-7407-8caf-c29c8062eff3"",""projectId"":""0198bbb8-fd11-701d-9147-68794ad37298""}","https://test12345.live/?num_scrambled_semantic=8&num_scrambled_causal=4&num_scrambled_schematic=4&participantId=6BA782BB5F7B4870B0D3954AE5514AFB&assignmentId=0198bcf9-30ef-7407-8caf-c29c8062eff3&projectId=0198bbb8-fd11-701d-9147-68794ad37298","6BA782BB5F7B4870B0D3954AE5514AFB-2025-08-18-12-13-40","","1416","","<span style=""color: red; font-size: 24px""> NOW RECORDING</span>
        <p>Please test Microphone</p>","","13",""
"","","","","","html-button-response","6","135295","0.0-4.0-2.0","6BA782BB5F7B4870B0D3954AE5514AFB","6BA782BB5F7B4870B0D3954AE5514AFB","0198bcf9-30ef-7407-8caf-c29c8062eff3","0198bbb8-fd11-701d-9147-68794ad37298","{""num_scrambled_semantic"":""8"",""num_scrambled_causal"":""4"",""num_scrambled_schematic"":""4"",""participantId"":""6BA782BB5F7B4870B0D3954AE5514AFB"",""assignmentId"":""0198bcf9-30ef-7407-8caf-c29c8062eff3"",""projectId"":""0198bbb8-fd11-701d-9147-68794ad37298""}","https://test12345.live/?num_scrambled_semantic=8&num_scrambled_causal=4&num_scrambled_schematic=4&participantId=6BA782BB5F7B4870B0D3954AE5514AFB&assignmentId=0198bcf9-30ef-7407-8caf-c29c8062eff3&projectId=0198bbb8-fd11-701d-9147-68794ad37298","6BA782BB5F7B4870B0D3954AE5514AFB-2025-08-18-12-13-40","","2899","","<p style=""font-size:48px; color:red;"">Is Microphone OK?</p>","1","",""
"","","","","","instructions","7","246624","0.0-5.0","6BA782BB5F7B4870B0D3954AE5514AFB","6BA782BB5F7B4870B0D3954AE5514AFB","0198bcf9-30ef-7407-8caf-c29c8062eff3","0198bbb8-fd11-701d-9147-68794ad37298","{""num_scrambled_semantic"":""8"",""num_scrambled_causal"":""4"",""num_scrambled_schematic"":""4"",""participantId"":""6BA782BB5F7B4870B0D3954AE5514AFB"",""assignmentId"":""0198bcf9-30ef-7407-8caf-c29c8062eff3"",""projectId"":""0198bbb8-fd11-701d-9147-68794ad37298""}","https://test12345.live/?num_scrambled_semantic=8&num_scrambled_causal=4&num_scrambled_schematic=4&participantId=6BA782BB5F7B4870B0D3954AE5514AFB&assignmentId=0198bcf9-30ef-7407-8caf-c29c8062eff3&projectId=0198bbb8-fd11-701d-9147-68794ad37298","6BA782BB5F7B4870B0D3954AE5514AFB-2025-08-18-12-13-40","[{""page_index"":0,""viewing_time"":103802},{""page_index"":1,""viewing_time"":7530}]","111332","","","","",""
"","","","","","image-button-response","8","252628","0.0-6.0-0.0","6BA782BB5F7B4870B0D3954AE5514AFB","6BA782BB5F7B4870B0D3954AE5514AFB","0198bcf9-30ef-7407-8caf-c29c8062eff3","0198bbb8-fd11-701d-9147-68794ad37298","{""num_scrambled_semantic"":""8"",""num_scrambled_causal"":""4"",""num_scrambled_schematic"":""4"",""participantId"":""6BA782BB5F7B4870B0D3954AE5514AFB"",""assignmentId"":""0198bcf9-30ef-7407-8caf-c29c8062eff3"",""projectId"":""0198bbb8-fd11-701d-9147-68794ad37298""}","https://test12345.live/?num_scrambled_semantic=8&num_scrambled_causal=4&num_scrambled_schematic=4&participantId=6BA782BB5F7B4870B0D3954AE5514AFB&assignmentId=0198bcf9-30ef-7407-8caf-c29c8062eff3&projectId=0198bbb8-fd11-701d-9147-68794ad37298","6BA782BB5F7B4870B0D3954AE5514AFB-2025-08-18-12-13-40","","null","","images/instructions/movie_0.png","null","",""
"","","","","","image-button-response","9","257135","0.0-6.0-1.0-0.0","6BA782BB5F7B4870B0D3954AE5514AFB","6BA782BB5F7B4870B0D3954AE5514AFB","0198bcf9-30ef-7407-8caf-c29c8062eff3","0198bbb8-fd11-701d-9147-68794ad37298","{""num_scrambled_semantic"":""8"",""num_scrambled_causal"":""4"",""num_scrambled_schematic"":""4"",""participantId"":""6BA782BB5F7B4870B0D3954AE5514AFB"",""assignmentId"":""0198bcf9-30ef-7407-8caf-c29c8062eff3"",""projectId"":""0198bbb8-fd11-701d-9147-68794ad37298""}","https://test12345.live/?num_scrambled_semantic=8&num_scrambled_causal=4&num_scrambled_schematic=4&participantId=6BA782BB5F7B4870B0D3954AE5514AFB&assignmentId=0198bcf9-30ef-7407-8caf-c29c8062eff3&projectId=0198bbb8-fd11-701d-9147-68794ad37298","6BA782BB5F7B4870B0D3954AE5514AFB-2025-08-18-12-13-40","","null","","images/instructions/movie_1.png","null","",""
"","","","","","image-button-response","10","260861","0.0-6.0-1.0-1.0","6BA782BB5F7B4870B0D3954AE5514AFB","6BA782BB5F7B4870B0D3954AE5514AFB","0198bcf9-30ef-7407-8caf-c29c8062eff3","0198bbb8-fd11-701d-9147-68794ad37298","{""num_scrambled_semantic"":""8"",""num_scrambled_causal"":""4"",""num_scrambled_schematic"":""4"",""participantId"":""6BA782BB5F7B4870B0D3954AE5514AFB"",""assignmentId"":""0198bcf9-30ef-7407-8caf-c29c8062eff3"",""projectId"":""0198bbb8-fd11-701d-9147-68794ad37298""}","https://test12345.live/?num_scrambled_semantic=8&num_scrambled_causal=4&num_scrambled_schematic=4&participantId=6BA782BB5F7B4870B0D3954AE5514AFB&assignmentId=0198bcf9-30ef-7407-8caf-c29c8062eff3&projectId=0198bbb8-fd11-701d-9147-68794ad37298","6BA782BB5F7B4870B0D3954AE5514AFB-2025-08-18-12-13-40","","3724","","images/instructions/movie_1.png","0","",""
"","","","","","image-button-response","11","271667","0.0-6.0-1.0-2.0","6BA782BB5F7B4870B0D3954AE5514AFB","6BA782BB5F7B4870B0D3954AE5514AFB","0198bcf9-30ef-7407-8caf-c29c8062eff3","0198bbb8-fd11-701d-9147-68794ad37298","{""num_scrambled_semantic"":""8"",""num_scrambled_causal"":""4"",""num_scrambled_schematic"":""4"",""participantId"":""6BA782BB5F7B4870B0D3954AE5514AFB"",""assignmentId"":""0198bcf9-30ef-7407-8caf-c29c8062eff3"",""projectId"":""0198bbb8-fd11-701d-9147-68794ad37298""}","https://test12345.live/?num_scrambled_semantic=8&num_scrambled_causal=4&num_scrambled_schematic=4&participantId=6BA782BB5F7B4870B0D3954AE5514AFB&assignmentId=0198bcf9-30ef-7407-8caf-c29c8062eff3&projectId=0198bbb8-fd11-701d-9147-68794ad37298","6BA782BB5F7B4870B0D3954AE5514AFB-2025-08-18-12-13-40","","null","","[]","null","",""
"","","","","","image-button-response","12","276175","0.0-6.0-1.0-0.1","6BA782BB5F7B4870B0D3954AE5514AFB","6BA782BB5F7B4870B0D3954AE5514AFB","0198bcf9-30ef-7407-8caf-c29c8062eff3","0198bbb8-fd11-701d-9147-68794ad37298","{""num_scrambled_semantic"":""8"",""num_scrambled_causal"":""4"",""num_scrambled_schematic"":""4"",""participantId"":""6BA782BB5F7B4870B0D3954AE5514AFB"",""assignmentId"":""0198bcf9-30ef-7407-8caf-c29c8062eff3"",""projectId"":""0198bbb8-fd11-701d-9147-68794ad37298""}","https://test12345.live/?num_scrambled_semantic=8&num_scrambled_causal=4&num_scrambled_schematic=4&participantId=6BA782BB5F7B4870B0D3954AE5514AFB&assignmentId=0198bcf9-30ef-7407-8caf-c29c8062eff3&projectId=0198bbb8-fd11-701d-9147-68794ad37298","6BA782BB5F7B4870B0D3954AE5514AFB-2025-08-18-12-13-40","","null","","images/instructions/movie_2.png","null","",""
"","","","","","image-button-response","13","280180","0.0-6.0-1.0-1.1","6BA782BB5F7B4870B0D3954AE5514AFB","6BA782BB5F7B4870B0D3954AE5514AFB","0198bcf9-30ef-7407-8caf-c29c8062eff3","0198bbb8-fd11-701d-9147-68794ad37298","{""num_scrambled_semantic"":""8"",""num_scrambled_causal"":""4"",""num_scrambled_schematic"":""4"",""participantId"":""6BA782BB5F7B4870B0D3954AE5514AFB"",""assignmentId"":""0198bcf9-30ef-7407-8caf-c29c8062eff3"",""projectId"":""0198bbb8-fd11-701d-9147-68794ad37298""}","https://test12345.live/?num_scrambled_semantic=8&num_scrambled_causal=4&num_scrambled_schematic=4&participantId=6BA782BB5F7B4870B0D3954AE5514AFB&assignmentId=0198bcf9-30ef-7407-8caf-c29c8062eff3&projectId=0198bbb8-fd11-701d-9147-68794ad37298","6BA782BB5F7B4870B0D3954AE5514AFB-2025-08-18-12-13-40","","null","","images/instructions/movie_2.png","null","",""
"","","","","","image-button-response","14","290982","0.0-6.0-1.0-2.1","6BA782BB5F7B4870B0D3954AE5514AFB","6BA782BB5F7B4870B0D3954AE5514AFB","0198bcf9-30ef-7407-8caf-c29c8062eff3","0198bbb8-fd11-701d-9147-68794ad37298","{""num_scrambled_semantic"":""8"",""num_scrambled_causal"":""4"",""num_scrambled_schematic"":""4"",""participantId"":""6BA782BB5F7B4870B0D3954AE5514AFB"",""assignmentId"":""0198bcf9-30ef-7407-8caf-c29c8062eff3"",""projectId"":""0198bbb8-fd11-701d-9147-68794ad37298""}","https://test12345.live/?num_scrambled_semantic=8&num_scrambled_causal=4&num_scrambled_schematic=4&participantId=6BA782BB5F7B4870B0D3954AE5514AFB&assignmentId=0198bcf9-30ef-7407-8caf-c29c8062eff3&projectId=0198bbb8-fd11-701d-9147-68794ad37298","6BA782BB5F7B4870B0D3954AE5514AFB-2025-08-18-12-13-40","","null","","[]","null","",""
"","","","","","image-button-response","15","295485","0.0-6.0-1.0-0.2","6BA782BB5F7B4870B0D3954AE5514AFB","6BA782BB5F7B4870B0D3954AE5514AFB","0198bcf9-30ef-7407-8caf-c29c8062eff3","0198bbb8-fd11-701d-9147-68794ad37298","{""num_scrambled_semantic"":""8"",""num_scrambled_causal"":""4"",""num_scrambled_schematic"":""4"",""participantId"":""6BA782BB5F7B4870B0D3954AE5514AFB"",""assignmentId"":""0198bcf9-30ef-7407-8caf-c29c8062eff3"",""projectId"":""0198bbb8-fd11-701d-9147-68794ad37298""}","https://test12345.live/?num_scrambled_semantic=8&num_scrambled_causal=4&num_scrambled_schematic=4&participantId=6BA782BB5F7B4870B0D3954AE5514AFB&assignmentId=0198bcf9-30ef-7407-8caf-c29c8062eff3&projectId=0198bbb8-fd11-701d-9147-68794ad37298","6BA782BB5F7B4870B0D3954AE5514AFB-2025-08-18-12-13-40","","null","","images/instructions/movie_3.png","null","",""
"","","","","","image-button-response","16","296208","0.0-6.0-1.0-1.2","6BA782BB5F7B4870B0D3954AE5514AFB","6BA782BB5F7B4870B0D3954AE5514AFB","0198bcf9-30ef-7407-8caf-c29c8062eff3","0198bbb8-fd11-701d-9147-68794ad37298","{""num_scrambled_semantic"":""8"",""num_scrambled_causal"":""4"",""num_scrambled_schematic"":""4"",""participantId"":""6BA782BB5F7B4870B0D3954AE5514AFB"",""assignmentId"":""0198bcf9-30ef-7407-8caf-c29c8062eff3"",""projectId"":""0198bbb8-fd11-701d-9147-68794ad37298""}","https://test12345.live/?num_scrambled_semantic=8&num_scrambled_causal=4&num_scrambled_schematic=4&participantId=6BA782BB5F7B4870B0D3954AE5514AFB&assignmentId=0198bcf9-30ef-7407-8caf-c29c8062eff3&projectId=0198bbb8-fd11-701d-9147-68794ad37298","6BA782BB5F7B4870B0D3954AE5514AFB-2025-08-18-12-13-40","","721","","images/instructions/movie_3.png","0","",""
"","","","","","image-button-response","17","307010","0.0-6.0-1.0-2.2","6BA782BB5F7B4870B0D3954AE5514AFB","6BA782BB5F7B4870B0D3954AE5514AFB","0198bcf9-30ef-7407-8caf-c29c8062eff3","0198bbb8-fd11-701d-9147-68794ad37298","{""num_scrambled_semantic"":""8"",""num_scrambled_causal"":""4"",""num_scrambled_schematic"":""4"",""participantId"":""6BA782BB5F7B4870B0D3954AE5514AFB"",""assignmentId"":""0198bcf9-30ef-7407-8caf-c29c8062eff3"",""projectId"":""0198bbb8-fd11-701d-9147-68794ad37298""}","https://test12345.live/?num_scrambled_semantic=8&num_scrambled_causal=4&num_scrambled_schematic=4&participantId=6BA782BB5F7B4870B0D3954AE5514AFB&assignmentId=0198bcf9-30ef-7407-8caf-c29c8062eff3&projectId=0198bbb8-fd11-701d-9147-68794ad37298","6BA782BB5F7B4870B0D3954AE5514AFB-2025-08-18-12-13-40","","null","","[]","null","",""
"","","","","","image-button-response","18","311515","0.0-6.0-1.0-0.3","6BA782BB5F7B4870B0D3954AE5514AFB","6BA782BB5F7B4870B0D3954AE5514AFB","0198bcf9-30ef-7407-8caf-c29c8062eff3","0198bbb8-fd11-701d-9147-68794ad37298","{""num_scrambled_semantic"":""8"",""num_scrambled_causal"":""4"",""num_scrambled_schematic"":""4"",""participantId"":""6BA782BB5F7B4870B0D3954AE5514AFB"",""assignmentId"":""0198bcf9-30ef-7407-8caf-c29c8062eff3"",""projectId"":""0198bbb8-fd11-701d-9147-68794ad37298""}","https://test12345.live/?num_scrambled_semantic=8&num_scrambled_causal=4&num_scrambled_schematic=4&participantId=6BA782BB5F7B4870B0D3954AE5514AFB&assignmentId=0198bcf9-30ef-7407-8caf-c29c8062eff3&projectId=0198bbb8-fd11-701d-9147-68794ad37298","6BA782BB5F7B4870B0D3954AE5514AFB-2025-08-18-12-13-40","","null","","images/instructions/movie_4.png","null","",""
"","","","","","image-button-response","19","315519","0.0-6.0-1.0-1.3","6BA782BB5F7B4870B0D3954AE5514AFB","6BA782BB5F7B4870B0D3954AE5514AFB","0198bcf9-30ef-7407-8caf-c29c8062eff3","0198bbb8-fd11-701d-9147-68794ad37298","{""num_scrambled_semantic"":""8"",""num_scrambled_causal"":""4"",""num_scrambled_schematic"":""4"",""participantId"":""6BA782BB5F7B4870B0D3954AE5514AFB"",""assignmentId"":""0198bcf9-30ef-7407-8caf-c29c8062eff3"",""projectId"":""0198bbb8-fd11-701d-9147-68794ad37298""}","https://test12345.live/?num_scrambled_semantic=8&num_scrambled_causal=4&num_scrambled_schematic=4&participantId=6BA782BB5F7B4870B0D3954AE5514AFB&assignmentId=0198bcf9-30ef-7407-8caf-c29c8062eff3&projectId=0198bbb8-fd11-701d-9147-68794ad37298","6BA782BB5F7B4870B0D3954AE5514AFB-2025-08-18-12-13-40","","null","","images/instructions/movie_4.png","null","",""
"","","","","","image-button-response","20","326323","0.0-6.0-1.0-2.3","6BA782BB5F7B4870B0D3954AE5514AFB","6BA782BB5F7B4870B0D3954AE5514AFB","0198bcf9-30ef-7407-8caf-c29c8062eff3","0198bbb8-fd11-701d-9147-68794ad37298","{""num_scrambled_semantic"":""8"",""num_scrambled_causal"":""4"",""num_scrambled_schematic"":""4"",""participantId"":""6BA782BB5F7B4870B0D3954AE5514AFB"",""assignmentId"":""0198bcf9-30ef-7407-8caf-c29c8062eff3"",""projectId"":""0198bbb8-fd11-701d-9147-68794ad37298""}","https://test12345.live/?num_scrambled_semantic=8&num_scrambled_causal=4&num_scrambled_schematic=4&participantId=6BA782BB5F7B4870B0D3954AE5514AFB&assignmentId=0198bcf9-30ef-7407-8caf-c29c8062eff3&projectId=0198bbb8-fd11-701d-9147-68794ad37298","6BA782BB5F7B4870B0D3954AE5514AFB-2025-08-18-12-13-40","","null","","[]","null","",""
"","","","","","instructions","21","336427","0.0-7.0","6BA782BB5F7B4870B0D3954AE5514AFB","6BA782BB5F7B4870B0D3954AE5514AFB","0198bcf9-30ef-7407-8caf-c29c8062eff3","0198bbb8-fd11-701d-9147-68794ad37298","{""num_scrambled_semantic"":""8"",""num_scrambled_causal"":""4"",""num_scrambled_schematic"":""4"",""participantId"":""6BA782BB5F7B4870B0D3954AE5514AFB"",""assignmentId"":""0198bcf9-30ef-7407-8caf-c29c8062eff3"",""projectId"":""0198bbb8-fd11-701d-9147-68794ad37298""}","https://test12345.live/?num_scrambled_semantic=8&num_scrambled_causal=4&num_scrambled_schematic=4&participantId=6BA782BB5F7B4870B0D3954AE5514AFB&assignmentId=0198bcf9-30ef-7407-8caf-c29c8062eff3&projectId=0198bbb8-fd11-701d-9147-68794ad37298","6BA782BB5F7B4870B0D3954AE5514AFB-2025-08-18-12-13-40","[{""page_index"":0,""viewing_time"":9171},{""page_index"":1,""viewing_time"":933}]","10104","","","","",""
"","","","","","html-audio-response","22","375958","0.0-8.0","6BA782BB5F7B4870B0D3954AE5514AFB","6BA782BB5F7B4870B0D3954AE5514AFB","0198bcf9-30ef-7407-8caf-c29c8062eff3","0198bbb8-fd11-701d-9147-68794ad37298","{""num_scrambled_semantic"":""8"",""num_scrambled_causal"":""4"",""num_scrambled_schematic"":""4"",""participantId"":""6BA782BB5F7B4870B0D3954AE5514AFB"",""assignmentId"":""0198bcf9-30ef-7407-8caf-c29c8062eff3"",""projectId"":""0198bbb8-fd11-701d-9147-68794ad37298""}","https://test12345.live/?num_scrambled_semantic=8&num_scrambled_causal=4&num_scrambled_schematic=4&participantId=6BA782BB5F7B4870B0D3954AE5514AFB&assignmentId=0198bcf9-30ef-7407-8caf-c29c8062eff3&projectId=0198bbb8-fd11-701d-9147-68794ad37298","6BA782BB5F7B4870B0D3954AE5514AFB-2025-08-18-12-13-40","","14875","","[""<span style=\""color: red; font-size: 24px\""> NOW RECORDING</span><p>Please say out loud all the images you saw, as many as you can remember. The images can be said in any order.</p>""]","","3",""
"","","","","","instructions","23","377608","0.0-9.0","6BA782BB5F7B4870B0D3954AE5514AFB","6BA782BB5F7B4870B0D3954AE5514AFB","0198bcf9-30ef-7407-8caf-c29c8062eff3","0198bbb8-fd11-701d-9147-68794ad37298","{""num_scrambled_semantic"":""8"",""num_scrambled_causal"":""4"",""num_scrambled_schematic"":""4"",""participantId"":""6BA782BB5F7B4870B0D3954AE5514AFB"",""assignmentId"":""0198bcf9-30ef-7407-8caf-c29c8062eff3"",""projectId"":""0198bbb8-fd11-701d-9147-68794ad37298""}","https://test12345.live/?num_scrambled_semantic=8&num_scrambled_causal=4&num_scrambled_schematic=4&participantId=6BA782BB5F7B4870B0D3954AE5514AFB&assignmentId=0198bcf9-30ef-7407-8caf-c29c8062eff3&projectId=0198bbb8-fd11-701d-9147-68794ad37298","6BA782BB5F7B4870B0D3954AE5514AFB-2025-08-18-12-13-40","[{""page_index"":0,""viewing_time"":1645}]","1645","","","","",""
"","","","","","image-button-response","24","383615","0.0-10.0-0.0","6BA782BB5F7B4870B0D3954AE5514AFB","6BA782BB5F7B4870B0D3954AE5514AFB","0198bcf9-30ef-7407-8caf-c29c8062eff3","0198bbb8-fd11-701d-9147-68794ad37298","{""num_scrambled_semantic"":""8"",""num_scrambled_causal"":""4"",""num_scrambled_schematic"":""4"",""participantId"":""6BA782BB5F7B4870B0D3954AE5514AFB"",""assignmentId"":""0198bcf9-30ef-7407-8caf-c29c8062eff3"",""projectId"":""0198bbb8-fd11-701d-9147-68794ad37298""}","https://test12345.live/?num_scrambled_semantic=8&num_scrambled_causal=4&num_scrambled_schematic=4&participantId=6BA782BB5F7B4870B0D3954AE5514AFB&assignmentId=0198bcf9-30ef-7407-8caf-c29c8062eff3&projectId=0198bbb8-fd11-701d-9147-68794ad37298","6BA782BB5F7B4870B0D3954AE5514AFB-2025-08-18-12-13-40","","null","","images/causal_sequence/coin_causal/coin_causal_0.png","null","",""
"","","","","","image-button-response","25","388121","0.0-10.0-1.0-0.0","6BA782BB5F7B4870B0D3954AE5514AFB","6BA782BB5F7B4870B0D3954AE5514AFB","0198bcf9-30ef-7407-8caf-c29c8062eff3","0198bbb8-fd11-701d-9147-68794ad37298","{""num_scrambled_semantic"":""8"",""num_scrambled_causal"":""4"",""num_scrambled_schematic"":""4"",""participantId"":""6BA782BB5F7B4870B0D3954AE5514AFB"",""assignmentId"":""0198bcf9-30ef-7407-8caf-c29c8062eff3"",""projectId"":""0198bbb8-fd11-701d-9147-68794ad37298""}","https://test12345.live/?num_scrambled_semantic=8&num_scrambled_causal=4&num_scrambled_schematic=4&participantId=6BA782BB5F7B4870B0D3954AE5514AFB&assignmentId=0198bcf9-30ef-7407-8caf-c29c8062eff3&projectId=0198bbb8-fd11-701d-9147-68794ad37298","6BA782BB5F7B4870B0D3954AE5514AFB-2025-08-18-12-13-40","","null","","images/causal_sequence/coin_causal/coin_causal_7.png","null","",""
"","","","","","image-button-response","26","391458","0.0-10.0-1.0-1.0","6BA782BB5F7B4870B0D3954AE5514AFB","6BA782BB5F7B4870B0D3954AE5514AFB","0198bcf9-30ef-7407-8caf-c29c8062eff3","0198bbb8-fd11-701d-9147-68794ad37298","{""num_scrambled_semantic"":""8"",""num_scrambled_causal"":""4"",""num_scrambled_schematic"":""4"",""participantId"":""6BA782BB5F7B4870B0D3954AE5514AFB"",""assignmentId"":""0198bcf9-30ef-7407-8caf-c29c8062eff3"",""projectId"":""0198bbb8-fd11-701d-9147-68794ad37298""}","https://test12345.live/?num_scrambled_semantic=8&num_scrambled_causal=4&num_scrambled_schematic=4&participantId=6BA782BB5F7B4870B0D3954AE5514AFB&assignmentId=0198bcf9-30ef-7407-8caf-c29c8062eff3&projectId=0198bbb8-fd11-701d-9147-68794ad37298","6BA782BB5F7B4870B0D3954AE5514AFB-2025-08-18-12-13-40","","3335","","images/causal_sequence/coin_causal/coin_causal_7.png","1","",""
"","","","","","image-button-response","27","402264","0.0-10.0-1.0-2.0","6BA782BB5F7B4870B0D3954AE5514AFB","6BA782BB5F7B4870B0D3954AE5514AFB","0198bcf9-30ef-7407-8caf-c29c8062eff3","0198bbb8-fd11-701d-9147-68794ad37298","{""num_scrambled_semantic"":""8"",""num_scrambled_causal"":""4"",""num_scrambled_schematic"":""4"",""participantId"":""6BA782BB5F7B4870B0D3954AE5514AFB"",""assignmentId"":""0198bcf9-30ef-7407-8caf-c29c8062eff3"",""projectId"":""0198bbb8-fd11-701d-9147-68794ad37298""}","https://test12345.live/?num_scrambled_semantic=8&num_scrambled_causal=4&num_scrambled_schematic=4&participantId=6BA782BB5F7B4870B0D3954AE5514AFB&assignmentId=0198bcf9-30ef-7407-8caf-c29c8062eff3&projectId=0198bbb8-fd11-701d-9147-68794ad37298","6BA782BB5F7B4870B0D3954AE5514AFB-2025-08-18-12-13-40","","null","","[]","null","",""
"","","","","","image-button-response","28","406770","0.0-10.0-1.0-0.1","6BA782BB5F7B4870B0D3954AE5514AFB","6BA782BB5F7B4870B0D3954AE5514AFB","0198bcf9-30ef-7407-8caf-c29c8062eff3","0198bbb8-fd11-701d-9147-68794ad37298","{""num_scrambled_semantic"":""8"",""num_scrambled_causal"":""4"",""num_scrambled_schematic"":""4"",""participantId"":""6BA782BB5F7B4870B0D3954AE5514AFB"",""assignmentId"":""0198bcf9-30ef-7407-8caf-c29c8062eff3"",""projectId"":""0198bbb8-fd11-701d-9147-68794ad37298""}","https://test12345.live/?num_scrambled_semantic=8&num_scrambled_causal=4&num_scrambled_schematic=4&participantId=6BA782BB5F7B4870B0D3954AE5514AFB&assignmentId=0198bcf9-30ef-7407-8caf-c29c8062eff3&projectId=0198bbb8-fd11-701d-9147-68794ad37298","6BA782BB5F7B4870B0D3954AE5514AFB-2025-08-18-12-13-40","","null","","images/causal_sequence/coin_causal/coin_causal_2.png","null","",""
"","","","","","image-button-response","29","408424","0.0-10.0-1.0-1.1","6BA782BB5F7B4870B0D3954AE5514AFB","6BA782BB5F7B4870B0D3954AE5514AFB","0198bcf9-30ef-7407-8caf-c29c8062eff3","0198bbb8-fd11-701d-9147-68794ad37298","{""num_scrambled_semantic"":""8"",""num_scrambled_causal"":""4"",""num_scrambled_schematic"":""4"",""participantId"":""6BA782BB5F7B4870B0D3954AE5514AFB"",""assignmentId"":""0198bcf9-30ef-7407-8caf-c29c8062eff3"",""projectId"":""0198bbb8-fd11-701d-9147-68794ad37298""}","https://test12345.live/?num_scrambled_semantic=8&num_scrambled_causal=4&num_scrambled_schematic=4&participantId=6BA782BB5F7B4870B0D3954AE5514AFB&assignmentId=0198bcf9-30ef-7407-8caf-c29c8062eff3&projectId=0198bbb8-fd11-701d-9147-68794ad37298","6BA782BB5F7B4870B0D3954AE5514AFB-2025-08-18-12-13-40","","1652","","images/causal_sequence/coin_causal/coin_causal_2.png","0","",""
"","","","","","image-button-response","30","419229","0.0-10.0-1.0-2.1","6BA782BB5F7B4870B0D3954AE5514AFB","6BA782BB5F7B4870B0D3954AE5514AFB","0198bcf9-30ef-7407-8caf-c29c8062eff3","0198bbb8-fd11-701d-9147-68794ad37298","{""num_scrambled_semantic"":""8"",""num_scrambled_causal"":""4"",""num_scrambled_schematic"":""4"",""participantId"":""6BA782BB5F7B4870B0D3954AE5514AFB"",""assignmentId"":""0198bcf9-30ef-7407-8caf-c29c8062eff3"",""projectId"":""0198bbb8-fd11-701d-9147-68794ad37298""}","https://test12345.live/?num_scrambled_semantic=8&num_scrambled_causal=4&num_scrambled_schematic=4&participantId=6BA782BB5F7B4870B0D3954AE5514AFB&assignmentId=0198bcf9-30ef-7407-8caf-c29c8062eff3&projectId=0198bbb8-fd11-701d-9147-68794ad37298","6BA782BB5F7B4870B0D3954AE5514AFB-2025-08-18-12-13-40","","null","","[]","null","",""
"","","","","","image-button-response","31","423734","0.0-10.0-1.0-0.2","6BA782BB5F7B4870B0D3954AE5514AFB","6BA782BB5F7B4870B0D3954AE5514AFB","0198bcf9-30ef-7407-8caf-c29c8062eff3","0198bbb8-fd11-701d-9147-68794ad37298","{""num_scrambled_semantic"":""8"",""num_scrambled_causal"":""4"",""num_scrambled_schematic"":""4"",""participantId"":""6BA782BB5F7B4870B0D3954AE5514AFB"",""assignmentId"":""0198bcf9-30ef-7407-8caf-c29c8062eff3"",""projectId"":""0198bbb8-fd11-701d-9147-68794ad37298""}","https://test12345.live/?num_scrambled_semantic=8&num_scrambled_causal=4&num_scrambled_schematic=4&participantId=6BA782BB5F7B4870B0D3954AE5514AFB&assignmentId=0198bcf9-30ef-7407-8caf-c29c8062eff3&projectId=0198bbb8-fd11-701d-9147-68794ad37298","6BA782BB5F7B4870B0D3954AE5514AFB-2025-08-18-12-13-40","","null","","images/causal_sequence/coin_causal/coin_causal_ten.png","null","",""
"","","","","","image-button-response","32","425095","0.0-10.0-1.0-1.2","6BA782BB5F7B4870B0D3954AE5514AFB","6BA782BB5F7B4870B0D3954AE5514AFB","0198bcf9-30ef-7407-8caf-c29c8062eff3","0198bbb8-fd11-701d-9147-68794ad37298","{""num_scrambled_semantic"":""8"",""num_scrambled_causal"":""4"",""num_scrambled_schematic"":""4"",""participantId"":""6BA782BB5F7B4870B0D3954AE5514AFB"",""assignmentId"":""0198bcf9-30ef-7407-8caf-c29c8062eff3"",""projectId"":""0198bbb8-fd11-701d-9147-68794ad37298""}","https://test12345.live/?num_scrambled_semantic=8&num_scrambled_causal=4&num_scrambled_schematic=4&participantId=6BA782BB5F7B4870B0D3954AE5514AFB&assignmentId=0198bcf9-30ef-7407-8caf-c29c8062eff3&projectId=0198bbb8-fd11-701d-9147-68794ad37298","6BA782BB5F7B4870B0D3954AE5514AFB-2025-08-18-12-13-40","","1358","","images/causal_sequence/coin_causal/coin_causal_ten.png","0","",""
"","","","","","image-button-response","33","435900","0.0-10.0-1.0-2.2","6BA782BB5F7B4870B0D3954AE5514AFB","6BA782BB5F7B4870B0D3954AE5514AFB","0198bcf9-30ef-7407-8caf-c29c8062eff3","0198bbb8-fd11-701d-9147-68794ad37298","{""num_scrambled_semantic"":""8"",""num_scrambled_causal"":""4"",""num_scrambled_schematic"":""4"",""participantId"":""6BA782BB5F7B4870B0D3954AE5514AFB"",""assignmentId"":""0198bcf9-30ef-7407-8caf-c29c8062eff3"",""projectId"":""0198bbb8-fd11-701d-9147-68794ad37298""}","https://test12345.live/?num_scrambled_semantic=8&num_scrambled_causal=4&num_scrambled_schematic=4&participantId=6BA782BB5F7B4870B0D3954AE5514AFB&assignmentId=0198bcf9-30ef-7407-8caf-c29c8062eff3&projectId=0198bbb8-fd11-701d-9147-68794ad37298","6BA782BB5F7B4870B0D3954AE5514AFB-2025-08-18-12-13-40","","null","","[]","null","",""
"","","","","","image-button-response","34","440404","0.0-10.0-1.0-0.3","6BA782BB5F7B4870B0D3954AE5514AFB","6BA782BB5F7B4870B0D3954AE5514AFB","0198bcf9-30ef-7407-8caf-c29c8062eff3","0198bbb8-fd11-701d-9147-68794ad37298","{""num_scrambled_semantic"":""8"",""num_scrambled_causal"":""4"",""num_scrambled_schematic"":""4"",""participantId"":""6BA782BB5F7B4870B0D3954AE5514AFB"",""assignmentId"":""0198bcf9-30ef-7407-8caf-c29c8062eff3"",""projectId"":""0198bbb8-fd11-701d-9147-68794ad37298""}","https://test12345.live/?num_scrambled_semantic=8&num_scrambled_causal=4&num_scrambled_schematic=4&participantId=6BA782BB5F7B4870B0D3954AE5514AFB&assignmentId=0198bcf9-30ef-7407-8caf-c29c8062eff3&projectId=0198bbb8-fd11-701d-9147-68794ad37298","6BA782BB5F7B4870B0D3954AE5514AFB-2025-08-18-12-13-40","","null","","images/causal_sequence/coin_causal/coin_causal_4.png","null","",""
"","","","","","image-button-response","35","442824","0.0-10.0-1.0-1.3","6BA782BB5F7B4870B0D3954AE5514AFB","6BA782BB5F7B4870B0D3954AE5514AFB","0198bcf9-30ef-7407-8caf-c29c8062eff3","0198bbb8-fd11-701d-9147-68794ad37298","{""num_scrambled_semantic"":""8"",""num_scrambled_causal"":""4"",""num_scrambled_schematic"":""4"",""participantId"":""6BA782BB5F7B4870B0D3954AE5514AFB"",""assignmentId"":""0198bcf9-30ef-7407-8caf-c29c8062eff3"",""projectId"":""0198bbb8-fd11-701d-9147-68794ad37298""}","https://test12345.live/?num_scrambled_semantic=8&num_scrambled_causal=4&num_scrambled_schematic=4&participantId=6BA782BB5F7B4870B0D3954AE5514AFB&assignmentId=0198bcf9-30ef-7407-8caf-c29c8062eff3&projectId=0198bbb8-fd11-701d-9147-68794ad37298","6BA782BB5F7B4870B0D3954AE5514AFB-2025-08-18-12-13-40","","2418","","images/causal_sequence/coin_causal/coin_causal_4.png","0","",""
"","","","","","image-button-response","36","453628","0.0-10.0-1.0-2.3","6BA782BB5F7B4870B0D3954AE5514AFB","6BA782BB5F7B4870B0D3954AE5514AFB","0198bcf9-30ef-7407-8caf-c29c8062eff3","0198bbb8-fd11-701d-9147-68794ad37298","{""num_scrambled_semantic"":""8"",""num_scrambled_causal"":""4"",""num_scrambled_schematic"":""4"",""participantId"":""6BA782BB5F7B4870B0D3954AE5514AFB"",""assignmentId"":""0198bcf9-30ef-7407-8caf-c29c8062eff3"",""projectId"":""0198bbb8-fd11-701d-9147-68794ad37298""}","https://test12345.live/?num_scrambled_semantic=8&num_scrambled_causal=4&num_scrambled_schematic=4&participantId=6BA782BB5F7B4870B0D3954AE5514AFB&assignmentId=0198bcf9-30ef-7407-8caf-c29c8062eff3&projectId=0198bbb8-fd11-701d-9147-68794ad37298","6BA782BB5F7B4870B0D3954AE5514AFB-2025-08-18-12-13-40","","null","","[]","null","",""
"","","","","","image-button-response","37","458131","0.0-10.0-1.0-0.4","6BA782BB5F7B4870B0D3954AE5514AFB","6BA782BB5F7B4870B0D3954AE5514AFB","0198bcf9-30ef-7407-8caf-c29c8062eff3","0198bbb8-fd11-701d-9147-68794ad37298","{""num_scrambled_semantic"":""8"",""num_scrambled_causal"":""4"",""num_scrambled_schematic"":""4"",""participantId"":""6BA782BB5F7B4870B0D3954AE5514AFB"",""assignmentId"":""0198bcf9-30ef-7407-8caf-c29c8062eff3"",""projectId"":""0198bbb8-fd11-701d-9147-68794ad37298""}","https://test12345.live/?num_scrambled_semantic=8&num_scrambled_causal=4&num_scrambled_schematic=4&participantId=6BA782BB5F7B4870B0D3954AE5514AFB&assignmentId=0198bcf9-30ef-7407-8caf-c29c8062eff3&projectId=0198bbb8-fd11-701d-9147-68794ad37298","6BA782BB5F7B4870B0D3954AE5514AFB-2025-08-18-12-13-40","","null","","images/causal_sequence/coin_causal/coin_causal_9.png","null","",""
"","","","","","image-button-response","38","459359","0.0-10.0-1.0-1.4","6BA782BB5F7B4870B0D3954AE5514AFB","6BA782BB5F7B4870B0D3954AE5514AFB","0198bcf9-30ef-7407-8caf-c29c8062eff3","0198bbb8-fd11-701d-9147-68794ad37298","{""num_scrambled_semantic"":""8"",""num_scrambled_causal"":""4"",""num_scrambled_schematic"":""4"",""participantId"":""6BA782BB5F7B4870B0D3954AE5514AFB"",""assignmentId"":""0198bcf9-30ef-7407-8caf-c29c8062eff3"",""projectId"":""0198bbb8-fd11-701d-9147-68794ad37298""}","https://test12345.live/?num_scrambled_semantic=8&num_scrambled_causal=4&num_scrambled_schematic=4&participantId=6BA782BB5F7B4870B0D3954AE5514AFB&assignmentId=0198bcf9-30ef-7407-8caf-c29c8062eff3&projectId=0198bbb8-fd11-701d-9147-68794ad37298","6BA782BB5F7B4870B0D3954AE5514AFB-2025-08-18-12-13-40","","1225","","images/causal_sequence/coin_causal/coin_causal_9.png","0","",""
"","","","","","image-button-response","39","470165","0.0-10.0-1.0-2.4","6BA782BB5F7B4870B0D3954AE5514AFB","6BA782BB5F7B4870B0D3954AE5514AFB","0198bcf9-30ef-7407-8caf-c29c8062eff3","0198bbb8-fd11-701d-9147-68794ad37298","{""num_scrambled_semantic"":""8"",""num_scrambled_causal"":""4"",""num_scrambled_schematic"":""4"",""participantId"":""6BA782BB5F7B4870B0D3954AE5514AFB"",""assignmentId"":""0198bcf9-30ef-7407-8caf-c29c8062eff3"",""projectId"":""0198bbb8-fd11-701d-9147-68794ad37298""}","https://test12345.live/?num_scrambled_semantic=8&num_scrambled_causal=4&num_scrambled_schematic=4&participantId=6BA782BB5F7B4870B0D3954AE5514AFB&assignmentId=0198bcf9-30ef-7407-8caf-c29c8062eff3&projectId=0198bbb8-fd11-701d-9147-68794ad37298","6BA782BB5F7B4870B0D3954AE5514AFB-2025-08-18-12-13-40","","null","","[]","null","",""
"","","","","","image-button-response","40","474672","0.0-10.0-1.0-0.5","6BA782BB5F7B4870B0D3954AE5514AFB","6BA782BB5F7B4870B0D3954AE5514AFB","0198bcf9-30ef-7407-8caf-c29c8062eff3","0198bbb8-fd11-701d-9147-68794ad37298","{""num_scrambled_semantic"":""8"",""num_scrambled_causal"":""4"",""num_scrambled_schematic"":""4"",""participantId"":""6BA782BB5F7B4870B0D3954AE5514AFB"",""assignmentId"":""0198bcf9-30ef-7407-8caf-c29c8062eff3"",""projectId"":""0198bbb8-fd11-701d-9147-68794ad37298""}","https://test12345.live/?num_scrambled_semantic=8&num_scrambled_causal=4&num_scrambled_schematic=4&participantId=6BA782BB5F7B4870B0D3954AE5514AFB&assignmentId=0198bcf9-30ef-7407-8caf-c29c8062eff3&projectId=0198bbb8-fd11-701d-9147-68794ad37298","6BA782BB5F7B4870B0D3954AE5514AFB-2025-08-18-12-13-40","","null","","images/causal_sequence/coin_causal/coin_causal_6.png","null","",""
"","","","","","image-button-response","41","476441","0.0-10.0-1.0-1.5","6BA782BB5F7B4870B0D3954AE5514AFB","6BA782BB5F7B4870B0D3954AE5514AFB","0198bcf9-30ef-7407-8caf-c29c8062eff3","0198bbb8-fd11-701d-9147-68794ad37298","{""num_scrambled_semantic"":""8"",""num_scrambled_causal"":""4"",""num_scrambled_schematic"":""4"",""participantId"":""6BA782BB5F7B4870B0D3954AE5514AFB"",""assignmentId"":""0198bcf9-30ef-7407-8caf-c29c8062eff3"",""projectId"":""0198bbb8-fd11-701d-9147-68794ad37298""}","https://test12345.live/?num_scrambled_semantic=8&num_scrambled_causal=4&num_scrambled_schematic=4&participantId=6BA782BB5F7B4870B0D3954AE5514AFB&assignmentId=0198bcf9-30ef-7407-8caf-c29c8062eff3&projectId=0198bbb8-fd11-701d-9147-68794ad37298","6BA782BB5F7B4870B0D3954AE5514AFB-2025-08-18-12-13-40","","1767","","images/causal_sequence/coin_causal/coin_causal_6.png","0","",""
"","","","","","image-button-response","42","487249","0.0-10.0-1.0-2.5","6BA782BB5F7B4870B0D3954AE5514AFB","6BA782BB5F7B4870B0D3954AE5514AFB","0198bcf9-30ef-7407-8caf-c29c8062eff3","0198bbb8-fd11-701d-9147-68794ad37298","{""num_scrambled_semantic"":""8"",""num_scrambled_causal"":""4"",""num_scrambled_schematic"":""4"",""participantId"":""6BA782BB5F7B4870B0D3954AE5514AFB"",""assignmentId"":""0198bcf9-30ef-7407-8caf-c29c8062eff3"",""projectId"":""0198bbb8-fd11-701d-9147-68794ad37298""}","https://test12345.live/?num_scrambled_semantic=8&num_scrambled_causal=4&num_scrambled_schematic=4&participantId=6BA782BB5F7B4870B0D3954AE5514AFB&assignmentId=0198bcf9-30ef-7407-8caf-c29c8062eff3&projectId=0198bbb8-fd11-701d-9147-68794ad37298","6BA782BB5F7B4870B0D3954AE5514AFB-2025-08-18-12-13-40","","null","","[]","null","",""
"","","","","","image-button-response","43","491755","0.0-10.0-1.0-0.6","6BA782BB5F7B4870B0D3954AE5514AFB","6BA782BB5F7B4870B0D3954AE5514AFB","0198bcf9-30ef-7407-8caf-c29c8062eff3","0198bbb8-fd11-701d-9147-68794ad37298","{""num_scrambled_semantic"":""8"",""num_scrambled_causal"":""4"",""num_scrambled_schematic"":""4"",""participantId"":""6BA782BB5F7B4870B0D3954AE5514AFB"",""assignmentId"":""0198bcf9-30ef-7407-8caf-c29c8062eff3"",""projectId"":""0198bbb8-fd11-701d-9147-68794ad37298""}","https://test12345.live/?num_scrambled_semantic=8&num_scrambled_causal=4&num_scrambled_schematic=4&participantId=6BA782BB5F7B4870B0D3954AE5514AFB&assignmentId=0198bcf9-30ef-7407-8caf-c29c8062eff3&projectId=0198bbb8-fd11-701d-9147-68794ad37298","6BA782BB5F7B4870B0D3954AE5514AFB-2025-08-18-12-13-40","","null","","images/causal_sequence/coin_causal/coin_causal_8.png","null","",""
"","","","","","image-button-response","44","494562","0.0-10.0-1.0-1.6","6BA782BB5F7B4870B0D3954AE5514AFB","6BA782BB5F7B4870B0D3954AE5514AFB","0198bcf9-30ef-7407-8caf-c29c8062eff3","0198bbb8-fd11-701d-9147-68794ad37298","{""num_scrambled_semantic"":""8"",""num_scrambled_causal"":""4"",""num_scrambled_schematic"":""4"",""participantId"":""6BA782BB5F7B4870B0D3954AE5514AFB"",""assignmentId"":""0198bcf9-30ef-7407-8caf-c29c8062eff3"",""projectId"":""0198bbb8-fd11-701d-9147-68794ad37298""}","https://test12345.live/?num_scrambled_semantic=8&num_scrambled_causal=4&num_scrambled_schematic=4&participantId=6BA782BB5F7B4870B0D3954AE5514AFB&assignmentId=0198bcf9-30ef-7407-8caf-c29c8062eff3&projectId=0198bbb8-fd11-701d-9147-68794ad37298","6BA782BB5F7B4870B0D3954AE5514AFB-2025-08-18-12-13-40","","2804","","images/causal_sequence/coin_causal/coin_causal_8.png","0","",""
"","","","","","image-button-response","45","505368","0.0-10.0-1.0-2.6","6BA782BB5F7B4870B0D3954AE5514AFB","6BA782BB5F7B4870B0D3954AE5514AFB","0198bcf9-30ef-7407-8caf-c29c8062eff3","0198bbb8-fd11-701d-9147-68794ad37298","{""num_scrambled_semantic"":""8"",""num_scrambled_causal"":""4"",""num_scrambled_schematic"":""4"",""participantId"":""6BA782BB5F7B4870B0D3954AE5514AFB"",""assignmentId"":""0198bcf9-30ef-7407-8caf-c29c8062eff3"",""projectId"":""0198bbb8-fd11-701d-9147-68794ad37298""}","https://test12345.live/?num_scrambled_semantic=8&num_scrambled_causal=4&num_scrambled_schematic=4&participantId=6BA782BB5F7B4870B0D3954AE5514AFB&assignmentId=0198bcf9-30ef-7407-8caf-c29c8062eff3&projectId=0198bbb8-fd11-701d-9147-68794ad37298","6BA782BB5F7B4870B0D3954AE5514AFB-2025-08-18-12-13-40","","null","","[]","null","",""
"","","","","","image-button-response","46","509874","0.0-10.0-1.0-0.7","6BA782BB5F7B4870B0D3954AE5514AFB","6BA782BB5F7B4870B0D3954AE5514AFB","0198bcf9-30ef-7407-8caf-c29c8062eff3","0198bbb8-fd11-701d-9147-68794ad37298","{""num_scrambled_semantic"":""8"",""num_scrambled_causal"":""4"",""num_scrambled_schematic"":""4"",""participantId"":""6BA782BB5F7B4870B0D3954AE5514AFB"",""assignmentId"":""0198bcf9-30ef-7407-8caf-c29c8062eff3"",""projectId"":""0198bbb8-fd11-701d-9147-68794ad37298""}","https://test12345.live/?num_scrambled_semantic=8&num_scrambled_causal=4&num_scrambled_schematic=4&participantId=6BA782BB5F7B4870B0D3954AE5514AFB&assignmentId=0198bcf9-30ef-7407-8caf-c29c8062eff3&projectId=0198bbb8-fd11-701d-9147-68794ad37298","6BA782BB5F7B4870B0D3954AE5514AFB-2025-08-18-12-13-40","","null","","images/causal_sequence/coin_causal/coin_causal_1.png","null","",""
"","","","","","image-button-response","47","513881","0.0-10.0-1.0-1.7","6BA782BB5F7B4870B0D3954AE5514AFB","6BA782BB5F7B4870B0D3954AE5514AFB","0198bcf9-30ef-7407-8caf-c29c8062eff3","0198bbb8-fd11-701d-9147-68794ad37298","{""num_scrambled_semantic"":""8"",""num_scrambled_causal"":""4"",""num_scrambled_schematic"":""4"",""participantId"":""6BA782BB5F7B4870B0D3954AE5514AFB"",""assignmentId"":""0198bcf9-30ef-7407-8caf-c29c8062eff3"",""projectId"":""0198bbb8-fd11-701d-9147-68794ad37298""}","https://test12345.live/?num_scrambled_semantic=8&num_scrambled_causal=4&num_scrambled_schematic=4&participantId=6BA782BB5F7B4870B0D3954AE5514AFB&assignmentId=0198bcf9-30ef-7407-8caf-c29c8062eff3&projectId=0198bbb8-fd11-701d-9147-68794ad37298","6BA782BB5F7B4870B0D3954AE5514AFB-2025-08-18-12-13-40","","null","","images/causal_sequence/coin_causal/coin_causal_1.png","null","",""
"","","","","","image-button-response","48","524687","0.0-10.0-1.0-2.7","6BA782BB5F7B4870B0D3954AE5514AFB","6BA782BB5F7B4870B0D3954AE5514AFB","0198bcf9-30ef-7407-8caf-c29c8062eff3","0198bbb8-fd11-701d-9147-68794ad37298","{""num_scrambled_semantic"":""8"",""num_scrambled_causal"":""4"",""num_scrambled_schematic"":""4"",""participantId"":""6BA782BB5F7B4870B0D3954AE5514AFB"",""assignmentId"":""0198bcf9-30ef-7407-8caf-c29c8062eff3"",""projectId"":""0198bbb8-fd11-701d-9147-68794ad37298""}","https://test12345.live/?num_scrambled_semantic=8&num_scrambled_causal=4&num_scrambled_schematic=4&participantId=6BA782BB5F7B4870B0D3954AE5514AFB&assignmentId=0198bcf9-30ef-7407-8caf-c29c8062eff3&projectId=0198bbb8-fd11-701d-9147-68794ad37298","6BA782BB5F7B4870B0D3954AE5514AFB-2025-08-18-12-13-40","","null","","[]","null","",""
"","","","","","image-button-response","49","529189","0.0-10.0-1.0-0.8","6BA782BB5F7B4870B0D3954AE5514AFB","6BA782BB5F7B4870B0D3954AE5514AFB","0198bcf9-30ef-7407-8caf-c29c8062eff3","0198bbb8-fd11-701d-9147-68794ad37298","{""num_scrambled_semantic"":""8"",""num_scrambled_causal"":""4"",""num_scrambled_schematic"":""4"",""participantId"":""6BA782BB5F7B4870B0D3954AE5514AFB"",""assignmentId"":""0198bcf9-30ef-7407-8caf-c29c8062eff3"",""projectId"":""0198bbb8-fd11-701d-9147-68794ad37298""}","https://test12345.live/?num_scrambled_semantic=8&num_scrambled_causal=4&num_scrambled_schematic=4&participantId=6BA782BB5F7B4870B0D3954AE5514AFB&assignmentId=0198bcf9-30ef-7407-8caf-c29c8062eff3&projectId=0198bbb8-fd11-701d-9147-68794ad37298","6BA782BB5F7B4870B0D3954AE5514AFB-2025-08-18-12-13-40","","null","","images/causal_sequence/coin_causal/coin_causal_5.png","null","",""
"","","","","","image-button-response","50","530358","0.0-10.0-1.0-1.8","6BA782BB5F7B4870B0D3954AE5514AFB","6BA782BB5F7B4870B0D3954AE5514AFB","0198bcf9-30ef-7407-8caf-c29c8062eff3","0198bbb8-fd11-701d-9147-68794ad37298","{""num_scrambled_semantic"":""8"",""num_scrambled_causal"":""4"",""num_scrambled_schematic"":""4"",""participantId"":""6BA782BB5F7B4870B0D3954AE5514AFB"",""assignmentId"":""0198bcf9-30ef-7407-8caf-c29c8062eff3"",""projectId"":""0198bbb8-fd11-701d-9147-68794ad37298""}","https://test12345.live/?num_scrambled_semantic=8&num_scrambled_causal=4&num_scrambled_schematic=4&participantId=6BA782BB5F7B4870B0D3954AE5514AFB&assignmentId=0198bcf9-30ef-7407-8caf-c29c8062eff3&projectId=0198bbb8-fd11-701d-9147-68794ad37298","6BA782BB5F7B4870B0D3954AE5514AFB-2025-08-18-12-13-40","","1166","","images/causal_sequence/coin_causal/coin_causal_5.png","0","",""
"","","","","","image-button-response","51","541163","0.0-10.0-1.0-2.8","6BA782BB5F7B4870B0D3954AE5514AFB","6BA782BB5F7B4870B0D3954AE5514AFB","0198bcf9-30ef-7407-8caf-c29c8062eff3","0198bbb8-fd11-701d-9147-68794ad37298","{""num_scrambled_semantic"":""8"",""num_scrambled_causal"":""4"",""num_scrambled_schematic"":""4"",""participantId"":""6BA782BB5F7B4870B0D3954AE5514AFB"",""assignmentId"":""0198bcf9-30ef-7407-8caf-c29c8062eff3"",""projectId"":""0198bbb8-fd11-701d-9147-68794ad37298""}","https://test12345.live/?num_scrambled_semantic=8&num_scrambled_causal=4&num_scrambled_schematic=4&participantId=6BA782BB5F7B4870B0D3954AE5514AFB&assignmentId=0198bcf9-30ef-7407-8caf-c29c8062eff3&projectId=0198bbb8-fd11-701d-9147-68794ad37298","6BA782BB5F7B4870B0D3954AE5514AFB-2025-08-18-12-13-40","","null","","[]","null","",""
"","","","","","image-button-response","52","545669","0.0-10.0-1.0-0.9","6BA782BB5F7B4870B0D3954AE5514AFB","6BA782BB5F7B4870B0D3954AE5514AFB","0198bcf9-30ef-7407-8caf-c29c8062eff3","0198bbb8-fd11-701d-9147-68794ad37298","{""num_scrambled_semantic"":""8"",""num_scrambled_causal"":""4"",""num_scrambled_schematic"":""4"",""participantId"":""6BA782BB5F7B4870B0D3954AE5514AFB"",""assignmentId"":""0198bcf9-30ef-7407-8caf-c29c8062eff3"",""projectId"":""0198bbb8-fd11-701d-9147-68794ad37298""}","https://test12345.live/?num_scrambled_semantic=8&num_scrambled_causal=4&num_scrambled_schematic=4&participantId=6BA782BB5F7B4870B0D3954AE5514AFB&assignmentId=0198bcf9-30ef-7407-8caf-c29c8062eff3&projectId=0198bbb8-fd11-701d-9147-68794ad37298","6BA782BB5F7B4870B0D3954AE5514AFB-2025-08-18-12-13-40","","null","","images/causal_sequence/coin_causal/coin_causal_3.png","null","",""
"","","","","","image-button-response","53","547841","0.0-10.0-1.0-1.9","6BA782BB5F7B4870B0D3954AE5514AFB","6BA782BB5F7B4870B0D3954AE5514AFB","0198bcf9-30ef-7407-8caf-c29c8062eff3","0198bbb8-fd11-701d-9147-68794ad37298","{""num_scrambled_semantic"":""8"",""num_scrambled_causal"":""4"",""num_scrambled_schematic"":""4"",""participantId"":""6BA782BB5F7B4870B0D3954AE5514AFB"",""assignmentId"":""0198bcf9-30ef-7407-8caf-c29c8062eff3"",""projectId"":""0198bbb8-fd11-701d-9147-68794ad37298""}","https://test12345.live/?num_scrambled_semantic=8&num_scrambled_causal=4&num_scrambled_schematic=4&participantId=6BA782BB5F7B4870B0D3954AE5514AFB&assignmentId=0198bcf9-30ef-7407-8caf-c29c8062eff3&projectId=0198bbb8-fd11-701d-9147-68794ad37298","6BA782BB5F7B4870B0D3954AE5514AFB-2025-08-18-12-13-40","","2171","","images/causal_sequence/coin_causal/coin_causal_3.png","0","",""
"","","","","","image-button-response","54","558648","0.0-10.0-1.0-2.9","6BA782BB5F7B4870B0D3954AE5514AFB","6BA782BB5F7B4870B0D3954AE5514AFB","0198bcf9-30ef-7407-8caf-c29c8062eff3","0198bbb8-fd11-701d-9147-68794ad37298","{""num_scrambled_semantic"":""8"",""num_scrambled_causal"":""4"",""num_scrambled_schematic"":""4"",""participantId"":""6BA782BB5F7B4870B0D3954AE5514AFB"",""assignmentId"":""0198bcf9-30ef-7407-8caf-c29c8062eff3"",""projectId"":""0198bbb8-fd11-701d-9147-68794ad37298""}","https://test12345.live/?num_scrambled_semantic=8&num_scrambled_causal=4&num_scrambled_schematic=4&participantId=6BA782BB5F7B4870B0D3954AE5514AFB&assignmentId=0198bcf9-30ef-7407-8caf-c29c8062eff3&projectId=0198bbb8-fd11-701d-9147-68794ad37298","6BA782BB5F7B4870B0D3954AE5514AFB-2025-08-18-12-13-40","","null","","[]","null","",""
"","","","","","html-audio-response","55","597475","0.0-11.0","6BA782BB5F7B4870B0D3954AE5514AFB","6BA782BB5F7B4870B0D3954AE5514AFB","0198bcf9-30ef-7407-8caf-c29c8062eff3","0198bbb8-fd11-701d-9147-68794ad37298","{""num_scrambled_semantic"":""8"",""num_scrambled_causal"":""4"",""num_scrambled_schematic"":""4"",""participantId"":""6BA782BB5F7B4870B0D3954AE5514AFB"",""assignmentId"":""0198bcf9-30ef-7407-8caf-c29c8062eff3"",""projectId"":""0198bbb8-fd11-701d-9147-68794ad37298""}","https://test12345.live/?num_scrambled_semantic=8&num_scrambled_causal=4&num_scrambled_schematic=4&participantId=6BA782BB5F7B4870B0D3954AE5514AFB&assignmentId=0198bcf9-30ef-7407-8caf-c29c8062eff3&projectId=0198bbb8-fd11-701d-9147-68794ad37298","6BA782BB5F7B4870B0D3954AE5514AFB-2025-08-18-12-13-40","","36013","","[""<span style=\""color: red; font-size: 24px\""> NOW RECORDING</span><p>Please say out loud all the images you saw, as many as you can remember. The images can be said in any order.</p>""]","","2","coin_causal"
"","","","","","image-button-response","56","603484","0.0-12.0-0.0","6BA782BB5F7B4870B0D3954AE5514AFB","6BA782BB5F7B4870B0D3954AE5514AFB","0198bcf9-30ef-7407-8caf-c29c8062eff3","0198bbb8-fd11-701d-9147-68794ad37298","{""num_scrambled_semantic"":""8"",""num_scrambled_causal"":""4"",""num_scrambled_schematic"":""4"",""participantId"":""6BA782BB5F7B4870B0D3954AE5514AFB"",""assignmentId"":""0198bcf9-30ef-7407-8caf-c29c8062eff3"",""projectId"":""0198bbb8-fd11-701d-9147-68794ad37298""}","https://test12345.live/?num_scrambled_semantic=8&num_scrambled_causal=4&num_scrambled_schematic=4&participantId=6BA782BB5F7B4870B0D3954AE5514AFB&assignmentId=0198bcf9-30ef-7407-8caf-c29c8062eff3&projectId=0198bbb8-fd11-701d-9147-68794ad37298","6BA782BB5F7B4870B0D3954AE5514AFB-2025-08-18-12-13-40","","null","","images/causal_sequence/dog_causal/dog_causal_0.png","null","",""
"","","","","","image-button-response","57","607991","0.0-12.0-1.0-0.0","6BA782BB5F7B4870B0D3954AE5514AFB","6BA782BB5F7B4870B0D3954AE5514AFB","0198bcf9-30ef-7407-8caf-c29c8062eff3","0198bbb8-fd11-701d-9147-68794ad37298","{""num_scrambled_semantic"":""8"",""num_scrambled_causal"":""4"",""num_scrambled_schematic"":""4"",""participantId"":""6BA782BB5F7B4870B0D3954AE5514AFB"",""assignmentId"":""0198bcf9-30ef-7407-8caf-c29c8062eff3"",""projectId"":""0198bbb8-fd11-701d-9147-68794ad37298""}","https://test12345.live/?num_scrambled_semantic=8&num_scrambled_causal=4&num_scrambled_schematic=4&participantId=6BA782BB5F7B4870B0D3954AE5514AFB&assignmentId=0198bcf9-30ef-7407-8caf-c29c8062eff3&projectId=0198bbb8-fd11-701d-9147-68794ad37298","6BA782BB5F7B4870B0D3954AE5514AFB-2025-08-18-12-13-40","","null","","images/causal_sequence/dog_causal/dog_causal_1.png","null","",""
"","","","","","image-button-response","58","609991","0.0-12.0-1.0-1.0","6BA782BB5F7B4870B0D3954AE5514AFB","6BA782BB5F7B4870B0D3954AE5514AFB","0198bcf9-30ef-7407-8caf-c29c8062eff3","0198bbb8-fd11-701d-9147-68794ad37298","{""num_scrambled_semantic"":""8"",""num_scrambled_causal"":""4"",""num_scrambled_schematic"":""4"",""participantId"":""6BA782BB5F7B4870B0D3954AE5514AFB"",""assignmentId"":""0198bcf9-30ef-7407-8caf-c29c8062eff3"",""projectId"":""0198bbb8-fd11-701d-9147-68794ad37298""}","https://test12345.live/?num_scrambled_semantic=8&num_scrambled_causal=4&num_scrambled_schematic=4&participantId=6BA782BB5F7B4870B0D3954AE5514AFB&assignmentId=0198bcf9-30ef-7407-8caf-c29c8062eff3&projectId=0198bbb8-fd11-701d-9147-68794ad37298","6BA782BB5F7B4870B0D3954AE5514AFB-2025-08-18-12-13-40","","1998","","images/causal_sequence/dog_causal/dog_causal_1.png","0","",""
"","","","","","image-button-response","59","620793","0.0-12.0-1.0-2.0","6BA782BB5F7B4870B0D3954AE5514AFB","6BA782BB5F7B4870B0D3954AE5514AFB","0198bcf9-30ef-7407-8caf-c29c8062eff3","0198bbb8-fd11-701d-9147-68794ad37298","{""num_scrambled_semantic"":""8"",""num_scrambled_causal"":""4"",""num_scrambled_schematic"":""4"",""participantId"":""6BA782BB5F7B4870B0D3954AE5514AFB"",""assignmentId"":""0198bcf9-30ef-7407-8caf-c29c8062eff3"",""projectId"":""0198bbb8-fd11-701d-9147-68794ad37298""}","https://test12345.live/?num_scrambled_semantic=8&num_scrambled_causal=4&num_scrambled_schematic=4&participantId=6BA782BB5F7B4870B0D3954AE5514AFB&assignmentId=0198bcf9-30ef-7407-8caf-c29c8062eff3&projectId=0198bbb8-fd11-701d-9147-68794ad37298","6BA782BB5F7B4870B0D3954AE5514AFB-2025-08-18-12-13-40","","null","","[]","null","",""
"","","","","","image-button-response","60","625298","0.0-12.0-1.0-0.1","6BA782BB5F7B4870B0D3954AE5514AFB","6BA782BB5F7B4870B0D3954AE5514AFB","0198bcf9-30ef-7407-8caf-c29c8062eff3","0198bbb8-fd11-701d-9147-68794ad37298","{""num_scrambled_semantic"":""8"",""num_scrambled_causal"":""4"",""num_scrambled_schematic"":""4"",""participantId"":""6BA782BB5F7B4870B0D3954AE5514AFB"",""assignmentId"":""0198bcf9-30ef-7407-8caf-c29c8062eff3"",""projectId"":""0198bbb8-fd11-701d-9147-68794ad37298""}","https://test12345.live/?num_scrambled_semantic=8&num_scrambled_causal=4&num_scrambled_schematic=4&participantId=6BA782BB5F7B4870B0D3954AE5514AFB&assignmentId=0198bcf9-30ef-7407-8caf-c29c8062eff3&projectId=0198bbb8-fd11-701d-9147-68794ad37298","6BA782BB5F7B4870B0D3954AE5514AFB-2025-08-18-12-13-40","","null","","images/causal_sequence/dog_causal/dog_causal_2.png","null","",""
"","","","","","image-button-response","61","626777","0.0-12.0-1.0-1.1","6BA782BB5F7B4870B0D3954AE5514AFB","6BA782BB5F7B4870B0D3954AE5514AFB","0198bcf9-30ef-7407-8caf-c29c8062eff3","0198bbb8-fd11-701d-9147-68794ad37298","{""num_scrambled_semantic"":""8"",""num_scrambled_causal"":""4"",""num_scrambled_schematic"":""4"",""participantId"":""6BA782BB5F7B4870B0D3954AE5514AFB"",""assignmentId"":""0198bcf9-30ef-7407-8caf-c29c8062eff3"",""projectId"":""0198bbb8-fd11-701d-9147-68794ad37298""}","https://test12345.live/?num_scrambled_semantic=8&num_scrambled_causal=4&num_scrambled_schematic=4&participantId=6BA782BB5F7B4870B0D3954AE5514AFB&assignmentId=0198bcf9-30ef-7407-8caf-c29c8062eff3&projectId=0198bbb8-fd11-701d-9147-68794ad37298","6BA782BB5F7B4870B0D3954AE5514AFB-2025-08-18-12-13-40","","1477","","images/causal_sequence/dog_causal/dog_causal_2.png","0","",""
"","","","","","image-button-response","62","637584","0.0-12.0-1.0-2.1","6BA782BB5F7B4870B0D3954AE5514AFB","6BA782BB5F7B4870B0D3954AE5514AFB","0198bcf9-30ef-7407-8caf-c29c8062eff3","0198bbb8-fd11-701d-9147-68794ad37298","{""num_scrambled_semantic"":""8"",""num_scrambled_causal"":""4"",""num_scrambled_schematic"":""4"",""participantId"":""6BA782BB5F7B4870B0D3954AE5514AFB"",""assignmentId"":""0198bcf9-30ef-7407-8caf-c29c8062eff3"",""projectId"":""0198bbb8-fd11-701d-9147-68794ad37298""}","https://test12345.live/?num_scrambled_semantic=8&num_scrambled_causal=4&num_scrambled_schematic=4&participantId=6BA782BB5F7B4870B0D3954AE5514AFB&assignmentId=0198bcf9-30ef-7407-8caf-c29c8062eff3&projectId=0198bbb8-fd11-701d-9147-68794ad37298","6BA782BB5F7B4870B0D3954AE5514AFB-2025-08-18-12-13-40","","null","","[]","null","",""
"","","","","","image-button-response","63","642088","0.0-12.0-1.0-0.2","6BA782BB5F7B4870B0D3954AE5514AFB","6BA782BB5F7B4870B0D3954AE5514AFB","0198bcf9-30ef-7407-8caf-c29c8062eff3","0198bbb8-fd11-701d-9147-68794ad37298","{""num_scrambled_semantic"":""8"",""num_scrambled_causal"":""4"",""num_scrambled_schematic"":""4"",""participantId"":""6BA782BB5F7B4870B0D3954AE5514AFB"",""assignmentId"":""0198bcf9-30ef-7407-8caf-c29c8062eff3"",""projectId"":""0198bbb8-fd11-701d-9147-68794ad37298""}","https://test12345.live/?num_scrambled_semantic=8&num_scrambled_causal=4&num_scrambled_schematic=4&participantId=6BA782BB5F7B4870B0D3954AE5514AFB&assignmentId=0198bcf9-30ef-7407-8caf-c29c8062eff3&projectId=0198bbb8-fd11-701d-9147-68794ad37298","6BA782BB5F7B4870B0D3954AE5514AFB-2025-08-18-12-13-40","","null","","images/causal_sequence/dog_causal/dog_causal_3.png","null","",""
"","","","","","image-button-response","64","644125","0.0-12.0-1.0-1.2","6BA782BB5F7B4870B0D3954AE5514AFB","6BA782BB5F7B4870B0D3954AE5514AFB","0198bcf9-30ef-7407-8caf-c29c8062eff3","0198bbb8-fd11-701d-9147-68794ad37298","{""num_scrambled_semantic"":""8"",""num_scrambled_causal"":""4"",""num_scrambled_schematic"":""4"",""participantId"":""6BA782BB5F7B4870B0D3954AE5514AFB"",""assignmentId"":""0198bcf9-30ef-7407-8caf-c29c8062eff3"",""projectId"":""0198bbb8-fd11-701d-9147-68794ad37298""}","https://test12345.live/?num_scrambled_semantic=8&num_scrambled_causal=4&num_scrambled_schematic=4&participantId=6BA782BB5F7B4870B0D3954AE5514AFB&assignmentId=0198bcf9-30ef-7407-8caf-c29c8062eff3&projectId=0198bbb8-fd11-701d-9147-68794ad37298","6BA782BB5F7B4870B0D3954AE5514AFB-2025-08-18-12-13-40","","2035","","images/causal_sequence/dog_causal/dog_causal_3.png","0","",""
"","","","","","image-button-response","65","654929","0.0-12.0-1.0-2.2","6BA782BB5F7B4870B0D3954AE5514AFB","6BA782BB5F7B4870B0D3954AE5514AFB","0198bcf9-30ef-7407-8caf-c29c8062eff3","0198bbb8-fd11-701d-9147-68794ad37298","{""num_scrambled_semantic"":""8"",""num_scrambled_causal"":""4"",""num_scrambled_schematic"":""4"",""participantId"":""6BA782BB5F7B4870B0D3954AE5514AFB"",""assignmentId"":""0198bcf9-30ef-7407-8caf-c29c8062eff3"",""projectId"":""0198bbb8-fd11-701d-9147-68794ad37298""}","https://test12345.live/?num_scrambled_semantic=8&num_scrambled_causal=4&num_scrambled_schematic=4&participantId=6BA782BB5F7B4870B0D3954AE5514AFB&assignmentId=0198bcf9-30ef-7407-8caf-c29c8062eff3&projectId=0198bbb8-fd11-701d-9147-68794ad37298","6BA782BB5F7B4870B0D3954AE5514AFB-2025-08-18-12-13-40","","null","","[]","null","",""
"","","","","","image-button-response","66","659436","0.0-12.0-1.0-0.3","6BA782BB5F7B4870B0D3954AE5514AFB","6BA782BB5F7B4870B0D3954AE5514AFB","0198bcf9-30ef-7407-8caf-c29c8062eff3","0198bbb8-fd11-701d-9147-68794ad37298","{""num_scrambled_semantic"":""8"",""num_scrambled_causal"":""4"",""num_scrambled_schematic"":""4"",""participantId"":""6BA782BB5F7B4870B0D3954AE5514AFB"",""assignmentId"":""0198bcf9-30ef-7407-8caf-c29c8062eff3"",""projectId"":""0198bbb8-fd11-701d-9147-68794ad37298""}","https://test12345.live/?num_scrambled_semantic=8&num_scrambled_causal=4&num_scrambled_schematic=4&participantId=6BA782BB5F7B4870B0D3954AE5514AFB&assignmentId=0198bcf9-30ef-7407-8caf-c29c8062eff3&projectId=0198bbb8-fd11-701d-9147-68794ad37298","6BA782BB5F7B4870B0D3954AE5514AFB-2025-08-18-12-13-40","","null","","images/causal_sequence/dog_causal/dog_causal_ten.png","null","",""
"","","","","","image-button-response","67","660841","0.0-12.0-1.0-1.3","6BA782BB5F7B4870B0D3954AE5514AFB","6BA782BB5F7B4870B0D3954AE5514AFB","0198bcf9-30ef-7407-8caf-c29c8062eff3","0198bbb8-fd11-701d-9147-68794ad37298","{""num_scrambled_semantic"":""8"",""num_scrambled_causal"":""4"",""num_scrambled_schematic"":""4"",""participantId"":""6BA782BB5F7B4870B0D3954AE5514AFB"",""assignmentId"":""0198bcf9-30ef-7407-8caf-c29c8062eff3"",""projectId"":""0198bbb8-fd11-701d-9147-68794ad37298""}","https://test12345.live/?num_scrambled_semantic=8&num_scrambled_causal=4&num_scrambled_schematic=4&participantId=6BA782BB5F7B4870B0D3954AE5514AFB&assignmentId=0198bcf9-30ef-7407-8caf-c29c8062eff3&projectId=0198bbb8-fd11-701d-9147-68794ad37298","6BA782BB5F7B4870B0D3954AE5514AFB-2025-08-18-12-13-40","","1403","","images/causal_sequence/dog_causal/dog_causal_ten.png","0","",""
"","","","","","image-button-response","68","671643","0.0-12.0-1.0-2.3","6BA782BB5F7B4870B0D3954AE5514AFB","6BA782BB5F7B4870B0D3954AE5514AFB","0198bcf9-30ef-7407-8caf-c29c8062eff3","0198bbb8-fd11-701d-9147-68794ad37298","{""num_scrambled_semantic"":""8"",""num_scrambled_causal"":""4"",""num_scrambled_schematic"":""4"",""participantId"":""6BA782BB5F7B4870B0D3954AE5514AFB"",""assignmentId"":""0198bcf9-30ef-7407-8caf-c29c8062eff3"",""projectId"":""0198bbb8-fd11-701d-9147-68794ad37298""}","https://test12345.live/?num_scrambled_semantic=8&num_scrambled_causal=4&num_scrambled_schematic=4&participantId=6BA782BB5F7B4870B0D3954AE5514AFB&assignmentId=0198bcf9-30ef-7407-8caf-c29c8062eff3&projectId=0198bbb8-fd11-701d-9147-68794ad37298","6BA782BB5F7B4870B0D3954AE5514AFB-2025-08-18-12-13-40","","null","","[]","null","",""
"","","","","","image-button-response","69","676149","0.0-12.0-1.0-0.4","6BA782BB5F7B4870B0D3954AE5514AFB","6BA782BB5F7B4870B0D3954AE5514AFB","0198bcf9-30ef-7407-8caf-c29c8062eff3","0198bbb8-fd11-701d-9147-68794ad37298","{""num_scrambled_semantic"":""8"",""num_scrambled_causal"":""4"",""num_scrambled_schematic"":""4"",""participantId"":""6BA782BB5F7B4870B0D3954AE5514AFB"",""assignmentId"":""0198bcf9-30ef-7407-8caf-c29c8062eff3"",""projectId"":""0198bbb8-fd11-701d-9147-68794ad37298""}","https://test12345.live/?num_scrambled_semantic=8&num_scrambled_causal=4&num_scrambled_schematic=4&participantId=6BA782BB5F7B4870B0D3954AE5514AFB&assignmentId=0198bcf9-30ef-7407-8caf-c29c8062eff3&projectId=0198bbb8-fd11-701d-9147-68794ad37298","6BA782BB5F7B4870B0D3954AE5514AFB-2025-08-18-12-13-40","","null","","images/causal_sequence/dog_causal/dog_causal_6.png","null","",""
"","","","","","image-button-response","70","677957","0.0-12.0-1.0-1.4","6BA782BB5F7B4870B0D3954AE5514AFB","6BA782BB5F7B4870B0D3954AE5514AFB","0198bcf9-30ef-7407-8caf-c29c8062eff3","0198bbb8-fd11-701d-9147-68794ad37298","{""num_scrambled_semantic"":""8"",""num_scrambled_causal"":""4"",""num_scrambled_schematic"":""4"",""participantId"":""6BA782BB5F7B4870B0D3954AE5514AFB"",""assignmentId"":""0198bcf9-30ef-7407-8caf-c29c8062eff3"",""projectId"":""0198bbb8-fd11-701d-9147-68794ad37298""}","https://test12345.live/?num_scrambled_semantic=8&num_scrambled_causal=4&num_scrambled_schematic=4&participantId=6BA782BB5F7B4870B0D3954AE5514AFB&assignmentId=0198bcf9-30ef-7407-8caf-c29c8062eff3&projectId=0198bbb8-fd11-701d-9147-68794ad37298","6BA782BB5F7B4870B0D3954AE5514AFB-2025-08-18-12-13-40","","1806","","images/causal_sequence/dog_causal/dog_causal_6.png","0","",""
"","","","","","image-button-response","71","688763","0.0-12.0-1.0-2.4","6BA782BB5F7B4870B0D3954AE5514AFB","6BA782BB5F7B4870B0D3954AE5514AFB","0198bcf9-30ef-7407-8caf-c29c8062eff3","0198bbb8-fd11-701d-9147-68794ad37298","{""num_scrambled_semantic"":""8"",""num_scrambled_causal"":""4"",""num_scrambled_schematic"":""4"",""participantId"":""6BA782BB5F7B4870B0D3954AE5514AFB"",""assignmentId"":""0198bcf9-30ef-7407-8caf-c29c8062eff3"",""projectId"":""0198bbb8-fd11-701d-9147-68794ad37298""}","https://test12345.live/?num_scrambled_semantic=8&num_scrambled_causal=4&num_scrambled_schematic=4&participantId=6BA782BB5F7B4870B0D3954AE5514AFB&assignmentId=0198bcf9-30ef-7407-8caf-c29c8062eff3&projectId=0198bbb8-fd11-701d-9147-68794ad37298","6BA782BB5F7B4870B0D3954AE5514AFB-2025-08-18-12-13-40","","null","","[]","null","",""
"","","","","","image-button-response","72","693271","0.0-12.0-1.0-0.5","6BA782BB5F7B4870B0D3954AE5514AFB","6BA782BB5F7B4870B0D3954AE5514AFB","0198bcf9-30ef-7407-8caf-c29c8062eff3","0198bbb8-fd11-701d-9147-68794ad37298","{""num_scrambled_semantic"":""8"",""num_scrambled_causal"":""4"",""num_scrambled_schematic"":""4"",""participantId"":""6BA782BB5F7B4870B0D3954AE5514AFB"",""assignmentId"":""0198bcf9-30ef-7407-8caf-c29c8062eff3"",""projectId"":""0198bbb8-fd11-701d-9147-68794ad37298""}","https://test12345.live/?num_scrambled_semantic=8&num_scrambled_causal=4&num_scrambled_schematic=4&participantId=6BA782BB5F7B4870B0D3954AE5514AFB&assignmentId=0198bcf9-30ef-7407-8caf-c29c8062eff3&projectId=0198bbb8-fd11-701d-9147-68794ad37298","6BA782BB5F7B4870B0D3954AE5514AFB-2025-08-18-12-13-40","","null","","images/causal_sequence/dog_causal/dog_causal_8.png","null","",""
"","","","","","image-button-response","73","694557","0.0-12.0-1.0-1.5","6BA782BB5F7B4870B0D3954AE5514AFB","6BA782BB5F7B4870B0D3954AE5514AFB","0198bcf9-30ef-7407-8caf-c29c8062eff3","0198bbb8-fd11-701d-9147-68794ad37298","{""num_scrambled_semantic"":""8"",""num_scrambled_causal"":""4"",""num_scrambled_schematic"":""4"",""participantId"":""6BA782BB5F7B4870B0D3954AE5514AFB"",""assignmentId"":""0198bcf9-30ef-7407-8caf-c29c8062eff3"",""projectId"":""0198bbb8-fd11-701d-9147-68794ad37298""}","https://test12345.live/?num_scrambled_semantic=8&num_scrambled_causal=4&num_scrambled_schematic=4&participantId=6BA782BB5F7B4870B0D3954AE5514AFB&assignmentId=0198bcf9-30ef-7407-8caf-c29c8062eff3&projectId=0198bbb8-fd11-701d-9147-68794ad37298","6BA782BB5F7B4870B0D3954AE5514AFB-2025-08-18-12-13-40","","1284","","images/causal_sequence/dog_causal/dog_causal_8.png","0","",""
"","","","","","image-button-response","74","705363","0.0-12.0-1.0-2.5","6BA782BB5F7B4870B0D3954AE5514AFB","6BA782BB5F7B4870B0D3954AE5514AFB","0198bcf9-30ef-7407-8caf-c29c8062eff3","0198bbb8-fd11-701d-9147-68794ad37298","{""num_scrambled_semantic"":""8"",""num_scrambled_causal"":""4"",""num_scrambled_schematic"":""4"",""participantId"":""6BA782BB5F7B4870B0D3954AE5514AFB"",""assignmentId"":""0198bcf9-30ef-7407-8caf-c29c8062eff3"",""projectId"":""0198bbb8-fd11-701d-9147-68794ad37298""}","https://test12345.live/?num_scrambled_semantic=8&num_scrambled_causal=4&num_scrambled_schematic=4&participantId=6BA782BB5F7B4870B0D3954AE5514AFB&assignmentId=0198bcf9-30ef-7407-8caf-c29c8062eff3&projectId=0198bbb8-fd11-701d-9147-68794ad37298","6BA782BB5F7B4870B0D3954AE5514AFB-2025-08-18-12-13-40","","null","","[]","null","",""
"","","","","","image-button-response","75","709871","0.0-12.0-1.0-0.6","6BA782BB5F7B4870B0D3954AE5514AFB","6BA782BB5F7B4870B0D3954AE5514AFB","0198bcf9-30ef-7407-8caf-c29c8062eff3","0198bbb8-fd11-701d-9147-68794ad37298","{""num_scrambled_semantic"":""8"",""num_scrambled_causal"":""4"",""num_scrambled_schematic"":""4"",""participantId"":""6BA782BB5F7B4870B0D3954AE5514AFB"",""assignmentId"":""0198bcf9-30ef-7407-8caf-c29c8062eff3"",""projectId"":""0198bbb8-fd11-701d-9147-68794ad37298""}","https://test12345.live/?num_scrambled_semantic=8&num_scrambled_causal=4&num_scrambled_schematic=4&participantId=6BA782BB5F7B4870B0D3954AE5514AFB&assignmentId=0198bcf9-30ef-7407-8caf-c29c8062eff3&projectId=0198bbb8-fd11-701d-9147-68794ad37298","6BA782BB5F7B4870B0D3954AE5514AFB-2025-08-18-12-13-40","","null","","images/causal_sequence/dog_causal/dog_causal_9.png","null","",""
"","","","","","image-button-response","76","711873","0.0-12.0-1.0-1.6","6BA782BB5F7B4870B0D3954AE5514AFB","6BA782BB5F7B4870B0D3954AE5514AFB","0198bcf9-30ef-7407-8caf-c29c8062eff3","0198bbb8-fd11-701d-9147-68794ad37298","{""num_scrambled_semantic"":""8"",""num_scrambled_causal"":""4"",""num_scrambled_schematic"":""4"",""participantId"":""6BA782BB5F7B4870B0D3954AE5514AFB"",""assignmentId"":""0198bcf9-30ef-7407-8caf-c29c8062eff3"",""projectId"":""0198bbb8-fd11-701d-9147-68794ad37298""}","https://test12345.live/?num_scrambled_semantic=8&num_scrambled_causal=4&num_scrambled_schematic=4&participantId=6BA782BB5F7B4870B0D3954AE5514AFB&assignmentId=0198bcf9-30ef-7407-8caf-c29c8062eff3&projectId=0198bbb8-fd11-701d-9147-68794ad37298","6BA782BB5F7B4870B0D3954AE5514AFB-2025-08-18-12-13-40","","2001","","images/causal_sequence/dog_causal/dog_causal_9.png","0","",""
"","","","","","image-button-response","77","722679","0.0-12.0-1.0-2.6","6BA782BB5F7B4870B0D3954AE5514AFB","6BA782BB5F7B4870B0D3954AE5514AFB","0198bcf9-30ef-7407-8caf-c29c8062eff3","0198bbb8-fd11-701d-9147-68794ad37298","{""num_scrambled_semantic"":""8"",""num_scrambled_causal"":""4"",""num_scrambled_schematic"":""4"",""participantId"":""6BA782BB5F7B4870B0D3954AE5514AFB"",""assignmentId"":""0198bcf9-30ef-7407-8caf-c29c8062eff3"",""projectId"":""0198bbb8-fd11-701d-9147-68794ad37298""}","https://test12345.live/?num_scrambled_semantic=8&num_scrambled_causal=4&num_scrambled_schematic=4&participantId=6BA782BB5F7B4870B0D3954AE5514AFB&assignmentId=0198bcf9-30ef-7407-8caf-c29c8062eff3&projectId=0198bbb8-fd11-701d-9147-68794ad37298","6BA782BB5F7B4870B0D3954AE5514AFB-2025-08-18-12-13-40","","null","","[]","null","",""
"","","","","","image-button-response","78","727183","0.0-12.0-1.0-0.7","6BA782BB5F7B4870B0D3954AE5514AFB","6BA782BB5F7B4870B0D3954AE5514AFB","0198bcf9-30ef-7407-8caf-c29c8062eff3","0198bbb8-fd11-701d-9147-68794ad37298","{""num_scrambled_semantic"":""8"",""num_scrambled_causal"":""4"",""num_scrambled_schematic"":""4"",""participantId"":""6BA782BB5F7B4870B0D3954AE5514AFB"",""assignmentId"":""0198bcf9-30ef-7407-8caf-c29c8062eff3"",""projectId"":""0198bbb8-fd11-701d-9147-68794ad37298""}","https://test12345.live/?num_scrambled_semantic=8&num_scrambled_causal=4&num_scrambled_schematic=4&participantId=6BA782BB5F7B4870B0D3954AE5514AFB&assignmentId=0198bcf9-30ef-7407-8caf-c29c8062eff3&projectId=0198bbb8-fd11-701d-9147-68794ad37298","6BA782BB5F7B4870B0D3954AE5514AFB-2025-08-18-12-13-40","","null","","images/causal_sequence/dog_causal/dog_causal_4.png","null","",""
"","","","","","image-button-response","79","731188","0.0-12.0-1.0-1.7","6BA782BB5F7B4870B0D3954AE5514AFB","6BA782BB5F7B4870B0D3954AE5514AFB","0198bcf9-30ef-7407-8caf-c29c8062eff3","0198bbb8-fd11-701d-9147-68794ad37298","{""num_scrambled_semantic"":""8"",""num_scrambled_causal"":""4"",""num_scrambled_schematic"":""4"",""participantId"":""6BA782BB5F7B4870B0D3954AE5514AFB"",""assignmentId"":""0198bcf9-30ef-7407-8caf-c29c8062eff3"",""projectId"":""0198bbb8-fd11-701d-9147-68794ad37298""}","https://test12345.live/?num_scrambled_semantic=8&num_scrambled_causal=4&num_scrambled_schematic=4&participantId=6BA782BB5F7B4870B0D3954AE5514AFB&assignmentId=0198bcf9-30ef-7407-8caf-c29c8062eff3&projectId=0198bbb8-fd11-701d-9147-68794ad37298","6BA782BB5F7B4870B0D3954AE5514AFB-2025-08-18-12-13-40","","null","","images/causal_sequence/dog_causal/dog_causal_4.png","null","",""
"","","","","","image-button-response","80","741993","0.0-12.0-1.0-2.7","6BA782BB5F7B4870B0D3954AE5514AFB","6BA782BB5F7B4870B0D3954AE5514AFB","0198bcf9-30ef-7407-8caf-c29c8062eff3","0198bbb8-fd11-701d-9147-68794ad37298","{""num_scrambled_semantic"":""8"",""num_scrambled_causal"":""4"",""num_scrambled_schematic"":""4"",""participantId"":""6BA782BB5F7B4870B0D3954AE5514AFB"",""assignmentId"":""0198bcf9-30ef-7407-8caf-c29c8062eff3"",""projectId"":""0198bbb8-fd11-701d-9147-68794ad37298""}","https://test12345.live/?num_scrambled_semantic=8&num_scrambled_causal=4&num_scrambled_schematic=4&participantId=6BA782BB5F7B4870B0D3954AE5514AFB&assignmentId=0198bcf9-30ef-7407-8caf-c29c8062eff3&projectId=0198bbb8-fd11-701d-9147-68794ad37298","6BA782BB5F7B4870B0D3954AE5514AFB-2025-08-18-12-13-40","","null","","[]","null","",""
"","","","","","image-button-response","81","746501","0.0-12.0-1.0-0.8","6BA782BB5F7B4870B0D3954AE5514AFB","6BA782BB5F7B4870B0D3954AE5514AFB","0198bcf9-30ef-7407-8caf-c29c8062eff3","0198bbb8-fd11-701d-9147-68794ad37298","{""num_scrambled_semantic"":""8"",""num_scrambled_causal"":""4"",""num_scrambled_schematic"":""4"",""participantId"":""6BA782BB5F7B4870B0D3954AE5514AFB"",""assignmentId"":""0198bcf9-30ef-7407-8caf-c29c8062eff3"",""projectId"":""0198bbb8-fd11-701d-9147-68794ad37298""}","https://test12345.live/?num_scrambled_semantic=8&num_scrambled_causal=4&num_scrambled_schematic=4&participantId=6BA782BB5F7B4870B0D3954AE5514AFB&assignmentId=0198bcf9-30ef-7407-8caf-c29c8062eff3&projectId=0198bbb8-fd11-701d-9147-68794ad37298","6BA782BB5F7B4870B0D3954AE5514AFB-2025-08-18-12-13-40","","null","","images/causal_sequence/dog_causal/dog_causal_5.png","null","",""
"","","","","","image-button-response","82","750024","0.0-12.0-1.0-1.8","6BA782BB5F7B4870B0D3954AE5514AFB","6BA782BB5F7B4870B0D3954AE5514AFB","0198bcf9-30ef-7407-8caf-c29c8062eff3","0198bbb8-fd11-701d-9147-68794ad37298","{""num_scrambled_semantic"":""8"",""num_scrambled_causal"":""4"",""num_scrambled_schematic"":""4"",""participantId"":""6BA782BB5F7B4870B0D3954AE5514AFB"",""assignmentId"":""0198bcf9-30ef-7407-8caf-c29c8062eff3"",""projectId"":""0198bbb8-fd11-701d-9147-68794ad37298""}","https://test12345.live/?num_scrambled_semantic=8&num_scrambled_causal=4&num_scrambled_schematic=4&participantId=6BA782BB5F7B4870B0D3954AE5514AFB&assignmentId=0198bcf9-30ef-7407-8caf-c29c8062eff3&projectId=0198bbb8-fd11-701d-9147-68794ad37298","6BA782BB5F7B4870B0D3954AE5514AFB-2025-08-18-12-13-40","","3522","","images/causal_sequence/dog_causal/dog_causal_5.png","0","",""
"","","","","","image-button-response","83","760830","0.0-12.0-1.0-2.8","6BA782BB5F7B4870B0D3954AE5514AFB","6BA782BB5F7B4870B0D3954AE5514AFB","0198bcf9-30ef-7407-8caf-c29c8062eff3","0198bbb8-fd11-701d-9147-68794ad37298","{""num_scrambled_semantic"":""8"",""num_scrambled_causal"":""4"",""num_scrambled_schematic"":""4"",""participantId"":""6BA782BB5F7B4870B0D3954AE5514AFB"",""assignmentId"":""0198bcf9-30ef-7407-8caf-c29c8062eff3"",""projectId"":""0198bbb8-fd11-701d-9147-68794ad37298""}","https://test12345.live/?num_scrambled_semantic=8&num_scrambled_causal=4&num_scrambled_schematic=4&participantId=6BA782BB5F7B4870B0D3954AE5514AFB&assignmentId=0198bcf9-30ef-7407-8caf-c29c8062eff3&projectId=0198bbb8-fd11-701d-9147-68794ad37298","6BA782BB5F7B4870B0D3954AE5514AFB-2025-08-18-12-13-40","","null","","[]","null","",""
"","","","","","image-button-response","84","765337","0.0-12.0-1.0-0.9","6BA782BB5F7B4870B0D3954AE5514AFB","6BA782BB5F7B4870B0D3954AE5514AFB","0198bcf9-30ef-7407-8caf-c29c8062eff3","0198bbb8-fd11-701d-9147-68794ad37298","{""num_scrambled_semantic"":""8"",""num_scrambled_causal"":""4"",""num_scrambled_schematic"":""4"",""participantId"":""6BA782BB5F7B4870B0D3954AE5514AFB"",""assignmentId"":""0198bcf9-30ef-7407-8caf-c29c8062eff3"",""projectId"":""0198bbb8-fd11-701d-9147-68794ad37298""}","https://test12345.live/?num_scrambled_semantic=8&num_scrambled_causal=4&num_scrambled_schematic=4&participantId=6BA782BB5F7B4870B0D3954AE5514AFB&assignmentId=0198bcf9-30ef-7407-8caf-c29c8062eff3&projectId=0198bbb8-fd11-701d-9147-68794ad37298","6BA782BB5F7B4870B0D3954AE5514AFB-2025-08-18-12-13-40","","null","","images/causal_sequence/dog_causal/dog_causal_7.png","null","",""
"","","","","","image-button-response","85","769344","0.0-12.0-1.0-1.9","6BA782BB5F7B4870B0D3954AE5514AFB","6BA782BB5F7B4870B0D3954AE5514AFB","0198bcf9-30ef-7407-8caf-c29c8062eff3","0198bbb8-fd11-701d-9147-68794ad37298","{""num_scrambled_semantic"":""8"",""num_scrambled_causal"":""4"",""num_scrambled_schematic"":""4"",""participantId"":""6BA782BB5F7B4870B0D3954AE5514AFB"",""assignmentId"":""0198bcf9-30ef-7407-8caf-c29c8062eff3"",""projectId"":""0198bbb8-fd11-701d-9147-68794ad37298""}","https://test12345.live/?num_scrambled_semantic=8&num_scrambled_causal=4&num_scrambled_schematic=4&participantId=6BA782BB5F7B4870B0D3954AE5514AFB&assignmentId=0198bcf9-30ef-7407-8caf-c29c8062eff3&projectId=0198bbb8-fd11-701d-9147-68794ad37298","6BA782BB5F7B4870B0D3954AE5514AFB-2025-08-18-12-13-40","","null","","images/causal_sequence/dog_causal/dog_causal_7.png","null","",""
"","","","","","image-button-response","86","780150","0.0-12.0-1.0-2.9","6BA782BB5F7B4870B0D3954AE5514AFB","6BA782BB5F7B4870B0D3954AE5514AFB","0198bcf9-30ef-7407-8caf-c29c8062eff3","0198bbb8-fd11-701d-9147-68794ad37298","{""num_scrambled_semantic"":""8"",""num_scrambled_causal"":""4"",""num_scrambled_schematic"":""4"",""participantId"":""6BA782BB5F7B4870B0D3954AE5514AFB"",""assignmentId"":""0198bcf9-30ef-7407-8caf-c29c8062eff3"",""projectId"":""0198bbb8-fd11-701d-9147-68794ad37298""}","https://test12345.live/?num_scrambled_semantic=8&num_scrambled_causal=4&num_scrambled_schematic=4&participantId=6BA782BB5F7B4870B0D3954AE5514AFB&assignmentId=0198bcf9-30ef-7407-8caf-c29c8062eff3&projectId=0198bbb8-fd11-701d-9147-68794ad37298","6BA782BB5F7B4870B0D3954AE5514AFB-2025-08-18-12-13-40","","null","","[]","null","",""
"","","","","","html-audio-response","87","835058","0.0-13.0","6BA782BB5F7B4870B0D3954AE5514AFB","6BA782BB5F7B4870B0D3954AE5514AFB","0198bcf9-30ef-7407-8caf-c29c8062eff3","0198bbb8-fd11-701d-9147-68794ad37298","{""num_scrambled_semantic"":""8"",""num_scrambled_causal"":""4"",""num_scrambled_schematic"":""4"",""participantId"":""6BA782BB5F7B4870B0D3954AE5514AFB"",""assignmentId"":""0198bcf9-30ef-7407-8caf-c29c8062eff3"",""projectId"":""0198bbb8-fd11-701d-9147-68794ad37298""}","https://test12345.live/?num_scrambled_semantic=8&num_scrambled_causal=4&num_scrambled_schematic=4&participantId=6BA782BB5F7B4870B0D3954AE5514AFB&assignmentId=0198bcf9-30ef-7407-8caf-c29c8062eff3&projectId=0198bbb8-fd11-701d-9147-68794ad37298","6BA782BB5F7B4870B0D3954AE5514AFB-2025-08-18-12-13-40","","52831","","[""<span style=\""color: red; font-size: 24px\""> NOW RECORDING</span><p>Please say out loud all the images you saw, as many as you can remember. The images can be said in any order.</p>""]","","2","dog_causal"
"","","","","","image-button-response","88","841068","0.0-14.0-0.0","6BA782BB5F7B4870B0D3954AE5514AFB","6BA782BB5F7B4870B0D3954AE5514AFB","0198bcf9-30ef-7407-8caf-c29c8062eff3","0198bbb8-fd11-701d-9147-68794ad37298","{""num_scrambled_semantic"":""8"",""num_scrambled_causal"":""4"",""num_scrambled_schematic"":""4"",""participantId"":""6BA782BB5F7B4870B0D3954AE5514AFB"",""assignmentId"":""0198bcf9-30ef-7407-8caf-c29c8062eff3"",""projectId"":""0198bbb8-fd11-701d-9147-68794ad37298""}","https://test12345.live/?num_scrambled_semantic=8&num_scrambled_causal=4&num_scrambled_schematic=4&participantId=6BA782BB5F7B4870B0D3954AE5514AFB&assignmentId=0198bcf9-30ef-7407-8caf-c29c8062eff3&projectId=0198bbb8-fd11-701d-9147-68794ad37298","6BA782BB5F7B4870B0D3954AE5514AFB-2025-08-18-12-13-40","","null","","images/semantic_sequence/redecorating_semantic/redecorating_semantic_0.png","null","",""
"","","","","","image-button-response","89","845575","0.0-14.0-1.0-0.0","6BA782BB5F7B4870B0D3954AE5514AFB","6BA782BB5F7B4870B0D3954AE5514AFB","0198bcf9-30ef-7407-8caf-c29c8062eff3","0198bbb8-fd11-701d-9147-68794ad37298","{""num_scrambled_semantic"":""8"",""num_scrambled_causal"":""4"",""num_scrambled_schematic"":""4"",""participantId"":""6BA782BB5F7B4870B0D3954AE5514AFB"",""assignmentId"":""0198bcf9-30ef-7407-8caf-c29c8062eff3"",""projectId"":""0198bbb8-fd11-701d-9147-68794ad37298""}","https://test12345.live/?num_scrambled_semantic=8&num_scrambled_causal=4&num_scrambled_schematic=4&participantId=6BA782BB5F7B4870B0D3954AE5514AFB&assignmentId=0198bcf9-30ef-7407-8caf-c29c8062eff3&projectId=0198bbb8-fd11-701d-9147-68794ad37298","6BA782BB5F7B4870B0D3954AE5514AFB-2025-08-18-12-13-40","","null","","images/semantic_sequence/redecorating_semantic/redecorating_semantic_5.png","null","",""
"","","","","","image-button-response","90","847324","0.0-14.0-1.0-1.0","6BA782BB5F7B4870B0D3954AE5514AFB","6BA782BB5F7B4870B0D3954AE5514AFB","0198bcf9-30ef-7407-8caf-c29c8062eff3","0198bbb8-fd11-701d-9147-68794ad37298","{""num_scrambled_semantic"":""8"",""num_scrambled_causal"":""4"",""num_scrambled_schematic"":""4"",""participantId"":""6BA782BB5F7B4870B0D3954AE5514AFB"",""assignmentId"":""0198bcf9-30ef-7407-8caf-c29c8062eff3"",""projectId"":""0198bbb8-fd11-701d-9147-68794ad37298""}","https://test12345.live/?num_scrambled_semantic=8&num_scrambled_causal=4&num_scrambled_schematic=4&participantId=6BA782BB5F7B4870B0D3954AE5514AFB&assignmentId=0198bcf9-30ef-7407-8caf-c29c8062eff3&projectId=0198bbb8-fd11-701d-9147-68794ad37298","6BA782BB5F7B4870B0D3954AE5514AFB-2025-08-18-12-13-40","","1747","","images/semantic_sequence/redecorating_semantic/redecorating_semantic_5.png","0","",""
"","","","","","image-button-response","91","858130","0.0-14.0-1.0-2.0","6BA782BB5F7B4870B0D3954AE5514AFB","6BA782BB5F7B4870B0D3954AE5514AFB","0198bcf9-30ef-7407-8caf-c29c8062eff3","0198bbb8-fd11-701d-9147-68794ad37298","{""num_scrambled_semantic"":""8"",""num_scrambled_causal"":""4"",""num_scrambled_schematic"":""4"",""participantId"":""6BA782BB5F7B4870B0D3954AE5514AFB"",""assignmentId"":""0198bcf9-30ef-7407-8caf-c29c8062eff3"",""projectId"":""0198bbb8-fd11-701d-9147-68794ad37298""}","https://test12345.live/?num_scrambled_semantic=8&num_scrambled_causal=4&num_scrambled_schematic=4&participantId=6BA782BB5F7B4870B0D3954AE5514AFB&assignmentId=0198bcf9-30ef-7407-8caf-c29c8062eff3&projectId=0198bbb8-fd11-701d-9147-68794ad37298","6BA782BB5F7B4870B0D3954AE5514AFB-2025-08-18-12-13-40","","null","","[]","null","",""
"","","","","","image-button-response","92","862636","0.0-14.0-1.0-0.1","6BA782BB5F7B4870B0D3954AE5514AFB","6BA782BB5F7B4870B0D3954AE5514AFB","0198bcf9-30ef-7407-8caf-c29c8062eff3","0198bbb8-fd11-701d-9147-68794ad37298","{""num_scrambled_semantic"":""8"",""num_scrambled_causal"":""4"",""num_scrambled_schematic"":""4"",""participantId"":""6BA782BB5F7B4870B0D3954AE5514AFB"",""assignmentId"":""0198bcf9-30ef-7407-8caf-c29c8062eff3"",""projectId"":""0198bbb8-fd11-701d-9147-68794ad37298""}","https://test12345.live/?num_scrambled_semantic=8&num_scrambled_causal=4&num_scrambled_schematic=4&participantId=6BA782BB5F7B4870B0D3954AE5514AFB&assignmentId=0198bcf9-30ef-7407-8caf-c29c8062eff3&projectId=0198bbb8-fd11-701d-9147-68794ad37298","6BA782BB5F7B4870B0D3954AE5514AFB-2025-08-18-12-13-40","","null","","images/semantic_sequence/redecorating_semantic/redecorating_semantic_8.png","null","",""
"","","","","","image-button-response","93","864458","0.0-14.0-1.0-1.1","6BA782BB5F7B4870B0D3954AE5514AFB","6BA782BB5F7B4870B0D3954AE5514AFB","0198bcf9-30ef-7407-8caf-c29c8062eff3","0198bbb8-fd11-701d-9147-68794ad37298","{""num_scrambled_semantic"":""8"",""num_scrambled_causal"":""4"",""num_scrambled_schematic"":""4"",""participantId"":""6BA782BB5F7B4870B0D3954AE5514AFB"",""assignmentId"":""0198bcf9-30ef-7407-8caf-c29c8062eff3"",""projectId"":""0198bbb8-fd11-701d-9147-68794ad37298""}","https://test12345.live/?num_scrambled_semantic=8&num_scrambled_causal=4&num_scrambled_schematic=4&participantId=6BA782BB5F7B4870B0D3954AE5514AFB&assignmentId=0198bcf9-30ef-7407-8caf-c29c8062eff3&projectId=0198bbb8-fd11-701d-9147-68794ad37298","6BA782BB5F7B4870B0D3954AE5514AFB-2025-08-18-12-13-40","","1820","","images/semantic_sequence/redecorating_semantic/redecorating_semantic_8.png","0","",""
"","","","","","image-button-response","94","875263","0.0-14.0-1.0-2.1","6BA782BB5F7B4870B0D3954AE5514AFB","6BA782BB5F7B4870B0D3954AE5514AFB","0198bcf9-30ef-7407-8caf-c29c8062eff3","0198bbb8-fd11-701d-9147-68794ad37298","{""num_scrambled_semantic"":""8"",""num_scrambled_causal"":""4"",""num_scrambled_schematic"":""4"",""participantId"":""6BA782BB5F7B4870B0D3954AE5514AFB"",""assignmentId"":""0198bcf9-30ef-7407-8caf-c29c8062eff3"",""projectId"":""0198bbb8-fd11-701d-9147-68794ad37298""}","https://test12345.live/?num_scrambled_semantic=8&num_scrambled_causal=4&num_scrambled_schematic=4&participantId=6BA782BB5F7B4870B0D3954AE5514AFB&assignmentId=0198bcf9-30ef-7407-8caf-c29c8062eff3&projectId=0198bbb8-fd11-701d-9147-68794ad37298","6BA782BB5F7B4870B0D3954AE5514AFB-2025-08-18-12-13-40","","null","","[]","null","",""
"","","","","","image-button-response","95","879768","0.0-14.0-1.0-0.2","6BA782BB5F7B4870B0D3954AE5514AFB","6BA782BB5F7B4870B0D3954AE5514AFB","0198bcf9-30ef-7407-8caf-c29c8062eff3","0198bbb8-fd11-701d-9147-68794ad37298","{""num_scrambled_semantic"":""8"",""num_scrambled_causal"":""4"",""num_scrambled_schematic"":""4"",""participantId"":""6BA782BB5F7B4870B0D3954AE5514AFB"",""assignmentId"":""0198bcf9-30ef-7407-8caf-c29c8062eff3"",""projectId"":""0198bbb8-fd11-701d-9147-68794ad37298""}","https://test12345.live/?num_scrambled_semantic=8&num_scrambled_causal=4&num_scrambled_schematic=4&participantId=6BA782BB5F7B4870B0D3954AE5514AFB&assignmentId=0198bcf9-30ef-7407-8caf-c29c8062eff3&projectId=0198bbb8-fd11-701d-9147-68794ad37298","6BA782BB5F7B4870B0D3954AE5514AFB-2025-08-18-12-13-40","","null","","images/semantic_sequence/redecorating_semantic/redecorating_semantic_6.png","null","",""
"","","","","","image-button-response","96","881492","0.0-14.0-1.0-1.2","6BA782BB5F7B4870B0D3954AE5514AFB","6BA782BB5F7B4870B0D3954AE5514AFB","0198bcf9-30ef-7407-8caf-c29c8062eff3","0198bbb8-fd11-701d-9147-68794ad37298","{""num_scrambled_semantic"":""8"",""num_scrambled_causal"":""4"",""num_scrambled_schematic"":""4"",""participantId"":""6BA782BB5F7B4870B0D3954AE5514AFB"",""assignmentId"":""0198bcf9-30ef-7407-8caf-c29c8062eff3"",""projectId"":""0198bbb8-fd11-701d-9147-68794ad37298""}","https://test12345.live/?num_scrambled_semantic=8&num_scrambled_causal=4&num_scrambled_schematic=4&participantId=6BA782BB5F7B4870B0D3954AE5514AFB&assignmentId=0198bcf9-30ef-7407-8caf-c29c8062eff3&projectId=0198bbb8-fd11-701d-9147-68794ad37298","6BA782BB5F7B4870B0D3954AE5514AFB-2025-08-18-12-13-40","","1722","","images/semantic_sequence/redecorating_semantic/redecorating_semantic_6.png","0","",""
"","","","","","image-button-response","97","892297","0.0-14.0-1.0-2.2","6BA782BB5F7B4870B0D3954AE5514AFB","6BA782BB5F7B4870B0D3954AE5514AFB","0198bcf9-30ef-7407-8caf-c29c8062eff3","0198bbb8-fd11-701d-9147-68794ad37298","{""num_scrambled_semantic"":""8"",""num_scrambled_causal"":""4"",""num_scrambled_schematic"":""4"",""participantId"":""6BA782BB5F7B4870B0D3954AE5514AFB"",""assignmentId"":""0198bcf9-30ef-7407-8caf-c29c8062eff3"",""projectId"":""0198bbb8-fd11-701d-9147-68794ad37298""}","https://test12345.live/?num_scrambled_semantic=8&num_scrambled_causal=4&num_scrambled_schematic=4&participantId=6BA782BB5F7B4870B0D3954AE5514AFB&assignmentId=0198bcf9-30ef-7407-8caf-c29c8062eff3&projectId=0198bbb8-fd11-701d-9147-68794ad37298","6BA782BB5F7B4870B0D3954AE5514AFB-2025-08-18-12-13-40","","null","","[]","null","",""
"","","","","","image-button-response","98","896803","0.0-14.0-1.0-0.3","6BA782BB5F7B4870B0D3954AE5514AFB","6BA782BB5F7B4870B0D3954AE5514AFB","0198bcf9-30ef-7407-8caf-c29c8062eff3","0198bbb8-fd11-701d-9147-68794ad37298","{""num_scrambled_semantic"":""8"",""num_scrambled_causal"":""4"",""num_scrambled_schematic"":""4"",""participantId"":""6BA782BB5F7B4870B0D3954AE5514AFB"",""assignmentId"":""0198bcf9-30ef-7407-8caf-c29c8062eff3"",""projectId"":""0198bbb8-fd11-701d-9147-68794ad37298""}","https://test12345.live/?num_scrambled_semantic=8&num_scrambled_causal=4&num_scrambled_schematic=4&participantId=6BA782BB5F7B4870B0D3954AE5514AFB&assignmentId=0198bcf9-30ef-7407-8caf-c29c8062eff3&projectId=0198bbb8-fd11-701d-9147-68794ad37298","6BA782BB5F7B4870B0D3954AE5514AFB-2025-08-18-12-13-40","","null","","images/semantic_sequence/redecorating_semantic/redecorating_semantic_4.png","null","",""
"","","","","","image-button-response","99","898074","0.0-14.0-1.0-1.3","6BA782BB5F7B4870B0D3954AE5514AFB","6BA782BB5F7B4870B0D3954AE5514AFB","0198bcf9-30ef-7407-8caf-c29c8062eff3","0198bbb8-fd11-701d-9147-68794ad37298","{""num_scrambled_semantic"":""8"",""num_scrambled_causal"":""4"",""num_scrambled_schematic"":""4"",""participantId"":""6BA782BB5F7B4870B0D3954AE5514AFB"",""assignmentId"":""0198bcf9-30ef-7407-8caf-c29c8062eff3"",""projectId"":""0198bbb8-fd11-701d-9147-68794ad37298""}","https://test12345.live/?num_scrambled_semantic=8&num_scrambled_causal=4&num_scrambled_schematic=4&participantId=6BA782BB5F7B4870B0D3954AE5514AFB&assignmentId=0198bcf9-30ef-7407-8caf-c29c8062eff3&projectId=0198bbb8-fd11-701d-9147-68794ad37298","6BA782BB5F7B4870B0D3954AE5514AFB-2025-08-18-12-13-40","","1269","","images/semantic_sequence/redecorating_semantic/redecorating_semantic_4.png","0","",""
"","","","","","image-button-response","100","908878","0.0-14.0-1.0-2.3","6BA782BB5F7B4870B0D3954AE5514AFB","6BA782BB5F7B4870B0D3954AE5514AFB","0198bcf9-30ef-7407-8caf-c29c8062eff3","0198bbb8-fd11-701d-9147-68794ad37298","{""num_scrambled_semantic"":""8"",""num_scrambled_causal"":""4"",""num_scrambled_schematic"":""4"",""participantId"":""6BA782BB5F7B4870B0D3954AE5514AFB"",""assignmentId"":""0198bcf9-30ef-7407-8caf-c29c8062eff3"",""projectId"":""0198bbb8-fd11-701d-9147-68794ad37298""}","https://test12345.live/?num_scrambled_semantic=8&num_scrambled_causal=4&num_scrambled_schematic=4&participantId=6BA782BB5F7B4870B0D3954AE5514AFB&assignmentId=0198bcf9-30ef-7407-8caf-c29c8062eff3&projectId=0198bbb8-fd11-701d-9147-68794ad37298","6BA782BB5F7B4870B0D3954AE5514AFB-2025-08-18-12-13-40","","null","","[]","null","",""
"","","","","","image-button-response","101","913381","0.0-14.0-1.0-0.4","6BA782BB5F7B4870B0D3954AE5514AFB","6BA782BB5F7B4870B0D3954AE5514AFB","0198bcf9-30ef-7407-8caf-c29c8062eff3","0198bbb8-fd11-701d-9147-68794ad37298","{""num_scrambled_semantic"":""8"",""num_scrambled_causal"":""4"",""num_scrambled_schematic"":""4"",""participantId"":""6BA782BB5F7B4870B0D3954AE5514AFB"",""assignmentId"":""0198bcf9-30ef-7407-8caf-c29c8062eff3"",""projectId"":""0198bbb8-fd11-701d-9147-68794ad37298""}","https://test12345.live/?num_scrambled_semantic=8&num_scrambled_causal=4&num_scrambled_schematic=4&participantId=6BA782BB5F7B4870B0D3954AE5514AFB&assignmentId=0198bcf9-30ef-7407-8caf-c29c8062eff3&projectId=0198bbb8-fd11-701d-9147-68794ad37298","6BA782BB5F7B4870B0D3954AE5514AFB-2025-08-18-12-13-40","","null","","images/semantic_sequence/redecorating_semantic/redecorating_semantic_3.png","null","",""
"","","","","","image-button-response","102","914941","0.0-14.0-1.0-1.4","6BA782BB5F7B4870B0D3954AE5514AFB","6BA782BB5F7B4870B0D3954AE5514AFB","0198bcf9-30ef-7407-8caf-c29c8062eff3","0198bbb8-fd11-701d-9147-68794ad37298","{""num_scrambled_semantic"":""8"",""num_scrambled_causal"":""4"",""num_scrambled_schematic"":""4"",""participantId"":""6BA782BB5F7B4870B0D3954AE5514AFB"",""assignmentId"":""0198bcf9-30ef-7407-8caf-c29c8062eff3"",""projectId"":""0198bbb8-fd11-701d-9147-68794ad37298""}","https://test12345.live/?num_scrambled_semantic=8&num_scrambled_causal=4&num_scrambled_schematic=4&participantId=6BA782BB5F7B4870B0D3954AE5514AFB&assignmentId=0198bcf9-30ef-7407-8caf-c29c8062eff3&projectId=0198bbb8-fd11-701d-9147-68794ad37298","6BA782BB5F7B4870B0D3954AE5514AFB-2025-08-18-12-13-40","","1558","","images/semantic_sequence/redecorating_semantic/redecorating_semantic_3.png","0","",""
"","","","","","image-button-response","103","925747","0.0-14.0-1.0-2.4","6BA782BB5F7B4870B0D3954AE5514AFB","6BA782BB5F7B4870B0D3954AE5514AFB","0198bcf9-30ef-7407-8caf-c29c8062eff3","0198bbb8-fd11-701d-9147-68794ad37298","{""num_scrambled_semantic"":""8"",""num_scrambled_causal"":""4"",""num_scrambled_schematic"":""4"",""participantId"":""6BA782BB5F7B4870B0D3954AE5514AFB"",""assignmentId"":""0198bcf9-30ef-7407-8caf-c29c8062eff3"",""projectId"":""0198bbb8-fd11-701d-9147-68794ad37298""}","https://test12345.live/?num_scrambled_semantic=8&num_scrambled_causal=4&num_scrambled_schematic=4&participantId=6BA782BB5F7B4870B0D3954AE5514AFB&assignmentId=0198bcf9-30ef-7407-8caf-c29c8062eff3&projectId=0198bbb8-fd11-701d-9147-68794ad37298","6BA782BB5F7B4870B0D3954AE5514AFB-2025-08-18-12-13-40","","null","","[]","null","",""
"","","","","","image-button-response","104","930253","0.0-14.0-1.0-0.5","6BA782BB5F7B4870B0D3954AE5514AFB","6BA782BB5F7B4870B0D3954AE5514AFB","0198bcf9-30ef-7407-8caf-c29c8062eff3","0198bbb8-fd11-701d-9147-68794ad37298","{""num_scrambled_semantic"":""8"",""num_scrambled_causal"":""4"",""num_scrambled_schematic"":""4"",""participantId"":""6BA782BB5F7B4870B0D3954AE5514AFB"",""assignmentId"":""0198bcf9-30ef-7407-8caf-c29c8062eff3"",""projectId"":""0198bbb8-fd11-701d-9147-68794ad37298""}","https://test12345.live/?num_scrambled_semantic=8&num_scrambled_causal=4&num_scrambled_schematic=4&participantId=6BA782BB5F7B4870B0D3954AE5514AFB&assignmentId=0198bcf9-30ef-7407-8caf-c29c8062eff3&projectId=0198bbb8-fd11-701d-9147-68794ad37298","6BA782BB5F7B4870B0D3954AE5514AFB-2025-08-18-12-13-40","","null","","images/semantic_sequence/redecorating_semantic/redecorating_semantic_7.png","null","",""
"","","","","","image-button-response","105","931458","0.0-14.0-1.0-1.5","6BA782BB5F7B4870B0D3954AE5514AFB","6BA782BB5F7B4870B0D3954AE5514AFB","0198bcf9-30ef-7407-8caf-c29c8062eff3","0198bbb8-fd11-701d-9147-68794ad37298","{""num_scrambled_semantic"":""8"",""num_scrambled_causal"":""4"",""num_scrambled_schematic"":""4"",""participantId"":""6BA782BB5F7B4870B0D3954AE5514AFB"",""assignmentId"":""0198bcf9-30ef-7407-8caf-c29c8062eff3"",""projectId"":""0198bbb8-fd11-701d-9147-68794ad37298""}","https://test12345.live/?num_scrambled_semantic=8&num_scrambled_causal=4&num_scrambled_schematic=4&participantId=6BA782BB5F7B4870B0D3954AE5514AFB&assignmentId=0198bcf9-30ef-7407-8caf-c29c8062eff3&projectId=0198bbb8-fd11-701d-9147-68794ad37298","6BA782BB5F7B4870B0D3954AE5514AFB-2025-08-18-12-13-40","","1203","","images/semantic_sequence/redecorating_semantic/redecorating_semantic_7.png","0","",""
"","","","","","image-button-response","106","942263","0.0-14.0-1.0-2.5","6BA782BB5F7B4870B0D3954AE5514AFB","6BA782BB5F7B4870B0D3954AE5514AFB","0198bcf9-30ef-7407-8caf-c29c8062eff3","0198bbb8-fd11-701d-9147-68794ad37298","{""num_scrambled_semantic"":""8"",""num_scrambled_causal"":""4"",""num_scrambled_schematic"":""4"",""participantId"":""6BA782BB5F7B4870B0D3954AE5514AFB"",""assignmentId"":""0198bcf9-30ef-7407-8caf-c29c8062eff3"",""projectId"":""0198bbb8-fd11-701d-9147-68794ad37298""}","https://test12345.live/?num_scrambled_semantic=8&num_scrambled_causal=4&num_scrambled_schematic=4&participantId=6BA782BB5F7B4870B0D3954AE5514AFB&assignmentId=0198bcf9-30ef-7407-8caf-c29c8062eff3&projectId=0198bbb8-fd11-701d-9147-68794ad37298","6BA782BB5F7B4870B0D3954AE5514AFB-2025-08-18-12-13-40","","null","","[]","null","",""
"","","","","","image-button-response","107","946770","0.0-14.0-1.0-0.6","6BA782BB5F7B4870B0D3954AE5514AFB","6BA782BB5F7B4870B0D3954AE5514AFB","0198bcf9-30ef-7407-8caf-c29c8062eff3","0198bbb8-fd11-701d-9147-68794ad37298","{""num_scrambled_semantic"":""8"",""num_scrambled_causal"":""4"",""num_scrambled_schematic"":""4"",""participantId"":""6BA782BB5F7B4870B0D3954AE5514AFB"",""assignmentId"":""0198bcf9-30ef-7407-8caf-c29c8062eff3"",""projectId"":""0198bbb8-fd11-701d-9147-68794ad37298""}","https://test12345.live/?num_scrambled_semantic=8&num_scrambled_causal=4&num_scrambled_schematic=4&participantId=6BA782BB5F7B4870B0D3954AE5514AFB&assignmentId=0198bcf9-30ef-7407-8caf-c29c8062eff3&projectId=0198bbb8-fd11-701d-9147-68794ad37298","6BA782BB5F7B4870B0D3954AE5514AFB-2025-08-18-12-13-40","","null","","images/semantic_sequence/redecorating_semantic/redecorating_semantic_ten.png","null","",""
"","","","","","image-button-response","108","950773","0.0-14.0-1.0-1.6","6BA782BB5F7B4870B0D3954AE5514AFB","6BA782BB5F7B4870B0D3954AE5514AFB","0198bcf9-30ef-7407-8caf-c29c8062eff3","0198bbb8-fd11-701d-9147-68794ad37298","{""num_scrambled_semantic"":""8"",""num_scrambled_causal"":""4"",""num_scrambled_schematic"":""4"",""participantId"":""6BA782BB5F7B4870B0D3954AE5514AFB"",""assignmentId"":""0198bcf9-30ef-7407-8caf-c29c8062eff3"",""projectId"":""0198bbb8-fd11-701d-9147-68794ad37298""}","https://test12345.live/?num_scrambled_semantic=8&num_scrambled_causal=4&num_scrambled_schematic=4&participantId=6BA782BB5F7B4870B0D3954AE5514AFB&assignmentId=0198bcf9-30ef-7407-8caf-c29c8062eff3&projectId=0198bbb8-fd11-701d-9147-68794ad37298","6BA782BB5F7B4870B0D3954AE5514AFB-2025-08-18-12-13-40","","null","","images/semantic_sequence/redecorating_semantic/redecorating_semantic_ten.png","null","",""
"","","","","","image-button-response","109","961577","0.0-14.0-1.0-2.6","6BA782BB5F7B4870B0D3954AE5514AFB","6BA782BB5F7B4870B0D3954AE5514AFB","0198bcf9-30ef-7407-8caf-c29c8062eff3","0198bbb8-fd11-701d-9147-68794ad37298","{""num_scrambled_semantic"":""8"",""num_scrambled_causal"":""4"",""num_scrambled_schematic"":""4"",""participantId"":""6BA782BB5F7B4870B0D3954AE5514AFB"",""assignmentId"":""0198bcf9-30ef-7407-8caf-c29c8062eff3"",""projectId"":""0198bbb8-fd11-701d-9147-68794ad37298""}","https://test12345.live/?num_scrambled_semantic=8&num_scrambled_causal=4&num_scrambled_schematic=4&participantId=6BA782BB5F7B4870B0D3954AE5514AFB&assignmentId=0198bcf9-30ef-7407-8caf-c29c8062eff3&projectId=0198bbb8-fd11-701d-9147-68794ad37298","6BA782BB5F7B4870B0D3954AE5514AFB-2025-08-18-12-13-40","","null","","[]","null","",""
"","","","","","image-button-response","110","966083","0.0-14.0-1.0-0.7","6BA782BB5F7B4870B0D3954AE5514AFB","6BA782BB5F7B4870B0D3954AE5514AFB","0198bcf9-30ef-7407-8caf-c29c8062eff3","0198bbb8-fd11-701d-9147-68794ad37298","{""num_scrambled_semantic"":""8"",""num_scrambled_causal"":""4"",""num_scrambled_schematic"":""4"",""participantId"":""6BA782BB5F7B4870B0D3954AE5514AFB"",""assignmentId"":""0198bcf9-30ef-7407-8caf-c29c8062eff3"",""projectId"":""0198bbb8-fd11-701d-9147-68794ad37298""}","https://test12345.live/?num_scrambled_semantic=8&num_scrambled_causal=4&num_scrambled_schematic=4&participantId=6BA782BB5F7B4870B0D3954AE5514AFB&assignmentId=0198bcf9-30ef-7407-8caf-c29c8062eff3&projectId=0198bbb8-fd11-701d-9147-68794ad37298","6BA782BB5F7B4870B0D3954AE5514AFB-2025-08-18-12-13-40","","null","","images/semantic_sequence/redecorating_semantic/redecorating_semantic_9.png","null","",""
"","","","","","image-button-response","111","966975","0.0-14.0-1.0-1.7","6BA782BB5F7B4870B0D3954AE5514AFB","6BA782BB5F7B4870B0D3954AE5514AFB","0198bcf9-30ef-7407-8caf-c29c8062eff3","0198bbb8-fd11-701d-9147-68794ad37298","{""num_scrambled_semantic"":""8"",""num_scrambled_causal"":""4"",""num_scrambled_schematic"":""4"",""participantId"":""6BA782BB5F7B4870B0D3954AE5514AFB"",""assignmentId"":""0198bcf9-30ef-7407-8caf-c29c8062eff3"",""projectId"":""0198bbb8-fd11-701d-9147-68794ad37298""}","https://test12345.live/?num_scrambled_semantic=8&num_scrambled_causal=4&num_scrambled_schematic=4&participantId=6BA782BB5F7B4870B0D3954AE5514AFB&assignmentId=0198bcf9-30ef-7407-8caf-c29c8062eff3&projectId=0198bbb8-fd11-701d-9147-68794ad37298","6BA782BB5F7B4870B0D3954AE5514AFB-2025-08-18-12-13-40","","890","","images/semantic_sequence/redecorating_semantic/redecorating_semantic_9.png","0","",""
"","","","","","image-button-response","112","977779","0.0-14.0-1.0-2.7","6BA782BB5F7B4870B0D3954AE5514AFB","6BA782BB5F7B4870B0D3954AE5514AFB","0198bcf9-30ef-7407-8caf-c29c8062eff3","0198bbb8-fd11-701d-9147-68794ad37298","{""num_scrambled_semantic"":""8"",""num_scrambled_causal"":""4"",""num_scrambled_schematic"":""4"",""participantId"":""6BA782BB5F7B4870B0D3954AE5514AFB"",""assignmentId"":""0198bcf9-30ef-7407-8caf-c29c8062eff3"",""projectId"":""0198bbb8-fd11-701d-9147-68794ad37298""}","https://test12345.live/?num_scrambled_semantic=8&num_scrambled_causal=4&num_scrambled_schematic=4&participantId=6BA782BB5F7B4870B0D3954AE5514AFB&assignmentId=0198bcf9-30ef-7407-8caf-c29c8062eff3&projectId=0198bbb8-fd11-701d-9147-68794ad37298","6BA782BB5F7B4870B0D3954AE5514AFB-2025-08-18-12-13-40","","null","","[]","null","",""
"","","","","","image-button-response","113","982286","0.0-14.0-1.0-0.8","6BA782BB5F7B4870B0D3954AE5514AFB","6BA782BB5F7B4870B0D3954AE5514AFB","0198bcf9-30ef-7407-8caf-c29c8062eff3","0198bbb8-fd11-701d-9147-68794ad37298","{""num_scrambled_semantic"":""8"",""num_scrambled_causal"":""4"",""num_scrambled_schematic"":""4"",""participantId"":""6BA782BB5F7B4870B0D3954AE5514AFB"",""assignmentId"":""0198bcf9-30ef-7407-8caf-c29c8062eff3"",""projectId"":""0198bbb8-fd11-701d-9147-68794ad37298""}","https://test12345.live/?num_scrambled_semantic=8&num_scrambled_causal=4&num_scrambled_schematic=4&participantId=6BA782BB5F7B4870B0D3954AE5514AFB&assignmentId=0198bcf9-30ef-7407-8caf-c29c8062eff3&projectId=0198bbb8-fd11-701d-9147-68794ad37298","6BA782BB5F7B4870B0D3954AE5514AFB-2025-08-18-12-13-40","","null","","images/semantic_sequence/redecorating_semantic/redecorating_semantic_1.png","null","",""
"","","","","","image-button-response","114","983874","0.0-14.0-1.0-1.8","6BA782BB5F7B4870B0D3954AE5514AFB","6BA782BB5F7B4870B0D3954AE5514AFB","0198bcf9-30ef-7407-8caf-c29c8062eff3","0198bbb8-fd11-701d-9147-68794ad37298","{""num_scrambled_semantic"":""8"",""num_scrambled_causal"":""4"",""num_scrambled_schematic"":""4"",""participantId"":""6BA782BB5F7B4870B0D3954AE5514AFB"",""assignmentId"":""0198bcf9-30ef-7407-8caf-c29c8062eff3"",""projectId"":""0198bbb8-fd11-701d-9147-68794ad37298""}","https://test12345.live/?num_scrambled_semantic=8&num_scrambled_causal=4&num_scrambled_schematic=4&participantId=6BA782BB5F7B4870B0D3954AE5514AFB&assignmentId=0198bcf9-30ef-7407-8caf-c29c8062eff3&projectId=0198bbb8-fd11-701d-9147-68794ad37298","6BA782BB5F7B4870B0D3954AE5514AFB-2025-08-18-12-13-40","","1586","","images/semantic_sequence/redecorating_semantic/redecorating_semantic_1.png","0","",""
"","","","","","image-button-response","115","994678","0.0-14.0-1.0-2.8","6BA782BB5F7B4870B0D3954AE5514AFB","6BA782BB5F7B4870B0D3954AE5514AFB","0198bcf9-30ef-7407-8caf-c29c8062eff3","0198bbb8-fd11-701d-9147-68794ad37298","{""num_scrambled_semantic"":""8"",""num_scrambled_causal"":""4"",""num_scrambled_schematic"":""4"",""participantId"":""6BA782BB5F7B4870B0D3954AE5514AFB"",""assignmentId"":""0198bcf9-30ef-7407-8caf-c29c8062eff3"",""projectId"":""0198bbb8-fd11-701d-9147-68794ad37298""}","https://test12345.live/?num_scrambled_semantic=8&num_scrambled_causal=4&num_scrambled_schematic=4&participantId=6BA782BB5F7B4870B0D3954AE5514AFB&assignmentId=0198bcf9-30ef-7407-8caf-c29c8062eff3&projectId=0198bbb8-fd11-701d-9147-68794ad37298","6BA782BB5F7B4870B0D3954AE5514AFB-2025-08-18-12-13-40","","null","","[]","null","",""