"success","timeout","failed_images","failed_audio","failed_video","trial_type","trial_index","time_elapsed","internal_node_id","subject","subject_id","study_id","session_id","urlvar","current_url","audio_id","view_history","rt","device_id","stimulus","response","estimated_stimulus_onset","seq_name"
"true","false","[]","[]","[]","preload","0","22149","0.0-0.0","70CD2982654142C7A70CB396FFA3BD07","70CD2982654142C7A70CB396FFA3BD07","5a2b0970-177a-465d-ad80-16b4ab5c1018","a9f3d40c-5730-405c-b25e-1034c4c56f3f","{""num_scrambled_semantic"":""8"",""num_scrambled_causal"":""4"",""num_scrambled_schematic"":""4"",""participantId"":""70CD2982654142C7A70CB396FFA3BD07"",""assignmentId"":""5a2b0970-177a-465d-ad80-16b4ab5c1018"",""projectId"":""a9f3d40c-5730-405c-b25e-1034c4c56f3f""}","https://test12345.live/?num_scrambled_semantic=8&num_scrambled_causal=4&num_scrambled_schematic=4&participantId=70CD2982654142C7A70CB396FFA3BD07&assignmentId=5a2b0970-177a-465d-ad80-16b4ab5c1018&projectId=a9f3d40c-5730-405c-b25e-1034c4c56f3f","70CD2982654142C7A70CB396FFA3BD07-2025-08-07-19-04-51","","","","","","",""
"","","","","","instructions","1","39383","0.0-1.0","70CD2982654142C7A70CB396FFA3BD07","70CD2982654142C7A70CB396FFA3BD07","5a2b0970-177a-465d-ad80-16b4ab5c1018","a9f3d40c-5730-405c-b25e-1034c4c56f3f","{""num_scrambled_semantic"":""8"",""num_scrambled_causal"":""4"",""num_scrambled_schematic"":""4"",""participantId"":""70CD2982654142C7A70CB396FFA3BD07"",""assignmentId"":""5a2b0970-177a-465d-ad80-16b4ab5c1018"",""projectId"":""a9f3d40c-5730-405c-b25e-1034c4c56f3f""}","https://test12345.live/?num_scrambled_semantic=8&num_scrambled_causal=4&num_scrambled_schematic=4&participantId=70CD2982654142C7A70CB396FFA3BD07&assignmentId=5a2b0970-177a-465d-ad80-16b4ab5c1018&projectId=a9f3d40c-5730-405c-b25e-1034c4c56f3f","70CD2982654142C7A70CB396FFA3BD07-2025-08-07-19-04-51","[{""page_index"":0,""viewing_time"":17231}]","17232","","","","",""
"","","","","","instructions","2","42542","0.0-2.0","70CD2982654142C7A70CB396FFA3BD07","70CD2982654142C7A70CB396FFA3BD07","5a2b0970-177a-465d-ad80-16b4ab5c1018","a9f3d40c-5730-405c-b25e-1034c4c56f3f","{""num_scrambled_semantic"":""8"",""num_scrambled_causal"":""4"",""num_scrambled_schematic"":""4"",""participantId"":""70CD2982654142C7A70CB396FFA3BD07"",""assignmentId"":""5a2b0970-177a-465d-ad80-16b4ab5c1018"",""projectId"":""a9f3d40c-5730-405c-b25e-1034c4c56f3f""}","https://test12345.live/?num_scrambled_semantic=8&num_scrambled_causal=4&num_scrambled_schematic=4&participantId=70CD2982654142C7A70CB396FFA3BD07&assignmentId=5a2b0970-177a-465d-ad80-16b4ab5c1018&projectId=a9f3d40c-5730-405c-b25e-1034c4c56f3f","70CD2982654142C7A70CB396FFA3BD07-2025-08-07-19-04-51","[{""page_index"":0,""viewing_time"":3158}]","3159","","","","",""
"true","","","","","fullscreen","3","44615","0.0-3.0","70CD2982654142C7A70CB396FFA3BD07","70CD2982654142C7A70CB396FFA3BD07","5a2b0970-177a-465d-ad80-16b4ab5c1018","a9f3d40c-5730-405c-b25e-1034c4c56f3f","{""num_scrambled_semantic"":""8"",""num_scrambled_causal"":""4"",""num_scrambled_schematic"":""4"",""participantId"":""70CD2982654142C7A70CB396FFA3BD07"",""assignmentId"":""5a2b0970-177a-465d-ad80-16b4ab5c1018"",""projectId"":""a9f3d40c-5730-405c-b25e-1034c4c56f3f""}","https://test12345.live/?num_scrambled_semantic=8&num_scrambled_causal=4&num_scrambled_schematic=4&participantId=70CD2982654142C7A70CB396FFA3BD07&assignmentId=5a2b0970-177a-465d-ad80-16b4ab5c1018&projectId=a9f3d40c-5730-405c-b25e-1034c4c56f3f","70CD2982654142C7A70CB396FFA3BD07-2025-08-07-19-04-51","","1063","","","","",""
"","","","","","initialize-microphone","4","51558","0.0-4.0-0.0","70CD2982654142C7A70CB396FFA3BD07","70CD2982654142C7A70CB396FFA3BD07","5a2b0970-177a-465d-ad80-16b4ab5c1018","a9f3d40c-5730-405c-b25e-1034c4c56f3f","{""num_scrambled_semantic"":""8"",""num_scrambled_causal"":""4"",""num_scrambled_schematic"":""4"",""participantId"":""70CD2982654142C7A70CB396FFA3BD07"",""assignmentId"":""5a2b0970-177a-465d-ad80-16b4ab5c1018"",""projectId"":""a9f3d40c-5730-405c-b25e-1034c4c56f3f""}","https://test12345.live/?num_scrambled_semantic=8&num_scrambled_causal=4&num_scrambled_schematic=4&participantId=70CD2982654142C7A70CB396FFA3BD07&assignmentId=5a2b0970-177a-465d-ad80-16b4ab5c1018&projectId=a9f3d40c-5730-405c-b25e-1034c4c56f3f","70CD2982654142C7A70CB396FFA3BD07-2025-08-07-19-04-51","","","3bb5ca38efeaa2d62eeb18f09ed6142272b08951e632715f6b91cd12bef85546","","","",""
"","","","","","html-audio-response","5","69075","0.0-4.0-1.0","70CD2982654142C7A70CB396FFA3BD07","70CD2982654142C7A70CB396FFA3BD07","5a2b0970-177a-465d-ad80-16b4ab5c1018","a9f3d40c-5730-405c-b25e-1034c4c56f3f","{""num_scrambled_semantic"":""8"",""num_scrambled_causal"":""4"",""num_scrambled_schematic"":""4"",""participantId"":""70CD2982654142C7A70CB396FFA3BD07"",""assignmentId"":""5a2b0970-177a-465d-ad80-16b4ab5c1018"",""projectId"":""a9f3d40c-5730-405c-b25e-1034c4c56f3f""}","https://test12345.live/?num_scrambled_semantic=8&num_scrambled_causal=4&num_scrambled_schematic=4&participantId=70CD2982654142C7A70CB396FFA3BD07&assignmentId=5a2b0970-177a-465d-ad80-16b4ab5c1018&projectId=a9f3d40c-5730-405c-b25e-1034c4c56f3f","70CD2982654142C7A70CB396FFA3BD07-2025-08-07-19-04-51","","4194","","<span style=""color: red; font-size: 24px""> NOW RECORDING</span>
        <p>Please test Microphone</p>","","2",""
"","","","","","html-button-response","6","70343","0.0-4.0-2.0","70CD2982654142C7A70CB396FFA3BD07","70CD2982654142C7A70CB396FFA3BD07","5a2b0970-177a-465d-ad80-16b4ab5c1018","a9f3d40c-5730-405c-b25e-1034c4c56f3f","{""num_scrambled_semantic"":""8"",""num_scrambled_causal"":""4"",""num_scrambled_schematic"":""4"",""participantId"":""70CD2982654142C7A70CB396FFA3BD07"",""assignmentId"":""5a2b0970-177a-465d-ad80-16b4ab5c1018"",""projectId"":""a9f3d40c-5730-405c-b25e-1034c4c56f3f""}","https://test12345.live/?num_scrambled_semantic=8&num_scrambled_causal=4&num_scrambled_schematic=4&participantId=70CD2982654142C7A70CB396FFA3BD07&assignmentId=5a2b0970-177a-465d-ad80-16b4ab5c1018&projectId=a9f3d40c-5730-405c-b25e-1034c4c56f3f","70CD2982654142C7A70CB396FFA3BD07-2025-08-07-19-04-51","","1267","","<p style=""font-size:48px; color:red;"">Is Microphone OK?</p>","1","",""
"","","","","","instructions","7","75574","0.0-5.0","70CD2982654142C7A70CB396FFA3BD07","70CD2982654142C7A70CB396FFA3BD07","5a2b0970-177a-465d-ad80-16b4ab5c1018","a9f3d40c-5730-405c-b25e-1034c4c56f3f","{""num_scrambled_semantic"":""8"",""num_scrambled_causal"":""4"",""num_scrambled_schematic"":""4"",""participantId"":""70CD2982654142C7A70CB396FFA3BD07"",""assignmentId"":""5a2b0970-177a-465d-ad80-16b4ab5c1018"",""projectId"":""a9f3d40c-5730-405c-b25e-1034c4c56f3f""}","https://test12345.live/?num_scrambled_semantic=8&num_scrambled_causal=4&num_scrambled_schematic=4&participantId=70CD2982654142C7A70CB396FFA3BD07&assignmentId=5a2b0970-177a-465d-ad80-16b4ab5c1018&projectId=a9f3d40c-5730-405c-b25e-1034c4c56f3f","70CD2982654142C7A70CB396FFA3BD07-2025-08-07-19-04-51","[{""page_index"":0,""viewing_time"":2122},{""page_index"":1,""viewing_time"":3108}]","5230","","","","",""
"","","","","","image-button-response","8","81580","0.0-6.0-0.0","70CD2982654142C7A70CB396FFA3BD07","70CD2982654142C7A70CB396FFA3BD07","5a2b0970-177a-465d-ad80-16b4ab5c1018","a9f3d40c-5730-405c-b25e-1034c4c56f3f","{""num_scrambled_semantic"":""8"",""num_scrambled_causal"":""4"",""num_scrambled_schematic"":""4"",""participantId"":""70CD2982654142C7A70CB396FFA3BD07"",""assignmentId"":""5a2b0970-177a-465d-ad80-16b4ab5c1018"",""projectId"":""a9f3d40c-5730-405c-b25e-1034c4c56f3f""}","https://test12345.live/?num_scrambled_semantic=8&num_scrambled_causal=4&num_scrambled_schematic=4&participantId=70CD2982654142C7A70CB396FFA3BD07&assignmentId=5a2b0970-177a-465d-ad80-16b4ab5c1018&projectId=a9f3d40c-5730-405c-b25e-1034c4c56f3f","70CD2982654142C7A70CB396FFA3BD07-2025-08-07-19-04-51","","null","","images/instructions/movie_0.png","null","",""
"","","","","","image-button-response","9","86092","0.0-6.0-1.0-0.0","70CD2982654142C7A70CB396FFA3BD07","70CD2982654142C7A70CB396FFA3BD07","5a2b0970-177a-465d-ad80-16b4ab5c1018","a9f3d40c-5730-405c-b25e-1034c4c56f3f","{""num_scrambled_semantic"":""8"",""num_scrambled_causal"":""4"",""num_scrambled_schematic"":""4"",""participantId"":""70CD2982654142C7A70CB396FFA3BD07"",""assignmentId"":""5a2b0970-177a-465d-ad80-16b4ab5c1018"",""projectId"":""a9f3d40c-5730-405c-b25e-1034c4c56f3f""}","https://test12345.live/?num_scrambled_semantic=8&num_scrambled_causal=4&num_scrambled_schematic=4&participantId=70CD2982654142C7A70CB396FFA3BD07&assignmentId=5a2b0970-177a-465d-ad80-16b4ab5c1018&projectId=a9f3d40c-5730-405c-b25e-1034c4c56f3f","70CD2982654142C7A70CB396FFA3BD07-2025-08-07-19-04-51","","null","","images/instructions/movie_1.png","null","",""
"","","","","","image-button-response","10","88967","0.0-6.0-1.0-1.0","70CD2982654142C7A70CB396FFA3BD07","70CD2982654142C7A70CB396FFA3BD07","5a2b0970-177a-465d-ad80-16b4ab5c1018","a9f3d40c-5730-405c-b25e-1034c4c56f3f","{""num_scrambled_semantic"":""8"",""num_scrambled_causal"":""4"",""num_scrambled_schematic"":""4"",""participantId"":""70CD2982654142C7A70CB396FFA3BD07"",""assignmentId"":""5a2b0970-177a-465d-ad80-16b4ab5c1018"",""projectId"":""a9f3d40c-5730-405c-b25e-1034c4c56f3f""}","https://test12345.live/?num_scrambled_semantic=8&num_scrambled_causal=4&num_scrambled_schematic=4&participantId=70CD2982654142C7A70CB396FFA3BD07&assignmentId=5a2b0970-177a-465d-ad80-16b4ab5c1018&projectId=a9f3d40c-5730-405c-b25e-1034c4c56f3f","70CD2982654142C7A70CB396FFA3BD07-2025-08-07-19-04-51","","2874","","images/instructions/movie_1.png","0","",""
"","","","","","image-button-response","11","90768","0.0-6.0-1.0-2.0","70CD2982654142C7A70CB396FFA3BD07","70CD2982654142C7A70CB396FFA3BD07","5a2b0970-177a-465d-ad80-16b4ab5c1018","a9f3d40c-5730-405c-b25e-1034c4c56f3f","{""num_scrambled_semantic"":""8"",""num_scrambled_causal"":""4"",""num_scrambled_schematic"":""4"",""participantId"":""70CD2982654142C7A70CB396FFA3BD07"",""assignmentId"":""5a2b0970-177a-465d-ad80-16b4ab5c1018"",""projectId"":""a9f3d40c-5730-405c-b25e-1034c4c56f3f""}","https://test12345.live/?num_scrambled_semantic=8&num_scrambled_causal=4&num_scrambled_schematic=4&participantId=70CD2982654142C7A70CB396FFA3BD07&assignmentId=5a2b0970-177a-465d-ad80-16b4ab5c1018&projectId=a9f3d40c-5730-405c-b25e-1034c4c56f3f","70CD2982654142C7A70CB396FFA3BD07-2025-08-07-19-04-51","","null","","[]","null","",""
"","","","","","image-button-response","12","95270","0.0-6.0-1.0-0.1","70CD2982654142C7A70CB396FFA3BD07","70CD2982654142C7A70CB396FFA3BD07","5a2b0970-177a-465d-ad80-16b4ab5c1018","a9f3d40c-5730-405c-b25e-1034c4c56f3f","{""num_scrambled_semantic"":""8"",""num_scrambled_causal"":""4"",""num_scrambled_schematic"":""4"",""participantId"":""70CD2982654142C7A70CB396FFA3BD07"",""assignmentId"":""5a2b0970-177a-465d-ad80-16b4ab5c1018"",""projectId"":""a9f3d40c-5730-405c-b25e-1034c4c56f3f""}","https://test12345.live/?num_scrambled_semantic=8&num_scrambled_causal=4&num_scrambled_schematic=4&participantId=70CD2982654142C7A70CB396FFA3BD07&assignmentId=5a2b0970-177a-465d-ad80-16b4ab5c1018&projectId=a9f3d40c-5730-405c-b25e-1034c4c56f3f","70CD2982654142C7A70CB396FFA3BD07-2025-08-07-19-04-51","","null","","images/instructions/movie_2.png","null","",""
"","","","","","image-button-response","13","96267","0.0-6.0-1.0-1.1","70CD2982654142C7A70CB396FFA3BD07","70CD2982654142C7A70CB396FFA3BD07","5a2b0970-177a-465d-ad80-16b4ab5c1018","a9f3d40c-5730-405c-b25e-1034c4c56f3f","{""num_scrambled_semantic"":""8"",""num_scrambled_causal"":""4"",""num_scrambled_schematic"":""4"",""participantId"":""70CD2982654142C7A70CB396FFA3BD07"",""assignmentId"":""5a2b0970-177a-465d-ad80-16b4ab5c1018"",""projectId"":""a9f3d40c-5730-405c-b25e-1034c4c56f3f""}","https://test12345.live/?num_scrambled_semantic=8&num_scrambled_causal=4&num_scrambled_schematic=4&participantId=70CD2982654142C7A70CB396FFA3BD07&assignmentId=5a2b0970-177a-465d-ad80-16b4ab5c1018&projectId=a9f3d40c-5730-405c-b25e-1034c4c56f3f","70CD2982654142C7A70CB396FFA3BD07-2025-08-07-19-04-51","","995","","images/instructions/movie_2.png","0","",""
"","","","","","image-button-response","14","98074","0.0-6.0-1.0-2.1","70CD2982654142C7A70CB396FFA3BD07","70CD2982654142C7A70CB396FFA3BD07","5a2b0970-177a-465d-ad80-16b4ab5c1018","a9f3d40c-5730-405c-b25e-1034c4c56f3f","{""num_scrambled_semantic"":""8"",""num_scrambled_causal"":""4"",""num_scrambled_schematic"":""4"",""participantId"":""70CD2982654142C7A70CB396FFA3BD07"",""assignmentId"":""5a2b0970-177a-465d-ad80-16b4ab5c1018"",""projectId"":""a9f3d40c-5730-405c-b25e-1034c4c56f3f""}","https://test12345.live/?num_scrambled_semantic=8&num_scrambled_causal=4&num_scrambled_schematic=4&participantId=70CD2982654142C7A70CB396FFA3BD07&assignmentId=5a2b0970-177a-465d-ad80-16b4ab5c1018&projectId=a9f3d40c-5730-405c-b25e-1034c4c56f3f","70CD2982654142C7A70CB396FFA3BD07-2025-08-07-19-04-51","","null","","[]","null","",""
"","","","","","image-button-response","15","102579","0.0-6.0-1.0-0.2","70CD2982654142C7A70CB396FFA3BD07","70CD2982654142C7A70CB396FFA3BD07","5a2b0970-177a-465d-ad80-16b4ab5c1018","a9f3d40c-5730-405c-b25e-1034c4c56f3f","{""num_scrambled_semantic"":""8"",""num_scrambled_causal"":""4"",""num_scrambled_schematic"":""4"",""participantId"":""70CD2982654142C7A70CB396FFA3BD07"",""assignmentId"":""5a2b0970-177a-465d-ad80-16b4ab5c1018"",""projectId"":""a9f3d40c-5730-405c-b25e-1034c4c56f3f""}","https://test12345.live/?num_scrambled_semantic=8&num_scrambled_causal=4&num_scrambled_schematic=4&participantId=70CD2982654142C7A70CB396FFA3BD07&assignmentId=5a2b0970-177a-465d-ad80-16b4ab5c1018&projectId=a9f3d40c-5730-405c-b25e-1034c4c56f3f","70CD2982654142C7A70CB396FFA3BD07-2025-08-07-19-04-51","","null","","images/instructions/movie_3.png","null","",""
"","","","","","image-button-response","16","105495","0.0-6.0-1.0-1.2","70CD2982654142C7A70CB396FFA3BD07","70CD2982654142C7A70CB396FFA3BD07","5a2b0970-177a-465d-ad80-16b4ab5c1018","a9f3d40c-5730-405c-b25e-1034c4c56f3f","{""num_scrambled_semantic"":""8"",""num_scrambled_causal"":""4"",""num_scrambled_schematic"":""4"",""participantId"":""70CD2982654142C7A70CB396FFA3BD07"",""assignmentId"":""5a2b0970-177a-465d-ad80-16b4ab5c1018"",""projectId"":""a9f3d40c-5730-405c-b25e-1034c4c56f3f""}","https://test12345.live/?num_scrambled_semantic=8&num_scrambled_causal=4&num_scrambled_schematic=4&participantId=70CD2982654142C7A70CB396FFA3BD07&assignmentId=5a2b0970-177a-465d-ad80-16b4ab5c1018&projectId=a9f3d40c-5730-405c-b25e-1034c4c56f3f","70CD2982654142C7A70CB396FFA3BD07-2025-08-07-19-04-51","","2914","","images/instructions/movie_3.png","0","",""
"","","","","","image-button-response","17","107300","0.0-6.0-1.0-2.2","70CD2982654142C7A70CB396FFA3BD07","70CD2982654142C7A70CB396FFA3BD07","5a2b0970-177a-465d-ad80-16b4ab5c1018","a9f3d40c-5730-405c-b25e-1034c4c56f3f","{""num_scrambled_semantic"":""8"",""num_scrambled_causal"":""4"",""num_scrambled_schematic"":""4"",""participantId"":""70CD2982654142C7A70CB396FFA3BD07"",""assignmentId"":""5a2b0970-177a-465d-ad80-16b4ab5c1018"",""projectId"":""a9f3d40c-5730-405c-b25e-1034c4c56f3f""}","https://test12345.live/?num_scrambled_semantic=8&num_scrambled_causal=4&num_scrambled_schematic=4&participantId=70CD2982654142C7A70CB396FFA3BD07&assignmentId=5a2b0970-177a-465d-ad80-16b4ab5c1018&projectId=a9f3d40c-5730-405c-b25e-1034c4c56f3f","70CD2982654142C7A70CB396FFA3BD07-2025-08-07-19-04-51","","null","","[]","null","",""
"","","","","","image-button-response","18","111805","0.0-6.0-1.0-0.3","70CD2982654142C7A70CB396FFA3BD07","70CD2982654142C7A70CB396FFA3BD07","5a2b0970-177a-465d-ad80-16b4ab5c1018","a9f3d40c-5730-405c-b25e-1034c4c56f3f","{""num_scrambled_semantic"":""8"",""num_scrambled_causal"":""4"",""num_scrambled_schematic"":""4"",""participantId"":""70CD2982654142C7A70CB396FFA3BD07"",""assignmentId"":""5a2b0970-177a-465d-ad80-16b4ab5c1018"",""projectId"":""a9f3d40c-5730-405c-b25e-1034c4c56f3f""}","https://test12345.live/?num_scrambled_semantic=8&num_scrambled_causal=4&num_scrambled_schematic=4&participantId=70CD2982654142C7A70CB396FFA3BD07&assignmentId=5a2b0970-177a-465d-ad80-16b4ab5c1018&projectId=a9f3d40c-5730-405c-b25e-1034c4c56f3f","70CD2982654142C7A70CB396FFA3BD07-2025-08-07-19-04-51","","null","","images/instructions/movie_4.png","null","",""
"","","","","","image-button-response","19","112642","0.0-6.0-1.0-1.3","70CD2982654142C7A70CB396FFA3BD07","70CD2982654142C7A70CB396FFA3BD07","5a2b0970-177a-465d-ad80-16b4ab5c1018","a9f3d40c-5730-405c-b25e-1034c4c56f3f","{""num_scrambled_semantic"":""8"",""num_scrambled_causal"":""4"",""num_scrambled_schematic"":""4"",""participantId"":""70CD2982654142C7A70CB396FFA3BD07"",""assignmentId"":""5a2b0970-177a-465d-ad80-16b4ab5c1018"",""projectId"":""a9f3d40c-5730-405c-b25e-1034c4c56f3f""}","https://test12345.live/?num_scrambled_semantic=8&num_scrambled_causal=4&num_scrambled_schematic=4&participantId=70CD2982654142C7A70CB396FFA3BD07&assignmentId=5a2b0970-177a-465d-ad80-16b4ab5c1018&projectId=a9f3d40c-5730-405c-b25e-1034c4c56f3f","70CD2982654142C7A70CB396FFA3BD07-2025-08-07-19-04-51","","836","","images/instructions/movie_4.png","0","",""
"","","","","","image-button-response","20","114456","0.0-6.0-1.0-2.3","70CD2982654142C7A70CB396FFA3BD07","70CD2982654142C7A70CB396FFA3BD07","5a2b0970-177a-465d-ad80-16b4ab5c1018","a9f3d40c-5730-405c-b25e-1034c4c56f3f","{""num_scrambled_semantic"":""8"",""num_scrambled_causal"":""4"",""num_scrambled_schematic"":""4"",""participantId"":""70CD2982654142C7A70CB396FFA3BD07"",""assignmentId"":""5a2b0970-177a-465d-ad80-16b4ab5c1018"",""projectId"":""a9f3d40c-5730-405c-b25e-1034c4c56f3f""}","https://test12345.live/?num_scrambled_semantic=8&num_scrambled_causal=4&num_scrambled_schematic=4&participantId=70CD2982654142C7A70CB396FFA3BD07&assignmentId=5a2b0970-177a-465d-ad80-16b4ab5c1018&projectId=a9f3d40c-5730-405c-b25e-1034c4c56f3f","70CD2982654142C7A70CB396FFA3BD07-2025-08-07-19-04-51","","null","","[]","null","",""
"","","","","","instructions","21","118454","0.0-7.0","70CD2982654142C7A70CB396FFA3BD07","70CD2982654142C7A70CB396FFA3BD07","5a2b0970-177a-465d-ad80-16b4ab5c1018","a9f3d40c-5730-405c-b25e-1034c4c56f3f","{""num_scrambled_semantic"":""8"",""num_scrambled_causal"":""4"",""num_scrambled_schematic"":""4"",""participantId"":""70CD2982654142C7A70CB396FFA3BD07"",""assignmentId"":""5a2b0970-177a-465d-ad80-16b4ab5c1018"",""projectId"":""a9f3d40c-5730-405c-b25e-1034c4c56f3f""}","https://test12345.live/?num_scrambled_semantic=8&num_scrambled_causal=4&num_scrambled_schematic=4&participantId=70CD2982654142C7A70CB396FFA3BD07&assignmentId=5a2b0970-177a-465d-ad80-16b4ab5c1018&projectId=a9f3d40c-5730-405c-b25e-1034c4c56f3f","70CD2982654142C7A70CB396FFA3BD07-2025-08-07-19-04-51","[{""page_index"":0,""viewing_time"":2982},{""page_index"":1,""viewing_time"":1016}]","3998","","","","",""
"","","","","","html-audio-response","22","147670","0.0-8.0","70CD2982654142C7A70CB396FFA3BD07","70CD2982654142C7A70CB396FFA3BD07","5a2b0970-177a-465d-ad80-16b4ab5c1018","a9f3d40c-5730-405c-b25e-1034c4c56f3f","{""num_scrambled_semantic"":""8"",""num_scrambled_causal"":""4"",""num_scrambled_schematic"":""4"",""participantId"":""70CD2982654142C7A70CB396FFA3BD07"",""assignmentId"":""5a2b0970-177a-465d-ad80-16b4ab5c1018"",""projectId"":""a9f3d40c-5730-405c-b25e-1034c4c56f3f""}","https://test12345.live/?num_scrambled_semantic=8&num_scrambled_causal=4&num_scrambled_schematic=4&participantId=70CD2982654142C7A70CB396FFA3BD07&assignmentId=5a2b0970-177a-465d-ad80-16b4ab5c1018&projectId=a9f3d40c-5730-405c-b25e-1034c4c56f3f","70CD2982654142C7A70CB396FFA3BD07-2025-08-07-19-04-51","","16527","","[""<span style=\""color: red; font-size: 24px\""> NOW RECORDING</span><p>Please say out loud all the images you saw, as many as you can remember. The images can be said in any order.</p>""]","","1",""
"","","","","","instructions","23","148743","0.0-9.0","70CD2982654142C7A70CB396FFA3BD07","70CD2982654142C7A70CB396FFA3BD07","5a2b0970-177a-465d-ad80-16b4ab5c1018","a9f3d40c-5730-405c-b25e-1034c4c56f3f","{""num_scrambled_semantic"":""8"",""num_scrambled_causal"":""4"",""num_scrambled_schematic"":""4"",""participantId"":""70CD2982654142C7A70CB396FFA3BD07"",""assignmentId"":""5a2b0970-177a-465d-ad80-16b4ab5c1018"",""projectId"":""a9f3d40c-5730-405c-b25e-1034c4c56f3f""}","https://test12345.live/?num_scrambled_semantic=8&num_scrambled_causal=4&num_scrambled_schematic=4&participantId=70CD2982654142C7A70CB396FFA3BD07&assignmentId=5a2b0970-177a-465d-ad80-16b4ab5c1018&projectId=a9f3d40c-5730-405c-b25e-1034c4c56f3f","70CD2982654142C7A70CB396FFA3BD07-2025-08-07-19-04-51","[{""page_index"":0,""viewing_time"":1065}]","1065","","","","",""
"","","","","","image-button-response","24","154753","0.0-10.0-0.0","70CD2982654142C7A70CB396FFA3BD07","70CD2982654142C7A70CB396FFA3BD07","5a2b0970-177a-465d-ad80-16b4ab5c1018","a9f3d40c-5730-405c-b25e-1034c4c56f3f","{""num_scrambled_semantic"":""8"",""num_scrambled_causal"":""4"",""num_scrambled_schematic"":""4"",""participantId"":""70CD2982654142C7A70CB396FFA3BD07"",""assignmentId"":""5a2b0970-177a-465d-ad80-16b4ab5c1018"",""projectId"":""a9f3d40c-5730-405c-b25e-1034c4c56f3f""}","https://test12345.live/?num_scrambled_semantic=8&num_scrambled_causal=4&num_scrambled_schematic=4&participantId=70CD2982654142C7A70CB396FFA3BD07&assignmentId=5a2b0970-177a-465d-ad80-16b4ab5c1018&projectId=a9f3d40c-5730-405c-b25e-1034c4c56f3f","70CD2982654142C7A70CB396FFA3BD07-2025-08-07-19-04-51","","null","","images/causal_sequence/museum_causal/museum_causal_0.png","null","",""
"","","","","","image-button-response","25","159268","0.0-10.0-1.0-0.0","70CD2982654142C7A70CB396FFA3BD07","70CD2982654142C7A70CB396FFA3BD07","5a2b0970-177a-465d-ad80-16b4ab5c1018","a9f3d40c-5730-405c-b25e-1034c4c56f3f","{""num_scrambled_semantic"":""8"",""num_scrambled_causal"":""4"",""num_scrambled_schematic"":""4"",""participantId"":""70CD2982654142C7A70CB396FFA3BD07"",""assignmentId"":""5a2b0970-177a-465d-ad80-16b4ab5c1018"",""projectId"":""a9f3d40c-5730-405c-b25e-1034c4c56f3f""}","https://test12345.live/?num_scrambled_semantic=8&num_scrambled_causal=4&num_scrambled_schematic=4&participantId=70CD2982654142C7A70CB396FFA3BD07&assignmentId=5a2b0970-177a-465d-ad80-16b4ab5c1018&projectId=a9f3d40c-5730-405c-b25e-1034c4c56f3f","70CD2982654142C7A70CB396FFA3BD07-2025-08-07-19-04-51","","null","","images/causal_sequence/museum_causal/museum_causal_1.png","null","",""
"","","","","","image-button-response","26","163038","0.0-10.0-1.0-1.0","70CD2982654142C7A70CB396FFA3BD07","70CD2982654142C7A70CB396FFA3BD07","5a2b0970-177a-465d-ad80-16b4ab5c1018","a9f3d40c-5730-405c-b25e-1034c4c56f3f","{""num_scrambled_semantic"":""8"",""num_scrambled_causal"":""4"",""num_scrambled_schematic"":""4"",""participantId"":""70CD2982654142C7A70CB396FFA3BD07"",""assignmentId"":""5a2b0970-177a-465d-ad80-16b4ab5c1018"",""projectId"":""a9f3d40c-5730-405c-b25e-1034c4c56f3f""}","https://test12345.live/?num_scrambled_semantic=8&num_scrambled_causal=4&num_scrambled_schematic=4&participantId=70CD2982654142C7A70CB396FFA3BD07&assignmentId=5a2b0970-177a-465d-ad80-16b4ab5c1018&projectId=a9f3d40c-5730-405c-b25e-1034c4c56f3f","70CD2982654142C7A70CB396FFA3BD07-2025-08-07-19-04-51","","3769","","images/causal_sequence/museum_causal/museum_causal_1.png","0","",""
"","","","","","image-button-response","27","164850","0.0-10.0-1.0-2.0","70CD2982654142C7A70CB396FFA3BD07","70CD2982654142C7A70CB396FFA3BD07","5a2b0970-177a-465d-ad80-16b4ab5c1018","a9f3d40c-5730-405c-b25e-1034c4c56f3f","{""num_scrambled_semantic"":""8"",""num_scrambled_causal"":""4"",""num_scrambled_schematic"":""4"",""participantId"":""70CD2982654142C7A70CB396FFA3BD07"",""assignmentId"":""5a2b0970-177a-465d-ad80-16b4ab5c1018"",""projectId"":""a9f3d40c-5730-405c-b25e-1034c4c56f3f""}","https://test12345.live/?num_scrambled_semantic=8&num_scrambled_causal=4&num_scrambled_schematic=4&participantId=70CD2982654142C7A70CB396FFA3BD07&assignmentId=5a2b0970-177a-465d-ad80-16b4ab5c1018&projectId=a9f3d40c-5730-405c-b25e-1034c4c56f3f","70CD2982654142C7A70CB396FFA3BD07-2025-08-07-19-04-51","","null","","[]","null","",""
"","","","","","image-button-response","28","169363","0.0-10.0-1.0-0.1","70CD2982654142C7A70CB396FFA3BD07","70CD2982654142C7A70CB396FFA3BD07","5a2b0970-177a-465d-ad80-16b4ab5c1018","a9f3d40c-5730-405c-b25e-1034c4c56f3f","{""num_scrambled_semantic"":""8"",""num_scrambled_causal"":""4"",""num_scrambled_schematic"":""4"",""participantId"":""70CD2982654142C7A70CB396FFA3BD07"",""assignmentId"":""5a2b0970-177a-465d-ad80-16b4ab5c1018"",""projectId"":""a9f3d40c-5730-405c-b25e-1034c4c56f3f""}","https://test12345.live/?num_scrambled_semantic=8&num_scrambled_causal=4&num_scrambled_schematic=4&participantId=70CD2982654142C7A70CB396FFA3BD07&assignmentId=5a2b0970-177a-465d-ad80-16b4ab5c1018&projectId=a9f3d40c-5730-405c-b25e-1034c4c56f3f","70CD2982654142C7A70CB396FFA3BD07-2025-08-07-19-04-51","","null","","images/causal_sequence/museum_causal/museum_causal_2.png","null","",""
"","","","","","image-button-response","29","170599","0.0-10.0-1.0-1.1","70CD2982654142C7A70CB396FFA3BD07","70CD2982654142C7A70CB396FFA3BD07","5a2b0970-177a-465d-ad80-16b4ab5c1018","a9f3d40c-5730-405c-b25e-1034c4c56f3f","{""num_scrambled_semantic"":""8"",""num_scrambled_causal"":""4"",""num_scrambled_schematic"":""4"",""participantId"":""70CD2982654142C7A70CB396FFA3BD07"",""assignmentId"":""5a2b0970-177a-465d-ad80-16b4ab5c1018"",""projectId"":""a9f3d40c-5730-405c-b25e-1034c4c56f3f""}","https://test12345.live/?num_scrambled_semantic=8&num_scrambled_causal=4&num_scrambled_schematic=4&participantId=70CD2982654142C7A70CB396FFA3BD07&assignmentId=5a2b0970-177a-465d-ad80-16b4ab5c1018&projectId=a9f3d40c-5730-405c-b25e-1034c4c56f3f","70CD2982654142C7A70CB396FFA3BD07-2025-08-07-19-04-51","","1234","","images/causal_sequence/museum_causal/museum_causal_2.png","0","",""
"","","","","","image-button-response","30","172400","0.0-10.0-1.0-2.1","70CD2982654142C7A70CB396FFA3BD07","70CD2982654142C7A70CB396FFA3BD07","5a2b0970-177a-465d-ad80-16b4ab5c1018","a9f3d40c-5730-405c-b25e-1034c4c56f3f","{""num_scrambled_semantic"":""8"",""num_scrambled_causal"":""4"",""num_scrambled_schematic"":""4"",""participantId"":""70CD2982654142C7A70CB396FFA3BD07"",""assignmentId"":""5a2b0970-177a-465d-ad80-16b4ab5c1018"",""projectId"":""a9f3d40c-5730-405c-b25e-1034c4c56f3f""}","https://test12345.live/?num_scrambled_semantic=8&num_scrambled_causal=4&num_scrambled_schematic=4&participantId=70CD2982654142C7A70CB396FFA3BD07&assignmentId=5a2b0970-177a-465d-ad80-16b4ab5c1018&projectId=a9f3d40c-5730-405c-b25e-1034c4c56f3f","70CD2982654142C7A70CB396FFA3BD07-2025-08-07-19-04-51","","null","","[]","null","",""
"","","","","","image-button-response","31","176916","0.0-10.0-1.0-0.2","70CD2982654142C7A70CB396FFA3BD07","70CD2982654142C7A70CB396FFA3BD07","5a2b0970-177a-465d-ad80-16b4ab5c1018","a9f3d40c-5730-405c-b25e-1034c4c56f3f","{""num_scrambled_semantic"":""8"",""num_scrambled_causal"":""4"",""num_scrambled_schematic"":""4"",""participantId"":""70CD2982654142C7A70CB396FFA3BD07"",""assignmentId"":""5a2b0970-177a-465d-ad80-16b4ab5c1018"",""projectId"":""a9f3d40c-5730-405c-b25e-1034c4c56f3f""}","https://test12345.live/?num_scrambled_semantic=8&num_scrambled_causal=4&num_scrambled_schematic=4&participantId=70CD2982654142C7A70CB396FFA3BD07&assignmentId=5a2b0970-177a-465d-ad80-16b4ab5c1018&projectId=a9f3d40c-5730-405c-b25e-1034c4c56f3f","70CD2982654142C7A70CB396FFA3BD07-2025-08-07-19-04-51","","null","","images/causal_sequence/museum_causal/museum_causal_3.png","null","",""
"","","","","","image-button-response","32","178027","0.0-10.0-1.0-1.2","70CD2982654142C7A70CB396FFA3BD07","70CD2982654142C7A70CB396FFA3BD07","5a2b0970-177a-465d-ad80-16b4ab5c1018","a9f3d40c-5730-405c-b25e-1034c4c56f3f","{""num_scrambled_semantic"":""8"",""num_scrambled_causal"":""4"",""num_scrambled_schematic"":""4"",""participantId"":""70CD2982654142C7A70CB396FFA3BD07"",""assignmentId"":""5a2b0970-177a-465d-ad80-16b4ab5c1018"",""projectId"":""a9f3d40c-5730-405c-b25e-1034c4c56f3f""}","https://test12345.live/?num_scrambled_semantic=8&num_scrambled_causal=4&num_scrambled_schematic=4&participantId=70CD2982654142C7A70CB396FFA3BD07&assignmentId=5a2b0970-177a-465d-ad80-16b4ab5c1018&projectId=a9f3d40c-5730-405c-b25e-1034c4c56f3f","70CD2982654142C7A70CB396FFA3BD07-2025-08-07-19-04-51","","1109","","images/causal_sequence/museum_causal/museum_causal_3.png","0","",""
"","","","","","image-button-response","33","179833","0.0-10.0-1.0-2.2","70CD2982654142C7A70CB396FFA3BD07","70CD2982654142C7A70CB396FFA3BD07","5a2b0970-177a-465d-ad80-16b4ab5c1018","a9f3d40c-5730-405c-b25e-1034c4c56f3f","{""num_scrambled_semantic"":""8"",""num_scrambled_causal"":""4"",""num_scrambled_schematic"":""4"",""participantId"":""70CD2982654142C7A70CB396FFA3BD07"",""assignmentId"":""5a2b0970-177a-465d-ad80-16b4ab5c1018"",""projectId"":""a9f3d40c-5730-405c-b25e-1034c4c56f3f""}","https://test12345.live/?num_scrambled_semantic=8&num_scrambled_causal=4&num_scrambled_schematic=4&participantId=70CD2982654142C7A70CB396FFA3BD07&assignmentId=5a2b0970-177a-465d-ad80-16b4ab5c1018&projectId=a9f3d40c-5730-405c-b25e-1034c4c56f3f","70CD2982654142C7A70CB396FFA3BD07-2025-08-07-19-04-51","","null","","[]","null","",""
"","","","","","image-button-response","34","184343","0.0-10.0-1.0-0.3","70CD2982654142C7A70CB396FFA3BD07","70CD2982654142C7A70CB396FFA3BD07","5a2b0970-177a-465d-ad80-16b4ab5c1018","a9f3d40c-5730-405c-b25e-1034c4c56f3f","{""num_scrambled_semantic"":""8"",""num_scrambled_causal"":""4"",""num_scrambled_schematic"":""4"",""participantId"":""70CD2982654142C7A70CB396FFA3BD07"",""assignmentId"":""5a2b0970-177a-465d-ad80-16b4ab5c1018"",""projectId"":""a9f3d40c-5730-405c-b25e-1034c4c56f3f""}","https://test12345.live/?num_scrambled_semantic=8&num_scrambled_causal=4&num_scrambled_schematic=4&participantId=70CD2982654142C7A70CB396FFA3BD07&assignmentId=5a2b0970-177a-465d-ad80-16b4ab5c1018&projectId=a9f3d40c-5730-405c-b25e-1034c4c56f3f","70CD2982654142C7A70CB396FFA3BD07-2025-08-07-19-04-51","","null","","images/causal_sequence/museum_causal/museum_causal_4.png","null","",""
"","","","","","image-button-response","35","185983","0.0-10.0-1.0-1.3","70CD2982654142C7A70CB396FFA3BD07","70CD2982654142C7A70CB396FFA3BD07","5a2b0970-177a-465d-ad80-16b4ab5c1018","a9f3d40c-5730-405c-b25e-1034c4c56f3f","{""num_scrambled_semantic"":""8"",""num_scrambled_causal"":""4"",""num_scrambled_schematic"":""4"",""participantId"":""70CD2982654142C7A70CB396FFA3BD07"",""assignmentId"":""5a2b0970-177a-465d-ad80-16b4ab5c1018"",""projectId"":""a9f3d40c-5730-405c-b25e-1034c4c56f3f""}","https://test12345.live/?num_scrambled_semantic=8&num_scrambled_causal=4&num_scrambled_schematic=4&participantId=70CD2982654142C7A70CB396FFA3BD07&assignmentId=5a2b0970-177a-465d-ad80-16b4ab5c1018&projectId=a9f3d40c-5730-405c-b25e-1034c4c56f3f","70CD2982654142C7A70CB396FFA3BD07-2025-08-07-19-04-51","","1639","","images/causal_sequence/museum_causal/museum_causal_4.png","1","",""
"","","","","","image-button-response","36","187788","0.0-10.0-1.0-2.3","70CD2982654142C7A70CB396FFA3BD07","70CD2982654142C7A70CB396FFA3BD07","5a2b0970-177a-465d-ad80-16b4ab5c1018","a9f3d40c-5730-405c-b25e-1034c4c56f3f","{""num_scrambled_semantic"":""8"",""num_scrambled_causal"":""4"",""num_scrambled_schematic"":""4"",""participantId"":""70CD2982654142C7A70CB396FFA3BD07"",""assignmentId"":""5a2b0970-177a-465d-ad80-16b4ab5c1018"",""projectId"":""a9f3d40c-5730-405c-b25e-1034c4c56f3f""}","https://test12345.live/?num_scrambled_semantic=8&num_scrambled_causal=4&num_scrambled_schematic=4&participantId=70CD2982654142C7A70CB396FFA3BD07&assignmentId=5a2b0970-177a-465d-ad80-16b4ab5c1018&projectId=a9f3d40c-5730-405c-b25e-1034c4c56f3f","70CD2982654142C7A70CB396FFA3BD07-2025-08-07-19-04-51","","null","","[]","null","",""
"","","","","","image-button-response","37","192303","0.0-10.0-1.0-0.4","70CD2982654142C7A70CB396FFA3BD07","70CD2982654142C7A70CB396FFA3BD07","5a2b0970-177a-465d-ad80-16b4ab5c1018","a9f3d40c-5730-405c-b25e-1034c4c56f3f","{""num_scrambled_semantic"":""8"",""num_scrambled_causal"":""4"",""num_scrambled_schematic"":""4"",""participantId"":""70CD2982654142C7A70CB396FFA3BD07"",""assignmentId"":""5a2b0970-177a-465d-ad80-16b4ab5c1018"",""projectId"":""a9f3d40c-5730-405c-b25e-1034c4c56f3f""}","https://test12345.live/?num_scrambled_semantic=8&num_scrambled_causal=4&num_scrambled_schematic=4&participantId=70CD2982654142C7A70CB396FFA3BD07&assignmentId=5a2b0970-177a-465d-ad80-16b4ab5c1018&projectId=a9f3d40c-5730-405c-b25e-1034c4c56f3f","70CD2982654142C7A70CB396FFA3BD07-2025-08-07-19-04-51","","null","","images/causal_sequence/museum_causal/museum_causal_5.png","null","",""
"","","","","","image-button-response","38","194323","0.0-10.0-1.0-1.4","70CD2982654142C7A70CB396FFA3BD07","70CD2982654142C7A70CB396FFA3BD07","5a2b0970-177a-465d-ad80-16b4ab5c1018","a9f3d40c-5730-405c-b25e-1034c4c56f3f","{""num_scrambled_semantic"":""8"",""num_scrambled_causal"":""4"",""num_scrambled_schematic"":""4"",""participantId"":""70CD2982654142C7A70CB396FFA3BD07"",""assignmentId"":""5a2b0970-177a-465d-ad80-16b4ab5c1018"",""projectId"":""a9f3d40c-5730-405c-b25e-1034c4c56f3f""}","https://test12345.live/?num_scrambled_semantic=8&num_scrambled_causal=4&num_scrambled_schematic=4&participantId=70CD2982654142C7A70CB396FFA3BD07&assignmentId=5a2b0970-177a-465d-ad80-16b4ab5c1018&projectId=a9f3d40c-5730-405c-b25e-1034c4c56f3f","70CD2982654142C7A70CB396FFA3BD07-2025-08-07-19-04-51","","2019","","images/causal_sequence/museum_causal/museum_causal_5.png","0","",""
"","","","","","image-button-response","39","196125","0.0-10.0-1.0-2.4","70CD2982654142C7A70CB396FFA3BD07","70CD2982654142C7A70CB396FFA3BD07","5a2b0970-177a-465d-ad80-16b4ab5c1018","a9f3d40c-5730-405c-b25e-1034c4c56f3f","{""num_scrambled_semantic"":""8"",""num_scrambled_causal"":""4"",""num_scrambled_schematic"":""4"",""participantId"":""70CD2982654142C7A70CB396FFA3BD07"",""assignmentId"":""5a2b0970-177a-465d-ad80-16b4ab5c1018"",""projectId"":""a9f3d40c-5730-405c-b25e-1034c4c56f3f""}","https://test12345.live/?num_scrambled_semantic=8&num_scrambled_causal=4&num_scrambled_schematic=4&participantId=70CD2982654142C7A70CB396FFA3BD07&assignmentId=5a2b0970-177a-465d-ad80-16b4ab5c1018&projectId=a9f3d40c-5730-405c-b25e-1034c4c56f3f","70CD2982654142C7A70CB396FFA3BD07-2025-08-07-19-04-51","","null","","[]","null","",""
"","","","","","image-button-response","40","200640","0.0-10.0-1.0-0.5","70CD2982654142C7A70CB396FFA3BD07","70CD2982654142C7A70CB396FFA3BD07","5a2b0970-177a-465d-ad80-16b4ab5c1018","a9f3d40c-5730-405c-b25e-1034c4c56f3f","{""num_scrambled_semantic"":""8"",""num_scrambled_causal"":""4"",""num_scrambled_schematic"":""4"",""participantId"":""70CD2982654142C7A70CB396FFA3BD07"",""assignmentId"":""5a2b0970-177a-465d-ad80-16b4ab5c1018"",""projectId"":""a9f3d40c-5730-405c-b25e-1034c4c56f3f""}","https://test12345.live/?num_scrambled_semantic=8&num_scrambled_causal=4&num_scrambled_schematic=4&participantId=70CD2982654142C7A70CB396FFA3BD07&assignmentId=5a2b0970-177a-465d-ad80-16b4ab5c1018&projectId=a9f3d40c-5730-405c-b25e-1034c4c56f3f","70CD2982654142C7A70CB396FFA3BD07-2025-08-07-19-04-51","","null","","images/causal_sequence/museum_causal/museum_causal_6.png","null","",""
"","","","","","image-button-response","41","202223","0.0-10.0-1.0-1.5","70CD2982654142C7A70CB396FFA3BD07","70CD2982654142C7A70CB396FFA3BD07","5a2b0970-177a-465d-ad80-16b4ab5c1018","a9f3d40c-5730-405c-b25e-1034c4c56f3f","{""num_scrambled_semantic"":""8"",""num_scrambled_causal"":""4"",""num_scrambled_schematic"":""4"",""participantId"":""70CD2982654142C7A70CB396FFA3BD07"",""assignmentId"":""5a2b0970-177a-465d-ad80-16b4ab5c1018"",""projectId"":""a9f3d40c-5730-405c-b25e-1034c4c56f3f""}","https://test12345.live/?num_scrambled_semantic=8&num_scrambled_causal=4&num_scrambled_schematic=4&participantId=70CD2982654142C7A70CB396FFA3BD07&assignmentId=5a2b0970-177a-465d-ad80-16b4ab5c1018&projectId=a9f3d40c-5730-405c-b25e-1034c4c56f3f","70CD2982654142C7A70CB396FFA3BD07-2025-08-07-19-04-51","","1582","","images/causal_sequence/museum_causal/museum_causal_6.png","0","",""
"","","","","","image-button-response","42","204025","0.0-10.0-1.0-2.5","70CD2982654142C7A70CB396FFA3BD07","70CD2982654142C7A70CB396FFA3BD07","5a2b0970-177a-465d-ad80-16b4ab5c1018","a9f3d40c-5730-405c-b25e-1034c4c56f3f","{""num_scrambled_semantic"":""8"",""num_scrambled_causal"":""4"",""num_scrambled_schematic"":""4"",""participantId"":""70CD2982654142C7A70CB396FFA3BD07"",""assignmentId"":""5a2b0970-177a-465d-ad80-16b4ab5c1018"",""projectId"":""a9f3d40c-5730-405c-b25e-1034c4c56f3f""}","https://test12345.live/?num_scrambled_semantic=8&num_scrambled_causal=4&num_scrambled_schematic=4&participantId=70CD2982654142C7A70CB396FFA3BD07&assignmentId=5a2b0970-177a-465d-ad80-16b4ab5c1018&projectId=a9f3d40c-5730-405c-b25e-1034c4c56f3f","70CD2982654142C7A70CB396FFA3BD07-2025-08-07-19-04-51","","null","","[]","null","",""
"","","","","","image-button-response","43","208527","0.0-10.0-1.0-0.6","70CD2982654142C7A70CB396FFA3BD07","70CD2982654142C7A70CB396FFA3BD07","5a2b0970-177a-465d-ad80-16b4ab5c1018","a9f3d40c-5730-405c-b25e-1034c4c56f3f","{""num_scrambled_semantic"":""8"",""num_scrambled_causal"":""4"",""num_scrambled_schematic"":""4"",""participantId"":""70CD2982654142C7A70CB396FFA3BD07"",""assignmentId"":""5a2b0970-177a-465d-ad80-16b4ab5c1018"",""projectId"":""a9f3d40c-5730-405c-b25e-1034c4c56f3f""}","https://test12345.live/?num_scrambled_semantic=8&num_scrambled_causal=4&num_scrambled_schematic=4&participantId=70CD2982654142C7A70CB396FFA3BD07&assignmentId=5a2b0970-177a-465d-ad80-16b4ab5c1018&projectId=a9f3d40c-5730-405c-b25e-1034c4c56f3f","70CD2982654142C7A70CB396FFA3BD07-2025-08-07-19-04-51","","null","","images/causal_sequence/museum_causal/museum_causal_7.png","null","",""
"","","","","","image-button-response","44","209271","0.0-10.0-1.0-1.6","70CD2982654142C7A70CB396FFA3BD07","70CD2982654142C7A70CB396FFA3BD07","5a2b0970-177a-465d-ad80-16b4ab5c1018","a9f3d40c-5730-405c-b25e-1034c4c56f3f","{""num_scrambled_semantic"":""8"",""num_scrambled_causal"":""4"",""num_scrambled_schematic"":""4"",""participantId"":""70CD2982654142C7A70CB396FFA3BD07"",""assignmentId"":""5a2b0970-177a-465d-ad80-16b4ab5c1018"",""projectId"":""a9f3d40c-5730-405c-b25e-1034c4c56f3f""}","https://test12345.live/?num_scrambled_semantic=8&num_scrambled_causal=4&num_scrambled_schematic=4&participantId=70CD2982654142C7A70CB396FFA3BD07&assignmentId=5a2b0970-177a-465d-ad80-16b4ab5c1018&projectId=a9f3d40c-5730-405c-b25e-1034c4c56f3f","70CD2982654142C7A70CB396FFA3BD07-2025-08-07-19-04-51","","742","","images/causal_sequence/museum_causal/museum_causal_7.png","1","",""
"","","","","","image-button-response","45","211075","0.0-10.0-1.0-2.6","70CD2982654142C7A70CB396FFA3BD07","70CD2982654142C7A70CB396FFA3BD07","5a2b0970-177a-465d-ad80-16b4ab5c1018","a9f3d40c-5730-405c-b25e-1034c4c56f3f","{""num_scrambled_semantic"":""8"",""num_scrambled_causal"":""4"",""num_scrambled_schematic"":""4"",""participantId"":""70CD2982654142C7A70CB396FFA3BD07"",""assignmentId"":""5a2b0970-177a-465d-ad80-16b4ab5c1018"",""projectId"":""a9f3d40c-5730-405c-b25e-1034c4c56f3f""}","https://test12345.live/?num_scrambled_semantic=8&num_scrambled_causal=4&num_scrambled_schematic=4&participantId=70CD2982654142C7A70CB396FFA3BD07&assignmentId=5a2b0970-177a-465d-ad80-16b4ab5c1018&projectId=a9f3d40c-5730-405c-b25e-1034c4c56f3f","70CD2982654142C7A70CB396FFA3BD07-2025-08-07-19-04-51","","null","","[]","null","",""
"","","","","","image-button-response","46","215581","0.0-10.0-1.0-0.7","70CD2982654142C7A70CB396FFA3BD07","70CD2982654142C7A70CB396FFA3BD07","5a2b0970-177a-465d-ad80-16b4ab5c1018","a9f3d40c-5730-405c-b25e-1034c4c56f3f","{""num_scrambled_semantic"":""8"",""num_scrambled_causal"":""4"",""num_scrambled_schematic"":""4"",""participantId"":""70CD2982654142C7A70CB396FFA3BD07"",""assignmentId"":""5a2b0970-177a-465d-ad80-16b4ab5c1018"",""projectId"":""a9f3d40c-5730-405c-b25e-1034c4c56f3f""}","https://test12345.live/?num_scrambled_semantic=8&num_scrambled_causal=4&num_scrambled_schematic=4&participantId=70CD2982654142C7A70CB396FFA3BD07&assignmentId=5a2b0970-177a-465d-ad80-16b4ab5c1018&projectId=a9f3d40c-5730-405c-b25e-1034c4c56f3f","70CD2982654142C7A70CB396FFA3BD07-2025-08-07-19-04-51","","null","","images/causal_sequence/museum_causal/museum_causal_8.png","null","",""
"","","","","","image-button-response","47","217227","0.0-10.0-1.0-1.7","70CD2982654142C7A70CB396FFA3BD07","70CD2982654142C7A70CB396FFA3BD07","5a2b0970-177a-465d-ad80-16b4ab5c1018","a9f3d40c-5730-405c-b25e-1034c4c56f3f","{""num_scrambled_semantic"":""8"",""num_scrambled_causal"":""4"",""num_scrambled_schematic"":""4"",""participantId"":""70CD2982654142C7A70CB396FFA3BD07"",""assignmentId"":""5a2b0970-177a-465d-ad80-16b4ab5c1018"",""projectId"":""a9f3d40c-5730-405c-b25e-1034c4c56f3f""}","https://test12345.live/?num_scrambled_semantic=8&num_scrambled_causal=4&num_scrambled_schematic=4&participantId=70CD2982654142C7A70CB396FFA3BD07&assignmentId=5a2b0970-177a-465d-ad80-16b4ab5c1018&projectId=a9f3d40c-5730-405c-b25e-1034c4c56f3f","70CD2982654142C7A70CB396FFA3BD07-2025-08-07-19-04-51","","1645","","images/causal_sequence/museum_causal/museum_causal_8.png","0","",""
"","","","","","image-button-response","48","219040","0.0-10.0-1.0-2.7","70CD2982654142C7A70CB396FFA3BD07","70CD2982654142C7A70CB396FFA3BD07","5a2b0970-177a-465d-ad80-16b4ab5c1018","a9f3d40c-5730-405c-b25e-1034c4c56f3f","{""num_scrambled_semantic"":""8"",""num_scrambled_causal"":""4"",""num_scrambled_schematic"":""4"",""participantId"":""70CD2982654142C7A70CB396FFA3BD07"",""assignmentId"":""5a2b0970-177a-465d-ad80-16b4ab5c1018"",""projectId"":""a9f3d40c-5730-405c-b25e-1034c4c56f3f""}","https://test12345.live/?num_scrambled_semantic=8&num_scrambled_causal=4&num_scrambled_schematic=4&participantId=70CD2982654142C7A70CB396FFA3BD07&assignmentId=5a2b0970-177a-465d-ad80-16b4ab5c1018&projectId=a9f3d40c-5730-405c-b25e-1034c4c56f3f","70CD2982654142C7A70CB396FFA3BD07-2025-08-07-19-04-51","","null","","[]","null","",""
"","","","","","image-button-response","49","223550","0.0-10.0-1.0-0.8","70CD2982654142C7A70CB396FFA3BD07","70CD2982654142C7A70CB396FFA3BD07","5a2b0970-177a-465d-ad80-16b4ab5c1018","a9f3d40c-5730-405c-b25e-1034c4c56f3f","{""num_scrambled_semantic"":""8"",""num_scrambled_causal"":""4"",""num_scrambled_schematic"":""4"",""participantId"":""70CD2982654142C7A70CB396FFA3BD07"",""assignmentId"":""5a2b0970-177a-465d-ad80-16b4ab5c1018"",""projectId"":""a9f3d40c-5730-405c-b25e-1034c4c56f3f""}","https://test12345.live/?num_scrambled_semantic=8&num_scrambled_causal=4&num_scrambled_schematic=4&participantId=70CD2982654142C7A70CB396FFA3BD07&assignmentId=5a2b0970-177a-465d-ad80-16b4ab5c1018&projectId=a9f3d40c-5730-405c-b25e-1034c4c56f3f","70CD2982654142C7A70CB396FFA3BD07-2025-08-07-19-04-51","","null","","images/causal_sequence/museum_causal/museum_causal_9.png","null","",""
"","","","","","image-button-response","50","224275","0.0-10.0-1.0-1.8","70CD2982654142C7A70CB396FFA3BD07","70CD2982654142C7A70CB396FFA3BD07","5a2b0970-177a-465d-ad80-16b4ab5c1018","a9f3d40c-5730-405c-b25e-1034c4c56f3f","{""num_scrambled_semantic"":""8"",""num_scrambled_causal"":""4"",""num_scrambled_schematic"":""4"",""participantId"":""70CD2982654142C7A70CB396FFA3BD07"",""assignmentId"":""5a2b0970-177a-465d-ad80-16b4ab5c1018"",""projectId"":""a9f3d40c-5730-405c-b25e-1034c4c56f3f""}","https://test12345.live/?num_scrambled_semantic=8&num_scrambled_causal=4&num_scrambled_schematic=4&participantId=70CD2982654142C7A70CB396FFA3BD07&assignmentId=5a2b0970-177a-465d-ad80-16b4ab5c1018&projectId=a9f3d40c-5730-405c-b25e-1034c4c56f3f","70CD2982654142C7A70CB396FFA3BD07-2025-08-07-19-04-51","","724","","images/causal_sequence/museum_causal/museum_causal_9.png","1","",""
"","","","","","image-button-response","51","226087","0.0-10.0-1.0-2.8","70CD2982654142C7A70CB396FFA3BD07","70CD2982654142C7A70CB396FFA3BD07","5a2b0970-177a-465d-ad80-16b4ab5c1018","a9f3d40c-5730-405c-b25e-1034c4c56f3f","{""num_scrambled_semantic"":""8"",""num_scrambled_causal"":""4"",""num_scrambled_schematic"":""4"",""participantId"":""70CD2982654142C7A70CB396FFA3BD07"",""assignmentId"":""5a2b0970-177a-465d-ad80-16b4ab5c1018"",""projectId"":""a9f3d40c-5730-405c-b25e-1034c4c56f3f""}","https://test12345.live/?num_scrambled_semantic=8&num_scrambled_causal=4&num_scrambled_schematic=4&participantId=70CD2982654142C7A70CB396FFA3BD07&assignmentId=5a2b0970-177a-465d-ad80-16b4ab5c1018&projectId=a9f3d40c-5730-405c-b25e-1034c4c56f3f","70CD2982654142C7A70CB396FFA3BD07-2025-08-07-19-04-51","","null","","[]","null","",""
"","","","","","image-button-response","52","230589","0.0-10.0-1.0-0.9","70CD2982654142C7A70CB396FFA3BD07","70CD2982654142C7A70CB396FFA3BD07","5a2b0970-177a-465d-ad80-16b4ab5c1018","a9f3d40c-5730-405c-b25e-1034c4c56f3f","{""num_scrambled_semantic"":""8"",""num_scrambled_causal"":""4"",""num_scrambled_schematic"":""4"",""participantId"":""70CD2982654142C7A70CB396FFA3BD07"",""assignmentId"":""5a2b0970-177a-465d-ad80-16b4ab5c1018"",""projectId"":""a9f3d40c-5730-405c-b25e-1034c4c56f3f""}","https://test12345.live/?num_scrambled_semantic=8&num_scrambled_causal=4&num_scrambled_schematic=4&participantId=70CD2982654142C7A70CB396FFA3BD07&assignmentId=5a2b0970-177a-465d-ad80-16b4ab5c1018&projectId=a9f3d40c-5730-405c-b25e-1034c4c56f3f","70CD2982654142C7A70CB396FFA3BD07-2025-08-07-19-04-51","","null","","images/causal_sequence/museum_causal/museum_causal_ten.png","null","",""
"","","","","","image-button-response","53","231679","0.0-10.0-1.0-1.9","70CD2982654142C7A70CB396FFA3BD07","70CD2982654142C7A70CB396FFA3BD07","5a2b0970-177a-465d-ad80-16b4ab5c1018","a9f3d40c-5730-405c-b25e-1034c4c56f3f","{""num_scrambled_semantic"":""8"",""num_scrambled_causal"":""4"",""num_scrambled_schematic"":""4"",""participantId"":""70CD2982654142C7A70CB396FFA3BD07"",""assignmentId"":""5a2b0970-177a-465d-ad80-16b4ab5c1018"",""projectId"":""a9f3d40c-5730-405c-b25e-1034c4c56f3f""}","https://test12345.live/?num_scrambled_semantic=8&num_scrambled_causal=4&num_scrambled_schematic=4&participantId=70CD2982654142C7A70CB396FFA3BD07&assignmentId=5a2b0970-177a-465d-ad80-16b4ab5c1018&projectId=a9f3d40c-5730-405c-b25e-1034c4c56f3f","70CD2982654142C7A70CB396FFA3BD07-2025-08-07-19-04-51","","1088","","images/causal_sequence/museum_causal/museum_causal_ten.png","0","",""
"","","","","","image-button-response","54","233488","0.0-10.0-1.0-2.9","70CD2982654142C7A70CB396FFA3BD07","70CD2982654142C7A70CB396FFA3BD07","5a2b0970-177a-465d-ad80-16b4ab5c1018","a9f3d40c-5730-405c-b25e-1034c4c56f3f","{""num_scrambled_semantic"":""8"",""num_scrambled_causal"":""4"",""num_scrambled_schematic"":""4"",""participantId"":""70CD2982654142C7A70CB396FFA3BD07"",""assignmentId"":""5a2b0970-177a-465d-ad80-16b4ab5c1018"",""projectId"":""a9f3d40c-5730-405c-b25e-1034c4c56f3f""}","https://test12345.live/?num_scrambled_semantic=8&num_scrambled_causal=4&num_scrambled_schematic=4&participantId=70CD2982654142C7A70CB396FFA3BD07&assignmentId=5a2b0970-177a-465d-ad80-16b4ab5c1018&projectId=a9f3d40c-5730-405c-b25e-1034c4c56f3f","70CD2982654142C7A70CB396FFA3BD07-2025-08-07-19-04-51","","null","","[]","null","",""
"","","","","","html-audio-response","55","284175","0.0-11.0","70CD2982654142C7A70CB396FFA3BD07","70CD2982654142C7A70CB396FFA3BD07","5a2b0970-177a-465d-ad80-16b4ab5c1018","a9f3d40c-5730-405c-b25e-1034c4c56f3f","{""num_scrambled_semantic"":""8"",""num_scrambled_causal"":""4"",""num_scrambled_schematic"":""4"",""participantId"":""70CD2982654142C7A70CB396FFA3BD07"",""assignmentId"":""5a2b0970-177a-465d-ad80-16b4ab5c1018"",""projectId"":""a9f3d40c-5730-405c-b25e-1034c4c56f3f""}","https://test12345.live/?num_scrambled_semantic=8&num_scrambled_causal=4&num_scrambled_schematic=4&participantId=70CD2982654142C7A70CB396FFA3BD07&assignmentId=5a2b0970-177a-465d-ad80-16b4ab5c1018&projectId=a9f3d40c-5730-405c-b25e-1034c4c56f3f","70CD2982654142C7A70CB396FFA3BD07-2025-08-07-19-04-51","","30804","","[""<span style=\""color: red; font-size: 24px\""> NOW RECORDING</span><p>Please say out loud all the images you saw, as many as you can remember. The images can be said in any order.</p>""]","","2","museum_causal"
"","","","","","image-button-response","56","290198","0.0-12.0-0.0","70CD2982654142C7A70CB396FFA3BD07","70CD2982654142C7A70CB396FFA3BD07","5a2b0970-177a-465d-ad80-16b4ab5c1018","a9f3d40c-5730-405c-b25e-1034c4c56f3f","{""num_scrambled_semantic"":""8"",""num_scrambled_causal"":""4"",""num_scrambled_schematic"":""4"",""participantId"":""70CD2982654142C7A70CB396FFA3BD07"",""assignmentId"":""5a2b0970-177a-465d-ad80-16b4ab5c1018"",""projectId"":""a9f3d40c-5730-405c-b25e-1034c4c56f3f""}","https://test12345.live/?num_scrambled_semantic=8&num_scrambled_causal=4&num_scrambled_schematic=4&participantId=70CD2982654142C7A70CB396FFA3BD07&assignmentId=5a2b0970-177a-465d-ad80-16b4ab5c1018&projectId=a9f3d40c-5730-405c-b25e-1034c4c56f3f","70CD2982654142C7A70CB396FFA3BD07-2025-08-07-19-04-51","","null","","images/causal_sequence/package_causal/package_causal_0.png","null","",""
"","","","","","image-button-response","57","294711","0.0-12.0-1.0-0.0","70CD2982654142C7A70CB396FFA3BD07","70CD2982654142C7A70CB396FFA3BD07","5a2b0970-177a-465d-ad80-16b4ab5c1018","a9f3d40c-5730-405c-b25e-1034c4c56f3f","{""num_scrambled_semantic"":""8"",""num_scrambled_causal"":""4"",""num_scrambled_schematic"":""4"",""participantId"":""70CD2982654142C7A70CB396FFA3BD07"",""assignmentId"":""5a2b0970-177a-465d-ad80-16b4ab5c1018"",""projectId"":""a9f3d40c-5730-405c-b25e-1034c4c56f3f""}","https://test12345.live/?num_scrambled_semantic=8&num_scrambled_causal=4&num_scrambled_schematic=4&participantId=70CD2982654142C7A70CB396FFA3BD07&assignmentId=5a2b0970-177a-465d-ad80-16b4ab5c1018&projectId=a9f3d40c-5730-405c-b25e-1034c4c56f3f","70CD2982654142C7A70CB396FFA3BD07-2025-08-07-19-04-51","","null","","images/causal_sequence/package_causal/package_causal_5.png","null","",""
"","","","","","image-button-response","58","298716","0.0-12.0-1.0-1.0","70CD2982654142C7A70CB396FFA3BD07","70CD2982654142C7A70CB396FFA3BD07","5a2b0970-177a-465d-ad80-16b4ab5c1018","a9f3d40c-5730-405c-b25e-1034c4c56f3f","{""num_scrambled_semantic"":""8"",""num_scrambled_causal"":""4"",""num_scrambled_schematic"":""4"",""participantId"":""70CD2982654142C7A70CB396FFA3BD07"",""assignmentId"":""5a2b0970-177a-465d-ad80-16b4ab5c1018"",""projectId"":""a9f3d40c-5730-405c-b25e-1034c4c56f3f""}","https://test12345.live/?num_scrambled_semantic=8&num_scrambled_causal=4&num_scrambled_schematic=4&participantId=70CD2982654142C7A70CB396FFA3BD07&assignmentId=5a2b0970-177a-465d-ad80-16b4ab5c1018&projectId=a9f3d40c-5730-405c-b25e-1034c4c56f3f","70CD2982654142C7A70CB396FFA3BD07-2025-08-07-19-04-51","","null","","images/causal_sequence/package_causal/package_causal_5.png","null","",""
"","","","","","image-button-response","59","300529","0.0-12.0-1.0-2.0","70CD2982654142C7A70CB396FFA3BD07","70CD2982654142C7A70CB396FFA3BD07","5a2b0970-177a-465d-ad80-16b4ab5c1018","a9f3d40c-5730-405c-b25e-1034c4c56f3f","{""num_scrambled_semantic"":""8"",""num_scrambled_causal"":""4"",""num_scrambled_schematic"":""4"",""participantId"":""70CD2982654142C7A70CB396FFA3BD07"",""assignmentId"":""5a2b0970-177a-465d-ad80-16b4ab5c1018"",""projectId"":""a9f3d40c-5730-405c-b25e-1034c4c56f3f""}","https://test12345.live/?num_scrambled_semantic=8&num_scrambled_causal=4&num_scrambled_schematic=4&participantId=70CD2982654142C7A70CB396FFA3BD07&assignmentId=5a2b0970-177a-465d-ad80-16b4ab5c1018&projectId=a9f3d40c-5730-405c-b25e-1034c4c56f3f","70CD2982654142C7A70CB396FFA3BD07-2025-08-07-19-04-51","","null","","[]","null","",""
"","","","","","image-button-response","60","305032","0.0-12.0-1.0-0.1","70CD2982654142C7A70CB396FFA3BD07","70CD2982654142C7A70CB396FFA3BD07","5a2b0970-177a-465d-ad80-16b4ab5c1018","a9f3d40c-5730-405c-b25e-1034c4c56f3f","{""num_scrambled_semantic"":""8"",""num_scrambled_causal"":""4"",""num_scrambled_schematic"":""4"",""participantId"":""70CD2982654142C7A70CB396FFA3BD07"",""assignmentId"":""5a2b0970-177a-465d-ad80-16b4ab5c1018"",""projectId"":""a9f3d40c-5730-405c-b25e-1034c4c56f3f""}","https://test12345.live/?num_scrambled_semantic=8&num_scrambled_causal=4&num_scrambled_schematic=4&participantId=70CD2982654142C7A70CB396FFA3BD07&assignmentId=5a2b0970-177a-465d-ad80-16b4ab5c1018&projectId=a9f3d40c-5730-405c-b25e-1034c4c56f3f","70CD2982654142C7A70CB396FFA3BD07-2025-08-07-19-04-51","","null","","images/causal_sequence/package_causal/package_causal_8.png","null","",""
"","","","","","image-button-response","61","306171","0.0-12.0-1.0-1.1","70CD2982654142C7A70CB396FFA3BD07","70CD2982654142C7A70CB396FFA3BD07","5a2b0970-177a-465d-ad80-16b4ab5c1018","a9f3d40c-5730-405c-b25e-1034c4c56f3f","{""num_scrambled_semantic"":""8"",""num_scrambled_causal"":""4"",""num_scrambled_schematic"":""4"",""participantId"":""70CD2982654142C7A70CB396FFA3BD07"",""assignmentId"":""5a2b0970-177a-465d-ad80-16b4ab5c1018"",""projectId"":""a9f3d40c-5730-405c-b25e-1034c4c56f3f""}","https://test12345.live/?num_scrambled_semantic=8&num_scrambled_causal=4&num_scrambled_schematic=4&participantId=70CD2982654142C7A70CB396FFA3BD07&assignmentId=5a2b0970-177a-465d-ad80-16b4ab5c1018&projectId=a9f3d40c-5730-405c-b25e-1034c4c56f3f","70CD2982654142C7A70CB396FFA3BD07-2025-08-07-19-04-51","","1137","","images/causal_sequence/package_causal/package_causal_8.png","0","",""
"","","","","","image-button-response","62","307979","0.0-12.0-1.0-2.1","70CD2982654142C7A70CB396FFA3BD07","70CD2982654142C7A70CB396FFA3BD07","5a2b0970-177a-465d-ad80-16b4ab5c1018","a9f3d40c-5730-405c-b25e-1034c4c56f3f","{""num_scrambled_semantic"":""8"",""num_scrambled_causal"":""4"",""num_scrambled_schematic"":""4"",""participantId"":""70CD2982654142C7A70CB396FFA3BD07"",""assignmentId"":""5a2b0970-177a-465d-ad80-16b4ab5c1018"",""projectId"":""a9f3d40c-5730-405c-b25e-1034c4c56f3f""}","https://test12345.live/?num_scrambled_semantic=8&num_scrambled_causal=4&num_scrambled_schematic=4&participantId=70CD2982654142C7A70CB396FFA3BD07&assignmentId=5a2b0970-177a-465d-ad80-16b4ab5c1018&projectId=a9f3d40c-5730-405c-b25e-1034c4c56f3f","70CD2982654142C7A70CB396FFA3BD07-2025-08-07-19-04-51","","null","","[]","null","",""
"","","","","","image-button-response","63","312481","0.0-12.0-1.0-0.2","70CD2982654142C7A70CB396FFA3BD07","70CD2982654142C7A70CB396FFA3BD07","5a2b0970-177a-465d-ad80-16b4ab5c1018","a9f3d40c-5730-405c-b25e-1034c4c56f3f","{""num_scrambled_semantic"":""8"",""num_scrambled_causal"":""4"",""num_scrambled_schematic"":""4"",""participantId"":""70CD2982654142C7A70CB396FFA3BD07"",""assignmentId"":""5a2b0970-177a-465d-ad80-16b4ab5c1018"",""projectId"":""a9f3d40c-5730-405c-b25e-1034c4c56f3f""}","https://test12345.live/?num_scrambled_semantic=8&num_scrambled_causal=4&num_scrambled_schematic=4&participantId=70CD2982654142C7A70CB396FFA3BD07&assignmentId=5a2b0970-177a-465d-ad80-16b4ab5c1018&projectId=a9f3d40c-5730-405c-b25e-1034c4c56f3f","70CD2982654142C7A70CB396FFA3BD07-2025-08-07-19-04-51","","null","","images/causal_sequence/package_causal/package_causal_3.png","null","",""
"","","","","","image-button-response","64","313243","0.0-12.0-1.0-1.2","70CD2982654142C7A70CB396FFA3BD07","70CD2982654142C7A70CB396FFA3BD07","5a2b0970-177a-465d-ad80-16b4ab5c1018","a9f3d40c-5730-405c-b25e-1034c4c56f3f","{""num_scrambled_semantic"":""8"",""num_scrambled_causal"":""4"",""num_scrambled_schematic"":""4"",""participantId"":""70CD2982654142C7A70CB396FFA3BD07"",""assignmentId"":""5a2b0970-177a-465d-ad80-16b4ab5c1018"",""projectId"":""a9f3d40c-5730-405c-b25e-1034c4c56f3f""}","https://test12345.live/?num_scrambled_semantic=8&num_scrambled_causal=4&num_scrambled_schematic=4&participantId=70CD2982654142C7A70CB396FFA3BD07&assignmentId=5a2b0970-177a-465d-ad80-16b4ab5c1018&projectId=a9f3d40c-5730-405c-b25e-1034c4c56f3f","70CD2982654142C7A70CB396FFA3BD07-2025-08-07-19-04-51","","761","","images/causal_sequence/package_causal/package_causal_3.png","0","",""
"","","","","","image-button-response","65","315050","0.0-12.0-1.0-2.2","70CD2982654142C7A70CB396FFA3BD07","70CD2982654142C7A70CB396FFA3BD07","5a2b0970-177a-465d-ad80-16b4ab5c1018","a9f3d40c-5730-405c-b25e-1034c4c56f3f","{""num_scrambled_semantic"":""8"",""num_scrambled_causal"":""4"",""num_scrambled_schematic"":""4"",""participantId"":""70CD2982654142C7A70CB396FFA3BD07"",""assignmentId"":""5a2b0970-177a-465d-ad80-16b4ab5c1018"",""projectId"":""a9f3d40c-5730-405c-b25e-1034c4c56f3f""}","https://test12345.live/?num_scrambled_semantic=8&num_scrambled_causal=4&num_scrambled_schematic=4&participantId=70CD2982654142C7A70CB396FFA3BD07&assignmentId=5a2b0970-177a-465d-ad80-16b4ab5c1018&projectId=a9f3d40c-5730-405c-b25e-1034c4c56f3f","70CD2982654142C7A70CB396FFA3BD07-2025-08-07-19-04-51","","null","","[]","null","",""
"","","","","","image-button-response","66","319564","0.0-12.0-1.0-0.3","70CD2982654142C7A70CB396FFA3BD07","70CD2982654142C7A70CB396FFA3BD07","5a2b0970-177a-465d-ad80-16b4ab5c1018","a9f3d40c-5730-405c-b25e-1034c4c56f3f","{""num_scrambled_semantic"":""8"",""num_scrambled_causal"":""4"",""num_scrambled_schematic"":""4"",""participantId"":""70CD2982654142C7A70CB396FFA3BD07"",""assignmentId"":""5a2b0970-177a-465d-ad80-16b4ab5c1018"",""projectId"":""a9f3d40c-5730-405c-b25e-1034c4c56f3f""}","https://test12345.live/?num_scrambled_semantic=8&num_scrambled_causal=4&num_scrambled_schematic=4&participantId=70CD2982654142C7A70CB396FFA3BD07&assignmentId=5a2b0970-177a-465d-ad80-16b4ab5c1018&projectId=a9f3d40c-5730-405c-b25e-1034c4c56f3f","70CD2982654142C7A70CB396FFA3BD07-2025-08-07-19-04-51","","null","","images/causal_sequence/package_causal/package_causal_6.png","null","",""
"","","","","","image-button-response","67","320607","0.0-12.0-1.0-1.3","70CD2982654142C7A70CB396FFA3BD07","70CD2982654142C7A70CB396FFA3BD07","5a2b0970-177a-465d-ad80-16b4ab5c1018","a9f3d40c-5730-405c-b25e-1034c4c56f3f","{""num_scrambled_semantic"":""8"",""num_scrambled_causal"":""4"",""num_scrambled_schematic"":""4"",""participantId"":""70CD2982654142C7A70CB396FFA3BD07"",""assignmentId"":""5a2b0970-177a-465d-ad80-16b4ab5c1018"",""projectId"":""a9f3d40c-5730-405c-b25e-1034c4c56f3f""}","https://test12345.live/?num_scrambled_semantic=8&num_scrambled_causal=4&num_scrambled_schematic=4&participantId=70CD2982654142C7A70CB396FFA3BD07&assignmentId=5a2b0970-177a-465d-ad80-16b4ab5c1018&projectId=a9f3d40c-5730-405c-b25e-1034c4c56f3f","70CD2982654142C7A70CB396FFA3BD07-2025-08-07-19-04-51","","1040","","images/causal_sequence/package_causal/package_causal_6.png","0","",""
"","","","","","image-button-response","68","322418","0.0-12.0-1.0-2.3","70CD2982654142C7A70CB396FFA3BD07","70CD2982654142C7A70CB396FFA3BD07","5a2b0970-177a-465d-ad80-16b4ab5c1018","a9f3d40c-5730-405c-b25e-1034c4c56f3f","{""num_scrambled_semantic"":""8"",""num_scrambled_causal"":""4"",""num_scrambled_schematic"":""4"",""participantId"":""70CD2982654142C7A70CB396FFA3BD07"",""assignmentId"":""5a2b0970-177a-465d-ad80-16b4ab5c1018"",""projectId"":""a9f3d40c-5730-405c-b25e-1034c4c56f3f""}","https://test12345.live/?num_scrambled_semantic=8&num_scrambled_causal=4&num_scrambled_schematic=4&participantId=70CD2982654142C7A70CB396FFA3BD07&assignmentId=5a2b0970-177a-465d-ad80-16b4ab5c1018&projectId=a9f3d40c-5730-405c-b25e-1034c4c56f3f","70CD2982654142C7A70CB396FFA3BD07-2025-08-07-19-04-51","","null","","[]","null","",""
"","","","","","image-button-response","69","326928","0.0-12.0-1.0-0.4","70CD2982654142C7A70CB396FFA3BD07","70CD2982654142C7A70CB396FFA3BD07","5a2b0970-177a-465d-ad80-16b4ab5c1018","a9f3d40c-5730-405c-b25e-1034c4c56f3f","{""num_scrambled_semantic"":""8"",""num_scrambled_causal"":""4"",""num_scrambled_schematic"":""4"",""participantId"":""70CD2982654142C7A70CB396FFA3BD07"",""assignmentId"":""5a2b0970-177a-465d-ad80-16b4ab5c1018"",""projectId"":""a9f3d40c-5730-405c-b25e-1034c4c56f3f""}","https://test12345.live/?num_scrambled_semantic=8&num_scrambled_causal=4&num_scrambled_schematic=4&participantId=70CD2982654142C7A70CB396FFA3BD07&assignmentId=5a2b0970-177a-465d-ad80-16b4ab5c1018&projectId=a9f3d40c-5730-405c-b25e-1034c4c56f3f","70CD2982654142C7A70CB396FFA3BD07-2025-08-07-19-04-51","","null","","images/causal_sequence/package_causal/package_causal_4.png","null","",""
"","","","","","image-button-response","70","329047","0.0-12.0-1.0-1.4","70CD2982654142C7A70CB396FFA3BD07","70CD2982654142C7A70CB396FFA3BD07","5a2b0970-177a-465d-ad80-16b4ab5c1018","a9f3d40c-5730-405c-b25e-1034c4c56f3f","{""num_scrambled_semantic"":""8"",""num_scrambled_causal"":""4"",""num_scrambled_schematic"":""4"",""participantId"":""70CD2982654142C7A70CB396FFA3BD07"",""assignmentId"":""5a2b0970-177a-465d-ad80-16b4ab5c1018"",""projectId"":""a9f3d40c-5730-405c-b25e-1034c4c56f3f""}","https://test12345.live/?num_scrambled_semantic=8&num_scrambled_causal=4&num_scrambled_schematic=4&participantId=70CD2982654142C7A70CB396FFA3BD07&assignmentId=5a2b0970-177a-465d-ad80-16b4ab5c1018&projectId=a9f3d40c-5730-405c-b25e-1034c4c56f3f","70CD2982654142C7A70CB396FFA3BD07-2025-08-07-19-04-51","","2117","","images/causal_sequence/package_causal/package_causal_4.png","1","",""
"","","","","","image-button-response","71","330863","0.0-12.0-1.0-2.4","70CD2982654142C7A70CB396FFA3BD07","70CD2982654142C7A70CB396FFA3BD07","5a2b0970-177a-465d-ad80-16b4ab5c1018","a9f3d40c-5730-405c-b25e-1034c4c56f3f","{""num_scrambled_semantic"":""8"",""num_scrambled_causal"":""4"",""num_scrambled_schematic"":""4"",""participantId"":""70CD2982654142C7A70CB396FFA3BD07"",""assignmentId"":""5a2b0970-177a-465d-ad80-16b4ab5c1018"",""projectId"":""a9f3d40c-5730-405c-b25e-1034c4c56f3f""}","https://test12345.live/?num_scrambled_semantic=8&num_scrambled_causal=4&num_scrambled_schematic=4&participantId=70CD2982654142C7A70CB396FFA3BD07&assignmentId=5a2b0970-177a-465d-ad80-16b4ab5c1018&projectId=a9f3d40c-5730-405c-b25e-1034c4c56f3f","70CD2982654142C7A70CB396FFA3BD07-2025-08-07-19-04-51","","null","","[]","null","",""
"","","","","","image-button-response","72","335374","0.0-12.0-1.0-0.5","70CD2982654142C7A70CB396FFA3BD07","70CD2982654142C7A70CB396FFA3BD07","5a2b0970-177a-465d-ad80-16b4ab5c1018","a9f3d40c-5730-405c-b25e-1034c4c56f3f","{""num_scrambled_semantic"":""8"",""num_scrambled_causal"":""4"",""num_scrambled_schematic"":""4"",""participantId"":""70CD2982654142C7A70CB396FFA3BD07"",""assignmentId"":""5a2b0970-177a-465d-ad80-16b4ab5c1018"",""projectId"":""a9f3d40c-5730-405c-b25e-1034c4c56f3f""}","https://test12345.live/?num_scrambled_semantic=8&num_scrambled_causal=4&num_scrambled_schematic=4&participantId=70CD2982654142C7A70CB396FFA3BD07&assignmentId=5a2b0970-177a-465d-ad80-16b4ab5c1018&projectId=a9f3d40c-5730-405c-b25e-1034c4c56f3f","70CD2982654142C7A70CB396FFA3BD07-2025-08-07-19-04-51","","null","","images/causal_sequence/package_causal/package_causal_9.png","null","",""
"","","","","","image-button-response","73","336243","0.0-12.0-1.0-1.5","70CD2982654142C7A70CB396FFA3BD07","70CD2982654142C7A70CB396FFA3BD07","5a2b0970-177a-465d-ad80-16b4ab5c1018","a9f3d40c-5730-405c-b25e-1034c4c56f3f","{""num_scrambled_semantic"":""8"",""num_scrambled_causal"":""4"",""num_scrambled_schematic"":""4"",""participantId"":""70CD2982654142C7A70CB396FFA3BD07"",""assignmentId"":""5a2b0970-177a-465d-ad80-16b4ab5c1018"",""projectId"":""a9f3d40c-5730-405c-b25e-1034c4c56f3f""}","https://test12345.live/?num_scrambled_semantic=8&num_scrambled_causal=4&num_scrambled_schematic=4&participantId=70CD2982654142C7A70CB396FFA3BD07&assignmentId=5a2b0970-177a-465d-ad80-16b4ab5c1018&projectId=a9f3d40c-5730-405c-b25e-1034c4c56f3f","70CD2982654142C7A70CB396FFA3BD07-2025-08-07-19-04-51","","868","","images/causal_sequence/package_causal/package_causal_9.png","0","",""
"","","","","","image-button-response","74","338058","0.0-12.0-1.0-2.5","70CD2982654142C7A70CB396FFA3BD07","70CD2982654142C7A70CB396FFA3BD07","5a2b0970-177a-465d-ad80-16b4ab5c1018","a9f3d40c-5730-405c-b25e-1034c4c56f3f","{""num_scrambled_semantic"":""8"",""num_scrambled_causal"":""4"",""num_scrambled_schematic"":""4"",""participantId"":""70CD2982654142C7A70CB396FFA3BD07"",""assignmentId"":""5a2b0970-177a-465d-ad80-16b4ab5c1018"",""projectId"":""a9f3d40c-5730-405c-b25e-1034c4c56f3f""}","https://test12345.live/?num_scrambled_semantic=8&num_scrambled_causal=4&num_scrambled_schematic=4&participantId=70CD2982654142C7A70CB396FFA3BD07&assignmentId=5a2b0970-177a-465d-ad80-16b4ab5c1018&projectId=a9f3d40c-5730-405c-b25e-1034c4c56f3f","70CD2982654142C7A70CB396FFA3BD07-2025-08-07-19-04-51","","null","","[]","null","",""
"","","","","","image-button-response","75","342574","0.0-12.0-1.0-0.6","70CD2982654142C7A70CB396FFA3BD07","70CD2982654142C7A70CB396FFA3BD07","5a2b0970-177a-465d-ad80-16b4ab5c1018","a9f3d40c-5730-405c-b25e-1034c4c56f3f","{""num_scrambled_semantic"":""8"",""num_scrambled_causal"":""4"",""num_scrambled_schematic"":""4"",""participantId"":""70CD2982654142C7A70CB396FFA3BD07"",""assignmentId"":""5a2b0970-177a-465d-ad80-16b4ab5c1018"",""projectId"":""a9f3d40c-5730-405c-b25e-1034c4c56f3f""}","https://test12345.live/?num_scrambled_semantic=8&num_scrambled_causal=4&num_scrambled_schematic=4&participantId=70CD2982654142C7A70CB396FFA3BD07&assignmentId=5a2b0970-177a-465d-ad80-16b4ab5c1018&projectId=a9f3d40c-5730-405c-b25e-1034c4c56f3f","70CD2982654142C7A70CB396FFA3BD07-2025-08-07-19-04-51","","null","","images/causal_sequence/package_causal/package_causal_1.png","null","",""
"","","","","","image-button-response","76","343603","0.0-12.0-1.0-1.6","70CD2982654142C7A70CB396FFA3BD07","70CD2982654142C7A70CB396FFA3BD07","5a2b0970-177a-465d-ad80-16b4ab5c1018","a9f3d40c-5730-405c-b25e-1034c4c56f3f","{""num_scrambled_semantic"":""8"",""num_scrambled_causal"":""4"",""num_scrambled_schematic"":""4"",""participantId"":""70CD2982654142C7A70CB396FFA3BD07"",""assignmentId"":""5a2b0970-177a-465d-ad80-16b4ab5c1018"",""projectId"":""a9f3d40c-5730-405c-b25e-1034c4c56f3f""}","https://test12345.live/?num_scrambled_semantic=8&num_scrambled_causal=4&num_scrambled_schematic=4&participantId=70CD2982654142C7A70CB396FFA3BD07&assignmentId=5a2b0970-177a-465d-ad80-16b4ab5c1018&projectId=a9f3d40c-5730-405c-b25e-1034c4c56f3f","70CD2982654142C7A70CB396FFA3BD07-2025-08-07-19-04-51","","1027","","images/causal_sequence/package_causal/package_causal_1.png","0","",""
"","","","","","image-button-response","77","345404","0.0-12.0-1.0-2.6","70CD2982654142C7A70CB396FFA3BD07","70CD2982654142C7A70CB396FFA3BD07","5a2b0970-177a-465d-ad80-16b4ab5c1018","a9f3d40c-5730-405c-b25e-1034c4c56f3f","{""num_scrambled_semantic"":""8"",""num_scrambled_causal"":""4"",""num_scrambled_schematic"":""4"",""participantId"":""70CD2982654142C7A70CB396FFA3BD07"",""assignmentId"":""5a2b0970-177a-465d-ad80-16b4ab5c1018"",""projectId"":""a9f3d40c-5730-405c-b25e-1034c4c56f3f""}","https://test12345.live/?num_scrambled_semantic=8&num_scrambled_causal=4&num_scrambled_schematic=4&participantId=70CD2982654142C7A70CB396FFA3BD07&assignmentId=5a2b0970-177a-465d-ad80-16b4ab5c1018&projectId=a9f3d40c-5730-405c-b25e-1034c4c56f3f","70CD2982654142C7A70CB396FFA3BD07-2025-08-07-19-04-51","","null","","[]","null","",""
"","","","","","image-button-response","78","349906","0.0-12.0-1.0-0.7","70CD2982654142C7A70CB396FFA3BD07","70CD2982654142C7A70CB396FFA3BD07","5a2b0970-177a-465d-ad80-16b4ab5c1018","a9f3d40c-5730-405c-b25e-1034c4c56f3f","{""num_scrambled_semantic"":""8"",""num_scrambled_causal"":""4"",""num_scrambled_schematic"":""4"",""participantId"":""70CD2982654142C7A70CB396FFA3BD07"",""assignmentId"":""5a2b0970-177a-465d-ad80-16b4ab5c1018"",""projectId"":""a9f3d40c-5730-405c-b25e-1034c4c56f3f""}","https://test12345.live/?num_scrambled_semantic=8&num_scrambled_causal=4&num_scrambled_schematic=4&participantId=70CD2982654142C7A70CB396FFA3BD07&assignmentId=5a2b0970-177a-465d-ad80-16b4ab5c1018&projectId=a9f3d40c-5730-405c-b25e-1034c4c56f3f","70CD2982654142C7A70CB396FFA3BD07-2025-08-07-19-04-51","","null","","images/causal_sequence/package_causal/package_causal_ten.png","null","",""
"","","","","","image-button-response","79","350647","0.0-12.0-1.0-1.7","70CD2982654142C7A70CB396FFA3BD07","70CD2982654142C7A70CB396FFA3BD07","5a2b0970-177a-465d-ad80-16b4ab5c1018","a9f3d40c-5730-405c-b25e-1034c4c56f3f","{""num_scrambled_semantic"":""8"",""num_scrambled_causal"":""4"",""num_scrambled_schematic"":""4"",""participantId"":""70CD2982654142C7A70CB396FFA3BD07"",""assignmentId"":""5a2b0970-177a-465d-ad80-16b4ab5c1018"",""projectId"":""a9f3d40c-5730-405c-b25e-1034c4c56f3f""}","https://test12345.live/?num_scrambled_semantic=8&num_scrambled_causal=4&num_scrambled_schematic=4&participantId=70CD2982654142C7A70CB396FFA3BD07&assignmentId=5a2b0970-177a-465d-ad80-16b4ab5c1018&projectId=a9f3d40c-5730-405c-b25e-1034c4c56f3f","70CD2982654142C7A70CB396FFA3BD07-2025-08-07-19-04-51","","738","","images/causal_sequence/package_causal/package_causal_ten.png","0","",""
"","","","","","image-button-response","80","352463","0.0-12.0-1.0-2.7","70CD2982654142C7A70CB396FFA3BD07","70CD2982654142C7A70CB396FFA3BD07","5a2b0970-177a-465d-ad80-16b4ab5c1018","a9f3d40c-5730-405c-b25e-1034c4c56f3f","{""num_scrambled_semantic"":""8"",""num_scrambled_causal"":""4"",""num_scrambled_schematic"":""4"",""participantId"":""70CD2982654142C7A70CB396FFA3BD07"",""assignmentId"":""5a2b0970-177a-465d-ad80-16b4ab5c1018"",""projectId"":""a9f3d40c-5730-405c-b25e-1034c4c56f3f""}","https://test12345.live/?num_scrambled_semantic=8&num_scrambled_causal=4&num_scrambled_schematic=4&participantId=70CD2982654142C7A70CB396FFA3BD07&assignmentId=5a2b0970-177a-465d-ad80-16b4ab5c1018&projectId=a9f3d40c-5730-405c-b25e-1034c4c56f3f","70CD2982654142C7A70CB396FFA3BD07-2025-08-07-19-04-51","","null","","[]","null","",""
"","","","","","image-button-response","81","356964","0.0-12.0-1.0-0.8","70CD2982654142C7A70CB396FFA3BD07","70CD2982654142C7A70CB396FFA3BD07","5a2b0970-177a-465d-ad80-16b4ab5c1018","a9f3d40c-5730-405c-b25e-1034c4c56f3f","{""num_scrambled_semantic"":""8"",""num_scrambled_causal"":""4"",""num_scrambled_schematic"":""4"",""participantId"":""70CD2982654142C7A70CB396FFA3BD07"",""assignmentId"":""5a2b0970-177a-465d-ad80-16b4ab5c1018"",""projectId"":""a9f3d40c-5730-405c-b25e-1034c4c56f3f""}","https://test12345.live/?num_scrambled_semantic=8&num_scrambled_causal=4&num_scrambled_schematic=4&participantId=70CD2982654142C7A70CB396FFA3BD07&assignmentId=5a2b0970-177a-465d-ad80-16b4ab5c1018&projectId=a9f3d40c-5730-405c-b25e-1034c4c56f3f","70CD2982654142C7A70CB396FFA3BD07-2025-08-07-19-04-51","","null","","images/causal_sequence/package_causal/package_causal_7.png","null","",""
"","","","","","image-button-response","82","357883","0.0-12.0-1.0-1.8","70CD2982654142C7A70CB396FFA3BD07","70CD2982654142C7A70CB396FFA3BD07","5a2b0970-177a-465d-ad80-16b4ab5c1018","a9f3d40c-5730-405c-b25e-1034c4c56f3f","{""num_scrambled_semantic"":""8"",""num_scrambled_causal"":""4"",""num_scrambled_schematic"":""4"",""participantId"":""70CD2982654142C7A70CB396FFA3BD07"",""assignmentId"":""5a2b0970-177a-465d-ad80-16b4ab5c1018"",""projectId"":""a9f3d40c-5730-405c-b25e-1034c4c56f3f""}","https://test12345.live/?num_scrambled_semantic=8&num_scrambled_causal=4&num_scrambled_schematic=4&participantId=70CD2982654142C7A70CB396FFA3BD07&assignmentId=5a2b0970-177a-465d-ad80-16b4ab5c1018&projectId=a9f3d40c-5730-405c-b25e-1034c4c56f3f","70CD2982654142C7A70CB396FFA3BD07-2025-08-07-19-04-51","","918","","images/causal_sequence/package_causal/package_causal_7.png","0","",""
"","","","","","image-button-response","83","359699","0.0-12.0-1.0-2.8","70CD2982654142C7A70CB396FFA3BD07","70CD2982654142C7A70CB396FFA3BD07","5a2b0970-177a-465d-ad80-16b4ab5c1018","a9f3d40c-5730-405c-b25e-1034c4c56f3f","{""num_scrambled_semantic"":""8"",""num_scrambled_causal"":""4"",""num_scrambled_schematic"":""4"",""participantId"":""70CD2982654142C7A70CB396FFA3BD07"",""assignmentId"":""5a2b0970-177a-465d-ad80-16b4ab5c1018"",""projectId"":""a9f3d40c-5730-405c-b25e-1034c4c56f3f""}","https://test12345.live/?num_scrambled_semantic=8&num_scrambled_causal=4&num_scrambled_schematic=4&participantId=70CD2982654142C7A70CB396FFA3BD07&assignmentId=5a2b0970-177a-465d-ad80-16b4ab5c1018&projectId=a9f3d40c-5730-405c-b25e-1034c4c56f3f","70CD2982654142C7A70CB396FFA3BD07-2025-08-07-19-04-51","","null","","[]","null","",""
"","","","","","image-button-response","84","364202","0.0-12.0-1.0-0.9","70CD2982654142C7A70CB396FFA3BD07","70CD2982654142C7A70CB396FFA3BD07","5a2b0970-177a-465d-ad80-16b4ab5c1018","a9f3d40c-5730-405c-b25e-1034c4c56f3f","{""num_scrambled_semantic"":""8"",""num_scrambled_causal"":""4"",""num_scrambled_schematic"":""4"",""participantId"":""70CD2982654142C7A70CB396FFA3BD07"",""assignmentId"":""5a2b0970-177a-465d-ad80-16b4ab5c1018"",""projectId"":""a9f3d40c-5730-405c-b25e-1034c4c56f3f""}","https://test12345.live/?num_scrambled_semantic=8&num_scrambled_causal=4&num_scrambled_schematic=4&participantId=70CD2982654142C7A70CB396FFA3BD07&assignmentId=5a2b0970-177a-465d-ad80-16b4ab5c1018&projectId=a9f3d40c-5730-405c-b25e-1034c4c56f3f","70CD2982654142C7A70CB396FFA3BD07-2025-08-07-19-04-51","","null","","images/causal_sequence/package_causal/package_causal_2.png","null","",""
"","","","","","image-button-response","85","364979","0.0-12.0-1.0-1.9","70CD2982654142C7A70CB396FFA3BD07","70CD2982654142C7A70CB396FFA3BD07","5a2b0970-177a-465d-ad80-16b4ab5c1018","a9f3d40c-5730-405c-b25e-1034c4c56f3f","{""num_scrambled_semantic"":""8"",""num_scrambled_causal"":""4"",""num_scrambled_schematic"":""4"",""participantId"":""70CD2982654142C7A70CB396FFA3BD07"",""assignmentId"":""5a2b0970-177a-465d-ad80-16b4ab5c1018"",""projectId"":""a9f3d40c-5730-405c-b25e-1034c4c56f3f""}","https://test12345.live/?num_scrambled_semantic=8&num_scrambled_causal=4&num_scrambled_schematic=4&participantId=70CD2982654142C7A70CB396FFA3BD07&assignmentId=5a2b0970-177a-465d-ad80-16b4ab5c1018&projectId=a9f3d40c-5730-405c-b25e-1034c4c56f3f","70CD2982654142C7A70CB396FFA3BD07-2025-08-07-19-04-51","","776","","images/causal_sequence/package_causal/package_causal_2.png","0","",""
"","","","","","image-button-response","86","366784","0.0-12.0-1.0-2.9","70CD2982654142C7A70CB396FFA3BD07","70CD2982654142C7A70CB396FFA3BD07","5a2b0970-177a-465d-ad80-16b4ab5c1018","a9f3d40c-5730-405c-b25e-1034c4c56f3f","{""num_scrambled_semantic"":""8"",""num_scrambled_causal"":""4"",""num_scrambled_schematic"":""4"",""participantId"":""70CD2982654142C7A70CB396FFA3BD07"",""assignmentId"":""5a2b0970-177a-465d-ad80-16b4ab5c1018"",""projectId"":""a9f3d40c-5730-405c-b25e-1034c4c56f3f""}","https://test12345.live/?num_scrambled_semantic=8&num_scrambled_causal=4&num_scrambled_schematic=4&participantId=70CD2982654142C7A70CB396FFA3BD07&assignmentId=5a2b0970-177a-465d-ad80-16b4ab5c1018&projectId=a9f3d40c-5730-405c-b25e-1034c4c56f3f","70CD2982654142C7A70CB396FFA3BD07-2025-08-07-19-04-51","","null","","[]","null","",""
"","","","","","html-audio-response","87","400415","0.0-13.0","70CD2982654142C7A70CB396FFA3BD07","70CD2982654142C7A70CB396FFA3BD07","5a2b0970-177a-465d-ad80-16b4ab5c1018","a9f3d40c-5730-405c-b25e-1034c4c56f3f","{""num_scrambled_semantic"":""8"",""num_scrambled_causal"":""4"",""num_scrambled_schematic"":""4"",""participantId"":""70CD2982654142C7A70CB396FFA3BD07"",""assignmentId"":""5a2b0970-177a-465d-ad80-16b4ab5c1018"",""projectId"":""a9f3d40c-5730-405c-b25e-1034c4c56f3f""}","https://test12345.live/?num_scrambled_semantic=8&num_scrambled_causal=4&num_scrambled_schematic=4&participantId=70CD2982654142C7A70CB396FFA3BD07&assignmentId=5a2b0970-177a-465d-ad80-16b4ab5c1018&projectId=a9f3d40c-5730-405c-b25e-1034c4c56f3f","70CD2982654142C7A70CB396FFA3BD07-2025-08-07-19-04-51","","24964","","[""<span style=\""color: red; font-size: 24px\""> NOW RECORDING</span><p>Please say out loud all the images you saw, as many as you can remember. The images can be said in any order.</p>""]","","3","package_causal"
"","","","","","image-button-response","88","406435","0.0-14.0-0.0","70CD2982654142C7A70CB396FFA3BD07","70CD2982654142C7A70CB396FFA3BD07","5a2b0970-177a-465d-ad80-16b4ab5c1018","a9f3d40c-5730-405c-b25e-1034c4c56f3f","{""num_scrambled_semantic"":""8"",""num_scrambled_causal"":""4"",""num_scrambled_schematic"":""4"",""participantId"":""70CD2982654142C7A70CB396FFA3BD07"",""assignmentId"":""5a2b0970-177a-465d-ad80-16b4ab5c1018"",""projectId"":""a9f3d40c-5730-405c-b25e-1034c4c56f3f""}","https://test12345.live/?num_scrambled_semantic=8&num_scrambled_causal=4&num_scrambled_schematic=4&participantId=70CD2982654142C7A70CB396FFA3BD07&assignmentId=5a2b0970-177a-465d-ad80-16b4ab5c1018&projectId=a9f3d40c-5730-405c-b25e-1034c4c56f3f","70CD2982654142C7A70CB396FFA3BD07-2025-08-07-19-04-51","","null","","images/semantic_sequence/physical_activity_semantic/physical_activity_semantic_0.png","null","",""
"","","","","","image-button-response","89","410949","0.0-14.0-1.0-0.0","70CD2982654142C7A70CB396FFA3BD07","70CD2982654142C7A70CB396FFA3BD07","5a2b0970-177a-465d-ad80-16b4ab5c1018","a9f3d40c-5730-405c-b25e-1034c4c56f3f","{""num_scrambled_semantic"":""8"",""num_scrambled_causal"":""4"",""num_scrambled_schematic"":""4"",""participantId"":""70CD2982654142C7A70CB396FFA3BD07"",""assignmentId"":""5a2b0970-177a-465d-ad80-16b4ab5c1018"",""projectId"":""a9f3d40c-5730-405c-b25e-1034c4c56f3f""}","https://test12345.live/?num_scrambled_semantic=8&num_scrambled_causal=4&num_scrambled_schematic=4&participantId=70CD2982654142C7A70CB396FFA3BD07&assignmentId=5a2b0970-177a-465d-ad80-16b4ab5c1018&projectId=a9f3d40c-5730-405c-b25e-1034c4c56f3f","70CD2982654142C7A70CB396FFA3BD07-2025-08-07-19-04-51","","null","","images/semantic_sequence/physical_activity_semantic/physical_activity_semantic_8.png","null","",""
"","","","","","image-button-response","90","412063","0.0-14.0-1.0-1.0","70CD2982654142C7A70CB396FFA3BD07","70CD2982654142C7A70CB396FFA3BD07","5a2b0970-177a-465d-ad80-16b4ab5c1018","a9f3d40c-5730-405c-b25e-1034c4c56f3f","{""num_scrambled_semantic"":""8"",""num_scrambled_causal"":""4"",""num_scrambled_schematic"":""4"",""participantId"":""70CD2982654142C7A70CB396FFA3BD07"",""assignmentId"":""5a2b0970-177a-465d-ad80-16b4ab5c1018"",""projectId"":""a9f3d40c-5730-405c-b25e-1034c4c56f3f""}","https://test12345.live/?num_scrambled_semantic=8&num_scrambled_causal=4&num_scrambled_schematic=4&participantId=70CD2982654142C7A70CB396FFA3BD07&assignmentId=5a2b0970-177a-465d-ad80-16b4ab5c1018&projectId=a9f3d40c-5730-405c-b25e-1034c4c56f3f","70CD2982654142C7A70CB396FFA3BD07-2025-08-07-19-04-51","","1113","","images/semantic_sequence/physical_activity_semantic/physical_activity_semantic_8.png","0","",""
"","","","","","image-button-response","91","413868","0.0-14.0-1.0-2.0","70CD2982654142C7A70CB396FFA3BD07","70CD2982654142C7A70CB396FFA3BD07","5a2b0970-177a-465d-ad80-16b4ab5c1018","a9f3d40c-5730-405c-b25e-1034c4c56f3f","{""num_scrambled_semantic"":""8"",""num_scrambled_causal"":""4"",""num_scrambled_schematic"":""4"",""participantId"":""70CD2982654142C7A70CB396FFA3BD07"",""assignmentId"":""5a2b0970-177a-465d-ad80-16b4ab5c1018"",""projectId"":""a9f3d40c-5730-405c-b25e-1034c4c56f3f""}","https://test12345.live/?num_scrambled_semantic=8&num_scrambled_causal=4&num_scrambled_schematic=4&participantId=70CD2982654142C7A70CB396FFA3BD07&assignmentId=5a2b0970-177a-465d-ad80-16b4ab5c1018&projectId=a9f3d40c-5730-405c-b25e-1034c4c56f3f","70CD2982654142C7A70CB396FFA3BD07-2025-08-07-19-04-51","","null","","[]","null","",""
"","","","","","image-button-response","92","418381","0.0-14.0-1.0-0.1","70CD2982654142C7A70CB396FFA3BD07","70CD2982654142C7A70CB396FFA3BD07","5a2b0970-177a-465d-ad80-16b4ab5c1018","a9f3d40c-5730-405c-b25e-1034c4c56f3f","{""num_scrambled_semantic"":""8"",""num_scrambled_causal"":""4"",""num_scrambled_schematic"":""4"",""participantId"":""70CD2982654142C7A70CB396FFA3BD07"",""assignmentId"":""5a2b0970-177a-465d-ad80-16b4ab5c1018"",""projectId"":""a9f3d40c-5730-405c-b25e-1034c4c56f3f""}","https://test12345.live/?num_scrambled_semantic=8&num_scrambled_causal=4&num_scrambled_schematic=4&participantId=70CD2982654142C7A70CB396FFA3BD07&assignmentId=5a2b0970-177a-465d-ad80-16b4ab5c1018&projectId=a9f3d40c-5730-405c-b25e-1034c4c56f3f","70CD2982654142C7A70CB396FFA3BD07-2025-08-07-19-04-51","","null","","images/semantic_sequence/physical_activity_semantic/physical_activity_semantic_2.png","null","",""
"","","","","","image-button-response","93","419115","0.0-14.0-1.0-1.1","70CD2982654142C7A70CB396FFA3BD07","70CD2982654142C7A70CB396FFA3BD07","5a2b0970-177a-465d-ad80-16b4ab5c1018","a9f3d40c-5730-405c-b25e-1034c4c56f3f","{""num_scrambled_semantic"":""8"",""num_scrambled_causal"":""4"",""num_scrambled_schematic"":""4"",""participantId"":""70CD2982654142C7A70CB396FFA3BD07"",""assignmentId"":""5a2b0970-177a-465d-ad80-16b4ab5c1018"",""projectId"":""a9f3d40c-5730-405c-b25e-1034c4c56f3f""}","https://test12345.live/?num_scrambled_semantic=8&num_scrambled_causal=4&num_scrambled_schematic=4&participantId=70CD2982654142C7A70CB396FFA3BD07&assignmentId=5a2b0970-177a-465d-ad80-16b4ab5c1018&projectId=a9f3d40c-5730-405c-b25e-1034c4c56f3f","70CD2982654142C7A70CB396FFA3BD07-2025-08-07-19-04-51","","732","","images/semantic_sequence/physical_activity_semantic/physical_activity_semantic_2.png","0","",""
"","","","","","image-button-response","94","420918","0.0-14.0-1.0-2.1","70CD2982654142C7A70CB396FFA3BD07","70CD2982654142C7A70CB396FFA3BD07","5a2b0970-177a-465d-ad80-16b4ab5c1018","a9f3d40c-5730-405c-b25e-1034c4c56f3f","{""num_scrambled_semantic"":""8"",""num_scrambled_causal"":""4"",""num_scrambled_schematic"":""4"",""participantId"":""70CD2982654142C7A70CB396FFA3BD07"",""assignmentId"":""5a2b0970-177a-465d-ad80-16b4ab5c1018"",""projectId"":""a9f3d40c-5730-405c-b25e-1034c4c56f3f""}","https://test12345.live/?num_scrambled_semantic=8&num_scrambled_causal=4&num_scrambled_schematic=4&participantId=70CD2982654142C7A70CB396FFA3BD07&assignmentId=5a2b0970-177a-465d-ad80-16b4ab5c1018&projectId=a9f3d40c-5730-405c-b25e-1034c4c56f3f","70CD2982654142C7A70CB396FFA3BD07-2025-08-07-19-04-51","","null","","[]","null","",""
"","","","","","image-button-response","95","425425","0.0-14.0-1.0-0.2","70CD2982654142C7A70CB396FFA3BD07","70CD2982654142C7A70CB396FFA3BD07","5a2b0970-177a-465d-ad80-16b4ab5c1018","a9f3d40c-5730-405c-b25e-1034c4c56f3f","{""num_scrambled_semantic"":""8"",""num_scrambled_causal"":""4"",""num_scrambled_schematic"":""4"",""participantId"":""70CD2982654142C7A70CB396FFA3BD07"",""assignmentId"":""5a2b0970-177a-465d-ad80-16b4ab5c1018"",""projectId"":""a9f3d40c-5730-405c-b25e-1034c4c56f3f""}","https://test12345.live/?num_scrambled_semantic=8&num_scrambled_causal=4&num_scrambled_schematic=4&participantId=70CD2982654142C7A70CB396FFA3BD07&assignmentId=5a2b0970-177a-465d-ad80-16b4ab5c1018&projectId=a9f3d40c-5730-405c-b25e-1034c4c56f3f","70CD2982654142C7A70CB396FFA3BD07-2025-08-07-19-04-51","","null","","images/semantic_sequence/physical_activity_semantic/physical_activity_semantic_9.png","null","",""
"","","","","","image-button-response","96","426183","0.0-14.0-1.0-1.2","70CD2982654142C7A70CB396FFA3BD07","70CD2982654142C7A70CB396FFA3BD07","5a2b0970-177a-465d-ad80-16b4ab5c1018","a9f3d40c-5730-405c-b25e-1034c4c56f3f","{""num_scrambled_semantic"":""8"",""num_scrambled_causal"":""4"",""num_scrambled_schematic"":""4"",""participantId"":""70CD2982654142C7A70CB396FFA3BD07"",""assignmentId"":""5a2b0970-177a-465d-ad80-16b4ab5c1018"",""projectId"":""a9f3d40c-5730-405c-b25e-1034c4c56f3f""}","https://test12345.live/?num_scrambled_semantic=8&num_scrambled_causal=4&num_scrambled_schematic=4&participantId=70CD2982654142C7A70CB396FFA3BD07&assignmentId=5a2b0970-177a-465d-ad80-16b4ab5c1018&projectId=a9f3d40c-5730-405c-b25e-1034c4c56f3f","70CD2982654142C7A70CB396FFA3BD07-2025-08-07-19-04-51","","757","","images/semantic_sequence/physical_activity_semantic/physical_activity_semantic_9.png","0","",""
"","","","","","image-button-response","97","427992","0.0-14.0-1.0-2.2","70CD2982654142C7A70CB396FFA3BD07","70CD2982654142C7A70CB396FFA3BD07","5a2b0970-177a-465d-ad80-16b4ab5c1018","a9f3d40c-5730-405c-b25e-1034c4c56f3f","{""num_scrambled_semantic"":""8"",""num_scrambled_causal"":""4"",""num_scrambled_schematic"":""4"",""participantId"":""70CD2982654142C7A70CB396FFA3BD07"",""assignmentId"":""5a2b0970-177a-465d-ad80-16b4ab5c1018"",""projectId"":""a9f3d40c-5730-405c-b25e-1034c4c56f3f""}","https://test12345.live/?num_scrambled_semantic=8&num_scrambled_causal=4&num_scrambled_schematic=4&participantId=70CD2982654142C7A70CB396FFA3BD07&assignmentId=5a2b0970-177a-465d-ad80-16b4ab5c1018&projectId=a9f3d40c-5730-405c-b25e-1034c4c56f3f","70CD2982654142C7A70CB396FFA3BD07-2025-08-07-19-04-51","","null","","[]","null","",""
"","","","","","image-button-response","98","432510","0.0-14.0-1.0-0.3","70CD2982654142C7A70CB396FFA3BD07","70CD2982654142C7A70CB396FFA3BD07","5a2b0970-177a-465d-ad80-16b4ab5c1018","a9f3d40c-5730-405c-b25e-1034c4c56f3f","{""num_scrambled_semantic"":""8"",""num_scrambled_causal"":""4"",""num_scrambled_schematic"":""4"",""participantId"":""70CD2982654142C7A70CB396FFA3BD07"",""assignmentId"":""5a2b0970-177a-465d-ad80-16b4ab5c1018"",""projectId"":""a9f3d40c-5730-405c-b25e-1034c4c56f3f""}","https://test12345.live/?num_scrambled_semantic=8&num_scrambled_causal=4&num_scrambled_schematic=4&participantId=70CD2982654142C7A70CB396FFA3BD07&assignmentId=5a2b0970-177a-465d-ad80-16b4ab5c1018&projectId=a9f3d40c-5730-405c-b25e-1034c4c56f3f","70CD2982654142C7A70CB396FFA3BD07-2025-08-07-19-04-51","","null","","images/semantic_sequence/physical_activity_semantic/physical_activity_semantic_5.png","null","",""
"","","","","","image-button-response","99","433283","0.0-14.0-1.0-1.3","70CD2982654142C7A70CB396FFA3BD07","70CD2982654142C7A70CB396FFA3BD07","5a2b0970-177a-465d-ad80-16b4ab5c1018","a9f3d40c-5730-405c-b25e-1034c4c56f3f","{""num_scrambled_semantic"":""8"",""num_scrambled_causal"":""4"",""num_scrambled_schematic"":""4"",""participantId"":""70CD2982654142C7A70CB396FFA3BD07"",""assignmentId"":""5a2b0970-177a-465d-ad80-16b4ab5c1018"",""projectId"":""a9f3d40c-5730-405c-b25e-1034c4c56f3f""}","https://test12345.live/?num_scrambled_semantic=8&num_scrambled_causal=4&num_scrambled_schematic=4&participantId=70CD2982654142C7A70CB396FFA3BD07&assignmentId=5a2b0970-177a-465d-ad80-16b4ab5c1018&projectId=a9f3d40c-5730-405c-b25e-1034c4c56f3f","70CD2982654142C7A70CB396FFA3BD07-2025-08-07-19-04-51","","771","","images/semantic_sequence/physical_activity_semantic/physical_activity_semantic_5.png","0","",""
"","","","","","image-button-response","100","435099","0.0-14.0-1.0-2.3","70CD2982654142C7A70CB396FFA3BD07","70CD2982654142C7A70CB396FFA3BD07","5a2b0970-177a-465d-ad80-16b4ab5c1018","a9f3d40c-5730-405c-b25e-1034c4c56f3f","{""num_scrambled_semantic"":""8"",""num_scrambled_causal"":""4"",""num_scrambled_schematic"":""4"",""participantId"":""70CD2982654142C7A70CB396FFA3BD07"",""assignmentId"":""5a2b0970-177a-465d-ad80-16b4ab5c1018"",""projectId"":""a9f3d40c-5730-405c-b25e-1034c4c56f3f""}","https://test12345.live/?num_scrambled_semantic=8&num_scrambled_causal=4&num_scrambled_schematic=4&participantId=70CD2982654142C7A70CB396FFA3BD07&assignmentId=5a2b0970-177a-465d-ad80-16b4ab5c1018&projectId=a9f3d40c-5730-405c-b25e-1034c4c56f3f","70CD2982654142C7A70CB396FFA3BD07-2025-08-07-19-04-51","","null","","[]","null","",""
"","","","","","image-button-response","101","439602","0.0-14.0-1.0-0.4","70CD2982654142C7A70CB396FFA3BD07","70CD2982654142C7A70CB396FFA3BD07","5a2b0970-177a-465d-ad80-16b4ab5c1018","a9f3d40c-5730-405c-b25e-1034c4c56f3f","{""num_scrambled_semantic"":""8"",""num_scrambled_causal"":""4"",""num_scrambled_schematic"":""4"",""participantId"":""70CD2982654142C7A70CB396FFA3BD07"",""assignmentId"":""5a2b0970-177a-465d-ad80-16b4ab5c1018"",""projectId"":""a9f3d40c-5730-405c-b25e-1034c4c56f3f""}","https://test12345.live/?num_scrambled_semantic=8&num_scrambled_causal=4&num_scrambled_schematic=4&participantId=70CD2982654142C7A70CB396FFA3BD07&assignmentId=5a2b0970-177a-465d-ad80-16b4ab5c1018&projectId=a9f3d40c-5730-405c-b25e-1034c4c56f3f","70CD2982654142C7A70CB396FFA3BD07-2025-08-07-19-04-51","","null","","images/semantic_sequence/physical_activity_semantic/physical_activity_semantic_1.png","null","",""
"","","","","","image-button-response","102","440935","0.0-14.0-1.0-1.4","70CD2982654142C7A70CB396FFA3BD07","70CD2982654142C7A70CB396FFA3BD07","5a2b0970-177a-465d-ad80-16b4ab5c1018","a9f3d40c-5730-405c-b25e-1034c4c56f3f","{""num_scrambled_semantic"":""8"",""num_scrambled_causal"":""4"",""num_scrambled_schematic"":""4"",""participantId"":""70CD2982654142C7A70CB396FFA3BD07"",""assignmentId"":""5a2b0970-177a-465d-ad80-16b4ab5c1018"",""projectId"":""a9f3d40c-5730-405c-b25e-1034c4c56f3f""}","https://test12345.live/?num_scrambled_semantic=8&num_scrambled_causal=4&num_scrambled_schematic=4&participantId=70CD2982654142C7A70CB396FFA3BD07&assignmentId=5a2b0970-177a-465d-ad80-16b4ab5c1018&projectId=a9f3d40c-5730-405c-b25e-1034c4c56f3f","70CD2982654142C7A70CB396FFA3BD07-2025-08-07-19-04-51","","1330","","images/semantic_sequence/physical_activity_semantic/physical_activity_semantic_1.png","0","",""
"","","","","","image-button-response","103","442740","0.0-14.0-1.0-2.4","70CD2982654142C7A70CB396FFA3BD07","70CD2982654142C7A70CB396FFA3BD07","5a2b0970-177a-465d-ad80-16b4ab5c1018","a9f3d40c-5730-405c-b25e-1034c4c56f3f","{""num_scrambled_semantic"":""8"",""num_scrambled_causal"":""4"",""num_scrambled_schematic"":""4"",""participantId"":""70CD2982654142C7A70CB396FFA3BD07"",""assignmentId"":""5a2b0970-177a-465d-ad80-16b4ab5c1018"",""projectId"":""a9f3d40c-5730-405c-b25e-1034c4c56f3f""}","https://test12345.live/?num_scrambled_semantic=8&num_scrambled_causal=4&num_scrambled_schematic=4&participantId=70CD2982654142C7A70CB396FFA3BD07&assignmentId=5a2b0970-177a-465d-ad80-16b4ab5c1018&projectId=a9f3d40c-5730-405c-b25e-1034c4c56f3f","70CD2982654142C7A70CB396FFA3BD07-2025-08-07-19-04-51","","null","","[]","null","",""
"","","","","","image-button-response","104","447255","0.0-14.0-1.0-0.5","70CD2982654142C7A70CB396FFA3BD07","70CD2982654142C7A70CB396FFA3BD07","5a2b0970-177a-465d-ad80-16b4ab5c1018","a9f3d40c-5730-405c-b25e-1034c4c56f3f","{""num_scrambled_semantic"":""8"",""num_scrambled_causal"":""4"",""num_scrambled_schematic"":""4"",""participantId"":""70CD2982654142C7A70CB396FFA3BD07"",""assignmentId"":""5a2b0970-177a-465d-ad80-16b4ab5c1018"",""projectId"":""a9f3d40c-5730-405c-b25e-1034c4c56f3f""}","https://test12345.live/?num_scrambled_semantic=8&num_scrambled_causal=4&num_scrambled_schematic=4&participantId=70CD2982654142C7A70CB396FFA3BD07&assignmentId=5a2b0970-177a-465d-ad80-16b4ab5c1018&projectId=a9f3d40c-5730-405c-b25e-1034c4c56f3f","70CD2982654142C7A70CB396FFA3BD07-2025-08-07-19-04-51","","null","","images/semantic_sequence/physical_activity_semantic/physical_activity_semantic_6.png","null","",""
"","","","","","image-button-response","105","447951","0.0-14.0-1.0-1.5","70CD2982654142C7A70CB396FFA3BD07","70CD2982654142C7A70CB396FFA3BD07","5a2b0970-177a-465d-ad80-16b4ab5c1018","a9f3d40c-5730-405c-b25e-1034c4c56f3f","{""num_scrambled_semantic"":""8"",""num_scrambled_causal"":""4"",""num_scrambled_schematic"":""4"",""participantId"":""70CD2982654142C7A70CB396FFA3BD07"",""assignmentId"":""5a2b0970-177a-465d-ad80-16b4ab5c1018"",""projectId"":""a9f3d40c-5730-405c-b25e-1034c4c56f3f""}","https://test12345.live/?num_scrambled_semantic=8&num_scrambled_causal=4&num_scrambled_schematic=4&participantId=70CD2982654142C7A70CB396FFA3BD07&assignmentId=5a2b0970-177a-465d-ad80-16b4ab5c1018&projectId=a9f3d40c-5730-405c-b25e-1034c4c56f3f","70CD2982654142C7A70CB396FFA3BD07-2025-08-07-19-04-51","","695","","images/semantic_sequence/physical_activity_semantic/physical_activity_semantic_6.png","0","",""
"","","","","","image-button-response","106","449766","0.0-14.0-1.0-2.5","70CD2982654142C7A70CB396FFA3BD07","70CD2982654142C7A70CB396FFA3BD07","5a2b0970-177a-465d-ad80-16b4ab5c1018","a9f3d40c-5730-405c-b25e-1034c4c56f3f","{""num_scrambled_semantic"":""8"",""num_scrambled_causal"":""4"",""num_scrambled_schematic"":""4"",""participantId"":""70CD2982654142C7A70CB396FFA3BD07"",""assignmentId"":""5a2b0970-177a-465d-ad80-16b4ab5c1018"",""projectId"":""a9f3d40c-5730-405c-b25e-1034c4c56f3f""}","https://test12345.live/?num_scrambled_semantic=8&num_scrambled_causal=4&num_scrambled_schematic=4&participantId=70CD2982654142C7A70CB396FFA3BD07&assignmentId=5a2b0970-177a-465d-ad80-16b4ab5c1018&projectId=a9f3d40c-5730-405c-b25e-1034c4c56f3f","70CD2982654142C7A70CB396FFA3BD07-2025-08-07-19-04-51","","null","","[]","null","",""
"","","","","","image-button-response","107","454268","0.0-14.0-1.0-0.6","70CD2982654142C7A70CB396FFA3BD07","70CD2982654142C7A70CB396FFA3BD07","5a2b0970-177a-465d-ad80-16b4ab5c1018","a9f3d40c-5730-405c-b25e-1034c4c56f3f","{""num_scrambled_semantic"":""8"",""num_scrambled_causal"":""4"",""num_scrambled_schematic"":""4"",""participantId"":""70CD2982654142C7A70CB396FFA3BD07"",""assignmentId"":""5a2b0970-177a-465d-ad80-16b4ab5c1018"",""projectId"":""a9f3d40c-5730-405c-b25e-1034c4c56f3f""}","https://test12345.live/?num_scrambled_semantic=8&num_scrambled_causal=4&num_scrambled_schematic=4&participantId=70CD2982654142C7A70CB396FFA3BD07&assignmentId=5a2b0970-177a-465d-ad80-16b4ab5c1018&projectId=a9f3d40c-5730-405c-b25e-1034c4c56f3f","70CD2982654142C7A70CB396FFA3BD07-2025-08-07-19-04-51","","null","","images/semantic_sequence/physical_activity_semantic/physical_activity_semantic_3.png","null","",""
"","","","","","image-button-response","108","455155","0.0-14.0-1.0-1.6","70CD2982654142C7A70CB396FFA3BD07","70CD2982654142C7A70CB396FFA3BD07","5a2b0970-177a-465d-ad80-16b4ab5c1018","a9f3d40c-5730-405c-b25e-1034c4c56f3f","{""num_scrambled_semantic"":""8"",""num_scrambled_causal"":""4"",""num_scrambled_schematic"":""4"",""participantId"":""70CD2982654142C7A70CB396FFA3BD07"",""assignmentId"":""5a2b0970-177a-465d-ad80-16b4ab5c1018"",""projectId"":""a9f3d40c-5730-405c-b25e-1034c4c56f3f""}","https://test12345.live/?num_scrambled_semantic=8&num_scrambled_causal=4&num_scrambled_schematic=4&participantId=70CD2982654142C7A70CB396FFA3BD07&assignmentId=5a2b0970-177a-465d-ad80-16b4ab5c1018&projectId=a9f3d40c-5730-405c-b25e-1034c4c56f3f","70CD2982654142C7A70CB396FFA3BD07-2025-08-07-19-04-51","","886","","images/semantic_sequence/physical_activity_semantic/physical_activity_semantic_3.png","0","",""
"","","","","","image-button-response","109","456957","0.0-14.0-1.0-2.6","70CD2982654142C7A70CB396FFA3BD07","70CD2982654142C7A70CB396FFA3BD07","5a2b0970-177a-465d-ad80-16b4ab5c1018","a9f3d40c-5730-405c-b25e-1034c4c56f3f","{""num_scrambled_semantic"":""8"",""num_scrambled_causal"":""4"",""num_scrambled_schematic"":""4"",""participantId"":""70CD2982654142C7A70CB396FFA3BD07"",""assignmentId"":""5a2b0970-177a-465d-ad80-16b4ab5c1018"",""projectId"":""a9f3d40c-5730-405c-b25e-1034c4c56f3f""}","https://test12345.live/?num_scrambled_semantic=8&num_scrambled_causal=4&num_scrambled_schematic=4&participantId=70CD2982654142C7A70CB396FFA3BD07&assignmentId=5a2b0970-177a-465d-ad80-16b4ab5c1018&projectId=a9f3d40c-5730-405c-b25e-1034c4c56f3f","70CD2982654142C7A70CB396FFA3BD07-2025-08-07-19-04-51","","null","","[]","null","",""
"","","","","","image-button-response","110","461460","0.0-14.0-1.0-0.7","70CD2982654142C7A70CB396FFA3BD07","70CD2982654142C7A70CB396FFA3BD07","5a2b0970-177a-465d-ad80-16b4ab5c1018","a9f3d40c-5730-405c-b25e-1034c4c56f3f","{""num_scrambled_semantic"":""8"",""num_scrambled_causal"":""4"",""num_scrambled_schematic"":""4"",""participantId"":""70CD2982654142C7A70CB396FFA3BD07"",""assignmentId"":""5a2b0970-177a-465d-ad80-16b4ab5c1018"",""projectId"":""a9f3d40c-5730-405c-b25e-1034c4c56f3f""}","https://test12345.live/?num_scrambled_semantic=8&num_scrambled_causal=4&num_scrambled_schematic=4&participantId=70CD2982654142C7A70CB396FFA3BD07&assignmentId=5a2b0970-177a-465d-ad80-16b4ab5c1018&projectId=a9f3d40c-5730-405c-b25e-1034c4c56f3f","70CD2982654142C7A70CB396FFA3BD07-2025-08-07-19-04-51","","null","","images/semantic_sequence/physical_activity_semantic/physical_activity_semantic_4.png","null","",""
"","","","","","image-button-response","111","462163","0.0-14.0-1.0-1.7","70CD2982654142C7A70CB396FFA3BD07","70CD2982654142C7A70CB396FFA3BD07","5a2b0970-177a-465d-ad80-16b4ab5c1018","a9f3d40c-5730-405c-b25e-1034c4c56f3f","{""num_scrambled_semantic"":""8"",""num_scrambled_causal"":""4"",""num_scrambled_schematic"":""4"",""participantId"":""70CD2982654142C7A70CB396FFA3BD07"",""assignmentId"":""5a2b0970-177a-465d-ad80-16b4ab5c1018"",""projectId"":""a9f3d40c-5730-405c-b25e-1034c4c56f3f""}","https://test12345.live/?num_scrambled_semantic=8&num_scrambled_causal=4&num_scrambled_schematic=4&participantId=70CD2982654142C7A70CB396FFA3BD07&assignmentId=5a2b0970-177a-465d-ad80-16b4ab5c1018&projectId=a9f3d40c-5730-405c-b25e-1034c4c56f3f","70CD2982654142C7A70CB396FFA3BD07-2025-08-07-19-04-51","","702","","images/semantic_sequence/physical_activity_semantic/physical_activity_semantic_4.png","0","",""
"","","","","","image-button-response","112","463969","0.0-14.0-1.0-2.7","70CD2982654142C7A70CB396FFA3BD07","70CD2982654142C7A70CB396FFA3BD07","5a2b0970-177a-465d-ad80-16b4ab5c1018","a9f3d40c-5730-405c-b25e-1034c4c56f3f","{""num_scrambled_semantic"":""8"",""num_scrambled_causal"":""4"",""num_scrambled_schematic"":""4"",""participantId"":""70CD2982654142C7A70CB396FFA3BD07"",""assignmentId"":""5a2b0970-177a-465d-ad80-16b4ab5c1018"",""projectId"":""a9f3d40c-5730-405c-b25e-1034c4c56f3f""}","https://test12345.live/?num_scrambled_semantic=8&num_scrambled_causal=4&num_scrambled_schematic=4&participantId=70CD2982654142C7A70CB396FFA3BD07&assignmentId=5a2b0970-177a-465d-ad80-16b4ab5c1018&projectId=a9f3d40c-5730-405c-b25e-1034c4c56f3f","70CD2982654142C7A70CB396FFA3BD07-2025-08-07-19-04-51","","null","","[]","null","",""
"","","","","","image-button-response","113","468480","0.0-14.0-1.0-0.8","70CD2982654142C7A70CB396FFA3BD07","70CD2982654142C7A70CB396FFA3BD07","5a2b0970-177a-465d-ad80-16b4ab5c1018","a9f3d40c-5730-405c-b25e-1034c4c56f3f","{""num_scrambled_semantic"":""8"",""num_scrambled_causal"":""4"",""num_scrambled_schematic"":""4"",""participantId"":""70CD2982654142C7A70CB396FFA3BD07"",""assignmentId"":""5a2b0970-177a-465d-ad80-16b4ab5c1018"",""projectId"":""a9f3d40c-5730-405c-b25e-1034c4c56f3f""}","https://test12345.live/?num_scrambled_semantic=8&num_scrambled_causal=4&num_scrambled_schematic=4&participantId=70CD2982654142C7A70CB396FFA3BD07&assignmentId=5a2b0970-177a-465d-ad80-16b4ab5c1018&projectId=a9f3d40c-5730-405c-b25e-1034c4c56f3f","70CD2982654142C7A70CB396FFA3BD07-2025-08-07-19-04-51","","null","","images/semantic_sequence/physical_activity_semantic/physical_activity_semantic_7.png","null","",""
"","","","","","image-button-response","114","469231","0.0-14.0-1.0-1.8","70CD2982654142C7A70CB396FFA3BD07","70CD2982654142C7A70CB396FFA3BD07","5a2b0970-177a-465d-ad80-16b4ab5c1018","a9f3d40c-5730-405c-b25e-1034c4c56f3f","{""num_scrambled_semantic"":""8"",""num_scrambled_causal"":""4"",""num_scrambled_schematic"":""4"",""participantId"":""70CD2982654142C7A70CB396FFA3BD07"",""assignmentId"":""5a2b0970-177a-465d-ad80-16b4ab5c1018"",""projectId"":""a9f3d40c-5730-405c-b25e-1034c4c56f3f""}","https://test12345.live/?num_scrambled_semantic=8&num_scrambled_causal=4&num_scrambled_schematic=4&participantId=70CD2982654142C7A70CB396FFA3BD07&assignmentId=5a2b0970-177a-465d-ad80-16b4ab5c1018&projectId=a9f3d40c-5730-405c-b25e-1034c4c56f3f","70CD2982654142C7A70CB396FFA3BD07-2025-08-07-19-04-51","","750","","images/semantic_sequence/physical_activity_semantic/physical_activity_semantic_7.png","0","",""
