"success","timeout","failed_images","failed_audio","failed_video","trial_type","trial_index","time_elapsed","internal_node_id","subject","subject_id","study_id","session_id","urlvar","current_url","audio_id","view_history","rt","device_id","stimulus","response","estimated_stimulus_onset","seq_name"
"true","false","[]","[]","[]","preload","0","15165","0.0-0.0","729ACAFAB83D418AB76F99AF4BFCF926","729ACAFAB83D418AB76F99AF4BFCF926","19bbb3f9-8713-43be-85d7-880aa81f57fa","9076ac92-be42-43a2-9634-8b67c7fe93a7","{""num_scrambled_semantic"":""8"",""num_scrambled_causal"":""4"",""num_scrambled_schematic"":""4"",""participantId"":""729ACAFAB83D418AB76F99AF4BFCF926"",""assignmentId"":""19bbb3f9-8713-43be-85d7-880aa81f57fa"",""projectId"":""9076ac92-be42-43a2-9634-8b67c7fe93a7""}","https://test12345.live/?num_scrambled_semantic=8&num_scrambled_causal=4&num_scrambled_schematic=4&participantId=729ACAFAB83D418AB76F99AF4BFCF926&assignmentId=19bbb3f9-8713-43be-85d7-880aa81f57fa&projectId=9076ac92-be42-43a2-9634-8b67c7fe93a7","729ACAFAB83D418AB76F99AF4BFCF926-2025-05-22-19-52-47","","","","","","",""
"","","","","","instructions","1","1187090","0.0-1.0","729ACAFAB83D418AB76F99AF4BFCF926","729ACAFAB83D418AB76F99AF4BFCF926","19bbb3f9-8713-43be-85d7-880aa81f57fa","9076ac92-be42-43a2-9634-8b67c7fe93a7","{""num_scrambled_semantic"":""8"",""num_scrambled_causal"":""4"",""num_scrambled_schematic"":""4"",""participantId"":""729ACAFAB83D418AB76F99AF4BFCF926"",""assignmentId"":""19bbb3f9-8713-43be-85d7-880aa81f57fa"",""projectId"":""9076ac92-be42-43a2-9634-8b67c7fe93a7""}","https://test12345.live/?num_scrambled_semantic=8&num_scrambled_causal=4&num_scrambled_schematic=4&participantId=729ACAFAB83D418AB76F99AF4BFCF926&assignmentId=19bbb3f9-8713-43be-85d7-880aa81f57fa&projectId=9076ac92-be42-43a2-9634-8b67c7fe93a7","729ACAFAB83D418AB76F99AF4BFCF926-2025-05-22-19-52-47","[{""page_index"":0,""viewing_time"":1171919}]","1171921","","","","",""
"","","","","","instructions","2","1194825","0.0-2.0","729ACAFAB83D418AB76F99AF4BFCF926","729ACAFAB83D418AB76F99AF4BFCF926","19bbb3f9-8713-43be-85d7-880aa81f57fa","9076ac92-be42-43a2-9634-8b67c7fe93a7","{""num_scrambled_semantic"":""8"",""num_scrambled_causal"":""4"",""num_scrambled_schematic"":""4"",""participantId"":""729ACAFAB83D418AB76F99AF4BFCF926"",""assignmentId"":""19bbb3f9-8713-43be-85d7-880aa81f57fa"",""projectId"":""9076ac92-be42-43a2-9634-8b67c7fe93a7""}","https://test12345.live/?num_scrambled_semantic=8&num_scrambled_causal=4&num_scrambled_schematic=4&participantId=729ACAFAB83D418AB76F99AF4BFCF926&assignmentId=19bbb3f9-8713-43be-85d7-880aa81f57fa&projectId=9076ac92-be42-43a2-9634-8b67c7fe93a7","729ACAFAB83D418AB76F99AF4BFCF926-2025-05-22-19-52-47","[{""page_index"":0,""viewing_time"":7733}]","7733","","","","",""
"true","","","","","fullscreen","3","1197510","0.0-3.0","729ACAFAB83D418AB76F99AF4BFCF926","729ACAFAB83D418AB76F99AF4BFCF926","19bbb3f9-8713-43be-85d7-880aa81f57fa","9076ac92-be42-43a2-9634-8b67c7fe93a7","{""num_scrambled_semantic"":""8"",""num_scrambled_causal"":""4"",""num_scrambled_schematic"":""4"",""participantId"":""729ACAFAB83D418AB76F99AF4BFCF926"",""assignmentId"":""19bbb3f9-8713-43be-85d7-880aa81f57fa"",""projectId"":""9076ac92-be42-43a2-9634-8b67c7fe93a7""}","https://test12345.live/?num_scrambled_semantic=8&num_scrambled_causal=4&num_scrambled_schematic=4&participantId=729ACAFAB83D418AB76F99AF4BFCF926&assignmentId=19bbb3f9-8713-43be-85d7-880aa81f57fa&projectId=9076ac92-be42-43a2-9634-8b67c7fe93a7","729ACAFAB83D418AB76F99AF4BFCF926-2025-05-22-19-52-47","","1682","","","","",""
"","","","","","initialize-microphone","4","1249401","0.0-4.0-0.0","729ACAFAB83D418AB76F99AF4BFCF926","729ACAFAB83D418AB76F99AF4BFCF926","19bbb3f9-8713-43be-85d7-880aa81f57fa","9076ac92-be42-43a2-9634-8b67c7fe93a7","{""num_scrambled_semantic"":""8"",""num_scrambled_causal"":""4"",""num_scrambled_schematic"":""4"",""participantId"":""729ACAFAB83D418AB76F99AF4BFCF926"",""assignmentId"":""19bbb3f9-8713-43be-85d7-880aa81f57fa"",""projectId"":""9076ac92-be42-43a2-9634-8b67c7fe93a7""}","https://test12345.live/?num_scrambled_semantic=8&num_scrambled_causal=4&num_scrambled_schematic=4&participantId=729ACAFAB83D418AB76F99AF4BFCF926&assignmentId=19bbb3f9-8713-43be-85d7-880aa81f57fa&projectId=9076ac92-be42-43a2-9634-8b67c7fe93a7","729ACAFAB83D418AB76F99AF4BFCF926-2025-05-22-19-52-47","","","a8e87056ce19c53b8c59f8ba822631b397e2f361819440819a6494d48d7aceca","","","",""
"","","","","","html-audio-response","5","1264475","0.0-4.0-1.0","729ACAFAB83D418AB76F99AF4BFCF926","729ACAFAB83D418AB76F99AF4BFCF926","19bbb3f9-8713-43be-85d7-880aa81f57fa","9076ac92-be42-43a2-9634-8b67c7fe93a7","{""num_scrambled_semantic"":""8"",""num_scrambled_causal"":""4"",""num_scrambled_schematic"":""4"",""participantId"":""729ACAFAB83D418AB76F99AF4BFCF926"",""assignmentId"":""19bbb3f9-8713-43be-85d7-880aa81f57fa"",""projectId"":""9076ac92-be42-43a2-9634-8b67c7fe93a7""}","https://test12345.live/?num_scrambled_semantic=8&num_scrambled_causal=4&num_scrambled_schematic=4&participantId=729ACAFAB83D418AB76F99AF4BFCF926&assignmentId=19bbb3f9-8713-43be-85d7-880aa81f57fa&projectId=9076ac92-be42-43a2-9634-8b67c7fe93a7","729ACAFAB83D418AB76F99AF4BFCF926-2025-05-22-19-52-47","","6277","","<span style=""color: red; font-size: 24px""> NOW RECORDING</span>
        <p>Please test Microphone</p>","","9",""
"","","","","","html-button-response","6","1266212","0.0-4.0-2.0","729ACAFAB83D418AB76F99AF4BFCF926","729ACAFAB83D418AB76F99AF4BFCF926","19bbb3f9-8713-43be-85d7-880aa81f57fa","9076ac92-be42-43a2-9634-8b67c7fe93a7","{""num_scrambled_semantic"":""8"",""num_scrambled_causal"":""4"",""num_scrambled_schematic"":""4"",""participantId"":""729ACAFAB83D418AB76F99AF4BFCF926"",""assignmentId"":""19bbb3f9-8713-43be-85d7-880aa81f57fa"",""projectId"":""9076ac92-be42-43a2-9634-8b67c7fe93a7""}","https://test12345.live/?num_scrambled_semantic=8&num_scrambled_causal=4&num_scrambled_schematic=4&participantId=729ACAFAB83D418AB76F99AF4BFCF926&assignmentId=19bbb3f9-8713-43be-85d7-880aa81f57fa&projectId=9076ac92-be42-43a2-9634-8b67c7fe93a7","729ACAFAB83D418AB76F99AF4BFCF926-2025-05-22-19-52-47","","1734","","<p style=""font-size:48px; color:red;"">Is Microphone OK?</p>","1","",""
"","","","","","instructions","7","1292264","0.0-5.0","729ACAFAB83D418AB76F99AF4BFCF926","729ACAFAB83D418AB76F99AF4BFCF926","19bbb3f9-8713-43be-85d7-880aa81f57fa","9076ac92-be42-43a2-9634-8b67c7fe93a7","{""num_scrambled_semantic"":""8"",""num_scrambled_causal"":""4"",""num_scrambled_schematic"":""4"",""participantId"":""729ACAFAB83D418AB76F99AF4BFCF926"",""assignmentId"":""19bbb3f9-8713-43be-85d7-880aa81f57fa"",""projectId"":""9076ac92-be42-43a2-9634-8b67c7fe93a7""}","https://test12345.live/?num_scrambled_semantic=8&num_scrambled_causal=4&num_scrambled_schematic=4&participantId=729ACAFAB83D418AB76F99AF4BFCF926&assignmentId=19bbb3f9-8713-43be-85d7-880aa81f57fa&projectId=9076ac92-be42-43a2-9634-8b67c7fe93a7","729ACAFAB83D418AB76F99AF4BFCF926-2025-05-22-19-52-47","[{""page_index"":0,""viewing_time"":6875},{""page_index"":1,""viewing_time"":19174}]","26050","","","","",""
"","","","","","image-button-response","8","1298272","0.0-6.0-0.0","729ACAFAB83D418AB76F99AF4BFCF926","729ACAFAB83D418AB76F99AF4BFCF926","19bbb3f9-8713-43be-85d7-880aa81f57fa","9076ac92-be42-43a2-9634-8b67c7fe93a7","{""num_scrambled_semantic"":""8"",""num_scrambled_causal"":""4"",""num_scrambled_schematic"":""4"",""participantId"":""729ACAFAB83D418AB76F99AF4BFCF926"",""assignmentId"":""19bbb3f9-8713-43be-85d7-880aa81f57fa"",""projectId"":""9076ac92-be42-43a2-9634-8b67c7fe93a7""}","https://test12345.live/?num_scrambled_semantic=8&num_scrambled_causal=4&num_scrambled_schematic=4&participantId=729ACAFAB83D418AB76F99AF4BFCF926&assignmentId=19bbb3f9-8713-43be-85d7-880aa81f57fa&projectId=9076ac92-be42-43a2-9634-8b67c7fe93a7","729ACAFAB83D418AB76F99AF4BFCF926-2025-05-22-19-52-47","","null","","images/instructions/movie_0.png","null","",""
"","","","","","image-button-response","9","1302774","0.0-6.0-1.0-0.0","729ACAFAB83D418AB76F99AF4BFCF926","729ACAFAB83D418AB76F99AF4BFCF926","19bbb3f9-8713-43be-85d7-880aa81f57fa","9076ac92-be42-43a2-9634-8b67c7fe93a7","{""num_scrambled_semantic"":""8"",""num_scrambled_causal"":""4"",""num_scrambled_schematic"":""4"",""participantId"":""729ACAFAB83D418AB76F99AF4BFCF926"",""assignmentId"":""19bbb3f9-8713-43be-85d7-880aa81f57fa"",""projectId"":""9076ac92-be42-43a2-9634-8b67c7fe93a7""}","https://test12345.live/?num_scrambled_semantic=8&num_scrambled_causal=4&num_scrambled_schematic=4&participantId=729ACAFAB83D418AB76F99AF4BFCF926&assignmentId=19bbb3f9-8713-43be-85d7-880aa81f57fa&projectId=9076ac92-be42-43a2-9634-8b67c7fe93a7","729ACAFAB83D418AB76F99AF4BFCF926-2025-05-22-19-52-47","","null","","images/instructions/movie_1.png","null","",""
"","","","","","image-button-response","10","1306562","0.0-6.0-1.0-1.0","729ACAFAB83D418AB76F99AF4BFCF926","729ACAFAB83D418AB76F99AF4BFCF926","19bbb3f9-8713-43be-85d7-880aa81f57fa","9076ac92-be42-43a2-9634-8b67c7fe93a7","{""num_scrambled_semantic"":""8"",""num_scrambled_causal"":""4"",""num_scrambled_schematic"":""4"",""participantId"":""729ACAFAB83D418AB76F99AF4BFCF926"",""assignmentId"":""19bbb3f9-8713-43be-85d7-880aa81f57fa"",""projectId"":""9076ac92-be42-43a2-9634-8b67c7fe93a7""}","https://test12345.live/?num_scrambled_semantic=8&num_scrambled_causal=4&num_scrambled_schematic=4&participantId=729ACAFAB83D418AB76F99AF4BFCF926&assignmentId=19bbb3f9-8713-43be-85d7-880aa81f57fa&projectId=9076ac92-be42-43a2-9634-8b67c7fe93a7","729ACAFAB83D418AB76F99AF4BFCF926-2025-05-22-19-52-47","","3786","","images/instructions/movie_1.png","0","",""
"","","","","","image-button-response","11","1308365","0.0-6.0-1.0-2.0","729ACAFAB83D418AB76F99AF4BFCF926","729ACAFAB83D418AB76F99AF4BFCF926","19bbb3f9-8713-43be-85d7-880aa81f57fa","9076ac92-be42-43a2-9634-8b67c7fe93a7","{""num_scrambled_semantic"":""8"",""num_scrambled_causal"":""4"",""num_scrambled_schematic"":""4"",""participantId"":""729ACAFAB83D418AB76F99AF4BFCF926"",""assignmentId"":""19bbb3f9-8713-43be-85d7-880aa81f57fa"",""projectId"":""9076ac92-be42-43a2-9634-8b67c7fe93a7""}","https://test12345.live/?num_scrambled_semantic=8&num_scrambled_causal=4&num_scrambled_schematic=4&participantId=729ACAFAB83D418AB76F99AF4BFCF926&assignmentId=19bbb3f9-8713-43be-85d7-880aa81f57fa&projectId=9076ac92-be42-43a2-9634-8b67c7fe93a7","729ACAFAB83D418AB76F99AF4BFCF926-2025-05-22-19-52-47","","null","","[]","null","",""
"","","","","","image-button-response","12","1312866","0.0-6.0-1.0-0.1","729ACAFAB83D418AB76F99AF4BFCF926","729ACAFAB83D418AB76F99AF4BFCF926","19bbb3f9-8713-43be-85d7-880aa81f57fa","9076ac92-be42-43a2-9634-8b67c7fe93a7","{""num_scrambled_semantic"":""8"",""num_scrambled_causal"":""4"",""num_scrambled_schematic"":""4"",""participantId"":""729ACAFAB83D418AB76F99AF4BFCF926"",""assignmentId"":""19bbb3f9-8713-43be-85d7-880aa81f57fa"",""projectId"":""9076ac92-be42-43a2-9634-8b67c7fe93a7""}","https://test12345.live/?num_scrambled_semantic=8&num_scrambled_causal=4&num_scrambled_schematic=4&participantId=729ACAFAB83D418AB76F99AF4BFCF926&assignmentId=19bbb3f9-8713-43be-85d7-880aa81f57fa&projectId=9076ac92-be42-43a2-9634-8b67c7fe93a7","729ACAFAB83D418AB76F99AF4BFCF926-2025-05-22-19-52-47","","null","","images/instructions/movie_2.png","null","",""
"","","","","","image-button-response","13","1314877","0.0-6.0-1.0-1.1","729ACAFAB83D418AB76F99AF4BFCF926","729ACAFAB83D418AB76F99AF4BFCF926","19bbb3f9-8713-43be-85d7-880aa81f57fa","9076ac92-be42-43a2-9634-8b67c7fe93a7","{""num_scrambled_semantic"":""8"",""num_scrambled_causal"":""4"",""num_scrambled_schematic"":""4"",""participantId"":""729ACAFAB83D418AB76F99AF4BFCF926"",""assignmentId"":""19bbb3f9-8713-43be-85d7-880aa81f57fa"",""projectId"":""9076ac92-be42-43a2-9634-8b67c7fe93a7""}","https://test12345.live/?num_scrambled_semantic=8&num_scrambled_causal=4&num_scrambled_schematic=4&participantId=729ACAFAB83D418AB76F99AF4BFCF926&assignmentId=19bbb3f9-8713-43be-85d7-880aa81f57fa&projectId=9076ac92-be42-43a2-9634-8b67c7fe93a7","729ACAFAB83D418AB76F99AF4BFCF926-2025-05-22-19-52-47","","2009","","images/instructions/movie_2.png","1","",""
"","","","","","image-button-response","14","1316679","0.0-6.0-1.0-2.1","729ACAFAB83D418AB76F99AF4BFCF926","729ACAFAB83D418AB76F99AF4BFCF926","19bbb3f9-8713-43be-85d7-880aa81f57fa","9076ac92-be42-43a2-9634-8b67c7fe93a7","{""num_scrambled_semantic"":""8"",""num_scrambled_causal"":""4"",""num_scrambled_schematic"":""4"",""participantId"":""729ACAFAB83D418AB76F99AF4BFCF926"",""assignmentId"":""19bbb3f9-8713-43be-85d7-880aa81f57fa"",""projectId"":""9076ac92-be42-43a2-9634-8b67c7fe93a7""}","https://test12345.live/?num_scrambled_semantic=8&num_scrambled_causal=4&num_scrambled_schematic=4&participantId=729ACAFAB83D418AB76F99AF4BFCF926&assignmentId=19bbb3f9-8713-43be-85d7-880aa81f57fa&projectId=9076ac92-be42-43a2-9634-8b67c7fe93a7","729ACAFAB83D418AB76F99AF4BFCF926-2025-05-22-19-52-47","","null","","[]","null","",""
"","","","","","image-button-response","15","1321180","0.0-6.0-1.0-0.2","729ACAFAB83D418AB76F99AF4BFCF926","729ACAFAB83D418AB76F99AF4BFCF926","19bbb3f9-8713-43be-85d7-880aa81f57fa","9076ac92-be42-43a2-9634-8b67c7fe93a7","{""num_scrambled_semantic"":""8"",""num_scrambled_causal"":""4"",""num_scrambled_schematic"":""4"",""participantId"":""729ACAFAB83D418AB76F99AF4BFCF926"",""assignmentId"":""19bbb3f9-8713-43be-85d7-880aa81f57fa"",""projectId"":""9076ac92-be42-43a2-9634-8b67c7fe93a7""}","https://test12345.live/?num_scrambled_semantic=8&num_scrambled_causal=4&num_scrambled_schematic=4&participantId=729ACAFAB83D418AB76F99AF4BFCF926&assignmentId=19bbb3f9-8713-43be-85d7-880aa81f57fa&projectId=9076ac92-be42-43a2-9634-8b67c7fe93a7","729ACAFAB83D418AB76F99AF4BFCF926-2025-05-22-19-52-47","","null","","images/instructions/movie_3.png","null","",""
"","","","","","image-button-response","16","1322275","0.0-6.0-1.0-1.2","729ACAFAB83D418AB76F99AF4BFCF926","729ACAFAB83D418AB76F99AF4BFCF926","19bbb3f9-8713-43be-85d7-880aa81f57fa","9076ac92-be42-43a2-9634-8b67c7fe93a7","{""num_scrambled_semantic"":""8"",""num_scrambled_causal"":""4"",""num_scrambled_schematic"":""4"",""participantId"":""729ACAFAB83D418AB76F99AF4BFCF926"",""assignmentId"":""19bbb3f9-8713-43be-85d7-880aa81f57fa"",""projectId"":""9076ac92-be42-43a2-9634-8b67c7fe93a7""}","https://test12345.live/?num_scrambled_semantic=8&num_scrambled_causal=4&num_scrambled_schematic=4&participantId=729ACAFAB83D418AB76F99AF4BFCF926&assignmentId=19bbb3f9-8713-43be-85d7-880aa81f57fa&projectId=9076ac92-be42-43a2-9634-8b67c7fe93a7","729ACAFAB83D418AB76F99AF4BFCF926-2025-05-22-19-52-47","","1093","","images/instructions/movie_3.png","0","",""
"","","","","","image-button-response","17","1324077","0.0-6.0-1.0-2.2","729ACAFAB83D418AB76F99AF4BFCF926","729ACAFAB83D418AB76F99AF4BFCF926","19bbb3f9-8713-43be-85d7-880aa81f57fa","9076ac92-be42-43a2-9634-8b67c7fe93a7","{""num_scrambled_semantic"":""8"",""num_scrambled_causal"":""4"",""num_scrambled_schematic"":""4"",""participantId"":""729ACAFAB83D418AB76F99AF4BFCF926"",""assignmentId"":""19bbb3f9-8713-43be-85d7-880aa81f57fa"",""projectId"":""9076ac92-be42-43a2-9634-8b67c7fe93a7""}","https://test12345.live/?num_scrambled_semantic=8&num_scrambled_causal=4&num_scrambled_schematic=4&participantId=729ACAFAB83D418AB76F99AF4BFCF926&assignmentId=19bbb3f9-8713-43be-85d7-880aa81f57fa&projectId=9076ac92-be42-43a2-9634-8b67c7fe93a7","729ACAFAB83D418AB76F99AF4BFCF926-2025-05-22-19-52-47","","null","","[]","null","",""
"","","","","","image-button-response","18","1328578","0.0-6.0-1.0-0.3","729ACAFAB83D418AB76F99AF4BFCF926","729ACAFAB83D418AB76F99AF4BFCF926","19bbb3f9-8713-43be-85d7-880aa81f57fa","9076ac92-be42-43a2-9634-8b67c7fe93a7","{""num_scrambled_semantic"":""8"",""num_scrambled_causal"":""4"",""num_scrambled_schematic"":""4"",""participantId"":""729ACAFAB83D418AB76F99AF4BFCF926"",""assignmentId"":""19bbb3f9-8713-43be-85d7-880aa81f57fa"",""projectId"":""9076ac92-be42-43a2-9634-8b67c7fe93a7""}","https://test12345.live/?num_scrambled_semantic=8&num_scrambled_causal=4&num_scrambled_schematic=4&participantId=729ACAFAB83D418AB76F99AF4BFCF926&assignmentId=19bbb3f9-8713-43be-85d7-880aa81f57fa&projectId=9076ac92-be42-43a2-9634-8b67c7fe93a7","729ACAFAB83D418AB76F99AF4BFCF926-2025-05-22-19-52-47","","null","","images/instructions/movie_4.png","null","",""
"","","","","","image-button-response","19","1329793","0.0-6.0-1.0-1.3","729ACAFAB83D418AB76F99AF4BFCF926","729ACAFAB83D418AB76F99AF4BFCF926","19bbb3f9-8713-43be-85d7-880aa81f57fa","9076ac92-be42-43a2-9634-8b67c7fe93a7","{""num_scrambled_semantic"":""8"",""num_scrambled_causal"":""4"",""num_scrambled_schematic"":""4"",""participantId"":""729ACAFAB83D418AB76F99AF4BFCF926"",""assignmentId"":""19bbb3f9-8713-43be-85d7-880aa81f57fa"",""projectId"":""9076ac92-be42-43a2-9634-8b67c7fe93a7""}","https://test12345.live/?num_scrambled_semantic=8&num_scrambled_causal=4&num_scrambled_schematic=4&participantId=729ACAFAB83D418AB76F99AF4BFCF926&assignmentId=19bbb3f9-8713-43be-85d7-880aa81f57fa&projectId=9076ac92-be42-43a2-9634-8b67c7fe93a7","729ACAFAB83D418AB76F99AF4BFCF926-2025-05-22-19-52-47","","1213","","images/instructions/movie_4.png","0","",""
"","","","","","image-button-response","20","1331595","0.0-6.0-1.0-2.3","729ACAFAB83D418AB76F99AF4BFCF926","729ACAFAB83D418AB76F99AF4BFCF926","19bbb3f9-8713-43be-85d7-880aa81f57fa","9076ac92-be42-43a2-9634-8b67c7fe93a7","{""num_scrambled_semantic"":""8"",""num_scrambled_causal"":""4"",""num_scrambled_schematic"":""4"",""participantId"":""729ACAFAB83D418AB76F99AF4BFCF926"",""assignmentId"":""19bbb3f9-8713-43be-85d7-880aa81f57fa"",""projectId"":""9076ac92-be42-43a2-9634-8b67c7fe93a7""}","https://test12345.live/?num_scrambled_semantic=8&num_scrambled_causal=4&num_scrambled_schematic=4&participantId=729ACAFAB83D418AB76F99AF4BFCF926&assignmentId=19bbb3f9-8713-43be-85d7-880aa81f57fa&projectId=9076ac92-be42-43a2-9634-8b67c7fe93a7","729ACAFAB83D418AB76F99AF4BFCF926-2025-05-22-19-52-47","","null","","[]","null","",""
"","","","","","instructions","21","1350191","0.0-7.0","729ACAFAB83D418AB76F99AF4BFCF926","729ACAFAB83D418AB76F99AF4BFCF926","19bbb3f9-8713-43be-85d7-880aa81f57fa","9076ac92-be42-43a2-9634-8b67c7fe93a7","{""num_scrambled_semantic"":""8"",""num_scrambled_causal"":""4"",""num_scrambled_schematic"":""4"",""participantId"":""729ACAFAB83D418AB76F99AF4BFCF926"",""assignmentId"":""19bbb3f9-8713-43be-85d7-880aa81f57fa"",""projectId"":""9076ac92-be42-43a2-9634-8b67c7fe93a7""}","https://test12345.live/?num_scrambled_semantic=8&num_scrambled_causal=4&num_scrambled_schematic=4&participantId=729ACAFAB83D418AB76F99AF4BFCF926&assignmentId=19bbb3f9-8713-43be-85d7-880aa81f57fa&projectId=9076ac92-be42-43a2-9634-8b67c7fe93a7","729ACAFAB83D418AB76F99AF4BFCF926-2025-05-22-19-52-47","[{""page_index"":0,""viewing_time"":17090},{""page_index"":1,""viewing_time"":1504}]","18595","","","","",""
"","","","","","html-audio-response","22","1379234","0.0-8.0","729ACAFAB83D418AB76F99AF4BFCF926","729ACAFAB83D418AB76F99AF4BFCF926","19bbb3f9-8713-43be-85d7-880aa81f57fa","9076ac92-be42-43a2-9634-8b67c7fe93a7","{""num_scrambled_semantic"":""8"",""num_scrambled_causal"":""4"",""num_scrambled_schematic"":""4"",""participantId"":""729ACAFAB83D418AB76F99AF4BFCF926"",""assignmentId"":""19bbb3f9-8713-43be-85d7-880aa81f57fa"",""projectId"":""9076ac92-be42-43a2-9634-8b67c7fe93a7""}","https://test12345.live/?num_scrambled_semantic=8&num_scrambled_causal=4&num_scrambled_schematic=4&participantId=729ACAFAB83D418AB76F99AF4BFCF926&assignmentId=19bbb3f9-8713-43be-85d7-880aa81f57fa&projectId=9076ac92-be42-43a2-9634-8b67c7fe93a7","729ACAFAB83D418AB76F99AF4BFCF926-2025-05-22-19-52-47","","26519","","[""<span style=\""color: red; font-size: 24px\""> NOW RECORDING</span><p>Please say out loud all the images you saw in the exact order you saw them. Try to recall as many images as you can, but remember: getting the order right is more important than the number of images you recall.</p>""]","","3",""
"","","","","","instructions","23","1382962","0.0-9.0","729ACAFAB83D418AB76F99AF4BFCF926","729ACAFAB83D418AB76F99AF4BFCF926","19bbb3f9-8713-43be-85d7-880aa81f57fa","9076ac92-be42-43a2-9634-8b67c7fe93a7","{""num_scrambled_semantic"":""8"",""num_scrambled_causal"":""4"",""num_scrambled_schematic"":""4"",""participantId"":""729ACAFAB83D418AB76F99AF4BFCF926"",""assignmentId"":""19bbb3f9-8713-43be-85d7-880aa81f57fa"",""projectId"":""9076ac92-be42-43a2-9634-8b67c7fe93a7""}","https://test12345.live/?num_scrambled_semantic=8&num_scrambled_causal=4&num_scrambled_schematic=4&participantId=729ACAFAB83D418AB76F99AF4BFCF926&assignmentId=19bbb3f9-8713-43be-85d7-880aa81f57fa&projectId=9076ac92-be42-43a2-9634-8b67c7fe93a7","729ACAFAB83D418AB76F99AF4BFCF926-2025-05-22-19-52-47","[{""page_index"":0,""viewing_time"":3714}]","3714","","","","",""
"","","","","","image-button-response","24","1388964","0.0-10.0-0.0","729ACAFAB83D418AB76F99AF4BFCF926","729ACAFAB83D418AB76F99AF4BFCF926","19bbb3f9-8713-43be-85d7-880aa81f57fa","9076ac92-be42-43a2-9634-8b67c7fe93a7","{""num_scrambled_semantic"":""8"",""num_scrambled_causal"":""4"",""num_scrambled_schematic"":""4"",""participantId"":""729ACAFAB83D418AB76F99AF4BFCF926"",""assignmentId"":""19bbb3f9-8713-43be-85d7-880aa81f57fa"",""projectId"":""9076ac92-be42-43a2-9634-8b67c7fe93a7""}","https://test12345.live/?num_scrambled_semantic=8&num_scrambled_causal=4&num_scrambled_schematic=4&participantId=729ACAFAB83D418AB76F99AF4BFCF926&assignmentId=19bbb3f9-8713-43be-85d7-880aa81f57fa&projectId=9076ac92-be42-43a2-9634-8b67c7fe93a7","729ACAFAB83D418AB76F99AF4BFCF926-2025-05-22-19-52-47","","null","","images/semantic_sequence/exploring_nature_semantic/exploring_nature_semantic_0.png","null","",""
"","","","","","image-button-response","25","1393466","0.0-10.0-1.0-0.0","729ACAFAB83D418AB76F99AF4BFCF926","729ACAFAB83D418AB76F99AF4BFCF926","19bbb3f9-8713-43be-85d7-880aa81f57fa","9076ac92-be42-43a2-9634-8b67c7fe93a7","{""num_scrambled_semantic"":""8"",""num_scrambled_causal"":""4"",""num_scrambled_schematic"":""4"",""participantId"":""729ACAFAB83D418AB76F99AF4BFCF926"",""assignmentId"":""19bbb3f9-8713-43be-85d7-880aa81f57fa"",""projectId"":""9076ac92-be42-43a2-9634-8b67c7fe93a7""}","https://test12345.live/?num_scrambled_semantic=8&num_scrambled_causal=4&num_scrambled_schematic=4&participantId=729ACAFAB83D418AB76F99AF4BFCF926&assignmentId=19bbb3f9-8713-43be-85d7-880aa81f57fa&projectId=9076ac92-be42-43a2-9634-8b67c7fe93a7","729ACAFAB83D418AB76F99AF4BFCF926-2025-05-22-19-52-47","","null","","images/semantic_sequence/exploring_nature_semantic/exploring_nature_semantic_1.png","null","",""
"","","","","","image-button-response","26","1395848","0.0-10.0-1.0-1.0","729ACAFAB83D418AB76F99AF4BFCF926","729ACAFAB83D418AB76F99AF4BFCF926","19bbb3f9-8713-43be-85d7-880aa81f57fa","9076ac92-be42-43a2-9634-8b67c7fe93a7","{""num_scrambled_semantic"":""8"",""num_scrambled_causal"":""4"",""num_scrambled_schematic"":""4"",""participantId"":""729ACAFAB83D418AB76F99AF4BFCF926"",""assignmentId"":""19bbb3f9-8713-43be-85d7-880aa81f57fa"",""projectId"":""9076ac92-be42-43a2-9634-8b67c7fe93a7""}","https://test12345.live/?num_scrambled_semantic=8&num_scrambled_causal=4&num_scrambled_schematic=4&participantId=729ACAFAB83D418AB76F99AF4BFCF926&assignmentId=19bbb3f9-8713-43be-85d7-880aa81f57fa&projectId=9076ac92-be42-43a2-9634-8b67c7fe93a7","729ACAFAB83D418AB76F99AF4BFCF926-2025-05-22-19-52-47","","2381","","images/semantic_sequence/exploring_nature_semantic/exploring_nature_semantic_1.png","0","",""
"","","","","","image-button-response","27","1397650","0.0-10.0-1.0-2.0","729ACAFAB83D418AB76F99AF4BFCF926","729ACAFAB83D418AB76F99AF4BFCF926","19bbb3f9-8713-43be-85d7-880aa81f57fa","9076ac92-be42-43a2-9634-8b67c7fe93a7","{""num_scrambled_semantic"":""8"",""num_scrambled_causal"":""4"",""num_scrambled_schematic"":""4"",""participantId"":""729ACAFAB83D418AB76F99AF4BFCF926"",""assignmentId"":""19bbb3f9-8713-43be-85d7-880aa81f57fa"",""projectId"":""9076ac92-be42-43a2-9634-8b67c7fe93a7""}","https://test12345.live/?num_scrambled_semantic=8&num_scrambled_causal=4&num_scrambled_schematic=4&participantId=729ACAFAB83D418AB76F99AF4BFCF926&assignmentId=19bbb3f9-8713-43be-85d7-880aa81f57fa&projectId=9076ac92-be42-43a2-9634-8b67c7fe93a7","729ACAFAB83D418AB76F99AF4BFCF926-2025-05-22-19-52-47","","null","","[]","null","",""
"","","","","","image-button-response","28","1402151","0.0-10.0-1.0-0.1","729ACAFAB83D418AB76F99AF4BFCF926","729ACAFAB83D418AB76F99AF4BFCF926","19bbb3f9-8713-43be-85d7-880aa81f57fa","9076ac92-be42-43a2-9634-8b67c7fe93a7","{""num_scrambled_semantic"":""8"",""num_scrambled_causal"":""4"",""num_scrambled_schematic"":""4"",""participantId"":""729ACAFAB83D418AB76F99AF4BFCF926"",""assignmentId"":""19bbb3f9-8713-43be-85d7-880aa81f57fa"",""projectId"":""9076ac92-be42-43a2-9634-8b67c7fe93a7""}","https://test12345.live/?num_scrambled_semantic=8&num_scrambled_causal=4&num_scrambled_schematic=4&participantId=729ACAFAB83D418AB76F99AF4BFCF926&assignmentId=19bbb3f9-8713-43be-85d7-880aa81f57fa&projectId=9076ac92-be42-43a2-9634-8b67c7fe93a7","729ACAFAB83D418AB76F99AF4BFCF926-2025-05-22-19-52-47","","null","","images/semantic_sequence/exploring_nature_semantic/exploring_nature_semantic_2.png","null","",""
"","","","","","image-button-response","29","1406154","0.0-10.0-1.0-1.1","729ACAFAB83D418AB76F99AF4BFCF926","729ACAFAB83D418AB76F99AF4BFCF926","19bbb3f9-8713-43be-85d7-880aa81f57fa","9076ac92-be42-43a2-9634-8b67c7fe93a7","{""num_scrambled_semantic"":""8"",""num_scrambled_causal"":""4"",""num_scrambled_schematic"":""4"",""participantId"":""729ACAFAB83D418AB76F99AF4BFCF926"",""assignmentId"":""19bbb3f9-8713-43be-85d7-880aa81f57fa"",""projectId"":""9076ac92-be42-43a2-9634-8b67c7fe93a7""}","https://test12345.live/?num_scrambled_semantic=8&num_scrambled_causal=4&num_scrambled_schematic=4&participantId=729ACAFAB83D418AB76F99AF4BFCF926&assignmentId=19bbb3f9-8713-43be-85d7-880aa81f57fa&projectId=9076ac92-be42-43a2-9634-8b67c7fe93a7","729ACAFAB83D418AB76F99AF4BFCF926-2025-05-22-19-52-47","","null","","images/semantic_sequence/exploring_nature_semantic/exploring_nature_semantic_2.png","null","",""
"","","","","","image-button-response","30","1407957","0.0-10.0-1.0-2.1","729ACAFAB83D418AB76F99AF4BFCF926","729ACAFAB83D418AB76F99AF4BFCF926","19bbb3f9-8713-43be-85d7-880aa81f57fa","9076ac92-be42-43a2-9634-8b67c7fe93a7","{""num_scrambled_semantic"":""8"",""num_scrambled_causal"":""4"",""num_scrambled_schematic"":""4"",""participantId"":""729ACAFAB83D418AB76F99AF4BFCF926"",""assignmentId"":""19bbb3f9-8713-43be-85d7-880aa81f57fa"",""projectId"":""9076ac92-be42-43a2-9634-8b67c7fe93a7""}","https://test12345.live/?num_scrambled_semantic=8&num_scrambled_causal=4&num_scrambled_schematic=4&participantId=729ACAFAB83D418AB76F99AF4BFCF926&assignmentId=19bbb3f9-8713-43be-85d7-880aa81f57fa&projectId=9076ac92-be42-43a2-9634-8b67c7fe93a7","729ACAFAB83D418AB76F99AF4BFCF926-2025-05-22-19-52-47","","null","","[]","null","",""
"","","","","","image-button-response","31","1412457","0.0-10.0-1.0-0.2","729ACAFAB83D418AB76F99AF4BFCF926","729ACAFAB83D418AB76F99AF4BFCF926","19bbb3f9-8713-43be-85d7-880aa81f57fa","9076ac92-be42-43a2-9634-8b67c7fe93a7","{""num_scrambled_semantic"":""8"",""num_scrambled_causal"":""4"",""num_scrambled_schematic"":""4"",""participantId"":""729ACAFAB83D418AB76F99AF4BFCF926"",""assignmentId"":""19bbb3f9-8713-43be-85d7-880aa81f57fa"",""projectId"":""9076ac92-be42-43a2-9634-8b67c7fe93a7""}","https://test12345.live/?num_scrambled_semantic=8&num_scrambled_causal=4&num_scrambled_schematic=4&participantId=729ACAFAB83D418AB76F99AF4BFCF926&assignmentId=19bbb3f9-8713-43be-85d7-880aa81f57fa&projectId=9076ac92-be42-43a2-9634-8b67c7fe93a7","729ACAFAB83D418AB76F99AF4BFCF926-2025-05-22-19-52-47","","null","","images/semantic_sequence/exploring_nature_semantic/exploring_nature_semantic_3.png","null","",""
"","","","","","image-button-response","32","1414893","0.0-10.0-1.0-1.2","729ACAFAB83D418AB76F99AF4BFCF926","729ACAFAB83D418AB76F99AF4BFCF926","19bbb3f9-8713-43be-85d7-880aa81f57fa","9076ac92-be42-43a2-9634-8b67c7fe93a7","{""num_scrambled_semantic"":""8"",""num_scrambled_causal"":""4"",""num_scrambled_schematic"":""4"",""participantId"":""729ACAFAB83D418AB76F99AF4BFCF926"",""assignmentId"":""19bbb3f9-8713-43be-85d7-880aa81f57fa"",""projectId"":""9076ac92-be42-43a2-9634-8b67c7fe93a7""}","https://test12345.live/?num_scrambled_semantic=8&num_scrambled_causal=4&num_scrambled_schematic=4&participantId=729ACAFAB83D418AB76F99AF4BFCF926&assignmentId=19bbb3f9-8713-43be-85d7-880aa81f57fa&projectId=9076ac92-be42-43a2-9634-8b67c7fe93a7","729ACAFAB83D418AB76F99AF4BFCF926-2025-05-22-19-52-47","","2434","","images/semantic_sequence/exploring_nature_semantic/exploring_nature_semantic_3.png","0","",""
"","","","","","image-button-response","33","1416695","0.0-10.0-1.0-2.2","729ACAFAB83D418AB76F99AF4BFCF926","729ACAFAB83D418AB76F99AF4BFCF926","19bbb3f9-8713-43be-85d7-880aa81f57fa","9076ac92-be42-43a2-9634-8b67c7fe93a7","{""num_scrambled_semantic"":""8"",""num_scrambled_causal"":""4"",""num_scrambled_schematic"":""4"",""participantId"":""729ACAFAB83D418AB76F99AF4BFCF926"",""assignmentId"":""19bbb3f9-8713-43be-85d7-880aa81f57fa"",""projectId"":""9076ac92-be42-43a2-9634-8b67c7fe93a7""}","https://test12345.live/?num_scrambled_semantic=8&num_scrambled_causal=4&num_scrambled_schematic=4&participantId=729ACAFAB83D418AB76F99AF4BFCF926&assignmentId=19bbb3f9-8713-43be-85d7-880aa81f57fa&projectId=9076ac92-be42-43a2-9634-8b67c7fe93a7","729ACAFAB83D418AB76F99AF4BFCF926-2025-05-22-19-52-47","","null","","[]","null","",""
"","","","","","image-button-response","34","1421196","0.0-10.0-1.0-0.3","729ACAFAB83D418AB76F99AF4BFCF926","729ACAFAB83D418AB76F99AF4BFCF926","19bbb3f9-8713-43be-85d7-880aa81f57fa","9076ac92-be42-43a2-9634-8b67c7fe93a7","{""num_scrambled_semantic"":""8"",""num_scrambled_causal"":""4"",""num_scrambled_schematic"":""4"",""participantId"":""729ACAFAB83D418AB76F99AF4BFCF926"",""assignmentId"":""19bbb3f9-8713-43be-85d7-880aa81f57fa"",""projectId"":""9076ac92-be42-43a2-9634-8b67c7fe93a7""}","https://test12345.live/?num_scrambled_semantic=8&num_scrambled_causal=4&num_scrambled_schematic=4&participantId=729ACAFAB83D418AB76F99AF4BFCF926&assignmentId=19bbb3f9-8713-43be-85d7-880aa81f57fa&projectId=9076ac92-be42-43a2-9634-8b67c7fe93a7","729ACAFAB83D418AB76F99AF4BFCF926-2025-05-22-19-52-47","","null","","images/semantic_sequence/exploring_nature_semantic/exploring_nature_semantic_4.png","null","",""
"","","","","","image-button-response","35","1422937","0.0-10.0-1.0-1.3","729ACAFAB83D418AB76F99AF4BFCF926","729ACAFAB83D418AB76F99AF4BFCF926","19bbb3f9-8713-43be-85d7-880aa81f57fa","9076ac92-be42-43a2-9634-8b67c7fe93a7","{""num_scrambled_semantic"":""8"",""num_scrambled_causal"":""4"",""num_scrambled_schematic"":""4"",""participantId"":""729ACAFAB83D418AB76F99AF4BFCF926"",""assignmentId"":""19bbb3f9-8713-43be-85d7-880aa81f57fa"",""projectId"":""9076ac92-be42-43a2-9634-8b67c7fe93a7""}","https://test12345.live/?num_scrambled_semantic=8&num_scrambled_causal=4&num_scrambled_schematic=4&participantId=729ACAFAB83D418AB76F99AF4BFCF926&assignmentId=19bbb3f9-8713-43be-85d7-880aa81f57fa&projectId=9076ac92-be42-43a2-9634-8b67c7fe93a7","729ACAFAB83D418AB76F99AF4BFCF926-2025-05-22-19-52-47","","1739","","images/semantic_sequence/exploring_nature_semantic/exploring_nature_semantic_4.png","0","",""
"","","","","","image-button-response","36","1424739","0.0-10.0-1.0-2.3","729ACAFAB83D418AB76F99AF4BFCF926","729ACAFAB83D418AB76F99AF4BFCF926","19bbb3f9-8713-43be-85d7-880aa81f57fa","9076ac92-be42-43a2-9634-8b67c7fe93a7","{""num_scrambled_semantic"":""8"",""num_scrambled_causal"":""4"",""num_scrambled_schematic"":""4"",""participantId"":""729ACAFAB83D418AB76F99AF4BFCF926"",""assignmentId"":""19bbb3f9-8713-43be-85d7-880aa81f57fa"",""projectId"":""9076ac92-be42-43a2-9634-8b67c7fe93a7""}","https://test12345.live/?num_scrambled_semantic=8&num_scrambled_causal=4&num_scrambled_schematic=4&participantId=729ACAFAB83D418AB76F99AF4BFCF926&assignmentId=19bbb3f9-8713-43be-85d7-880aa81f57fa&projectId=9076ac92-be42-43a2-9634-8b67c7fe93a7","729ACAFAB83D418AB76F99AF4BFCF926-2025-05-22-19-52-47","","null","","[]","null","",""
"","","","","","image-button-response","37","1429239","0.0-10.0-1.0-0.4","729ACAFAB83D418AB76F99AF4BFCF926","729ACAFAB83D418AB76F99AF4BFCF926","19bbb3f9-8713-43be-85d7-880aa81f57fa","9076ac92-be42-43a2-9634-8b67c7fe93a7","{""num_scrambled_semantic"":""8"",""num_scrambled_causal"":""4"",""num_scrambled_schematic"":""4"",""participantId"":""729ACAFAB83D418AB76F99AF4BFCF926"",""assignmentId"":""19bbb3f9-8713-43be-85d7-880aa81f57fa"",""projectId"":""9076ac92-be42-43a2-9634-8b67c7fe93a7""}","https://test12345.live/?num_scrambled_semantic=8&num_scrambled_causal=4&num_scrambled_schematic=4&participantId=729ACAFAB83D418AB76F99AF4BFCF926&assignmentId=19bbb3f9-8713-43be-85d7-880aa81f57fa&projectId=9076ac92-be42-43a2-9634-8b67c7fe93a7","729ACAFAB83D418AB76F99AF4BFCF926-2025-05-22-19-52-47","","null","","images/semantic_sequence/exploring_nature_semantic/exploring_nature_semantic_5.png","null","",""
"","","","","","image-button-response","38","1429988","0.0-10.0-1.0-1.4","729ACAFAB83D418AB76F99AF4BFCF926","729ACAFAB83D418AB76F99AF4BFCF926","19bbb3f9-8713-43be-85d7-880aa81f57fa","9076ac92-be42-43a2-9634-8b67c7fe93a7","{""num_scrambled_semantic"":""8"",""num_scrambled_causal"":""4"",""num_scrambled_schematic"":""4"",""participantId"":""729ACAFAB83D418AB76F99AF4BFCF926"",""assignmentId"":""19bbb3f9-8713-43be-85d7-880aa81f57fa"",""projectId"":""9076ac92-be42-43a2-9634-8b67c7fe93a7""}","https://test12345.live/?num_scrambled_semantic=8&num_scrambled_causal=4&num_scrambled_schematic=4&participantId=729ACAFAB83D418AB76F99AF4BFCF926&assignmentId=19bbb3f9-8713-43be-85d7-880aa81f57fa&projectId=9076ac92-be42-43a2-9634-8b67c7fe93a7","729ACAFAB83D418AB76F99AF4BFCF926-2025-05-22-19-52-47","","747","","images/semantic_sequence/exploring_nature_semantic/exploring_nature_semantic_5.png","0","",""
"","","","","","image-button-response","39","1431790","0.0-10.0-1.0-2.4","729ACAFAB83D418AB76F99AF4BFCF926","729ACAFAB83D418AB76F99AF4BFCF926","19bbb3f9-8713-43be-85d7-880aa81f57fa","9076ac92-be42-43a2-9634-8b67c7fe93a7","{""num_scrambled_semantic"":""8"",""num_scrambled_causal"":""4"",""num_scrambled_schematic"":""4"",""participantId"":""729ACAFAB83D418AB76F99AF4BFCF926"",""assignmentId"":""19bbb3f9-8713-43be-85d7-880aa81f57fa"",""projectId"":""9076ac92-be42-43a2-9634-8b67c7fe93a7""}","https://test12345.live/?num_scrambled_semantic=8&num_scrambled_causal=4&num_scrambled_schematic=4&participantId=729ACAFAB83D418AB76F99AF4BFCF926&assignmentId=19bbb3f9-8713-43be-85d7-880aa81f57fa&projectId=9076ac92-be42-43a2-9634-8b67c7fe93a7","729ACAFAB83D418AB76F99AF4BFCF926-2025-05-22-19-52-47","","null","","[]","null","",""
"","","","","","image-button-response","40","1436291","0.0-10.0-1.0-0.5","729ACAFAB83D418AB76F99AF4BFCF926","729ACAFAB83D418AB76F99AF4BFCF926","19bbb3f9-8713-43be-85d7-880aa81f57fa","9076ac92-be42-43a2-9634-8b67c7fe93a7","{""num_scrambled_semantic"":""8"",""num_scrambled_causal"":""4"",""num_scrambled_schematic"":""4"",""participantId"":""729ACAFAB83D418AB76F99AF4BFCF926"",""assignmentId"":""19bbb3f9-8713-43be-85d7-880aa81f57fa"",""projectId"":""9076ac92-be42-43a2-9634-8b67c7fe93a7""}","https://test12345.live/?num_scrambled_semantic=8&num_scrambled_causal=4&num_scrambled_schematic=4&participantId=729ACAFAB83D418AB76F99AF4BFCF926&assignmentId=19bbb3f9-8713-43be-85d7-880aa81f57fa&projectId=9076ac92-be42-43a2-9634-8b67c7fe93a7","729ACAFAB83D418AB76F99AF4BFCF926-2025-05-22-19-52-47","","null","","images/semantic_sequence/exploring_nature_semantic/exploring_nature_semantic_6.png","null","",""
"","","","","","image-button-response","41","1439861","0.0-10.0-1.0-1.5","729ACAFAB83D418AB76F99AF4BFCF926","729ACAFAB83D418AB76F99AF4BFCF926","19bbb3f9-8713-43be-85d7-880aa81f57fa","9076ac92-be42-43a2-9634-8b67c7fe93a7","{""num_scrambled_semantic"":""8"",""num_scrambled_causal"":""4"",""num_scrambled_schematic"":""4"",""participantId"":""729ACAFAB83D418AB76F99AF4BFCF926"",""assignmentId"":""19bbb3f9-8713-43be-85d7-880aa81f57fa"",""projectId"":""9076ac92-be42-43a2-9634-8b67c7fe93a7""}","https://test12345.live/?num_scrambled_semantic=8&num_scrambled_causal=4&num_scrambled_schematic=4&participantId=729ACAFAB83D418AB76F99AF4BFCF926&assignmentId=19bbb3f9-8713-43be-85d7-880aa81f57fa&projectId=9076ac92-be42-43a2-9634-8b67c7fe93a7","729ACAFAB83D418AB76F99AF4BFCF926-2025-05-22-19-52-47","","3568","","images/semantic_sequence/exploring_nature_semantic/exploring_nature_semantic_6.png","0","",""
"","","","","","image-button-response","42","1441662","0.0-10.0-1.0-2.5","729ACAFAB83D418AB76F99AF4BFCF926","729ACAFAB83D418AB76F99AF4BFCF926","19bbb3f9-8713-43be-85d7-880aa81f57fa","9076ac92-be42-43a2-9634-8b67c7fe93a7","{""num_scrambled_semantic"":""8"",""num_scrambled_causal"":""4"",""num_scrambled_schematic"":""4"",""participantId"":""729ACAFAB83D418AB76F99AF4BFCF926"",""assignmentId"":""19bbb3f9-8713-43be-85d7-880aa81f57fa"",""projectId"":""9076ac92-be42-43a2-9634-8b67c7fe93a7""}","https://test12345.live/?num_scrambled_semantic=8&num_scrambled_causal=4&num_scrambled_schematic=4&participantId=729ACAFAB83D418AB76F99AF4BFCF926&assignmentId=19bbb3f9-8713-43be-85d7-880aa81f57fa&projectId=9076ac92-be42-43a2-9634-8b67c7fe93a7","729ACAFAB83D418AB76F99AF4BFCF926-2025-05-22-19-52-47","","null","","[]","null","",""
"","","","","","image-button-response","43","1446163","0.0-10.0-1.0-0.6","729ACAFAB83D418AB76F99AF4BFCF926","729ACAFAB83D418AB76F99AF4BFCF926","19bbb3f9-8713-43be-85d7-880aa81f57fa","9076ac92-be42-43a2-9634-8b67c7fe93a7","{""num_scrambled_semantic"":""8"",""num_scrambled_causal"":""4"",""num_scrambled_schematic"":""4"",""participantId"":""729ACAFAB83D418AB76F99AF4BFCF926"",""assignmentId"":""19bbb3f9-8713-43be-85d7-880aa81f57fa"",""projectId"":""9076ac92-be42-43a2-9634-8b67c7fe93a7""}","https://test12345.live/?num_scrambled_semantic=8&num_scrambled_causal=4&num_scrambled_schematic=4&participantId=729ACAFAB83D418AB76F99AF4BFCF926&assignmentId=19bbb3f9-8713-43be-85d7-880aa81f57fa&projectId=9076ac92-be42-43a2-9634-8b67c7fe93a7","729ACAFAB83D418AB76F99AF4BFCF926-2025-05-22-19-52-47","","null","","images/semantic_sequence/exploring_nature_semantic/exploring_nature_semantic_7.png","null","",""
"","","","","","image-button-response","44","1446982","0.0-10.0-1.0-1.6","729ACAFAB83D418AB76F99AF4BFCF926","729ACAFAB83D418AB76F99AF4BFCF926","19bbb3f9-8713-43be-85d7-880aa81f57fa","9076ac92-be42-43a2-9634-8b67c7fe93a7","{""num_scrambled_semantic"":""8"",""num_scrambled_causal"":""4"",""num_scrambled_schematic"":""4"",""participantId"":""729ACAFAB83D418AB76F99AF4BFCF926"",""assignmentId"":""19bbb3f9-8713-43be-85d7-880aa81f57fa"",""projectId"":""9076ac92-be42-43a2-9634-8b67c7fe93a7""}","https://test12345.live/?num_scrambled_semantic=8&num_scrambled_causal=4&num_scrambled_schematic=4&participantId=729ACAFAB83D418AB76F99AF4BFCF926&assignmentId=19bbb3f9-8713-43be-85d7-880aa81f57fa&projectId=9076ac92-be42-43a2-9634-8b67c7fe93a7","729ACAFAB83D418AB76F99AF4BFCF926-2025-05-22-19-52-47","","816","","images/semantic_sequence/exploring_nature_semantic/exploring_nature_semantic_7.png","0","",""
"","","","","","image-button-response","45","1448783","0.0-10.0-1.0-2.6","729ACAFAB83D418AB76F99AF4BFCF926","729ACAFAB83D418AB76F99AF4BFCF926","19bbb3f9-8713-43be-85d7-880aa81f57fa","9076ac92-be42-43a2-9634-8b67c7fe93a7","{""num_scrambled_semantic"":""8"",""num_scrambled_causal"":""4"",""num_scrambled_schematic"":""4"",""participantId"":""729ACAFAB83D418AB76F99AF4BFCF926"",""assignmentId"":""19bbb3f9-8713-43be-85d7-880aa81f57fa"",""projectId"":""9076ac92-be42-43a2-9634-8b67c7fe93a7""}","https://test12345.live/?num_scrambled_semantic=8&num_scrambled_causal=4&num_scrambled_schematic=4&participantId=729ACAFAB83D418AB76F99AF4BFCF926&assignmentId=19bbb3f9-8713-43be-85d7-880aa81f57fa&projectId=9076ac92-be42-43a2-9634-8b67c7fe93a7","729ACAFAB83D418AB76F99AF4BFCF926-2025-05-22-19-52-47","","null","","[]","null","",""
"","","","","","image-button-response","46","1453284","0.0-10.0-1.0-0.7","729ACAFAB83D418AB76F99AF4BFCF926","729ACAFAB83D418AB76F99AF4BFCF926","19bbb3f9-8713-43be-85d7-880aa81f57fa","9076ac92-be42-43a2-9634-8b67c7fe93a7","{""num_scrambled_semantic"":""8"",""num_scrambled_causal"":""4"",""num_scrambled_schematic"":""4"",""participantId"":""729ACAFAB83D418AB76F99AF4BFCF926"",""assignmentId"":""19bbb3f9-8713-43be-85d7-880aa81f57fa"",""projectId"":""9076ac92-be42-43a2-9634-8b67c7fe93a7""}","https://test12345.live/?num_scrambled_semantic=8&num_scrambled_causal=4&num_scrambled_schematic=4&participantId=729ACAFAB83D418AB76F99AF4BFCF926&assignmentId=19bbb3f9-8713-43be-85d7-880aa81f57fa&projectId=9076ac92-be42-43a2-9634-8b67c7fe93a7","729ACAFAB83D418AB76F99AF4BFCF926-2025-05-22-19-52-47","","null","","images/semantic_sequence/exploring_nature_semantic/exploring_nature_semantic_8.png","null","",""
"","","","","","image-button-response","47","1455326","0.0-10.0-1.0-1.7","729ACAFAB83D418AB76F99AF4BFCF926","729ACAFAB83D418AB76F99AF4BFCF926","19bbb3f9-8713-43be-85d7-880aa81f57fa","9076ac92-be42-43a2-9634-8b67c7fe93a7","{""num_scrambled_semantic"":""8"",""num_scrambled_causal"":""4"",""num_scrambled_schematic"":""4"",""participantId"":""729ACAFAB83D418AB76F99AF4BFCF926"",""assignmentId"":""19bbb3f9-8713-43be-85d7-880aa81f57fa"",""projectId"":""9076ac92-be42-43a2-9634-8b67c7fe93a7""}","https://test12345.live/?num_scrambled_semantic=8&num_scrambled_causal=4&num_scrambled_schematic=4&participantId=729ACAFAB83D418AB76F99AF4BFCF926&assignmentId=19bbb3f9-8713-43be-85d7-880aa81f57fa&projectId=9076ac92-be42-43a2-9634-8b67c7fe93a7","729ACAFAB83D418AB76F99AF4BFCF926-2025-05-22-19-52-47","","2040","","images/semantic_sequence/exploring_nature_semantic/exploring_nature_semantic_8.png","0","",""
"","","","","","image-button-response","48","1457127","0.0-10.0-1.0-2.7","729ACAFAB83D418AB76F99AF4BFCF926","729ACAFAB83D418AB76F99AF4BFCF926","19bbb3f9-8713-43be-85d7-880aa81f57fa","9076ac92-be42-43a2-9634-8b67c7fe93a7","{""num_scrambled_semantic"":""8"",""num_scrambled_causal"":""4"",""num_scrambled_schematic"":""4"",""participantId"":""729ACAFAB83D418AB76F99AF4BFCF926"",""assignmentId"":""19bbb3f9-8713-43be-85d7-880aa81f57fa"",""projectId"":""9076ac92-be42-43a2-9634-8b67c7fe93a7""}","https://test12345.live/?num_scrambled_semantic=8&num_scrambled_causal=4&num_scrambled_schematic=4&participantId=729ACAFAB83D418AB76F99AF4BFCF926&assignmentId=19bbb3f9-8713-43be-85d7-880aa81f57fa&projectId=9076ac92-be42-43a2-9634-8b67c7fe93a7","729ACAFAB83D418AB76F99AF4BFCF926-2025-05-22-19-52-47","","null","","[]","null","",""
"","","","","","image-button-response","49","1461628","0.0-10.0-1.0-0.8","729ACAFAB83D418AB76F99AF4BFCF926","729ACAFAB83D418AB76F99AF4BFCF926","19bbb3f9-8713-43be-85d7-880aa81f57fa","9076ac92-be42-43a2-9634-8b67c7fe93a7","{""num_scrambled_semantic"":""8"",""num_scrambled_causal"":""4"",""num_scrambled_schematic"":""4"",""participantId"":""729ACAFAB83D418AB76F99AF4BFCF926"",""assignmentId"":""19bbb3f9-8713-43be-85d7-880aa81f57fa"",""projectId"":""9076ac92-be42-43a2-9634-8b67c7fe93a7""}","https://test12345.live/?num_scrambled_semantic=8&num_scrambled_causal=4&num_scrambled_schematic=4&participantId=729ACAFAB83D418AB76F99AF4BFCF926&assignmentId=19bbb3f9-8713-43be-85d7-880aa81f57fa&projectId=9076ac92-be42-43a2-9634-8b67c7fe93a7","729ACAFAB83D418AB76F99AF4BFCF926-2025-05-22-19-52-47","","null","","images/semantic_sequence/exploring_nature_semantic/exploring_nature_semantic_9.png","null","",""
"","","","","","image-button-response","50","1462613","0.0-10.0-1.0-1.8","729ACAFAB83D418AB76F99AF4BFCF926","729ACAFAB83D418AB76F99AF4BFCF926","19bbb3f9-8713-43be-85d7-880aa81f57fa","9076ac92-be42-43a2-9634-8b67c7fe93a7","{""num_scrambled_semantic"":""8"",""num_scrambled_causal"":""4"",""num_scrambled_schematic"":""4"",""participantId"":""729ACAFAB83D418AB76F99AF4BFCF926"",""assignmentId"":""19bbb3f9-8713-43be-85d7-880aa81f57fa"",""projectId"":""9076ac92-be42-43a2-9634-8b67c7fe93a7""}","https://test12345.live/?num_scrambled_semantic=8&num_scrambled_causal=4&num_scrambled_schematic=4&participantId=729ACAFAB83D418AB76F99AF4BFCF926&assignmentId=19bbb3f9-8713-43be-85d7-880aa81f57fa&projectId=9076ac92-be42-43a2-9634-8b67c7fe93a7","729ACAFAB83D418AB76F99AF4BFCF926-2025-05-22-19-52-47","","984","","images/semantic_sequence/exploring_nature_semantic/exploring_nature_semantic_9.png","0","",""
"","","","","","image-button-response","51","1464415","0.0-10.0-1.0-2.8","729ACAFAB83D418AB76F99AF4BFCF926","729ACAFAB83D418AB76F99AF4BFCF926","19bbb3f9-8713-43be-85d7-880aa81f57fa","9076ac92-be42-43a2-9634-8b67c7fe93a7","{""num_scrambled_semantic"":""8"",""num_scrambled_causal"":""4"",""num_scrambled_schematic"":""4"",""participantId"":""729ACAFAB83D418AB76F99AF4BFCF926"",""assignmentId"":""19bbb3f9-8713-43be-85d7-880aa81f57fa"",""projectId"":""9076ac92-be42-43a2-9634-8b67c7fe93a7""}","https://test12345.live/?num_scrambled_semantic=8&num_scrambled_causal=4&num_scrambled_schematic=4&participantId=729ACAFAB83D418AB76F99AF4BFCF926&assignmentId=19bbb3f9-8713-43be-85d7-880aa81f57fa&projectId=9076ac92-be42-43a2-9634-8b67c7fe93a7","729ACAFAB83D418AB76F99AF4BFCF926-2025-05-22-19-52-47","","null","","[]","null","",""
"","","","","","image-button-response","52","1468916","0.0-10.0-1.0-0.9","729ACAFAB83D418AB76F99AF4BFCF926","729ACAFAB83D418AB76F99AF4BFCF926","19bbb3f9-8713-43be-85d7-880aa81f57fa","9076ac92-be42-43a2-9634-8b67c7fe93a7","{""num_scrambled_semantic"":""8"",""num_scrambled_causal"":""4"",""num_scrambled_schematic"":""4"",""participantId"":""729ACAFAB83D418AB76F99AF4BFCF926"",""assignmentId"":""19bbb3f9-8713-43be-85d7-880aa81f57fa"",""projectId"":""9076ac92-be42-43a2-9634-8b67c7fe93a7""}","https://test12345.live/?num_scrambled_semantic=8&num_scrambled_causal=4&num_scrambled_schematic=4&participantId=729ACAFAB83D418AB76F99AF4BFCF926&assignmentId=19bbb3f9-8713-43be-85d7-880aa81f57fa&projectId=9076ac92-be42-43a2-9634-8b67c7fe93a7","729ACAFAB83D418AB76F99AF4BFCF926-2025-05-22-19-52-47","","null","","images/semantic_sequence/exploring_nature_semantic/exploring_nature_semantic_ten.png","null","",""
"","","","","","image-button-response","53","1470786","0.0-10.0-1.0-1.9","729ACAFAB83D418AB76F99AF4BFCF926","729ACAFAB83D418AB76F99AF4BFCF926","19bbb3f9-8713-43be-85d7-880aa81f57fa","9076ac92-be42-43a2-9634-8b67c7fe93a7","{""num_scrambled_semantic"":""8"",""num_scrambled_causal"":""4"",""num_scrambled_schematic"":""4"",""participantId"":""729ACAFAB83D418AB76F99AF4BFCF926"",""assignmentId"":""19bbb3f9-8713-43be-85d7-880aa81f57fa"",""projectId"":""9076ac92-be42-43a2-9634-8b67c7fe93a7""}","https://test12345.live/?num_scrambled_semantic=8&num_scrambled_causal=4&num_scrambled_schematic=4&participantId=729ACAFAB83D418AB76F99AF4BFCF926&assignmentId=19bbb3f9-8713-43be-85d7-880aa81f57fa&projectId=9076ac92-be42-43a2-9634-8b67c7fe93a7","729ACAFAB83D418AB76F99AF4BFCF926-2025-05-22-19-52-47","","1868","","images/semantic_sequence/exploring_nature_semantic/exploring_nature_semantic_ten.png","0","",""
"","","","","","image-button-response","54","1472588","0.0-10.0-1.0-2.9","729ACAFAB83D418AB76F99AF4BFCF926","729ACAFAB83D418AB76F99AF4BFCF926","19bbb3f9-8713-43be-85d7-880aa81f57fa","9076ac92-be42-43a2-9634-8b67c7fe93a7","{""num_scrambled_semantic"":""8"",""num_scrambled_causal"":""4"",""num_scrambled_schematic"":""4"",""participantId"":""729ACAFAB83D418AB76F99AF4BFCF926"",""assignmentId"":""19bbb3f9-8713-43be-85d7-880aa81f57fa"",""projectId"":""9076ac92-be42-43a2-9634-8b67c7fe93a7""}","https://test12345.live/?num_scrambled_semantic=8&num_scrambled_causal=4&num_scrambled_schematic=4&participantId=729ACAFAB83D418AB76F99AF4BFCF926&assignmentId=19bbb3f9-8713-43be-85d7-880aa81f57fa&projectId=9076ac92-be42-43a2-9634-8b67c7fe93a7","729ACAFAB83D418AB76F99AF4BFCF926-2025-05-22-19-52-47","","null","","[]","null","",""
"","","","","","html-audio-response","55","1515262","0.0-11.0","729ACAFAB83D418AB76F99AF4BFCF926","729ACAFAB83D418AB76F99AF4BFCF926","19bbb3f9-8713-43be-85d7-880aa81f57fa","9076ac92-be42-43a2-9634-8b67c7fe93a7","{""num_scrambled_semantic"":""8"",""num_scrambled_causal"":""4"",""num_scrambled_schematic"":""4"",""participantId"":""729ACAFAB83D418AB76F99AF4BFCF926"",""assignmentId"":""19bbb3f9-8713-43be-85d7-880aa81f57fa"",""projectId"":""9076ac92-be42-43a2-9634-8b67c7fe93a7""}","https://test12345.live/?num_scrambled_semantic=8&num_scrambled_causal=4&num_scrambled_schematic=4&participantId=729ACAFAB83D418AB76F99AF4BFCF926&assignmentId=19bbb3f9-8713-43be-85d7-880aa81f57fa&projectId=9076ac92-be42-43a2-9634-8b67c7fe93a7","729ACAFAB83D418AB76F99AF4BFCF926-2025-05-22-19-52-47","","33351","","[""<span style=\""color: red; font-size: 24px\""> NOW RECORDING</span><p>Please say out loud all the images you saw, in the exact order you saw them. Try to recall as many images as you can, but remember: getting the order right is more important than the number of images you recall.</p>""]","","2","exploring_nature_semantic"
"","","","","","image-button-response","56","1521275","0.0-12.0-0.0","729ACAFAB83D418AB76F99AF4BFCF926","729ACAFAB83D418AB76F99AF4BFCF926","19bbb3f9-8713-43be-85d7-880aa81f57fa","9076ac92-be42-43a2-9634-8b67c7fe93a7","{""num_scrambled_semantic"":""8"",""num_scrambled_causal"":""4"",""num_scrambled_schematic"":""4"",""participantId"":""729ACAFAB83D418AB76F99AF4BFCF926"",""assignmentId"":""19bbb3f9-8713-43be-85d7-880aa81f57fa"",""projectId"":""9076ac92-be42-43a2-9634-8b67c7fe93a7""}","https://test12345.live/?num_scrambled_semantic=8&num_scrambled_causal=4&num_scrambled_schematic=4&participantId=729ACAFAB83D418AB76F99AF4BFCF926&assignmentId=19bbb3f9-8713-43be-85d7-880aa81f57fa&projectId=9076ac92-be42-43a2-9634-8b67c7fe93a7","729ACAFAB83D418AB76F99AF4BFCF926-2025-05-22-19-52-47","","null","","images/schematic_sequence/dinner_party_scheme/dinner_party_scheme_0.png","null","",""
"","","","","","image-button-response","57","1525776","0.0-12.0-1.0-0.0","729ACAFAB83D418AB76F99AF4BFCF926","729ACAFAB83D418AB76F99AF4BFCF926","19bbb3f9-8713-43be-85d7-880aa81f57fa","9076ac92-be42-43a2-9634-8b67c7fe93a7","{""num_scrambled_semantic"":""8"",""num_scrambled_causal"":""4"",""num_scrambled_schematic"":""4"",""participantId"":""729ACAFAB83D418AB76F99AF4BFCF926"",""assignmentId"":""19bbb3f9-8713-43be-85d7-880aa81f57fa"",""projectId"":""9076ac92-be42-43a2-9634-8b67c7fe93a7""}","https://test12345.live/?num_scrambled_semantic=8&num_scrambled_causal=4&num_scrambled_schematic=4&participantId=729ACAFAB83D418AB76F99AF4BFCF926&assignmentId=19bbb3f9-8713-43be-85d7-880aa81f57fa&projectId=9076ac92-be42-43a2-9634-8b67c7fe93a7","729ACAFAB83D418AB76F99AF4BFCF926-2025-05-22-19-52-47","","null","","images/schematic_sequence/dinner_party_scheme/dinner_party_scheme_8.png","null","",""
"","","","","","image-button-response","58","1527795","0.0-12.0-1.0-1.0","729ACAFAB83D418AB76F99AF4BFCF926","729ACAFAB83D418AB76F99AF4BFCF926","19bbb3f9-8713-43be-85d7-880aa81f57fa","9076ac92-be42-43a2-9634-8b67c7fe93a7","{""num_scrambled_semantic"":""8"",""num_scrambled_causal"":""4"",""num_scrambled_schematic"":""4"",""participantId"":""729ACAFAB83D418AB76F99AF4BFCF926"",""assignmentId"":""19bbb3f9-8713-43be-85d7-880aa81f57fa"",""projectId"":""9076ac92-be42-43a2-9634-8b67c7fe93a7""}","https://test12345.live/?num_scrambled_semantic=8&num_scrambled_causal=4&num_scrambled_schematic=4&participantId=729ACAFAB83D418AB76F99AF4BFCF926&assignmentId=19bbb3f9-8713-43be-85d7-880aa81f57fa&projectId=9076ac92-be42-43a2-9634-8b67c7fe93a7","729ACAFAB83D418AB76F99AF4BFCF926-2025-05-22-19-52-47","","2015","","images/schematic_sequence/dinner_party_scheme/dinner_party_scheme_8.png","0","",""
"","","","","","image-button-response","59","1529600","0.0-12.0-1.0-2.0","729ACAFAB83D418AB76F99AF4BFCF926","729ACAFAB83D418AB76F99AF4BFCF926","19bbb3f9-8713-43be-85d7-880aa81f57fa","9076ac92-be42-43a2-9634-8b67c7fe93a7","{""num_scrambled_semantic"":""8"",""num_scrambled_causal"":""4"",""num_scrambled_schematic"":""4"",""participantId"":""729ACAFAB83D418AB76F99AF4BFCF926"",""assignmentId"":""19bbb3f9-8713-43be-85d7-880aa81f57fa"",""projectId"":""9076ac92-be42-43a2-9634-8b67c7fe93a7""}","https://test12345.live/?num_scrambled_semantic=8&num_scrambled_causal=4&num_scrambled_schematic=4&participantId=729ACAFAB83D418AB76F99AF4BFCF926&assignmentId=19bbb3f9-8713-43be-85d7-880aa81f57fa&projectId=9076ac92-be42-43a2-9634-8b67c7fe93a7","729ACAFAB83D418AB76F99AF4BFCF926-2025-05-22-19-52-47","","null","","[]","null","",""
"","","","","","image-button-response","60","1534101","0.0-12.0-1.0-0.1","729ACAFAB83D418AB76F99AF4BFCF926","729ACAFAB83D418AB76F99AF4BFCF926","19bbb3f9-8713-43be-85d7-880aa81f57fa","9076ac92-be42-43a2-9634-8b67c7fe93a7","{""num_scrambled_semantic"":""8"",""num_scrambled_causal"":""4"",""num_scrambled_schematic"":""4"",""participantId"":""729ACAFAB83D418AB76F99AF4BFCF926"",""assignmentId"":""19bbb3f9-8713-43be-85d7-880aa81f57fa"",""projectId"":""9076ac92-be42-43a2-9634-8b67c7fe93a7""}","https://test12345.live/?num_scrambled_semantic=8&num_scrambled_causal=4&num_scrambled_schematic=4&participantId=729ACAFAB83D418AB76F99AF4BFCF926&assignmentId=19bbb3f9-8713-43be-85d7-880aa81f57fa&projectId=9076ac92-be42-43a2-9634-8b67c7fe93a7","729ACAFAB83D418AB76F99AF4BFCF926-2025-05-22-19-52-47","","null","","images/schematic_sequence/dinner_party_scheme/dinner_party_scheme_4.png","null","",""
"","","","","","image-button-response","61","1535201","0.0-12.0-1.0-1.1","729ACAFAB83D418AB76F99AF4BFCF926","729ACAFAB83D418AB76F99AF4BFCF926","19bbb3f9-8713-43be-85d7-880aa81f57fa","9076ac92-be42-43a2-9634-8b67c7fe93a7","{""num_scrambled_semantic"":""8"",""num_scrambled_causal"":""4"",""num_scrambled_schematic"":""4"",""participantId"":""729ACAFAB83D418AB76F99AF4BFCF926"",""assignmentId"":""19bbb3f9-8713-43be-85d7-880aa81f57fa"",""projectId"":""9076ac92-be42-43a2-9634-8b67c7fe93a7""}","https://test12345.live/?num_scrambled_semantic=8&num_scrambled_causal=4&num_scrambled_schematic=4&participantId=729ACAFAB83D418AB76F99AF4BFCF926&assignmentId=19bbb3f9-8713-43be-85d7-880aa81f57fa&projectId=9076ac92-be42-43a2-9634-8b67c7fe93a7","729ACAFAB83D418AB76F99AF4BFCF926-2025-05-22-19-52-47","","1095","","images/schematic_sequence/dinner_party_scheme/dinner_party_scheme_4.png","0","",""
"","","","","","image-button-response","62","1537010","0.0-12.0-1.0-2.1","729ACAFAB83D418AB76F99AF4BFCF926","729ACAFAB83D418AB76F99AF4BFCF926","19bbb3f9-8713-43be-85d7-880aa81f57fa","9076ac92-be42-43a2-9634-8b67c7fe93a7","{""num_scrambled_semantic"":""8"",""num_scrambled_causal"":""4"",""num_scrambled_schematic"":""4"",""participantId"":""729ACAFAB83D418AB76F99AF4BFCF926"",""assignmentId"":""19bbb3f9-8713-43be-85d7-880aa81f57fa"",""projectId"":""9076ac92-be42-43a2-9634-8b67c7fe93a7""}","https://test12345.live/?num_scrambled_semantic=8&num_scrambled_causal=4&num_scrambled_schematic=4&participantId=729ACAFAB83D418AB76F99AF4BFCF926&assignmentId=19bbb3f9-8713-43be-85d7-880aa81f57fa&projectId=9076ac92-be42-43a2-9634-8b67c7fe93a7","729ACAFAB83D418AB76F99AF4BFCF926-2025-05-22-19-52-47","","null","","[]","null","",""
"","","","","","image-button-response","63","1541512","0.0-12.0-1.0-0.2","729ACAFAB83D418AB76F99AF4BFCF926","729ACAFAB83D418AB76F99AF4BFCF926","19bbb3f9-8713-43be-85d7-880aa81f57fa","9076ac92-be42-43a2-9634-8b67c7fe93a7","{""num_scrambled_semantic"":""8"",""num_scrambled_causal"":""4"",""num_scrambled_schematic"":""4"",""participantId"":""729ACAFAB83D418AB76F99AF4BFCF926"",""assignmentId"":""19bbb3f9-8713-43be-85d7-880aa81f57fa"",""projectId"":""9076ac92-be42-43a2-9634-8b67c7fe93a7""}","https://test12345.live/?num_scrambled_semantic=8&num_scrambled_causal=4&num_scrambled_schematic=4&participantId=729ACAFAB83D418AB76F99AF4BFCF926&assignmentId=19bbb3f9-8713-43be-85d7-880aa81f57fa&projectId=9076ac92-be42-43a2-9634-8b67c7fe93a7","729ACAFAB83D418AB76F99AF4BFCF926-2025-05-22-19-52-47","","null","","images/schematic_sequence/dinner_party_scheme/dinner_party_scheme_2.png","null","",""
"","","","","","image-button-response","64","1542667","0.0-12.0-1.0-1.2","729ACAFAB83D418AB76F99AF4BFCF926","729ACAFAB83D418AB76F99AF4BFCF926","19bbb3f9-8713-43be-85d7-880aa81f57fa","9076ac92-be42-43a2-9634-8b67c7fe93a7","{""num_scrambled_semantic"":""8"",""num_scrambled_causal"":""4"",""num_scrambled_schematic"":""4"",""participantId"":""729ACAFAB83D418AB76F99AF4BFCF926"",""assignmentId"":""19bbb3f9-8713-43be-85d7-880aa81f57fa"",""projectId"":""9076ac92-be42-43a2-9634-8b67c7fe93a7""}","https://test12345.live/?num_scrambled_semantic=8&num_scrambled_causal=4&num_scrambled_schematic=4&participantId=729ACAFAB83D418AB76F99AF4BFCF926&assignmentId=19bbb3f9-8713-43be-85d7-880aa81f57fa&projectId=9076ac92-be42-43a2-9634-8b67c7fe93a7","729ACAFAB83D418AB76F99AF4BFCF926-2025-05-22-19-52-47","","1154","","images/schematic_sequence/dinner_party_scheme/dinner_party_scheme_2.png","1","",""
"","","","","","image-button-response","65","1544469","0.0-12.0-1.0-2.2","729ACAFAB83D418AB76F99AF4BFCF926","729ACAFAB83D418AB76F99AF4BFCF926","19bbb3f9-8713-43be-85d7-880aa81f57fa","9076ac92-be42-43a2-9634-8b67c7fe93a7","{""num_scrambled_semantic"":""8"",""num_scrambled_causal"":""4"",""num_scrambled_schematic"":""4"",""participantId"":""729ACAFAB83D418AB76F99AF4BFCF926"",""assignmentId"":""19bbb3f9-8713-43be-85d7-880aa81f57fa"",""projectId"":""9076ac92-be42-43a2-9634-8b67c7fe93a7""}","https://test12345.live/?num_scrambled_semantic=8&num_scrambled_causal=4&num_scrambled_schematic=4&participantId=729ACAFAB83D418AB76F99AF4BFCF926&assignmentId=19bbb3f9-8713-43be-85d7-880aa81f57fa&projectId=9076ac92-be42-43a2-9634-8b67c7fe93a7","729ACAFAB83D418AB76F99AF4BFCF926-2025-05-22-19-52-47","","null","","[]","null","",""
"","","","","","image-button-response","66","1548970","0.0-12.0-1.0-0.3","729ACAFAB83D418AB76F99AF4BFCF926","729ACAFAB83D418AB76F99AF4BFCF926","19bbb3f9-8713-43be-85d7-880aa81f57fa","9076ac92-be42-43a2-9634-8b67c7fe93a7","{""num_scrambled_semantic"":""8"",""num_scrambled_causal"":""4"",""num_scrambled_schematic"":""4"",""participantId"":""729ACAFAB83D418AB76F99AF4BFCF926"",""assignmentId"":""19bbb3f9-8713-43be-85d7-880aa81f57fa"",""projectId"":""9076ac92-be42-43a2-9634-8b67c7fe93a7""}","https://test12345.live/?num_scrambled_semantic=8&num_scrambled_causal=4&num_scrambled_schematic=4&participantId=729ACAFAB83D418AB76F99AF4BFCF926&assignmentId=19bbb3f9-8713-43be-85d7-880aa81f57fa&projectId=9076ac92-be42-43a2-9634-8b67c7fe93a7","729ACAFAB83D418AB76F99AF4BFCF926-2025-05-22-19-52-47","","null","","images/schematic_sequence/dinner_party_scheme/dinner_party_scheme_9.png","null","",""
"","","","","","image-button-response","67","1549782","0.0-12.0-1.0-1.3","729ACAFAB83D418AB76F99AF4BFCF926","729ACAFAB83D418AB76F99AF4BFCF926","19bbb3f9-8713-43be-85d7-880aa81f57fa","9076ac92-be42-43a2-9634-8b67c7fe93a7","{""num_scrambled_semantic"":""8"",""num_scrambled_causal"":""4"",""num_scrambled_schematic"":""4"",""participantId"":""729ACAFAB83D418AB76F99AF4BFCF926"",""assignmentId"":""19bbb3f9-8713-43be-85d7-880aa81f57fa"",""projectId"":""9076ac92-be42-43a2-9634-8b67c7fe93a7""}","https://test12345.live/?num_scrambled_semantic=8&num_scrambled_causal=4&num_scrambled_schematic=4&participantId=729ACAFAB83D418AB76F99AF4BFCF926&assignmentId=19bbb3f9-8713-43be-85d7-880aa81f57fa&projectId=9076ac92-be42-43a2-9634-8b67c7fe93a7","729ACAFAB83D418AB76F99AF4BFCF926-2025-05-22-19-52-47","","811","","images/schematic_sequence/dinner_party_scheme/dinner_party_scheme_9.png","0","",""
"","","","","","image-button-response","68","1551584","0.0-12.0-1.0-2.3","729ACAFAB83D418AB76F99AF4BFCF926","729ACAFAB83D418AB76F99AF4BFCF926","19bbb3f9-8713-43be-85d7-880aa81f57fa","9076ac92-be42-43a2-9634-8b67c7fe93a7","{""num_scrambled_semantic"":""8"",""num_scrambled_causal"":""4"",""num_scrambled_schematic"":""4"",""participantId"":""729ACAFAB83D418AB76F99AF4BFCF926"",""assignmentId"":""19bbb3f9-8713-43be-85d7-880aa81f57fa"",""projectId"":""9076ac92-be42-43a2-9634-8b67c7fe93a7""}","https://test12345.live/?num_scrambled_semantic=8&num_scrambled_causal=4&num_scrambled_schematic=4&participantId=729ACAFAB83D418AB76F99AF4BFCF926&assignmentId=19bbb3f9-8713-43be-85d7-880aa81f57fa&projectId=9076ac92-be42-43a2-9634-8b67c7fe93a7","729ACAFAB83D418AB76F99AF4BFCF926-2025-05-22-19-52-47","","null","","[]","null","",""
"","","","","","image-button-response","69","1556086","0.0-12.0-1.0-0.4","729ACAFAB83D418AB76F99AF4BFCF926","729ACAFAB83D418AB76F99AF4BFCF926","19bbb3f9-8713-43be-85d7-880aa81f57fa","9076ac92-be42-43a2-9634-8b67c7fe93a7","{""num_scrambled_semantic"":""8"",""num_scrambled_causal"":""4"",""num_scrambled_schematic"":""4"",""participantId"":""729ACAFAB83D418AB76F99AF4BFCF926"",""assignmentId"":""19bbb3f9-8713-43be-85d7-880aa81f57fa"",""projectId"":""9076ac92-be42-43a2-9634-8b67c7fe93a7""}","https://test12345.live/?num_scrambled_semantic=8&num_scrambled_causal=4&num_scrambled_schematic=4&participantId=729ACAFAB83D418AB76F99AF4BFCF926&assignmentId=19bbb3f9-8713-43be-85d7-880aa81f57fa&projectId=9076ac92-be42-43a2-9634-8b67c7fe93a7","729ACAFAB83D418AB76F99AF4BFCF926-2025-05-22-19-52-47","","null","","images/schematic_sequence/dinner_party_scheme/dinner_party_scheme_6.png","null","",""
"","","","","","image-button-response","70","1556989","0.0-12.0-1.0-1.4","729ACAFAB83D418AB76F99AF4BFCF926","729ACAFAB83D418AB76F99AF4BFCF926","19bbb3f9-8713-43be-85d7-880aa81f57fa","9076ac92-be42-43a2-9634-8b67c7fe93a7","{""num_scrambled_semantic"":""8"",""num_scrambled_causal"":""4"",""num_scrambled_schematic"":""4"",""participantId"":""729ACAFAB83D418AB76F99AF4BFCF926"",""assignmentId"":""19bbb3f9-8713-43be-85d7-880aa81f57fa"",""projectId"":""9076ac92-be42-43a2-9634-8b67c7fe93a7""}","https://test12345.live/?num_scrambled_semantic=8&num_scrambled_causal=4&num_scrambled_schematic=4&participantId=729ACAFAB83D418AB76F99AF4BFCF926&assignmentId=19bbb3f9-8713-43be-85d7-880aa81f57fa&projectId=9076ac92-be42-43a2-9634-8b67c7fe93a7","729ACAFAB83D418AB76F99AF4BFCF926-2025-05-22-19-52-47","","901","","images/schematic_sequence/dinner_party_scheme/dinner_party_scheme_6.png","0","",""
"","","","","","image-button-response","71","1558790","0.0-12.0-1.0-2.4","729ACAFAB83D418AB76F99AF4BFCF926","729ACAFAB83D418AB76F99AF4BFCF926","19bbb3f9-8713-43be-85d7-880aa81f57fa","9076ac92-be42-43a2-9634-8b67c7fe93a7","{""num_scrambled_semantic"":""8"",""num_scrambled_causal"":""4"",""num_scrambled_schematic"":""4"",""participantId"":""729ACAFAB83D418AB76F99AF4BFCF926"",""assignmentId"":""19bbb3f9-8713-43be-85d7-880aa81f57fa"",""projectId"":""9076ac92-be42-43a2-9634-8b67c7fe93a7""}","https://test12345.live/?num_scrambled_semantic=8&num_scrambled_causal=4&num_scrambled_schematic=4&participantId=729ACAFAB83D418AB76F99AF4BFCF926&assignmentId=19bbb3f9-8713-43be-85d7-880aa81f57fa&projectId=9076ac92-be42-43a2-9634-8b67c7fe93a7","729ACAFAB83D418AB76F99AF4BFCF926-2025-05-22-19-52-47","","null","","[]","null","",""
"","","","","","image-button-response","72","1563292","0.0-12.0-1.0-0.5","729ACAFAB83D418AB76F99AF4BFCF926","729ACAFAB83D418AB76F99AF4BFCF926","19bbb3f9-8713-43be-85d7-880aa81f57fa","9076ac92-be42-43a2-9634-8b67c7fe93a7","{""num_scrambled_semantic"":""8"",""num_scrambled_causal"":""4"",""num_scrambled_schematic"":""4"",""participantId"":""729ACAFAB83D418AB76F99AF4BFCF926"",""assignmentId"":""19bbb3f9-8713-43be-85d7-880aa81f57fa"",""projectId"":""9076ac92-be42-43a2-9634-8b67c7fe93a7""}","https://test12345.live/?num_scrambled_semantic=8&num_scrambled_causal=4&num_scrambled_schematic=4&participantId=729ACAFAB83D418AB76F99AF4BFCF926&assignmentId=19bbb3f9-8713-43be-85d7-880aa81f57fa&projectId=9076ac92-be42-43a2-9634-8b67c7fe93a7","729ACAFAB83D418AB76F99AF4BFCF926-2025-05-22-19-52-47","","null","","images/schematic_sequence/dinner_party_scheme/dinner_party_scheme_ten.png","null","",""
"","","","","","image-button-response","73","1564085","0.0-12.0-1.0-1.5","729ACAFAB83D418AB76F99AF4BFCF926","729ACAFAB83D418AB76F99AF4BFCF926","19bbb3f9-8713-43be-85d7-880aa81f57fa","9076ac92-be42-43a2-9634-8b67c7fe93a7","{""num_scrambled_semantic"":""8"",""num_scrambled_causal"":""4"",""num_scrambled_schematic"":""4"",""participantId"":""729ACAFAB83D418AB76F99AF4BFCF926"",""assignmentId"":""19bbb3f9-8713-43be-85d7-880aa81f57fa"",""projectId"":""9076ac92-be42-43a2-9634-8b67c7fe93a7""}","https://test12345.live/?num_scrambled_semantic=8&num_scrambled_causal=4&num_scrambled_schematic=4&participantId=729ACAFAB83D418AB76F99AF4BFCF926&assignmentId=19bbb3f9-8713-43be-85d7-880aa81f57fa&projectId=9076ac92-be42-43a2-9634-8b67c7fe93a7","729ACAFAB83D418AB76F99AF4BFCF926-2025-05-22-19-52-47","","790","","images/schematic_sequence/dinner_party_scheme/dinner_party_scheme_ten.png","0","",""
"","","","","","image-button-response","74","1565886","0.0-12.0-1.0-2.5","729ACAFAB83D418AB76F99AF4BFCF926","729ACAFAB83D418AB76F99AF4BFCF926","19bbb3f9-8713-43be-85d7-880aa81f57fa","9076ac92-be42-43a2-9634-8b67c7fe93a7","{""num_scrambled_semantic"":""8"",""num_scrambled_causal"":""4"",""num_scrambled_schematic"":""4"",""participantId"":""729ACAFAB83D418AB76F99AF4BFCF926"",""assignmentId"":""19bbb3f9-8713-43be-85d7-880aa81f57fa"",""projectId"":""9076ac92-be42-43a2-9634-8b67c7fe93a7""}","https://test12345.live/?num_scrambled_semantic=8&num_scrambled_causal=4&num_scrambled_schematic=4&participantId=729ACAFAB83D418AB76F99AF4BFCF926&assignmentId=19bbb3f9-8713-43be-85d7-880aa81f57fa&projectId=9076ac92-be42-43a2-9634-8b67c7fe93a7","729ACAFAB83D418AB76F99AF4BFCF926-2025-05-22-19-52-47","","null","","[]","null","",""
"","","","","","image-button-response","75","1570389","0.0-12.0-1.0-0.6","729ACAFAB83D418AB76F99AF4BFCF926","729ACAFAB83D418AB76F99AF4BFCF926","19bbb3f9-8713-43be-85d7-880aa81f57fa","9076ac92-be42-43a2-9634-8b67c7fe93a7","{""num_scrambled_semantic"":""8"",""num_scrambled_causal"":""4"",""num_scrambled_schematic"":""4"",""participantId"":""729ACAFAB83D418AB76F99AF4BFCF926"",""assignmentId"":""19bbb3f9-8713-43be-85d7-880aa81f57fa"",""projectId"":""9076ac92-be42-43a2-9634-8b67c7fe93a7""}","https://test12345.live/?num_scrambled_semantic=8&num_scrambled_causal=4&num_scrambled_schematic=4&participantId=729ACAFAB83D418AB76F99AF4BFCF926&assignmentId=19bbb3f9-8713-43be-85d7-880aa81f57fa&projectId=9076ac92-be42-43a2-9634-8b67c7fe93a7","729ACAFAB83D418AB76F99AF4BFCF926-2025-05-22-19-52-47","","null","","images/schematic_sequence/dinner_party_scheme/dinner_party_scheme_5.png","null","",""
"","","","","","image-button-response","76","1571059","0.0-12.0-1.0-1.6","729ACAFAB83D418AB76F99AF4BFCF926","729ACAFAB83D418AB76F99AF4BFCF926","19bbb3f9-8713-43be-85d7-880aa81f57fa","9076ac92-be42-43a2-9634-8b67c7fe93a7","{""num_scrambled_semantic"":""8"",""num_scrambled_causal"":""4"",""num_scrambled_schematic"":""4"",""participantId"":""729ACAFAB83D418AB76F99AF4BFCF926"",""assignmentId"":""19bbb3f9-8713-43be-85d7-880aa81f57fa"",""projectId"":""9076ac92-be42-43a2-9634-8b67c7fe93a7""}","https://test12345.live/?num_scrambled_semantic=8&num_scrambled_causal=4&num_scrambled_schematic=4&participantId=729ACAFAB83D418AB76F99AF4BFCF926&assignmentId=19bbb3f9-8713-43be-85d7-880aa81f57fa&projectId=9076ac92-be42-43a2-9634-8b67c7fe93a7","729ACAFAB83D418AB76F99AF4BFCF926-2025-05-22-19-52-47","","669","","images/schematic_sequence/dinner_party_scheme/dinner_party_scheme_5.png","0","",""
"","","","","","image-button-response","77","1572861","0.0-12.0-1.0-2.6","729ACAFAB83D418AB76F99AF4BFCF926","729ACAFAB83D418AB76F99AF4BFCF926","19bbb3f9-8713-43be-85d7-880aa81f57fa","9076ac92-be42-43a2-9634-8b67c7fe93a7","{""num_scrambled_semantic"":""8"",""num_scrambled_causal"":""4"",""num_scrambled_schematic"":""4"",""participantId"":""729ACAFAB83D418AB76F99AF4BFCF926"",""assignmentId"":""19bbb3f9-8713-43be-85d7-880aa81f57fa"",""projectId"":""9076ac92-be42-43a2-9634-8b67c7fe93a7""}","https://test12345.live/?num_scrambled_semantic=8&num_scrambled_causal=4&num_scrambled_schematic=4&participantId=729ACAFAB83D418AB76F99AF4BFCF926&assignmentId=19bbb3f9-8713-43be-85d7-880aa81f57fa&projectId=9076ac92-be42-43a2-9634-8b67c7fe93a7","729ACAFAB83D418AB76F99AF4BFCF926-2025-05-22-19-52-47","","null","","[]","null","",""
"","","","","","image-button-response","78","1577363","0.0-12.0-1.0-0.7","729ACAFAB83D418AB76F99AF4BFCF926","729ACAFAB83D418AB76F99AF4BFCF926","19bbb3f9-8713-43be-85d7-880aa81f57fa","9076ac92-be42-43a2-9634-8b67c7fe93a7","{""num_scrambled_semantic"":""8"",""num_scrambled_causal"":""4"",""num_scrambled_schematic"":""4"",""participantId"":""729ACAFAB83D418AB76F99AF4BFCF926"",""assignmentId"":""19bbb3f9-8713-43be-85d7-880aa81f57fa"",""projectId"":""9076ac92-be42-43a2-9634-8b67c7fe93a7""}","https://test12345.live/?num_scrambled_semantic=8&num_scrambled_causal=4&num_scrambled_schematic=4&participantId=729ACAFAB83D418AB76F99AF4BFCF926&assignmentId=19bbb3f9-8713-43be-85d7-880aa81f57fa&projectId=9076ac92-be42-43a2-9634-8b67c7fe93a7","729ACAFAB83D418AB76F99AF4BFCF926-2025-05-22-19-52-47","","null","","images/schematic_sequence/dinner_party_scheme/dinner_party_scheme_1.png","null","",""
"","","","","","image-button-response","79","1578909","0.0-12.0-1.0-1.7","729ACAFAB83D418AB76F99AF4BFCF926","729ACAFAB83D418AB76F99AF4BFCF926","19bbb3f9-8713-43be-85d7-880aa81f57fa","9076ac92-be42-43a2-9634-8b67c7fe93a7","{""num_scrambled_semantic"":""8"",""num_scrambled_causal"":""4"",""num_scrambled_schematic"":""4"",""participantId"":""729ACAFAB83D418AB76F99AF4BFCF926"",""assignmentId"":""19bbb3f9-8713-43be-85d7-880aa81f57fa"",""projectId"":""9076ac92-be42-43a2-9634-8b67c7fe93a7""}","https://test12345.live/?num_scrambled_semantic=8&num_scrambled_causal=4&num_scrambled_schematic=4&participantId=729ACAFAB83D418AB76F99AF4BFCF926&assignmentId=19bbb3f9-8713-43be-85d7-880aa81f57fa&projectId=9076ac92-be42-43a2-9634-8b67c7fe93a7","729ACAFAB83D418AB76F99AF4BFCF926-2025-05-22-19-52-47","","1542","","images/schematic_sequence/dinner_party_scheme/dinner_party_scheme_1.png","0","",""
"","","","","","image-button-response","80","1580714","0.0-12.0-1.0-2.7","729ACAFAB83D418AB76F99AF4BFCF926","729ACAFAB83D418AB76F99AF4BFCF926","19bbb3f9-8713-43be-85d7-880aa81f57fa","9076ac92-be42-43a2-9634-8b67c7fe93a7","{""num_scrambled_semantic"":""8"",""num_scrambled_causal"":""4"",""num_scrambled_schematic"":""4"",""participantId"":""729ACAFAB83D418AB76F99AF4BFCF926"",""assignmentId"":""19bbb3f9-8713-43be-85d7-880aa81f57fa"",""projectId"":""9076ac92-be42-43a2-9634-8b67c7fe93a7""}","https://test12345.live/?num_scrambled_semantic=8&num_scrambled_causal=4&num_scrambled_schematic=4&participantId=729ACAFAB83D418AB76F99AF4BFCF926&assignmentId=19bbb3f9-8713-43be-85d7-880aa81f57fa&projectId=9076ac92-be42-43a2-9634-8b67c7fe93a7","729ACAFAB83D418AB76F99AF4BFCF926-2025-05-22-19-52-47","","null","","[]","null","",""
"","","","","","image-button-response","81","1585216","0.0-12.0-1.0-0.8","729ACAFAB83D418AB76F99AF4BFCF926","729ACAFAB83D418AB76F99AF4BFCF926","19bbb3f9-8713-43be-85d7-880aa81f57fa","9076ac92-be42-43a2-9634-8b67c7fe93a7","{""num_scrambled_semantic"":""8"",""num_scrambled_causal"":""4"",""num_scrambled_schematic"":""4"",""participantId"":""729ACAFAB83D418AB76F99AF4BFCF926"",""assignmentId"":""19bbb3f9-8713-43be-85d7-880aa81f57fa"",""projectId"":""9076ac92-be42-43a2-9634-8b67c7fe93a7""}","https://test12345.live/?num_scrambled_semantic=8&num_scrambled_causal=4&num_scrambled_schematic=4&participantId=729ACAFAB83D418AB76F99AF4BFCF926&assignmentId=19bbb3f9-8713-43be-85d7-880aa81f57fa&projectId=9076ac92-be42-43a2-9634-8b67c7fe93a7","729ACAFAB83D418AB76F99AF4BFCF926-2025-05-22-19-52-47","","null","","images/schematic_sequence/dinner_party_scheme/dinner_party_scheme_7.png","null","",""
"","","","","","image-button-response","82","1585880","0.0-12.0-1.0-1.8","729ACAFAB83D418AB76F99AF4BFCF926","729ACAFAB83D418AB76F99AF4BFCF926","19bbb3f9-8713-43be-85d7-880aa81f57fa","9076ac92-be42-43a2-9634-8b67c7fe93a7","{""num_scrambled_semantic"":""8"",""num_scrambled_causal"":""4"",""num_scrambled_schematic"":""4"",""participantId"":""729ACAFAB83D418AB76F99AF4BFCF926"",""assignmentId"":""19bbb3f9-8713-43be-85d7-880aa81f57fa"",""projectId"":""9076ac92-be42-43a2-9634-8b67c7fe93a7""}","https://test12345.live/?num_scrambled_semantic=8&num_scrambled_causal=4&num_scrambled_schematic=4&participantId=729ACAFAB83D418AB76F99AF4BFCF926&assignmentId=19bbb3f9-8713-43be-85d7-880aa81f57fa&projectId=9076ac92-be42-43a2-9634-8b67c7fe93a7","729ACAFAB83D418AB76F99AF4BFCF926-2025-05-22-19-52-47","","662","","images/schematic_sequence/dinner_party_scheme/dinner_party_scheme_7.png","0","",""
"","","","","","image-button-response","83","1587681","0.0-12.0-1.0-2.8","729ACAFAB83D418AB76F99AF4BFCF926","729ACAFAB83D418AB76F99AF4BFCF926","19bbb3f9-8713-43be-85d7-880aa81f57fa","9076ac92-be42-43a2-9634-8b67c7fe93a7","{""num_scrambled_semantic"":""8"",""num_scrambled_causal"":""4"",""num_scrambled_schematic"":""4"",""participantId"":""729ACAFAB83D418AB76F99AF4BFCF926"",""assignmentId"":""19bbb3f9-8713-43be-85d7-880aa81f57fa"",""projectId"":""9076ac92-be42-43a2-9634-8b67c7fe93a7""}","https://test12345.live/?num_scrambled_semantic=8&num_scrambled_causal=4&num_scrambled_schematic=4&participantId=729ACAFAB83D418AB76F99AF4BFCF926&assignmentId=19bbb3f9-8713-43be-85d7-880aa81f57fa&projectId=9076ac92-be42-43a2-9634-8b67c7fe93a7","729ACAFAB83D418AB76F99AF4BFCF926-2025-05-22-19-52-47","","null","","[]","null","",""
"","","","","","image-button-response","84","1592183","0.0-12.0-1.0-0.9","729ACAFAB83D418AB76F99AF4BFCF926","729ACAFAB83D418AB76F99AF4BFCF926","19bbb3f9-8713-43be-85d7-880aa81f57fa","9076ac92-be42-43a2-9634-8b67c7fe93a7","{""num_scrambled_semantic"":""8"",""num_scrambled_causal"":""4"",""num_scrambled_schematic"":""4"",""participantId"":""729ACAFAB83D418AB76F99AF4BFCF926"",""assignmentId"":""19bbb3f9-8713-43be-85d7-880aa81f57fa"",""projectId"":""9076ac92-be42-43a2-9634-8b67c7fe93a7""}","https://test12345.live/?num_scrambled_semantic=8&num_scrambled_causal=4&num_scrambled_schematic=4&participantId=729ACAFAB83D418AB76F99AF4BFCF926&assignmentId=19bbb3f9-8713-43be-85d7-880aa81f57fa&projectId=9076ac92-be42-43a2-9634-8b67c7fe93a7","729ACAFAB83D418AB76F99AF4BFCF926-2025-05-22-19-52-47","","null","","images/schematic_sequence/dinner_party_scheme/dinner_party_scheme_3.png","null","",""
"","","","","","image-button-response","85","1592978","0.0-12.0-1.0-1.9","729ACAFAB83D418AB76F99AF4BFCF926","729ACAFAB83D418AB76F99AF4BFCF926","19bbb3f9-8713-43be-85d7-880aa81f57fa","9076ac92-be42-43a2-9634-8b67c7fe93a7","{""num_scrambled_semantic"":""8"",""num_scrambled_causal"":""4"",""num_scrambled_schematic"":""4"",""participantId"":""729ACAFAB83D418AB76F99AF4BFCF926"",""assignmentId"":""19bbb3f9-8713-43be-85d7-880aa81f57fa"",""projectId"":""9076ac92-be42-43a2-9634-8b67c7fe93a7""}","https://test12345.live/?num_scrambled_semantic=8&num_scrambled_causal=4&num_scrambled_schematic=4&participantId=729ACAFAB83D418AB76F99AF4BFCF926&assignmentId=19bbb3f9-8713-43be-85d7-880aa81f57fa&projectId=9076ac92-be42-43a2-9634-8b67c7fe93a7","729ACAFAB83D418AB76F99AF4BFCF926-2025-05-22-19-52-47","","793","","images/schematic_sequence/dinner_party_scheme/dinner_party_scheme_3.png","0","",""
"","","","","","image-button-response","86","1594779","0.0-12.0-1.0-2.9","729ACAFAB83D418AB76F99AF4BFCF926","729ACAFAB83D418AB76F99AF4BFCF926","19bbb3f9-8713-43be-85d7-880aa81f57fa","9076ac92-be42-43a2-9634-8b67c7fe93a7","{""num_scrambled_semantic"":""8"",""num_scrambled_causal"":""4"",""num_scrambled_schematic"":""4"",""participantId"":""729ACAFAB83D418AB76F99AF4BFCF926"",""assignmentId"":""19bbb3f9-8713-43be-85d7-880aa81f57fa"",""projectId"":""9076ac92-be42-43a2-9634-8b67c7fe93a7""}","https://test12345.live/?num_scrambled_semantic=8&num_scrambled_causal=4&num_scrambled_schematic=4&participantId=729ACAFAB83D418AB76F99AF4BFCF926&assignmentId=19bbb3f9-8713-43be-85d7-880aa81f57fa&projectId=9076ac92-be42-43a2-9634-8b67c7fe93a7","729ACAFAB83D418AB76F99AF4BFCF926-2025-05-22-19-52-47","","null","","[]","null","",""
"","","","","","html-audio-response","87","1658575","0.0-13.0","729ACAFAB83D418AB76F99AF4BFCF926","729ACAFAB83D418AB76F99AF4BFCF926","19bbb3f9-8713-43be-85d7-880aa81f57fa","9076ac92-be42-43a2-9634-8b67c7fe93a7","{""num_scrambled_semantic"":""8"",""num_scrambled_causal"":""4"",""num_scrambled_schematic"":""4"",""participantId"":""729ACAFAB83D418AB76F99AF4BFCF926"",""assignmentId"":""19bbb3f9-8713-43be-85d7-880aa81f57fa"",""projectId"":""9076ac92-be42-43a2-9634-8b67c7fe93a7""}","https://test12345.live/?num_scrambled_semantic=8&num_scrambled_causal=4&num_scrambled_schematic=4&participantId=729ACAFAB83D418AB76F99AF4BFCF926&assignmentId=19bbb3f9-8713-43be-85d7-880aa81f57fa&projectId=9076ac92-be42-43a2-9634-8b67c7fe93a7","729ACAFAB83D418AB76F99AF4BFCF926-2025-05-22-19-52-47","","30912","","[""<span style=\""color: red; font-size: 24px\""> NOW RECORDING</span><p>Please say out loud all the images you saw, in the exact order you saw them. Try to recall as many images as you can, but remember: getting the order right is more important than the number of images you recall.</p>""]","","14","dinner_party_scheme"
"","","","","","image-button-response","88","1664709","0.0-14.0-0.0","729ACAFAB83D418AB76F99AF4BFCF926","729ACAFAB83D418AB76F99AF4BFCF926","19bbb3f9-8713-43be-85d7-880aa81f57fa","9076ac92-be42-43a2-9634-8b67c7fe93a7","{""num_scrambled_semantic"":""8"",""num_scrambled_causal"":""4"",""num_scrambled_schematic"":""4"",""participantId"":""729ACAFAB83D418AB76F99AF4BFCF926"",""assignmentId"":""19bbb3f9-8713-43be-85d7-880aa81f57fa"",""projectId"":""9076ac92-be42-43a2-9634-8b67c7fe93a7""}","https://test12345.live/?num_scrambled_semantic=8&num_scrambled_causal=4&num_scrambled_schematic=4&participantId=729ACAFAB83D418AB76F99AF4BFCF926&assignmentId=19bbb3f9-8713-43be-85d7-880aa81f57fa&projectId=9076ac92-be42-43a2-9634-8b67c7fe93a7","729ACAFAB83D418AB76F99AF4BFCF926-2025-05-22-19-52-47","","null","","images/semantic_sequence/maintaining_a_car_semantic/maintaining_a_car_semantic_0.png","null","",""
"","","","","","image-button-response","89","1669210","0.0-14.0-1.0-0.0","729ACAFAB83D418AB76F99AF4BFCF926","729ACAFAB83D418AB76F99AF4BFCF926","19bbb3f9-8713-43be-85d7-880aa81f57fa","9076ac92-be42-43a2-9634-8b67c7fe93a7","{""num_scrambled_semantic"":""8"",""num_scrambled_causal"":""4"",""num_scrambled_schematic"":""4"",""participantId"":""729ACAFAB83D418AB76F99AF4BFCF926"",""assignmentId"":""19bbb3f9-8713-43be-85d7-880aa81f57fa"",""projectId"":""9076ac92-be42-43a2-9634-8b67c7fe93a7""}","https://test12345.live/?num_scrambled_semantic=8&num_scrambled_causal=4&num_scrambled_schematic=4&participantId=729ACAFAB83D418AB76F99AF4BFCF926&assignmentId=19bbb3f9-8713-43be-85d7-880aa81f57fa&projectId=9076ac92-be42-43a2-9634-8b67c7fe93a7","729ACAFAB83D418AB76F99AF4BFCF926-2025-05-22-19-52-47","","null","","images/semantic_sequence/maintaining_a_car_semantic/maintaining_a_car_semantic_3.png","null","",""
"","","","","","image-button-response","90","1670150","0.0-14.0-1.0-1.0","729ACAFAB83D418AB76F99AF4BFCF926","729ACAFAB83D418AB76F99AF4BFCF926","19bbb3f9-8713-43be-85d7-880aa81f57fa","9076ac92-be42-43a2-9634-8b67c7fe93a7","{""num_scrambled_semantic"":""8"",""num_scrambled_causal"":""4"",""num_scrambled_schematic"":""4"",""participantId"":""729ACAFAB83D418AB76F99AF4BFCF926"",""assignmentId"":""19bbb3f9-8713-43be-85d7-880aa81f57fa"",""projectId"":""9076ac92-be42-43a2-9634-8b67c7fe93a7""}","https://test12345.live/?num_scrambled_semantic=8&num_scrambled_causal=4&num_scrambled_schematic=4&participantId=729ACAFAB83D418AB76F99AF4BFCF926&assignmentId=19bbb3f9-8713-43be-85d7-880aa81f57fa&projectId=9076ac92-be42-43a2-9634-8b67c7fe93a7","729ACAFAB83D418AB76F99AF4BFCF926-2025-05-22-19-52-47","","929","","images/semantic_sequence/maintaining_a_car_semantic/maintaining_a_car_semantic_3.png","0","",""
"","","","","","image-button-response","91","1671962","0.0-14.0-1.0-2.0","729ACAFAB83D418AB76F99AF4BFCF926","729ACAFAB83D418AB76F99AF4BFCF926","19bbb3f9-8713-43be-85d7-880aa81f57fa","9076ac92-be42-43a2-9634-8b67c7fe93a7","{""num_scrambled_semantic"":""8"",""num_scrambled_causal"":""4"",""num_scrambled_schematic"":""4"",""participantId"":""729ACAFAB83D418AB76F99AF4BFCF926"",""assignmentId"":""19bbb3f9-8713-43be-85d7-880aa81f57fa"",""projectId"":""9076ac92-be42-43a2-9634-8b67c7fe93a7""}","https://test12345.live/?num_scrambled_semantic=8&num_scrambled_causal=4&num_scrambled_schematic=4&participantId=729ACAFAB83D418AB76F99AF4BFCF926&assignmentId=19bbb3f9-8713-43be-85d7-880aa81f57fa&projectId=9076ac92-be42-43a2-9634-8b67c7fe93a7","729ACAFAB83D418AB76F99AF4BFCF926-2025-05-22-19-52-47","","null","","[]","null","",""
"","","","","","image-button-response","92","1676465","0.0-14.0-1.0-0.1","729ACAFAB83D418AB76F99AF4BFCF926","729ACAFAB83D418AB76F99AF4BFCF926","19bbb3f9-8713-43be-85d7-880aa81f57fa","9076ac92-be42-43a2-9634-8b67c7fe93a7","{""num_scrambled_semantic"":""8"",""num_scrambled_causal"":""4"",""num_scrambled_schematic"":""4"",""participantId"":""729ACAFAB83D418AB76F99AF4BFCF926"",""assignmentId"":""19bbb3f9-8713-43be-85d7-880aa81f57fa"",""projectId"":""9076ac92-be42-43a2-9634-8b67c7fe93a7""}","https://test12345.live/?num_scrambled_semantic=8&num_scrambled_causal=4&num_scrambled_schematic=4&participantId=729ACAFAB83D418AB76F99AF4BFCF926&assignmentId=19bbb3f9-8713-43be-85d7-880aa81f57fa&projectId=9076ac92-be42-43a2-9634-8b67c7fe93a7","729ACAFAB83D418AB76F99AF4BFCF926-2025-05-22-19-52-47","","null","","images/semantic_sequence/maintaining_a_car_semantic/maintaining_a_car_semantic_5.png","null","",""
"","","","","","image-button-response","93","1677288","0.0-14.0-1.0-1.1","729ACAFAB83D418AB76F99AF4BFCF926","729ACAFAB83D418AB76F99AF4BFCF926","19bbb3f9-8713-43be-85d7-880aa81f57fa","9076ac92-be42-43a2-9634-8b67c7fe93a7","{""num_scrambled_semantic"":""8"",""num_scrambled_causal"":""4"",""num_scrambled_schematic"":""4"",""participantId"":""729ACAFAB83D418AB76F99AF4BFCF926"",""assignmentId"":""19bbb3f9-8713-43be-85d7-880aa81f57fa"",""projectId"":""9076ac92-be42-43a2-9634-8b67c7fe93a7""}","https://test12345.live/?num_scrambled_semantic=8&num_scrambled_causal=4&num_scrambled_schematic=4&participantId=729ACAFAB83D418AB76F99AF4BFCF926&assignmentId=19bbb3f9-8713-43be-85d7-880aa81f57fa&projectId=9076ac92-be42-43a2-9634-8b67c7fe93a7","729ACAFAB83D418AB76F99AF4BFCF926-2025-05-22-19-52-47","","821","","images/semantic_sequence/maintaining_a_car_semantic/maintaining_a_car_semantic_5.png","0","",""
"","","","","","image-button-response","94","1679089","0.0-14.0-1.0-2.1","729ACAFAB83D418AB76F99AF4BFCF926","729ACAFAB83D418AB76F99AF4BFCF926","19bbb3f9-8713-43be-85d7-880aa81f57fa","9076ac92-be42-43a2-9634-8b67c7fe93a7","{""num_scrambled_semantic"":""8"",""num_scrambled_causal"":""4"",""num_scrambled_schematic"":""4"",""participantId"":""729ACAFAB83D418AB76F99AF4BFCF926"",""assignmentId"":""19bbb3f9-8713-43be-85d7-880aa81f57fa"",""projectId"":""9076ac92-be42-43a2-9634-8b67c7fe93a7""}","https://test12345.live/?num_scrambled_semantic=8&num_scrambled_causal=4&num_scrambled_schematic=4&participantId=729ACAFAB83D418AB76F99AF4BFCF926&assignmentId=19bbb3f9-8713-43be-85d7-880aa81f57fa&projectId=9076ac92-be42-43a2-9634-8b67c7fe93a7","729ACAFAB83D418AB76F99AF4BFCF926-2025-05-22-19-52-47","","null","","[]","null","",""
"","","","","","image-button-response","95","1683591","0.0-14.0-1.0-0.2","729ACAFAB83D418AB76F99AF4BFCF926","729ACAFAB83D418AB76F99AF4BFCF926","19bbb3f9-8713-43be-85d7-880aa81f57fa","9076ac92-be42-43a2-9634-8b67c7fe93a7","{""num_scrambled_semantic"":""8"",""num_scrambled_causal"":""4"",""num_scrambled_schematic"":""4"",""participantId"":""729ACAFAB83D418AB76F99AF4BFCF926"",""assignmentId"":""19bbb3f9-8713-43be-85d7-880aa81f57fa"",""projectId"":""9076ac92-be42-43a2-9634-8b67c7fe93a7""}","https://test12345.live/?num_scrambled_semantic=8&num_scrambled_causal=4&num_scrambled_schematic=4&participantId=729ACAFAB83D418AB76F99AF4BFCF926&assignmentId=19bbb3f9-8713-43be-85d7-880aa81f57fa&projectId=9076ac92-be42-43a2-9634-8b67c7fe93a7","729ACAFAB83D418AB76F99AF4BFCF926-2025-05-22-19-52-47","","null","","images/semantic_sequence/maintaining_a_car_semantic/maintaining_a_car_semantic_2.png","null","",""
"","","","","","image-button-response","96","1684395","0.0-14.0-1.0-1.2","729ACAFAB83D418AB76F99AF4BFCF926","729ACAFAB83D418AB76F99AF4BFCF926","19bbb3f9-8713-43be-85d7-880aa81f57fa","9076ac92-be42-43a2-9634-8b67c7fe93a7","{""num_scrambled_semantic"":""8"",""num_scrambled_causal"":""4"",""num_scrambled_schematic"":""4"",""participantId"":""729ACAFAB83D418AB76F99AF4BFCF926"",""assignmentId"":""19bbb3f9-8713-43be-85d7-880aa81f57fa"",""projectId"":""9076ac92-be42-43a2-9634-8b67c7fe93a7""}","https://test12345.live/?num_scrambled_semantic=8&num_scrambled_causal=4&num_scrambled_schematic=4&participantId=729ACAFAB83D418AB76F99AF4BFCF926&assignmentId=19bbb3f9-8713-43be-85d7-880aa81f57fa&projectId=9076ac92-be42-43a2-9634-8b67c7fe93a7","729ACAFAB83D418AB76F99AF4BFCF926-2025-05-22-19-52-47","","803","","images/semantic_sequence/maintaining_a_car_semantic/maintaining_a_car_semantic_2.png","0","",""
"","","","","","image-button-response","97","1686197","0.0-14.0-1.0-2.2","729ACAFAB83D418AB76F99AF4BFCF926","729ACAFAB83D418AB76F99AF4BFCF926","19bbb3f9-8713-43be-85d7-880aa81f57fa","9076ac92-be42-43a2-9634-8b67c7fe93a7","{""num_scrambled_semantic"":""8"",""num_scrambled_causal"":""4"",""num_scrambled_schematic"":""4"",""participantId"":""729ACAFAB83D418AB76F99AF4BFCF926"",""assignmentId"":""19bbb3f9-8713-43be-85d7-880aa81f57fa"",""projectId"":""9076ac92-be42-43a2-9634-8b67c7fe93a7""}","https://test12345.live/?num_scrambled_semantic=8&num_scrambled_causal=4&num_scrambled_schematic=4&participantId=729ACAFAB83D418AB76F99AF4BFCF926&assignmentId=19bbb3f9-8713-43be-85d7-880aa81f57fa&projectId=9076ac92-be42-43a2-9634-8b67c7fe93a7","729ACAFAB83D418AB76F99AF4BFCF926-2025-05-22-19-52-47","","null","","[]","null","",""
"","","","","","image-button-response","98","1690698","0.0-14.0-1.0-0.3","729ACAFAB83D418AB76F99AF4BFCF926","729ACAFAB83D418AB76F99AF4BFCF926","19bbb3f9-8713-43be-85d7-880aa81f57fa","9076ac92-be42-43a2-9634-8b67c7fe93a7","{""num_scrambled_semantic"":""8"",""num_scrambled_causal"":""4"",""num_scrambled_schematic"":""4"",""participantId"":""729ACAFAB83D418AB76F99AF4BFCF926"",""assignmentId"":""19bbb3f9-8713-43be-85d7-880aa81f57fa"",""projectId"":""9076ac92-be42-43a2-9634-8b67c7fe93a7""}","https://test12345.live/?num_scrambled_semantic=8&num_scrambled_causal=4&num_scrambled_schematic=4&participantId=729ACAFAB83D418AB76F99AF4BFCF926&assignmentId=19bbb3f9-8713-43be-85d7-880aa81f57fa&projectId=9076ac92-be42-43a2-9634-8b67c7fe93a7","729ACAFAB83D418AB76F99AF4BFCF926-2025-05-22-19-52-47","","null","","images/semantic_sequence/maintaining_a_car_semantic/maintaining_a_car_semantic_6.png","null","",""
"","","","","","image-button-response","99","1691437","0.0-14.0-1.0-1.3","729ACAFAB83D418AB76F99AF4BFCF926","729ACAFAB83D418AB76F99AF4BFCF926","19bbb3f9-8713-43be-85d7-880aa81f57fa","9076ac92-be42-43a2-9634-8b67c7fe93a7","{""num_scrambled_semantic"":""8"",""num_scrambled_causal"":""4"",""num_scrambled_schematic"":""4"",""participantId"":""729ACAFAB83D418AB76F99AF4BFCF926"",""assignmentId"":""19bbb3f9-8713-43be-85d7-880aa81f57fa"",""projectId"":""9076ac92-be42-43a2-9634-8b67c7fe93a7""}","https://test12345.live/?num_scrambled_semantic=8&num_scrambled_causal=4&num_scrambled_schematic=4&participantId=729ACAFAB83D418AB76F99AF4BFCF926&assignmentId=19bbb3f9-8713-43be-85d7-880aa81f57fa&projectId=9076ac92-be42-43a2-9634-8b67c7fe93a7","729ACAFAB83D418AB76F99AF4BFCF926-2025-05-22-19-52-47","","737","","images/semantic_sequence/maintaining_a_car_semantic/maintaining_a_car_semantic_6.png","0","",""
"","","","","","image-button-response","100","1693241","0.0-14.0-1.0-2.3","729ACAFAB83D418AB76F99AF4BFCF926","729ACAFAB83D418AB76F99AF4BFCF926","19bbb3f9-8713-43be-85d7-880aa81f57fa","9076ac92-be42-43a2-9634-8b67c7fe93a7","{""num_scrambled_semantic"":""8"",""num_scrambled_causal"":""4"",""num_scrambled_schematic"":""4"",""participantId"":""729ACAFAB83D418AB76F99AF4BFCF926"",""assignmentId"":""19bbb3f9-8713-43be-85d7-880aa81f57fa"",""projectId"":""9076ac92-be42-43a2-9634-8b67c7fe93a7""}","https://test12345.live/?num_scrambled_semantic=8&num_scrambled_causal=4&num_scrambled_schematic=4&participantId=729ACAFAB83D418AB76F99AF4BFCF926&assignmentId=19bbb3f9-8713-43be-85d7-880aa81f57fa&projectId=9076ac92-be42-43a2-9634-8b67c7fe93a7","729ACAFAB83D418AB76F99AF4BFCF926-2025-05-22-19-52-47","","null","","[]","null","",""
"","","","","","image-button-response","101","1697742","0.0-14.0-1.0-0.4","729ACAFAB83D418AB76F99AF4BFCF926","729ACAFAB83D418AB76F99AF4BFCF926","19bbb3f9-8713-43be-85d7-880aa81f57fa","9076ac92-be42-43a2-9634-8b67c7fe93a7","{""num_scrambled_semantic"":""8"",""num_scrambled_causal"":""4"",""num_scrambled_schematic"":""4"",""participantId"":""729ACAFAB83D418AB76F99AF4BFCF926"",""assignmentId"":""19bbb3f9-8713-43be-85d7-880aa81f57fa"",""projectId"":""9076ac92-be42-43a2-9634-8b67c7fe93a7""}","https://test12345.live/?num_scrambled_semantic=8&num_scrambled_causal=4&num_scrambled_schematic=4&participantId=729ACAFAB83D418AB76F99AF4BFCF926&assignmentId=19bbb3f9-8713-43be-85d7-880aa81f57fa&projectId=9076ac92-be42-43a2-9634-8b67c7fe93a7","729ACAFAB83D418AB76F99AF4BFCF926-2025-05-22-19-52-47","","null","","images/semantic_sequence/maintaining_a_car_semantic/maintaining_a_car_semantic_1.png","null","",""
"","","","","","image-button-response","102","1698408","0.0-14.0-1.0-1.4","729ACAFAB83D418AB76F99AF4BFCF926","729ACAFAB83D418AB76F99AF4BFCF926","19bbb3f9-8713-43be-85d7-880aa81f57fa","9076ac92-be42-43a2-9634-8b67c7fe93a7","{""num_scrambled_semantic"":""8"",""num_scrambled_causal"":""4"",""num_scrambled_schematic"":""4"",""participantId"":""729ACAFAB83D418AB76F99AF4BFCF926"",""assignmentId"":""19bbb3f9-8713-43be-85d7-880aa81f57fa"",""projectId"":""9076ac92-be42-43a2-9634-8b67c7fe93a7""}","https://test12345.live/?num_scrambled_semantic=8&num_scrambled_causal=4&num_scrambled_schematic=4&participantId=729ACAFAB83D418AB76F99AF4BFCF926&assignmentId=19bbb3f9-8713-43be-85d7-880aa81f57fa&projectId=9076ac92-be42-43a2-9634-8b67c7fe93a7","729ACAFAB83D418AB76F99AF4BFCF926-2025-05-22-19-52-47","","665","","images/semantic_sequence/maintaining_a_car_semantic/maintaining_a_car_semantic_1.png","0","",""
"","","","","","image-button-response","103","1700211","0.0-14.0-1.0-2.4","729ACAFAB83D418AB76F99AF4BFCF926","729ACAFAB83D418AB76F99AF4BFCF926","19bbb3f9-8713-43be-85d7-880aa81f57fa","9076ac92-be42-43a2-9634-8b67c7fe93a7","{""num_scrambled_semantic"":""8"",""num_scrambled_causal"":""4"",""num_scrambled_schematic"":""4"",""participantId"":""729ACAFAB83D418AB76F99AF4BFCF926"",""assignmentId"":""19bbb3f9-8713-43be-85d7-880aa81f57fa"",""projectId"":""9076ac92-be42-43a2-9634-8b67c7fe93a7""}","https://test12345.live/?num_scrambled_semantic=8&num_scrambled_causal=4&num_scrambled_schematic=4&participantId=729ACAFAB83D418AB76F99AF4BFCF926&assignmentId=19bbb3f9-8713-43be-85d7-880aa81f57fa&projectId=9076ac92-be42-43a2-9634-8b67c7fe93a7","729ACAFAB83D418AB76F99AF4BFCF926-2025-05-22-19-52-47","","null","","[]","null","",""
"","","","","","image-button-response","104","1704712","0.0-14.0-1.0-0.5","729ACAFAB83D418AB76F99AF4BFCF926","729ACAFAB83D418AB76F99AF4BFCF926","19bbb3f9-8713-43be-85d7-880aa81f57fa","9076ac92-be42-43a2-9634-8b67c7fe93a7","{""num_scrambled_semantic"":""8"",""num_scrambled_causal"":""4"",""num_scrambled_schematic"":""4"",""participantId"":""729ACAFAB83D418AB76F99AF4BFCF926"",""assignmentId"":""19bbb3f9-8713-43be-85d7-880aa81f57fa"",""projectId"":""9076ac92-be42-43a2-9634-8b67c7fe93a7""}","https://test12345.live/?num_scrambled_semantic=8&num_scrambled_causal=4&num_scrambled_schematic=4&participantId=729ACAFAB83D418AB76F99AF4BFCF926&assignmentId=19bbb3f9-8713-43be-85d7-880aa81f57fa&projectId=9076ac92-be42-43a2-9634-8b67c7fe93a7","729ACAFAB83D418AB76F99AF4BFCF926-2025-05-22-19-52-47","","null","","images/semantic_sequence/maintaining_a_car_semantic/maintaining_a_car_semantic_9.png","null","",""
"","","","","","image-button-response","105","1705675","0.0-14.0-1.0-1.5","729ACAFAB83D418AB76F99AF4BFCF926","729ACAFAB83D418AB76F99AF4BFCF926","19bbb3f9-8713-43be-85d7-880aa81f57fa","9076ac92-be42-43a2-9634-8b67c7fe93a7","{""num_scrambled_semantic"":""8"",""num_scrambled_causal"":""4"",""num_scrambled_schematic"":""4"",""participantId"":""729ACAFAB83D418AB76F99AF4BFCF926"",""assignmentId"":""19bbb3f9-8713-43be-85d7-880aa81f57fa"",""projectId"":""9076ac92-be42-43a2-9634-8b67c7fe93a7""}","https://test12345.live/?num_scrambled_semantic=8&num_scrambled_causal=4&num_scrambled_schematic=4&participantId=729ACAFAB83D418AB76F99AF4BFCF926&assignmentId=19bbb3f9-8713-43be-85d7-880aa81f57fa&projectId=9076ac92-be42-43a2-9634-8b67c7fe93a7","729ACAFAB83D418AB76F99AF4BFCF926-2025-05-22-19-52-47","","961","","images/semantic_sequence/maintaining_a_car_semantic/maintaining_a_car_semantic_9.png","0","",""
"","","","","","image-button-response","106","1707477","0.0-14.0-1.0-2.5","729ACAFAB83D418AB76F99AF4BFCF926","729ACAFAB83D418AB76F99AF4BFCF926","19bbb3f9-8713-43be-85d7-880aa81f57fa","9076ac92-be42-43a2-9634-8b67c7fe93a7","{""num_scrambled_semantic"":""8"",""num_scrambled_causal"":""4"",""num_scrambled_schematic"":""4"",""participantId"":""729ACAFAB83D418AB76F99AF4BFCF926"",""assignmentId"":""19bbb3f9-8713-43be-85d7-880aa81f57fa"",""projectId"":""9076ac92-be42-43a2-9634-8b67c7fe93a7""}","https://test12345.live/?num_scrambled_semantic=8&num_scrambled_causal=4&num_scrambled_schematic=4&participantId=729ACAFAB83D418AB76F99AF4BFCF926&assignmentId=19bbb3f9-8713-43be-85d7-880aa81f57fa&projectId=9076ac92-be42-43a2-9634-8b67c7fe93a7","729ACAFAB83D418AB76F99AF4BFCF926-2025-05-22-19-52-47","","null","","[]","null","",""
"","","","","","image-button-response","107","1711979","0.0-14.0-1.0-0.6","729ACAFAB83D418AB76F99AF4BFCF926","729ACAFAB83D418AB76F99AF4BFCF926","19bbb3f9-8713-43be-85d7-880aa81f57fa","9076ac92-be42-43a2-9634-8b67c7fe93a7","{""num_scrambled_semantic"":""8"",""num_scrambled_causal"":""4"",""num_scrambled_schematic"":""4"",""participantId"":""729ACAFAB83D418AB76F99AF4BFCF926"",""assignmentId"":""19bbb3f9-8713-43be-85d7-880aa81f57fa"",""projectId"":""9076ac92-be42-43a2-9634-8b67c7fe93a7""}","https://test12345.live/?num_scrambled_semantic=8&num_scrambled_causal=4&num_scrambled_schematic=4&participantId=729ACAFAB83D418AB76F99AF4BFCF926&assignmentId=19bbb3f9-8713-43be-85d7-880aa81f57fa&projectId=9076ac92-be42-43a2-9634-8b67c7fe93a7","729ACAFAB83D418AB76F99AF4BFCF926-2025-05-22-19-52-47","","null","","images/semantic_sequence/maintaining_a_car_semantic/maintaining_a_car_semantic_4.png","null","",""
"","","","","","image-button-response","108","1712720","0.0-14.0-1.0-1.6","729ACAFAB83D418AB76F99AF4BFCF926","729ACAFAB83D418AB76F99AF4BFCF926","19bbb3f9-8713-43be-85d7-880aa81f57fa","9076ac92-be42-43a2-9634-8b67c7fe93a7","{""num_scrambled_semantic"":""8"",""num_scrambled_causal"":""4"",""num_scrambled_schematic"":""4"",""participantId"":""729ACAFAB83D418AB76F99AF4BFCF926"",""assignmentId"":""19bbb3f9-8713-43be-85d7-880aa81f57fa"",""projectId"":""9076ac92-be42-43a2-9634-8b67c7fe93a7""}","https://test12345.live/?num_scrambled_semantic=8&num_scrambled_causal=4&num_scrambled_schematic=4&participantId=729ACAFAB83D418AB76F99AF4BFCF926&assignmentId=19bbb3f9-8713-43be-85d7-880aa81f57fa&projectId=9076ac92-be42-43a2-9634-8b67c7fe93a7","729ACAFAB83D418AB76F99AF4BFCF926-2025-05-22-19-52-47","","737","","images/semantic_sequence/maintaining_a_car_semantic/maintaining_a_car_semantic_4.png","0","",""
"","","","","","image-button-response","109","1714522","0.0-14.0-1.0-2.6","729ACAFAB83D418AB76F99AF4BFCF926","729ACAFAB83D418AB76F99AF4BFCF926","19bbb3f9-8713-43be-85d7-880aa81f57fa","9076ac92-be42-43a2-9634-8b67c7fe93a7","{""num_scrambled_semantic"":""8"",""num_scrambled_causal"":""4"",""num_scrambled_schematic"":""4"",""participantId"":""729ACAFAB83D418AB76F99AF4BFCF926"",""assignmentId"":""19bbb3f9-8713-43be-85d7-880aa81f57fa"",""projectId"":""9076ac92-be42-43a2-9634-8b67c7fe93a7""}","https://test12345.live/?num_scrambled_semantic=8&num_scrambled_causal=4&num_scrambled_schematic=4&participantId=729ACAFAB83D418AB76F99AF4BFCF926&assignmentId=19bbb3f9-8713-43be-85d7-880aa81f57fa&projectId=9076ac92-be42-43a2-9634-8b67c7fe93a7","729ACAFAB83D418AB76F99AF4BFCF926-2025-05-22-19-52-47","","null","","[]","null","",""
"","","","","","image-button-response","110","1719023","0.0-14.0-1.0-0.7","729ACAFAB83D418AB76F99AF4BFCF926","729ACAFAB83D418AB76F99AF4BFCF926","19bbb3f9-8713-43be-85d7-880aa81f57fa","9076ac92-be42-43a2-9634-8b67c7fe93a7","{""num_scrambled_semantic"":""8"",""num_scrambled_causal"":""4"",""num_scrambled_schematic"":""4"",""participantId"":""729ACAFAB83D418AB76F99AF4BFCF926"",""assignmentId"":""19bbb3f9-8713-43be-85d7-880aa81f57fa"",""projectId"":""9076ac92-be42-43a2-9634-8b67c7fe93a7""}","https://test12345.live/?num_scrambled_semantic=8&num_scrambled_causal=4&num_scrambled_schematic=4&participantId=729ACAFAB83D418AB76F99AF4BFCF926&assignmentId=19bbb3f9-8713-43be-85d7-880aa81f57fa&projectId=9076ac92-be42-43a2-9634-8b67c7fe93a7","729ACAFAB83D418AB76F99AF4BFCF926-2025-05-22-19-52-47","","null","","images/semantic_sequence/maintaining_a_car_semantic/maintaining_a_car_semantic_8.png","null","",""
"","","","","","image-button-response","111","1719952","0.0-14.0-1.0-1.7","729ACAFAB83D418AB76F99AF4BFCF926","729ACAFAB83D418AB76F99AF4BFCF926","19bbb3f9-8713-43be-85d7-880aa81f57fa","9076ac92-be42-43a2-9634-8b67c7fe93a7","{""num_scrambled_semantic"":""8"",""num_scrambled_causal"":""4"",""num_scrambled_schematic"":""4"",""participantId"":""729ACAFAB83D418AB76F99AF4BFCF926"",""assignmentId"":""19bbb3f9-8713-43be-85d7-880aa81f57fa"",""projectId"":""9076ac92-be42-43a2-9634-8b67c7fe93a7""}","https://test12345.live/?num_scrambled_semantic=8&num_scrambled_causal=4&num_scrambled_schematic=4&participantId=729ACAFAB83D418AB76F99AF4BFCF926&assignmentId=19bbb3f9-8713-43be-85d7-880aa81f57fa&projectId=9076ac92-be42-43a2-9634-8b67c7fe93a7","729ACAFAB83D418AB76F99AF4BFCF926-2025-05-22-19-52-47","","927","","images/semantic_sequence/maintaining_a_car_semantic/maintaining_a_car_semantic_8.png","0","",""
"","","","","","image-button-response","112","1721754","0.0-14.0-1.0-2.7","729ACAFAB83D418AB76F99AF4BFCF926","729ACAFAB83D418AB76F99AF4BFCF926","19bbb3f9-8713-43be-85d7-880aa81f57fa","9076ac92-be42-43a2-9634-8b67c7fe93a7","{""num_scrambled_semantic"":""8"",""num_scrambled_causal"":""4"",""num_scrambled_schematic"":""4"",""participantId"":""729ACAFAB83D418AB76F99AF4BFCF926"",""assignmentId"":""19bbb3f9-8713-43be-85d7-880aa81f57fa"",""projectId"":""9076ac92-be42-43a2-9634-8b67c7fe93a7""}","https://test12345.live/?num_scrambled_semantic=8&num_scrambled_causal=4&num_scrambled_schematic=4&participantId=729ACAFAB83D418AB76F99AF4BFCF926&assignmentId=19bbb3f9-8713-43be-85d7-880aa81f57fa&projectId=9076ac92-be42-43a2-9634-8b67c7fe93a7","729ACAFAB83D418AB76F99AF4BFCF926-2025-05-22-19-52-47","","null","","[]","null","",""
"","","","","","image-button-response","113","1726255","0.0-14.0-1.0-0.8","729ACAFAB83D418AB76F99AF4BFCF926","729ACAFAB83D418AB76F99AF4BFCF926","19bbb3f9-8713-43be-85d7-880aa81f57fa","9076ac92-be42-43a2-9634-8b67c7fe93a7","{""num_scrambled_semantic"":""8"",""num_scrambled_causal"":""4"",""num_scrambled_schematic"":""4"",""participantId"":""729ACAFAB83D418AB76F99AF4BFCF926"",""assignmentId"":""19bbb3f9-8713-43be-85d7-880aa81f57fa"",""projectId"":""9076ac92-be42-43a2-9634-8b67c7fe93a7""}","https://test12345.live/?num_scrambled_semantic=8&num_scrambled_causal=4&num_scrambled_schematic=4&participantId=729ACAFAB83D418AB76F99AF4BFCF926&assignmentId=19bbb3f9-8713-43be-85d7-880aa81f57fa&projectId=9076ac92-be42-43a2-9634-8b67c7fe93a7","729ACAFAB83D418AB76F99AF4BFCF926-2025-05-22-19-52-47","","null","","images/semantic_sequence/maintaining_a_car_semantic/maintaining_a_car_semantic_ten.png","null","",""
