"success","timeout","failed_images","failed_audio","failed_video","trial_type","trial_index","time_elapsed","internal_node_id","subject","subject_id","study_id","session_id","urlvar","current_url","audio_id","view_history","rt","device_id","stimulus","response","estimated_stimulus_onset","seq_name"
"true","false","[]","[]","[]","preload","0","17964","0.0-0.0","739F0AC3ECC545BBAF2D1683208B1BF5","739F0AC3ECC545BBAF2D1683208B1BF5","0198ee57-bca3-720a-b376-36016acb7b52","0198ee3c-27ac-7803-a9ea-f3b4ad4ad678","{""num_scrambled_semantic"":""8"",""num_scrambled_causal"":""4"",""num_scrambled_schematic"":""4"",""participantId"":""739F0AC3ECC545BBAF2D1683208B1BF5"",""assignmentId"":""0198ee57-bca3-720a-b376-36016acb7b52"",""projectId"":""0198ee3c-27ac-7803-a9ea-f3b4ad4ad678""}","https://test12345.live/?num_scrambled_semantic=8&num_scrambled_causal=4&num_scrambled_schematic=4&participantId=739F0AC3ECC545BBAF2D1683208B1BF5&assignmentId=0198ee57-bca3-720a-b376-36016acb7b52&projectId=0198ee3c-27ac-7803-a9ea-f3b4ad4ad678","739F0AC3ECC545BBAF2D1683208B1BF5-2025-08-28-02-35-35","","","","","","",""
"","","","","","instructions","1","42658","0.0-1.0","739F0AC3ECC545BBAF2D1683208B1BF5","739F0AC3ECC545BBAF2D1683208B1BF5","0198ee57-bca3-720a-b376-36016acb7b52","0198ee3c-27ac-7803-a9ea-f3b4ad4ad678","{""num_scrambled_semantic"":""8"",""num_scrambled_causal"":""4"",""num_scrambled_schematic"":""4"",""participantId"":""739F0AC3ECC545BBAF2D1683208B1BF5"",""assignmentId"":""0198ee57-bca3-720a-b376-36016acb7b52"",""projectId"":""0198ee3c-27ac-7803-a9ea-f3b4ad4ad678""}","https://test12345.live/?num_scrambled_semantic=8&num_scrambled_causal=4&num_scrambled_schematic=4&participantId=739F0AC3ECC545BBAF2D1683208B1BF5&assignmentId=0198ee57-bca3-720a-b376-36016acb7b52&projectId=0198ee3c-27ac-7803-a9ea-f3b4ad4ad678","739F0AC3ECC545BBAF2D1683208B1BF5-2025-08-28-02-35-35","[{""page_index"":0,""viewing_time"":24693}]","24694","","","","",""
"","","","","","instructions","2","98013","0.0-2.0","739F0AC3ECC545BBAF2D1683208B1BF5","739F0AC3ECC545BBAF2D1683208B1BF5","0198ee57-bca3-720a-b376-36016acb7b52","0198ee3c-27ac-7803-a9ea-f3b4ad4ad678","{""num_scrambled_semantic"":""8"",""num_scrambled_causal"":""4"",""num_scrambled_schematic"":""4"",""participantId"":""739F0AC3ECC545BBAF2D1683208B1BF5"",""assignmentId"":""0198ee57-bca3-720a-b376-36016acb7b52"",""projectId"":""0198ee3c-27ac-7803-a9ea-f3b4ad4ad678""}","https://test12345.live/?num_scrambled_semantic=8&num_scrambled_causal=4&num_scrambled_schematic=4&participantId=739F0AC3ECC545BBAF2D1683208B1BF5&assignmentId=0198ee57-bca3-720a-b376-36016acb7b52&projectId=0198ee3c-27ac-7803-a9ea-f3b4ad4ad678","739F0AC3ECC545BBAF2D1683208B1BF5-2025-08-28-02-35-35","[{""page_index"":0,""viewing_time"":55354}]","55354","","","","",""
"true","","","","","fullscreen","3","100996","0.0-3.0","739F0AC3ECC545BBAF2D1683208B1BF5","739F0AC3ECC545BBAF2D1683208B1BF5","0198ee57-bca3-720a-b376-36016acb7b52","0198ee3c-27ac-7803-a9ea-f3b4ad4ad678","{""num_scrambled_semantic"":""8"",""num_scrambled_causal"":""4"",""num_scrambled_schematic"":""4"",""participantId"":""739F0AC3ECC545BBAF2D1683208B1BF5"",""assignmentId"":""0198ee57-bca3-720a-b376-36016acb7b52"",""projectId"":""0198ee3c-27ac-7803-a9ea-f3b4ad4ad678""}","https://test12345.live/?num_scrambled_semantic=8&num_scrambled_causal=4&num_scrambled_schematic=4&participantId=739F0AC3ECC545BBAF2D1683208B1BF5&assignmentId=0198ee57-bca3-720a-b376-36016acb7b52&projectId=0198ee3c-27ac-7803-a9ea-f3b4ad4ad678","739F0AC3ECC545BBAF2D1683208B1BF5-2025-08-28-02-35-35","","1977","","","","",""
"","","","","","initialize-microphone","4","105825","0.0-4.0-0.0","739F0AC3ECC545BBAF2D1683208B1BF5","739F0AC3ECC545BBAF2D1683208B1BF5","0198ee57-bca3-720a-b376-36016acb7b52","0198ee3c-27ac-7803-a9ea-f3b4ad4ad678","{""num_scrambled_semantic"":""8"",""num_scrambled_causal"":""4"",""num_scrambled_schematic"":""4"",""participantId"":""739F0AC3ECC545BBAF2D1683208B1BF5"",""assignmentId"":""0198ee57-bca3-720a-b376-36016acb7b52"",""projectId"":""0198ee3c-27ac-7803-a9ea-f3b4ad4ad678""}","https://test12345.live/?num_scrambled_semantic=8&num_scrambled_causal=4&num_scrambled_schematic=4&participantId=739F0AC3ECC545BBAF2D1683208B1BF5&assignmentId=0198ee57-bca3-720a-b376-36016acb7b52&projectId=0198ee3c-27ac-7803-a9ea-f3b4ad4ad678","739F0AC3ECC545BBAF2D1683208B1BF5-2025-08-28-02-35-35","","","eb8057b9904dccf61619ca62f8d421cf319b4a69d4d4e896f6c5767c2c256de2","","","",""
"","","","","","html-audio-response","5","134538","0.0-4.0-1.0","739F0AC3ECC545BBAF2D1683208B1BF5","739F0AC3ECC545BBAF2D1683208B1BF5","0198ee57-bca3-720a-b376-36016acb7b52","0198ee3c-27ac-7803-a9ea-f3b4ad4ad678","{""num_scrambled_semantic"":""8"",""num_scrambled_causal"":""4"",""num_scrambled_schematic"":""4"",""participantId"":""739F0AC3ECC545BBAF2D1683208B1BF5"",""assignmentId"":""0198ee57-bca3-720a-b376-36016acb7b52"",""projectId"":""0198ee3c-27ac-7803-a9ea-f3b4ad4ad678""}","https://test12345.live/?num_scrambled_semantic=8&num_scrambled_causal=4&num_scrambled_schematic=4&participantId=739F0AC3ECC545BBAF2D1683208B1BF5&assignmentId=0198ee57-bca3-720a-b376-36016acb7b52&projectId=0198ee3c-27ac-7803-a9ea-f3b4ad4ad678","739F0AC3ECC545BBAF2D1683208B1BF5-2025-08-28-02-35-35","","5573","","<span style=""color: red; font-size: 24px""> NOW RECORDING</span>
        <p>Please test Microphone</p>","","1",""
"","","","","","html-button-response","6","138783","0.0-4.0-2.0","739F0AC3ECC545BBAF2D1683208B1BF5","739F0AC3ECC545BBAF2D1683208B1BF5","0198ee57-bca3-720a-b376-36016acb7b52","0198ee3c-27ac-7803-a9ea-f3b4ad4ad678","{""num_scrambled_semantic"":""8"",""num_scrambled_causal"":""4"",""num_scrambled_schematic"":""4"",""participantId"":""739F0AC3ECC545BBAF2D1683208B1BF5"",""assignmentId"":""0198ee57-bca3-720a-b376-36016acb7b52"",""projectId"":""0198ee3c-27ac-7803-a9ea-f3b4ad4ad678""}","https://test12345.live/?num_scrambled_semantic=8&num_scrambled_causal=4&num_scrambled_schematic=4&participantId=739F0AC3ECC545BBAF2D1683208B1BF5&assignmentId=0198ee57-bca3-720a-b376-36016acb7b52&projectId=0198ee3c-27ac-7803-a9ea-f3b4ad4ad678","739F0AC3ECC545BBAF2D1683208B1BF5-2025-08-28-02-35-35","","4244","","<p style=""font-size:48px; color:red;"">Is Microphone OK?</p>","1","",""
"","","","","","instructions","7","154822","0.0-5.0","739F0AC3ECC545BBAF2D1683208B1BF5","739F0AC3ECC545BBAF2D1683208B1BF5","0198ee57-bca3-720a-b376-36016acb7b52","0198ee3c-27ac-7803-a9ea-f3b4ad4ad678","{""num_scrambled_semantic"":""8"",""num_scrambled_causal"":""4"",""num_scrambled_schematic"":""4"",""participantId"":""739F0AC3ECC545BBAF2D1683208B1BF5"",""assignmentId"":""0198ee57-bca3-720a-b376-36016acb7b52"",""projectId"":""0198ee3c-27ac-7803-a9ea-f3b4ad4ad678""}","https://test12345.live/?num_scrambled_semantic=8&num_scrambled_causal=4&num_scrambled_schematic=4&participantId=739F0AC3ECC545BBAF2D1683208B1BF5&assignmentId=0198ee57-bca3-720a-b376-36016acb7b52&projectId=0198ee3c-27ac-7803-a9ea-f3b4ad4ad678","739F0AC3ECC545BBAF2D1683208B1BF5-2025-08-28-02-35-35","[{""page_index"":0,""viewing_time"":5697},{""page_index"":1,""viewing_time"":10341}]","16038","","","","",""
"","","","","","image-button-response","8","160834","0.0-6.0-0.0","739F0AC3ECC545BBAF2D1683208B1BF5","739F0AC3ECC545BBAF2D1683208B1BF5","0198ee57-bca3-720a-b376-36016acb7b52","0198ee3c-27ac-7803-a9ea-f3b4ad4ad678","{""num_scrambled_semantic"":""8"",""num_scrambled_causal"":""4"",""num_scrambled_schematic"":""4"",""participantId"":""739F0AC3ECC545BBAF2D1683208B1BF5"",""assignmentId"":""0198ee57-bca3-720a-b376-36016acb7b52"",""projectId"":""0198ee3c-27ac-7803-a9ea-f3b4ad4ad678""}","https://test12345.live/?num_scrambled_semantic=8&num_scrambled_causal=4&num_scrambled_schematic=4&participantId=739F0AC3ECC545BBAF2D1683208B1BF5&assignmentId=0198ee57-bca3-720a-b376-36016acb7b52&projectId=0198ee3c-27ac-7803-a9ea-f3b4ad4ad678","739F0AC3ECC545BBAF2D1683208B1BF5-2025-08-28-02-35-35","","null","","images/instructions/movie_0.png","null","",""
"","","","","","image-button-response","9","165347","0.0-6.0-1.0-0.0","739F0AC3ECC545BBAF2D1683208B1BF5","739F0AC3ECC545BBAF2D1683208B1BF5","0198ee57-bca3-720a-b376-36016acb7b52","0198ee3c-27ac-7803-a9ea-f3b4ad4ad678","{""num_scrambled_semantic"":""8"",""num_scrambled_causal"":""4"",""num_scrambled_schematic"":""4"",""participantId"":""739F0AC3ECC545BBAF2D1683208B1BF5"",""assignmentId"":""0198ee57-bca3-720a-b376-36016acb7b52"",""projectId"":""0198ee3c-27ac-7803-a9ea-f3b4ad4ad678""}","https://test12345.live/?num_scrambled_semantic=8&num_scrambled_causal=4&num_scrambled_schematic=4&participantId=739F0AC3ECC545BBAF2D1683208B1BF5&assignmentId=0198ee57-bca3-720a-b376-36016acb7b52&projectId=0198ee3c-27ac-7803-a9ea-f3b4ad4ad678","739F0AC3ECC545BBAF2D1683208B1BF5-2025-08-28-02-35-35","","null","","images/instructions/movie_1.png","null","",""
"","","","","","image-button-response","10","167780","0.0-6.0-1.0-1.0","739F0AC3ECC545BBAF2D1683208B1BF5","739F0AC3ECC545BBAF2D1683208B1BF5","0198ee57-bca3-720a-b376-36016acb7b52","0198ee3c-27ac-7803-a9ea-f3b4ad4ad678","{""num_scrambled_semantic"":""8"",""num_scrambled_causal"":""4"",""num_scrambled_schematic"":""4"",""participantId"":""739F0AC3ECC545BBAF2D1683208B1BF5"",""assignmentId"":""0198ee57-bca3-720a-b376-36016acb7b52"",""projectId"":""0198ee3c-27ac-7803-a9ea-f3b4ad4ad678""}","https://test12345.live/?num_scrambled_semantic=8&num_scrambled_causal=4&num_scrambled_schematic=4&participantId=739F0AC3ECC545BBAF2D1683208B1BF5&assignmentId=0198ee57-bca3-720a-b376-36016acb7b52&projectId=0198ee3c-27ac-7803-a9ea-f3b4ad4ad678","739F0AC3ECC545BBAF2D1683208B1BF5-2025-08-28-02-35-35","","2432","","images/instructions/movie_1.png","0","",""
"","","","","","image-button-response","11","169597","0.0-6.0-1.0-2.0","739F0AC3ECC545BBAF2D1683208B1BF5","739F0AC3ECC545BBAF2D1683208B1BF5","0198ee57-bca3-720a-b376-36016acb7b52","0198ee3c-27ac-7803-a9ea-f3b4ad4ad678","{""num_scrambled_semantic"":""8"",""num_scrambled_causal"":""4"",""num_scrambled_schematic"":""4"",""participantId"":""739F0AC3ECC545BBAF2D1683208B1BF5"",""assignmentId"":""0198ee57-bca3-720a-b376-36016acb7b52"",""projectId"":""0198ee3c-27ac-7803-a9ea-f3b4ad4ad678""}","https://test12345.live/?num_scrambled_semantic=8&num_scrambled_causal=4&num_scrambled_schematic=4&participantId=739F0AC3ECC545BBAF2D1683208B1BF5&assignmentId=0198ee57-bca3-720a-b376-36016acb7b52&projectId=0198ee3c-27ac-7803-a9ea-f3b4ad4ad678","739F0AC3ECC545BBAF2D1683208B1BF5-2025-08-28-02-35-35","","null","","[]","null","",""
"","","","","","image-button-response","12","174105","0.0-6.0-1.0-0.1","739F0AC3ECC545BBAF2D1683208B1BF5","739F0AC3ECC545BBAF2D1683208B1BF5","0198ee57-bca3-720a-b376-36016acb7b52","0198ee3c-27ac-7803-a9ea-f3b4ad4ad678","{""num_scrambled_semantic"":""8"",""num_scrambled_causal"":""4"",""num_scrambled_schematic"":""4"",""participantId"":""739F0AC3ECC545BBAF2D1683208B1BF5"",""assignmentId"":""0198ee57-bca3-720a-b376-36016acb7b52"",""projectId"":""0198ee3c-27ac-7803-a9ea-f3b4ad4ad678""}","https://test12345.live/?num_scrambled_semantic=8&num_scrambled_causal=4&num_scrambled_schematic=4&participantId=739F0AC3ECC545BBAF2D1683208B1BF5&assignmentId=0198ee57-bca3-720a-b376-36016acb7b52&projectId=0198ee3c-27ac-7803-a9ea-f3b4ad4ad678","739F0AC3ECC545BBAF2D1683208B1BF5-2025-08-28-02-35-35","","null","","images/instructions/movie_2.png","null","",""
"","","","","","image-button-response","13","175382","0.0-6.0-1.0-1.1","739F0AC3ECC545BBAF2D1683208B1BF5","739F0AC3ECC545BBAF2D1683208B1BF5","0198ee57-bca3-720a-b376-36016acb7b52","0198ee3c-27ac-7803-a9ea-f3b4ad4ad678","{""num_scrambled_semantic"":""8"",""num_scrambled_causal"":""4"",""num_scrambled_schematic"":""4"",""participantId"":""739F0AC3ECC545BBAF2D1683208B1BF5"",""assignmentId"":""0198ee57-bca3-720a-b376-36016acb7b52"",""projectId"":""0198ee3c-27ac-7803-a9ea-f3b4ad4ad678""}","https://test12345.live/?num_scrambled_semantic=8&num_scrambled_causal=4&num_scrambled_schematic=4&participantId=739F0AC3ECC545BBAF2D1683208B1BF5&assignmentId=0198ee57-bca3-720a-b376-36016acb7b52&projectId=0198ee3c-27ac-7803-a9ea-f3b4ad4ad678","739F0AC3ECC545BBAF2D1683208B1BF5-2025-08-28-02-35-35","","1276","","images/instructions/movie_2.png","0","",""
"","","","","","image-button-response","14","177196","0.0-6.0-1.0-2.1","739F0AC3ECC545BBAF2D1683208B1BF5","739F0AC3ECC545BBAF2D1683208B1BF5","0198ee57-bca3-720a-b376-36016acb7b52","0198ee3c-27ac-7803-a9ea-f3b4ad4ad678","{""num_scrambled_semantic"":""8"",""num_scrambled_causal"":""4"",""num_scrambled_schematic"":""4"",""participantId"":""739F0AC3ECC545BBAF2D1683208B1BF5"",""assignmentId"":""0198ee57-bca3-720a-b376-36016acb7b52"",""projectId"":""0198ee3c-27ac-7803-a9ea-f3b4ad4ad678""}","https://test12345.live/?num_scrambled_semantic=8&num_scrambled_causal=4&num_scrambled_schematic=4&participantId=739F0AC3ECC545BBAF2D1683208B1BF5&assignmentId=0198ee57-bca3-720a-b376-36016acb7b52&projectId=0198ee3c-27ac-7803-a9ea-f3b4ad4ad678","739F0AC3ECC545BBAF2D1683208B1BF5-2025-08-28-02-35-35","","null","","[]","null","",""
"","","","","","image-button-response","15","181700","0.0-6.0-1.0-0.2","739F0AC3ECC545BBAF2D1683208B1BF5","739F0AC3ECC545BBAF2D1683208B1BF5","0198ee57-bca3-720a-b376-36016acb7b52","0198ee3c-27ac-7803-a9ea-f3b4ad4ad678","{""num_scrambled_semantic"":""8"",""num_scrambled_causal"":""4"",""num_scrambled_schematic"":""4"",""participantId"":""739F0AC3ECC545BBAF2D1683208B1BF5"",""assignmentId"":""0198ee57-bca3-720a-b376-36016acb7b52"",""projectId"":""0198ee3c-27ac-7803-a9ea-f3b4ad4ad678""}","https://test12345.live/?num_scrambled_semantic=8&num_scrambled_causal=4&num_scrambled_schematic=4&participantId=739F0AC3ECC545BBAF2D1683208B1BF5&assignmentId=0198ee57-bca3-720a-b376-36016acb7b52&projectId=0198ee3c-27ac-7803-a9ea-f3b4ad4ad678","739F0AC3ECC545BBAF2D1683208B1BF5-2025-08-28-02-35-35","","null","","images/instructions/movie_3.png","null","",""
"","","","","","image-button-response","16","185716","0.0-6.0-1.0-1.2","739F0AC3ECC545BBAF2D1683208B1BF5","739F0AC3ECC545BBAF2D1683208B1BF5","0198ee57-bca3-720a-b376-36016acb7b52","0198ee3c-27ac-7803-a9ea-f3b4ad4ad678","{""num_scrambled_semantic"":""8"",""num_scrambled_causal"":""4"",""num_scrambled_schematic"":""4"",""participantId"":""739F0AC3ECC545BBAF2D1683208B1BF5"",""assignmentId"":""0198ee57-bca3-720a-b376-36016acb7b52"",""projectId"":""0198ee3c-27ac-7803-a9ea-f3b4ad4ad678""}","https://test12345.live/?num_scrambled_semantic=8&num_scrambled_causal=4&num_scrambled_schematic=4&participantId=739F0AC3ECC545BBAF2D1683208B1BF5&assignmentId=0198ee57-bca3-720a-b376-36016acb7b52&projectId=0198ee3c-27ac-7803-a9ea-f3b4ad4ad678","739F0AC3ECC545BBAF2D1683208B1BF5-2025-08-28-02-35-35","","null","","images/instructions/movie_3.png","null","",""
"","","","","","image-button-response","17","187519","0.0-6.0-1.0-2.2","739F0AC3ECC545BBAF2D1683208B1BF5","739F0AC3ECC545BBAF2D1683208B1BF5","0198ee57-bca3-720a-b376-36016acb7b52","0198ee3c-27ac-7803-a9ea-f3b4ad4ad678","{""num_scrambled_semantic"":""8"",""num_scrambled_causal"":""4"",""num_scrambled_schematic"":""4"",""participantId"":""739F0AC3ECC545BBAF2D1683208B1BF5"",""assignmentId"":""0198ee57-bca3-720a-b376-36016acb7b52"",""projectId"":""0198ee3c-27ac-7803-a9ea-f3b4ad4ad678""}","https://test12345.live/?num_scrambled_semantic=8&num_scrambled_causal=4&num_scrambled_schematic=4&participantId=739F0AC3ECC545BBAF2D1683208B1BF5&assignmentId=0198ee57-bca3-720a-b376-36016acb7b52&projectId=0198ee3c-27ac-7803-a9ea-f3b4ad4ad678","739F0AC3ECC545BBAF2D1683208B1BF5-2025-08-28-02-35-35","","null","","[]","null","",""
"","","","","","image-button-response","18","192021","0.0-6.0-1.0-0.3","739F0AC3ECC545BBAF2D1683208B1BF5","739F0AC3ECC545BBAF2D1683208B1BF5","0198ee57-bca3-720a-b376-36016acb7b52","0198ee3c-27ac-7803-a9ea-f3b4ad4ad678","{""num_scrambled_semantic"":""8"",""num_scrambled_causal"":""4"",""num_scrambled_schematic"":""4"",""participantId"":""739F0AC3ECC545BBAF2D1683208B1BF5"",""assignmentId"":""0198ee57-bca3-720a-b376-36016acb7b52"",""projectId"":""0198ee3c-27ac-7803-a9ea-f3b4ad4ad678""}","https://test12345.live/?num_scrambled_semantic=8&num_scrambled_causal=4&num_scrambled_schematic=4&participantId=739F0AC3ECC545BBAF2D1683208B1BF5&assignmentId=0198ee57-bca3-720a-b376-36016acb7b52&projectId=0198ee3c-27ac-7803-a9ea-f3b4ad4ad678","739F0AC3ECC545BBAF2D1683208B1BF5-2025-08-28-02-35-35","","null","","images/instructions/movie_4.png","null","",""
"","","","","","image-button-response","19","192708","0.0-6.0-1.0-1.3","739F0AC3ECC545BBAF2D1683208B1BF5","739F0AC3ECC545BBAF2D1683208B1BF5","0198ee57-bca3-720a-b376-36016acb7b52","0198ee3c-27ac-7803-a9ea-f3b4ad4ad678","{""num_scrambled_semantic"":""8"",""num_scrambled_causal"":""4"",""num_scrambled_schematic"":""4"",""participantId"":""739F0AC3ECC545BBAF2D1683208B1BF5"",""assignmentId"":""0198ee57-bca3-720a-b376-36016acb7b52"",""projectId"":""0198ee3c-27ac-7803-a9ea-f3b4ad4ad678""}","https://test12345.live/?num_scrambled_semantic=8&num_scrambled_causal=4&num_scrambled_schematic=4&participantId=739F0AC3ECC545BBAF2D1683208B1BF5&assignmentId=0198ee57-bca3-720a-b376-36016acb7b52&projectId=0198ee3c-27ac-7803-a9ea-f3b4ad4ad678","739F0AC3ECC545BBAF2D1683208B1BF5-2025-08-28-02-35-35","","687","","images/instructions/movie_4.png","0","",""
"","","","","","image-button-response","20","194510","0.0-6.0-1.0-2.3","739F0AC3ECC545BBAF2D1683208B1BF5","739F0AC3ECC545BBAF2D1683208B1BF5","0198ee57-bca3-720a-b376-36016acb7b52","0198ee3c-27ac-7803-a9ea-f3b4ad4ad678","{""num_scrambled_semantic"":""8"",""num_scrambled_causal"":""4"",""num_scrambled_schematic"":""4"",""participantId"":""739F0AC3ECC545BBAF2D1683208B1BF5"",""assignmentId"":""0198ee57-bca3-720a-b376-36016acb7b52"",""projectId"":""0198ee3c-27ac-7803-a9ea-f3b4ad4ad678""}","https://test12345.live/?num_scrambled_semantic=8&num_scrambled_causal=4&num_scrambled_schematic=4&participantId=739F0AC3ECC545BBAF2D1683208B1BF5&assignmentId=0198ee57-bca3-720a-b376-36016acb7b52&projectId=0198ee3c-27ac-7803-a9ea-f3b4ad4ad678","739F0AC3ECC545BBAF2D1683208B1BF5-2025-08-28-02-35-35","","null","","[]","null","",""
"","","","","","instructions","21","202354","0.0-7.0","739F0AC3ECC545BBAF2D1683208B1BF5","739F0AC3ECC545BBAF2D1683208B1BF5","0198ee57-bca3-720a-b376-36016acb7b52","0198ee3c-27ac-7803-a9ea-f3b4ad4ad678","{""num_scrambled_semantic"":""8"",""num_scrambled_causal"":""4"",""num_scrambled_schematic"":""4"",""participantId"":""739F0AC3ECC545BBAF2D1683208B1BF5"",""assignmentId"":""0198ee57-bca3-720a-b376-36016acb7b52"",""projectId"":""0198ee3c-27ac-7803-a9ea-f3b4ad4ad678""}","https://test12345.live/?num_scrambled_semantic=8&num_scrambled_causal=4&num_scrambled_schematic=4&participantId=739F0AC3ECC545BBAF2D1683208B1BF5&assignmentId=0198ee57-bca3-720a-b376-36016acb7b52&projectId=0198ee3c-27ac-7803-a9ea-f3b4ad4ad678","739F0AC3ECC545BBAF2D1683208B1BF5-2025-08-28-02-35-35","[{""page_index"":0,""viewing_time"":7844}]","7844","","","","",""
"","","","","","html-audio-response","22","269859","0.0-8.0","739F0AC3ECC545BBAF2D1683208B1BF5","739F0AC3ECC545BBAF2D1683208B1BF5","0198ee57-bca3-720a-b376-36016acb7b52","0198ee3c-27ac-7803-a9ea-f3b4ad4ad678","{""num_scrambled_semantic"":""8"",""num_scrambled_causal"":""4"",""num_scrambled_schematic"":""4"",""participantId"":""739F0AC3ECC545BBAF2D1683208B1BF5"",""assignmentId"":""0198ee57-bca3-720a-b376-36016acb7b52"",""projectId"":""0198ee3c-27ac-7803-a9ea-f3b4ad4ad678""}","https://test12345.live/?num_scrambled_semantic=8&num_scrambled_causal=4&num_scrambled_schematic=4&participantId=739F0AC3ECC545BBAF2D1683208B1BF5&assignmentId=0198ee57-bca3-720a-b376-36016acb7b52&projectId=0198ee3c-27ac-7803-a9ea-f3b4ad4ad678","739F0AC3ECC545BBAF2D1683208B1BF5-2025-08-28-02-35-35","","12885","","[""<span style=\""color: red; font-size: 24px\""> NOW RECORDING</span><p>Please say out loud all the images you saw, in the order of the story they create. Try to recall the sequence of events as they appeared in the story, not necessarily the order they were presented on the screen.</p>""]","","4",""
"","","","","","instructions","23","271539","0.0-9.0","739F0AC3ECC545BBAF2D1683208B1BF5","739F0AC3ECC545BBAF2D1683208B1BF5","0198ee57-bca3-720a-b376-36016acb7b52","0198ee3c-27ac-7803-a9ea-f3b4ad4ad678","{""num_scrambled_semantic"":""8"",""num_scrambled_causal"":""4"",""num_scrambled_schematic"":""4"",""participantId"":""739F0AC3ECC545BBAF2D1683208B1BF5"",""assignmentId"":""0198ee57-bca3-720a-b376-36016acb7b52"",""projectId"":""0198ee3c-27ac-7803-a9ea-f3b4ad4ad678""}","https://test12345.live/?num_scrambled_semantic=8&num_scrambled_causal=4&num_scrambled_schematic=4&participantId=739F0AC3ECC545BBAF2D1683208B1BF5&assignmentId=0198ee57-bca3-720a-b376-36016acb7b52&projectId=0198ee3c-27ac-7803-a9ea-f3b4ad4ad678","739F0AC3ECC545BBAF2D1683208B1BF5-2025-08-28-02-35-35","[{""page_index"":0,""viewing_time"":1678}]","1678","","","","",""
"","","","","","image-button-response","24","277547","0.0-10.0-0.0","739F0AC3ECC545BBAF2D1683208B1BF5","739F0AC3ECC545BBAF2D1683208B1BF5","0198ee57-bca3-720a-b376-36016acb7b52","0198ee3c-27ac-7803-a9ea-f3b4ad4ad678","{""num_scrambled_semantic"":""8"",""num_scrambled_causal"":""4"",""num_scrambled_schematic"":""4"",""participantId"":""739F0AC3ECC545BBAF2D1683208B1BF5"",""assignmentId"":""0198ee57-bca3-720a-b376-36016acb7b52"",""projectId"":""0198ee3c-27ac-7803-a9ea-f3b4ad4ad678""}","https://test12345.live/?num_scrambled_semantic=8&num_scrambled_causal=4&num_scrambled_schematic=4&participantId=739F0AC3ECC545BBAF2D1683208B1BF5&assignmentId=0198ee57-bca3-720a-b376-36016acb7b52&projectId=0198ee3c-27ac-7803-a9ea-f3b4ad4ad678","739F0AC3ECC545BBAF2D1683208B1BF5-2025-08-28-02-35-35","","null","","images/semantic_sequence/creative_activities_semantic/creative_activities_semantic_0.png","null","",""
"","","","","","image-button-response","25","282050","0.0-10.0-1.0-0.0","739F0AC3ECC545BBAF2D1683208B1BF5","739F0AC3ECC545BBAF2D1683208B1BF5","0198ee57-bca3-720a-b376-36016acb7b52","0198ee3c-27ac-7803-a9ea-f3b4ad4ad678","{""num_scrambled_semantic"":""8"",""num_scrambled_causal"":""4"",""num_scrambled_schematic"":""4"",""participantId"":""739F0AC3ECC545BBAF2D1683208B1BF5"",""assignmentId"":""0198ee57-bca3-720a-b376-36016acb7b52"",""projectId"":""0198ee3c-27ac-7803-a9ea-f3b4ad4ad678""}","https://test12345.live/?num_scrambled_semantic=8&num_scrambled_causal=4&num_scrambled_schematic=4&participantId=739F0AC3ECC545BBAF2D1683208B1BF5&assignmentId=0198ee57-bca3-720a-b376-36016acb7b52&projectId=0198ee3c-27ac-7803-a9ea-f3b4ad4ad678","739F0AC3ECC545BBAF2D1683208B1BF5-2025-08-28-02-35-35","","null","","images/semantic_sequence/creative_activities_semantic/creative_activities_semantic_1.png","null","",""
"","","","","","image-button-response","26","282997","0.0-10.0-1.0-1.0","739F0AC3ECC545BBAF2D1683208B1BF5","739F0AC3ECC545BBAF2D1683208B1BF5","0198ee57-bca3-720a-b376-36016acb7b52","0198ee3c-27ac-7803-a9ea-f3b4ad4ad678","{""num_scrambled_semantic"":""8"",""num_scrambled_causal"":""4"",""num_scrambled_schematic"":""4"",""participantId"":""739F0AC3ECC545BBAF2D1683208B1BF5"",""assignmentId"":""0198ee57-bca3-720a-b376-36016acb7b52"",""projectId"":""0198ee3c-27ac-7803-a9ea-f3b4ad4ad678""}","https://test12345.live/?num_scrambled_semantic=8&num_scrambled_causal=4&num_scrambled_schematic=4&participantId=739F0AC3ECC545BBAF2D1683208B1BF5&assignmentId=0198ee57-bca3-720a-b376-36016acb7b52&projectId=0198ee3c-27ac-7803-a9ea-f3b4ad4ad678","739F0AC3ECC545BBAF2D1683208B1BF5-2025-08-28-02-35-35","","946","","images/semantic_sequence/creative_activities_semantic/creative_activities_semantic_1.png","0","",""
"","","","","","image-button-response","27","284808","0.0-10.0-1.0-2.0","739F0AC3ECC545BBAF2D1683208B1BF5","739F0AC3ECC545BBAF2D1683208B1BF5","0198ee57-bca3-720a-b376-36016acb7b52","0198ee3c-27ac-7803-a9ea-f3b4ad4ad678","{""num_scrambled_semantic"":""8"",""num_scrambled_causal"":""4"",""num_scrambled_schematic"":""4"",""participantId"":""739F0AC3ECC545BBAF2D1683208B1BF5"",""assignmentId"":""0198ee57-bca3-720a-b376-36016acb7b52"",""projectId"":""0198ee3c-27ac-7803-a9ea-f3b4ad4ad678""}","https://test12345.live/?num_scrambled_semantic=8&num_scrambled_causal=4&num_scrambled_schematic=4&participantId=739F0AC3ECC545BBAF2D1683208B1BF5&assignmentId=0198ee57-bca3-720a-b376-36016acb7b52&projectId=0198ee3c-27ac-7803-a9ea-f3b4ad4ad678","739F0AC3ECC545BBAF2D1683208B1BF5-2025-08-28-02-35-35","","null","","[]","null","",""
"","","","","","image-button-response","28","289317","0.0-10.0-1.0-0.1","739F0AC3ECC545BBAF2D1683208B1BF5","739F0AC3ECC545BBAF2D1683208B1BF5","0198ee57-bca3-720a-b376-36016acb7b52","0198ee3c-27ac-7803-a9ea-f3b4ad4ad678","{""num_scrambled_semantic"":""8"",""num_scrambled_causal"":""4"",""num_scrambled_schematic"":""4"",""participantId"":""739F0AC3ECC545BBAF2D1683208B1BF5"",""assignmentId"":""0198ee57-bca3-720a-b376-36016acb7b52"",""projectId"":""0198ee3c-27ac-7803-a9ea-f3b4ad4ad678""}","https://test12345.live/?num_scrambled_semantic=8&num_scrambled_causal=4&num_scrambled_schematic=4&participantId=739F0AC3ECC545BBAF2D1683208B1BF5&assignmentId=0198ee57-bca3-720a-b376-36016acb7b52&projectId=0198ee3c-27ac-7803-a9ea-f3b4ad4ad678","739F0AC3ECC545BBAF2D1683208B1BF5-2025-08-28-02-35-35","","null","","images/semantic_sequence/creative_activities_semantic/creative_activities_semantic_2.png","null","",""
"","","","","","image-button-response","29","290201","0.0-10.0-1.0-1.1","739F0AC3ECC545BBAF2D1683208B1BF5","739F0AC3ECC545BBAF2D1683208B1BF5","0198ee57-bca3-720a-b376-36016acb7b52","0198ee3c-27ac-7803-a9ea-f3b4ad4ad678","{""num_scrambled_semantic"":""8"",""num_scrambled_causal"":""4"",""num_scrambled_schematic"":""4"",""participantId"":""739F0AC3ECC545BBAF2D1683208B1BF5"",""assignmentId"":""0198ee57-bca3-720a-b376-36016acb7b52"",""projectId"":""0198ee3c-27ac-7803-a9ea-f3b4ad4ad678""}","https://test12345.live/?num_scrambled_semantic=8&num_scrambled_causal=4&num_scrambled_schematic=4&participantId=739F0AC3ECC545BBAF2D1683208B1BF5&assignmentId=0198ee57-bca3-720a-b376-36016acb7b52&projectId=0198ee3c-27ac-7803-a9ea-f3b4ad4ad678","739F0AC3ECC545BBAF2D1683208B1BF5-2025-08-28-02-35-35","","884","","images/semantic_sequence/creative_activities_semantic/creative_activities_semantic_2.png","0","",""
"","","","","","image-button-response","30","292009","0.0-10.0-1.0-2.1","739F0AC3ECC545BBAF2D1683208B1BF5","739F0AC3ECC545BBAF2D1683208B1BF5","0198ee57-bca3-720a-b376-36016acb7b52","0198ee3c-27ac-7803-a9ea-f3b4ad4ad678","{""num_scrambled_semantic"":""8"",""num_scrambled_causal"":""4"",""num_scrambled_schematic"":""4"",""participantId"":""739F0AC3ECC545BBAF2D1683208B1BF5"",""assignmentId"":""0198ee57-bca3-720a-b376-36016acb7b52"",""projectId"":""0198ee3c-27ac-7803-a9ea-f3b4ad4ad678""}","https://test12345.live/?num_scrambled_semantic=8&num_scrambled_causal=4&num_scrambled_schematic=4&participantId=739F0AC3ECC545BBAF2D1683208B1BF5&assignmentId=0198ee57-bca3-720a-b376-36016acb7b52&projectId=0198ee3c-27ac-7803-a9ea-f3b4ad4ad678","739F0AC3ECC545BBAF2D1683208B1BF5-2025-08-28-02-35-35","","null","","[]","null","",""
"","","","","","image-button-response","31","296515","0.0-10.0-1.0-0.2","739F0AC3ECC545BBAF2D1683208B1BF5","739F0AC3ECC545BBAF2D1683208B1BF5","0198ee57-bca3-720a-b376-36016acb7b52","0198ee3c-27ac-7803-a9ea-f3b4ad4ad678","{""num_scrambled_semantic"":""8"",""num_scrambled_causal"":""4"",""num_scrambled_schematic"":""4"",""participantId"":""739F0AC3ECC545BBAF2D1683208B1BF5"",""assignmentId"":""0198ee57-bca3-720a-b376-36016acb7b52"",""projectId"":""0198ee3c-27ac-7803-a9ea-f3b4ad4ad678""}","https://test12345.live/?num_scrambled_semantic=8&num_scrambled_causal=4&num_scrambled_schematic=4&participantId=739F0AC3ECC545BBAF2D1683208B1BF5&assignmentId=0198ee57-bca3-720a-b376-36016acb7b52&projectId=0198ee3c-27ac-7803-a9ea-f3b4ad4ad678","739F0AC3ECC545BBAF2D1683208B1BF5-2025-08-28-02-35-35","","null","","images/semantic_sequence/creative_activities_semantic/creative_activities_semantic_3.png","null","",""
"","","","","","image-button-response","32","297568","0.0-10.0-1.0-1.2","739F0AC3ECC545BBAF2D1683208B1BF5","739F0AC3ECC545BBAF2D1683208B1BF5","0198ee57-bca3-720a-b376-36016acb7b52","0198ee3c-27ac-7803-a9ea-f3b4ad4ad678","{""num_scrambled_semantic"":""8"",""num_scrambled_causal"":""4"",""num_scrambled_schematic"":""4"",""participantId"":""739F0AC3ECC545BBAF2D1683208B1BF5"",""assignmentId"":""0198ee57-bca3-720a-b376-36016acb7b52"",""projectId"":""0198ee3c-27ac-7803-a9ea-f3b4ad4ad678""}","https://test12345.live/?num_scrambled_semantic=8&num_scrambled_causal=4&num_scrambled_schematic=4&participantId=739F0AC3ECC545BBAF2D1683208B1BF5&assignmentId=0198ee57-bca3-720a-b376-36016acb7b52&projectId=0198ee3c-27ac-7803-a9ea-f3b4ad4ad678","739F0AC3ECC545BBAF2D1683208B1BF5-2025-08-28-02-35-35","","1052","","images/semantic_sequence/creative_activities_semantic/creative_activities_semantic_3.png","0","",""
"","","","","","image-button-response","33","299377","0.0-10.0-1.0-2.2","739F0AC3ECC545BBAF2D1683208B1BF5","739F0AC3ECC545BBAF2D1683208B1BF5","0198ee57-bca3-720a-b376-36016acb7b52","0198ee3c-27ac-7803-a9ea-f3b4ad4ad678","{""num_scrambled_semantic"":""8"",""num_scrambled_causal"":""4"",""num_scrambled_schematic"":""4"",""participantId"":""739F0AC3ECC545BBAF2D1683208B1BF5"",""assignmentId"":""0198ee57-bca3-720a-b376-36016acb7b52"",""projectId"":""0198ee3c-27ac-7803-a9ea-f3b4ad4ad678""}","https://test12345.live/?num_scrambled_semantic=8&num_scrambled_causal=4&num_scrambled_schematic=4&participantId=739F0AC3ECC545BBAF2D1683208B1BF5&assignmentId=0198ee57-bca3-720a-b376-36016acb7b52&projectId=0198ee3c-27ac-7803-a9ea-f3b4ad4ad678","739F0AC3ECC545BBAF2D1683208B1BF5-2025-08-28-02-35-35","","null","","[]","null","",""
"","","","","","image-button-response","34","303877","0.0-10.0-1.0-0.3","739F0AC3ECC545BBAF2D1683208B1BF5","739F0AC3ECC545BBAF2D1683208B1BF5","0198ee57-bca3-720a-b376-36016acb7b52","0198ee3c-27ac-7803-a9ea-f3b4ad4ad678","{""num_scrambled_semantic"":""8"",""num_scrambled_causal"":""4"",""num_scrambled_schematic"":""4"",""participantId"":""739F0AC3ECC545BBAF2D1683208B1BF5"",""assignmentId"":""0198ee57-bca3-720a-b376-36016acb7b52"",""projectId"":""0198ee3c-27ac-7803-a9ea-f3b4ad4ad678""}","https://test12345.live/?num_scrambled_semantic=8&num_scrambled_causal=4&num_scrambled_schematic=4&participantId=739F0AC3ECC545BBAF2D1683208B1BF5&assignmentId=0198ee57-bca3-720a-b376-36016acb7b52&projectId=0198ee3c-27ac-7803-a9ea-f3b4ad4ad678","739F0AC3ECC545BBAF2D1683208B1BF5-2025-08-28-02-35-35","","null","","images/semantic_sequence/creative_activities_semantic/creative_activities_semantic_4.png","null","",""
"","","","","","image-button-response","35","304649","0.0-10.0-1.0-1.3","739F0AC3ECC545BBAF2D1683208B1BF5","739F0AC3ECC545BBAF2D1683208B1BF5","0198ee57-bca3-720a-b376-36016acb7b52","0198ee3c-27ac-7803-a9ea-f3b4ad4ad678","{""num_scrambled_semantic"":""8"",""num_scrambled_causal"":""4"",""num_scrambled_schematic"":""4"",""participantId"":""739F0AC3ECC545BBAF2D1683208B1BF5"",""assignmentId"":""0198ee57-bca3-720a-b376-36016acb7b52"",""projectId"":""0198ee3c-27ac-7803-a9ea-f3b4ad4ad678""}","https://test12345.live/?num_scrambled_semantic=8&num_scrambled_causal=4&num_scrambled_schematic=4&participantId=739F0AC3ECC545BBAF2D1683208B1BF5&assignmentId=0198ee57-bca3-720a-b376-36016acb7b52&projectId=0198ee3c-27ac-7803-a9ea-f3b4ad4ad678","739F0AC3ECC545BBAF2D1683208B1BF5-2025-08-28-02-35-35","","771","","images/semantic_sequence/creative_activities_semantic/creative_activities_semantic_4.png","0","",""
"","","","","","image-button-response","36","306461","0.0-10.0-1.0-2.3","739F0AC3ECC545BBAF2D1683208B1BF5","739F0AC3ECC545BBAF2D1683208B1BF5","0198ee57-bca3-720a-b376-36016acb7b52","0198ee3c-27ac-7803-a9ea-f3b4ad4ad678","{""num_scrambled_semantic"":""8"",""num_scrambled_causal"":""4"",""num_scrambled_schematic"":""4"",""participantId"":""739F0AC3ECC545BBAF2D1683208B1BF5"",""assignmentId"":""0198ee57-bca3-720a-b376-36016acb7b52"",""projectId"":""0198ee3c-27ac-7803-a9ea-f3b4ad4ad678""}","https://test12345.live/?num_scrambled_semantic=8&num_scrambled_causal=4&num_scrambled_schematic=4&participantId=739F0AC3ECC545BBAF2D1683208B1BF5&assignmentId=0198ee57-bca3-720a-b376-36016acb7b52&projectId=0198ee3c-27ac-7803-a9ea-f3b4ad4ad678","739F0AC3ECC545BBAF2D1683208B1BF5-2025-08-28-02-35-35","","null","","[]","null","",""
"","","","","","image-button-response","37","310966","0.0-10.0-1.0-0.4","739F0AC3ECC545BBAF2D1683208B1BF5","739F0AC3ECC545BBAF2D1683208B1BF5","0198ee57-bca3-720a-b376-36016acb7b52","0198ee3c-27ac-7803-a9ea-f3b4ad4ad678","{""num_scrambled_semantic"":""8"",""num_scrambled_causal"":""4"",""num_scrambled_schematic"":""4"",""participantId"":""739F0AC3ECC545BBAF2D1683208B1BF5"",""assignmentId"":""0198ee57-bca3-720a-b376-36016acb7b52"",""projectId"":""0198ee3c-27ac-7803-a9ea-f3b4ad4ad678""}","https://test12345.live/?num_scrambled_semantic=8&num_scrambled_causal=4&num_scrambled_schematic=4&participantId=739F0AC3ECC545BBAF2D1683208B1BF5&assignmentId=0198ee57-bca3-720a-b376-36016acb7b52&projectId=0198ee3c-27ac-7803-a9ea-f3b4ad4ad678","739F0AC3ECC545BBAF2D1683208B1BF5-2025-08-28-02-35-35","","null","","images/semantic_sequence/creative_activities_semantic/creative_activities_semantic_5.png","null","",""
"","","","","","image-button-response","38","312388","0.0-10.0-1.0-1.4","739F0AC3ECC545BBAF2D1683208B1BF5","739F0AC3ECC545BBAF2D1683208B1BF5","0198ee57-bca3-720a-b376-36016acb7b52","0198ee3c-27ac-7803-a9ea-f3b4ad4ad678","{""num_scrambled_semantic"":""8"",""num_scrambled_causal"":""4"",""num_scrambled_schematic"":""4"",""participantId"":""739F0AC3ECC545BBAF2D1683208B1BF5"",""assignmentId"":""0198ee57-bca3-720a-b376-36016acb7b52"",""projectId"":""0198ee3c-27ac-7803-a9ea-f3b4ad4ad678""}","https://test12345.live/?num_scrambled_semantic=8&num_scrambled_causal=4&num_scrambled_schematic=4&participantId=739F0AC3ECC545BBAF2D1683208B1BF5&assignmentId=0198ee57-bca3-720a-b376-36016acb7b52&projectId=0198ee3c-27ac-7803-a9ea-f3b4ad4ad678","739F0AC3ECC545BBAF2D1683208B1BF5-2025-08-28-02-35-35","","1421","","images/semantic_sequence/creative_activities_semantic/creative_activities_semantic_5.png","0","",""
"","","","","","image-button-response","39","314195","0.0-10.0-1.0-2.4","739F0AC3ECC545BBAF2D1683208B1BF5","739F0AC3ECC545BBAF2D1683208B1BF5","0198ee57-bca3-720a-b376-36016acb7b52","0198ee3c-27ac-7803-a9ea-f3b4ad4ad678","{""num_scrambled_semantic"":""8"",""num_scrambled_causal"":""4"",""num_scrambled_schematic"":""4"",""participantId"":""739F0AC3ECC545BBAF2D1683208B1BF5"",""assignmentId"":""0198ee57-bca3-720a-b376-36016acb7b52"",""projectId"":""0198ee3c-27ac-7803-a9ea-f3b4ad4ad678""}","https://test12345.live/?num_scrambled_semantic=8&num_scrambled_causal=4&num_scrambled_schematic=4&participantId=739F0AC3ECC545BBAF2D1683208B1BF5&assignmentId=0198ee57-bca3-720a-b376-36016acb7b52&projectId=0198ee3c-27ac-7803-a9ea-f3b4ad4ad678","739F0AC3ECC545BBAF2D1683208B1BF5-2025-08-28-02-35-35","","null","","[]","null","",""
"","","","","","image-button-response","40","318696","0.0-10.0-1.0-0.5","739F0AC3ECC545BBAF2D1683208B1BF5","739F0AC3ECC545BBAF2D1683208B1BF5","0198ee57-bca3-720a-b376-36016acb7b52","0198ee3c-27ac-7803-a9ea-f3b4ad4ad678","{""num_scrambled_semantic"":""8"",""num_scrambled_causal"":""4"",""num_scrambled_schematic"":""4"",""participantId"":""739F0AC3ECC545BBAF2D1683208B1BF5"",""assignmentId"":""0198ee57-bca3-720a-b376-36016acb7b52"",""projectId"":""0198ee3c-27ac-7803-a9ea-f3b4ad4ad678""}","https://test12345.live/?num_scrambled_semantic=8&num_scrambled_causal=4&num_scrambled_schematic=4&participantId=739F0AC3ECC545BBAF2D1683208B1BF5&assignmentId=0198ee57-bca3-720a-b376-36016acb7b52&projectId=0198ee3c-27ac-7803-a9ea-f3b4ad4ad678","739F0AC3ECC545BBAF2D1683208B1BF5-2025-08-28-02-35-35","","null","","images/semantic_sequence/creative_activities_semantic/creative_activities_semantic_6.png","null","",""
"","","","","","image-button-response","41","320246","0.0-10.0-1.0-1.5","739F0AC3ECC545BBAF2D1683208B1BF5","739F0AC3ECC545BBAF2D1683208B1BF5","0198ee57-bca3-720a-b376-36016acb7b52","0198ee3c-27ac-7803-a9ea-f3b4ad4ad678","{""num_scrambled_semantic"":""8"",""num_scrambled_causal"":""4"",""num_scrambled_schematic"":""4"",""participantId"":""739F0AC3ECC545BBAF2D1683208B1BF5"",""assignmentId"":""0198ee57-bca3-720a-b376-36016acb7b52"",""projectId"":""0198ee3c-27ac-7803-a9ea-f3b4ad4ad678""}","https://test12345.live/?num_scrambled_semantic=8&num_scrambled_causal=4&num_scrambled_schematic=4&participantId=739F0AC3ECC545BBAF2D1683208B1BF5&assignmentId=0198ee57-bca3-720a-b376-36016acb7b52&projectId=0198ee3c-27ac-7803-a9ea-f3b4ad4ad678","739F0AC3ECC545BBAF2D1683208B1BF5-2025-08-28-02-35-35","","1549","","images/semantic_sequence/creative_activities_semantic/creative_activities_semantic_6.png","0","",""
"","","","","","image-button-response","42","322059","0.0-10.0-1.0-2.5","739F0AC3ECC545BBAF2D1683208B1BF5","739F0AC3ECC545BBAF2D1683208B1BF5","0198ee57-bca3-720a-b376-36016acb7b52","0198ee3c-27ac-7803-a9ea-f3b4ad4ad678","{""num_scrambled_semantic"":""8"",""num_scrambled_causal"":""4"",""num_scrambled_schematic"":""4"",""participantId"":""739F0AC3ECC545BBAF2D1683208B1BF5"",""assignmentId"":""0198ee57-bca3-720a-b376-36016acb7b52"",""projectId"":""0198ee3c-27ac-7803-a9ea-f3b4ad4ad678""}","https://test12345.live/?num_scrambled_semantic=8&num_scrambled_causal=4&num_scrambled_schematic=4&participantId=739F0AC3ECC545BBAF2D1683208B1BF5&assignmentId=0198ee57-bca3-720a-b376-36016acb7b52&projectId=0198ee3c-27ac-7803-a9ea-f3b4ad4ad678","739F0AC3ECC545BBAF2D1683208B1BF5-2025-08-28-02-35-35","","null","","[]","null","",""
"","","","","","image-button-response","43","326561","0.0-10.0-1.0-0.6","739F0AC3ECC545BBAF2D1683208B1BF5","739F0AC3ECC545BBAF2D1683208B1BF5","0198ee57-bca3-720a-b376-36016acb7b52","0198ee3c-27ac-7803-a9ea-f3b4ad4ad678","{""num_scrambled_semantic"":""8"",""num_scrambled_causal"":""4"",""num_scrambled_schematic"":""4"",""participantId"":""739F0AC3ECC545BBAF2D1683208B1BF5"",""assignmentId"":""0198ee57-bca3-720a-b376-36016acb7b52"",""projectId"":""0198ee3c-27ac-7803-a9ea-f3b4ad4ad678""}","https://test12345.live/?num_scrambled_semantic=8&num_scrambled_causal=4&num_scrambled_schematic=4&participantId=739F0AC3ECC545BBAF2D1683208B1BF5&assignmentId=0198ee57-bca3-720a-b376-36016acb7b52&projectId=0198ee3c-27ac-7803-a9ea-f3b4ad4ad678","739F0AC3ECC545BBAF2D1683208B1BF5-2025-08-28-02-35-35","","null","","images/semantic_sequence/creative_activities_semantic/creative_activities_semantic_7.png","null","",""
"","","","","","image-button-response","44","327115","0.0-10.0-1.0-1.6","739F0AC3ECC545BBAF2D1683208B1BF5","739F0AC3ECC545BBAF2D1683208B1BF5","0198ee57-bca3-720a-b376-36016acb7b52","0198ee3c-27ac-7803-a9ea-f3b4ad4ad678","{""num_scrambled_semantic"":""8"",""num_scrambled_causal"":""4"",""num_scrambled_schematic"":""4"",""participantId"":""739F0AC3ECC545BBAF2D1683208B1BF5"",""assignmentId"":""0198ee57-bca3-720a-b376-36016acb7b52"",""projectId"":""0198ee3c-27ac-7803-a9ea-f3b4ad4ad678""}","https://test12345.live/?num_scrambled_semantic=8&num_scrambled_causal=4&num_scrambled_schematic=4&participantId=739F0AC3ECC545BBAF2D1683208B1BF5&assignmentId=0198ee57-bca3-720a-b376-36016acb7b52&projectId=0198ee3c-27ac-7803-a9ea-f3b4ad4ad678","739F0AC3ECC545BBAF2D1683208B1BF5-2025-08-28-02-35-35","","554","","images/semantic_sequence/creative_activities_semantic/creative_activities_semantic_7.png","0","",""
"","","","","","image-button-response","45","328926","0.0-10.0-1.0-2.6","739F0AC3ECC545BBAF2D1683208B1BF5","739F0AC3ECC545BBAF2D1683208B1BF5","0198ee57-bca3-720a-b376-36016acb7b52","0198ee3c-27ac-7803-a9ea-f3b4ad4ad678","{""num_scrambled_semantic"":""8"",""num_scrambled_causal"":""4"",""num_scrambled_schematic"":""4"",""participantId"":""739F0AC3ECC545BBAF2D1683208B1BF5"",""assignmentId"":""0198ee57-bca3-720a-b376-36016acb7b52"",""projectId"":""0198ee3c-27ac-7803-a9ea-f3b4ad4ad678""}","https://test12345.live/?num_scrambled_semantic=8&num_scrambled_causal=4&num_scrambled_schematic=4&participantId=739F0AC3ECC545BBAF2D1683208B1BF5&assignmentId=0198ee57-bca3-720a-b376-36016acb7b52&projectId=0198ee3c-27ac-7803-a9ea-f3b4ad4ad678","739F0AC3ECC545BBAF2D1683208B1BF5-2025-08-28-02-35-35","","null","","[]","null","",""
"","","","","","image-button-response","46","333432","0.0-10.0-1.0-0.7","739F0AC3ECC545BBAF2D1683208B1BF5","739F0AC3ECC545BBAF2D1683208B1BF5","0198ee57-bca3-720a-b376-36016acb7b52","0198ee3c-27ac-7803-a9ea-f3b4ad4ad678","{""num_scrambled_semantic"":""8"",""num_scrambled_causal"":""4"",""num_scrambled_schematic"":""4"",""participantId"":""739F0AC3ECC545BBAF2D1683208B1BF5"",""assignmentId"":""0198ee57-bca3-720a-b376-36016acb7b52"",""projectId"":""0198ee3c-27ac-7803-a9ea-f3b4ad4ad678""}","https://test12345.live/?num_scrambled_semantic=8&num_scrambled_causal=4&num_scrambled_schematic=4&participantId=739F0AC3ECC545BBAF2D1683208B1BF5&assignmentId=0198ee57-bca3-720a-b376-36016acb7b52&projectId=0198ee3c-27ac-7803-a9ea-f3b4ad4ad678","739F0AC3ECC545BBAF2D1683208B1BF5-2025-08-28-02-35-35","","null","","images/semantic_sequence/creative_activities_semantic/creative_activities_semantic_8.png","null","",""
"","","","","","image-button-response","47","334058","0.0-10.0-1.0-1.7","739F0AC3ECC545BBAF2D1683208B1BF5","739F0AC3ECC545BBAF2D1683208B1BF5","0198ee57-bca3-720a-b376-36016acb7b52","0198ee3c-27ac-7803-a9ea-f3b4ad4ad678","{""num_scrambled_semantic"":""8"",""num_scrambled_causal"":""4"",""num_scrambled_schematic"":""4"",""participantId"":""739F0AC3ECC545BBAF2D1683208B1BF5"",""assignmentId"":""0198ee57-bca3-720a-b376-36016acb7b52"",""projectId"":""0198ee3c-27ac-7803-a9ea-f3b4ad4ad678""}","https://test12345.live/?num_scrambled_semantic=8&num_scrambled_causal=4&num_scrambled_schematic=4&participantId=739F0AC3ECC545BBAF2D1683208B1BF5&assignmentId=0198ee57-bca3-720a-b376-36016acb7b52&projectId=0198ee3c-27ac-7803-a9ea-f3b4ad4ad678","739F0AC3ECC545BBAF2D1683208B1BF5-2025-08-28-02-35-35","","625","","images/semantic_sequence/creative_activities_semantic/creative_activities_semantic_8.png","0","",""
"","","","","","image-button-response","48","335859","0.0-10.0-1.0-2.7","739F0AC3ECC545BBAF2D1683208B1BF5","739F0AC3ECC545BBAF2D1683208B1BF5","0198ee57-bca3-720a-b376-36016acb7b52","0198ee3c-27ac-7803-a9ea-f3b4ad4ad678","{""num_scrambled_semantic"":""8"",""num_scrambled_causal"":""4"",""num_scrambled_schematic"":""4"",""participantId"":""739F0AC3ECC545BBAF2D1683208B1BF5"",""assignmentId"":""0198ee57-bca3-720a-b376-36016acb7b52"",""projectId"":""0198ee3c-27ac-7803-a9ea-f3b4ad4ad678""}","https://test12345.live/?num_scrambled_semantic=8&num_scrambled_causal=4&num_scrambled_schematic=4&participantId=739F0AC3ECC545BBAF2D1683208B1BF5&assignmentId=0198ee57-bca3-720a-b376-36016acb7b52&projectId=0198ee3c-27ac-7803-a9ea-f3b4ad4ad678","739F0AC3ECC545BBAF2D1683208B1BF5-2025-08-28-02-35-35","","null","","[]","null","",""
"","","","","","image-button-response","49","340360","0.0-10.0-1.0-0.8","739F0AC3ECC545BBAF2D1683208B1BF5","739F0AC3ECC545BBAF2D1683208B1BF5","0198ee57-bca3-720a-b376-36016acb7b52","0198ee3c-27ac-7803-a9ea-f3b4ad4ad678","{""num_scrambled_semantic"":""8"",""num_scrambled_causal"":""4"",""num_scrambled_schematic"":""4"",""participantId"":""739F0AC3ECC545BBAF2D1683208B1BF5"",""assignmentId"":""0198ee57-bca3-720a-b376-36016acb7b52"",""projectId"":""0198ee3c-27ac-7803-a9ea-f3b4ad4ad678""}","https://test12345.live/?num_scrambled_semantic=8&num_scrambled_causal=4&num_scrambled_schematic=4&participantId=739F0AC3ECC545BBAF2D1683208B1BF5&assignmentId=0198ee57-bca3-720a-b376-36016acb7b52&projectId=0198ee3c-27ac-7803-a9ea-f3b4ad4ad678","739F0AC3ECC545BBAF2D1683208B1BF5-2025-08-28-02-35-35","","null","","images/semantic_sequence/creative_activities_semantic/creative_activities_semantic_9.png","null","",""
"","","","","","image-button-response","50","341021","0.0-10.0-1.0-1.8","739F0AC3ECC545BBAF2D1683208B1BF5","739F0AC3ECC545BBAF2D1683208B1BF5","0198ee57-bca3-720a-b376-36016acb7b52","0198ee3c-27ac-7803-a9ea-f3b4ad4ad678","{""num_scrambled_semantic"":""8"",""num_scrambled_causal"":""4"",""num_scrambled_schematic"":""4"",""participantId"":""739F0AC3ECC545BBAF2D1683208B1BF5"",""assignmentId"":""0198ee57-bca3-720a-b376-36016acb7b52"",""projectId"":""0198ee3c-27ac-7803-a9ea-f3b4ad4ad678""}","https://test12345.live/?num_scrambled_semantic=8&num_scrambled_causal=4&num_scrambled_schematic=4&participantId=739F0AC3ECC545BBAF2D1683208B1BF5&assignmentId=0198ee57-bca3-720a-b376-36016acb7b52&projectId=0198ee3c-27ac-7803-a9ea-f3b4ad4ad678","739F0AC3ECC545BBAF2D1683208B1BF5-2025-08-28-02-35-35","","660","","images/semantic_sequence/creative_activities_semantic/creative_activities_semantic_9.png","0","",""
"","","","","","image-button-response","51","342823","0.0-10.0-1.0-2.8","739F0AC3ECC545BBAF2D1683208B1BF5","739F0AC3ECC545BBAF2D1683208B1BF5","0198ee57-bca3-720a-b376-36016acb7b52","0198ee3c-27ac-7803-a9ea-f3b4ad4ad678","{""num_scrambled_semantic"":""8"",""num_scrambled_causal"":""4"",""num_scrambled_schematic"":""4"",""participantId"":""739F0AC3ECC545BBAF2D1683208B1BF5"",""assignmentId"":""0198ee57-bca3-720a-b376-36016acb7b52"",""projectId"":""0198ee3c-27ac-7803-a9ea-f3b4ad4ad678""}","https://test12345.live/?num_scrambled_semantic=8&num_scrambled_causal=4&num_scrambled_schematic=4&participantId=739F0AC3ECC545BBAF2D1683208B1BF5&assignmentId=0198ee57-bca3-720a-b376-36016acb7b52&projectId=0198ee3c-27ac-7803-a9ea-f3b4ad4ad678","739F0AC3ECC545BBAF2D1683208B1BF5-2025-08-28-02-35-35","","null","","[]","null","",""
"","","","","","image-button-response","52","347339","0.0-10.0-1.0-0.9","739F0AC3ECC545BBAF2D1683208B1BF5","739F0AC3ECC545BBAF2D1683208B1BF5","0198ee57-bca3-720a-b376-36016acb7b52","0198ee3c-27ac-7803-a9ea-f3b4ad4ad678","{""num_scrambled_semantic"":""8"",""num_scrambled_causal"":""4"",""num_scrambled_schematic"":""4"",""participantId"":""739F0AC3ECC545BBAF2D1683208B1BF5"",""assignmentId"":""0198ee57-bca3-720a-b376-36016acb7b52"",""projectId"":""0198ee3c-27ac-7803-a9ea-f3b4ad4ad678""}","https://test12345.live/?num_scrambled_semantic=8&num_scrambled_causal=4&num_scrambled_schematic=4&participantId=739F0AC3ECC545BBAF2D1683208B1BF5&assignmentId=0198ee57-bca3-720a-b376-36016acb7b52&projectId=0198ee3c-27ac-7803-a9ea-f3b4ad4ad678","739F0AC3ECC545BBAF2D1683208B1BF5-2025-08-28-02-35-35","","null","","images/semantic_sequence/creative_activities_semantic/creative_activities_semantic_ten.png","null","",""
"","","","","","image-button-response","53","348925","0.0-10.0-1.0-1.9","739F0AC3ECC545BBAF2D1683208B1BF5","739F0AC3ECC545BBAF2D1683208B1BF5","0198ee57-bca3-720a-b376-36016acb7b52","0198ee3c-27ac-7803-a9ea-f3b4ad4ad678","{""num_scrambled_semantic"":""8"",""num_scrambled_causal"":""4"",""num_scrambled_schematic"":""4"",""participantId"":""739F0AC3ECC545BBAF2D1683208B1BF5"",""assignmentId"":""0198ee57-bca3-720a-b376-36016acb7b52"",""projectId"":""0198ee3c-27ac-7803-a9ea-f3b4ad4ad678""}","https://test12345.live/?num_scrambled_semantic=8&num_scrambled_causal=4&num_scrambled_schematic=4&participantId=739F0AC3ECC545BBAF2D1683208B1BF5&assignmentId=0198ee57-bca3-720a-b376-36016acb7b52&projectId=0198ee3c-27ac-7803-a9ea-f3b4ad4ad678","739F0AC3ECC545BBAF2D1683208B1BF5-2025-08-28-02-35-35","","1585","","images/semantic_sequence/creative_activities_semantic/creative_activities_semantic_ten.png","0","",""
"","","","","","image-button-response","54","350735","0.0-10.0-1.0-2.9","739F0AC3ECC545BBAF2D1683208B1BF5","739F0AC3ECC545BBAF2D1683208B1BF5","0198ee57-bca3-720a-b376-36016acb7b52","0198ee3c-27ac-7803-a9ea-f3b4ad4ad678","{""num_scrambled_semantic"":""8"",""num_scrambled_causal"":""4"",""num_scrambled_schematic"":""4"",""participantId"":""739F0AC3ECC545BBAF2D1683208B1BF5"",""assignmentId"":""0198ee57-bca3-720a-b376-36016acb7b52"",""projectId"":""0198ee3c-27ac-7803-a9ea-f3b4ad4ad678""}","https://test12345.live/?num_scrambled_semantic=8&num_scrambled_causal=4&num_scrambled_schematic=4&participantId=739F0AC3ECC545BBAF2D1683208B1BF5&assignmentId=0198ee57-bca3-720a-b376-36016acb7b52&projectId=0198ee3c-27ac-7803-a9ea-f3b4ad4ad678","739F0AC3ECC545BBAF2D1683208B1BF5-2025-08-28-02-35-35","","null","","[]","null","",""
"","","","","","html-audio-response","55","393919","0.0-11.0","739F0AC3ECC545BBAF2D1683208B1BF5","739F0AC3ECC545BBAF2D1683208B1BF5","0198ee57-bca3-720a-b376-36016acb7b52","0198ee3c-27ac-7803-a9ea-f3b4ad4ad678","{""num_scrambled_semantic"":""8"",""num_scrambled_causal"":""4"",""num_scrambled_schematic"":""4"",""participantId"":""739F0AC3ECC545BBAF2D1683208B1BF5"",""assignmentId"":""0198ee57-bca3-720a-b376-36016acb7b52"",""projectId"":""0198ee3c-27ac-7803-a9ea-f3b4ad4ad678""}","https://test12345.live/?num_scrambled_semantic=8&num_scrambled_causal=4&num_scrambled_schematic=4&participantId=739F0AC3ECC545BBAF2D1683208B1BF5&assignmentId=0198ee57-bca3-720a-b376-36016acb7b52&projectId=0198ee3c-27ac-7803-a9ea-f3b4ad4ad678","739F0AC3ECC545BBAF2D1683208B1BF5-2025-08-28-02-35-35","","41484","","[""<span style=\""color: red; font-size: 24px\""> NOW RECORDING</span><p>Please say out loud all the images you saw, in the order of the story they create. Try to recall the sequence of events as they appeared in the story, not necessarily the order they were presented on the screen.</p>""]","","1","creative_activities_semantic"
"","","","","","image-button-response","56","399939","0.0-12.0-0.0","739F0AC3ECC545BBAF2D1683208B1BF5","739F0AC3ECC545BBAF2D1683208B1BF5","0198ee57-bca3-720a-b376-36016acb7b52","0198ee3c-27ac-7803-a9ea-f3b4ad4ad678","{""num_scrambled_semantic"":""8"",""num_scrambled_causal"":""4"",""num_scrambled_schematic"":""4"",""participantId"":""739F0AC3ECC545BBAF2D1683208B1BF5"",""assignmentId"":""0198ee57-bca3-720a-b376-36016acb7b52"",""projectId"":""0198ee3c-27ac-7803-a9ea-f3b4ad4ad678""}","https://test12345.live/?num_scrambled_semantic=8&num_scrambled_causal=4&num_scrambled_schematic=4&participantId=739F0AC3ECC545BBAF2D1683208B1BF5&assignmentId=0198ee57-bca3-720a-b376-36016acb7b52&projectId=0198ee3c-27ac-7803-a9ea-f3b4ad4ad678","739F0AC3ECC545BBAF2D1683208B1BF5-2025-08-28-02-35-35","","null","","images/semantic_sequence/redecorating_a_house_semantic/redecorating_a_house_semantic_0.png","null","",""
"","","","","","image-button-response","57","404450","0.0-12.0-1.0-0.0","739F0AC3ECC545BBAF2D1683208B1BF5","739F0AC3ECC545BBAF2D1683208B1BF5","0198ee57-bca3-720a-b376-36016acb7b52","0198ee3c-27ac-7803-a9ea-f3b4ad4ad678","{""num_scrambled_semantic"":""8"",""num_scrambled_causal"":""4"",""num_scrambled_schematic"":""4"",""participantId"":""739F0AC3ECC545BBAF2D1683208B1BF5"",""assignmentId"":""0198ee57-bca3-720a-b376-36016acb7b52"",""projectId"":""0198ee3c-27ac-7803-a9ea-f3b4ad4ad678""}","https://test12345.live/?num_scrambled_semantic=8&num_scrambled_causal=4&num_scrambled_schematic=4&participantId=739F0AC3ECC545BBAF2D1683208B1BF5&assignmentId=0198ee57-bca3-720a-b376-36016acb7b52&projectId=0198ee3c-27ac-7803-a9ea-f3b4ad4ad678","739F0AC3ECC545BBAF2D1683208B1BF5-2025-08-28-02-35-35","","null","","images/semantic_sequence/redecorating_a_house_semantic/redecorating_a_house_semantic_1.png","null","",""
"","","","","","image-button-response","58","406164","0.0-12.0-1.0-1.0","739F0AC3ECC545BBAF2D1683208B1BF5","739F0AC3ECC545BBAF2D1683208B1BF5","0198ee57-bca3-720a-b376-36016acb7b52","0198ee3c-27ac-7803-a9ea-f3b4ad4ad678","{""num_scrambled_semantic"":""8"",""num_scrambled_causal"":""4"",""num_scrambled_schematic"":""4"",""participantId"":""739F0AC3ECC545BBAF2D1683208B1BF5"",""assignmentId"":""0198ee57-bca3-720a-b376-36016acb7b52"",""projectId"":""0198ee3c-27ac-7803-a9ea-f3b4ad4ad678""}","https://test12345.live/?num_scrambled_semantic=8&num_scrambled_causal=4&num_scrambled_schematic=4&participantId=739F0AC3ECC545BBAF2D1683208B1BF5&assignmentId=0198ee57-bca3-720a-b376-36016acb7b52&projectId=0198ee3c-27ac-7803-a9ea-f3b4ad4ad678","739F0AC3ECC545BBAF2D1683208B1BF5-2025-08-28-02-35-35","","1714","","images/semantic_sequence/redecorating_a_house_semantic/redecorating_a_house_semantic_1.png","0","",""
"","","","","","image-button-response","59","407968","0.0-12.0-1.0-2.0","739F0AC3ECC545BBAF2D1683208B1BF5","739F0AC3ECC545BBAF2D1683208B1BF5","0198ee57-bca3-720a-b376-36016acb7b52","0198ee3c-27ac-7803-a9ea-f3b4ad4ad678","{""num_scrambled_semantic"":""8"",""num_scrambled_causal"":""4"",""num_scrambled_schematic"":""4"",""participantId"":""739F0AC3ECC545BBAF2D1683208B1BF5"",""assignmentId"":""0198ee57-bca3-720a-b376-36016acb7b52"",""projectId"":""0198ee3c-27ac-7803-a9ea-f3b4ad4ad678""}","https://test12345.live/?num_scrambled_semantic=8&num_scrambled_causal=4&num_scrambled_schematic=4&participantId=739F0AC3ECC545BBAF2D1683208B1BF5&assignmentId=0198ee57-bca3-720a-b376-36016acb7b52&projectId=0198ee3c-27ac-7803-a9ea-f3b4ad4ad678","739F0AC3ECC545BBAF2D1683208B1BF5-2025-08-28-02-35-35","","null","","[]","null","",""
"","","","","","image-button-response","60","412473","0.0-12.0-1.0-0.1","739F0AC3ECC545BBAF2D1683208B1BF5","739F0AC3ECC545BBAF2D1683208B1BF5","0198ee57-bca3-720a-b376-36016acb7b52","0198ee3c-27ac-7803-a9ea-f3b4ad4ad678","{""num_scrambled_semantic"":""8"",""num_scrambled_causal"":""4"",""num_scrambled_schematic"":""4"",""participantId"":""739F0AC3ECC545BBAF2D1683208B1BF5"",""assignmentId"":""0198ee57-bca3-720a-b376-36016acb7b52"",""projectId"":""0198ee3c-27ac-7803-a9ea-f3b4ad4ad678""}","https://test12345.live/?num_scrambled_semantic=8&num_scrambled_causal=4&num_scrambled_schematic=4&participantId=739F0AC3ECC545BBAF2D1683208B1BF5&assignmentId=0198ee57-bca3-720a-b376-36016acb7b52&projectId=0198ee3c-27ac-7803-a9ea-f3b4ad4ad678","739F0AC3ECC545BBAF2D1683208B1BF5-2025-08-28-02-35-35","","null","","images/semantic_sequence/redecorating_a_house_semantic/redecorating_a_house_semantic_9.png","null","",""
"","","","","","image-button-response","61","414381","0.0-12.0-1.0-1.1","739F0AC3ECC545BBAF2D1683208B1BF5","739F0AC3ECC545BBAF2D1683208B1BF5","0198ee57-bca3-720a-b376-36016acb7b52","0198ee3c-27ac-7803-a9ea-f3b4ad4ad678","{""num_scrambled_semantic"":""8"",""num_scrambled_causal"":""4"",""num_scrambled_schematic"":""4"",""participantId"":""739F0AC3ECC545BBAF2D1683208B1BF5"",""assignmentId"":""0198ee57-bca3-720a-b376-36016acb7b52"",""projectId"":""0198ee3c-27ac-7803-a9ea-f3b4ad4ad678""}","https://test12345.live/?num_scrambled_semantic=8&num_scrambled_causal=4&num_scrambled_schematic=4&participantId=739F0AC3ECC545BBAF2D1683208B1BF5&assignmentId=0198ee57-bca3-720a-b376-36016acb7b52&projectId=0198ee3c-27ac-7803-a9ea-f3b4ad4ad678","739F0AC3ECC545BBAF2D1683208B1BF5-2025-08-28-02-35-35","","1907","","images/semantic_sequence/redecorating_a_house_semantic/redecorating_a_house_semantic_9.png","0","",""
"","","","","","image-button-response","62","416191","0.0-12.0-1.0-2.1","739F0AC3ECC545BBAF2D1683208B1BF5","739F0AC3ECC545BBAF2D1683208B1BF5","0198ee57-bca3-720a-b376-36016acb7b52","0198ee3c-27ac-7803-a9ea-f3b4ad4ad678","{""num_scrambled_semantic"":""8"",""num_scrambled_causal"":""4"",""num_scrambled_schematic"":""4"",""participantId"":""739F0AC3ECC545BBAF2D1683208B1BF5"",""assignmentId"":""0198ee57-bca3-720a-b376-36016acb7b52"",""projectId"":""0198ee3c-27ac-7803-a9ea-f3b4ad4ad678""}","https://test12345.live/?num_scrambled_semantic=8&num_scrambled_causal=4&num_scrambled_schematic=4&participantId=739F0AC3ECC545BBAF2D1683208B1BF5&assignmentId=0198ee57-bca3-720a-b376-36016acb7b52&projectId=0198ee3c-27ac-7803-a9ea-f3b4ad4ad678","739F0AC3ECC545BBAF2D1683208B1BF5-2025-08-28-02-35-35","","null","","[]","null","",""
"","","","","","image-button-response","63","420706","0.0-12.0-1.0-0.2","739F0AC3ECC545BBAF2D1683208B1BF5","739F0AC3ECC545BBAF2D1683208B1BF5","0198ee57-bca3-720a-b376-36016acb7b52","0198ee3c-27ac-7803-a9ea-f3b4ad4ad678","{""num_scrambled_semantic"":""8"",""num_scrambled_causal"":""4"",""num_scrambled_schematic"":""4"",""participantId"":""739F0AC3ECC545BBAF2D1683208B1BF5"",""assignmentId"":""0198ee57-bca3-720a-b376-36016acb7b52"",""projectId"":""0198ee3c-27ac-7803-a9ea-f3b4ad4ad678""}","https://test12345.live/?num_scrambled_semantic=8&num_scrambled_causal=4&num_scrambled_schematic=4&participantId=739F0AC3ECC545BBAF2D1683208B1BF5&assignmentId=0198ee57-bca3-720a-b376-36016acb7b52&projectId=0198ee3c-27ac-7803-a9ea-f3b4ad4ad678","739F0AC3ECC545BBAF2D1683208B1BF5-2025-08-28-02-35-35","","null","","images/semantic_sequence/redecorating_a_house_semantic/redecorating_a_house_semantic_ten.png","null","",""
"","","","","","image-button-response","64","421476","0.0-12.0-1.0-1.2","739F0AC3ECC545BBAF2D1683208B1BF5","739F0AC3ECC545BBAF2D1683208B1BF5","0198ee57-bca3-720a-b376-36016acb7b52","0198ee3c-27ac-7803-a9ea-f3b4ad4ad678","{""num_scrambled_semantic"":""8"",""num_scrambled_causal"":""4"",""num_scrambled_schematic"":""4"",""participantId"":""739F0AC3ECC545BBAF2D1683208B1BF5"",""assignmentId"":""0198ee57-bca3-720a-b376-36016acb7b52"",""projectId"":""0198ee3c-27ac-7803-a9ea-f3b4ad4ad678""}","https://test12345.live/?num_scrambled_semantic=8&num_scrambled_causal=4&num_scrambled_schematic=4&participantId=739F0AC3ECC545BBAF2D1683208B1BF5&assignmentId=0198ee57-bca3-720a-b376-36016acb7b52&projectId=0198ee3c-27ac-7803-a9ea-f3b4ad4ad678","739F0AC3ECC545BBAF2D1683208B1BF5-2025-08-28-02-35-35","","769","","images/semantic_sequence/redecorating_a_house_semantic/redecorating_a_house_semantic_ten.png","0","",""
"","","","","","image-button-response","65","423284","0.0-12.0-1.0-2.2","739F0AC3ECC545BBAF2D1683208B1BF5","739F0AC3ECC545BBAF2D1683208B1BF5","0198ee57-bca3-720a-b376-36016acb7b52","0198ee3c-27ac-7803-a9ea-f3b4ad4ad678","{""num_scrambled_semantic"":""8"",""num_scrambled_causal"":""4"",""num_scrambled_schematic"":""4"",""participantId"":""739F0AC3ECC545BBAF2D1683208B1BF5"",""assignmentId"":""0198ee57-bca3-720a-b376-36016acb7b52"",""projectId"":""0198ee3c-27ac-7803-a9ea-f3b4ad4ad678""}","https://test12345.live/?num_scrambled_semantic=8&num_scrambled_causal=4&num_scrambled_schematic=4&participantId=739F0AC3ECC545BBAF2D1683208B1BF5&assignmentId=0198ee57-bca3-720a-b376-36016acb7b52&projectId=0198ee3c-27ac-7803-a9ea-f3b4ad4ad678","739F0AC3ECC545BBAF2D1683208B1BF5-2025-08-28-02-35-35","","null","","[]","null","",""
"","","","","","image-button-response","66","427788","0.0-12.0-1.0-0.3","739F0AC3ECC545BBAF2D1683208B1BF5","739F0AC3ECC545BBAF2D1683208B1BF5","0198ee57-bca3-720a-b376-36016acb7b52","0198ee3c-27ac-7803-a9ea-f3b4ad4ad678","{""num_scrambled_semantic"":""8"",""num_scrambled_causal"":""4"",""num_scrambled_schematic"":""4"",""participantId"":""739F0AC3ECC545BBAF2D1683208B1BF5"",""assignmentId"":""0198ee57-bca3-720a-b376-36016acb7b52"",""projectId"":""0198ee3c-27ac-7803-a9ea-f3b4ad4ad678""}","https://test12345.live/?num_scrambled_semantic=8&num_scrambled_causal=4&num_scrambled_schematic=4&participantId=739F0AC3ECC545BBAF2D1683208B1BF5&assignmentId=0198ee57-bca3-720a-b376-36016acb7b52&projectId=0198ee3c-27ac-7803-a9ea-f3b4ad4ad678","739F0AC3ECC545BBAF2D1683208B1BF5-2025-08-28-02-35-35","","null","","images/semantic_sequence/redecorating_a_house_semantic/redecorating_a_house_semantic_6.png","null","",""
"","","","","","image-button-response","67","428683","0.0-12.0-1.0-1.3","739F0AC3ECC545BBAF2D1683208B1BF5","739F0AC3ECC545BBAF2D1683208B1BF5","0198ee57-bca3-720a-b376-36016acb7b52","0198ee3c-27ac-7803-a9ea-f3b4ad4ad678","{""num_scrambled_semantic"":""8"",""num_scrambled_causal"":""4"",""num_scrambled_schematic"":""4"",""participantId"":""739F0AC3ECC545BBAF2D1683208B1BF5"",""assignmentId"":""0198ee57-bca3-720a-b376-36016acb7b52"",""projectId"":""0198ee3c-27ac-7803-a9ea-f3b4ad4ad678""}","https://test12345.live/?num_scrambled_semantic=8&num_scrambled_causal=4&num_scrambled_schematic=4&participantId=739F0AC3ECC545BBAF2D1683208B1BF5&assignmentId=0198ee57-bca3-720a-b376-36016acb7b52&projectId=0198ee3c-27ac-7803-a9ea-f3b4ad4ad678","739F0AC3ECC545BBAF2D1683208B1BF5-2025-08-28-02-35-35","","894","","images/semantic_sequence/redecorating_a_house_semantic/redecorating_a_house_semantic_6.png","0","",""
"","","","","","image-button-response","68","430491","0.0-12.0-1.0-2.3","739F0AC3ECC545BBAF2D1683208B1BF5","739F0AC3ECC545BBAF2D1683208B1BF5","0198ee57-bca3-720a-b376-36016acb7b52","0198ee3c-27ac-7803-a9ea-f3b4ad4ad678","{""num_scrambled_semantic"":""8"",""num_scrambled_causal"":""4"",""num_scrambled_schematic"":""4"",""participantId"":""739F0AC3ECC545BBAF2D1683208B1BF5"",""assignmentId"":""0198ee57-bca3-720a-b376-36016acb7b52"",""projectId"":""0198ee3c-27ac-7803-a9ea-f3b4ad4ad678""}","https://test12345.live/?num_scrambled_semantic=8&num_scrambled_causal=4&num_scrambled_schematic=4&participantId=739F0AC3ECC545BBAF2D1683208B1BF5&assignmentId=0198ee57-bca3-720a-b376-36016acb7b52&projectId=0198ee3c-27ac-7803-a9ea-f3b4ad4ad678","739F0AC3ECC545BBAF2D1683208B1BF5-2025-08-28-02-35-35","","null","","[]","null","",""
"","","","","","image-button-response","69","435002","0.0-12.0-1.0-0.4","739F0AC3ECC545BBAF2D1683208B1BF5","739F0AC3ECC545BBAF2D1683208B1BF5","0198ee57-bca3-720a-b376-36016acb7b52","0198ee3c-27ac-7803-a9ea-f3b4ad4ad678","{""num_scrambled_semantic"":""8"",""num_scrambled_causal"":""4"",""num_scrambled_schematic"":""4"",""participantId"":""739F0AC3ECC545BBAF2D1683208B1BF5"",""assignmentId"":""0198ee57-bca3-720a-b376-36016acb7b52"",""projectId"":""0198ee3c-27ac-7803-a9ea-f3b4ad4ad678""}","https://test12345.live/?num_scrambled_semantic=8&num_scrambled_causal=4&num_scrambled_schematic=4&participantId=739F0AC3ECC545BBAF2D1683208B1BF5&assignmentId=0198ee57-bca3-720a-b376-36016acb7b52&projectId=0198ee3c-27ac-7803-a9ea-f3b4ad4ad678","739F0AC3ECC545BBAF2D1683208B1BF5-2025-08-28-02-35-35","","null","","images/semantic_sequence/redecorating_a_house_semantic/redecorating_a_house_semantic_8.png","null","",""
"","","","","","image-button-response","70","435981","0.0-12.0-1.0-1.4","739F0AC3ECC545BBAF2D1683208B1BF5","739F0AC3ECC545BBAF2D1683208B1BF5","0198ee57-bca3-720a-b376-36016acb7b52","0198ee3c-27ac-7803-a9ea-f3b4ad4ad678","{""num_scrambled_semantic"":""8"",""num_scrambled_causal"":""4"",""num_scrambled_schematic"":""4"",""participantId"":""739F0AC3ECC545BBAF2D1683208B1BF5"",""assignmentId"":""0198ee57-bca3-720a-b376-36016acb7b52"",""projectId"":""0198ee3c-27ac-7803-a9ea-f3b4ad4ad678""}","https://test12345.live/?num_scrambled_semantic=8&num_scrambled_causal=4&num_scrambled_schematic=4&participantId=739F0AC3ECC545BBAF2D1683208B1BF5&assignmentId=0198ee57-bca3-720a-b376-36016acb7b52&projectId=0198ee3c-27ac-7803-a9ea-f3b4ad4ad678","739F0AC3ECC545BBAF2D1683208B1BF5-2025-08-28-02-35-35","","978","","images/semantic_sequence/redecorating_a_house_semantic/redecorating_a_house_semantic_8.png","0","",""
"","","","","","image-button-response","71","437784","0.0-12.0-1.0-2.4","739F0AC3ECC545BBAF2D1683208B1BF5","739F0AC3ECC545BBAF2D1683208B1BF5","0198ee57-bca3-720a-b376-36016acb7b52","0198ee3c-27ac-7803-a9ea-f3b4ad4ad678","{""num_scrambled_semantic"":""8"",""num_scrambled_causal"":""4"",""num_scrambled_schematic"":""4"",""participantId"":""739F0AC3ECC545BBAF2D1683208B1BF5"",""assignmentId"":""0198ee57-bca3-720a-b376-36016acb7b52"",""projectId"":""0198ee3c-27ac-7803-a9ea-f3b4ad4ad678""}","https://test12345.live/?num_scrambled_semantic=8&num_scrambled_causal=4&num_scrambled_schematic=4&participantId=739F0AC3ECC545BBAF2D1683208B1BF5&assignmentId=0198ee57-bca3-720a-b376-36016acb7b52&projectId=0198ee3c-27ac-7803-a9ea-f3b4ad4ad678","739F0AC3ECC545BBAF2D1683208B1BF5-2025-08-28-02-35-35","","null","","[]","null","",""
"","","","","","image-button-response","72","442299","0.0-12.0-1.0-0.5","739F0AC3ECC545BBAF2D1683208B1BF5","739F0AC3ECC545BBAF2D1683208B1BF5","0198ee57-bca3-720a-b376-36016acb7b52","0198ee3c-27ac-7803-a9ea-f3b4ad4ad678","{""num_scrambled_semantic"":""8"",""num_scrambled_causal"":""4"",""num_scrambled_schematic"":""4"",""participantId"":""739F0AC3ECC545BBAF2D1683208B1BF5"",""assignmentId"":""0198ee57-bca3-720a-b376-36016acb7b52"",""projectId"":""0198ee3c-27ac-7803-a9ea-f3b4ad4ad678""}","https://test12345.live/?num_scrambled_semantic=8&num_scrambled_causal=4&num_scrambled_schematic=4&participantId=739F0AC3ECC545BBAF2D1683208B1BF5&assignmentId=0198ee57-bca3-720a-b376-36016acb7b52&projectId=0198ee3c-27ac-7803-a9ea-f3b4ad4ad678","739F0AC3ECC545BBAF2D1683208B1BF5-2025-08-28-02-35-35","","null","","images/semantic_sequence/redecorating_a_house_semantic/redecorating_a_house_semantic_5.png","null","",""
"","","","","","image-button-response","73","443893","0.0-12.0-1.0-1.5","739F0AC3ECC545BBAF2D1683208B1BF5","739F0AC3ECC545BBAF2D1683208B1BF5","0198ee57-bca3-720a-b376-36016acb7b52","0198ee3c-27ac-7803-a9ea-f3b4ad4ad678","{""num_scrambled_semantic"":""8"",""num_scrambled_causal"":""4"",""num_scrambled_schematic"":""4"",""participantId"":""739F0AC3ECC545BBAF2D1683208B1BF5"",""assignmentId"":""0198ee57-bca3-720a-b376-36016acb7b52"",""projectId"":""0198ee3c-27ac-7803-a9ea-f3b4ad4ad678""}","https://test12345.live/?num_scrambled_semantic=8&num_scrambled_causal=4&num_scrambled_schematic=4&participantId=739F0AC3ECC545BBAF2D1683208B1BF5&assignmentId=0198ee57-bca3-720a-b376-36016acb7b52&projectId=0198ee3c-27ac-7803-a9ea-f3b4ad4ad678","739F0AC3ECC545BBAF2D1683208B1BF5-2025-08-28-02-35-35","","1594","","images/semantic_sequence/redecorating_a_house_semantic/redecorating_a_house_semantic_5.png","0","",""
"","","","","","image-button-response","74","445695","0.0-12.0-1.0-2.5","739F0AC3ECC545BBAF2D1683208B1BF5","739F0AC3ECC545BBAF2D1683208B1BF5","0198ee57-bca3-720a-b376-36016acb7b52","0198ee3c-27ac-7803-a9ea-f3b4ad4ad678","{""num_scrambled_semantic"":""8"",""num_scrambled_causal"":""4"",""num_scrambled_schematic"":""4"",""participantId"":""739F0AC3ECC545BBAF2D1683208B1BF5"",""assignmentId"":""0198ee57-bca3-720a-b376-36016acb7b52"",""projectId"":""0198ee3c-27ac-7803-a9ea-f3b4ad4ad678""}","https://test12345.live/?num_scrambled_semantic=8&num_scrambled_causal=4&num_scrambled_schematic=4&participantId=739F0AC3ECC545BBAF2D1683208B1BF5&assignmentId=0198ee57-bca3-720a-b376-36016acb7b52&projectId=0198ee3c-27ac-7803-a9ea-f3b4ad4ad678","739F0AC3ECC545BBAF2D1683208B1BF5-2025-08-28-02-35-35","","null","","[]","null","",""
"","","","","","image-button-response","75","450212","0.0-12.0-1.0-0.6","739F0AC3ECC545BBAF2D1683208B1BF5","739F0AC3ECC545BBAF2D1683208B1BF5","0198ee57-bca3-720a-b376-36016acb7b52","0198ee3c-27ac-7803-a9ea-f3b4ad4ad678","{""num_scrambled_semantic"":""8"",""num_scrambled_causal"":""4"",""num_scrambled_schematic"":""4"",""participantId"":""739F0AC3ECC545BBAF2D1683208B1BF5"",""assignmentId"":""0198ee57-bca3-720a-b376-36016acb7b52"",""projectId"":""0198ee3c-27ac-7803-a9ea-f3b4ad4ad678""}","https://test12345.live/?num_scrambled_semantic=8&num_scrambled_causal=4&num_scrambled_schematic=4&participantId=739F0AC3ECC545BBAF2D1683208B1BF5&assignmentId=0198ee57-bca3-720a-b376-36016acb7b52&projectId=0198ee3c-27ac-7803-a9ea-f3b4ad4ad678","739F0AC3ECC545BBAF2D1683208B1BF5-2025-08-28-02-35-35","","null","","images/semantic_sequence/redecorating_a_house_semantic/redecorating_a_house_semantic_7.png","null","",""
"","","","","","image-button-response","76","451147","0.0-12.0-1.0-1.6","739F0AC3ECC545BBAF2D1683208B1BF5","739F0AC3ECC545BBAF2D1683208B1BF5","0198ee57-bca3-720a-b376-36016acb7b52","0198ee3c-27ac-7803-a9ea-f3b4ad4ad678","{""num_scrambled_semantic"":""8"",""num_scrambled_causal"":""4"",""num_scrambled_schematic"":""4"",""participantId"":""739F0AC3ECC545BBAF2D1683208B1BF5"",""assignmentId"":""0198ee57-bca3-720a-b376-36016acb7b52"",""projectId"":""0198ee3c-27ac-7803-a9ea-f3b4ad4ad678""}","https://test12345.live/?num_scrambled_semantic=8&num_scrambled_causal=4&num_scrambled_schematic=4&participantId=739F0AC3ECC545BBAF2D1683208B1BF5&assignmentId=0198ee57-bca3-720a-b376-36016acb7b52&projectId=0198ee3c-27ac-7803-a9ea-f3b4ad4ad678","739F0AC3ECC545BBAF2D1683208B1BF5-2025-08-28-02-35-35","","934","","images/semantic_sequence/redecorating_a_house_semantic/redecorating_a_house_semantic_7.png","0","",""
"","","","","","image-button-response","77","452963","0.0-12.0-1.0-2.6","739F0AC3ECC545BBAF2D1683208B1BF5","739F0AC3ECC545BBAF2D1683208B1BF5","0198ee57-bca3-720a-b376-36016acb7b52","0198ee3c-27ac-7803-a9ea-f3b4ad4ad678","{""num_scrambled_semantic"":""8"",""num_scrambled_causal"":""4"",""num_scrambled_schematic"":""4"",""participantId"":""739F0AC3ECC545BBAF2D1683208B1BF5"",""assignmentId"":""0198ee57-bca3-720a-b376-36016acb7b52"",""projectId"":""0198ee3c-27ac-7803-a9ea-f3b4ad4ad678""}","https://test12345.live/?num_scrambled_semantic=8&num_scrambled_causal=4&num_scrambled_schematic=4&participantId=739F0AC3ECC545BBAF2D1683208B1BF5&assignmentId=0198ee57-bca3-720a-b376-36016acb7b52&projectId=0198ee3c-27ac-7803-a9ea-f3b4ad4ad678","739F0AC3ECC545BBAF2D1683208B1BF5-2025-08-28-02-35-35","","null","","[]","null","",""
"","","","","","image-button-response","78","457466","0.0-12.0-1.0-0.7","739F0AC3ECC545BBAF2D1683208B1BF5","739F0AC3ECC545BBAF2D1683208B1BF5","0198ee57-bca3-720a-b376-36016acb7b52","0198ee3c-27ac-7803-a9ea-f3b4ad4ad678","{""num_scrambled_semantic"":""8"",""num_scrambled_causal"":""4"",""num_scrambled_schematic"":""4"",""participantId"":""739F0AC3ECC545BBAF2D1683208B1BF5"",""assignmentId"":""0198ee57-bca3-720a-b376-36016acb7b52"",""projectId"":""0198ee3c-27ac-7803-a9ea-f3b4ad4ad678""}","https://test12345.live/?num_scrambled_semantic=8&num_scrambled_causal=4&num_scrambled_schematic=4&participantId=739F0AC3ECC545BBAF2D1683208B1BF5&assignmentId=0198ee57-bca3-720a-b376-36016acb7b52&projectId=0198ee3c-27ac-7803-a9ea-f3b4ad4ad678","739F0AC3ECC545BBAF2D1683208B1BF5-2025-08-28-02-35-35","","null","","images/semantic_sequence/redecorating_a_house_semantic/redecorating_a_house_semantic_3.png","null","",""
"","","","","","image-button-response","79","458067","0.0-12.0-1.0-1.7","739F0AC3ECC545BBAF2D1683208B1BF5","739F0AC3ECC545BBAF2D1683208B1BF5","0198ee57-bca3-720a-b376-36016acb7b52","0198ee3c-27ac-7803-a9ea-f3b4ad4ad678","{""num_scrambled_semantic"":""8"",""num_scrambled_causal"":""4"",""num_scrambled_schematic"":""4"",""participantId"":""739F0AC3ECC545BBAF2D1683208B1BF5"",""assignmentId"":""0198ee57-bca3-720a-b376-36016acb7b52"",""projectId"":""0198ee3c-27ac-7803-a9ea-f3b4ad4ad678""}","https://test12345.live/?num_scrambled_semantic=8&num_scrambled_causal=4&num_scrambled_schematic=4&participantId=739F0AC3ECC545BBAF2D1683208B1BF5&assignmentId=0198ee57-bca3-720a-b376-36016acb7b52&projectId=0198ee3c-27ac-7803-a9ea-f3b4ad4ad678","739F0AC3ECC545BBAF2D1683208B1BF5-2025-08-28-02-35-35","","601","","images/semantic_sequence/redecorating_a_house_semantic/redecorating_a_house_semantic_3.png","0","",""
"","","","","","image-button-response","80","459879","0.0-12.0-1.0-2.7","739F0AC3ECC545BBAF2D1683208B1BF5","739F0AC3ECC545BBAF2D1683208B1BF5","0198ee57-bca3-720a-b376-36016acb7b52","0198ee3c-27ac-7803-a9ea-f3b4ad4ad678","{""num_scrambled_semantic"":""8"",""num_scrambled_causal"":""4"",""num_scrambled_schematic"":""4"",""participantId"":""739F0AC3ECC545BBAF2D1683208B1BF5"",""assignmentId"":""0198ee57-bca3-720a-b376-36016acb7b52"",""projectId"":""0198ee3c-27ac-7803-a9ea-f3b4ad4ad678""}","https://test12345.live/?num_scrambled_semantic=8&num_scrambled_causal=4&num_scrambled_schematic=4&participantId=739F0AC3ECC545BBAF2D1683208B1BF5&assignmentId=0198ee57-bca3-720a-b376-36016acb7b52&projectId=0198ee3c-27ac-7803-a9ea-f3b4ad4ad678","739F0AC3ECC545BBAF2D1683208B1BF5-2025-08-28-02-35-35","","null","","[]","null","",""
"","","","","","image-button-response","81","464386","0.0-12.0-1.0-0.8","739F0AC3ECC545BBAF2D1683208B1BF5","739F0AC3ECC545BBAF2D1683208B1BF5","0198ee57-bca3-720a-b376-36016acb7b52","0198ee3c-27ac-7803-a9ea-f3b4ad4ad678","{""num_scrambled_semantic"":""8"",""num_scrambled_causal"":""4"",""num_scrambled_schematic"":""4"",""participantId"":""739F0AC3ECC545BBAF2D1683208B1BF5"",""assignmentId"":""0198ee57-bca3-720a-b376-36016acb7b52"",""projectId"":""0198ee3c-27ac-7803-a9ea-f3b4ad4ad678""}","https://test12345.live/?num_scrambled_semantic=8&num_scrambled_causal=4&num_scrambled_schematic=4&participantId=739F0AC3ECC545BBAF2D1683208B1BF5&assignmentId=0198ee57-bca3-720a-b376-36016acb7b52&projectId=0198ee3c-27ac-7803-a9ea-f3b4ad4ad678","739F0AC3ECC545BBAF2D1683208B1BF5-2025-08-28-02-35-35","","null","","images/semantic_sequence/redecorating_a_house_semantic/redecorating_a_house_semantic_2.png","null","",""
"","","","","","image-button-response","82","466430","0.0-12.0-1.0-1.8","739F0AC3ECC545BBAF2D1683208B1BF5","739F0AC3ECC545BBAF2D1683208B1BF5","0198ee57-bca3-720a-b376-36016acb7b52","0198ee3c-27ac-7803-a9ea-f3b4ad4ad678","{""num_scrambled_semantic"":""8"",""num_scrambled_causal"":""4"",""num_scrambled_schematic"":""4"",""participantId"":""739F0AC3ECC545BBAF2D1683208B1BF5"",""assignmentId"":""0198ee57-bca3-720a-b376-36016acb7b52"",""projectId"":""0198ee3c-27ac-7803-a9ea-f3b4ad4ad678""}","https://test12345.live/?num_scrambled_semantic=8&num_scrambled_causal=4&num_scrambled_schematic=4&participantId=739F0AC3ECC545BBAF2D1683208B1BF5&assignmentId=0198ee57-bca3-720a-b376-36016acb7b52&projectId=0198ee3c-27ac-7803-a9ea-f3b4ad4ad678","739F0AC3ECC545BBAF2D1683208B1BF5-2025-08-28-02-35-35","","2043","","images/semantic_sequence/redecorating_a_house_semantic/redecorating_a_house_semantic_2.png","0","",""
"","","","","","image-button-response","83","468231","0.0-12.0-1.0-2.8","739F0AC3ECC545BBAF2D1683208B1BF5","739F0AC3ECC545BBAF2D1683208B1BF5","0198ee57-bca3-720a-b376-36016acb7b52","0198ee3c-27ac-7803-a9ea-f3b4ad4ad678","{""num_scrambled_semantic"":""8"",""num_scrambled_causal"":""4"",""num_scrambled_schematic"":""4"",""participantId"":""739F0AC3ECC545BBAF2D1683208B1BF5"",""assignmentId"":""0198ee57-bca3-720a-b376-36016acb7b52"",""projectId"":""0198ee3c-27ac-7803-a9ea-f3b4ad4ad678""}","https://test12345.live/?num_scrambled_semantic=8&num_scrambled_causal=4&num_scrambled_schematic=4&participantId=739F0AC3ECC545BBAF2D1683208B1BF5&assignmentId=0198ee57-bca3-720a-b376-36016acb7b52&projectId=0198ee3c-27ac-7803-a9ea-f3b4ad4ad678","739F0AC3ECC545BBAF2D1683208B1BF5-2025-08-28-02-35-35","","null","","[]","null","",""
"","","","","","image-button-response","84","472736","0.0-12.0-1.0-0.9","739F0AC3ECC545BBAF2D1683208B1BF5","739F0AC3ECC545BBAF2D1683208B1BF5","0198ee57-bca3-720a-b376-36016acb7b52","0198ee3c-27ac-7803-a9ea-f3b4ad4ad678","{""num_scrambled_semantic"":""8"",""num_scrambled_causal"":""4"",""num_scrambled_schematic"":""4"",""participantId"":""739F0AC3ECC545BBAF2D1683208B1BF5"",""assignmentId"":""0198ee57-bca3-720a-b376-36016acb7b52"",""projectId"":""0198ee3c-27ac-7803-a9ea-f3b4ad4ad678""}","https://test12345.live/?num_scrambled_semantic=8&num_scrambled_causal=4&num_scrambled_schematic=4&participantId=739F0AC3ECC545BBAF2D1683208B1BF5&assignmentId=0198ee57-bca3-720a-b376-36016acb7b52&projectId=0198ee3c-27ac-7803-a9ea-f3b4ad4ad678","739F0AC3ECC545BBAF2D1683208B1BF5-2025-08-28-02-35-35","","null","","images/semantic_sequence/redecorating_a_house_semantic/redecorating_a_house_semantic_4.png","null","",""
"","","","","","image-button-response","85","473424","0.0-12.0-1.0-1.9","739F0AC3ECC545BBAF2D1683208B1BF5","739F0AC3ECC545BBAF2D1683208B1BF5","0198ee57-bca3-720a-b376-36016acb7b52","0198ee3c-27ac-7803-a9ea-f3b4ad4ad678","{""num_scrambled_semantic"":""8"",""num_scrambled_causal"":""4"",""num_scrambled_schematic"":""4"",""participantId"":""739F0AC3ECC545BBAF2D1683208B1BF5"",""assignmentId"":""0198ee57-bca3-720a-b376-36016acb7b52"",""projectId"":""0198ee3c-27ac-7803-a9ea-f3b4ad4ad678""}","https://test12345.live/?num_scrambled_semantic=8&num_scrambled_causal=4&num_scrambled_schematic=4&participantId=739F0AC3ECC545BBAF2D1683208B1BF5&assignmentId=0198ee57-bca3-720a-b376-36016acb7b52&projectId=0198ee3c-27ac-7803-a9ea-f3b4ad4ad678","739F0AC3ECC545BBAF2D1683208B1BF5-2025-08-28-02-35-35","","687","","images/semantic_sequence/redecorating_a_house_semantic/redecorating_a_house_semantic_4.png","0","",""
"","","","","","image-button-response","86","475230","0.0-12.0-1.0-2.9","739F0AC3ECC545BBAF2D1683208B1BF5","739F0AC3ECC545BBAF2D1683208B1BF5","0198ee57-bca3-720a-b376-36016acb7b52","0198ee3c-27ac-7803-a9ea-f3b4ad4ad678","{""num_scrambled_semantic"":""8"",""num_scrambled_causal"":""4"",""num_scrambled_schematic"":""4"",""participantId"":""739F0AC3ECC545BBAF2D1683208B1BF5"",""assignmentId"":""0198ee57-bca3-720a-b376-36016acb7b52"",""projectId"":""0198ee3c-27ac-7803-a9ea-f3b4ad4ad678""}","https://test12345.live/?num_scrambled_semantic=8&num_scrambled_causal=4&num_scrambled_schematic=4&participantId=739F0AC3ECC545BBAF2D1683208B1BF5&assignmentId=0198ee57-bca3-720a-b376-36016acb7b52&projectId=0198ee3c-27ac-7803-a9ea-f3b4ad4ad678","739F0AC3ECC545BBAF2D1683208B1BF5-2025-08-28-02-35-35","","null","","[]","null","",""
"","","","","","html-audio-response","87","516282","0.0-13.0","739F0AC3ECC545BBAF2D1683208B1BF5","739F0AC3ECC545BBAF2D1683208B1BF5","0198ee57-bca3-720a-b376-36016acb7b52","0198ee3c-27ac-7803-a9ea-f3b4ad4ad678","{""num_scrambled_semantic"":""8"",""num_scrambled_causal"":""4"",""num_scrambled_schematic"":""4"",""participantId"":""739F0AC3ECC545BBAF2D1683208B1BF5"",""assignmentId"":""0198ee57-bca3-720a-b376-36016acb7b52"",""projectId"":""0198ee3c-27ac-7803-a9ea-f3b4ad4ad678""}","https://test12345.live/?num_scrambled_semantic=8&num_scrambled_causal=4&num_scrambled_schematic=4&participantId=739F0AC3ECC545BBAF2D1683208B1BF5&assignmentId=0198ee57-bca3-720a-b376-36016acb7b52&projectId=0198ee3c-27ac-7803-a9ea-f3b4ad4ad678","739F0AC3ECC545BBAF2D1683208B1BF5-2025-08-28-02-35-35","","38790","","[""<span style=\""color: red; font-size: 24px\""> NOW RECORDING</span><p>Please say out loud all the images you saw, in the order of the story they create. Try to recall the sequence of events as they appeared in the story, not necessarily the order they were presented on the screen.</p>""]","","1","redecorating_a_house_semantic"
"","","","","","image-button-response","88","522300","0.0-14.0-0.0","739F0AC3ECC545BBAF2D1683208B1BF5","739F0AC3ECC545BBAF2D1683208B1BF5","0198ee57-bca3-720a-b376-36016acb7b52","0198ee3c-27ac-7803-a9ea-f3b4ad4ad678","{""num_scrambled_semantic"":""8"",""num_scrambled_causal"":""4"",""num_scrambled_schematic"":""4"",""participantId"":""739F0AC3ECC545BBAF2D1683208B1BF5"",""assignmentId"":""0198ee57-bca3-720a-b376-36016acb7b52"",""projectId"":""0198ee3c-27ac-7803-a9ea-f3b4ad4ad678""}","https://test12345.live/?num_scrambled_semantic=8&num_scrambled_causal=4&num_scrambled_schematic=4&participantId=739F0AC3ECC545BBAF2D1683208B1BF5&assignmentId=0198ee57-bca3-720a-b376-36016acb7b52&projectId=0198ee3c-27ac-7803-a9ea-f3b4ad4ad678","739F0AC3ECC545BBAF2D1683208B1BF5-2025-08-28-02-35-35","","null","","images/schematic_sequence/flight_scheme/flight_scheme_0.png","null","",""
"","","","","","image-button-response","89","526801","0.0-14.0-1.0-0.0","739F0AC3ECC545BBAF2D1683208B1BF5","739F0AC3ECC545BBAF2D1683208B1BF5","0198ee57-bca3-720a-b376-36016acb7b52","0198ee3c-27ac-7803-a9ea-f3b4ad4ad678","{""num_scrambled_semantic"":""8"",""num_scrambled_causal"":""4"",""num_scrambled_schematic"":""4"",""participantId"":""739F0AC3ECC545BBAF2D1683208B1BF5"",""assignmentId"":""0198ee57-bca3-720a-b376-36016acb7b52"",""projectId"":""0198ee3c-27ac-7803-a9ea-f3b4ad4ad678""}","https://test12345.live/?num_scrambled_semantic=8&num_scrambled_causal=4&num_scrambled_schematic=4&participantId=739F0AC3ECC545BBAF2D1683208B1BF5&assignmentId=0198ee57-bca3-720a-b376-36016acb7b52&projectId=0198ee3c-27ac-7803-a9ea-f3b4ad4ad678","739F0AC3ECC545BBAF2D1683208B1BF5-2025-08-28-02-35-35","","null","","images/schematic_sequence/flight_scheme/flight_scheme_1.png","null","",""
"","","","","","image-button-response","90","528158","0.0-14.0-1.0-1.0","739F0AC3ECC545BBAF2D1683208B1BF5","739F0AC3ECC545BBAF2D1683208B1BF5","0198ee57-bca3-720a-b376-36016acb7b52","0198ee3c-27ac-7803-a9ea-f3b4ad4ad678","{""num_scrambled_semantic"":""8"",""num_scrambled_causal"":""4"",""num_scrambled_schematic"":""4"",""participantId"":""739F0AC3ECC545BBAF2D1683208B1BF5"",""assignmentId"":""0198ee57-bca3-720a-b376-36016acb7b52"",""projectId"":""0198ee3c-27ac-7803-a9ea-f3b4ad4ad678""}","https://test12345.live/?num_scrambled_semantic=8&num_scrambled_causal=4&num_scrambled_schematic=4&participantId=739F0AC3ECC545BBAF2D1683208B1BF5&assignmentId=0198ee57-bca3-720a-b376-36016acb7b52&projectId=0198ee3c-27ac-7803-a9ea-f3b4ad4ad678","739F0AC3ECC545BBAF2D1683208B1BF5-2025-08-28-02-35-35","","1357","","images/schematic_sequence/flight_scheme/flight_scheme_1.png","1","",""
"","","","","","image-button-response","91","529959","0.0-14.0-1.0-2.0","739F0AC3ECC545BBAF2D1683208B1BF5","739F0AC3ECC545BBAF2D1683208B1BF5","0198ee57-bca3-720a-b376-36016acb7b52","0198ee3c-27ac-7803-a9ea-f3b4ad4ad678","{""num_scrambled_semantic"":""8"",""num_scrambled_causal"":""4"",""num_scrambled_schematic"":""4"",""participantId"":""739F0AC3ECC545BBAF2D1683208B1BF5"",""assignmentId"":""0198ee57-bca3-720a-b376-36016acb7b52"",""projectId"":""0198ee3c-27ac-7803-a9ea-f3b4ad4ad678""}","https://test12345.live/?num_scrambled_semantic=8&num_scrambled_causal=4&num_scrambled_schematic=4&participantId=739F0AC3ECC545BBAF2D1683208B1BF5&assignmentId=0198ee57-bca3-720a-b376-36016acb7b52&projectId=0198ee3c-27ac-7803-a9ea-f3b4ad4ad678","739F0AC3ECC545BBAF2D1683208B1BF5-2025-08-28-02-35-35","","null","","[]","null","",""
"","","","","","image-button-response","92","534468","0.0-14.0-1.0-0.1","739F0AC3ECC545BBAF2D1683208B1BF5","739F0AC3ECC545BBAF2D1683208B1BF5","0198ee57-bca3-720a-b376-36016acb7b52","0198ee3c-27ac-7803-a9ea-f3b4ad4ad678","{""num_scrambled_semantic"":""8"",""num_scrambled_causal"":""4"",""num_scrambled_schematic"":""4"",""participantId"":""739F0AC3ECC545BBAF2D1683208B1BF5"",""assignmentId"":""0198ee57-bca3-720a-b376-36016acb7b52"",""projectId"":""0198ee3c-27ac-7803-a9ea-f3b4ad4ad678""}","https://test12345.live/?num_scrambled_semantic=8&num_scrambled_causal=4&num_scrambled_schematic=4&participantId=739F0AC3ECC545BBAF2D1683208B1BF5&assignmentId=0198ee57-bca3-720a-b376-36016acb7b52&projectId=0198ee3c-27ac-7803-a9ea-f3b4ad4ad678","739F0AC3ECC545BBAF2D1683208B1BF5-2025-08-28-02-35-35","","null","","images/schematic_sequence/flight_scheme/flight_scheme_2.png","null","",""
"","","","","","image-button-response","93","535969","0.0-14.0-1.0-1.1","739F0AC3ECC545BBAF2D1683208B1BF5","739F0AC3ECC545BBAF2D1683208B1BF5","0198ee57-bca3-720a-b376-36016acb7b52","0198ee3c-27ac-7803-a9ea-f3b4ad4ad678","{""num_scrambled_semantic"":""8"",""num_scrambled_causal"":""4"",""num_scrambled_schematic"":""4"",""participantId"":""739F0AC3ECC545BBAF2D1683208B1BF5"",""assignmentId"":""0198ee57-bca3-720a-b376-36016acb7b52"",""projectId"":""0198ee3c-27ac-7803-a9ea-f3b4ad4ad678""}","https://test12345.live/?num_scrambled_semantic=8&num_scrambled_causal=4&num_scrambled_schematic=4&participantId=739F0AC3ECC545BBAF2D1683208B1BF5&assignmentId=0198ee57-bca3-720a-b376-36016acb7b52&projectId=0198ee3c-27ac-7803-a9ea-f3b4ad4ad678","739F0AC3ECC545BBAF2D1683208B1BF5-2025-08-28-02-35-35","","1500","","images/schematic_sequence/flight_scheme/flight_scheme_2.png","1","",""
"","","","","","image-button-response","94","537778","0.0-14.0-1.0-2.1","739F0AC3ECC545BBAF2D1683208B1BF5","739F0AC3ECC545BBAF2D1683208B1BF5","0198ee57-bca3-720a-b376-36016acb7b52","0198ee3c-27ac-7803-a9ea-f3b4ad4ad678","{""num_scrambled_semantic"":""8"",""num_scrambled_causal"":""4"",""num_scrambled_schematic"":""4"",""participantId"":""739F0AC3ECC545BBAF2D1683208B1BF5"",""assignmentId"":""0198ee57-bca3-720a-b376-36016acb7b52"",""projectId"":""0198ee3c-27ac-7803-a9ea-f3b4ad4ad678""}","https://test12345.live/?num_scrambled_semantic=8&num_scrambled_causal=4&num_scrambled_schematic=4&participantId=739F0AC3ECC545BBAF2D1683208B1BF5&assignmentId=0198ee57-bca3-720a-b376-36016acb7b52&projectId=0198ee3c-27ac-7803-a9ea-f3b4ad4ad678","739F0AC3ECC545BBAF2D1683208B1BF5-2025-08-28-02-35-35","","null","","[]","null","",""
"","","","","","image-button-response","95","542285","0.0-14.0-1.0-0.2","739F0AC3ECC545BBAF2D1683208B1BF5","739F0AC3ECC545BBAF2D1683208B1BF5","0198ee57-bca3-720a-b376-36016acb7b52","0198ee3c-27ac-7803-a9ea-f3b4ad4ad678","{""num_scrambled_semantic"":""8"",""num_scrambled_causal"":""4"",""num_scrambled_schematic"":""4"",""participantId"":""739F0AC3ECC545BBAF2D1683208B1BF5"",""assignmentId"":""0198ee57-bca3-720a-b376-36016acb7b52"",""projectId"":""0198ee3c-27ac-7803-a9ea-f3b4ad4ad678""}","https://test12345.live/?num_scrambled_semantic=8&num_scrambled_causal=4&num_scrambled_schematic=4&participantId=739F0AC3ECC545BBAF2D1683208B1BF5&assignmentId=0198ee57-bca3-720a-b376-36016acb7b52&projectId=0198ee3c-27ac-7803-a9ea-f3b4ad4ad678","739F0AC3ECC545BBAF2D1683208B1BF5-2025-08-28-02-35-35","","null","","images/schematic_sequence/flight_scheme/flight_scheme_3.png","null","",""
"","","","","","image-button-response","96","543201","0.0-14.0-1.0-1.2","739F0AC3ECC545BBAF2D1683208B1BF5","739F0AC3ECC545BBAF2D1683208B1BF5","0198ee57-bca3-720a-b376-36016acb7b52","0198ee3c-27ac-7803-a9ea-f3b4ad4ad678","{""num_scrambled_semantic"":""8"",""num_scrambled_causal"":""4"",""num_scrambled_schematic"":""4"",""participantId"":""739F0AC3ECC545BBAF2D1683208B1BF5"",""assignmentId"":""0198ee57-bca3-720a-b376-36016acb7b52"",""projectId"":""0198ee3c-27ac-7803-a9ea-f3b4ad4ad678""}","https://test12345.live/?num_scrambled_semantic=8&num_scrambled_causal=4&num_scrambled_schematic=4&participantId=739F0AC3ECC545BBAF2D1683208B1BF5&assignmentId=0198ee57-bca3-720a-b376-36016acb7b52&projectId=0198ee3c-27ac-7803-a9ea-f3b4ad4ad678","739F0AC3ECC545BBAF2D1683208B1BF5-2025-08-28-02-35-35","","914","","images/schematic_sequence/flight_scheme/flight_scheme_3.png","0","",""
"","","","","","image-button-response","97","545011","0.0-14.0-1.0-2.2","739F0AC3ECC545BBAF2D1683208B1BF5","739F0AC3ECC545BBAF2D1683208B1BF5","0198ee57-bca3-720a-b376-36016acb7b52","0198ee3c-27ac-7803-a9ea-f3b4ad4ad678","{""num_scrambled_semantic"":""8"",""num_scrambled_causal"":""4"",""num_scrambled_schematic"":""4"",""participantId"":""739F0AC3ECC545BBAF2D1683208B1BF5"",""assignmentId"":""0198ee57-bca3-720a-b376-36016acb7b52"",""projectId"":""0198ee3c-27ac-7803-a9ea-f3b4ad4ad678""}","https://test12345.live/?num_scrambled_semantic=8&num_scrambled_causal=4&num_scrambled_schematic=4&participantId=739F0AC3ECC545BBAF2D1683208B1BF5&assignmentId=0198ee57-bca3-720a-b376-36016acb7b52&projectId=0198ee3c-27ac-7803-a9ea-f3b4ad4ad678","739F0AC3ECC545BBAF2D1683208B1BF5-2025-08-28-02-35-35","","null","","[]","null","",""
"","","","","","image-button-response","98","549517","0.0-14.0-1.0-0.3","739F0AC3ECC545BBAF2D1683208B1BF5","739F0AC3ECC545BBAF2D1683208B1BF5","0198ee57-bca3-720a-b376-36016acb7b52","0198ee3c-27ac-7803-a9ea-f3b4ad4ad678","{""num_scrambled_semantic"":""8"",""num_scrambled_causal"":""4"",""num_scrambled_schematic"":""4"",""participantId"":""739F0AC3ECC545BBAF2D1683208B1BF5"",""assignmentId"":""0198ee57-bca3-720a-b376-36016acb7b52"",""projectId"":""0198ee3c-27ac-7803-a9ea-f3b4ad4ad678""}","https://test12345.live/?num_scrambled_semantic=8&num_scrambled_causal=4&num_scrambled_schematic=4&participantId=739F0AC3ECC545BBAF2D1683208B1BF5&assignmentId=0198ee57-bca3-720a-b376-36016acb7b52&projectId=0198ee3c-27ac-7803-a9ea-f3b4ad4ad678","739F0AC3ECC545BBAF2D1683208B1BF5-2025-08-28-02-35-35","","null","","images/schematic_sequence/flight_scheme/flight_scheme_4.png","null","",""
"","","","","","image-button-response","99","550402","0.0-14.0-1.0-1.3","739F0AC3ECC545BBAF2D1683208B1BF5","739F0AC3ECC545BBAF2D1683208B1BF5","0198ee57-bca3-720a-b376-36016acb7b52","0198ee3c-27ac-7803-a9ea-f3b4ad4ad678","{""num_scrambled_semantic"":""8"",""num_scrambled_causal"":""4"",""num_scrambled_schematic"":""4"",""participantId"":""739F0AC3ECC545BBAF2D1683208B1BF5"",""assignmentId"":""0198ee57-bca3-720a-b376-36016acb7b52"",""projectId"":""0198ee3c-27ac-7803-a9ea-f3b4ad4ad678""}","https://test12345.live/?num_scrambled_semantic=8&num_scrambled_causal=4&num_scrambled_schematic=4&participantId=739F0AC3ECC545BBAF2D1683208B1BF5&assignmentId=0198ee57-bca3-720a-b376-36016acb7b52&projectId=0198ee3c-27ac-7803-a9ea-f3b4ad4ad678","739F0AC3ECC545BBAF2D1683208B1BF5-2025-08-28-02-35-35","","884","","images/schematic_sequence/flight_scheme/flight_scheme_4.png","0","",""
"","","","","","image-button-response","100","552210","0.0-14.0-1.0-2.3","739F0AC3ECC545BBAF2D1683208B1BF5","739F0AC3ECC545BBAF2D1683208B1BF5","0198ee57-bca3-720a-b376-36016acb7b52","0198ee3c-27ac-7803-a9ea-f3b4ad4ad678","{""num_scrambled_semantic"":""8"",""num_scrambled_causal"":""4"",""num_scrambled_schematic"":""4"",""participantId"":""739F0AC3ECC545BBAF2D1683208B1BF5"",""assignmentId"":""0198ee57-bca3-720a-b376-36016acb7b52"",""projectId"":""0198ee3c-27ac-7803-a9ea-f3b4ad4ad678""}","https://test12345.live/?num_scrambled_semantic=8&num_scrambled_causal=4&num_scrambled_schematic=4&participantId=739F0AC3ECC545BBAF2D1683208B1BF5&assignmentId=0198ee57-bca3-720a-b376-36016acb7b52&projectId=0198ee3c-27ac-7803-a9ea-f3b4ad4ad678","739F0AC3ECC545BBAF2D1683208B1BF5-2025-08-28-02-35-35","","null","","[]","null","",""
"","","","","","image-button-response","101","556712","0.0-14.0-1.0-0.4","739F0AC3ECC545BBAF2D1683208B1BF5","739F0AC3ECC545BBAF2D1683208B1BF5","0198ee57-bca3-720a-b376-36016acb7b52","0198ee3c-27ac-7803-a9ea-f3b4ad4ad678","{""num_scrambled_semantic"":""8"",""num_scrambled_causal"":""4"",""num_scrambled_schematic"":""4"",""participantId"":""739F0AC3ECC545BBAF2D1683208B1BF5"",""assignmentId"":""0198ee57-bca3-720a-b376-36016acb7b52"",""projectId"":""0198ee3c-27ac-7803-a9ea-f3b4ad4ad678""}","https://test12345.live/?num_scrambled_semantic=8&num_scrambled_causal=4&num_scrambled_schematic=4&participantId=739F0AC3ECC545BBAF2D1683208B1BF5&assignmentId=0198ee57-bca3-720a-b376-36016acb7b52&projectId=0198ee3c-27ac-7803-a9ea-f3b4ad4ad678","739F0AC3ECC545BBAF2D1683208B1BF5-2025-08-28-02-35-35","","null","","images/schematic_sequence/flight_scheme/flight_scheme_5.png","null","",""
"","","","","","image-button-response","102","557601","0.0-14.0-1.0-1.4","739F0AC3ECC545BBAF2D1683208B1BF5","739F0AC3ECC545BBAF2D1683208B1BF5","0198ee57-bca3-720a-b376-36016acb7b52","0198ee3c-27ac-7803-a9ea-f3b4ad4ad678","{""num_scrambled_semantic"":""8"",""num_scrambled_causal"":""4"",""num_scrambled_schematic"":""4"",""participantId"":""739F0AC3ECC545BBAF2D1683208B1BF5"",""assignmentId"":""0198ee57-bca3-720a-b376-36016acb7b52"",""projectId"":""0198ee3c-27ac-7803-a9ea-f3b4ad4ad678""}","https://test12345.live/?num_scrambled_semantic=8&num_scrambled_causal=4&num_scrambled_schematic=4&participantId=739F0AC3ECC545BBAF2D1683208B1BF5&assignmentId=0198ee57-bca3-720a-b376-36016acb7b52&projectId=0198ee3c-27ac-7803-a9ea-f3b4ad4ad678","739F0AC3ECC545BBAF2D1683208B1BF5-2025-08-28-02-35-35","","889","","images/schematic_sequence/flight_scheme/flight_scheme_5.png","0","",""
"","","","","","image-button-response","103","559415","0.0-14.0-1.0-2.4","739F0AC3ECC545BBAF2D1683208B1BF5","739F0AC3ECC545BBAF2D1683208B1BF5","0198ee57-bca3-720a-b376-36016acb7b52","0198ee3c-27ac-7803-a9ea-f3b4ad4ad678","{""num_scrambled_semantic"":""8"",""num_scrambled_causal"":""4"",""num_scrambled_schematic"":""4"",""participantId"":""739F0AC3ECC545BBAF2D1683208B1BF5"",""assignmentId"":""0198ee57-bca3-720a-b376-36016acb7b52"",""projectId"":""0198ee3c-27ac-7803-a9ea-f3b4ad4ad678""}","https://test12345.live/?num_scrambled_semantic=8&num_scrambled_causal=4&num_scrambled_schematic=4&participantId=739F0AC3ECC545BBAF2D1683208B1BF5&assignmentId=0198ee57-bca3-720a-b376-36016acb7b52&projectId=0198ee3c-27ac-7803-a9ea-f3b4ad4ad678","739F0AC3ECC545BBAF2D1683208B1BF5-2025-08-28-02-35-35","","null","","[]","null","",""
"","","","","","image-button-response","104","563921","0.0-14.0-1.0-0.5","739F0AC3ECC545BBAF2D1683208B1BF5","739F0AC3ECC545BBAF2D1683208B1BF5","0198ee57-bca3-720a-b376-36016acb7b52","0198ee3c-27ac-7803-a9ea-f3b4ad4ad678","{""num_scrambled_semantic"":""8"",""num_scrambled_causal"":""4"",""num_scrambled_schematic"":""4"",""participantId"":""739F0AC3ECC545BBAF2D1683208B1BF5"",""assignmentId"":""0198ee57-bca3-720a-b376-36016acb7b52"",""projectId"":""0198ee3c-27ac-7803-a9ea-f3b4ad4ad678""}","https://test12345.live/?num_scrambled_semantic=8&num_scrambled_causal=4&num_scrambled_schematic=4&participantId=739F0AC3ECC545BBAF2D1683208B1BF5&assignmentId=0198ee57-bca3-720a-b376-36016acb7b52&projectId=0198ee3c-27ac-7803-a9ea-f3b4ad4ad678","739F0AC3ECC545BBAF2D1683208B1BF5-2025-08-28-02-35-35","","null","","images/schematic_sequence/flight_scheme/flight_scheme_6.png","null","",""
"","","","","","image-button-response","105","565035","0.0-14.0-1.0-1.5","739F0AC3ECC545BBAF2D1683208B1BF5","739F0AC3ECC545BBAF2D1683208B1BF5","0198ee57-bca3-720a-b376-36016acb7b52","0198ee3c-27ac-7803-a9ea-f3b4ad4ad678","{""num_scrambled_semantic"":""8"",""num_scrambled_causal"":""4"",""num_scrambled_schematic"":""4"",""participantId"":""739F0AC3ECC545BBAF2D1683208B1BF5"",""assignmentId"":""0198ee57-bca3-720a-b376-36016acb7b52"",""projectId"":""0198ee3c-27ac-7803-a9ea-f3b4ad4ad678""}","https://test12345.live/?num_scrambled_semantic=8&num_scrambled_causal=4&num_scrambled_schematic=4&participantId=739F0AC3ECC545BBAF2D1683208B1BF5&assignmentId=0198ee57-bca3-720a-b376-36016acb7b52&projectId=0198ee3c-27ac-7803-a9ea-f3b4ad4ad678","739F0AC3ECC545BBAF2D1683208B1BF5-2025-08-28-02-35-35","","1113","","images/schematic_sequence/flight_scheme/flight_scheme_6.png","1","",""
"","","","","","image-button-response","106","566836","0.0-14.0-1.0-2.5","739F0AC3ECC545BBAF2D1683208B1BF5","739F0AC3ECC545BBAF2D1683208B1BF5","0198ee57-bca3-720a-b376-36016acb7b52","0198ee3c-27ac-7803-a9ea-f3b4ad4ad678","{""num_scrambled_semantic"":""8"",""num_scrambled_causal"":""4"",""num_scrambled_schematic"":""4"",""participantId"":""739F0AC3ECC545BBAF2D1683208B1BF5"",""assignmentId"":""0198ee57-bca3-720a-b376-36016acb7b52"",""projectId"":""0198ee3c-27ac-7803-a9ea-f3b4ad4ad678""}","https://test12345.live/?num_scrambled_semantic=8&num_scrambled_causal=4&num_scrambled_schematic=4&participantId=739F0AC3ECC545BBAF2D1683208B1BF5&assignmentId=0198ee57-bca3-720a-b376-36016acb7b52&projectId=0198ee3c-27ac-7803-a9ea-f3b4ad4ad678","739F0AC3ECC545BBAF2D1683208B1BF5-2025-08-28-02-35-35","","null","","[]","null","",""
"","","","","","image-button-response","107","571344","0.0-14.0-1.0-0.6","739F0AC3ECC545BBAF2D1683208B1BF5","739F0AC3ECC545BBAF2D1683208B1BF5","0198ee57-bca3-720a-b376-36016acb7b52","0198ee3c-27ac-7803-a9ea-f3b4ad4ad678","{""num_scrambled_semantic"":""8"",""num_scrambled_causal"":""4"",""num_scrambled_schematic"":""4"",""participantId"":""739F0AC3ECC545BBAF2D1683208B1BF5"",""assignmentId"":""0198ee57-bca3-720a-b376-36016acb7b52"",""projectId"":""0198ee3c-27ac-7803-a9ea-f3b4ad4ad678""}","https://test12345.live/?num_scrambled_semantic=8&num_scrambled_causal=4&num_scrambled_schematic=4&participantId=739F0AC3ECC545BBAF2D1683208B1BF5&assignmentId=0198ee57-bca3-720a-b376-36016acb7b52&projectId=0198ee3c-27ac-7803-a9ea-f3b4ad4ad678","739F0AC3ECC545BBAF2D1683208B1BF5-2025-08-28-02-35-35","","null","","images/schematic_sequence/flight_scheme/flight_scheme_7.png","null","",""
"","","","","","image-button-response","108","572902","0.0-14.0-1.0-1.6","739F0AC3ECC545BBAF2D1683208B1BF5","739F0AC3ECC545BBAF2D1683208B1BF5","0198ee57-bca3-720a-b376-36016acb7b52","0198ee3c-27ac-7803-a9ea-f3b4ad4ad678","{""num_scrambled_semantic"":""8"",""num_scrambled_causal"":""4"",""num_scrambled_schematic"":""4"",""participantId"":""739F0AC3ECC545BBAF2D1683208B1BF5"",""assignmentId"":""0198ee57-bca3-720a-b376-36016acb7b52"",""projectId"":""0198ee3c-27ac-7803-a9ea-f3b4ad4ad678""}","https://test12345.live/?num_scrambled_semantic=8&num_scrambled_causal=4&num_scrambled_schematic=4&participantId=739F0AC3ECC545BBAF2D1683208B1BF5&assignmentId=0198ee57-bca3-720a-b376-36016acb7b52&projectId=0198ee3c-27ac-7803-a9ea-f3b4ad4ad678","739F0AC3ECC545BBAF2D1683208B1BF5-2025-08-28-02-35-35","","1558","","images/schematic_sequence/flight_scheme/flight_scheme_7.png","1","",""
"","","","","","image-button-response","109","574704","0.0-14.0-1.0-2.6","739F0AC3ECC545BBAF2D1683208B1BF5","739F0AC3ECC545BBAF2D1683208B1BF5","0198ee57-bca3-720a-b376-36016acb7b52","0198ee3c-27ac-7803-a9ea-f3b4ad4ad678","{""num_scrambled_semantic"":""8"",""num_scrambled_causal"":""4"",""num_scrambled_schematic"":""4"",""participantId"":""739F0AC3ECC545BBAF2D1683208B1BF5"",""assignmentId"":""0198ee57-bca3-720a-b376-36016acb7b52"",""projectId"":""0198ee3c-27ac-7803-a9ea-f3b4ad4ad678""}","https://test12345.live/?num_scrambled_semantic=8&num_scrambled_causal=4&num_scrambled_schematic=4&participantId=739F0AC3ECC545BBAF2D1683208B1BF5&assignmentId=0198ee57-bca3-720a-b376-36016acb7b52&projectId=0198ee3c-27ac-7803-a9ea-f3b4ad4ad678","739F0AC3ECC545BBAF2D1683208B1BF5-2025-08-28-02-35-35","","null","","[]","null","",""
"","","","","","image-button-response","110","579206","0.0-14.0-1.0-0.7","739F0AC3ECC545BBAF2D1683208B1BF5","739F0AC3ECC545BBAF2D1683208B1BF5","0198ee57-bca3-720a-b376-36016acb7b52","0198ee3c-27ac-7803-a9ea-f3b4ad4ad678","{""num_scrambled_semantic"":""8"",""num_scrambled_causal"":""4"",""num_scrambled_schematic"":""4"",""participantId"":""739F0AC3ECC545BBAF2D1683208B1BF5"",""assignmentId"":""0198ee57-bca3-720a-b376-36016acb7b52"",""projectId"":""0198ee3c-27ac-7803-a9ea-f3b4ad4ad678""}","https://test12345.live/?num_scrambled_semantic=8&num_scrambled_causal=4&num_scrambled_schematic=4&participantId=739F0AC3ECC545BBAF2D1683208B1BF5&assignmentId=0198ee57-bca3-720a-b376-36016acb7b52&projectId=0198ee3c-27ac-7803-a9ea-f3b4ad4ad678","739F0AC3ECC545BBAF2D1683208B1BF5-2025-08-28-02-35-35","","null","","images/schematic_sequence/flight_scheme/flight_scheme_8.png","null","",""
"","","","","","image-button-response","111","580653","0.0-14.0-1.0-1.7","739F0AC3ECC545BBAF2D1683208B1BF5","739F0AC3ECC545BBAF2D1683208B1BF5","0198ee57-bca3-720a-b376-36016acb7b52","0198ee3c-27ac-7803-a9ea-f3b4ad4ad678","{""num_scrambled_semantic"":""8"",""num_scrambled_causal"":""4"",""num_scrambled_schematic"":""4"",""participantId"":""739F0AC3ECC545BBAF2D1683208B1BF5"",""assignmentId"":""0198ee57-bca3-720a-b376-36016acb7b52"",""projectId"":""0198ee3c-27ac-7803-a9ea-f3b4ad4ad678""}","https://test12345.live/?num_scrambled_semantic=8&num_scrambled_causal=4&num_scrambled_schematic=4&participantId=739F0AC3ECC545BBAF2D1683208B1BF5&assignmentId=0198ee57-bca3-720a-b376-36016acb7b52&projectId=0198ee3c-27ac-7803-a9ea-f3b4ad4ad678","739F0AC3ECC545BBAF2D1683208B1BF5-2025-08-28-02-35-35","","1446","","images/schematic_sequence/flight_scheme/flight_scheme_8.png","1","",""
"","","","","","image-button-response","112","582468","0.0-14.0-1.0-2.7","739F0AC3ECC545BBAF2D1683208B1BF5","739F0AC3ECC545BBAF2D1683208B1BF5","0198ee57-bca3-720a-b376-36016acb7b52","0198ee3c-27ac-7803-a9ea-f3b4ad4ad678","{""num_scrambled_semantic"":""8"",""num_scrambled_causal"":""4"",""num_scrambled_schematic"":""4"",""participantId"":""739F0AC3ECC545BBAF2D1683208B1BF5"",""assignmentId"":""0198ee57-bca3-720a-b376-36016acb7b52"",""projectId"":""0198ee3c-27ac-7803-a9ea-f3b4ad4ad678""}","https://test12345.live/?num_scrambled_semantic=8&num_scrambled_causal=4&num_scrambled_schematic=4&participantId=739F0AC3ECC545BBAF2D1683208B1BF5&assignmentId=0198ee57-bca3-720a-b376-36016acb7b52&projectId=0198ee3c-27ac-7803-a9ea-f3b4ad4ad678","739F0AC3ECC545BBAF2D1683208B1BF5-2025-08-28-02-35-35","","null","","[]","null","",""
"","","","","","image-button-response","113","586974","0.0-14.0-1.0-0.8","739F0AC3ECC545BBAF2D1683208B1BF5","739F0AC3ECC545BBAF2D1683208B1BF5","0198ee57-bca3-720a-b376-36016acb7b52","0198ee3c-27ac-7803-a9ea-f3b4ad4ad678","{""num_scrambled_semantic"":""8"",""num_scrambled_causal"":""4"",""num_scrambled_schematic"":""4"",""participantId"":""739F0AC3ECC545BBAF2D1683208B1BF5"",""assignmentId"":""0198ee57-bca3-720a-b376-36016acb7b52"",""projectId"":""0198ee3c-27ac-7803-a9ea-f3b4ad4ad678""}","https://test12345.live/?num_scrambled_semantic=8&num_scrambled_causal=4&num_scrambled_schematic=4&participantId=739F0AC3ECC545BBAF2D1683208B1BF5&assignmentId=0198ee57-bca3-720a-b376-36016acb7b52&projectId=0198ee3c-27ac-7803-a9ea-f3b4ad4ad678","739F0AC3ECC545BBAF2D1683208B1BF5-2025-08-28-02-35-35","","null","","images/schematic_sequence/flight_scheme/flight_scheme_9.png","null","",""
