"success","timeout","failed_images","failed_audio","failed_video","trial_type","trial_index","time_elapsed","internal_node_id","subject","subject_id","study_id","session_id","urlvar","current_url","audio_id","view_history","rt","device_id","stimulus","response","estimated_stimulus_onset","seq_name"
"true","false","[]","[]","[]","preload","0","109707","0.0-0.0","73C4B5DBE2AE41128591B97CA1517324","73C4B5DBE2AE41128591B97CA1517324","3f81add8-c4c3-425c-887b-947ec66c89a1","a0a8f18c-a66e-4ba7-a170-23efbdc67501","{""participantId"":""73C4B5DBE2AE41128591B97CA1517324"",""assignmentId"":""3f81add8-c4c3-425c-887b-947ec66c89a1"",""projectId"":""a0a8f18c-a66e-4ba7-a170-23efbdc67501""}","https://test12345.live/?participantId=73C4B5DBE2AE41128591B97CA1517324&assignmentId=3f81add8-c4c3-425c-887b-947ec66c89a1&projectId=a0a8f18c-a66e-4ba7-a170-23efbdc67501","73C4B5DBE2AE41128591B97CA1517324-2024-11-24-18-51-29","","","","","","",""
"","","","","","instructions","1","128152","0.0-1.0","73C4B5DBE2AE41128591B97CA1517324","73C4B5DBE2AE41128591B97CA1517324","3f81add8-c4c3-425c-887b-947ec66c89a1","a0a8f18c-a66e-4ba7-a170-23efbdc67501","{""participantId"":""73C4B5DBE2AE41128591B97CA1517324"",""assignmentId"":""3f81add8-c4c3-425c-887b-947ec66c89a1"",""projectId"":""a0a8f18c-a66e-4ba7-a170-23efbdc67501""}","https://test12345.live/?participantId=73C4B5DBE2AE41128591B97CA1517324&assignmentId=3f81add8-c4c3-425c-887b-947ec66c89a1&projectId=a0a8f18c-a66e-4ba7-a170-23efbdc67501","73C4B5DBE2AE41128591B97CA1517324-2024-11-24-18-51-29","[{""page_index"":0,""viewing_time"":18442}]","18443","","","","",""
"","","","","","instructions","2","185941","0.0-2.0","73C4B5DBE2AE41128591B97CA1517324","73C4B5DBE2AE41128591B97CA1517324","3f81add8-c4c3-425c-887b-947ec66c89a1","a0a8f18c-a66e-4ba7-a170-23efbdc67501","{""participantId"":""73C4B5DBE2AE41128591B97CA1517324"",""assignmentId"":""3f81add8-c4c3-425c-887b-947ec66c89a1"",""projectId"":""a0a8f18c-a66e-4ba7-a170-23efbdc67501""}","https://test12345.live/?participantId=73C4B5DBE2AE41128591B97CA1517324&assignmentId=3f81add8-c4c3-425c-887b-947ec66c89a1&projectId=a0a8f18c-a66e-4ba7-a170-23efbdc67501","73C4B5DBE2AE41128591B97CA1517324-2024-11-24-18-51-29","[{""page_index"":0,""viewing_time"":57788}]","57788","","","","",""
"true","","","","","fullscreen","3","200486","0.0-3.0","73C4B5DBE2AE41128591B97CA1517324","73C4B5DBE2AE41128591B97CA1517324","3f81add8-c4c3-425c-887b-947ec66c89a1","a0a8f18c-a66e-4ba7-a170-23efbdc67501","{""participantId"":""73C4B5DBE2AE41128591B97CA1517324"",""assignmentId"":""3f81add8-c4c3-425c-887b-947ec66c89a1"",""projectId"":""a0a8f18c-a66e-4ba7-a170-23efbdc67501""}","https://test12345.live/?participantId=73C4B5DBE2AE41128591B97CA1517324&assignmentId=3f81add8-c4c3-425c-887b-947ec66c89a1&projectId=a0a8f18c-a66e-4ba7-a170-23efbdc67501","73C4B5DBE2AE41128591B97CA1517324-2024-11-24-18-51-29","","13542","","","","",""
"","","","","","initialize-microphone","4","214408","0.0-4.0-0.0","73C4B5DBE2AE41128591B97CA1517324","73C4B5DBE2AE41128591B97CA1517324","3f81add8-c4c3-425c-887b-947ec66c89a1","a0a8f18c-a66e-4ba7-a170-23efbdc67501","{""participantId"":""73C4B5DBE2AE41128591B97CA1517324"",""assignmentId"":""3f81add8-c4c3-425c-887b-947ec66c89a1"",""projectId"":""a0a8f18c-a66e-4ba7-a170-23efbdc67501""}","https://test12345.live/?participantId=73C4B5DBE2AE41128591B97CA1517324&assignmentId=3f81add8-c4c3-425c-887b-947ec66c89a1&projectId=a0a8f18c-a66e-4ba7-a170-23efbdc67501","73C4B5DBE2AE41128591B97CA1517324-2024-11-24-18-51-29","","","","","","",""
"","","","","","html-audio-response","5","240913","0.0-4.0-1.0","73C4B5DBE2AE41128591B97CA1517324","73C4B5DBE2AE41128591B97CA1517324","3f81add8-c4c3-425c-887b-947ec66c89a1","a0a8f18c-a66e-4ba7-a170-23efbdc67501","{""participantId"":""73C4B5DBE2AE41128591B97CA1517324"",""assignmentId"":""3f81add8-c4c3-425c-887b-947ec66c89a1"",""projectId"":""a0a8f18c-a66e-4ba7-a170-23efbdc67501""}","https://test12345.live/?participantId=73C4B5DBE2AE41128591B97CA1517324&assignmentId=3f81add8-c4c3-425c-887b-947ec66c89a1&projectId=a0a8f18c-a66e-4ba7-a170-23efbdc67501","73C4B5DBE2AE41128591B97CA1517324-2024-11-24-18-51-29","","4260","","<span style=""color: red; font-size: 24px""> NOW RECORDING</span>
        <p>Please test Microphone</p>","","8",""
"","","","","","html-button-response","6","245252","0.0-4.0-2.0","73C4B5DBE2AE41128591B97CA1517324","73C4B5DBE2AE41128591B97CA1517324","3f81add8-c4c3-425c-887b-947ec66c89a1","a0a8f18c-a66e-4ba7-a170-23efbdc67501","{""participantId"":""73C4B5DBE2AE41128591B97CA1517324"",""assignmentId"":""3f81add8-c4c3-425c-887b-947ec66c89a1"",""projectId"":""a0a8f18c-a66e-4ba7-a170-23efbdc67501""}","https://test12345.live/?participantId=73C4B5DBE2AE41128591B97CA1517324&assignmentId=3f81add8-c4c3-425c-887b-947ec66c89a1&projectId=a0a8f18c-a66e-4ba7-a170-23efbdc67501","73C4B5DBE2AE41128591B97CA1517324-2024-11-24-18-51-29","","4338","","<p style=""font-size:48px; color:red;"">Is Microphone OK?</p>","1","",""
"","","","","","instructions","7","284684","0.0-5.0","73C4B5DBE2AE41128591B97CA1517324","73C4B5DBE2AE41128591B97CA1517324","3f81add8-c4c3-425c-887b-947ec66c89a1","a0a8f18c-a66e-4ba7-a170-23efbdc67501","{""participantId"":""73C4B5DBE2AE41128591B97CA1517324"",""assignmentId"":""3f81add8-c4c3-425c-887b-947ec66c89a1"",""projectId"":""a0a8f18c-a66e-4ba7-a170-23efbdc67501""}","https://test12345.live/?participantId=73C4B5DBE2AE41128591B97CA1517324&assignmentId=3f81add8-c4c3-425c-887b-947ec66c89a1&projectId=a0a8f18c-a66e-4ba7-a170-23efbdc67501","73C4B5DBE2AE41128591B97CA1517324-2024-11-24-18-51-29","[{""page_index"":0,""viewing_time"":22816},{""page_index"":1,""viewing_time"":16614}]","39430","","","","",""
"","","","","","image-button-response","8","290693","0.0-6.0-0.0","73C4B5DBE2AE41128591B97CA1517324","73C4B5DBE2AE41128591B97CA1517324","3f81add8-c4c3-425c-887b-947ec66c89a1","a0a8f18c-a66e-4ba7-a170-23efbdc67501","{""participantId"":""73C4B5DBE2AE41128591B97CA1517324"",""assignmentId"":""3f81add8-c4c3-425c-887b-947ec66c89a1"",""projectId"":""a0a8f18c-a66e-4ba7-a170-23efbdc67501""}","https://test12345.live/?participantId=73C4B5DBE2AE41128591B97CA1517324&assignmentId=3f81add8-c4c3-425c-887b-947ec66c89a1&projectId=a0a8f18c-a66e-4ba7-a170-23efbdc67501","73C4B5DBE2AE41128591B97CA1517324-2024-11-24-18-51-29","","null","","images/instructions/movie_0.png","null","",""
"","","","","","image-button-response","9","295206","0.0-6.0-1.0-0.0","73C4B5DBE2AE41128591B97CA1517324","73C4B5DBE2AE41128591B97CA1517324","3f81add8-c4c3-425c-887b-947ec66c89a1","a0a8f18c-a66e-4ba7-a170-23efbdc67501","{""participantId"":""73C4B5DBE2AE41128591B97CA1517324"",""assignmentId"":""3f81add8-c4c3-425c-887b-947ec66c89a1"",""projectId"":""a0a8f18c-a66e-4ba7-a170-23efbdc67501""}","https://test12345.live/?participantId=73C4B5DBE2AE41128591B97CA1517324&assignmentId=3f81add8-c4c3-425c-887b-947ec66c89a1&projectId=a0a8f18c-a66e-4ba7-a170-23efbdc67501","73C4B5DBE2AE41128591B97CA1517324-2024-11-24-18-51-29","","null","","images/instructions/movie_1.png","null","",""
"","","","","","image-button-response","10","299220","0.0-6.0-1.0-1.0","73C4B5DBE2AE41128591B97CA1517324","73C4B5DBE2AE41128591B97CA1517324","3f81add8-c4c3-425c-887b-947ec66c89a1","a0a8f18c-a66e-4ba7-a170-23efbdc67501","{""participantId"":""73C4B5DBE2AE41128591B97CA1517324"",""assignmentId"":""3f81add8-c4c3-425c-887b-947ec66c89a1"",""projectId"":""a0a8f18c-a66e-4ba7-a170-23efbdc67501""}","https://test12345.live/?participantId=73C4B5DBE2AE41128591B97CA1517324&assignmentId=3f81add8-c4c3-425c-887b-947ec66c89a1&projectId=a0a8f18c-a66e-4ba7-a170-23efbdc67501","73C4B5DBE2AE41128591B97CA1517324-2024-11-24-18-51-29","","null","","images/instructions/movie_1.png","null","",""
"","","","","","image-button-response","11","301022","0.0-6.0-1.0-2.0","73C4B5DBE2AE41128591B97CA1517324","73C4B5DBE2AE41128591B97CA1517324","3f81add8-c4c3-425c-887b-947ec66c89a1","a0a8f18c-a66e-4ba7-a170-23efbdc67501","{""participantId"":""73C4B5DBE2AE41128591B97CA1517324"",""assignmentId"":""3f81add8-c4c3-425c-887b-947ec66c89a1"",""projectId"":""a0a8f18c-a66e-4ba7-a170-23efbdc67501""}","https://test12345.live/?participantId=73C4B5DBE2AE41128591B97CA1517324&assignmentId=3f81add8-c4c3-425c-887b-947ec66c89a1&projectId=a0a8f18c-a66e-4ba7-a170-23efbdc67501","73C4B5DBE2AE41128591B97CA1517324-2024-11-24-18-51-29","","null","","[]","null","",""
"","","","","","image-button-response","12","305536","0.0-6.0-1.0-0.1","73C4B5DBE2AE41128591B97CA1517324","73C4B5DBE2AE41128591B97CA1517324","3f81add8-c4c3-425c-887b-947ec66c89a1","a0a8f18c-a66e-4ba7-a170-23efbdc67501","{""participantId"":""73C4B5DBE2AE41128591B97CA1517324"",""assignmentId"":""3f81add8-c4c3-425c-887b-947ec66c89a1"",""projectId"":""a0a8f18c-a66e-4ba7-a170-23efbdc67501""}","https://test12345.live/?participantId=73C4B5DBE2AE41128591B97CA1517324&assignmentId=3f81add8-c4c3-425c-887b-947ec66c89a1&projectId=a0a8f18c-a66e-4ba7-a170-23efbdc67501","73C4B5DBE2AE41128591B97CA1517324-2024-11-24-18-51-29","","null","","images/instructions/movie_2.png","null","",""
"","","","","","image-button-response","13","309543","0.0-6.0-1.0-1.1","73C4B5DBE2AE41128591B97CA1517324","73C4B5DBE2AE41128591B97CA1517324","3f81add8-c4c3-425c-887b-947ec66c89a1","a0a8f18c-a66e-4ba7-a170-23efbdc67501","{""participantId"":""73C4B5DBE2AE41128591B97CA1517324"",""assignmentId"":""3f81add8-c4c3-425c-887b-947ec66c89a1"",""projectId"":""a0a8f18c-a66e-4ba7-a170-23efbdc67501""}","https://test12345.live/?participantId=73C4B5DBE2AE41128591B97CA1517324&assignmentId=3f81add8-c4c3-425c-887b-947ec66c89a1&projectId=a0a8f18c-a66e-4ba7-a170-23efbdc67501","73C4B5DBE2AE41128591B97CA1517324-2024-11-24-18-51-29","","null","","images/instructions/movie_2.png","null","",""
"","","","","","image-button-response","14","311345","0.0-6.0-1.0-2.1","73C4B5DBE2AE41128591B97CA1517324","73C4B5DBE2AE41128591B97CA1517324","3f81add8-c4c3-425c-887b-947ec66c89a1","a0a8f18c-a66e-4ba7-a170-23efbdc67501","{""participantId"":""73C4B5DBE2AE41128591B97CA1517324"",""assignmentId"":""3f81add8-c4c3-425c-887b-947ec66c89a1"",""projectId"":""a0a8f18c-a66e-4ba7-a170-23efbdc67501""}","https://test12345.live/?participantId=73C4B5DBE2AE41128591B97CA1517324&assignmentId=3f81add8-c4c3-425c-887b-947ec66c89a1&projectId=a0a8f18c-a66e-4ba7-a170-23efbdc67501","73C4B5DBE2AE41128591B97CA1517324-2024-11-24-18-51-29","","null","","[]","null","",""
"","","","","","image-button-response","15","315860","0.0-6.0-1.0-0.2","73C4B5DBE2AE41128591B97CA1517324","73C4B5DBE2AE41128591B97CA1517324","3f81add8-c4c3-425c-887b-947ec66c89a1","a0a8f18c-a66e-4ba7-a170-23efbdc67501","{""participantId"":""73C4B5DBE2AE41128591B97CA1517324"",""assignmentId"":""3f81add8-c4c3-425c-887b-947ec66c89a1"",""projectId"":""a0a8f18c-a66e-4ba7-a170-23efbdc67501""}","https://test12345.live/?participantId=73C4B5DBE2AE41128591B97CA1517324&assignmentId=3f81add8-c4c3-425c-887b-947ec66c89a1&projectId=a0a8f18c-a66e-4ba7-a170-23efbdc67501","73C4B5DBE2AE41128591B97CA1517324-2024-11-24-18-51-29","","null","","images/instructions/movie_3.png","null","",""
"","","","","","image-button-response","16","317817","0.0-6.0-1.0-1.2","73C4B5DBE2AE41128591B97CA1517324","73C4B5DBE2AE41128591B97CA1517324","3f81add8-c4c3-425c-887b-947ec66c89a1","a0a8f18c-a66e-4ba7-a170-23efbdc67501","{""participantId"":""73C4B5DBE2AE41128591B97CA1517324"",""assignmentId"":""3f81add8-c4c3-425c-887b-947ec66c89a1"",""projectId"":""a0a8f18c-a66e-4ba7-a170-23efbdc67501""}","https://test12345.live/?participantId=73C4B5DBE2AE41128591B97CA1517324&assignmentId=3f81add8-c4c3-425c-887b-947ec66c89a1&projectId=a0a8f18c-a66e-4ba7-a170-23efbdc67501","73C4B5DBE2AE41128591B97CA1517324-2024-11-24-18-51-29","","1956","","images/instructions/movie_3.png","0","",""
"","","","","","image-button-response","17","319626","0.0-6.0-1.0-2.2","73C4B5DBE2AE41128591B97CA1517324","73C4B5DBE2AE41128591B97CA1517324","3f81add8-c4c3-425c-887b-947ec66c89a1","a0a8f18c-a66e-4ba7-a170-23efbdc67501","{""participantId"":""73C4B5DBE2AE41128591B97CA1517324"",""assignmentId"":""3f81add8-c4c3-425c-887b-947ec66c89a1"",""projectId"":""a0a8f18c-a66e-4ba7-a170-23efbdc67501""}","https://test12345.live/?participantId=73C4B5DBE2AE41128591B97CA1517324&assignmentId=3f81add8-c4c3-425c-887b-947ec66c89a1&projectId=a0a8f18c-a66e-4ba7-a170-23efbdc67501","73C4B5DBE2AE41128591B97CA1517324-2024-11-24-18-51-29","","null","","[]","null","",""
"","","","","","image-button-response","18","324135","0.0-6.0-1.0-0.3","73C4B5DBE2AE41128591B97CA1517324","73C4B5DBE2AE41128591B97CA1517324","3f81add8-c4c3-425c-887b-947ec66c89a1","a0a8f18c-a66e-4ba7-a170-23efbdc67501","{""participantId"":""73C4B5DBE2AE41128591B97CA1517324"",""assignmentId"":""3f81add8-c4c3-425c-887b-947ec66c89a1"",""projectId"":""a0a8f18c-a66e-4ba7-a170-23efbdc67501""}","https://test12345.live/?participantId=73C4B5DBE2AE41128591B97CA1517324&assignmentId=3f81add8-c4c3-425c-887b-947ec66c89a1&projectId=a0a8f18c-a66e-4ba7-a170-23efbdc67501","73C4B5DBE2AE41128591B97CA1517324-2024-11-24-18-51-29","","null","","images/instructions/movie_4.png","null","",""
"","","","","","image-button-response","19","326697","0.0-6.0-1.0-1.3","73C4B5DBE2AE41128591B97CA1517324","73C4B5DBE2AE41128591B97CA1517324","3f81add8-c4c3-425c-887b-947ec66c89a1","a0a8f18c-a66e-4ba7-a170-23efbdc67501","{""participantId"":""73C4B5DBE2AE41128591B97CA1517324"",""assignmentId"":""3f81add8-c4c3-425c-887b-947ec66c89a1"",""projectId"":""a0a8f18c-a66e-4ba7-a170-23efbdc67501""}","https://test12345.live/?participantId=73C4B5DBE2AE41128591B97CA1517324&assignmentId=3f81add8-c4c3-425c-887b-947ec66c89a1&projectId=a0a8f18c-a66e-4ba7-a170-23efbdc67501","73C4B5DBE2AE41128591B97CA1517324-2024-11-24-18-51-29","","2561","","images/instructions/movie_4.png","0","",""
"","","","","","image-button-response","20","328502","0.0-6.0-1.0-2.3","73C4B5DBE2AE41128591B97CA1517324","73C4B5DBE2AE41128591B97CA1517324","3f81add8-c4c3-425c-887b-947ec66c89a1","a0a8f18c-a66e-4ba7-a170-23efbdc67501","{""participantId"":""73C4B5DBE2AE41128591B97CA1517324"",""assignmentId"":""3f81add8-c4c3-425c-887b-947ec66c89a1"",""projectId"":""a0a8f18c-a66e-4ba7-a170-23efbdc67501""}","https://test12345.live/?participantId=73C4B5DBE2AE41128591B97CA1517324&assignmentId=3f81add8-c4c3-425c-887b-947ec66c89a1&projectId=a0a8f18c-a66e-4ba7-a170-23efbdc67501","73C4B5DBE2AE41128591B97CA1517324-2024-11-24-18-51-29","","null","","[]","null","",""
"","","","","","instructions","21","387862","0.0-7.0","73C4B5DBE2AE41128591B97CA1517324","73C4B5DBE2AE41128591B97CA1517324","3f81add8-c4c3-425c-887b-947ec66c89a1","a0a8f18c-a66e-4ba7-a170-23efbdc67501","{""participantId"":""73C4B5DBE2AE41128591B97CA1517324"",""assignmentId"":""3f81add8-c4c3-425c-887b-947ec66c89a1"",""projectId"":""a0a8f18c-a66e-4ba7-a170-23efbdc67501""}","https://test12345.live/?participantId=73C4B5DBE2AE41128591B97CA1517324&assignmentId=3f81add8-c4c3-425c-887b-947ec66c89a1&projectId=a0a8f18c-a66e-4ba7-a170-23efbdc67501","73C4B5DBE2AE41128591B97CA1517324-2024-11-24-18-51-29","[{""page_index"":0,""viewing_time"":45374},{""page_index"":1,""viewing_time"":13985}]","59359","","","","",""
"","","","","","html-audio-response","22","528037","0.0-8.0","73C4B5DBE2AE41128591B97CA1517324","73C4B5DBE2AE41128591B97CA1517324","3f81add8-c4c3-425c-887b-947ec66c89a1","a0a8f18c-a66e-4ba7-a170-23efbdc67501","{""participantId"":""73C4B5DBE2AE41128591B97CA1517324"",""assignmentId"":""3f81add8-c4c3-425c-887b-947ec66c89a1"",""projectId"":""a0a8f18c-a66e-4ba7-a170-23efbdc67501""}","https://test12345.live/?participantId=73C4B5DBE2AE41128591B97CA1517324&assignmentId=3f81add8-c4c3-425c-887b-947ec66c89a1&projectId=a0a8f18c-a66e-4ba7-a170-23efbdc67501","73C4B5DBE2AE41128591B97CA1517324-2024-11-24-18-51-29","","39562","","[""<span style=\""color: red; font-size: 24px\""> NOW RECORDING</span><p>Please say out loud all the images you saw, as many as you can remember. The images can be said in any order.</p>""]","","10",""
"","","","","","instructions","23","532711","0.0-9.0","73C4B5DBE2AE41128591B97CA1517324","73C4B5DBE2AE41128591B97CA1517324","3f81add8-c4c3-425c-887b-947ec66c89a1","a0a8f18c-a66e-4ba7-a170-23efbdc67501","{""participantId"":""73C4B5DBE2AE41128591B97CA1517324"",""assignmentId"":""3f81add8-c4c3-425c-887b-947ec66c89a1"",""projectId"":""a0a8f18c-a66e-4ba7-a170-23efbdc67501""}","https://test12345.live/?participantId=73C4B5DBE2AE41128591B97CA1517324&assignmentId=3f81add8-c4c3-425c-887b-947ec66c89a1&projectId=a0a8f18c-a66e-4ba7-a170-23efbdc67501","73C4B5DBE2AE41128591B97CA1517324-2024-11-24-18-51-29","[{""page_index"":0,""viewing_time"":4653}]","4654","","","","",""
"","","","","","image-button-response","24","538716","0.0-10.0-0.0","73C4B5DBE2AE41128591B97CA1517324","73C4B5DBE2AE41128591B97CA1517324","3f81add8-c4c3-425c-887b-947ec66c89a1","a0a8f18c-a66e-4ba7-a170-23efbdc67501","{""participantId"":""73C4B5DBE2AE41128591B97CA1517324"",""assignmentId"":""3f81add8-c4c3-425c-887b-947ec66c89a1"",""projectId"":""a0a8f18c-a66e-4ba7-a170-23efbdc67501""}","https://test12345.live/?participantId=73C4B5DBE2AE41128591B97CA1517324&assignmentId=3f81add8-c4c3-425c-887b-947ec66c89a1&projectId=a0a8f18c-a66e-4ba7-a170-23efbdc67501","73C4B5DBE2AE41128591B97CA1517324-2024-11-24-18-51-29","","null","","images/causal_sequence/dog_causal/dog_causal_0.png","null","",""
"","","","","","image-button-response","25","543233","0.0-10.0-1.0-0.0","73C4B5DBE2AE41128591B97CA1517324","73C4B5DBE2AE41128591B97CA1517324","3f81add8-c4c3-425c-887b-947ec66c89a1","a0a8f18c-a66e-4ba7-a170-23efbdc67501","{""participantId"":""73C4B5DBE2AE41128591B97CA1517324"",""assignmentId"":""3f81add8-c4c3-425c-887b-947ec66c89a1"",""projectId"":""a0a8f18c-a66e-4ba7-a170-23efbdc67501""}","https://test12345.live/?participantId=73C4B5DBE2AE41128591B97CA1517324&assignmentId=3f81add8-c4c3-425c-887b-947ec66c89a1&projectId=a0a8f18c-a66e-4ba7-a170-23efbdc67501","73C4B5DBE2AE41128591B97CA1517324-2024-11-24-18-51-29","","null","","images/causal_sequence/dog_causal/dog_causal_1.png","null","",""
"","","","","","image-button-response","26","545466","0.0-10.0-1.0-1.0","73C4B5DBE2AE41128591B97CA1517324","73C4B5DBE2AE41128591B97CA1517324","3f81add8-c4c3-425c-887b-947ec66c89a1","a0a8f18c-a66e-4ba7-a170-23efbdc67501","{""participantId"":""73C4B5DBE2AE41128591B97CA1517324"",""assignmentId"":""3f81add8-c4c3-425c-887b-947ec66c89a1"",""projectId"":""a0a8f18c-a66e-4ba7-a170-23efbdc67501""}","https://test12345.live/?participantId=73C4B5DBE2AE41128591B97CA1517324&assignmentId=3f81add8-c4c3-425c-887b-947ec66c89a1&projectId=a0a8f18c-a66e-4ba7-a170-23efbdc67501","73C4B5DBE2AE41128591B97CA1517324-2024-11-24-18-51-29","","2230","","images/causal_sequence/dog_causal/dog_causal_1.png","0","",""
"","","","","","image-button-response","27","547275","0.0-10.0-1.0-2.0","73C4B5DBE2AE41128591B97CA1517324","73C4B5DBE2AE41128591B97CA1517324","3f81add8-c4c3-425c-887b-947ec66c89a1","a0a8f18c-a66e-4ba7-a170-23efbdc67501","{""participantId"":""73C4B5DBE2AE41128591B97CA1517324"",""assignmentId"":""3f81add8-c4c3-425c-887b-947ec66c89a1"",""projectId"":""a0a8f18c-a66e-4ba7-a170-23efbdc67501""}","https://test12345.live/?participantId=73C4B5DBE2AE41128591B97CA1517324&assignmentId=3f81add8-c4c3-425c-887b-947ec66c89a1&projectId=a0a8f18c-a66e-4ba7-a170-23efbdc67501","73C4B5DBE2AE41128591B97CA1517324-2024-11-24-18-51-29","","null","","[]","null","",""
"","","","","","image-button-response","28","551790","0.0-10.0-1.0-0.1","73C4B5DBE2AE41128591B97CA1517324","73C4B5DBE2AE41128591B97CA1517324","3f81add8-c4c3-425c-887b-947ec66c89a1","a0a8f18c-a66e-4ba7-a170-23efbdc67501","{""participantId"":""73C4B5DBE2AE41128591B97CA1517324"",""assignmentId"":""3f81add8-c4c3-425c-887b-947ec66c89a1"",""projectId"":""a0a8f18c-a66e-4ba7-a170-23efbdc67501""}","https://test12345.live/?participantId=73C4B5DBE2AE41128591B97CA1517324&assignmentId=3f81add8-c4c3-425c-887b-947ec66c89a1&projectId=a0a8f18c-a66e-4ba7-a170-23efbdc67501","73C4B5DBE2AE41128591B97CA1517324-2024-11-24-18-51-29","","null","","images/causal_sequence/dog_causal/dog_causal_2.png","null","",""
"","","","","","image-button-response","29","555712","0.0-10.0-1.0-1.1","73C4B5DBE2AE41128591B97CA1517324","73C4B5DBE2AE41128591B97CA1517324","3f81add8-c4c3-425c-887b-947ec66c89a1","a0a8f18c-a66e-4ba7-a170-23efbdc67501","{""participantId"":""73C4B5DBE2AE41128591B97CA1517324"",""assignmentId"":""3f81add8-c4c3-425c-887b-947ec66c89a1"",""projectId"":""a0a8f18c-a66e-4ba7-a170-23efbdc67501""}","https://test12345.live/?participantId=73C4B5DBE2AE41128591B97CA1517324&assignmentId=3f81add8-c4c3-425c-887b-947ec66c89a1&projectId=a0a8f18c-a66e-4ba7-a170-23efbdc67501","73C4B5DBE2AE41128591B97CA1517324-2024-11-24-18-51-29","","3919","","images/causal_sequence/dog_causal/dog_causal_2.png","0","",""
"","","","","","image-button-response","30","557519","0.0-10.0-1.0-2.1","73C4B5DBE2AE41128591B97CA1517324","73C4B5DBE2AE41128591B97CA1517324","3f81add8-c4c3-425c-887b-947ec66c89a1","a0a8f18c-a66e-4ba7-a170-23efbdc67501","{""participantId"":""73C4B5DBE2AE41128591B97CA1517324"",""assignmentId"":""3f81add8-c4c3-425c-887b-947ec66c89a1"",""projectId"":""a0a8f18c-a66e-4ba7-a170-23efbdc67501""}","https://test12345.live/?participantId=73C4B5DBE2AE41128591B97CA1517324&assignmentId=3f81add8-c4c3-425c-887b-947ec66c89a1&projectId=a0a8f18c-a66e-4ba7-a170-23efbdc67501","73C4B5DBE2AE41128591B97CA1517324-2024-11-24-18-51-29","","null","","[]","null","",""
"","","","","","image-button-response","31","562032","0.0-10.0-1.0-0.2","73C4B5DBE2AE41128591B97CA1517324","73C4B5DBE2AE41128591B97CA1517324","3f81add8-c4c3-425c-887b-947ec66c89a1","a0a8f18c-a66e-4ba7-a170-23efbdc67501","{""participantId"":""73C4B5DBE2AE41128591B97CA1517324"",""assignmentId"":""3f81add8-c4c3-425c-887b-947ec66c89a1"",""projectId"":""a0a8f18c-a66e-4ba7-a170-23efbdc67501""}","https://test12345.live/?participantId=73C4B5DBE2AE41128591B97CA1517324&assignmentId=3f81add8-c4c3-425c-887b-947ec66c89a1&projectId=a0a8f18c-a66e-4ba7-a170-23efbdc67501","73C4B5DBE2AE41128591B97CA1517324-2024-11-24-18-51-29","","null","","images/causal_sequence/dog_causal/dog_causal_3.png","null","",""
"","","","","","image-button-response","32","564033","0.0-10.0-1.0-1.2","73C4B5DBE2AE41128591B97CA1517324","73C4B5DBE2AE41128591B97CA1517324","3f81add8-c4c3-425c-887b-947ec66c89a1","a0a8f18c-a66e-4ba7-a170-23efbdc67501","{""participantId"":""73C4B5DBE2AE41128591B97CA1517324"",""assignmentId"":""3f81add8-c4c3-425c-887b-947ec66c89a1"",""projectId"":""a0a8f18c-a66e-4ba7-a170-23efbdc67501""}","https://test12345.live/?participantId=73C4B5DBE2AE41128591B97CA1517324&assignmentId=3f81add8-c4c3-425c-887b-947ec66c89a1&projectId=a0a8f18c-a66e-4ba7-a170-23efbdc67501","73C4B5DBE2AE41128591B97CA1517324-2024-11-24-18-51-29","","1997","","images/causal_sequence/dog_causal/dog_causal_3.png","0","",""
"","","","","","image-button-response","33","565849","0.0-10.0-1.0-2.2","73C4B5DBE2AE41128591B97CA1517324","73C4B5DBE2AE41128591B97CA1517324","3f81add8-c4c3-425c-887b-947ec66c89a1","a0a8f18c-a66e-4ba7-a170-23efbdc67501","{""participantId"":""73C4B5DBE2AE41128591B97CA1517324"",""assignmentId"":""3f81add8-c4c3-425c-887b-947ec66c89a1"",""projectId"":""a0a8f18c-a66e-4ba7-a170-23efbdc67501""}","https://test12345.live/?participantId=73C4B5DBE2AE41128591B97CA1517324&assignmentId=3f81add8-c4c3-425c-887b-947ec66c89a1&projectId=a0a8f18c-a66e-4ba7-a170-23efbdc67501","73C4B5DBE2AE41128591B97CA1517324-2024-11-24-18-51-29","","null","","[]","null","",""
"","","","","","image-button-response","34","570356","0.0-10.0-1.0-0.3","73C4B5DBE2AE41128591B97CA1517324","73C4B5DBE2AE41128591B97CA1517324","3f81add8-c4c3-425c-887b-947ec66c89a1","a0a8f18c-a66e-4ba7-a170-23efbdc67501","{""participantId"":""73C4B5DBE2AE41128591B97CA1517324"",""assignmentId"":""3f81add8-c4c3-425c-887b-947ec66c89a1"",""projectId"":""a0a8f18c-a66e-4ba7-a170-23efbdc67501""}","https://test12345.live/?participantId=73C4B5DBE2AE41128591B97CA1517324&assignmentId=3f81add8-c4c3-425c-887b-947ec66c89a1&projectId=a0a8f18c-a66e-4ba7-a170-23efbdc67501","73C4B5DBE2AE41128591B97CA1517324-2024-11-24-18-51-29","","null","","images/causal_sequence/dog_causal/dog_causal_4.png","null","",""
"","","","","","image-button-response","35","572762","0.0-10.0-1.0-1.3","73C4B5DBE2AE41128591B97CA1517324","73C4B5DBE2AE41128591B97CA1517324","3f81add8-c4c3-425c-887b-947ec66c89a1","a0a8f18c-a66e-4ba7-a170-23efbdc67501","{""participantId"":""73C4B5DBE2AE41128591B97CA1517324"",""assignmentId"":""3f81add8-c4c3-425c-887b-947ec66c89a1"",""projectId"":""a0a8f18c-a66e-4ba7-a170-23efbdc67501""}","https://test12345.live/?participantId=73C4B5DBE2AE41128591B97CA1517324&assignmentId=3f81add8-c4c3-425c-887b-947ec66c89a1&projectId=a0a8f18c-a66e-4ba7-a170-23efbdc67501","73C4B5DBE2AE41128591B97CA1517324-2024-11-24-18-51-29","","2403","","images/causal_sequence/dog_causal/dog_causal_4.png","0","",""
"","","","","","image-button-response","36","574567","0.0-10.0-1.0-2.3","73C4B5DBE2AE41128591B97CA1517324","73C4B5DBE2AE41128591B97CA1517324","3f81add8-c4c3-425c-887b-947ec66c89a1","a0a8f18c-a66e-4ba7-a170-23efbdc67501","{""participantId"":""73C4B5DBE2AE41128591B97CA1517324"",""assignmentId"":""3f81add8-c4c3-425c-887b-947ec66c89a1"",""projectId"":""a0a8f18c-a66e-4ba7-a170-23efbdc67501""}","https://test12345.live/?participantId=73C4B5DBE2AE41128591B97CA1517324&assignmentId=3f81add8-c4c3-425c-887b-947ec66c89a1&projectId=a0a8f18c-a66e-4ba7-a170-23efbdc67501","73C4B5DBE2AE41128591B97CA1517324-2024-11-24-18-51-29","","null","","[]","null","",""
"","","","","","image-button-response","37","579075","0.0-10.0-1.0-0.4","73C4B5DBE2AE41128591B97CA1517324","73C4B5DBE2AE41128591B97CA1517324","3f81add8-c4c3-425c-887b-947ec66c89a1","a0a8f18c-a66e-4ba7-a170-23efbdc67501","{""participantId"":""73C4B5DBE2AE41128591B97CA1517324"",""assignmentId"":""3f81add8-c4c3-425c-887b-947ec66c89a1"",""projectId"":""a0a8f18c-a66e-4ba7-a170-23efbdc67501""}","https://test12345.live/?participantId=73C4B5DBE2AE41128591B97CA1517324&assignmentId=3f81add8-c4c3-425c-887b-947ec66c89a1&projectId=a0a8f18c-a66e-4ba7-a170-23efbdc67501","73C4B5DBE2AE41128591B97CA1517324-2024-11-24-18-51-29","","null","","images/causal_sequence/dog_causal/dog_causal_5.png","null","",""
"","","","","","image-button-response","38","582202","0.0-10.0-1.0-1.4","73C4B5DBE2AE41128591B97CA1517324","73C4B5DBE2AE41128591B97CA1517324","3f81add8-c4c3-425c-887b-947ec66c89a1","a0a8f18c-a66e-4ba7-a170-23efbdc67501","{""participantId"":""73C4B5DBE2AE41128591B97CA1517324"",""assignmentId"":""3f81add8-c4c3-425c-887b-947ec66c89a1"",""projectId"":""a0a8f18c-a66e-4ba7-a170-23efbdc67501""}","https://test12345.live/?participantId=73C4B5DBE2AE41128591B97CA1517324&assignmentId=3f81add8-c4c3-425c-887b-947ec66c89a1&projectId=a0a8f18c-a66e-4ba7-a170-23efbdc67501","73C4B5DBE2AE41128591B97CA1517324-2024-11-24-18-51-29","","3123","","images/causal_sequence/dog_causal/dog_causal_5.png","0","",""
"","","","","","image-button-response","39","584007","0.0-10.0-1.0-2.4","73C4B5DBE2AE41128591B97CA1517324","73C4B5DBE2AE41128591B97CA1517324","3f81add8-c4c3-425c-887b-947ec66c89a1","a0a8f18c-a66e-4ba7-a170-23efbdc67501","{""participantId"":""73C4B5DBE2AE41128591B97CA1517324"",""assignmentId"":""3f81add8-c4c3-425c-887b-947ec66c89a1"",""projectId"":""a0a8f18c-a66e-4ba7-a170-23efbdc67501""}","https://test12345.live/?participantId=73C4B5DBE2AE41128591B97CA1517324&assignmentId=3f81add8-c4c3-425c-887b-947ec66c89a1&projectId=a0a8f18c-a66e-4ba7-a170-23efbdc67501","73C4B5DBE2AE41128591B97CA1517324-2024-11-24-18-51-29","","null","","[]","null","",""
"","","","","","image-button-response","40","588524","0.0-10.0-1.0-0.5","73C4B5DBE2AE41128591B97CA1517324","73C4B5DBE2AE41128591B97CA1517324","3f81add8-c4c3-425c-887b-947ec66c89a1","a0a8f18c-a66e-4ba7-a170-23efbdc67501","{""participantId"":""73C4B5DBE2AE41128591B97CA1517324"",""assignmentId"":""3f81add8-c4c3-425c-887b-947ec66c89a1"",""projectId"":""a0a8f18c-a66e-4ba7-a170-23efbdc67501""}","https://test12345.live/?participantId=73C4B5DBE2AE41128591B97CA1517324&assignmentId=3f81add8-c4c3-425c-887b-947ec66c89a1&projectId=a0a8f18c-a66e-4ba7-a170-23efbdc67501","73C4B5DBE2AE41128591B97CA1517324-2024-11-24-18-51-29","","null","","images/causal_sequence/dog_causal/dog_causal_6.png","null","",""
"","","","","","image-button-response","41","590795","0.0-10.0-1.0-1.5","73C4B5DBE2AE41128591B97CA1517324","73C4B5DBE2AE41128591B97CA1517324","3f81add8-c4c3-425c-887b-947ec66c89a1","a0a8f18c-a66e-4ba7-a170-23efbdc67501","{""participantId"":""73C4B5DBE2AE41128591B97CA1517324"",""assignmentId"":""3f81add8-c4c3-425c-887b-947ec66c89a1"",""projectId"":""a0a8f18c-a66e-4ba7-a170-23efbdc67501""}","https://test12345.live/?participantId=73C4B5DBE2AE41128591B97CA1517324&assignmentId=3f81add8-c4c3-425c-887b-947ec66c89a1&projectId=a0a8f18c-a66e-4ba7-a170-23efbdc67501","73C4B5DBE2AE41128591B97CA1517324-2024-11-24-18-51-29","","2268","","images/causal_sequence/dog_causal/dog_causal_6.png","0","",""
"","","","","","image-button-response","42","592600","0.0-10.0-1.0-2.5","73C4B5DBE2AE41128591B97CA1517324","73C4B5DBE2AE41128591B97CA1517324","3f81add8-c4c3-425c-887b-947ec66c89a1","a0a8f18c-a66e-4ba7-a170-23efbdc67501","{""participantId"":""73C4B5DBE2AE41128591B97CA1517324"",""assignmentId"":""3f81add8-c4c3-425c-887b-947ec66c89a1"",""projectId"":""a0a8f18c-a66e-4ba7-a170-23efbdc67501""}","https://test12345.live/?participantId=73C4B5DBE2AE41128591B97CA1517324&assignmentId=3f81add8-c4c3-425c-887b-947ec66c89a1&projectId=a0a8f18c-a66e-4ba7-a170-23efbdc67501","73C4B5DBE2AE41128591B97CA1517324-2024-11-24-18-51-29","","null","","[]","null","",""
"","","","","","image-button-response","43","597114","0.0-10.0-1.0-0.6","73C4B5DBE2AE41128591B97CA1517324","73C4B5DBE2AE41128591B97CA1517324","3f81add8-c4c3-425c-887b-947ec66c89a1","a0a8f18c-a66e-4ba7-a170-23efbdc67501","{""participantId"":""73C4B5DBE2AE41128591B97CA1517324"",""assignmentId"":""3f81add8-c4c3-425c-887b-947ec66c89a1"",""projectId"":""a0a8f18c-a66e-4ba7-a170-23efbdc67501""}","https://test12345.live/?participantId=73C4B5DBE2AE41128591B97CA1517324&assignmentId=3f81add8-c4c3-425c-887b-947ec66c89a1&projectId=a0a8f18c-a66e-4ba7-a170-23efbdc67501","73C4B5DBE2AE41128591B97CA1517324-2024-11-24-18-51-29","","null","","images/causal_sequence/dog_causal/dog_causal_7.png","null","",""
"","","","","","image-button-response","44","600963","0.0-10.0-1.0-1.6","73C4B5DBE2AE41128591B97CA1517324","73C4B5DBE2AE41128591B97CA1517324","3f81add8-c4c3-425c-887b-947ec66c89a1","a0a8f18c-a66e-4ba7-a170-23efbdc67501","{""participantId"":""73C4B5DBE2AE41128591B97CA1517324"",""assignmentId"":""3f81add8-c4c3-425c-887b-947ec66c89a1"",""projectId"":""a0a8f18c-a66e-4ba7-a170-23efbdc67501""}","https://test12345.live/?participantId=73C4B5DBE2AE41128591B97CA1517324&assignmentId=3f81add8-c4c3-425c-887b-947ec66c89a1&projectId=a0a8f18c-a66e-4ba7-a170-23efbdc67501","73C4B5DBE2AE41128591B97CA1517324-2024-11-24-18-51-29","","3846","","images/causal_sequence/dog_causal/dog_causal_7.png","0","",""
"","","","","","image-button-response","45","602769","0.0-10.0-1.0-2.6","73C4B5DBE2AE41128591B97CA1517324","73C4B5DBE2AE41128591B97CA1517324","3f81add8-c4c3-425c-887b-947ec66c89a1","a0a8f18c-a66e-4ba7-a170-23efbdc67501","{""participantId"":""73C4B5DBE2AE41128591B97CA1517324"",""assignmentId"":""3f81add8-c4c3-425c-887b-947ec66c89a1"",""projectId"":""a0a8f18c-a66e-4ba7-a170-23efbdc67501""}","https://test12345.live/?participantId=73C4B5DBE2AE41128591B97CA1517324&assignmentId=3f81add8-c4c3-425c-887b-947ec66c89a1&projectId=a0a8f18c-a66e-4ba7-a170-23efbdc67501","73C4B5DBE2AE41128591B97CA1517324-2024-11-24-18-51-29","","null","","[]","null","",""
"","","","","","image-button-response","46","607277","0.0-10.0-1.0-0.7","73C4B5DBE2AE41128591B97CA1517324","73C4B5DBE2AE41128591B97CA1517324","3f81add8-c4c3-425c-887b-947ec66c89a1","a0a8f18c-a66e-4ba7-a170-23efbdc67501","{""participantId"":""73C4B5DBE2AE41128591B97CA1517324"",""assignmentId"":""3f81add8-c4c3-425c-887b-947ec66c89a1"",""projectId"":""a0a8f18c-a66e-4ba7-a170-23efbdc67501""}","https://test12345.live/?participantId=73C4B5DBE2AE41128591B97CA1517324&assignmentId=3f81add8-c4c3-425c-887b-947ec66c89a1&projectId=a0a8f18c-a66e-4ba7-a170-23efbdc67501","73C4B5DBE2AE41128591B97CA1517324-2024-11-24-18-51-29","","null","","images/causal_sequence/dog_causal/dog_causal_8.png","null","",""
"","","","","","image-button-response","47","609605","0.0-10.0-1.0-1.7","73C4B5DBE2AE41128591B97CA1517324","73C4B5DBE2AE41128591B97CA1517324","3f81add8-c4c3-425c-887b-947ec66c89a1","a0a8f18c-a66e-4ba7-a170-23efbdc67501","{""participantId"":""73C4B5DBE2AE41128591B97CA1517324"",""assignmentId"":""3f81add8-c4c3-425c-887b-947ec66c89a1"",""projectId"":""a0a8f18c-a66e-4ba7-a170-23efbdc67501""}","https://test12345.live/?participantId=73C4B5DBE2AE41128591B97CA1517324&assignmentId=3f81add8-c4c3-425c-887b-947ec66c89a1&projectId=a0a8f18c-a66e-4ba7-a170-23efbdc67501","73C4B5DBE2AE41128591B97CA1517324-2024-11-24-18-51-29","","2326","","images/causal_sequence/dog_causal/dog_causal_8.png","0","",""
"","","","","","image-button-response","48","611420","0.0-10.0-1.0-2.7","73C4B5DBE2AE41128591B97CA1517324","73C4B5DBE2AE41128591B97CA1517324","3f81add8-c4c3-425c-887b-947ec66c89a1","a0a8f18c-a66e-4ba7-a170-23efbdc67501","{""participantId"":""73C4B5DBE2AE41128591B97CA1517324"",""assignmentId"":""3f81add8-c4c3-425c-887b-947ec66c89a1"",""projectId"":""a0a8f18c-a66e-4ba7-a170-23efbdc67501""}","https://test12345.live/?participantId=73C4B5DBE2AE41128591B97CA1517324&assignmentId=3f81add8-c4c3-425c-887b-947ec66c89a1&projectId=a0a8f18c-a66e-4ba7-a170-23efbdc67501","73C4B5DBE2AE41128591B97CA1517324-2024-11-24-18-51-29","","null","","[]","null","",""
"","","","","","image-button-response","49","615934","0.0-10.0-1.0-0.8","73C4B5DBE2AE41128591B97CA1517324","73C4B5DBE2AE41128591B97CA1517324","3f81add8-c4c3-425c-887b-947ec66c89a1","a0a8f18c-a66e-4ba7-a170-23efbdc67501","{""participantId"":""73C4B5DBE2AE41128591B97CA1517324"",""assignmentId"":""3f81add8-c4c3-425c-887b-947ec66c89a1"",""projectId"":""a0a8f18c-a66e-4ba7-a170-23efbdc67501""}","https://test12345.live/?participantId=73C4B5DBE2AE41128591B97CA1517324&assignmentId=3f81add8-c4c3-425c-887b-947ec66c89a1&projectId=a0a8f18c-a66e-4ba7-a170-23efbdc67501","73C4B5DBE2AE41128591B97CA1517324-2024-11-24-18-51-29","","null","","images/causal_sequence/dog_causal/dog_causal_9.png","null","",""
"","","","","","image-button-response","50","618033","0.0-10.0-1.0-1.8","73C4B5DBE2AE41128591B97CA1517324","73C4B5DBE2AE41128591B97CA1517324","3f81add8-c4c3-425c-887b-947ec66c89a1","a0a8f18c-a66e-4ba7-a170-23efbdc67501","{""participantId"":""73C4B5DBE2AE41128591B97CA1517324"",""assignmentId"":""3f81add8-c4c3-425c-887b-947ec66c89a1"",""projectId"":""a0a8f18c-a66e-4ba7-a170-23efbdc67501""}","https://test12345.live/?participantId=73C4B5DBE2AE41128591B97CA1517324&assignmentId=3f81add8-c4c3-425c-887b-947ec66c89a1&projectId=a0a8f18c-a66e-4ba7-a170-23efbdc67501","73C4B5DBE2AE41128591B97CA1517324-2024-11-24-18-51-29","","2096","","images/causal_sequence/dog_causal/dog_causal_9.png","0","",""
"","","","","","image-button-response","51","619839","0.0-10.0-1.0-2.8","73C4B5DBE2AE41128591B97CA1517324","73C4B5DBE2AE41128591B97CA1517324","3f81add8-c4c3-425c-887b-947ec66c89a1","a0a8f18c-a66e-4ba7-a170-23efbdc67501","{""participantId"":""73C4B5DBE2AE41128591B97CA1517324"",""assignmentId"":""3f81add8-c4c3-425c-887b-947ec66c89a1"",""projectId"":""a0a8f18c-a66e-4ba7-a170-23efbdc67501""}","https://test12345.live/?participantId=73C4B5DBE2AE41128591B97CA1517324&assignmentId=3f81add8-c4c3-425c-887b-947ec66c89a1&projectId=a0a8f18c-a66e-4ba7-a170-23efbdc67501","73C4B5DBE2AE41128591B97CA1517324-2024-11-24-18-51-29","","null","","[]","null","",""
"","","","","","image-button-response","52","624345","0.0-10.0-1.0-0.9","73C4B5DBE2AE41128591B97CA1517324","73C4B5DBE2AE41128591B97CA1517324","3f81add8-c4c3-425c-887b-947ec66c89a1","a0a8f18c-a66e-4ba7-a170-23efbdc67501","{""participantId"":""73C4B5DBE2AE41128591B97CA1517324"",""assignmentId"":""3f81add8-c4c3-425c-887b-947ec66c89a1"",""projectId"":""a0a8f18c-a66e-4ba7-a170-23efbdc67501""}","https://test12345.live/?participantId=73C4B5DBE2AE41128591B97CA1517324&assignmentId=3f81add8-c4c3-425c-887b-947ec66c89a1&projectId=a0a8f18c-a66e-4ba7-a170-23efbdc67501","73C4B5DBE2AE41128591B97CA1517324-2024-11-24-18-51-29","","null","","images/causal_sequence/dog_causal/dog_causal_ten.png","null","",""
"","","","","","image-button-response","53","626490","0.0-10.0-1.0-1.9","73C4B5DBE2AE41128591B97CA1517324","73C4B5DBE2AE41128591B97CA1517324","3f81add8-c4c3-425c-887b-947ec66c89a1","a0a8f18c-a66e-4ba7-a170-23efbdc67501","{""participantId"":""73C4B5DBE2AE41128591B97CA1517324"",""assignmentId"":""3f81add8-c4c3-425c-887b-947ec66c89a1"",""projectId"":""a0a8f18c-a66e-4ba7-a170-23efbdc67501""}","https://test12345.live/?participantId=73C4B5DBE2AE41128591B97CA1517324&assignmentId=3f81add8-c4c3-425c-887b-947ec66c89a1&projectId=a0a8f18c-a66e-4ba7-a170-23efbdc67501","73C4B5DBE2AE41128591B97CA1517324-2024-11-24-18-51-29","","2142","","images/causal_sequence/dog_causal/dog_causal_ten.png","0","",""
"","","","","","image-button-response","54","628295","0.0-10.0-1.0-2.9","73C4B5DBE2AE41128591B97CA1517324","73C4B5DBE2AE41128591B97CA1517324","3f81add8-c4c3-425c-887b-947ec66c89a1","a0a8f18c-a66e-4ba7-a170-23efbdc67501","{""participantId"":""73C4B5DBE2AE41128591B97CA1517324"",""assignmentId"":""3f81add8-c4c3-425c-887b-947ec66c89a1"",""projectId"":""a0a8f18c-a66e-4ba7-a170-23efbdc67501""}","https://test12345.live/?participantId=73C4B5DBE2AE41128591B97CA1517324&assignmentId=3f81add8-c4c3-425c-887b-947ec66c89a1&projectId=a0a8f18c-a66e-4ba7-a170-23efbdc67501","73C4B5DBE2AE41128591B97CA1517324-2024-11-24-18-51-29","","null","","[]","null","",""
"","","","","","html-audio-response","55","828109","0.0-11.0","73C4B5DBE2AE41128591B97CA1517324","73C4B5DBE2AE41128591B97CA1517324","3f81add8-c4c3-425c-887b-947ec66c89a1","a0a8f18c-a66e-4ba7-a170-23efbdc67501","{""participantId"":""73C4B5DBE2AE41128591B97CA1517324"",""assignmentId"":""3f81add8-c4c3-425c-887b-947ec66c89a1"",""projectId"":""a0a8f18c-a66e-4ba7-a170-23efbdc67501""}","https://test12345.live/?participantId=73C4B5DBE2AE41128591B97CA1517324&assignmentId=3f81add8-c4c3-425c-887b-947ec66c89a1&projectId=a0a8f18c-a66e-4ba7-a170-23efbdc67501","73C4B5DBE2AE41128591B97CA1517324-2024-11-24-18-51-29","","17589","","[""<span style=\""color: red; font-size: 24px\""> NOW RECORDING</span><p>Please say out loud all the images you saw, as many as you can remember. The images can be said in any order.</p>""]","","7","dog_causal"
"","","","","","image-button-response","56","834122","0.0-12.0-0.0","73C4B5DBE2AE41128591B97CA1517324","73C4B5DBE2AE41128591B97CA1517324","3f81add8-c4c3-425c-887b-947ec66c89a1","a0a8f18c-a66e-4ba7-a170-23efbdc67501","{""participantId"":""73C4B5DBE2AE41128591B97CA1517324"",""assignmentId"":""3f81add8-c4c3-425c-887b-947ec66c89a1"",""projectId"":""a0a8f18c-a66e-4ba7-a170-23efbdc67501""}","https://test12345.live/?participantId=73C4B5DBE2AE41128591B97CA1517324&assignmentId=3f81add8-c4c3-425c-887b-947ec66c89a1&projectId=a0a8f18c-a66e-4ba7-a170-23efbdc67501","73C4B5DBE2AE41128591B97CA1517324-2024-11-24-18-51-29","","null","","images/causal_sequence/museum_causal/museum_causal_0.png","null","",""
"","","","","","image-button-response","57","838637","0.0-12.0-1.0-0.0","73C4B5DBE2AE41128591B97CA1517324","73C4B5DBE2AE41128591B97CA1517324","3f81add8-c4c3-425c-887b-947ec66c89a1","a0a8f18c-a66e-4ba7-a170-23efbdc67501","{""participantId"":""73C4B5DBE2AE41128591B97CA1517324"",""assignmentId"":""3f81add8-c4c3-425c-887b-947ec66c89a1"",""projectId"":""a0a8f18c-a66e-4ba7-a170-23efbdc67501""}","https://test12345.live/?participantId=73C4B5DBE2AE41128591B97CA1517324&assignmentId=3f81add8-c4c3-425c-887b-947ec66c89a1&projectId=a0a8f18c-a66e-4ba7-a170-23efbdc67501","73C4B5DBE2AE41128591B97CA1517324-2024-11-24-18-51-29","","null","","images/causal_sequence/museum_causal/museum_causal_1.png","null","",""
"","","","","","image-button-response","58","841562","0.0-12.0-1.0-1.0","73C4B5DBE2AE41128591B97CA1517324","73C4B5DBE2AE41128591B97CA1517324","3f81add8-c4c3-425c-887b-947ec66c89a1","a0a8f18c-a66e-4ba7-a170-23efbdc67501","{""participantId"":""73C4B5DBE2AE41128591B97CA1517324"",""assignmentId"":""3f81add8-c4c3-425c-887b-947ec66c89a1"",""projectId"":""a0a8f18c-a66e-4ba7-a170-23efbdc67501""}","https://test12345.live/?participantId=73C4B5DBE2AE41128591B97CA1517324&assignmentId=3f81add8-c4c3-425c-887b-947ec66c89a1&projectId=a0a8f18c-a66e-4ba7-a170-23efbdc67501","73C4B5DBE2AE41128591B97CA1517324-2024-11-24-18-51-29","","2921","","images/causal_sequence/museum_causal/museum_causal_1.png","0","",""
"","","","","","image-button-response","59","843373","0.0-12.0-1.0-2.0","73C4B5DBE2AE41128591B97CA1517324","73C4B5DBE2AE41128591B97CA1517324","3f81add8-c4c3-425c-887b-947ec66c89a1","a0a8f18c-a66e-4ba7-a170-23efbdc67501","{""participantId"":""73C4B5DBE2AE41128591B97CA1517324"",""assignmentId"":""3f81add8-c4c3-425c-887b-947ec66c89a1"",""projectId"":""a0a8f18c-a66e-4ba7-a170-23efbdc67501""}","https://test12345.live/?participantId=73C4B5DBE2AE41128591B97CA1517324&assignmentId=3f81add8-c4c3-425c-887b-947ec66c89a1&projectId=a0a8f18c-a66e-4ba7-a170-23efbdc67501","73C4B5DBE2AE41128591B97CA1517324-2024-11-24-18-51-29","","null","","[]","null","",""
"","","","","","image-button-response","60","847880","0.0-12.0-1.0-0.1","73C4B5DBE2AE41128591B97CA1517324","73C4B5DBE2AE41128591B97CA1517324","3f81add8-c4c3-425c-887b-947ec66c89a1","a0a8f18c-a66e-4ba7-a170-23efbdc67501","{""participantId"":""73C4B5DBE2AE41128591B97CA1517324"",""assignmentId"":""3f81add8-c4c3-425c-887b-947ec66c89a1"",""projectId"":""a0a8f18c-a66e-4ba7-a170-23efbdc67501""}","https://test12345.live/?participantId=73C4B5DBE2AE41128591B97CA1517324&assignmentId=3f81add8-c4c3-425c-887b-947ec66c89a1&projectId=a0a8f18c-a66e-4ba7-a170-23efbdc67501","73C4B5DBE2AE41128591B97CA1517324-2024-11-24-18-51-29","","null","","images/causal_sequence/museum_causal/museum_causal_2.png","null","",""
"","","","","","image-button-response","61","849620","0.0-12.0-1.0-1.1","73C4B5DBE2AE41128591B97CA1517324","73C4B5DBE2AE41128591B97CA1517324","3f81add8-c4c3-425c-887b-947ec66c89a1","a0a8f18c-a66e-4ba7-a170-23efbdc67501","{""participantId"":""73C4B5DBE2AE41128591B97CA1517324"",""assignmentId"":""3f81add8-c4c3-425c-887b-947ec66c89a1"",""projectId"":""a0a8f18c-a66e-4ba7-a170-23efbdc67501""}","https://test12345.live/?participantId=73C4B5DBE2AE41128591B97CA1517324&assignmentId=3f81add8-c4c3-425c-887b-947ec66c89a1&projectId=a0a8f18c-a66e-4ba7-a170-23efbdc67501","73C4B5DBE2AE41128591B97CA1517324-2024-11-24-18-51-29","","1736","","images/causal_sequence/museum_causal/museum_causal_2.png","1","",""
"","","","","","image-button-response","62","851430","0.0-12.0-1.0-2.1","73C4B5DBE2AE41128591B97CA1517324","73C4B5DBE2AE41128591B97CA1517324","3f81add8-c4c3-425c-887b-947ec66c89a1","a0a8f18c-a66e-4ba7-a170-23efbdc67501","{""participantId"":""73C4B5DBE2AE41128591B97CA1517324"",""assignmentId"":""3f81add8-c4c3-425c-887b-947ec66c89a1"",""projectId"":""a0a8f18c-a66e-4ba7-a170-23efbdc67501""}","https://test12345.live/?participantId=73C4B5DBE2AE41128591B97CA1517324&assignmentId=3f81add8-c4c3-425c-887b-947ec66c89a1&projectId=a0a8f18c-a66e-4ba7-a170-23efbdc67501","73C4B5DBE2AE41128591B97CA1517324-2024-11-24-18-51-29","","null","","[]","null","",""
"","","","","","image-button-response","63","855933","0.0-12.0-1.0-0.2","73C4B5DBE2AE41128591B97CA1517324","73C4B5DBE2AE41128591B97CA1517324","3f81add8-c4c3-425c-887b-947ec66c89a1","a0a8f18c-a66e-4ba7-a170-23efbdc67501","{""participantId"":""73C4B5DBE2AE41128591B97CA1517324"",""assignmentId"":""3f81add8-c4c3-425c-887b-947ec66c89a1"",""projectId"":""a0a8f18c-a66e-4ba7-a170-23efbdc67501""}","https://test12345.live/?participantId=73C4B5DBE2AE41128591B97CA1517324&assignmentId=3f81add8-c4c3-425c-887b-947ec66c89a1&projectId=a0a8f18c-a66e-4ba7-a170-23efbdc67501","73C4B5DBE2AE41128591B97CA1517324-2024-11-24-18-51-29","","null","","images/causal_sequence/museum_causal/museum_causal_3.png","null","",""
"","","","","","image-button-response","64","859937","0.0-12.0-1.0-1.2","73C4B5DBE2AE41128591B97CA1517324","73C4B5DBE2AE41128591B97CA1517324","3f81add8-c4c3-425c-887b-947ec66c89a1","a0a8f18c-a66e-4ba7-a170-23efbdc67501","{""participantId"":""73C4B5DBE2AE41128591B97CA1517324"",""assignmentId"":""3f81add8-c4c3-425c-887b-947ec66c89a1"",""projectId"":""a0a8f18c-a66e-4ba7-a170-23efbdc67501""}","https://test12345.live/?participantId=73C4B5DBE2AE41128591B97CA1517324&assignmentId=3f81add8-c4c3-425c-887b-947ec66c89a1&projectId=a0a8f18c-a66e-4ba7-a170-23efbdc67501","73C4B5DBE2AE41128591B97CA1517324-2024-11-24-18-51-29","","null","","images/causal_sequence/museum_causal/museum_causal_3.png","null","",""
"","","","","","image-button-response","65","861746","0.0-12.0-1.0-2.2","73C4B5DBE2AE41128591B97CA1517324","73C4B5DBE2AE41128591B97CA1517324","3f81add8-c4c3-425c-887b-947ec66c89a1","a0a8f18c-a66e-4ba7-a170-23efbdc67501","{""participantId"":""73C4B5DBE2AE41128591B97CA1517324"",""assignmentId"":""3f81add8-c4c3-425c-887b-947ec66c89a1"",""projectId"":""a0a8f18c-a66e-4ba7-a170-23efbdc67501""}","https://test12345.live/?participantId=73C4B5DBE2AE41128591B97CA1517324&assignmentId=3f81add8-c4c3-425c-887b-947ec66c89a1&projectId=a0a8f18c-a66e-4ba7-a170-23efbdc67501","73C4B5DBE2AE41128591B97CA1517324-2024-11-24-18-51-29","","null","","[]","null","",""
"","","","","","image-button-response","66","866253","0.0-12.0-1.0-0.3","73C4B5DBE2AE41128591B97CA1517324","73C4B5DBE2AE41128591B97CA1517324","3f81add8-c4c3-425c-887b-947ec66c89a1","a0a8f18c-a66e-4ba7-a170-23efbdc67501","{""participantId"":""73C4B5DBE2AE41128591B97CA1517324"",""assignmentId"":""3f81add8-c4c3-425c-887b-947ec66c89a1"",""projectId"":""a0a8f18c-a66e-4ba7-a170-23efbdc67501""}","https://test12345.live/?participantId=73C4B5DBE2AE41128591B97CA1517324&assignmentId=3f81add8-c4c3-425c-887b-947ec66c89a1&projectId=a0a8f18c-a66e-4ba7-a170-23efbdc67501","73C4B5DBE2AE41128591B97CA1517324-2024-11-24-18-51-29","","null","","images/causal_sequence/museum_causal/museum_causal_4.png","null","",""
"","","","","","image-button-response","67","870265","0.0-12.0-1.0-1.3","73C4B5DBE2AE41128591B97CA1517324","73C4B5DBE2AE41128591B97CA1517324","3f81add8-c4c3-425c-887b-947ec66c89a1","a0a8f18c-a66e-4ba7-a170-23efbdc67501","{""participantId"":""73C4B5DBE2AE41128591B97CA1517324"",""assignmentId"":""3f81add8-c4c3-425c-887b-947ec66c89a1"",""projectId"":""a0a8f18c-a66e-4ba7-a170-23efbdc67501""}","https://test12345.live/?participantId=73C4B5DBE2AE41128591B97CA1517324&assignmentId=3f81add8-c4c3-425c-887b-947ec66c89a1&projectId=a0a8f18c-a66e-4ba7-a170-23efbdc67501","73C4B5DBE2AE41128591B97CA1517324-2024-11-24-18-51-29","","null","","images/causal_sequence/museum_causal/museum_causal_4.png","null","",""
"","","","","","image-button-response","68","872068","0.0-12.0-1.0-2.3","73C4B5DBE2AE41128591B97CA1517324","73C4B5DBE2AE41128591B97CA1517324","3f81add8-c4c3-425c-887b-947ec66c89a1","a0a8f18c-a66e-4ba7-a170-23efbdc67501","{""participantId"":""73C4B5DBE2AE41128591B97CA1517324"",""assignmentId"":""3f81add8-c4c3-425c-887b-947ec66c89a1"",""projectId"":""a0a8f18c-a66e-4ba7-a170-23efbdc67501""}","https://test12345.live/?participantId=73C4B5DBE2AE41128591B97CA1517324&assignmentId=3f81add8-c4c3-425c-887b-947ec66c89a1&projectId=a0a8f18c-a66e-4ba7-a170-23efbdc67501","73C4B5DBE2AE41128591B97CA1517324-2024-11-24-18-51-29","","null","","[]","null","",""
"","","","","","image-button-response","69","876583","0.0-12.0-1.0-0.4","73C4B5DBE2AE41128591B97CA1517324","73C4B5DBE2AE41128591B97CA1517324","3f81add8-c4c3-425c-887b-947ec66c89a1","a0a8f18c-a66e-4ba7-a170-23efbdc67501","{""participantId"":""73C4B5DBE2AE41128591B97CA1517324"",""assignmentId"":""3f81add8-c4c3-425c-887b-947ec66c89a1"",""projectId"":""a0a8f18c-a66e-4ba7-a170-23efbdc67501""}","https://test12345.live/?participantId=73C4B5DBE2AE41128591B97CA1517324&assignmentId=3f81add8-c4c3-425c-887b-947ec66c89a1&projectId=a0a8f18c-a66e-4ba7-a170-23efbdc67501","73C4B5DBE2AE41128591B97CA1517324-2024-11-24-18-51-29","","null","","images/causal_sequence/museum_causal/museum_causal_5.png","null","",""
"","","","","","image-button-response","70","878671","0.0-12.0-1.0-1.4","73C4B5DBE2AE41128591B97CA1517324","73C4B5DBE2AE41128591B97CA1517324","3f81add8-c4c3-425c-887b-947ec66c89a1","a0a8f18c-a66e-4ba7-a170-23efbdc67501","{""participantId"":""73C4B5DBE2AE41128591B97CA1517324"",""assignmentId"":""3f81add8-c4c3-425c-887b-947ec66c89a1"",""projectId"":""a0a8f18c-a66e-4ba7-a170-23efbdc67501""}","https://test12345.live/?participantId=73C4B5DBE2AE41128591B97CA1517324&assignmentId=3f81add8-c4c3-425c-887b-947ec66c89a1&projectId=a0a8f18c-a66e-4ba7-a170-23efbdc67501","73C4B5DBE2AE41128591B97CA1517324-2024-11-24-18-51-29","","2085","","images/causal_sequence/museum_causal/museum_causal_5.png","0","",""
"","","","","","image-button-response","71","880481","0.0-12.0-1.0-2.4","73C4B5DBE2AE41128591B97CA1517324","73C4B5DBE2AE41128591B97CA1517324","3f81add8-c4c3-425c-887b-947ec66c89a1","a0a8f18c-a66e-4ba7-a170-23efbdc67501","{""participantId"":""73C4B5DBE2AE41128591B97CA1517324"",""assignmentId"":""3f81add8-c4c3-425c-887b-947ec66c89a1"",""projectId"":""a0a8f18c-a66e-4ba7-a170-23efbdc67501""}","https://test12345.live/?participantId=73C4B5DBE2AE41128591B97CA1517324&assignmentId=3f81add8-c4c3-425c-887b-947ec66c89a1&projectId=a0a8f18c-a66e-4ba7-a170-23efbdc67501","73C4B5DBE2AE41128591B97CA1517324-2024-11-24-18-51-29","","null","","[]","null","",""
"","","","","","image-button-response","72","884986","0.0-12.0-1.0-0.5","73C4B5DBE2AE41128591B97CA1517324","73C4B5DBE2AE41128591B97CA1517324","3f81add8-c4c3-425c-887b-947ec66c89a1","a0a8f18c-a66e-4ba7-a170-23efbdc67501","{""participantId"":""73C4B5DBE2AE41128591B97CA1517324"",""assignmentId"":""3f81add8-c4c3-425c-887b-947ec66c89a1"",""projectId"":""a0a8f18c-a66e-4ba7-a170-23efbdc67501""}","https://test12345.live/?participantId=73C4B5DBE2AE41128591B97CA1517324&assignmentId=3f81add8-c4c3-425c-887b-947ec66c89a1&projectId=a0a8f18c-a66e-4ba7-a170-23efbdc67501","73C4B5DBE2AE41128591B97CA1517324-2024-11-24-18-51-29","","null","","images/causal_sequence/museum_causal/museum_causal_6.png","null","",""
"","","","","","image-button-response","73","886582","0.0-12.0-1.0-1.5","73C4B5DBE2AE41128591B97CA1517324","73C4B5DBE2AE41128591B97CA1517324","3f81add8-c4c3-425c-887b-947ec66c89a1","a0a8f18c-a66e-4ba7-a170-23efbdc67501","{""participantId"":""73C4B5DBE2AE41128591B97CA1517324"",""assignmentId"":""3f81add8-c4c3-425c-887b-947ec66c89a1"",""projectId"":""a0a8f18c-a66e-4ba7-a170-23efbdc67501""}","https://test12345.live/?participantId=73C4B5DBE2AE41128591B97CA1517324&assignmentId=3f81add8-c4c3-425c-887b-947ec66c89a1&projectId=a0a8f18c-a66e-4ba7-a170-23efbdc67501","73C4B5DBE2AE41128591B97CA1517324-2024-11-24-18-51-29","","1593","","images/causal_sequence/museum_causal/museum_causal_6.png","0","",""
"","","","","","image-button-response","74","888388","0.0-12.0-1.0-2.5","73C4B5DBE2AE41128591B97CA1517324","73C4B5DBE2AE41128591B97CA1517324","3f81add8-c4c3-425c-887b-947ec66c89a1","a0a8f18c-a66e-4ba7-a170-23efbdc67501","{""participantId"":""73C4B5DBE2AE41128591B97CA1517324"",""assignmentId"":""3f81add8-c4c3-425c-887b-947ec66c89a1"",""projectId"":""a0a8f18c-a66e-4ba7-a170-23efbdc67501""}","https://test12345.live/?participantId=73C4B5DBE2AE41128591B97CA1517324&assignmentId=3f81add8-c4c3-425c-887b-947ec66c89a1&projectId=a0a8f18c-a66e-4ba7-a170-23efbdc67501","73C4B5DBE2AE41128591B97CA1517324-2024-11-24-18-51-29","","null","","[]","null","",""
"","","","","","image-button-response","75","892894","0.0-12.0-1.0-0.6","73C4B5DBE2AE41128591B97CA1517324","73C4B5DBE2AE41128591B97CA1517324","3f81add8-c4c3-425c-887b-947ec66c89a1","a0a8f18c-a66e-4ba7-a170-23efbdc67501","{""participantId"":""73C4B5DBE2AE41128591B97CA1517324"",""assignmentId"":""3f81add8-c4c3-425c-887b-947ec66c89a1"",""projectId"":""a0a8f18c-a66e-4ba7-a170-23efbdc67501""}","https://test12345.live/?participantId=73C4B5DBE2AE41128591B97CA1517324&assignmentId=3f81add8-c4c3-425c-887b-947ec66c89a1&projectId=a0a8f18c-a66e-4ba7-a170-23efbdc67501","73C4B5DBE2AE41128591B97CA1517324-2024-11-24-18-51-29","","null","","images/causal_sequence/museum_causal/museum_causal_7.png","null","",""
"","","","","","image-button-response","76","894863","0.0-12.0-1.0-1.6","73C4B5DBE2AE41128591B97CA1517324","73C4B5DBE2AE41128591B97CA1517324","3f81add8-c4c3-425c-887b-947ec66c89a1","a0a8f18c-a66e-4ba7-a170-23efbdc67501","{""participantId"":""73C4B5DBE2AE41128591B97CA1517324"",""assignmentId"":""3f81add8-c4c3-425c-887b-947ec66c89a1"",""projectId"":""a0a8f18c-a66e-4ba7-a170-23efbdc67501""}","https://test12345.live/?participantId=73C4B5DBE2AE41128591B97CA1517324&assignmentId=3f81add8-c4c3-425c-887b-947ec66c89a1&projectId=a0a8f18c-a66e-4ba7-a170-23efbdc67501","73C4B5DBE2AE41128591B97CA1517324-2024-11-24-18-51-29","","1966","","images/causal_sequence/museum_causal/museum_causal_7.png","1","",""
"","","","","","image-button-response","77","896677","0.0-12.0-1.0-2.6","73C4B5DBE2AE41128591B97CA1517324","73C4B5DBE2AE41128591B97CA1517324","3f81add8-c4c3-425c-887b-947ec66c89a1","a0a8f18c-a66e-4ba7-a170-23efbdc67501","{""participantId"":""73C4B5DBE2AE41128591B97CA1517324"",""assignmentId"":""3f81add8-c4c3-425c-887b-947ec66c89a1"",""projectId"":""a0a8f18c-a66e-4ba7-a170-23efbdc67501""}","https://test12345.live/?participantId=73C4B5DBE2AE41128591B97CA1517324&assignmentId=3f81add8-c4c3-425c-887b-947ec66c89a1&projectId=a0a8f18c-a66e-4ba7-a170-23efbdc67501","73C4B5DBE2AE41128591B97CA1517324-2024-11-24-18-51-29","","null","","[]","null","",""
"","","","","","image-button-response","78","901191","0.0-12.0-1.0-0.7","73C4B5DBE2AE41128591B97CA1517324","73C4B5DBE2AE41128591B97CA1517324","3f81add8-c4c3-425c-887b-947ec66c89a1","a0a8f18c-a66e-4ba7-a170-23efbdc67501","{""participantId"":""73C4B5DBE2AE41128591B97CA1517324"",""assignmentId"":""3f81add8-c4c3-425c-887b-947ec66c89a1"",""projectId"":""a0a8f18c-a66e-4ba7-a170-23efbdc67501""}","https://test12345.live/?participantId=73C4B5DBE2AE41128591B97CA1517324&assignmentId=3f81add8-c4c3-425c-887b-947ec66c89a1&projectId=a0a8f18c-a66e-4ba7-a170-23efbdc67501","73C4B5DBE2AE41128591B97CA1517324-2024-11-24-18-51-29","","null","","images/causal_sequence/museum_causal/museum_causal_8.png","null","",""
"","","","","","image-button-response","79","904759","0.0-12.0-1.0-1.7","73C4B5DBE2AE41128591B97CA1517324","73C4B5DBE2AE41128591B97CA1517324","3f81add8-c4c3-425c-887b-947ec66c89a1","a0a8f18c-a66e-4ba7-a170-23efbdc67501","{""participantId"":""73C4B5DBE2AE41128591B97CA1517324"",""assignmentId"":""3f81add8-c4c3-425c-887b-947ec66c89a1"",""projectId"":""a0a8f18c-a66e-4ba7-a170-23efbdc67501""}","https://test12345.live/?participantId=73C4B5DBE2AE41128591B97CA1517324&assignmentId=3f81add8-c4c3-425c-887b-947ec66c89a1&projectId=a0a8f18c-a66e-4ba7-a170-23efbdc67501","73C4B5DBE2AE41128591B97CA1517324-2024-11-24-18-51-29","","3566","","images/causal_sequence/museum_causal/museum_causal_8.png","0","",""
"","","","","","image-button-response","80","906568","0.0-12.0-1.0-2.7","73C4B5DBE2AE41128591B97CA1517324","73C4B5DBE2AE41128591B97CA1517324","3f81add8-c4c3-425c-887b-947ec66c89a1","a0a8f18c-a66e-4ba7-a170-23efbdc67501","{""participantId"":""73C4B5DBE2AE41128591B97CA1517324"",""assignmentId"":""3f81add8-c4c3-425c-887b-947ec66c89a1"",""projectId"":""a0a8f18c-a66e-4ba7-a170-23efbdc67501""}","https://test12345.live/?participantId=73C4B5DBE2AE41128591B97CA1517324&assignmentId=3f81add8-c4c3-425c-887b-947ec66c89a1&projectId=a0a8f18c-a66e-4ba7-a170-23efbdc67501","73C4B5DBE2AE41128591B97CA1517324-2024-11-24-18-51-29","","null","","[]","null","",""
"","","","","","image-button-response","81","911076","0.0-12.0-1.0-0.8","73C4B5DBE2AE41128591B97CA1517324","73C4B5DBE2AE41128591B97CA1517324","3f81add8-c4c3-425c-887b-947ec66c89a1","a0a8f18c-a66e-4ba7-a170-23efbdc67501","{""participantId"":""73C4B5DBE2AE41128591B97CA1517324"",""assignmentId"":""3f81add8-c4c3-425c-887b-947ec66c89a1"",""projectId"":""a0a8f18c-a66e-4ba7-a170-23efbdc67501""}","https://test12345.live/?participantId=73C4B5DBE2AE41128591B97CA1517324&assignmentId=3f81add8-c4c3-425c-887b-947ec66c89a1&projectId=a0a8f18c-a66e-4ba7-a170-23efbdc67501","73C4B5DBE2AE41128591B97CA1517324-2024-11-24-18-51-29","","null","","images/causal_sequence/museum_causal/museum_causal_9.png","null","",""
"","","","","","image-button-response","82","912854","0.0-12.0-1.0-1.8","73C4B5DBE2AE41128591B97CA1517324","73C4B5DBE2AE41128591B97CA1517324","3f81add8-c4c3-425c-887b-947ec66c89a1","a0a8f18c-a66e-4ba7-a170-23efbdc67501","{""participantId"":""73C4B5DBE2AE41128591B97CA1517324"",""assignmentId"":""3f81add8-c4c3-425c-887b-947ec66c89a1"",""projectId"":""a0a8f18c-a66e-4ba7-a170-23efbdc67501""}","https://test12345.live/?participantId=73C4B5DBE2AE41128591B97CA1517324&assignmentId=3f81add8-c4c3-425c-887b-947ec66c89a1&projectId=a0a8f18c-a66e-4ba7-a170-23efbdc67501","73C4B5DBE2AE41128591B97CA1517324-2024-11-24-18-51-29","","1775","","images/causal_sequence/museum_causal/museum_causal_9.png","1","",""
"","","","","","image-button-response","83","914664","0.0-12.0-1.0-2.8","73C4B5DBE2AE41128591B97CA1517324","73C4B5DBE2AE41128591B97CA1517324","3f81add8-c4c3-425c-887b-947ec66c89a1","a0a8f18c-a66e-4ba7-a170-23efbdc67501","{""participantId"":""73C4B5DBE2AE41128591B97CA1517324"",""assignmentId"":""3f81add8-c4c3-425c-887b-947ec66c89a1"",""projectId"":""a0a8f18c-a66e-4ba7-a170-23efbdc67501""}","https://test12345.live/?participantId=73C4B5DBE2AE41128591B97CA1517324&assignmentId=3f81add8-c4c3-425c-887b-947ec66c89a1&projectId=a0a8f18c-a66e-4ba7-a170-23efbdc67501","73C4B5DBE2AE41128591B97CA1517324-2024-11-24-18-51-29","","null","","[]","null","",""
"","","","","","image-button-response","84","919180","0.0-12.0-1.0-0.9","73C4B5DBE2AE41128591B97CA1517324","73C4B5DBE2AE41128591B97CA1517324","3f81add8-c4c3-425c-887b-947ec66c89a1","a0a8f18c-a66e-4ba7-a170-23efbdc67501","{""participantId"":""73C4B5DBE2AE41128591B97CA1517324"",""assignmentId"":""3f81add8-c4c3-425c-887b-947ec66c89a1"",""projectId"":""a0a8f18c-a66e-4ba7-a170-23efbdc67501""}","https://test12345.live/?participantId=73C4B5DBE2AE41128591B97CA1517324&assignmentId=3f81add8-c4c3-425c-887b-947ec66c89a1&projectId=a0a8f18c-a66e-4ba7-a170-23efbdc67501","73C4B5DBE2AE41128591B97CA1517324-2024-11-24-18-51-29","","null","","images/causal_sequence/museum_causal/museum_causal_ten.png","null","",""
"","","","","","image-button-response","85","921076","0.0-12.0-1.0-1.9","73C4B5DBE2AE41128591B97CA1517324","73C4B5DBE2AE41128591B97CA1517324","3f81add8-c4c3-425c-887b-947ec66c89a1","a0a8f18c-a66e-4ba7-a170-23efbdc67501","{""participantId"":""73C4B5DBE2AE41128591B97CA1517324"",""assignmentId"":""3f81add8-c4c3-425c-887b-947ec66c89a1"",""projectId"":""a0a8f18c-a66e-4ba7-a170-23efbdc67501""}","https://test12345.live/?participantId=73C4B5DBE2AE41128591B97CA1517324&assignmentId=3f81add8-c4c3-425c-887b-947ec66c89a1&projectId=a0a8f18c-a66e-4ba7-a170-23efbdc67501","73C4B5DBE2AE41128591B97CA1517324-2024-11-24-18-51-29","","1893","","images/causal_sequence/museum_causal/museum_causal_ten.png","0","",""
"","","","","","image-button-response","86","922881","0.0-12.0-1.0-2.9","73C4B5DBE2AE41128591B97CA1517324","73C4B5DBE2AE41128591B97CA1517324","3f81add8-c4c3-425c-887b-947ec66c89a1","a0a8f18c-a66e-4ba7-a170-23efbdc67501","{""participantId"":""73C4B5DBE2AE41128591B97CA1517324"",""assignmentId"":""3f81add8-c4c3-425c-887b-947ec66c89a1"",""projectId"":""a0a8f18c-a66e-4ba7-a170-23efbdc67501""}","https://test12345.live/?participantId=73C4B5DBE2AE41128591B97CA1517324&assignmentId=3f81add8-c4c3-425c-887b-947ec66c89a1&projectId=a0a8f18c-a66e-4ba7-a170-23efbdc67501","73C4B5DBE2AE41128591B97CA1517324-2024-11-24-18-51-29","","null","","[]","null","",""
"","","","","","html-audio-response","87","1056633","0.0-13.0","73C4B5DBE2AE41128591B97CA1517324","73C4B5DBE2AE41128591B97CA1517324","3f81add8-c4c3-425c-887b-947ec66c89a1","a0a8f18c-a66e-4ba7-a170-23efbdc67501","{""participantId"":""73C4B5DBE2AE41128591B97CA1517324"",""assignmentId"":""3f81add8-c4c3-425c-887b-947ec66c89a1"",""projectId"":""a0a8f18c-a66e-4ba7-a170-23efbdc67501""}","https://test12345.live/?participantId=73C4B5DBE2AE41128591B97CA1517324&assignmentId=3f81add8-c4c3-425c-887b-947ec66c89a1&projectId=a0a8f18c-a66e-4ba7-a170-23efbdc67501","73C4B5DBE2AE41128591B97CA1517324-2024-11-24-18-51-29","","17264","","[""<span style=\""color: red; font-size: 24px\""> NOW RECORDING</span><p>Please say out loud all the images you saw, as many as you can remember. The images can be said in any order.</p>""]","","2","museum_causal"
"","","","","","image-button-response","88","1062646","0.0-14.0-0.0","73C4B5DBE2AE41128591B97CA1517324","73C4B5DBE2AE41128591B97CA1517324","3f81add8-c4c3-425c-887b-947ec66c89a1","a0a8f18c-a66e-4ba7-a170-23efbdc67501","{""participantId"":""73C4B5DBE2AE41128591B97CA1517324"",""assignmentId"":""3f81add8-c4c3-425c-887b-947ec66c89a1"",""projectId"":""a0a8f18c-a66e-4ba7-a170-23efbdc67501""}","https://test12345.live/?participantId=73C4B5DBE2AE41128591B97CA1517324&assignmentId=3f81add8-c4c3-425c-887b-947ec66c89a1&projectId=a0a8f18c-a66e-4ba7-a170-23efbdc67501","73C4B5DBE2AE41128591B97CA1517324-2024-11-24-18-51-29","","null","","images/schematic_sequence/flight_scheme/flight_scheme_0.png","null","",""
"","","","","","image-button-response","89","1067150","0.0-14.0-1.0-0.0","73C4B5DBE2AE41128591B97CA1517324","73C4B5DBE2AE41128591B97CA1517324","3f81add8-c4c3-425c-887b-947ec66c89a1","a0a8f18c-a66e-4ba7-a170-23efbdc67501","{""participantId"":""73C4B5DBE2AE41128591B97CA1517324"",""assignmentId"":""3f81add8-c4c3-425c-887b-947ec66c89a1"",""projectId"":""a0a8f18c-a66e-4ba7-a170-23efbdc67501""}","https://test12345.live/?participantId=73C4B5DBE2AE41128591B97CA1517324&assignmentId=3f81add8-c4c3-425c-887b-947ec66c89a1&projectId=a0a8f18c-a66e-4ba7-a170-23efbdc67501","73C4B5DBE2AE41128591B97CA1517324-2024-11-24-18-51-29","","null","","images/schematic_sequence/flight_scheme/flight_scheme_4.png","null","",""
"","","","","","image-button-response","90","1071164","0.0-14.0-1.0-1.0","73C4B5DBE2AE41128591B97CA1517324","73C4B5DBE2AE41128591B97CA1517324","3f81add8-c4c3-425c-887b-947ec66c89a1","a0a8f18c-a66e-4ba7-a170-23efbdc67501","{""participantId"":""73C4B5DBE2AE41128591B97CA1517324"",""assignmentId"":""3f81add8-c4c3-425c-887b-947ec66c89a1"",""projectId"":""a0a8f18c-a66e-4ba7-a170-23efbdc67501""}","https://test12345.live/?participantId=73C4B5DBE2AE41128591B97CA1517324&assignmentId=3f81add8-c4c3-425c-887b-947ec66c89a1&projectId=a0a8f18c-a66e-4ba7-a170-23efbdc67501","73C4B5DBE2AE41128591B97CA1517324-2024-11-24-18-51-29","","null","","images/schematic_sequence/flight_scheme/flight_scheme_4.png","null","",""
"","","","","","image-button-response","91","1072974","0.0-14.0-1.0-2.0","73C4B5DBE2AE41128591B97CA1517324","73C4B5DBE2AE41128591B97CA1517324","3f81add8-c4c3-425c-887b-947ec66c89a1","a0a8f18c-a66e-4ba7-a170-23efbdc67501","{""participantId"":""73C4B5DBE2AE41128591B97CA1517324"",""assignmentId"":""3f81add8-c4c3-425c-887b-947ec66c89a1"",""projectId"":""a0a8f18c-a66e-4ba7-a170-23efbdc67501""}","https://test12345.live/?participantId=73C4B5DBE2AE41128591B97CA1517324&assignmentId=3f81add8-c4c3-425c-887b-947ec66c89a1&projectId=a0a8f18c-a66e-4ba7-a170-23efbdc67501","73C4B5DBE2AE41128591B97CA1517324-2024-11-24-18-51-29","","null","","[]","null","",""
"","","","","","image-button-response","92","1077483","0.0-14.0-1.0-0.1","73C4B5DBE2AE41128591B97CA1517324","73C4B5DBE2AE41128591B97CA1517324","3f81add8-c4c3-425c-887b-947ec66c89a1","a0a8f18c-a66e-4ba7-a170-23efbdc67501","{""participantId"":""73C4B5DBE2AE41128591B97CA1517324"",""assignmentId"":""3f81add8-c4c3-425c-887b-947ec66c89a1"",""projectId"":""a0a8f18c-a66e-4ba7-a170-23efbdc67501""}","https://test12345.live/?participantId=73C4B5DBE2AE41128591B97CA1517324&assignmentId=3f81add8-c4c3-425c-887b-947ec66c89a1&projectId=a0a8f18c-a66e-4ba7-a170-23efbdc67501","73C4B5DBE2AE41128591B97CA1517324-2024-11-24-18-51-29","","null","","images/schematic_sequence/flight_scheme/flight_scheme_1.png","null","",""
"","","","","","image-button-response","93","1081496","0.0-14.0-1.0-1.1","73C4B5DBE2AE41128591B97CA1517324","73C4B5DBE2AE41128591B97CA1517324","3f81add8-c4c3-425c-887b-947ec66c89a1","a0a8f18c-a66e-4ba7-a170-23efbdc67501","{""participantId"":""73C4B5DBE2AE41128591B97CA1517324"",""assignmentId"":""3f81add8-c4c3-425c-887b-947ec66c89a1"",""projectId"":""a0a8f18c-a66e-4ba7-a170-23efbdc67501""}","https://test12345.live/?participantId=73C4B5DBE2AE41128591B97CA1517324&assignmentId=3f81add8-c4c3-425c-887b-947ec66c89a1&projectId=a0a8f18c-a66e-4ba7-a170-23efbdc67501","73C4B5DBE2AE41128591B97CA1517324-2024-11-24-18-51-29","","null","","images/schematic_sequence/flight_scheme/flight_scheme_1.png","null","",""
"","","","","","image-button-response","94","1083310","0.0-14.0-1.0-2.1","73C4B5DBE2AE41128591B97CA1517324","73C4B5DBE2AE41128591B97CA1517324","3f81add8-c4c3-425c-887b-947ec66c89a1","a0a8f18c-a66e-4ba7-a170-23efbdc67501","{""participantId"":""73C4B5DBE2AE41128591B97CA1517324"",""assignmentId"":""3f81add8-c4c3-425c-887b-947ec66c89a1"",""projectId"":""a0a8f18c-a66e-4ba7-a170-23efbdc67501""}","https://test12345.live/?participantId=73C4B5DBE2AE41128591B97CA1517324&assignmentId=3f81add8-c4c3-425c-887b-947ec66c89a1&projectId=a0a8f18c-a66e-4ba7-a170-23efbdc67501","73C4B5DBE2AE41128591B97CA1517324-2024-11-24-18-51-29","","null","","[]","null","",""
"","","","","","image-button-response","95","1087820","0.0-14.0-1.0-0.2","73C4B5DBE2AE41128591B97CA1517324","73C4B5DBE2AE41128591B97CA1517324","3f81add8-c4c3-425c-887b-947ec66c89a1","a0a8f18c-a66e-4ba7-a170-23efbdc67501","{""participantId"":""73C4B5DBE2AE41128591B97CA1517324"",""assignmentId"":""3f81add8-c4c3-425c-887b-947ec66c89a1"",""projectId"":""a0a8f18c-a66e-4ba7-a170-23efbdc67501""}","https://test12345.live/?participantId=73C4B5DBE2AE41128591B97CA1517324&assignmentId=3f81add8-c4c3-425c-887b-947ec66c89a1&projectId=a0a8f18c-a66e-4ba7-a170-23efbdc67501","73C4B5DBE2AE41128591B97CA1517324-2024-11-24-18-51-29","","null","","images/schematic_sequence/flight_scheme/flight_scheme_3.png","null","",""
"","","","","","image-button-response","96","1089425","0.0-14.0-1.0-1.2","73C4B5DBE2AE41128591B97CA1517324","73C4B5DBE2AE41128591B97CA1517324","3f81add8-c4c3-425c-887b-947ec66c89a1","a0a8f18c-a66e-4ba7-a170-23efbdc67501","{""participantId"":""73C4B5DBE2AE41128591B97CA1517324"",""assignmentId"":""3f81add8-c4c3-425c-887b-947ec66c89a1"",""projectId"":""a0a8f18c-a66e-4ba7-a170-23efbdc67501""}","https://test12345.live/?participantId=73C4B5DBE2AE41128591B97CA1517324&assignmentId=3f81add8-c4c3-425c-887b-947ec66c89a1&projectId=a0a8f18c-a66e-4ba7-a170-23efbdc67501","73C4B5DBE2AE41128591B97CA1517324-2024-11-24-18-51-29","","1602","","images/schematic_sequence/flight_scheme/flight_scheme_3.png","0","",""
"","","","","","image-button-response","97","1091229","0.0-14.0-1.0-2.2","73C4B5DBE2AE41128591B97CA1517324","73C4B5DBE2AE41128591B97CA1517324","3f81add8-c4c3-425c-887b-947ec66c89a1","a0a8f18c-a66e-4ba7-a170-23efbdc67501","{""participantId"":""73C4B5DBE2AE41128591B97CA1517324"",""assignmentId"":""3f81add8-c4c3-425c-887b-947ec66c89a1"",""projectId"":""a0a8f18c-a66e-4ba7-a170-23efbdc67501""}","https://test12345.live/?participantId=73C4B5DBE2AE41128591B97CA1517324&assignmentId=3f81add8-c4c3-425c-887b-947ec66c89a1&projectId=a0a8f18c-a66e-4ba7-a170-23efbdc67501","73C4B5DBE2AE41128591B97CA1517324-2024-11-24-18-51-29","","null","","[]","null","",""
"","","","","","image-button-response","98","1095744","0.0-14.0-1.0-0.3","73C4B5DBE2AE41128591B97CA1517324","73C4B5DBE2AE41128591B97CA1517324","3f81add8-c4c3-425c-887b-947ec66c89a1","a0a8f18c-a66e-4ba7-a170-23efbdc67501","{""participantId"":""73C4B5DBE2AE41128591B97CA1517324"",""assignmentId"":""3f81add8-c4c3-425c-887b-947ec66c89a1"",""projectId"":""a0a8f18c-a66e-4ba7-a170-23efbdc67501""}","https://test12345.live/?participantId=73C4B5DBE2AE41128591B97CA1517324&assignmentId=3f81add8-c4c3-425c-887b-947ec66c89a1&projectId=a0a8f18c-a66e-4ba7-a170-23efbdc67501","73C4B5DBE2AE41128591B97CA1517324-2024-11-24-18-51-29","","null","","images/schematic_sequence/flight_scheme/flight_scheme_5.png","null","",""
"","","","","","image-button-response","99","1099748","0.0-14.0-1.0-1.3","73C4B5DBE2AE41128591B97CA1517324","73C4B5DBE2AE41128591B97CA1517324","3f81add8-c4c3-425c-887b-947ec66c89a1","a0a8f18c-a66e-4ba7-a170-23efbdc67501","{""participantId"":""73C4B5DBE2AE41128591B97CA1517324"",""assignmentId"":""3f81add8-c4c3-425c-887b-947ec66c89a1"",""projectId"":""a0a8f18c-a66e-4ba7-a170-23efbdc67501""}","https://test12345.live/?participantId=73C4B5DBE2AE41128591B97CA1517324&assignmentId=3f81add8-c4c3-425c-887b-947ec66c89a1&projectId=a0a8f18c-a66e-4ba7-a170-23efbdc67501","73C4B5DBE2AE41128591B97CA1517324-2024-11-24-18-51-29","","null","","images/schematic_sequence/flight_scheme/flight_scheme_5.png","null","",""
"","","","","","image-button-response","100","1101566","0.0-14.0-1.0-2.3","73C4B5DBE2AE41128591B97CA1517324","73C4B5DBE2AE41128591B97CA1517324","3f81add8-c4c3-425c-887b-947ec66c89a1","a0a8f18c-a66e-4ba7-a170-23efbdc67501","{""participantId"":""73C4B5DBE2AE41128591B97CA1517324"",""assignmentId"":""3f81add8-c4c3-425c-887b-947ec66c89a1"",""projectId"":""a0a8f18c-a66e-4ba7-a170-23efbdc67501""}","https://test12345.live/?participantId=73C4B5DBE2AE41128591B97CA1517324&assignmentId=3f81add8-c4c3-425c-887b-947ec66c89a1&projectId=a0a8f18c-a66e-4ba7-a170-23efbdc67501","73C4B5DBE2AE41128591B97CA1517324-2024-11-24-18-51-29","","null","","[]","null","",""
"","","","","","image-button-response","101","1106072","0.0-14.0-1.0-0.4","73C4B5DBE2AE41128591B97CA1517324","73C4B5DBE2AE41128591B97CA1517324","3f81add8-c4c3-425c-887b-947ec66c89a1","a0a8f18c-a66e-4ba7-a170-23efbdc67501","{""participantId"":""73C4B5DBE2AE41128591B97CA1517324"",""assignmentId"":""3f81add8-c4c3-425c-887b-947ec66c89a1"",""projectId"":""a0a8f18c-a66e-4ba7-a170-23efbdc67501""}","https://test12345.live/?participantId=73C4B5DBE2AE41128591B97CA1517324&assignmentId=3f81add8-c4c3-425c-887b-947ec66c89a1&projectId=a0a8f18c-a66e-4ba7-a170-23efbdc67501","73C4B5DBE2AE41128591B97CA1517324-2024-11-24-18-51-29","","null","","images/schematic_sequence/flight_scheme/flight_scheme_6.png","null","",""
"","","","","","image-button-response","102","1108578","0.0-14.0-1.0-1.4","73C4B5DBE2AE41128591B97CA1517324","73C4B5DBE2AE41128591B97CA1517324","3f81add8-c4c3-425c-887b-947ec66c89a1","a0a8f18c-a66e-4ba7-a170-23efbdc67501","{""participantId"":""73C4B5DBE2AE41128591B97CA1517324"",""assignmentId"":""3f81add8-c4c3-425c-887b-947ec66c89a1"",""projectId"":""a0a8f18c-a66e-4ba7-a170-23efbdc67501""}","https://test12345.live/?participantId=73C4B5DBE2AE41128591B97CA1517324&assignmentId=3f81add8-c4c3-425c-887b-947ec66c89a1&projectId=a0a8f18c-a66e-4ba7-a170-23efbdc67501","73C4B5DBE2AE41128591B97CA1517324-2024-11-24-18-51-29","","2503","","images/schematic_sequence/flight_scheme/flight_scheme_6.png","1","",""
"","","","","","image-button-response","103","1110396","0.0-14.0-1.0-2.4","73C4B5DBE2AE41128591B97CA1517324","73C4B5DBE2AE41128591B97CA1517324","3f81add8-c4c3-425c-887b-947ec66c89a1","a0a8f18c-a66e-4ba7-a170-23efbdc67501","{""participantId"":""73C4B5DBE2AE41128591B97CA1517324"",""assignmentId"":""3f81add8-c4c3-425c-887b-947ec66c89a1"",""projectId"":""a0a8f18c-a66e-4ba7-a170-23efbdc67501""}","https://test12345.live/?participantId=73C4B5DBE2AE41128591B97CA1517324&assignmentId=3f81add8-c4c3-425c-887b-947ec66c89a1&projectId=a0a8f18c-a66e-4ba7-a170-23efbdc67501","73C4B5DBE2AE41128591B97CA1517324-2024-11-24-18-51-29","","null","","[]","null","",""
"","","","","","image-button-response","104","1114906","0.0-14.0-1.0-0.5","73C4B5DBE2AE41128591B97CA1517324","73C4B5DBE2AE41128591B97CA1517324","3f81add8-c4c3-425c-887b-947ec66c89a1","a0a8f18c-a66e-4ba7-a170-23efbdc67501","{""participantId"":""73C4B5DBE2AE41128591B97CA1517324"",""assignmentId"":""3f81add8-c4c3-425c-887b-947ec66c89a1"",""projectId"":""a0a8f18c-a66e-4ba7-a170-23efbdc67501""}","https://test12345.live/?participantId=73C4B5DBE2AE41128591B97CA1517324&assignmentId=3f81add8-c4c3-425c-887b-947ec66c89a1&projectId=a0a8f18c-a66e-4ba7-a170-23efbdc67501","73C4B5DBE2AE41128591B97CA1517324-2024-11-24-18-51-29","","null","","images/schematic_sequence/flight_scheme/flight_scheme_9.png","null","",""
"","","","","","image-button-response","105","1117819","0.0-14.0-1.0-1.5","73C4B5DBE2AE41128591B97CA1517324","73C4B5DBE2AE41128591B97CA1517324","3f81add8-c4c3-425c-887b-947ec66c89a1","a0a8f18c-a66e-4ba7-a170-23efbdc67501","{""participantId"":""73C4B5DBE2AE41128591B97CA1517324"",""assignmentId"":""3f81add8-c4c3-425c-887b-947ec66c89a1"",""projectId"":""a0a8f18c-a66e-4ba7-a170-23efbdc67501""}","https://test12345.live/?participantId=73C4B5DBE2AE41128591B97CA1517324&assignmentId=3f81add8-c4c3-425c-887b-947ec66c89a1&projectId=a0a8f18c-a66e-4ba7-a170-23efbdc67501","73C4B5DBE2AE41128591B97CA1517324-2024-11-24-18-51-29","","2910","","images/schematic_sequence/flight_scheme/flight_scheme_9.png","0","",""
"","","","","","image-button-response","106","1119624","0.0-14.0-1.0-2.5","73C4B5DBE2AE41128591B97CA1517324","73C4B5DBE2AE41128591B97CA1517324","3f81add8-c4c3-425c-887b-947ec66c89a1","a0a8f18c-a66e-4ba7-a170-23efbdc67501","{""participantId"":""73C4B5DBE2AE41128591B97CA1517324"",""assignmentId"":""3f81add8-c4c3-425c-887b-947ec66c89a1"",""projectId"":""a0a8f18c-a66e-4ba7-a170-23efbdc67501""}","https://test12345.live/?participantId=73C4B5DBE2AE41128591B97CA1517324&assignmentId=3f81add8-c4c3-425c-887b-947ec66c89a1&projectId=a0a8f18c-a66e-4ba7-a170-23efbdc67501","73C4B5DBE2AE41128591B97CA1517324-2024-11-24-18-51-29","","null","","[]","null","",""
"","","","","","image-button-response","107","1124137","0.0-14.0-1.0-0.6","73C4B5DBE2AE41128591B97CA1517324","73C4B5DBE2AE41128591B97CA1517324","3f81add8-c4c3-425c-887b-947ec66c89a1","a0a8f18c-a66e-4ba7-a170-23efbdc67501","{""participantId"":""73C4B5DBE2AE41128591B97CA1517324"",""assignmentId"":""3f81add8-c4c3-425c-887b-947ec66c89a1"",""projectId"":""a0a8f18c-a66e-4ba7-a170-23efbdc67501""}","https://test12345.live/?participantId=73C4B5DBE2AE41128591B97CA1517324&assignmentId=3f81add8-c4c3-425c-887b-947ec66c89a1&projectId=a0a8f18c-a66e-4ba7-a170-23efbdc67501","73C4B5DBE2AE41128591B97CA1517324-2024-11-24-18-51-29","","null","","images/schematic_sequence/flight_scheme/flight_scheme_7.png","null","",""
"","","","","","image-button-response","108","1125952","0.0-14.0-1.0-1.6","73C4B5DBE2AE41128591B97CA1517324","73C4B5DBE2AE41128591B97CA1517324","3f81add8-c4c3-425c-887b-947ec66c89a1","a0a8f18c-a66e-4ba7-a170-23efbdc67501","{""participantId"":""73C4B5DBE2AE41128591B97CA1517324"",""assignmentId"":""3f81add8-c4c3-425c-887b-947ec66c89a1"",""projectId"":""a0a8f18c-a66e-4ba7-a170-23efbdc67501""}","https://test12345.live/?participantId=73C4B5DBE2AE41128591B97CA1517324&assignmentId=3f81add8-c4c3-425c-887b-947ec66c89a1&projectId=a0a8f18c-a66e-4ba7-a170-23efbdc67501","73C4B5DBE2AE41128591B97CA1517324-2024-11-24-18-51-29","","1811","","images/schematic_sequence/flight_scheme/flight_scheme_7.png","1","",""
"","","","","","image-button-response","109","1127766","0.0-14.0-1.0-2.6","73C4B5DBE2AE41128591B97CA1517324","73C4B5DBE2AE41128591B97CA1517324","3f81add8-c4c3-425c-887b-947ec66c89a1","a0a8f18c-a66e-4ba7-a170-23efbdc67501","{""participantId"":""73C4B5DBE2AE41128591B97CA1517324"",""assignmentId"":""3f81add8-c4c3-425c-887b-947ec66c89a1"",""projectId"":""a0a8f18c-a66e-4ba7-a170-23efbdc67501""}","https://test12345.live/?participantId=73C4B5DBE2AE41128591B97CA1517324&assignmentId=3f81add8-c4c3-425c-887b-947ec66c89a1&projectId=a0a8f18c-a66e-4ba7-a170-23efbdc67501","73C4B5DBE2AE41128591B97CA1517324-2024-11-24-18-51-29","","null","","[]","null","",""
"","","","","","image-button-response","110","1132280","0.0-14.0-1.0-0.7","73C4B5DBE2AE41128591B97CA1517324","73C4B5DBE2AE41128591B97CA1517324","3f81add8-c4c3-425c-887b-947ec66c89a1","a0a8f18c-a66e-4ba7-a170-23efbdc67501","{""participantId"":""73C4B5DBE2AE41128591B97CA1517324"",""assignmentId"":""3f81add8-c4c3-425c-887b-947ec66c89a1"",""projectId"":""a0a8f18c-a66e-4ba7-a170-23efbdc67501""}","https://test12345.live/?participantId=73C4B5DBE2AE41128591B97CA1517324&assignmentId=3f81add8-c4c3-425c-887b-947ec66c89a1&projectId=a0a8f18c-a66e-4ba7-a170-23efbdc67501","73C4B5DBE2AE41128591B97CA1517324-2024-11-24-18-51-29","","null","","images/schematic_sequence/flight_scheme/flight_scheme_8.png","null","",""
"","","","","","image-button-response","111","1134407","0.0-14.0-1.0-1.7","73C4B5DBE2AE41128591B97CA1517324","73C4B5DBE2AE41128591B97CA1517324","3f81add8-c4c3-425c-887b-947ec66c89a1","a0a8f18c-a66e-4ba7-a170-23efbdc67501","{""participantId"":""73C4B5DBE2AE41128591B97CA1517324"",""assignmentId"":""3f81add8-c4c3-425c-887b-947ec66c89a1"",""projectId"":""a0a8f18c-a66e-4ba7-a170-23efbdc67501""}","https://test12345.live/?participantId=73C4B5DBE2AE41128591B97CA1517324&assignmentId=3f81add8-c4c3-425c-887b-947ec66c89a1&projectId=a0a8f18c-a66e-4ba7-a170-23efbdc67501","73C4B5DBE2AE41128591B97CA1517324-2024-11-24-18-51-29","","2124","","images/schematic_sequence/flight_scheme/flight_scheme_8.png","1","",""
"","","","","","image-button-response","112","1136219","0.0-14.0-1.0-2.7","73C4B5DBE2AE41128591B97CA1517324","73C4B5DBE2AE41128591B97CA1517324","3f81add8-c4c3-425c-887b-947ec66c89a1","a0a8f18c-a66e-4ba7-a170-23efbdc67501","{""participantId"":""73C4B5DBE2AE41128591B97CA1517324"",""assignmentId"":""3f81add8-c4c3-425c-887b-947ec66c89a1"",""projectId"":""a0a8f18c-a66e-4ba7-a170-23efbdc67501""}","https://test12345.live/?participantId=73C4B5DBE2AE41128591B97CA1517324&assignmentId=3f81add8-c4c3-425c-887b-947ec66c89a1&projectId=a0a8f18c-a66e-4ba7-a170-23efbdc67501","73C4B5DBE2AE41128591B97CA1517324-2024-11-24-18-51-29","","null","","[]","null","",""
"","","","","","image-button-response","113","1140726","0.0-14.0-1.0-0.8","73C4B5DBE2AE41128591B97CA1517324","73C4B5DBE2AE41128591B97CA1517324","3f81add8-c4c3-425c-887b-947ec66c89a1","a0a8f18c-a66e-4ba7-a170-23efbdc67501","{""participantId"":""73C4B5DBE2AE41128591B97CA1517324"",""assignmentId"":""3f81add8-c4c3-425c-887b-947ec66c89a1"",""projectId"":""a0a8f18c-a66e-4ba7-a170-23efbdc67501""}","https://test12345.live/?participantId=73C4B5DBE2AE41128591B97CA1517324&assignmentId=3f81add8-c4c3-425c-887b-947ec66c89a1&projectId=a0a8f18c-a66e-4ba7-a170-23efbdc67501","73C4B5DBE2AE41128591B97CA1517324-2024-11-24-18-51-29","","null","","images/schematic_sequence/flight_scheme/flight_scheme_ten.png","null","",""
"","","","","","image-button-response","114","1142346","0.0-14.0-1.0-1.8","73C4B5DBE2AE41128591B97CA1517324","73C4B5DBE2AE41128591B97CA1517324","3f81add8-c4c3-425c-887b-947ec66c89a1","a0a8f18c-a66e-4ba7-a170-23efbdc67501","{""participantId"":""73C4B5DBE2AE41128591B97CA1517324"",""assignmentId"":""3f81add8-c4c3-425c-887b-947ec66c89a1"",""projectId"":""a0a8f18c-a66e-4ba7-a170-23efbdc67501""}","https://test12345.live/?participantId=73C4B5DBE2AE41128591B97CA1517324&assignmentId=3f81add8-c4c3-425c-887b-947ec66c89a1&projectId=a0a8f18c-a66e-4ba7-a170-23efbdc67501","73C4B5DBE2AE41128591B97CA1517324-2024-11-24-18-51-29","","1617","","images/schematic_sequence/flight_scheme/flight_scheme_ten.png","0","",""
"","","","","","image-button-response","115","1144161","0.0-14.0-1.0-2.8","73C4B5DBE2AE41128591B97CA1517324","73C4B5DBE2AE41128591B97CA1517324","3f81add8-c4c3-425c-887b-947ec66c89a1","a0a8f18c-a66e-4ba7-a170-23efbdc67501","{""participantId"":""73C4B5DBE2AE41128591B97CA1517324"",""assignmentId"":""3f81add8-c4c3-425c-887b-947ec66c89a1"",""projectId"":""a0a8f18c-a66e-4ba7-a170-23efbdc67501""}","https://test12345.live/?participantId=73C4B5DBE2AE41128591B97CA1517324&assignmentId=3f81add8-c4c3-425c-887b-947ec66c89a1&projectId=a0a8f18c-a66e-4ba7-a170-23efbdc67501","73C4B5DBE2AE41128591B97CA1517324-2024-11-24-18-51-29","","null","","[]","null","",""
"","","","","","image-button-response","116","1148668","0.0-14.0-1.0-0.9","73C4B5DBE2AE41128591B97CA1517324","73C4B5DBE2AE41128591B97CA1517324","3f81add8-c4c3-425c-887b-947ec66c89a1","a0a8f18c-a66e-4ba7-a170-23efbdc67501","{""participantId"":""73C4B5DBE2AE41128591B97CA1517324"",""assignmentId"":""3f81add8-c4c3-425c-887b-947ec66c89a1"",""projectId"":""a0a8f18c-a66e-4ba7-a170-23efbdc67501""}","https://test12345.live/?participantId=73C4B5DBE2AE41128591B97CA1517324&assignmentId=3f81add8-c4c3-425c-887b-947ec66c89a1&projectId=a0a8f18c-a66e-4ba7-a170-23efbdc67501","73C4B5DBE2AE41128591B97CA1517324-2024-11-24-18-51-29","","null","","images/schematic_sequence/flight_scheme/flight_scheme_2.png","null","",""
"","","","","","image-button-response","117","1150391","0.0-14.0-1.0-1.9","73C4B5DBE2AE41128591B97CA1517324","73C4B5DBE2AE41128591B97CA1517324","3f81add8-c4c3-425c-887b-947ec66c89a1","a0a8f18c-a66e-4ba7-a170-23efbdc67501","{""participantId"":""73C4B5DBE2AE41128591B97CA1517324"",""assignmentId"":""3f81add8-c4c3-425c-887b-947ec66c89a1"",""projectId"":""a0a8f18c-a66e-4ba7-a170-23efbdc67501""}","https://test12345.live/?participantId=73C4B5DBE2AE41128591B97CA1517324&assignmentId=3f81add8-c4c3-425c-887b-947ec66c89a1&projectId=a0a8f18c-a66e-4ba7-a170-23efbdc67501","73C4B5DBE2AE41128591B97CA1517324-2024-11-24-18-51-29","","1720","","images/schematic_sequence/flight_scheme/flight_scheme_2.png","1","",""
"","","","","","image-button-response","118","1152193","0.0-14.0-1.0-2.9","73C4B5DBE2AE41128591B97CA1517324","73C4B5DBE2AE41128591B97CA1517324","3f81add8-c4c3-425c-887b-947ec66c89a1","a0a8f18c-a66e-4ba7-a170-23efbdc67501","{""participantId"":""73C4B5DBE2AE41128591B97CA1517324"",""assignmentId"":""3f81add8-c4c3-425c-887b-947ec66c89a1"",""projectId"":""a0a8f18c-a66e-4ba7-a170-23efbdc67501""}","https://test12345.live/?participantId=73C4B5DBE2AE41128591B97CA1517324&assignmentId=3f81add8-c4c3-425c-887b-947ec66c89a1&projectId=a0a8f18c-a66e-4ba7-a170-23efbdc67501","73C4B5DBE2AE41128591B97CA1517324-2024-11-24-18-51-29","","null","","[]","null","",""
"","","","","","html-audio-response","119","1189815","0.0-15.0","73C4B5DBE2AE41128591B97CA1517324","73C4B5DBE2AE41128591B97CA1517324","3f81add8-c4c3-425c-887b-947ec66c89a1","a0a8f18c-a66e-4ba7-a170-23efbdc67501","{""participantId"":""73C4B5DBE2AE41128591B97CA1517324"",""assignmentId"":""3f81add8-c4c3-425c-887b-947ec66c89a1"",""projectId"":""a0a8f18c-a66e-4ba7-a170-23efbdc67501""}","https://test12345.live/?participantId=73C4B5DBE2AE41128591B97CA1517324&assignmentId=3f81add8-c4c3-425c-887b-947ec66c89a1&projectId=a0a8f18c-a66e-4ba7-a170-23efbdc67501","73C4B5DBE2AE41128591B97CA1517324-2024-11-24-18-51-29","","16622","","[""<span style=\""color: red; font-size: 24px\""> NOW RECORDING</span><p>Please say out loud all the images you saw, as many as you can remember. The images can be said in any order.</p>""]","","3","flight_scheme"
"","","","","","image-button-response","120","1195826","0.0-16.0-0.0","73C4B5DBE2AE41128591B97CA1517324","73C4B5DBE2AE41128591B97CA1517324","3f81add8-c4c3-425c-887b-947ec66c89a1","a0a8f18c-a66e-4ba7-a170-23efbdc67501","{""participantId"":""73C4B5DBE2AE41128591B97CA1517324"",""assignmentId"":""3f81add8-c4c3-425c-887b-947ec66c89a1"",""projectId"":""a0a8f18c-a66e-4ba7-a170-23efbdc67501""}","https://test12345.live/?participantId=73C4B5DBE2AE41128591B97CA1517324&assignmentId=3f81add8-c4c3-425c-887b-947ec66c89a1&projectId=a0a8f18c-a66e-4ba7-a170-23efbdc67501","73C4B5DBE2AE41128591B97CA1517324-2024-11-24-18-51-29","","null","","images/causal_sequence/saving_a_cat_causal/saving_a_cat_causal_0.png","null","",""
"","","","","","image-button-response","121","1200339","0.0-16.0-1.0-0.0","73C4B5DBE2AE41128591B97CA1517324","73C4B5DBE2AE41128591B97CA1517324","3f81add8-c4c3-425c-887b-947ec66c89a1","a0a8f18c-a66e-4ba7-a170-23efbdc67501","{""participantId"":""73C4B5DBE2AE41128591B97CA1517324"",""assignmentId"":""3f81add8-c4c3-425c-887b-947ec66c89a1"",""projectId"":""a0a8f18c-a66e-4ba7-a170-23efbdc67501""}","https://test12345.live/?participantId=73C4B5DBE2AE41128591B97CA1517324&assignmentId=3f81add8-c4c3-425c-887b-947ec66c89a1&projectId=a0a8f18c-a66e-4ba7-a170-23efbdc67501","73C4B5DBE2AE41128591B97CA1517324-2024-11-24-18-51-29","","null","","images/causal_sequence/saving_a_cat_causal/saving_a_cat_causal_4.png","null","",""
"","","","","","image-button-response","122","1204346","0.0-16.0-1.0-1.0","73C4B5DBE2AE41128591B97CA1517324","73C4B5DBE2AE41128591B97CA1517324","3f81add8-c4c3-425c-887b-947ec66c89a1","a0a8f18c-a66e-4ba7-a170-23efbdc67501","{""participantId"":""73C4B5DBE2AE41128591B97CA1517324"",""assignmentId"":""3f81add8-c4c3-425c-887b-947ec66c89a1"",""projectId"":""a0a8f18c-a66e-4ba7-a170-23efbdc67501""}","https://test12345.live/?participantId=73C4B5DBE2AE41128591B97CA1517324&assignmentId=3f81add8-c4c3-425c-887b-947ec66c89a1&projectId=a0a8f18c-a66e-4ba7-a170-23efbdc67501","73C4B5DBE2AE41128591B97CA1517324-2024-11-24-18-51-29","","null","","images/causal_sequence/saving_a_cat_causal/saving_a_cat_causal_4.png","null","",""
"","","","","","image-button-response","123","1206151","0.0-16.0-1.0-2.0","73C4B5DBE2AE41128591B97CA1517324","73C4B5DBE2AE41128591B97CA1517324","3f81add8-c4c3-425c-887b-947ec66c89a1","a0a8f18c-a66e-4ba7-a170-23efbdc67501","{""participantId"":""73C4B5DBE2AE41128591B97CA1517324"",""assignmentId"":""3f81add8-c4c3-425c-887b-947ec66c89a1"",""projectId"":""a0a8f18c-a66e-4ba7-a170-23efbdc67501""}","https://test12345.live/?participantId=73C4B5DBE2AE41128591B97CA1517324&assignmentId=3f81add8-c4c3-425c-887b-947ec66c89a1&projectId=a0a8f18c-a66e-4ba7-a170-23efbdc67501","73C4B5DBE2AE41128591B97CA1517324-2024-11-24-18-51-29","","null","","[]","null","",""
"","","","","","image-button-response","124","1210663","0.0-16.0-1.0-0.1","73C4B5DBE2AE41128591B97CA1517324","73C4B5DBE2AE41128591B97CA1517324","3f81add8-c4c3-425c-887b-947ec66c89a1","a0a8f18c-a66e-4ba7-a170-23efbdc67501","{""participantId"":""73C4B5DBE2AE41128591B97CA1517324"",""assignmentId"":""3f81add8-c4c3-425c-887b-947ec66c89a1"",""projectId"":""a0a8f18c-a66e-4ba7-a170-23efbdc67501""}","https://test12345.live/?participantId=73C4B5DBE2AE41128591B97CA1517324&assignmentId=3f81add8-c4c3-425c-887b-947ec66c89a1&projectId=a0a8f18c-a66e-4ba7-a170-23efbdc67501","73C4B5DBE2AE41128591B97CA1517324-2024-11-24-18-51-29","","null","","images/causal_sequence/saving_a_cat_causal/saving_a_cat_causal_5.png","null","",""
"","","","","","image-button-response","125","1213313","0.0-16.0-1.0-1.1","73C4B5DBE2AE41128591B97CA1517324","73C4B5DBE2AE41128591B97CA1517324","3f81add8-c4c3-425c-887b-947ec66c89a1","a0a8f18c-a66e-4ba7-a170-23efbdc67501","{""participantId"":""73C4B5DBE2AE41128591B97CA1517324"",""assignmentId"":""3f81add8-c4c3-425c-887b-947ec66c89a1"",""projectId"":""a0a8f18c-a66e-4ba7-a170-23efbdc67501""}","https://test12345.live/?participantId=73C4B5DBE2AE41128591B97CA1517324&assignmentId=3f81add8-c4c3-425c-887b-947ec66c89a1&projectId=a0a8f18c-a66e-4ba7-a170-23efbdc67501","73C4B5DBE2AE41128591B97CA1517324-2024-11-24-18-51-29","","2647","","images/causal_sequence/saving_a_cat_causal/saving_a_cat_causal_5.png","0","",""
"","","","","","image-button-response","126","1215126","0.0-16.0-1.0-2.1","73C4B5DBE2AE41128591B97CA1517324","73C4B5DBE2AE41128591B97CA1517324","3f81add8-c4c3-425c-887b-947ec66c89a1","a0a8f18c-a66e-4ba7-a170-23efbdc67501","{""participantId"":""73C4B5DBE2AE41128591B97CA1517324"",""assignmentId"":""3f81add8-c4c3-425c-887b-947ec66c89a1"",""projectId"":""a0a8f18c-a66e-4ba7-a170-23efbdc67501""}","https://test12345.live/?participantId=73C4B5DBE2AE41128591B97CA1517324&assignmentId=3f81add8-c4c3-425c-887b-947ec66c89a1&projectId=a0a8f18c-a66e-4ba7-a170-23efbdc67501","73C4B5DBE2AE41128591B97CA1517324-2024-11-24-18-51-29","","null","","[]","null","",""
"","","","","","image-button-response","127","1219632","0.0-16.0-1.0-0.2","73C4B5DBE2AE41128591B97CA1517324","73C4B5DBE2AE41128591B97CA1517324","3f81add8-c4c3-425c-887b-947ec66c89a1","a0a8f18c-a66e-4ba7-a170-23efbdc67501","{""participantId"":""73C4B5DBE2AE41128591B97CA1517324"",""assignmentId"":""3f81add8-c4c3-425c-887b-947ec66c89a1"",""projectId"":""a0a8f18c-a66e-4ba7-a170-23efbdc67501""}","https://test12345.live/?participantId=73C4B5DBE2AE41128591B97CA1517324&assignmentId=3f81add8-c4c3-425c-887b-947ec66c89a1&projectId=a0a8f18c-a66e-4ba7-a170-23efbdc67501","73C4B5DBE2AE41128591B97CA1517324-2024-11-24-18-51-29","","null","","images/causal_sequence/saving_a_cat_causal/saving_a_cat_causal_6.png","null","",""
"","","","","","image-button-response","128","1221319","0.0-16.0-1.0-1.2","73C4B5DBE2AE41128591B97CA1517324","73C4B5DBE2AE41128591B97CA1517324","3f81add8-c4c3-425c-887b-947ec66c89a1","a0a8f18c-a66e-4ba7-a170-23efbdc67501","{""participantId"":""73C4B5DBE2AE41128591B97CA1517324"",""assignmentId"":""3f81add8-c4c3-425c-887b-947ec66c89a1"",""projectId"":""a0a8f18c-a66e-4ba7-a170-23efbdc67501""}","https://test12345.live/?participantId=73C4B5DBE2AE41128591B97CA1517324&assignmentId=3f81add8-c4c3-425c-887b-947ec66c89a1&projectId=a0a8f18c-a66e-4ba7-a170-23efbdc67501","73C4B5DBE2AE41128591B97CA1517324-2024-11-24-18-51-29","","1684","","images/causal_sequence/saving_a_cat_causal/saving_a_cat_causal_6.png","0","",""
"","","","","","image-button-response","129","1223125","0.0-16.0-1.0-2.2","73C4B5DBE2AE41128591B97CA1517324","73C4B5DBE2AE41128591B97CA1517324","3f81add8-c4c3-425c-887b-947ec66c89a1","a0a8f18c-a66e-4ba7-a170-23efbdc67501","{""participantId"":""73C4B5DBE2AE41128591B97CA1517324"",""assignmentId"":""3f81add8-c4c3-425c-887b-947ec66c89a1"",""projectId"":""a0a8f18c-a66e-4ba7-a170-23efbdc67501""}","https://test12345.live/?participantId=73C4B5DBE2AE41128591B97CA1517324&assignmentId=3f81add8-c4c3-425c-887b-947ec66c89a1&projectId=a0a8f18c-a66e-4ba7-a170-23efbdc67501","73C4B5DBE2AE41128591B97CA1517324-2024-11-24-18-51-29","","null","","[]","null","",""
"","","","","","image-button-response","130","1227635","0.0-16.0-1.0-0.3","73C4B5DBE2AE41128591B97CA1517324","73C4B5DBE2AE41128591B97CA1517324","3f81add8-c4c3-425c-887b-947ec66c89a1","a0a8f18c-a66e-4ba7-a170-23efbdc67501","{""participantId"":""73C4B5DBE2AE41128591B97CA1517324"",""assignmentId"":""3f81add8-c4c3-425c-887b-947ec66c89a1"",""projectId"":""a0a8f18c-a66e-4ba7-a170-23efbdc67501""}","https://test12345.live/?participantId=73C4B5DBE2AE41128591B97CA1517324&assignmentId=3f81add8-c4c3-425c-887b-947ec66c89a1&projectId=a0a8f18c-a66e-4ba7-a170-23efbdc67501","73C4B5DBE2AE41128591B97CA1517324-2024-11-24-18-51-29","","null","","images/causal_sequence/saving_a_cat_causal/saving_a_cat_causal_ten.png","null","",""
"","","","","","image-button-response","131","1231521","0.0-16.0-1.0-1.3","73C4B5DBE2AE41128591B97CA1517324","73C4B5DBE2AE41128591B97CA1517324","3f81add8-c4c3-425c-887b-947ec66c89a1","a0a8f18c-a66e-4ba7-a170-23efbdc67501","{""participantId"":""73C4B5DBE2AE41128591B97CA1517324"",""assignmentId"":""3f81add8-c4c3-425c-887b-947ec66c89a1"",""projectId"":""a0a8f18c-a66e-4ba7-a170-23efbdc67501""}","https://test12345.live/?participantId=73C4B5DBE2AE41128591B97CA1517324&assignmentId=3f81add8-c4c3-425c-887b-947ec66c89a1&projectId=a0a8f18c-a66e-4ba7-a170-23efbdc67501","73C4B5DBE2AE41128591B97CA1517324-2024-11-24-18-51-29","","3882","","images/causal_sequence/saving_a_cat_causal/saving_a_cat_causal_ten.png","0","",""
"","","","","","image-button-response","132","1233328","0.0-16.0-1.0-2.3","73C4B5DBE2AE41128591B97CA1517324","73C4B5DBE2AE41128591B97CA1517324","3f81add8-c4c3-425c-887b-947ec66c89a1","a0a8f18c-a66e-4ba7-a170-23efbdc67501","{""participantId"":""73C4B5DBE2AE41128591B97CA1517324"",""assignmentId"":""3f81add8-c4c3-425c-887b-947ec66c89a1"",""projectId"":""a0a8f18c-a66e-4ba7-a170-23efbdc67501""}","https://test12345.live/?participantId=73C4B5DBE2AE41128591B97CA1517324&assignmentId=3f81add8-c4c3-425c-887b-947ec66c89a1&projectId=a0a8f18c-a66e-4ba7-a170-23efbdc67501","73C4B5DBE2AE41128591B97CA1517324-2024-11-24-18-51-29","","null","","[]","null","",""
"","","","","","image-button-response","133","1237841","0.0-16.0-1.0-0.4","73C4B5DBE2AE41128591B97CA1517324","73C4B5DBE2AE41128591B97CA1517324","3f81add8-c4c3-425c-887b-947ec66c89a1","a0a8f18c-a66e-4ba7-a170-23efbdc67501","{""participantId"":""73C4B5DBE2AE41128591B97CA1517324"",""assignmentId"":""3f81add8-c4c3-425c-887b-947ec66c89a1"",""projectId"":""a0a8f18c-a66e-4ba7-a170-23efbdc67501""}","https://test12345.live/?participantId=73C4B5DBE2AE41128591B97CA1517324&assignmentId=3f81add8-c4c3-425c-887b-947ec66c89a1&projectId=a0a8f18c-a66e-4ba7-a170-23efbdc67501","73C4B5DBE2AE41128591B97CA1517324-2024-11-24-18-51-29","","null","","images/causal_sequence/saving_a_cat_causal/saving_a_cat_causal_9.png","null","",""
"","","","","","image-button-response","134","1239478","0.0-16.0-1.0-1.4","73C4B5DBE2AE41128591B97CA1517324","73C4B5DBE2AE41128591B97CA1517324","3f81add8-c4c3-425c-887b-947ec66c89a1","a0a8f18c-a66e-4ba7-a170-23efbdc67501","{""participantId"":""73C4B5DBE2AE41128591B97CA1517324"",""assignmentId"":""3f81add8-c4c3-425c-887b-947ec66c89a1"",""projectId"":""a0a8f18c-a66e-4ba7-a170-23efbdc67501""}","https://test12345.live/?participantId=73C4B5DBE2AE41128591B97CA1517324&assignmentId=3f81add8-c4c3-425c-887b-947ec66c89a1&projectId=a0a8f18c-a66e-4ba7-a170-23efbdc67501","73C4B5DBE2AE41128591B97CA1517324-2024-11-24-18-51-29","","1634","","images/causal_sequence/saving_a_cat_causal/saving_a_cat_causal_9.png","0","",""
"","","","","","image-button-response","135","1241281","0.0-16.0-1.0-2.4","73C4B5DBE2AE41128591B97CA1517324","73C4B5DBE2AE41128591B97CA1517324","3f81add8-c4c3-425c-887b-947ec66c89a1","a0a8f18c-a66e-4ba7-a170-23efbdc67501","{""participantId"":""73C4B5DBE2AE41128591B97CA1517324"",""assignmentId"":""3f81add8-c4c3-425c-887b-947ec66c89a1"",""projectId"":""a0a8f18c-a66e-4ba7-a170-23efbdc67501""}","https://test12345.live/?participantId=73C4B5DBE2AE41128591B97CA1517324&assignmentId=3f81add8-c4c3-425c-887b-947ec66c89a1&projectId=a0a8f18c-a66e-4ba7-a170-23efbdc67501","73C4B5DBE2AE41128591B97CA1517324-2024-11-24-18-51-29","","null","","[]","null","",""
"","","","","","image-button-response","136","1245791","0.0-16.0-1.0-0.5","73C4B5DBE2AE41128591B97CA1517324","73C4B5DBE2AE41128591B97CA1517324","3f81add8-c4c3-425c-887b-947ec66c89a1","a0a8f18c-a66e-4ba7-a170-23efbdc67501","{""participantId"":""73C4B5DBE2AE41128591B97CA1517324"",""assignmentId"":""3f81add8-c4c3-425c-887b-947ec66c89a1"",""projectId"":""a0a8f18c-a66e-4ba7-a170-23efbdc67501""}","https://test12345.live/?participantId=73C4B5DBE2AE41128591B97CA1517324&assignmentId=3f81add8-c4c3-425c-887b-947ec66c89a1&projectId=a0a8f18c-a66e-4ba7-a170-23efbdc67501","73C4B5DBE2AE41128591B97CA1517324-2024-11-24-18-51-29","","null","","images/causal_sequence/saving_a_cat_causal/saving_a_cat_causal_2.png","null","",""
"","","","","","image-button-response","137","1247211","0.0-16.0-1.0-1.5","73C4B5DBE2AE41128591B97CA1517324","73C4B5DBE2AE41128591B97CA1517324","3f81add8-c4c3-425c-887b-947ec66c89a1","a0a8f18c-a66e-4ba7-a170-23efbdc67501","{""participantId"":""73C4B5DBE2AE41128591B97CA1517324"",""assignmentId"":""3f81add8-c4c3-425c-887b-947ec66c89a1"",""projectId"":""a0a8f18c-a66e-4ba7-a170-23efbdc67501""}","https://test12345.live/?participantId=73C4B5DBE2AE41128591B97CA1517324&assignmentId=3f81add8-c4c3-425c-887b-947ec66c89a1&projectId=a0a8f18c-a66e-4ba7-a170-23efbdc67501","73C4B5DBE2AE41128591B97CA1517324-2024-11-24-18-51-29","","1416","","images/causal_sequence/saving_a_cat_causal/saving_a_cat_causal_2.png","1","",""
"","","","","","image-button-response","138","1249025","0.0-16.0-1.0-2.5","73C4B5DBE2AE41128591B97CA1517324","73C4B5DBE2AE41128591B97CA1517324","3f81add8-c4c3-425c-887b-947ec66c89a1","a0a8f18c-a66e-4ba7-a170-23efbdc67501","{""participantId"":""73C4B5DBE2AE41128591B97CA1517324"",""assignmentId"":""3f81add8-c4c3-425c-887b-947ec66c89a1"",""projectId"":""a0a8f18c-a66e-4ba7-a170-23efbdc67501""}","https://test12345.live/?participantId=73C4B5DBE2AE41128591B97CA1517324&assignmentId=3f81add8-c4c3-425c-887b-947ec66c89a1&projectId=a0a8f18c-a66e-4ba7-a170-23efbdc67501","73C4B5DBE2AE41128591B97CA1517324-2024-11-24-18-51-29","","null","","[]","null","",""
"","","","","","image-button-response","139","1253529","0.0-16.0-1.0-0.6","73C4B5DBE2AE41128591B97CA1517324","73C4B5DBE2AE41128591B97CA1517324","3f81add8-c4c3-425c-887b-947ec66c89a1","a0a8f18c-a66e-4ba7-a170-23efbdc67501","{""participantId"":""73C4B5DBE2AE41128591B97CA1517324"",""assignmentId"":""3f81add8-c4c3-425c-887b-947ec66c89a1"",""projectId"":""a0a8f18c-a66e-4ba7-a170-23efbdc67501""}","https://test12345.live/?participantId=73C4B5DBE2AE41128591B97CA1517324&assignmentId=3f81add8-c4c3-425c-887b-947ec66c89a1&projectId=a0a8f18c-a66e-4ba7-a170-23efbdc67501","73C4B5DBE2AE41128591B97CA1517324-2024-11-24-18-51-29","","null","","images/causal_sequence/saving_a_cat_causal/saving_a_cat_causal_1.png","null","",""
"","","","","","image-button-response","140","1255033","0.0-16.0-1.0-1.6","73C4B5DBE2AE41128591B97CA1517324","73C4B5DBE2AE41128591B97CA1517324","3f81add8-c4c3-425c-887b-947ec66c89a1","a0a8f18c-a66e-4ba7-a170-23efbdc67501","{""participantId"":""73C4B5DBE2AE41128591B97CA1517324"",""assignmentId"":""3f81add8-c4c3-425c-887b-947ec66c89a1"",""projectId"":""a0a8f18c-a66e-4ba7-a170-23efbdc67501""}","https://test12345.live/?participantId=73C4B5DBE2AE41128591B97CA1517324&assignmentId=3f81add8-c4c3-425c-887b-947ec66c89a1&projectId=a0a8f18c-a66e-4ba7-a170-23efbdc67501","73C4B5DBE2AE41128591B97CA1517324-2024-11-24-18-51-29","","1502","","images/causal_sequence/saving_a_cat_causal/saving_a_cat_causal_1.png","0","",""
"","","","","","image-button-response","141","1256839","0.0-16.0-1.0-2.6","73C4B5DBE2AE41128591B97CA1517324","73C4B5DBE2AE41128591B97CA1517324","3f81add8-c4c3-425c-887b-947ec66c89a1","a0a8f18c-a66e-4ba7-a170-23efbdc67501","{""participantId"":""73C4B5DBE2AE41128591B97CA1517324"",""assignmentId"":""3f81add8-c4c3-425c-887b-947ec66c89a1"",""projectId"":""a0a8f18c-a66e-4ba7-a170-23efbdc67501""}","https://test12345.live/?participantId=73C4B5DBE2AE41128591B97CA1517324&assignmentId=3f81add8-c4c3-425c-887b-947ec66c89a1&projectId=a0a8f18c-a66e-4ba7-a170-23efbdc67501","73C4B5DBE2AE41128591B97CA1517324-2024-11-24-18-51-29","","null","","[]","null","",""
"","","","","","image-button-response","142","1261355","0.0-16.0-1.0-0.7","73C4B5DBE2AE41128591B97CA1517324","73C4B5DBE2AE41128591B97CA1517324","3f81add8-c4c3-425c-887b-947ec66c89a1","a0a8f18c-a66e-4ba7-a170-23efbdc67501","{""participantId"":""73C4B5DBE2AE41128591B97CA1517324"",""assignmentId"":""3f81add8-c4c3-425c-887b-947ec66c89a1"",""projectId"":""a0a8f18c-a66e-4ba7-a170-23efbdc67501""}","https://test12345.live/?participantId=73C4B5DBE2AE41128591B97CA1517324&assignmentId=3f81add8-c4c3-425c-887b-947ec66c89a1&projectId=a0a8f18c-a66e-4ba7-a170-23efbdc67501","73C4B5DBE2AE41128591B97CA1517324-2024-11-24-18-51-29","","null","","images/causal_sequence/saving_a_cat_causal/saving_a_cat_causal_8.png","null","",""
"","","","","","image-button-response","143","1263406","0.0-16.0-1.0-1.7","73C4B5DBE2AE41128591B97CA1517324","73C4B5DBE2AE41128591B97CA1517324","3f81add8-c4c3-425c-887b-947ec66c89a1","a0a8f18c-a66e-4ba7-a170-23efbdc67501","{""participantId"":""73C4B5DBE2AE41128591B97CA1517324"",""assignmentId"":""3f81add8-c4c3-425c-887b-947ec66c89a1"",""projectId"":""a0a8f18c-a66e-4ba7-a170-23efbdc67501""}","https://test12345.live/?participantId=73C4B5DBE2AE41128591B97CA1517324&assignmentId=3f81add8-c4c3-425c-887b-947ec66c89a1&projectId=a0a8f18c-a66e-4ba7-a170-23efbdc67501","73C4B5DBE2AE41128591B97CA1517324-2024-11-24-18-51-29","","2049","","images/causal_sequence/saving_a_cat_causal/saving_a_cat_causal_8.png","0","",""
