"success","timeout","failed_images","failed_audio","failed_video","trial_type","trial_index","time_elapsed","internal_node_id","subject","subject_id","study_id","session_id","urlvar","current_url","audio_id","view_history","rt","device_id","stimulus","response","estimated_stimulus_onset","seq_name"
"true","false","[]","[]","[]","preload","0","8319","0.0-0.0","73DE64120BC64CAE8547ABCF5AA238D5","73DE64120BC64CAE8547ABCF5AA238D5","0198bcce-acdb-7b3a-825c-64d35d4e1900","0198bbb8-fd11-701d-9147-68794ad37298","{""num_scrambled_semantic"":""8"",""num_scrambled_causal"":""4"",""num_scrambled_schematic"":""4"",""participantId"":""73DE64120BC64CAE8547ABCF5AA238D5"",""assignmentId"":""0198bcce-acdb-7b3a-825c-64d35d4e1900"",""projectId"":""0198bbb8-fd11-701d-9147-68794ad37298""}","https://test12345.live/?num_scrambled_semantic=8&num_scrambled_causal=4&num_scrambled_schematic=4&participantId=73DE64120BC64CAE8547ABCF5AA238D5&assignmentId=0198bcce-acdb-7b3a-825c-64d35d4e1900&projectId=0198bbb8-fd11-701d-9147-68794ad37298","73DE64120BC64CAE8547ABCF5AA238D5-2025-08-18-11-25-44","","","","","","",""
"","","","","","instructions","1","20059","0.0-1.0","73DE64120BC64CAE8547ABCF5AA238D5","73DE64120BC64CAE8547ABCF5AA238D5","0198bcce-acdb-7b3a-825c-64d35d4e1900","0198bbb8-fd11-701d-9147-68794ad37298","{""num_scrambled_semantic"":""8"",""num_scrambled_causal"":""4"",""num_scrambled_schematic"":""4"",""participantId"":""73DE64120BC64CAE8547ABCF5AA238D5"",""assignmentId"":""0198bcce-acdb-7b3a-825c-64d35d4e1900"",""projectId"":""0198bbb8-fd11-701d-9147-68794ad37298""}","https://test12345.live/?num_scrambled_semantic=8&num_scrambled_causal=4&num_scrambled_schematic=4&participantId=73DE64120BC64CAE8547ABCF5AA238D5&assignmentId=0198bcce-acdb-7b3a-825c-64d35d4e1900&projectId=0198bbb8-fd11-701d-9147-68794ad37298","73DE64120BC64CAE8547ABCF5AA238D5-2025-08-18-11-25-44","[{""page_index"":0,""viewing_time"":11739}]","11739","","","","",""
"","","","","","instructions","2","22588","0.0-2.0","73DE64120BC64CAE8547ABCF5AA238D5","73DE64120BC64CAE8547ABCF5AA238D5","0198bcce-acdb-7b3a-825c-64d35d4e1900","0198bbb8-fd11-701d-9147-68794ad37298","{""num_scrambled_semantic"":""8"",""num_scrambled_causal"":""4"",""num_scrambled_schematic"":""4"",""participantId"":""73DE64120BC64CAE8547ABCF5AA238D5"",""assignmentId"":""0198bcce-acdb-7b3a-825c-64d35d4e1900"",""projectId"":""0198bbb8-fd11-701d-9147-68794ad37298""}","https://test12345.live/?num_scrambled_semantic=8&num_scrambled_causal=4&num_scrambled_schematic=4&participantId=73DE64120BC64CAE8547ABCF5AA238D5&assignmentId=0198bcce-acdb-7b3a-825c-64d35d4e1900&projectId=0198bbb8-fd11-701d-9147-68794ad37298","73DE64120BC64CAE8547ABCF5AA238D5-2025-08-18-11-25-44","[{""page_index"":0,""viewing_time"":2529}]","2529","","","","",""
"true","","","","","fullscreen","3","24700","0.0-3.0","73DE64120BC64CAE8547ABCF5AA238D5","73DE64120BC64CAE8547ABCF5AA238D5","0198bcce-acdb-7b3a-825c-64d35d4e1900","0198bbb8-fd11-701d-9147-68794ad37298","{""num_scrambled_semantic"":""8"",""num_scrambled_causal"":""4"",""num_scrambled_schematic"":""4"",""participantId"":""73DE64120BC64CAE8547ABCF5AA238D5"",""assignmentId"":""0198bcce-acdb-7b3a-825c-64d35d4e1900"",""projectId"":""0198bbb8-fd11-701d-9147-68794ad37298""}","https://test12345.live/?num_scrambled_semantic=8&num_scrambled_causal=4&num_scrambled_schematic=4&participantId=73DE64120BC64CAE8547ABCF5AA238D5&assignmentId=0198bcce-acdb-7b3a-825c-64d35d4e1900&projectId=0198bbb8-fd11-701d-9147-68794ad37298","73DE64120BC64CAE8547ABCF5AA238D5-2025-08-18-11-25-44","","1074","","","","",""
"","","","","","initialize-microphone","4","31390","0.0-4.0-0.0","73DE64120BC64CAE8547ABCF5AA238D5","73DE64120BC64CAE8547ABCF5AA238D5","0198bcce-acdb-7b3a-825c-64d35d4e1900","0198bbb8-fd11-701d-9147-68794ad37298","{""num_scrambled_semantic"":""8"",""num_scrambled_causal"":""4"",""num_scrambled_schematic"":""4"",""participantId"":""73DE64120BC64CAE8547ABCF5AA238D5"",""assignmentId"":""0198bcce-acdb-7b3a-825c-64d35d4e1900"",""projectId"":""0198bbb8-fd11-701d-9147-68794ad37298""}","https://test12345.live/?num_scrambled_semantic=8&num_scrambled_causal=4&num_scrambled_schematic=4&participantId=73DE64120BC64CAE8547ABCF5AA238D5&assignmentId=0198bcce-acdb-7b3a-825c-64d35d4e1900&projectId=0198bbb8-fd11-701d-9147-68794ad37298","73DE64120BC64CAE8547ABCF5AA238D5-2025-08-18-11-25-44","","","b137c7f40fd404427208aded4af015693b7e9dfc4733cec3587ae9f5f9603880","","","",""
"","","","","","html-audio-response","5","39860","0.0-4.0-1.0","73DE64120BC64CAE8547ABCF5AA238D5","73DE64120BC64CAE8547ABCF5AA238D5","0198bcce-acdb-7b3a-825c-64d35d4e1900","0198bbb8-fd11-701d-9147-68794ad37298","{""num_scrambled_semantic"":""8"",""num_scrambled_causal"":""4"",""num_scrambled_schematic"":""4"",""participantId"":""73DE64120BC64CAE8547ABCF5AA238D5"",""assignmentId"":""0198bcce-acdb-7b3a-825c-64d35d4e1900"",""projectId"":""0198bbb8-fd11-701d-9147-68794ad37298""}","https://test12345.live/?num_scrambled_semantic=8&num_scrambled_causal=4&num_scrambled_schematic=4&participantId=73DE64120BC64CAE8547ABCF5AA238D5&assignmentId=0198bcce-acdb-7b3a-825c-64d35d4e1900&projectId=0198bbb8-fd11-701d-9147-68794ad37298","73DE64120BC64CAE8547ABCF5AA238D5-2025-08-18-11-25-44","","3531","","<span style=""color: red; font-size: 24px""> NOW RECORDING</span>
        <p>Please test Microphone</p>","","3",""
"","","","","","html-button-response","6","41032","0.0-4.0-2.0","73DE64120BC64CAE8547ABCF5AA238D5","73DE64120BC64CAE8547ABCF5AA238D5","0198bcce-acdb-7b3a-825c-64d35d4e1900","0198bbb8-fd11-701d-9147-68794ad37298","{""num_scrambled_semantic"":""8"",""num_scrambled_causal"":""4"",""num_scrambled_schematic"":""4"",""participantId"":""73DE64120BC64CAE8547ABCF5AA238D5"",""assignmentId"":""0198bcce-acdb-7b3a-825c-64d35d4e1900"",""projectId"":""0198bbb8-fd11-701d-9147-68794ad37298""}","https://test12345.live/?num_scrambled_semantic=8&num_scrambled_causal=4&num_scrambled_schematic=4&participantId=73DE64120BC64CAE8547ABCF5AA238D5&assignmentId=0198bcce-acdb-7b3a-825c-64d35d4e1900&projectId=0198bbb8-fd11-701d-9147-68794ad37298","73DE64120BC64CAE8547ABCF5AA238D5-2025-08-18-11-25-44","","1171","","<p style=""font-size:48px; color:red;"">Is Microphone OK?</p>","1","",""
"","","","","","instructions","7","305655","0.0-5.0","73DE64120BC64CAE8547ABCF5AA238D5","73DE64120BC64CAE8547ABCF5AA238D5","0198bcce-acdb-7b3a-825c-64d35d4e1900","0198bbb8-fd11-701d-9147-68794ad37298","{""num_scrambled_semantic"":""8"",""num_scrambled_causal"":""4"",""num_scrambled_schematic"":""4"",""participantId"":""73DE64120BC64CAE8547ABCF5AA238D5"",""assignmentId"":""0198bcce-acdb-7b3a-825c-64d35d4e1900"",""projectId"":""0198bbb8-fd11-701d-9147-68794ad37298""}","https://test12345.live/?num_scrambled_semantic=8&num_scrambled_causal=4&num_scrambled_schematic=4&participantId=73DE64120BC64CAE8547ABCF5AA238D5&assignmentId=0198bcce-acdb-7b3a-825c-64d35d4e1900&projectId=0198bbb8-fd11-701d-9147-68794ad37298","73DE64120BC64CAE8547ABCF5AA238D5-2025-08-18-11-25-44","[{""page_index"":0,""viewing_time"":258657},{""page_index"":1,""viewing_time"":5965}]","264622","","","","",""
"","","","","","image-button-response","8","311672","0.0-6.0-0.0","73DE64120BC64CAE8547ABCF5AA238D5","73DE64120BC64CAE8547ABCF5AA238D5","0198bcce-acdb-7b3a-825c-64d35d4e1900","0198bbb8-fd11-701d-9147-68794ad37298","{""num_scrambled_semantic"":""8"",""num_scrambled_causal"":""4"",""num_scrambled_schematic"":""4"",""participantId"":""73DE64120BC64CAE8547ABCF5AA238D5"",""assignmentId"":""0198bcce-acdb-7b3a-825c-64d35d4e1900"",""projectId"":""0198bbb8-fd11-701d-9147-68794ad37298""}","https://test12345.live/?num_scrambled_semantic=8&num_scrambled_causal=4&num_scrambled_schematic=4&participantId=73DE64120BC64CAE8547ABCF5AA238D5&assignmentId=0198bcce-acdb-7b3a-825c-64d35d4e1900&projectId=0198bbb8-fd11-701d-9147-68794ad37298","73DE64120BC64CAE8547ABCF5AA238D5-2025-08-18-11-25-44","","null","","images/instructions/movie_0.png","null","",""
"","","","","","image-button-response","9","316178","0.0-6.0-1.0-0.0","73DE64120BC64CAE8547ABCF5AA238D5","73DE64120BC64CAE8547ABCF5AA238D5","0198bcce-acdb-7b3a-825c-64d35d4e1900","0198bbb8-fd11-701d-9147-68794ad37298","{""num_scrambled_semantic"":""8"",""num_scrambled_causal"":""4"",""num_scrambled_schematic"":""4"",""participantId"":""73DE64120BC64CAE8547ABCF5AA238D5"",""assignmentId"":""0198bcce-acdb-7b3a-825c-64d35d4e1900"",""projectId"":""0198bbb8-fd11-701d-9147-68794ad37298""}","https://test12345.live/?num_scrambled_semantic=8&num_scrambled_causal=4&num_scrambled_schematic=4&participantId=73DE64120BC64CAE8547ABCF5AA238D5&assignmentId=0198bcce-acdb-7b3a-825c-64d35d4e1900&projectId=0198bbb8-fd11-701d-9147-68794ad37298","73DE64120BC64CAE8547ABCF5AA238D5-2025-08-18-11-25-44","","null","","images/instructions/movie_1.png","null","",""
"","","","","","image-button-response","10","318801","0.0-6.0-1.0-1.0","73DE64120BC64CAE8547ABCF5AA238D5","73DE64120BC64CAE8547ABCF5AA238D5","0198bcce-acdb-7b3a-825c-64d35d4e1900","0198bbb8-fd11-701d-9147-68794ad37298","{""num_scrambled_semantic"":""8"",""num_scrambled_causal"":""4"",""num_scrambled_schematic"":""4"",""participantId"":""73DE64120BC64CAE8547ABCF5AA238D5"",""assignmentId"":""0198bcce-acdb-7b3a-825c-64d35d4e1900"",""projectId"":""0198bbb8-fd11-701d-9147-68794ad37298""}","https://test12345.live/?num_scrambled_semantic=8&num_scrambled_causal=4&num_scrambled_schematic=4&participantId=73DE64120BC64CAE8547ABCF5AA238D5&assignmentId=0198bcce-acdb-7b3a-825c-64d35d4e1900&projectId=0198bbb8-fd11-701d-9147-68794ad37298","73DE64120BC64CAE8547ABCF5AA238D5-2025-08-18-11-25-44","","2622","","images/instructions/movie_1.png","0","",""
"","","","","","image-button-response","11","329618","0.0-6.0-1.0-2.0","73DE64120BC64CAE8547ABCF5AA238D5","73DE64120BC64CAE8547ABCF5AA238D5","0198bcce-acdb-7b3a-825c-64d35d4e1900","0198bbb8-fd11-701d-9147-68794ad37298","{""num_scrambled_semantic"":""8"",""num_scrambled_causal"":""4"",""num_scrambled_schematic"":""4"",""participantId"":""73DE64120BC64CAE8547ABCF5AA238D5"",""assignmentId"":""0198bcce-acdb-7b3a-825c-64d35d4e1900"",""projectId"":""0198bbb8-fd11-701d-9147-68794ad37298""}","https://test12345.live/?num_scrambled_semantic=8&num_scrambled_causal=4&num_scrambled_schematic=4&participantId=73DE64120BC64CAE8547ABCF5AA238D5&assignmentId=0198bcce-acdb-7b3a-825c-64d35d4e1900&projectId=0198bbb8-fd11-701d-9147-68794ad37298","73DE64120BC64CAE8547ABCF5AA238D5-2025-08-18-11-25-44","","null","","[]","null","",""
"","","","","","image-button-response","12","334131","0.0-6.0-1.0-0.1","73DE64120BC64CAE8547ABCF5AA238D5","73DE64120BC64CAE8547ABCF5AA238D5","0198bcce-acdb-7b3a-825c-64d35d4e1900","0198bbb8-fd11-701d-9147-68794ad37298","{""num_scrambled_semantic"":""8"",""num_scrambled_causal"":""4"",""num_scrambled_schematic"":""4"",""participantId"":""73DE64120BC64CAE8547ABCF5AA238D5"",""assignmentId"":""0198bcce-acdb-7b3a-825c-64d35d4e1900"",""projectId"":""0198bbb8-fd11-701d-9147-68794ad37298""}","https://test12345.live/?num_scrambled_semantic=8&num_scrambled_causal=4&num_scrambled_schematic=4&participantId=73DE64120BC64CAE8547ABCF5AA238D5&assignmentId=0198bcce-acdb-7b3a-825c-64d35d4e1900&projectId=0198bbb8-fd11-701d-9147-68794ad37298","73DE64120BC64CAE8547ABCF5AA238D5-2025-08-18-11-25-44","","null","","images/instructions/movie_2.png","null","",""
"","","","","","image-button-response","13","336641","0.0-6.0-1.0-1.1","73DE64120BC64CAE8547ABCF5AA238D5","73DE64120BC64CAE8547ABCF5AA238D5","0198bcce-acdb-7b3a-825c-64d35d4e1900","0198bbb8-fd11-701d-9147-68794ad37298","{""num_scrambled_semantic"":""8"",""num_scrambled_causal"":""4"",""num_scrambled_schematic"":""4"",""participantId"":""73DE64120BC64CAE8547ABCF5AA238D5"",""assignmentId"":""0198bcce-acdb-7b3a-825c-64d35d4e1900"",""projectId"":""0198bbb8-fd11-701d-9147-68794ad37298""}","https://test12345.live/?num_scrambled_semantic=8&num_scrambled_causal=4&num_scrambled_schematic=4&participantId=73DE64120BC64CAE8547ABCF5AA238D5&assignmentId=0198bcce-acdb-7b3a-825c-64d35d4e1900&projectId=0198bbb8-fd11-701d-9147-68794ad37298","73DE64120BC64CAE8547ABCF5AA238D5-2025-08-18-11-25-44","","2509","","images/instructions/movie_2.png","1","",""
"","","","","","image-button-response","14","347444","0.0-6.0-1.0-2.1","73DE64120BC64CAE8547ABCF5AA238D5","73DE64120BC64CAE8547ABCF5AA238D5","0198bcce-acdb-7b3a-825c-64d35d4e1900","0198bbb8-fd11-701d-9147-68794ad37298","{""num_scrambled_semantic"":""8"",""num_scrambled_causal"":""4"",""num_scrambled_schematic"":""4"",""participantId"":""73DE64120BC64CAE8547ABCF5AA238D5"",""assignmentId"":""0198bcce-acdb-7b3a-825c-64d35d4e1900"",""projectId"":""0198bbb8-fd11-701d-9147-68794ad37298""}","https://test12345.live/?num_scrambled_semantic=8&num_scrambled_causal=4&num_scrambled_schematic=4&participantId=73DE64120BC64CAE8547ABCF5AA238D5&assignmentId=0198bcce-acdb-7b3a-825c-64d35d4e1900&projectId=0198bbb8-fd11-701d-9147-68794ad37298","73DE64120BC64CAE8547ABCF5AA238D5-2025-08-18-11-25-44","","null","","[]","null","",""
"","","","","","image-button-response","15","351948","0.0-6.0-1.0-0.2","73DE64120BC64CAE8547ABCF5AA238D5","73DE64120BC64CAE8547ABCF5AA238D5","0198bcce-acdb-7b3a-825c-64d35d4e1900","0198bbb8-fd11-701d-9147-68794ad37298","{""num_scrambled_semantic"":""8"",""num_scrambled_causal"":""4"",""num_scrambled_schematic"":""4"",""participantId"":""73DE64120BC64CAE8547ABCF5AA238D5"",""assignmentId"":""0198bcce-acdb-7b3a-825c-64d35d4e1900"",""projectId"":""0198bbb8-fd11-701d-9147-68794ad37298""}","https://test12345.live/?num_scrambled_semantic=8&num_scrambled_causal=4&num_scrambled_schematic=4&participantId=73DE64120BC64CAE8547ABCF5AA238D5&assignmentId=0198bcce-acdb-7b3a-825c-64d35d4e1900&projectId=0198bbb8-fd11-701d-9147-68794ad37298","73DE64120BC64CAE8547ABCF5AA238D5-2025-08-18-11-25-44","","null","","images/instructions/movie_3.png","null","",""
"","","","","","image-button-response","16","354711","0.0-6.0-1.0-1.2","73DE64120BC64CAE8547ABCF5AA238D5","73DE64120BC64CAE8547ABCF5AA238D5","0198bcce-acdb-7b3a-825c-64d35d4e1900","0198bbb8-fd11-701d-9147-68794ad37298","{""num_scrambled_semantic"":""8"",""num_scrambled_causal"":""4"",""num_scrambled_schematic"":""4"",""participantId"":""73DE64120BC64CAE8547ABCF5AA238D5"",""assignmentId"":""0198bcce-acdb-7b3a-825c-64d35d4e1900"",""projectId"":""0198bbb8-fd11-701d-9147-68794ad37298""}","https://test12345.live/?num_scrambled_semantic=8&num_scrambled_causal=4&num_scrambled_schematic=4&participantId=73DE64120BC64CAE8547ABCF5AA238D5&assignmentId=0198bcce-acdb-7b3a-825c-64d35d4e1900&projectId=0198bbb8-fd11-701d-9147-68794ad37298","73DE64120BC64CAE8547ABCF5AA238D5-2025-08-18-11-25-44","","2762","","images/instructions/movie_3.png","0","",""
"","","","","","image-button-response","17","365528","0.0-6.0-1.0-2.2","73DE64120BC64CAE8547ABCF5AA238D5","73DE64120BC64CAE8547ABCF5AA238D5","0198bcce-acdb-7b3a-825c-64d35d4e1900","0198bbb8-fd11-701d-9147-68794ad37298","{""num_scrambled_semantic"":""8"",""num_scrambled_causal"":""4"",""num_scrambled_schematic"":""4"",""participantId"":""73DE64120BC64CAE8547ABCF5AA238D5"",""assignmentId"":""0198bcce-acdb-7b3a-825c-64d35d4e1900"",""projectId"":""0198bbb8-fd11-701d-9147-68794ad37298""}","https://test12345.live/?num_scrambled_semantic=8&num_scrambled_causal=4&num_scrambled_schematic=4&participantId=73DE64120BC64CAE8547ABCF5AA238D5&assignmentId=0198bcce-acdb-7b3a-825c-64d35d4e1900&projectId=0198bbb8-fd11-701d-9147-68794ad37298","73DE64120BC64CAE8547ABCF5AA238D5-2025-08-18-11-25-44","","null","","[]","null","",""
"","","","","","image-button-response","18","370044","0.0-6.0-1.0-0.3","73DE64120BC64CAE8547ABCF5AA238D5","73DE64120BC64CAE8547ABCF5AA238D5","0198bcce-acdb-7b3a-825c-64d35d4e1900","0198bbb8-fd11-701d-9147-68794ad37298","{""num_scrambled_semantic"":""8"",""num_scrambled_causal"":""4"",""num_scrambled_schematic"":""4"",""participantId"":""73DE64120BC64CAE8547ABCF5AA238D5"",""assignmentId"":""0198bcce-acdb-7b3a-825c-64d35d4e1900"",""projectId"":""0198bbb8-fd11-701d-9147-68794ad37298""}","https://test12345.live/?num_scrambled_semantic=8&num_scrambled_causal=4&num_scrambled_schematic=4&participantId=73DE64120BC64CAE8547ABCF5AA238D5&assignmentId=0198bcce-acdb-7b3a-825c-64d35d4e1900&projectId=0198bbb8-fd11-701d-9147-68794ad37298","73DE64120BC64CAE8547ABCF5AA238D5-2025-08-18-11-25-44","","null","","images/instructions/movie_4.png","null","",""
"","","","","","image-button-response","19","371136","0.0-6.0-1.0-1.3","73DE64120BC64CAE8547ABCF5AA238D5","73DE64120BC64CAE8547ABCF5AA238D5","0198bcce-acdb-7b3a-825c-64d35d4e1900","0198bbb8-fd11-701d-9147-68794ad37298","{""num_scrambled_semantic"":""8"",""num_scrambled_causal"":""4"",""num_scrambled_schematic"":""4"",""participantId"":""73DE64120BC64CAE8547ABCF5AA238D5"",""assignmentId"":""0198bcce-acdb-7b3a-825c-64d35d4e1900"",""projectId"":""0198bbb8-fd11-701d-9147-68794ad37298""}","https://test12345.live/?num_scrambled_semantic=8&num_scrambled_causal=4&num_scrambled_schematic=4&participantId=73DE64120BC64CAE8547ABCF5AA238D5&assignmentId=0198bcce-acdb-7b3a-825c-64d35d4e1900&projectId=0198bbb8-fd11-701d-9147-68794ad37298","73DE64120BC64CAE8547ABCF5AA238D5-2025-08-18-11-25-44","","1091","","images/instructions/movie_4.png","0","",""
"","","","","","image-button-response","20","381948","0.0-6.0-1.0-2.3","73DE64120BC64CAE8547ABCF5AA238D5","73DE64120BC64CAE8547ABCF5AA238D5","0198bcce-acdb-7b3a-825c-64d35d4e1900","0198bbb8-fd11-701d-9147-68794ad37298","{""num_scrambled_semantic"":""8"",""num_scrambled_causal"":""4"",""num_scrambled_schematic"":""4"",""participantId"":""73DE64120BC64CAE8547ABCF5AA238D5"",""assignmentId"":""0198bcce-acdb-7b3a-825c-64d35d4e1900"",""projectId"":""0198bbb8-fd11-701d-9147-68794ad37298""}","https://test12345.live/?num_scrambled_semantic=8&num_scrambled_causal=4&num_scrambled_schematic=4&participantId=73DE64120BC64CAE8547ABCF5AA238D5&assignmentId=0198bcce-acdb-7b3a-825c-64d35d4e1900&projectId=0198bbb8-fd11-701d-9147-68794ad37298","73DE64120BC64CAE8547ABCF5AA238D5-2025-08-18-11-25-44","","null","","[]","null","",""
"","","","","","instructions","21","390671","0.0-7.0","73DE64120BC64CAE8547ABCF5AA238D5","73DE64120BC64CAE8547ABCF5AA238D5","0198bcce-acdb-7b3a-825c-64d35d4e1900","0198bbb8-fd11-701d-9147-68794ad37298","{""num_scrambled_semantic"":""8"",""num_scrambled_causal"":""4"",""num_scrambled_schematic"":""4"",""participantId"":""73DE64120BC64CAE8547ABCF5AA238D5"",""assignmentId"":""0198bcce-acdb-7b3a-825c-64d35d4e1900"",""projectId"":""0198bbb8-fd11-701d-9147-68794ad37298""}","https://test12345.live/?num_scrambled_semantic=8&num_scrambled_causal=4&num_scrambled_schematic=4&participantId=73DE64120BC64CAE8547ABCF5AA238D5&assignmentId=0198bcce-acdb-7b3a-825c-64d35d4e1900&projectId=0198bbb8-fd11-701d-9147-68794ad37298","73DE64120BC64CAE8547ABCF5AA238D5-2025-08-18-11-25-44","[{""page_index"":0,""viewing_time"":8038},{""page_index"":1,""viewing_time"":685}]","8723","","","","",""
"","","","","","html-audio-response","22","421283","0.0-8.0","73DE64120BC64CAE8547ABCF5AA238D5","73DE64120BC64CAE8547ABCF5AA238D5","0198bcce-acdb-7b3a-825c-64d35d4e1900","0198bbb8-fd11-701d-9147-68794ad37298","{""num_scrambled_semantic"":""8"",""num_scrambled_causal"":""4"",""num_scrambled_schematic"":""4"",""participantId"":""73DE64120BC64CAE8547ABCF5AA238D5"",""assignmentId"":""0198bcce-acdb-7b3a-825c-64d35d4e1900"",""projectId"":""0198bbb8-fd11-701d-9147-68794ad37298""}","https://test12345.live/?num_scrambled_semantic=8&num_scrambled_causal=4&num_scrambled_schematic=4&participantId=73DE64120BC64CAE8547ABCF5AA238D5&assignmentId=0198bcce-acdb-7b3a-825c-64d35d4e1900&projectId=0198bbb8-fd11-701d-9147-68794ad37298","73DE64120BC64CAE8547ABCF5AA238D5-2025-08-18-11-25-44","","11537","","[""<span style=\""color: red; font-size: 24px\""> NOW RECORDING</span><p>Please say out loud all the images you saw, as many as you can remember. The images can be said in any order.</p>""]","","17",""
"","","","","","instructions","23","422005","0.0-9.0","73DE64120BC64CAE8547ABCF5AA238D5","73DE64120BC64CAE8547ABCF5AA238D5","0198bcce-acdb-7b3a-825c-64d35d4e1900","0198bbb8-fd11-701d-9147-68794ad37298","{""num_scrambled_semantic"":""8"",""num_scrambled_causal"":""4"",""num_scrambled_schematic"":""4"",""participantId"":""73DE64120BC64CAE8547ABCF5AA238D5"",""assignmentId"":""0198bcce-acdb-7b3a-825c-64d35d4e1900"",""projectId"":""0198bbb8-fd11-701d-9147-68794ad37298""}","https://test12345.live/?num_scrambled_semantic=8&num_scrambled_causal=4&num_scrambled_schematic=4&participantId=73DE64120BC64CAE8547ABCF5AA238D5&assignmentId=0198bcce-acdb-7b3a-825c-64d35d4e1900&projectId=0198bbb8-fd11-701d-9147-68794ad37298","73DE64120BC64CAE8547ABCF5AA238D5-2025-08-18-11-25-44","[{""page_index"":0,""viewing_time"":719}]","719","","","","",""
"","","","","","image-button-response","24","428013","0.0-10.0-0.0","73DE64120BC64CAE8547ABCF5AA238D5","73DE64120BC64CAE8547ABCF5AA238D5","0198bcce-acdb-7b3a-825c-64d35d4e1900","0198bbb8-fd11-701d-9147-68794ad37298","{""num_scrambled_semantic"":""8"",""num_scrambled_causal"":""4"",""num_scrambled_schematic"":""4"",""participantId"":""73DE64120BC64CAE8547ABCF5AA238D5"",""assignmentId"":""0198bcce-acdb-7b3a-825c-64d35d4e1900"",""projectId"":""0198bbb8-fd11-701d-9147-68794ad37298""}","https://test12345.live/?num_scrambled_semantic=8&num_scrambled_causal=4&num_scrambled_schematic=4&participantId=73DE64120BC64CAE8547ABCF5AA238D5&assignmentId=0198bcce-acdb-7b3a-825c-64d35d4e1900&projectId=0198bbb8-fd11-701d-9147-68794ad37298","73DE64120BC64CAE8547ABCF5AA238D5-2025-08-18-11-25-44","","null","","images/semantic_sequence/creative_activities_semantic/creative_activities_semantic_0.png","null","",""
"","","","","","image-button-response","25","432528","0.0-10.0-1.0-0.0","73DE64120BC64CAE8547ABCF5AA238D5","73DE64120BC64CAE8547ABCF5AA238D5","0198bcce-acdb-7b3a-825c-64d35d4e1900","0198bbb8-fd11-701d-9147-68794ad37298","{""num_scrambled_semantic"":""8"",""num_scrambled_causal"":""4"",""num_scrambled_schematic"":""4"",""participantId"":""73DE64120BC64CAE8547ABCF5AA238D5"",""assignmentId"":""0198bcce-acdb-7b3a-825c-64d35d4e1900"",""projectId"":""0198bbb8-fd11-701d-9147-68794ad37298""}","https://test12345.live/?num_scrambled_semantic=8&num_scrambled_causal=4&num_scrambled_schematic=4&participantId=73DE64120BC64CAE8547ABCF5AA238D5&assignmentId=0198bcce-acdb-7b3a-825c-64d35d4e1900&projectId=0198bbb8-fd11-701d-9147-68794ad37298","73DE64120BC64CAE8547ABCF5AA238D5-2025-08-18-11-25-44","","null","","images/semantic_sequence/creative_activities_semantic/creative_activities_semantic_9.png","null","",""
"","","","","","image-button-response","26","435798","0.0-10.0-1.0-1.0","73DE64120BC64CAE8547ABCF5AA238D5","73DE64120BC64CAE8547ABCF5AA238D5","0198bcce-acdb-7b3a-825c-64d35d4e1900","0198bbb8-fd11-701d-9147-68794ad37298","{""num_scrambled_semantic"":""8"",""num_scrambled_causal"":""4"",""num_scrambled_schematic"":""4"",""participantId"":""73DE64120BC64CAE8547ABCF5AA238D5"",""assignmentId"":""0198bcce-acdb-7b3a-825c-64d35d4e1900"",""projectId"":""0198bbb8-fd11-701d-9147-68794ad37298""}","https://test12345.live/?num_scrambled_semantic=8&num_scrambled_causal=4&num_scrambled_schematic=4&participantId=73DE64120BC64CAE8547ABCF5AA238D5&assignmentId=0198bcce-acdb-7b3a-825c-64d35d4e1900&projectId=0198bbb8-fd11-701d-9147-68794ad37298","73DE64120BC64CAE8547ABCF5AA238D5-2025-08-18-11-25-44","","3269","","images/semantic_sequence/creative_activities_semantic/creative_activities_semantic_9.png","0","",""
"","","","","","image-button-response","27","446613","0.0-10.0-1.0-2.0","73DE64120BC64CAE8547ABCF5AA238D5","73DE64120BC64CAE8547ABCF5AA238D5","0198bcce-acdb-7b3a-825c-64d35d4e1900","0198bbb8-fd11-701d-9147-68794ad37298","{""num_scrambled_semantic"":""8"",""num_scrambled_causal"":""4"",""num_scrambled_schematic"":""4"",""participantId"":""73DE64120BC64CAE8547ABCF5AA238D5"",""assignmentId"":""0198bcce-acdb-7b3a-825c-64d35d4e1900"",""projectId"":""0198bbb8-fd11-701d-9147-68794ad37298""}","https://test12345.live/?num_scrambled_semantic=8&num_scrambled_causal=4&num_scrambled_schematic=4&participantId=73DE64120BC64CAE8547ABCF5AA238D5&assignmentId=0198bcce-acdb-7b3a-825c-64d35d4e1900&projectId=0198bbb8-fd11-701d-9147-68794ad37298","73DE64120BC64CAE8547ABCF5AA238D5-2025-08-18-11-25-44","","null","","[]","null","",""
"","","","","","image-button-response","28","451126","0.0-10.0-1.0-0.1","73DE64120BC64CAE8547ABCF5AA238D5","73DE64120BC64CAE8547ABCF5AA238D5","0198bcce-acdb-7b3a-825c-64d35d4e1900","0198bbb8-fd11-701d-9147-68794ad37298","{""num_scrambled_semantic"":""8"",""num_scrambled_causal"":""4"",""num_scrambled_schematic"":""4"",""participantId"":""73DE64120BC64CAE8547ABCF5AA238D5"",""assignmentId"":""0198bcce-acdb-7b3a-825c-64d35d4e1900"",""projectId"":""0198bbb8-fd11-701d-9147-68794ad37298""}","https://test12345.live/?num_scrambled_semantic=8&num_scrambled_causal=4&num_scrambled_schematic=4&participantId=73DE64120BC64CAE8547ABCF5AA238D5&assignmentId=0198bcce-acdb-7b3a-825c-64d35d4e1900&projectId=0198bbb8-fd11-701d-9147-68794ad37298","73DE64120BC64CAE8547ABCF5AA238D5-2025-08-18-11-25-44","","null","","images/semantic_sequence/creative_activities_semantic/creative_activities_semantic_4.png","null","",""
"","","","","","image-button-response","29","453050","0.0-10.0-1.0-1.1","73DE64120BC64CAE8547ABCF5AA238D5","73DE64120BC64CAE8547ABCF5AA238D5","0198bcce-acdb-7b3a-825c-64d35d4e1900","0198bbb8-fd11-701d-9147-68794ad37298","{""num_scrambled_semantic"":""8"",""num_scrambled_causal"":""4"",""num_scrambled_schematic"":""4"",""participantId"":""73DE64120BC64CAE8547ABCF5AA238D5"",""assignmentId"":""0198bcce-acdb-7b3a-825c-64d35d4e1900"",""projectId"":""0198bbb8-fd11-701d-9147-68794ad37298""}","https://test12345.live/?num_scrambled_semantic=8&num_scrambled_causal=4&num_scrambled_schematic=4&participantId=73DE64120BC64CAE8547ABCF5AA238D5&assignmentId=0198bcce-acdb-7b3a-825c-64d35d4e1900&projectId=0198bbb8-fd11-701d-9147-68794ad37298","73DE64120BC64CAE8547ABCF5AA238D5-2025-08-18-11-25-44","","1923","","images/semantic_sequence/creative_activities_semantic/creative_activities_semantic_4.png","0","",""
"","","","","","image-button-response","30","463866","0.0-10.0-1.0-2.1","73DE64120BC64CAE8547ABCF5AA238D5","73DE64120BC64CAE8547ABCF5AA238D5","0198bcce-acdb-7b3a-825c-64d35d4e1900","0198bbb8-fd11-701d-9147-68794ad37298","{""num_scrambled_semantic"":""8"",""num_scrambled_causal"":""4"",""num_scrambled_schematic"":""4"",""participantId"":""73DE64120BC64CAE8547ABCF5AA238D5"",""assignmentId"":""0198bcce-acdb-7b3a-825c-64d35d4e1900"",""projectId"":""0198bbb8-fd11-701d-9147-68794ad37298""}","https://test12345.live/?num_scrambled_semantic=8&num_scrambled_causal=4&num_scrambled_schematic=4&participantId=73DE64120BC64CAE8547ABCF5AA238D5&assignmentId=0198bcce-acdb-7b3a-825c-64d35d4e1900&projectId=0198bbb8-fd11-701d-9147-68794ad37298","73DE64120BC64CAE8547ABCF5AA238D5-2025-08-18-11-25-44","","null","","[]","null","",""
"","","","","","image-button-response","31","468379","0.0-10.0-1.0-0.2","73DE64120BC64CAE8547ABCF5AA238D5","73DE64120BC64CAE8547ABCF5AA238D5","0198bcce-acdb-7b3a-825c-64d35d4e1900","0198bbb8-fd11-701d-9147-68794ad37298","{""num_scrambled_semantic"":""8"",""num_scrambled_causal"":""4"",""num_scrambled_schematic"":""4"",""participantId"":""73DE64120BC64CAE8547ABCF5AA238D5"",""assignmentId"":""0198bcce-acdb-7b3a-825c-64d35d4e1900"",""projectId"":""0198bbb8-fd11-701d-9147-68794ad37298""}","https://test12345.live/?num_scrambled_semantic=8&num_scrambled_causal=4&num_scrambled_schematic=4&participantId=73DE64120BC64CAE8547ABCF5AA238D5&assignmentId=0198bcce-acdb-7b3a-825c-64d35d4e1900&projectId=0198bbb8-fd11-701d-9147-68794ad37298","73DE64120BC64CAE8547ABCF5AA238D5-2025-08-18-11-25-44","","null","","images/semantic_sequence/creative_activities_semantic/creative_activities_semantic_3.png","null","",""
"","","","","","image-button-response","32","469650","0.0-10.0-1.0-1.2","73DE64120BC64CAE8547ABCF5AA238D5","73DE64120BC64CAE8547ABCF5AA238D5","0198bcce-acdb-7b3a-825c-64d35d4e1900","0198bbb8-fd11-701d-9147-68794ad37298","{""num_scrambled_semantic"":""8"",""num_scrambled_causal"":""4"",""num_scrambled_schematic"":""4"",""participantId"":""73DE64120BC64CAE8547ABCF5AA238D5"",""assignmentId"":""0198bcce-acdb-7b3a-825c-64d35d4e1900"",""projectId"":""0198bbb8-fd11-701d-9147-68794ad37298""}","https://test12345.live/?num_scrambled_semantic=8&num_scrambled_causal=4&num_scrambled_schematic=4&participantId=73DE64120BC64CAE8547ABCF5AA238D5&assignmentId=0198bcce-acdb-7b3a-825c-64d35d4e1900&projectId=0198bbb8-fd11-701d-9147-68794ad37298","73DE64120BC64CAE8547ABCF5AA238D5-2025-08-18-11-25-44","","1270","","images/semantic_sequence/creative_activities_semantic/creative_activities_semantic_3.png","0","",""
"","","","","","image-button-response","33","480465","0.0-10.0-1.0-2.2","73DE64120BC64CAE8547ABCF5AA238D5","73DE64120BC64CAE8547ABCF5AA238D5","0198bcce-acdb-7b3a-825c-64d35d4e1900","0198bbb8-fd11-701d-9147-68794ad37298","{""num_scrambled_semantic"":""8"",""num_scrambled_causal"":""4"",""num_scrambled_schematic"":""4"",""participantId"":""73DE64120BC64CAE8547ABCF5AA238D5"",""assignmentId"":""0198bcce-acdb-7b3a-825c-64d35d4e1900"",""projectId"":""0198bbb8-fd11-701d-9147-68794ad37298""}","https://test12345.live/?num_scrambled_semantic=8&num_scrambled_causal=4&num_scrambled_schematic=4&participantId=73DE64120BC64CAE8547ABCF5AA238D5&assignmentId=0198bcce-acdb-7b3a-825c-64d35d4e1900&projectId=0198bbb8-fd11-701d-9147-68794ad37298","73DE64120BC64CAE8547ABCF5AA238D5-2025-08-18-11-25-44","","null","","[]","null","",""
"","","","","","image-button-response","34","484975","0.0-10.0-1.0-0.3","73DE64120BC64CAE8547ABCF5AA238D5","73DE64120BC64CAE8547ABCF5AA238D5","0198bcce-acdb-7b3a-825c-64d35d4e1900","0198bbb8-fd11-701d-9147-68794ad37298","{""num_scrambled_semantic"":""8"",""num_scrambled_causal"":""4"",""num_scrambled_schematic"":""4"",""participantId"":""73DE64120BC64CAE8547ABCF5AA238D5"",""assignmentId"":""0198bcce-acdb-7b3a-825c-64d35d4e1900"",""projectId"":""0198bbb8-fd11-701d-9147-68794ad37298""}","https://test12345.live/?num_scrambled_semantic=8&num_scrambled_causal=4&num_scrambled_schematic=4&participantId=73DE64120BC64CAE8547ABCF5AA238D5&assignmentId=0198bcce-acdb-7b3a-825c-64d35d4e1900&projectId=0198bbb8-fd11-701d-9147-68794ad37298","73DE64120BC64CAE8547ABCF5AA238D5-2025-08-18-11-25-44","","null","","images/semantic_sequence/creative_activities_semantic/creative_activities_semantic_8.png","null","",""
"","","","","","image-button-response","35","486045","0.0-10.0-1.0-1.3","73DE64120BC64CAE8547ABCF5AA238D5","73DE64120BC64CAE8547ABCF5AA238D5","0198bcce-acdb-7b3a-825c-64d35d4e1900","0198bbb8-fd11-701d-9147-68794ad37298","{""num_scrambled_semantic"":""8"",""num_scrambled_causal"":""4"",""num_scrambled_schematic"":""4"",""participantId"":""73DE64120BC64CAE8547ABCF5AA238D5"",""assignmentId"":""0198bcce-acdb-7b3a-825c-64d35d4e1900"",""projectId"":""0198bbb8-fd11-701d-9147-68794ad37298""}","https://test12345.live/?num_scrambled_semantic=8&num_scrambled_causal=4&num_scrambled_schematic=4&participantId=73DE64120BC64CAE8547ABCF5AA238D5&assignmentId=0198bcce-acdb-7b3a-825c-64d35d4e1900&projectId=0198bbb8-fd11-701d-9147-68794ad37298","73DE64120BC64CAE8547ABCF5AA238D5-2025-08-18-11-25-44","","1069","","images/semantic_sequence/creative_activities_semantic/creative_activities_semantic_8.png","0","",""
"","","","","","image-button-response","36","496852","0.0-10.0-1.0-2.3","73DE64120BC64CAE8547ABCF5AA238D5","73DE64120BC64CAE8547ABCF5AA238D5","0198bcce-acdb-7b3a-825c-64d35d4e1900","0198bbb8-fd11-701d-9147-68794ad37298","{""num_scrambled_semantic"":""8"",""num_scrambled_causal"":""4"",""num_scrambled_schematic"":""4"",""participantId"":""73DE64120BC64CAE8547ABCF5AA238D5"",""assignmentId"":""0198bcce-acdb-7b3a-825c-64d35d4e1900"",""projectId"":""0198bbb8-fd11-701d-9147-68794ad37298""}","https://test12345.live/?num_scrambled_semantic=8&num_scrambled_causal=4&num_scrambled_schematic=4&participantId=73DE64120BC64CAE8547ABCF5AA238D5&assignmentId=0198bcce-acdb-7b3a-825c-64d35d4e1900&projectId=0198bbb8-fd11-701d-9147-68794ad37298","73DE64120BC64CAE8547ABCF5AA238D5-2025-08-18-11-25-44","","null","","[]","null","",""
"","","","","","image-button-response","37","501367","0.0-10.0-1.0-0.4","73DE64120BC64CAE8547ABCF5AA238D5","73DE64120BC64CAE8547ABCF5AA238D5","0198bcce-acdb-7b3a-825c-64d35d4e1900","0198bbb8-fd11-701d-9147-68794ad37298","{""num_scrambled_semantic"":""8"",""num_scrambled_causal"":""4"",""num_scrambled_schematic"":""4"",""participantId"":""73DE64120BC64CAE8547ABCF5AA238D5"",""assignmentId"":""0198bcce-acdb-7b3a-825c-64d35d4e1900"",""projectId"":""0198bbb8-fd11-701d-9147-68794ad37298""}","https://test12345.live/?num_scrambled_semantic=8&num_scrambled_causal=4&num_scrambled_schematic=4&participantId=73DE64120BC64CAE8547ABCF5AA238D5&assignmentId=0198bcce-acdb-7b3a-825c-64d35d4e1900&projectId=0198bbb8-fd11-701d-9147-68794ad37298","73DE64120BC64CAE8547ABCF5AA238D5-2025-08-18-11-25-44","","null","","images/semantic_sequence/creative_activities_semantic/creative_activities_semantic_5.png","null","",""
"","","","","","image-button-response","38","502120","0.0-10.0-1.0-1.4","73DE64120BC64CAE8547ABCF5AA238D5","73DE64120BC64CAE8547ABCF5AA238D5","0198bcce-acdb-7b3a-825c-64d35d4e1900","0198bbb8-fd11-701d-9147-68794ad37298","{""num_scrambled_semantic"":""8"",""num_scrambled_causal"":""4"",""num_scrambled_schematic"":""4"",""participantId"":""73DE64120BC64CAE8547ABCF5AA238D5"",""assignmentId"":""0198bcce-acdb-7b3a-825c-64d35d4e1900"",""projectId"":""0198bbb8-fd11-701d-9147-68794ad37298""}","https://test12345.live/?num_scrambled_semantic=8&num_scrambled_causal=4&num_scrambled_schematic=4&participantId=73DE64120BC64CAE8547ABCF5AA238D5&assignmentId=0198bcce-acdb-7b3a-825c-64d35d4e1900&projectId=0198bbb8-fd11-701d-9147-68794ad37298","73DE64120BC64CAE8547ABCF5AA238D5-2025-08-18-11-25-44","","752","","images/semantic_sequence/creative_activities_semantic/creative_activities_semantic_5.png","0","",""
"","","","","","image-button-response","39","512934","0.0-10.0-1.0-2.4","73DE64120BC64CAE8547ABCF5AA238D5","73DE64120BC64CAE8547ABCF5AA238D5","0198bcce-acdb-7b3a-825c-64d35d4e1900","0198bbb8-fd11-701d-9147-68794ad37298","{""num_scrambled_semantic"":""8"",""num_scrambled_causal"":""4"",""num_scrambled_schematic"":""4"",""participantId"":""73DE64120BC64CAE8547ABCF5AA238D5"",""assignmentId"":""0198bcce-acdb-7b3a-825c-64d35d4e1900"",""projectId"":""0198bbb8-fd11-701d-9147-68794ad37298""}","https://test12345.live/?num_scrambled_semantic=8&num_scrambled_causal=4&num_scrambled_schematic=4&participantId=73DE64120BC64CAE8547ABCF5AA238D5&assignmentId=0198bcce-acdb-7b3a-825c-64d35d4e1900&projectId=0198bbb8-fd11-701d-9147-68794ad37298","73DE64120BC64CAE8547ABCF5AA238D5-2025-08-18-11-25-44","","null","","[]","null","",""
"","","","","","image-button-response","40","517439","0.0-10.0-1.0-0.5","73DE64120BC64CAE8547ABCF5AA238D5","73DE64120BC64CAE8547ABCF5AA238D5","0198bcce-acdb-7b3a-825c-64d35d4e1900","0198bbb8-fd11-701d-9147-68794ad37298","{""num_scrambled_semantic"":""8"",""num_scrambled_causal"":""4"",""num_scrambled_schematic"":""4"",""participantId"":""73DE64120BC64CAE8547ABCF5AA238D5"",""assignmentId"":""0198bcce-acdb-7b3a-825c-64d35d4e1900"",""projectId"":""0198bbb8-fd11-701d-9147-68794ad37298""}","https://test12345.live/?num_scrambled_semantic=8&num_scrambled_causal=4&num_scrambled_schematic=4&participantId=73DE64120BC64CAE8547ABCF5AA238D5&assignmentId=0198bcce-acdb-7b3a-825c-64d35d4e1900&projectId=0198bbb8-fd11-701d-9147-68794ad37298","73DE64120BC64CAE8547ABCF5AA238D5-2025-08-18-11-25-44","","null","","images/semantic_sequence/creative_activities_semantic/creative_activities_semantic_2.png","null","",""
"","","","","","image-button-response","41","518710","0.0-10.0-1.0-1.5","73DE64120BC64CAE8547ABCF5AA238D5","73DE64120BC64CAE8547ABCF5AA238D5","0198bcce-acdb-7b3a-825c-64d35d4e1900","0198bbb8-fd11-701d-9147-68794ad37298","{""num_scrambled_semantic"":""8"",""num_scrambled_causal"":""4"",""num_scrambled_schematic"":""4"",""participantId"":""73DE64120BC64CAE8547ABCF5AA238D5"",""assignmentId"":""0198bcce-acdb-7b3a-825c-64d35d4e1900"",""projectId"":""0198bbb8-fd11-701d-9147-68794ad37298""}","https://test12345.live/?num_scrambled_semantic=8&num_scrambled_causal=4&num_scrambled_schematic=4&participantId=73DE64120BC64CAE8547ABCF5AA238D5&assignmentId=0198bcce-acdb-7b3a-825c-64d35d4e1900&projectId=0198bbb8-fd11-701d-9147-68794ad37298","73DE64120BC64CAE8547ABCF5AA238D5-2025-08-18-11-25-44","","1270","","images/semantic_sequence/creative_activities_semantic/creative_activities_semantic_2.png","0","",""
"","","","","","image-button-response","42","529516","0.0-10.0-1.0-2.5","73DE64120BC64CAE8547ABCF5AA238D5","73DE64120BC64CAE8547ABCF5AA238D5","0198bcce-acdb-7b3a-825c-64d35d4e1900","0198bbb8-fd11-701d-9147-68794ad37298","{""num_scrambled_semantic"":""8"",""num_scrambled_causal"":""4"",""num_scrambled_schematic"":""4"",""participantId"":""73DE64120BC64CAE8547ABCF5AA238D5"",""assignmentId"":""0198bcce-acdb-7b3a-825c-64d35d4e1900"",""projectId"":""0198bbb8-fd11-701d-9147-68794ad37298""}","https://test12345.live/?num_scrambled_semantic=8&num_scrambled_causal=4&num_scrambled_schematic=4&participantId=73DE64120BC64CAE8547ABCF5AA238D5&assignmentId=0198bcce-acdb-7b3a-825c-64d35d4e1900&projectId=0198bbb8-fd11-701d-9147-68794ad37298","73DE64120BC64CAE8547ABCF5AA238D5-2025-08-18-11-25-44","","null","","[]","null","",""
"","","","","","image-button-response","43","534027","0.0-10.0-1.0-0.6","73DE64120BC64CAE8547ABCF5AA238D5","73DE64120BC64CAE8547ABCF5AA238D5","0198bcce-acdb-7b3a-825c-64d35d4e1900","0198bbb8-fd11-701d-9147-68794ad37298","{""num_scrambled_semantic"":""8"",""num_scrambled_causal"":""4"",""num_scrambled_schematic"":""4"",""participantId"":""73DE64120BC64CAE8547ABCF5AA238D5"",""assignmentId"":""0198bcce-acdb-7b3a-825c-64d35d4e1900"",""projectId"":""0198bbb8-fd11-701d-9147-68794ad37298""}","https://test12345.live/?num_scrambled_semantic=8&num_scrambled_causal=4&num_scrambled_schematic=4&participantId=73DE64120BC64CAE8547ABCF5AA238D5&assignmentId=0198bcce-acdb-7b3a-825c-64d35d4e1900&projectId=0198bbb8-fd11-701d-9147-68794ad37298","73DE64120BC64CAE8547ABCF5AA238D5-2025-08-18-11-25-44","","null","","images/semantic_sequence/creative_activities_semantic/creative_activities_semantic_ten.png","null","",""
"","","","","","image-button-response","44","534829","0.0-10.0-1.0-1.6","73DE64120BC64CAE8547ABCF5AA238D5","73DE64120BC64CAE8547ABCF5AA238D5","0198bcce-acdb-7b3a-825c-64d35d4e1900","0198bbb8-fd11-701d-9147-68794ad37298","{""num_scrambled_semantic"":""8"",""num_scrambled_causal"":""4"",""num_scrambled_schematic"":""4"",""participantId"":""73DE64120BC64CAE8547ABCF5AA238D5"",""assignmentId"":""0198bcce-acdb-7b3a-825c-64d35d4e1900"",""projectId"":""0198bbb8-fd11-701d-9147-68794ad37298""}","https://test12345.live/?num_scrambled_semantic=8&num_scrambled_causal=4&num_scrambled_schematic=4&participantId=73DE64120BC64CAE8547ABCF5AA238D5&assignmentId=0198bcce-acdb-7b3a-825c-64d35d4e1900&projectId=0198bbb8-fd11-701d-9147-68794ad37298","73DE64120BC64CAE8547ABCF5AA238D5-2025-08-18-11-25-44","","801","","images/semantic_sequence/creative_activities_semantic/creative_activities_semantic_ten.png","0","",""
"","","","","","image-button-response","45","545640","0.0-10.0-1.0-2.6","73DE64120BC64CAE8547ABCF5AA238D5","73DE64120BC64CAE8547ABCF5AA238D5","0198bcce-acdb-7b3a-825c-64d35d4e1900","0198bbb8-fd11-701d-9147-68794ad37298","{""num_scrambled_semantic"":""8"",""num_scrambled_causal"":""4"",""num_scrambled_schematic"":""4"",""participantId"":""73DE64120BC64CAE8547ABCF5AA238D5"",""assignmentId"":""0198bcce-acdb-7b3a-825c-64d35d4e1900"",""projectId"":""0198bbb8-fd11-701d-9147-68794ad37298""}","https://test12345.live/?num_scrambled_semantic=8&num_scrambled_causal=4&num_scrambled_schematic=4&participantId=73DE64120BC64CAE8547ABCF5AA238D5&assignmentId=0198bcce-acdb-7b3a-825c-64d35d4e1900&projectId=0198bbb8-fd11-701d-9147-68794ad37298","73DE64120BC64CAE8547ABCF5AA238D5-2025-08-18-11-25-44","","null","","[]","null","",""
"","","","","","image-button-response","46","550145","0.0-10.0-1.0-0.7","73DE64120BC64CAE8547ABCF5AA238D5","73DE64120BC64CAE8547ABCF5AA238D5","0198bcce-acdb-7b3a-825c-64d35d4e1900","0198bbb8-fd11-701d-9147-68794ad37298","{""num_scrambled_semantic"":""8"",""num_scrambled_causal"":""4"",""num_scrambled_schematic"":""4"",""participantId"":""73DE64120BC64CAE8547ABCF5AA238D5"",""assignmentId"":""0198bcce-acdb-7b3a-825c-64d35d4e1900"",""projectId"":""0198bbb8-fd11-701d-9147-68794ad37298""}","https://test12345.live/?num_scrambled_semantic=8&num_scrambled_causal=4&num_scrambled_schematic=4&participantId=73DE64120BC64CAE8547ABCF5AA238D5&assignmentId=0198bcce-acdb-7b3a-825c-64d35d4e1900&projectId=0198bbb8-fd11-701d-9147-68794ad37298","73DE64120BC64CAE8547ABCF5AA238D5-2025-08-18-11-25-44","","null","","images/semantic_sequence/creative_activities_semantic/creative_activities_semantic_1.png","null","",""
"","","","","","image-button-response","47","551937","0.0-10.0-1.0-1.7","73DE64120BC64CAE8547ABCF5AA238D5","73DE64120BC64CAE8547ABCF5AA238D5","0198bcce-acdb-7b3a-825c-64d35d4e1900","0198bbb8-fd11-701d-9147-68794ad37298","{""num_scrambled_semantic"":""8"",""num_scrambled_causal"":""4"",""num_scrambled_schematic"":""4"",""participantId"":""73DE64120BC64CAE8547ABCF5AA238D5"",""assignmentId"":""0198bcce-acdb-7b3a-825c-64d35d4e1900"",""projectId"":""0198bbb8-fd11-701d-9147-68794ad37298""}","https://test12345.live/?num_scrambled_semantic=8&num_scrambled_causal=4&num_scrambled_schematic=4&participantId=73DE64120BC64CAE8547ABCF5AA238D5&assignmentId=0198bcce-acdb-7b3a-825c-64d35d4e1900&projectId=0198bbb8-fd11-701d-9147-68794ad37298","73DE64120BC64CAE8547ABCF5AA238D5-2025-08-18-11-25-44","","1791","","images/semantic_sequence/creative_activities_semantic/creative_activities_semantic_1.png","0","",""
"","","","","","image-button-response","48","562753","0.0-10.0-1.0-2.7","73DE64120BC64CAE8547ABCF5AA238D5","73DE64120BC64CAE8547ABCF5AA238D5","0198bcce-acdb-7b3a-825c-64d35d4e1900","0198bbb8-fd11-701d-9147-68794ad37298","{""num_scrambled_semantic"":""8"",""num_scrambled_causal"":""4"",""num_scrambled_schematic"":""4"",""participantId"":""73DE64120BC64CAE8547ABCF5AA238D5"",""assignmentId"":""0198bcce-acdb-7b3a-825c-64d35d4e1900"",""projectId"":""0198bbb8-fd11-701d-9147-68794ad37298""}","https://test12345.live/?num_scrambled_semantic=8&num_scrambled_causal=4&num_scrambled_schematic=4&participantId=73DE64120BC64CAE8547ABCF5AA238D5&assignmentId=0198bcce-acdb-7b3a-825c-64d35d4e1900&projectId=0198bbb8-fd11-701d-9147-68794ad37298","73DE64120BC64CAE8547ABCF5AA238D5-2025-08-18-11-25-44","","null","","[]","null","",""
"","","","","","image-button-response","49","567265","0.0-10.0-1.0-0.8","73DE64120BC64CAE8547ABCF5AA238D5","73DE64120BC64CAE8547ABCF5AA238D5","0198bcce-acdb-7b3a-825c-64d35d4e1900","0198bbb8-fd11-701d-9147-68794ad37298","{""num_scrambled_semantic"":""8"",""num_scrambled_causal"":""4"",""num_scrambled_schematic"":""4"",""participantId"":""73DE64120BC64CAE8547ABCF5AA238D5"",""assignmentId"":""0198bcce-acdb-7b3a-825c-64d35d4e1900"",""projectId"":""0198bbb8-fd11-701d-9147-68794ad37298""}","https://test12345.live/?num_scrambled_semantic=8&num_scrambled_causal=4&num_scrambled_schematic=4&participantId=73DE64120BC64CAE8547ABCF5AA238D5&assignmentId=0198bcce-acdb-7b3a-825c-64d35d4e1900&projectId=0198bbb8-fd11-701d-9147-68794ad37298","73DE64120BC64CAE8547ABCF5AA238D5-2025-08-18-11-25-44","","null","","images/semantic_sequence/creative_activities_semantic/creative_activities_semantic_6.png","null","",""
"","","","","","image-button-response","50","570078","0.0-10.0-1.0-1.8","73DE64120BC64CAE8547ABCF5AA238D5","73DE64120BC64CAE8547ABCF5AA238D5","0198bcce-acdb-7b3a-825c-64d35d4e1900","0198bbb8-fd11-701d-9147-68794ad37298","{""num_scrambled_semantic"":""8"",""num_scrambled_causal"":""4"",""num_scrambled_schematic"":""4"",""participantId"":""73DE64120BC64CAE8547ABCF5AA238D5"",""assignmentId"":""0198bcce-acdb-7b3a-825c-64d35d4e1900"",""projectId"":""0198bbb8-fd11-701d-9147-68794ad37298""}","https://test12345.live/?num_scrambled_semantic=8&num_scrambled_causal=4&num_scrambled_schematic=4&participantId=73DE64120BC64CAE8547ABCF5AA238D5&assignmentId=0198bcce-acdb-7b3a-825c-64d35d4e1900&projectId=0198bbb8-fd11-701d-9147-68794ad37298","73DE64120BC64CAE8547ABCF5AA238D5-2025-08-18-11-25-44","","2812","","images/semantic_sequence/creative_activities_semantic/creative_activities_semantic_6.png","0","",""
"","","","","","image-button-response","51","580888","0.0-10.0-1.0-2.8","73DE64120BC64CAE8547ABCF5AA238D5","73DE64120BC64CAE8547ABCF5AA238D5","0198bcce-acdb-7b3a-825c-64d35d4e1900","0198bbb8-fd11-701d-9147-68794ad37298","{""num_scrambled_semantic"":""8"",""num_scrambled_causal"":""4"",""num_scrambled_schematic"":""4"",""participantId"":""73DE64120BC64CAE8547ABCF5AA238D5"",""assignmentId"":""0198bcce-acdb-7b3a-825c-64d35d4e1900"",""projectId"":""0198bbb8-fd11-701d-9147-68794ad37298""}","https://test12345.live/?num_scrambled_semantic=8&num_scrambled_causal=4&num_scrambled_schematic=4&participantId=73DE64120BC64CAE8547ABCF5AA238D5&assignmentId=0198bcce-acdb-7b3a-825c-64d35d4e1900&projectId=0198bbb8-fd11-701d-9147-68794ad37298","73DE64120BC64CAE8547ABCF5AA238D5-2025-08-18-11-25-44","","null","","[]","null","",""
"","","","","","image-button-response","52","585398","0.0-10.0-1.0-0.9","73DE64120BC64CAE8547ABCF5AA238D5","73DE64120BC64CAE8547ABCF5AA238D5","0198bcce-acdb-7b3a-825c-64d35d4e1900","0198bbb8-fd11-701d-9147-68794ad37298","{""num_scrambled_semantic"":""8"",""num_scrambled_causal"":""4"",""num_scrambled_schematic"":""4"",""participantId"":""73DE64120BC64CAE8547ABCF5AA238D5"",""assignmentId"":""0198bcce-acdb-7b3a-825c-64d35d4e1900"",""projectId"":""0198bbb8-fd11-701d-9147-68794ad37298""}","https://test12345.live/?num_scrambled_semantic=8&num_scrambled_causal=4&num_scrambled_schematic=4&participantId=73DE64120BC64CAE8547ABCF5AA238D5&assignmentId=0198bcce-acdb-7b3a-825c-64d35d4e1900&projectId=0198bbb8-fd11-701d-9147-68794ad37298","73DE64120BC64CAE8547ABCF5AA238D5-2025-08-18-11-25-44","","null","","images/semantic_sequence/creative_activities_semantic/creative_activities_semantic_7.png","null","",""
"","","","","","image-button-response","53","586390","0.0-10.0-1.0-1.9","73DE64120BC64CAE8547ABCF5AA238D5","73DE64120BC64CAE8547ABCF5AA238D5","0198bcce-acdb-7b3a-825c-64d35d4e1900","0198bbb8-fd11-701d-9147-68794ad37298","{""num_scrambled_semantic"":""8"",""num_scrambled_causal"":""4"",""num_scrambled_schematic"":""4"",""participantId"":""73DE64120BC64CAE8547ABCF5AA238D5"",""assignmentId"":""0198bcce-acdb-7b3a-825c-64d35d4e1900"",""projectId"":""0198bbb8-fd11-701d-9147-68794ad37298""}","https://test12345.live/?num_scrambled_semantic=8&num_scrambled_causal=4&num_scrambled_schematic=4&participantId=73DE64120BC64CAE8547ABCF5AA238D5&assignmentId=0198bcce-acdb-7b3a-825c-64d35d4e1900&projectId=0198bbb8-fd11-701d-9147-68794ad37298","73DE64120BC64CAE8547ABCF5AA238D5-2025-08-18-11-25-44","","991","","images/semantic_sequence/creative_activities_semantic/creative_activities_semantic_7.png","0","",""
"","","","","","image-button-response","54","597198","0.0-10.0-1.0-2.9","73DE64120BC64CAE8547ABCF5AA238D5","73DE64120BC64CAE8547ABCF5AA238D5","0198bcce-acdb-7b3a-825c-64d35d4e1900","0198bbb8-fd11-701d-9147-68794ad37298","{""num_scrambled_semantic"":""8"",""num_scrambled_causal"":""4"",""num_scrambled_schematic"":""4"",""participantId"":""73DE64120BC64CAE8547ABCF5AA238D5"",""assignmentId"":""0198bcce-acdb-7b3a-825c-64d35d4e1900"",""projectId"":""0198bbb8-fd11-701d-9147-68794ad37298""}","https://test12345.live/?num_scrambled_semantic=8&num_scrambled_causal=4&num_scrambled_schematic=4&participantId=73DE64120BC64CAE8547ABCF5AA238D5&assignmentId=0198bcce-acdb-7b3a-825c-64d35d4e1900&projectId=0198bbb8-fd11-701d-9147-68794ad37298","73DE64120BC64CAE8547ABCF5AA238D5-2025-08-18-11-25-44","","null","","[]","null","",""
"","","","","","html-audio-response","55","621678","0.0-11.0","73DE64120BC64CAE8547ABCF5AA238D5","73DE64120BC64CAE8547ABCF5AA238D5","0198bcce-acdb-7b3a-825c-64d35d4e1900","0198bbb8-fd11-701d-9147-68794ad37298","{""num_scrambled_semantic"":""8"",""num_scrambled_causal"":""4"",""num_scrambled_schematic"":""4"",""participantId"":""73DE64120BC64CAE8547ABCF5AA238D5"",""assignmentId"":""0198bcce-acdb-7b3a-825c-64d35d4e1900"",""projectId"":""0198bbb8-fd11-701d-9147-68794ad37298""}","https://test12345.live/?num_scrambled_semantic=8&num_scrambled_causal=4&num_scrambled_schematic=4&participantId=73DE64120BC64CAE8547ABCF5AA238D5&assignmentId=0198bcce-acdb-7b3a-825c-64d35d4e1900&projectId=0198bbb8-fd11-701d-9147-68794ad37298","73DE64120BC64CAE8547ABCF5AA238D5-2025-08-18-11-25-44","","16628","","[""<span style=\""color: red; font-size: 24px\""> NOW RECORDING</span><p>Please say out loud all the images you saw, as many as you can remember. The images can be said in any order.</p>""]","","1","creative_activities_semantic"
"","","","","","image-button-response","56","627694","0.0-12.0-0.0","73DE64120BC64CAE8547ABCF5AA238D5","73DE64120BC64CAE8547ABCF5AA238D5","0198bcce-acdb-7b3a-825c-64d35d4e1900","0198bbb8-fd11-701d-9147-68794ad37298","{""num_scrambled_semantic"":""8"",""num_scrambled_causal"":""4"",""num_scrambled_schematic"":""4"",""participantId"":""73DE64120BC64CAE8547ABCF5AA238D5"",""assignmentId"":""0198bcce-acdb-7b3a-825c-64d35d4e1900"",""projectId"":""0198bbb8-fd11-701d-9147-68794ad37298""}","https://test12345.live/?num_scrambled_semantic=8&num_scrambled_causal=4&num_scrambled_schematic=4&participantId=73DE64120BC64CAE8547ABCF5AA238D5&assignmentId=0198bcce-acdb-7b3a-825c-64d35d4e1900&projectId=0198bbb8-fd11-701d-9147-68794ad37298","73DE64120BC64CAE8547ABCF5AA238D5-2025-08-18-11-25-44","","null","","images/causal_sequence/coin_causal/coin_causal_0.png","null","",""
"","","","","","image-button-response","57","632199","0.0-12.0-1.0-0.0","73DE64120BC64CAE8547ABCF5AA238D5","73DE64120BC64CAE8547ABCF5AA238D5","0198bcce-acdb-7b3a-825c-64d35d4e1900","0198bbb8-fd11-701d-9147-68794ad37298","{""num_scrambled_semantic"":""8"",""num_scrambled_causal"":""4"",""num_scrambled_schematic"":""4"",""participantId"":""73DE64120BC64CAE8547ABCF5AA238D5"",""assignmentId"":""0198bcce-acdb-7b3a-825c-64d35d4e1900"",""projectId"":""0198bbb8-fd11-701d-9147-68794ad37298""}","https://test12345.live/?num_scrambled_semantic=8&num_scrambled_causal=4&num_scrambled_schematic=4&participantId=73DE64120BC64CAE8547ABCF5AA238D5&assignmentId=0198bcce-acdb-7b3a-825c-64d35d4e1900&projectId=0198bbb8-fd11-701d-9147-68794ad37298","73DE64120BC64CAE8547ABCF5AA238D5-2025-08-18-11-25-44","","null","","images/causal_sequence/coin_causal/coin_causal_1.png","null","",""
"","","","","","image-button-response","58","634903","0.0-12.0-1.0-1.0","73DE64120BC64CAE8547ABCF5AA238D5","73DE64120BC64CAE8547ABCF5AA238D5","0198bcce-acdb-7b3a-825c-64d35d4e1900","0198bbb8-fd11-701d-9147-68794ad37298","{""num_scrambled_semantic"":""8"",""num_scrambled_causal"":""4"",""num_scrambled_schematic"":""4"",""participantId"":""73DE64120BC64CAE8547ABCF5AA238D5"",""assignmentId"":""0198bcce-acdb-7b3a-825c-64d35d4e1900"",""projectId"":""0198bbb8-fd11-701d-9147-68794ad37298""}","https://test12345.live/?num_scrambled_semantic=8&num_scrambled_causal=4&num_scrambled_schematic=4&participantId=73DE64120BC64CAE8547ABCF5AA238D5&assignmentId=0198bcce-acdb-7b3a-825c-64d35d4e1900&projectId=0198bbb8-fd11-701d-9147-68794ad37298","73DE64120BC64CAE8547ABCF5AA238D5-2025-08-18-11-25-44","","2704","","images/causal_sequence/coin_causal/coin_causal_1.png","0","",""
"","","","","","image-button-response","59","645715","0.0-12.0-1.0-2.0","73DE64120BC64CAE8547ABCF5AA238D5","73DE64120BC64CAE8547ABCF5AA238D5","0198bcce-acdb-7b3a-825c-64d35d4e1900","0198bbb8-fd11-701d-9147-68794ad37298","{""num_scrambled_semantic"":""8"",""num_scrambled_causal"":""4"",""num_scrambled_schematic"":""4"",""participantId"":""73DE64120BC64CAE8547ABCF5AA238D5"",""assignmentId"":""0198bcce-acdb-7b3a-825c-64d35d4e1900"",""projectId"":""0198bbb8-fd11-701d-9147-68794ad37298""}","https://test12345.live/?num_scrambled_semantic=8&num_scrambled_causal=4&num_scrambled_schematic=4&participantId=73DE64120BC64CAE8547ABCF5AA238D5&assignmentId=0198bcce-acdb-7b3a-825c-64d35d4e1900&projectId=0198bbb8-fd11-701d-9147-68794ad37298","73DE64120BC64CAE8547ABCF5AA238D5-2025-08-18-11-25-44","","null","","[]","null","",""
"","","","","","image-button-response","60","650218","0.0-12.0-1.0-0.1","73DE64120BC64CAE8547ABCF5AA238D5","73DE64120BC64CAE8547ABCF5AA238D5","0198bcce-acdb-7b3a-825c-64d35d4e1900","0198bbb8-fd11-701d-9147-68794ad37298","{""num_scrambled_semantic"":""8"",""num_scrambled_causal"":""4"",""num_scrambled_schematic"":""4"",""participantId"":""73DE64120BC64CAE8547ABCF5AA238D5"",""assignmentId"":""0198bcce-acdb-7b3a-825c-64d35d4e1900"",""projectId"":""0198bbb8-fd11-701d-9147-68794ad37298""}","https://test12345.live/?num_scrambled_semantic=8&num_scrambled_causal=4&num_scrambled_schematic=4&participantId=73DE64120BC64CAE8547ABCF5AA238D5&assignmentId=0198bcce-acdb-7b3a-825c-64d35d4e1900&projectId=0198bbb8-fd11-701d-9147-68794ad37298","73DE64120BC64CAE8547ABCF5AA238D5-2025-08-18-11-25-44","","null","","images/causal_sequence/coin_causal/coin_causal_5.png","null","",""
"","","","","","image-button-response","61","654229","0.0-12.0-1.0-1.1","73DE64120BC64CAE8547ABCF5AA238D5","73DE64120BC64CAE8547ABCF5AA238D5","0198bcce-acdb-7b3a-825c-64d35d4e1900","0198bbb8-fd11-701d-9147-68794ad37298","{""num_scrambled_semantic"":""8"",""num_scrambled_causal"":""4"",""num_scrambled_schematic"":""4"",""participantId"":""73DE64120BC64CAE8547ABCF5AA238D5"",""assignmentId"":""0198bcce-acdb-7b3a-825c-64d35d4e1900"",""projectId"":""0198bbb8-fd11-701d-9147-68794ad37298""}","https://test12345.live/?num_scrambled_semantic=8&num_scrambled_causal=4&num_scrambled_schematic=4&participantId=73DE64120BC64CAE8547ABCF5AA238D5&assignmentId=0198bcce-acdb-7b3a-825c-64d35d4e1900&projectId=0198bbb8-fd11-701d-9147-68794ad37298","73DE64120BC64CAE8547ABCF5AA238D5-2025-08-18-11-25-44","","null","","images/causal_sequence/coin_causal/coin_causal_5.png","null","",""
"","","","","","image-button-response","62","665039","0.0-12.0-1.0-2.1","73DE64120BC64CAE8547ABCF5AA238D5","73DE64120BC64CAE8547ABCF5AA238D5","0198bcce-acdb-7b3a-825c-64d35d4e1900","0198bbb8-fd11-701d-9147-68794ad37298","{""num_scrambled_semantic"":""8"",""num_scrambled_causal"":""4"",""num_scrambled_schematic"":""4"",""participantId"":""73DE64120BC64CAE8547ABCF5AA238D5"",""assignmentId"":""0198bcce-acdb-7b3a-825c-64d35d4e1900"",""projectId"":""0198bbb8-fd11-701d-9147-68794ad37298""}","https://test12345.live/?num_scrambled_semantic=8&num_scrambled_causal=4&num_scrambled_schematic=4&participantId=73DE64120BC64CAE8547ABCF5AA238D5&assignmentId=0198bcce-acdb-7b3a-825c-64d35d4e1900&projectId=0198bbb8-fd11-701d-9147-68794ad37298","73DE64120BC64CAE8547ABCF5AA238D5-2025-08-18-11-25-44","","null","","[]","null","",""
"","","","","","image-button-response","63","669554","0.0-12.0-1.0-0.2","73DE64120BC64CAE8547ABCF5AA238D5","73DE64120BC64CAE8547ABCF5AA238D5","0198bcce-acdb-7b3a-825c-64d35d4e1900","0198bbb8-fd11-701d-9147-68794ad37298","{""num_scrambled_semantic"":""8"",""num_scrambled_causal"":""4"",""num_scrambled_schematic"":""4"",""participantId"":""73DE64120BC64CAE8547ABCF5AA238D5"",""assignmentId"":""0198bcce-acdb-7b3a-825c-64d35d4e1900"",""projectId"":""0198bbb8-fd11-701d-9147-68794ad37298""}","https://test12345.live/?num_scrambled_semantic=8&num_scrambled_causal=4&num_scrambled_schematic=4&participantId=73DE64120BC64CAE8547ABCF5AA238D5&assignmentId=0198bcce-acdb-7b3a-825c-64d35d4e1900&projectId=0198bbb8-fd11-701d-9147-68794ad37298","73DE64120BC64CAE8547ABCF5AA238D5-2025-08-18-11-25-44","","null","","images/causal_sequence/coin_causal/coin_causal_8.png","null","",""
"","","","","","image-button-response","64","670791","0.0-12.0-1.0-1.2","73DE64120BC64CAE8547ABCF5AA238D5","73DE64120BC64CAE8547ABCF5AA238D5","0198bcce-acdb-7b3a-825c-64d35d4e1900","0198bbb8-fd11-701d-9147-68794ad37298","{""num_scrambled_semantic"":""8"",""num_scrambled_causal"":""4"",""num_scrambled_schematic"":""4"",""participantId"":""73DE64120BC64CAE8547ABCF5AA238D5"",""assignmentId"":""0198bcce-acdb-7b3a-825c-64d35d4e1900"",""projectId"":""0198bbb8-fd11-701d-9147-68794ad37298""}","https://test12345.live/?num_scrambled_semantic=8&num_scrambled_causal=4&num_scrambled_schematic=4&participantId=73DE64120BC64CAE8547ABCF5AA238D5&assignmentId=0198bcce-acdb-7b3a-825c-64d35d4e1900&projectId=0198bbb8-fd11-701d-9147-68794ad37298","73DE64120BC64CAE8547ABCF5AA238D5-2025-08-18-11-25-44","","1235","","images/causal_sequence/coin_causal/coin_causal_8.png","0","",""
"","","","","","image-button-response","65","681607","0.0-12.0-1.0-2.2","73DE64120BC64CAE8547ABCF5AA238D5","73DE64120BC64CAE8547ABCF5AA238D5","0198bcce-acdb-7b3a-825c-64d35d4e1900","0198bbb8-fd11-701d-9147-68794ad37298","{""num_scrambled_semantic"":""8"",""num_scrambled_causal"":""4"",""num_scrambled_schematic"":""4"",""participantId"":""73DE64120BC64CAE8547ABCF5AA238D5"",""assignmentId"":""0198bcce-acdb-7b3a-825c-64d35d4e1900"",""projectId"":""0198bbb8-fd11-701d-9147-68794ad37298""}","https://test12345.live/?num_scrambled_semantic=8&num_scrambled_causal=4&num_scrambled_schematic=4&participantId=73DE64120BC64CAE8547ABCF5AA238D5&assignmentId=0198bcce-acdb-7b3a-825c-64d35d4e1900&projectId=0198bbb8-fd11-701d-9147-68794ad37298","73DE64120BC64CAE8547ABCF5AA238D5-2025-08-18-11-25-44","","null","","[]","null","",""
"","","","","","image-button-response","66","686117","0.0-12.0-1.0-0.3","73DE64120BC64CAE8547ABCF5AA238D5","73DE64120BC64CAE8547ABCF5AA238D5","0198bcce-acdb-7b3a-825c-64d35d4e1900","0198bbb8-fd11-701d-9147-68794ad37298","{""num_scrambled_semantic"":""8"",""num_scrambled_causal"":""4"",""num_scrambled_schematic"":""4"",""participantId"":""73DE64120BC64CAE8547ABCF5AA238D5"",""assignmentId"":""0198bcce-acdb-7b3a-825c-64d35d4e1900"",""projectId"":""0198bbb8-fd11-701d-9147-68794ad37298""}","https://test12345.live/?num_scrambled_semantic=8&num_scrambled_causal=4&num_scrambled_schematic=4&participantId=73DE64120BC64CAE8547ABCF5AA238D5&assignmentId=0198bcce-acdb-7b3a-825c-64d35d4e1900&projectId=0198bbb8-fd11-701d-9147-68794ad37298","73DE64120BC64CAE8547ABCF5AA238D5-2025-08-18-11-25-44","","null","","images/causal_sequence/coin_causal/coin_causal_4.png","null","",""
"","","","","","image-button-response","67","687929","0.0-12.0-1.0-1.3","73DE64120BC64CAE8547ABCF5AA238D5","73DE64120BC64CAE8547ABCF5AA238D5","0198bcce-acdb-7b3a-825c-64d35d4e1900","0198bbb8-fd11-701d-9147-68794ad37298","{""num_scrambled_semantic"":""8"",""num_scrambled_causal"":""4"",""num_scrambled_schematic"":""4"",""participantId"":""73DE64120BC64CAE8547ABCF5AA238D5"",""assignmentId"":""0198bcce-acdb-7b3a-825c-64d35d4e1900"",""projectId"":""0198bbb8-fd11-701d-9147-68794ad37298""}","https://test12345.live/?num_scrambled_semantic=8&num_scrambled_causal=4&num_scrambled_schematic=4&participantId=73DE64120BC64CAE8547ABCF5AA238D5&assignmentId=0198bcce-acdb-7b3a-825c-64d35d4e1900&projectId=0198bbb8-fd11-701d-9147-68794ad37298","73DE64120BC64CAE8547ABCF5AA238D5-2025-08-18-11-25-44","","1811","","images/causal_sequence/coin_causal/coin_causal_4.png","0","",""
"","","","","","image-button-response","68","698740","0.0-12.0-1.0-2.3","73DE64120BC64CAE8547ABCF5AA238D5","73DE64120BC64CAE8547ABCF5AA238D5","0198bcce-acdb-7b3a-825c-64d35d4e1900","0198bbb8-fd11-701d-9147-68794ad37298","{""num_scrambled_semantic"":""8"",""num_scrambled_causal"":""4"",""num_scrambled_schematic"":""4"",""participantId"":""73DE64120BC64CAE8547ABCF5AA238D5"",""assignmentId"":""0198bcce-acdb-7b3a-825c-64d35d4e1900"",""projectId"":""0198bbb8-fd11-701d-9147-68794ad37298""}","https://test12345.live/?num_scrambled_semantic=8&num_scrambled_causal=4&num_scrambled_schematic=4&participantId=73DE64120BC64CAE8547ABCF5AA238D5&assignmentId=0198bcce-acdb-7b3a-825c-64d35d4e1900&projectId=0198bbb8-fd11-701d-9147-68794ad37298","73DE64120BC64CAE8547ABCF5AA238D5-2025-08-18-11-25-44","","null","","[]","null","",""
"","","","","","image-button-response","69","703253","0.0-12.0-1.0-0.4","73DE64120BC64CAE8547ABCF5AA238D5","73DE64120BC64CAE8547ABCF5AA238D5","0198bcce-acdb-7b3a-825c-64d35d4e1900","0198bbb8-fd11-701d-9147-68794ad37298","{""num_scrambled_semantic"":""8"",""num_scrambled_causal"":""4"",""num_scrambled_schematic"":""4"",""participantId"":""73DE64120BC64CAE8547ABCF5AA238D5"",""assignmentId"":""0198bcce-acdb-7b3a-825c-64d35d4e1900"",""projectId"":""0198bbb8-fd11-701d-9147-68794ad37298""}","https://test12345.live/?num_scrambled_semantic=8&num_scrambled_causal=4&num_scrambled_schematic=4&participantId=73DE64120BC64CAE8547ABCF5AA238D5&assignmentId=0198bcce-acdb-7b3a-825c-64d35d4e1900&projectId=0198bbb8-fd11-701d-9147-68794ad37298","73DE64120BC64CAE8547ABCF5AA238D5-2025-08-18-11-25-44","","null","","images/causal_sequence/coin_causal/coin_causal_7.png","null","",""
"","","","","","image-button-response","70","706841","0.0-12.0-1.0-1.4","73DE64120BC64CAE8547ABCF5AA238D5","73DE64120BC64CAE8547ABCF5AA238D5","0198bcce-acdb-7b3a-825c-64d35d4e1900","0198bbb8-fd11-701d-9147-68794ad37298","{""num_scrambled_semantic"":""8"",""num_scrambled_causal"":""4"",""num_scrambled_schematic"":""4"",""participantId"":""73DE64120BC64CAE8547ABCF5AA238D5"",""assignmentId"":""0198bcce-acdb-7b3a-825c-64d35d4e1900"",""projectId"":""0198bbb8-fd11-701d-9147-68794ad37298""}","https://test12345.live/?num_scrambled_semantic=8&num_scrambled_causal=4&num_scrambled_schematic=4&participantId=73DE64120BC64CAE8547ABCF5AA238D5&assignmentId=0198bcce-acdb-7b3a-825c-64d35d4e1900&projectId=0198bbb8-fd11-701d-9147-68794ad37298","73DE64120BC64CAE8547ABCF5AA238D5-2025-08-18-11-25-44","","3587","","images/causal_sequence/coin_causal/coin_causal_7.png","1","",""
"","","","","","image-button-response","71","717657","0.0-12.0-1.0-2.4","73DE64120BC64CAE8547ABCF5AA238D5","73DE64120BC64CAE8547ABCF5AA238D5","0198bcce-acdb-7b3a-825c-64d35d4e1900","0198bbb8-fd11-701d-9147-68794ad37298","{""num_scrambled_semantic"":""8"",""num_scrambled_causal"":""4"",""num_scrambled_schematic"":""4"",""participantId"":""73DE64120BC64CAE8547ABCF5AA238D5"",""assignmentId"":""0198bcce-acdb-7b3a-825c-64d35d4e1900"",""projectId"":""0198bbb8-fd11-701d-9147-68794ad37298""}","https://test12345.live/?num_scrambled_semantic=8&num_scrambled_causal=4&num_scrambled_schematic=4&participantId=73DE64120BC64CAE8547ABCF5AA238D5&assignmentId=0198bcce-acdb-7b3a-825c-64d35d4e1900&projectId=0198bbb8-fd11-701d-9147-68794ad37298","73DE64120BC64CAE8547ABCF5AA238D5-2025-08-18-11-25-44","","null","","[]","null","",""
"","","","","","image-button-response","72","722161","0.0-12.0-1.0-0.5","73DE64120BC64CAE8547ABCF5AA238D5","73DE64120BC64CAE8547ABCF5AA238D5","0198bcce-acdb-7b3a-825c-64d35d4e1900","0198bbb8-fd11-701d-9147-68794ad37298","{""num_scrambled_semantic"":""8"",""num_scrambled_causal"":""4"",""num_scrambled_schematic"":""4"",""participantId"":""73DE64120BC64CAE8547ABCF5AA238D5"",""assignmentId"":""0198bcce-acdb-7b3a-825c-64d35d4e1900"",""projectId"":""0198bbb8-fd11-701d-9147-68794ad37298""}","https://test12345.live/?num_scrambled_semantic=8&num_scrambled_causal=4&num_scrambled_schematic=4&participantId=73DE64120BC64CAE8547ABCF5AA238D5&assignmentId=0198bcce-acdb-7b3a-825c-64d35d4e1900&projectId=0198bbb8-fd11-701d-9147-68794ad37298","73DE64120BC64CAE8547ABCF5AA238D5-2025-08-18-11-25-44","","null","","images/causal_sequence/coin_causal/coin_causal_3.png","null","",""
"","","","","","image-button-response","73","723730","0.0-12.0-1.0-1.5","73DE64120BC64CAE8547ABCF5AA238D5","73DE64120BC64CAE8547ABCF5AA238D5","0198bcce-acdb-7b3a-825c-64d35d4e1900","0198bbb8-fd11-701d-9147-68794ad37298","{""num_scrambled_semantic"":""8"",""num_scrambled_causal"":""4"",""num_scrambled_schematic"":""4"",""participantId"":""73DE64120BC64CAE8547ABCF5AA238D5"",""assignmentId"":""0198bcce-acdb-7b3a-825c-64d35d4e1900"",""projectId"":""0198bbb8-fd11-701d-9147-68794ad37298""}","https://test12345.live/?num_scrambled_semantic=8&num_scrambled_causal=4&num_scrambled_schematic=4&participantId=73DE64120BC64CAE8547ABCF5AA238D5&assignmentId=0198bcce-acdb-7b3a-825c-64d35d4e1900&projectId=0198bbb8-fd11-701d-9147-68794ad37298","73DE64120BC64CAE8547ABCF5AA238D5-2025-08-18-11-25-44","","1568","","images/causal_sequence/coin_causal/coin_causal_3.png","0","",""
"","","","","","image-button-response","74","734537","0.0-12.0-1.0-2.5","73DE64120BC64CAE8547ABCF5AA238D5","73DE64120BC64CAE8547ABCF5AA238D5","0198bcce-acdb-7b3a-825c-64d35d4e1900","0198bbb8-fd11-701d-9147-68794ad37298","{""num_scrambled_semantic"":""8"",""num_scrambled_causal"":""4"",""num_scrambled_schematic"":""4"",""participantId"":""73DE64120BC64CAE8547ABCF5AA238D5"",""assignmentId"":""0198bcce-acdb-7b3a-825c-64d35d4e1900"",""projectId"":""0198bbb8-fd11-701d-9147-68794ad37298""}","https://test12345.live/?num_scrambled_semantic=8&num_scrambled_causal=4&num_scrambled_schematic=4&participantId=73DE64120BC64CAE8547ABCF5AA238D5&assignmentId=0198bcce-acdb-7b3a-825c-64d35d4e1900&projectId=0198bbb8-fd11-701d-9147-68794ad37298","73DE64120BC64CAE8547ABCF5AA238D5-2025-08-18-11-25-44","","null","","[]","null","",""
"","","","","","image-button-response","75","739050","0.0-12.0-1.0-0.6","73DE64120BC64CAE8547ABCF5AA238D5","73DE64120BC64CAE8547ABCF5AA238D5","0198bcce-acdb-7b3a-825c-64d35d4e1900","0198bbb8-fd11-701d-9147-68794ad37298","{""num_scrambled_semantic"":""8"",""num_scrambled_causal"":""4"",""num_scrambled_schematic"":""4"",""participantId"":""73DE64120BC64CAE8547ABCF5AA238D5"",""assignmentId"":""0198bcce-acdb-7b3a-825c-64d35d4e1900"",""projectId"":""0198bbb8-fd11-701d-9147-68794ad37298""}","https://test12345.live/?num_scrambled_semantic=8&num_scrambled_causal=4&num_scrambled_schematic=4&participantId=73DE64120BC64CAE8547ABCF5AA238D5&assignmentId=0198bcce-acdb-7b3a-825c-64d35d4e1900&projectId=0198bbb8-fd11-701d-9147-68794ad37298","73DE64120BC64CAE8547ABCF5AA238D5-2025-08-18-11-25-44","","null","","images/causal_sequence/coin_causal/coin_causal_ten.png","null","",""
"","","","","","image-button-response","76","742168","0.0-12.0-1.0-1.6","73DE64120BC64CAE8547ABCF5AA238D5","73DE64120BC64CAE8547ABCF5AA238D5","0198bcce-acdb-7b3a-825c-64d35d4e1900","0198bbb8-fd11-701d-9147-68794ad37298","{""num_scrambled_semantic"":""8"",""num_scrambled_causal"":""4"",""num_scrambled_schematic"":""4"",""participantId"":""73DE64120BC64CAE8547ABCF5AA238D5"",""assignmentId"":""0198bcce-acdb-7b3a-825c-64d35d4e1900"",""projectId"":""0198bbb8-fd11-701d-9147-68794ad37298""}","https://test12345.live/?num_scrambled_semantic=8&num_scrambled_causal=4&num_scrambled_schematic=4&participantId=73DE64120BC64CAE8547ABCF5AA238D5&assignmentId=0198bcce-acdb-7b3a-825c-64d35d4e1900&projectId=0198bbb8-fd11-701d-9147-68794ad37298","73DE64120BC64CAE8547ABCF5AA238D5-2025-08-18-11-25-44","","3118","","images/causal_sequence/coin_causal/coin_causal_ten.png","0","",""
"","","","","","image-button-response","77","752973","0.0-12.0-1.0-2.6","73DE64120BC64CAE8547ABCF5AA238D5","73DE64120BC64CAE8547ABCF5AA238D5","0198bcce-acdb-7b3a-825c-64d35d4e1900","0198bbb8-fd11-701d-9147-68794ad37298","{""num_scrambled_semantic"":""8"",""num_scrambled_causal"":""4"",""num_scrambled_schematic"":""4"",""participantId"":""73DE64120BC64CAE8547ABCF5AA238D5"",""assignmentId"":""0198bcce-acdb-7b3a-825c-64d35d4e1900"",""projectId"":""0198bbb8-fd11-701d-9147-68794ad37298""}","https://test12345.live/?num_scrambled_semantic=8&num_scrambled_causal=4&num_scrambled_schematic=4&participantId=73DE64120BC64CAE8547ABCF5AA238D5&assignmentId=0198bcce-acdb-7b3a-825c-64d35d4e1900&projectId=0198bbb8-fd11-701d-9147-68794ad37298","73DE64120BC64CAE8547ABCF5AA238D5-2025-08-18-11-25-44","","null","","[]","null","",""
"","","","","","image-button-response","78","757495","0.0-12.0-1.0-0.7","73DE64120BC64CAE8547ABCF5AA238D5","73DE64120BC64CAE8547ABCF5AA238D5","0198bcce-acdb-7b3a-825c-64d35d4e1900","0198bbb8-fd11-701d-9147-68794ad37298","{""num_scrambled_semantic"":""8"",""num_scrambled_causal"":""4"",""num_scrambled_schematic"":""4"",""participantId"":""73DE64120BC64CAE8547ABCF5AA238D5"",""assignmentId"":""0198bcce-acdb-7b3a-825c-64d35d4e1900"",""projectId"":""0198bbb8-fd11-701d-9147-68794ad37298""}","https://test12345.live/?num_scrambled_semantic=8&num_scrambled_causal=4&num_scrambled_schematic=4&participantId=73DE64120BC64CAE8547ABCF5AA238D5&assignmentId=0198bcce-acdb-7b3a-825c-64d35d4e1900&projectId=0198bbb8-fd11-701d-9147-68794ad37298","73DE64120BC64CAE8547ABCF5AA238D5-2025-08-18-11-25-44","","null","","images/causal_sequence/coin_causal/coin_causal_2.png","null","",""
"","","","","","image-button-response","79","760525","0.0-12.0-1.0-1.7","73DE64120BC64CAE8547ABCF5AA238D5","73DE64120BC64CAE8547ABCF5AA238D5","0198bcce-acdb-7b3a-825c-64d35d4e1900","0198bbb8-fd11-701d-9147-68794ad37298","{""num_scrambled_semantic"":""8"",""num_scrambled_causal"":""4"",""num_scrambled_schematic"":""4"",""participantId"":""73DE64120BC64CAE8547ABCF5AA238D5"",""assignmentId"":""0198bcce-acdb-7b3a-825c-64d35d4e1900"",""projectId"":""0198bbb8-fd11-701d-9147-68794ad37298""}","https://test12345.live/?num_scrambled_semantic=8&num_scrambled_causal=4&num_scrambled_schematic=4&participantId=73DE64120BC64CAE8547ABCF5AA238D5&assignmentId=0198bcce-acdb-7b3a-825c-64d35d4e1900&projectId=0198bbb8-fd11-701d-9147-68794ad37298","73DE64120BC64CAE8547ABCF5AA238D5-2025-08-18-11-25-44","","3029","","images/causal_sequence/coin_causal/coin_causal_2.png","0","",""
"","","","","","image-button-response","80","771336","0.0-12.0-1.0-2.7","73DE64120BC64CAE8547ABCF5AA238D5","73DE64120BC64CAE8547ABCF5AA238D5","0198bcce-acdb-7b3a-825c-64d35d4e1900","0198bbb8-fd11-701d-9147-68794ad37298","{""num_scrambled_semantic"":""8"",""num_scrambled_causal"":""4"",""num_scrambled_schematic"":""4"",""participantId"":""73DE64120BC64CAE8547ABCF5AA238D5"",""assignmentId"":""0198bcce-acdb-7b3a-825c-64d35d4e1900"",""projectId"":""0198bbb8-fd11-701d-9147-68794ad37298""}","https://test12345.live/?num_scrambled_semantic=8&num_scrambled_causal=4&num_scrambled_schematic=4&participantId=73DE64120BC64CAE8547ABCF5AA238D5&assignmentId=0198bcce-acdb-7b3a-825c-64d35d4e1900&projectId=0198bbb8-fd11-701d-9147-68794ad37298","73DE64120BC64CAE8547ABCF5AA238D5-2025-08-18-11-25-44","","null","","[]","null","",""
"","","","","","image-button-response","81","775838","0.0-12.0-1.0-0.8","73DE64120BC64CAE8547ABCF5AA238D5","73DE64120BC64CAE8547ABCF5AA238D5","0198bcce-acdb-7b3a-825c-64d35d4e1900","0198bbb8-fd11-701d-9147-68794ad37298","{""num_scrambled_semantic"":""8"",""num_scrambled_causal"":""4"",""num_scrambled_schematic"":""4"",""participantId"":""73DE64120BC64CAE8547ABCF5AA238D5"",""assignmentId"":""0198bcce-acdb-7b3a-825c-64d35d4e1900"",""projectId"":""0198bbb8-fd11-701d-9147-68794ad37298""}","https://test12345.live/?num_scrambled_semantic=8&num_scrambled_causal=4&num_scrambled_schematic=4&participantId=73DE64120BC64CAE8547ABCF5AA238D5&assignmentId=0198bcce-acdb-7b3a-825c-64d35d4e1900&projectId=0198bbb8-fd11-701d-9147-68794ad37298","73DE64120BC64CAE8547ABCF5AA238D5-2025-08-18-11-25-44","","null","","images/causal_sequence/coin_causal/coin_causal_9.png","null","",""
"","","","","","image-button-response","82","777287","0.0-12.0-1.0-1.8","73DE64120BC64CAE8547ABCF5AA238D5","73DE64120BC64CAE8547ABCF5AA238D5","0198bcce-acdb-7b3a-825c-64d35d4e1900","0198bbb8-fd11-701d-9147-68794ad37298","{""num_scrambled_semantic"":""8"",""num_scrambled_causal"":""4"",""num_scrambled_schematic"":""4"",""participantId"":""73DE64120BC64CAE8547ABCF5AA238D5"",""assignmentId"":""0198bcce-acdb-7b3a-825c-64d35d4e1900"",""projectId"":""0198bbb8-fd11-701d-9147-68794ad37298""}","https://test12345.live/?num_scrambled_semantic=8&num_scrambled_causal=4&num_scrambled_schematic=4&participantId=73DE64120BC64CAE8547ABCF5AA238D5&assignmentId=0198bcce-acdb-7b3a-825c-64d35d4e1900&projectId=0198bbb8-fd11-701d-9147-68794ad37298","73DE64120BC64CAE8547ABCF5AA238D5-2025-08-18-11-25-44","","1448","","images/causal_sequence/coin_causal/coin_causal_9.png","0","",""
"","","","","","image-button-response","83","788098","0.0-12.0-1.0-2.8","73DE64120BC64CAE8547ABCF5AA238D5","73DE64120BC64CAE8547ABCF5AA238D5","0198bcce-acdb-7b3a-825c-64d35d4e1900","0198bbb8-fd11-701d-9147-68794ad37298","{""num_scrambled_semantic"":""8"",""num_scrambled_causal"":""4"",""num_scrambled_schematic"":""4"",""participantId"":""73DE64120BC64CAE8547ABCF5AA238D5"",""assignmentId"":""0198bcce-acdb-7b3a-825c-64d35d4e1900"",""projectId"":""0198bbb8-fd11-701d-9147-68794ad37298""}","https://test12345.live/?num_scrambled_semantic=8&num_scrambled_causal=4&num_scrambled_schematic=4&participantId=73DE64120BC64CAE8547ABCF5AA238D5&assignmentId=0198bcce-acdb-7b3a-825c-64d35d4e1900&projectId=0198bbb8-fd11-701d-9147-68794ad37298","73DE64120BC64CAE8547ABCF5AA238D5-2025-08-18-11-25-44","","null","","[]","null","",""
"","","","","","image-button-response","84","792615","0.0-12.0-1.0-0.9","73DE64120BC64CAE8547ABCF5AA238D5","73DE64120BC64CAE8547ABCF5AA238D5","0198bcce-acdb-7b3a-825c-64d35d4e1900","0198bbb8-fd11-701d-9147-68794ad37298","{""num_scrambled_semantic"":""8"",""num_scrambled_causal"":""4"",""num_scrambled_schematic"":""4"",""participantId"":""73DE64120BC64CAE8547ABCF5AA238D5"",""assignmentId"":""0198bcce-acdb-7b3a-825c-64d35d4e1900"",""projectId"":""0198bbb8-fd11-701d-9147-68794ad37298""}","https://test12345.live/?num_scrambled_semantic=8&num_scrambled_causal=4&num_scrambled_schematic=4&participantId=73DE64120BC64CAE8547ABCF5AA238D5&assignmentId=0198bcce-acdb-7b3a-825c-64d35d4e1900&projectId=0198bbb8-fd11-701d-9147-68794ad37298","73DE64120BC64CAE8547ABCF5AA238D5-2025-08-18-11-25-44","","null","","images/causal_sequence/coin_causal/coin_causal_6.png","null","",""
"","","","","","image-button-response","85","794444","0.0-12.0-1.0-1.9","73DE64120BC64CAE8547ABCF5AA238D5","73DE64120BC64CAE8547ABCF5AA238D5","0198bcce-acdb-7b3a-825c-64d35d4e1900","0198bbb8-fd11-701d-9147-68794ad37298","{""num_scrambled_semantic"":""8"",""num_scrambled_causal"":""4"",""num_scrambled_schematic"":""4"",""participantId"":""73DE64120BC64CAE8547ABCF5AA238D5"",""assignmentId"":""0198bcce-acdb-7b3a-825c-64d35d4e1900"",""projectId"":""0198bbb8-fd11-701d-9147-68794ad37298""}","https://test12345.live/?num_scrambled_semantic=8&num_scrambled_causal=4&num_scrambled_schematic=4&participantId=73DE64120BC64CAE8547ABCF5AA238D5&assignmentId=0198bcce-acdb-7b3a-825c-64d35d4e1900&projectId=0198bbb8-fd11-701d-9147-68794ad37298","73DE64120BC64CAE8547ABCF5AA238D5-2025-08-18-11-25-44","","1829","","images/causal_sequence/coin_causal/coin_causal_6.png","0","",""
"","","","","","image-button-response","86","805247","0.0-12.0-1.0-2.9","73DE64120BC64CAE8547ABCF5AA238D5","73DE64120BC64CAE8547ABCF5AA238D5","0198bcce-acdb-7b3a-825c-64d35d4e1900","0198bbb8-fd11-701d-9147-68794ad37298","{""num_scrambled_semantic"":""8"",""num_scrambled_causal"":""4"",""num_scrambled_schematic"":""4"",""participantId"":""73DE64120BC64CAE8547ABCF5AA238D5"",""assignmentId"":""0198bcce-acdb-7b3a-825c-64d35d4e1900"",""projectId"":""0198bbb8-fd11-701d-9147-68794ad37298""}","https://test12345.live/?num_scrambled_semantic=8&num_scrambled_causal=4&num_scrambled_schematic=4&participantId=73DE64120BC64CAE8547ABCF5AA238D5&assignmentId=0198bcce-acdb-7b3a-825c-64d35d4e1900&projectId=0198bbb8-fd11-701d-9147-68794ad37298","73DE64120BC64CAE8547ABCF5AA238D5-2025-08-18-11-25-44","","null","","[]","null","",""
"","","","","","html-audio-response","87","831742","0.0-13.0","73DE64120BC64CAE8547ABCF5AA238D5","73DE64120BC64CAE8547ABCF5AA238D5","0198bcce-acdb-7b3a-825c-64d35d4e1900","0198bbb8-fd11-701d-9147-68794ad37298","{""num_scrambled_semantic"":""8"",""num_scrambled_causal"":""4"",""num_scrambled_schematic"":""4"",""participantId"":""73DE64120BC64CAE8547ABCF5AA238D5"",""assignmentId"":""0198bcce-acdb-7b3a-825c-64d35d4e1900"",""projectId"":""0198bbb8-fd11-701d-9147-68794ad37298""}","https://test12345.live/?num_scrambled_semantic=8&num_scrambled_causal=4&num_scrambled_schematic=4&participantId=73DE64120BC64CAE8547ABCF5AA238D5&assignmentId=0198bcce-acdb-7b3a-825c-64d35d4e1900&projectId=0198bbb8-fd11-701d-9147-68794ad37298","73DE64120BC64CAE8547ABCF5AA238D5-2025-08-18-11-25-44","","17053","","[""<span style=\""color: red; font-size: 24px\""> NOW RECORDING</span><p>Please say out loud all the images you saw, as many as you can remember. The images can be said in any order.</p>""]","","1","coin_causal"
"","","","","","image-button-response","88","837753","0.0-14.0-0.0","73DE64120BC64CAE8547ABCF5AA238D5","73DE64120BC64CAE8547ABCF5AA238D5","0198bcce-acdb-7b3a-825c-64d35d4e1900","0198bbb8-fd11-701d-9147-68794ad37298","{""num_scrambled_semantic"":""8"",""num_scrambled_causal"":""4"",""num_scrambled_schematic"":""4"",""participantId"":""73DE64120BC64CAE8547ABCF5AA238D5"",""assignmentId"":""0198bcce-acdb-7b3a-825c-64d35d4e1900"",""projectId"":""0198bbb8-fd11-701d-9147-68794ad37298""}","https://test12345.live/?num_scrambled_semantic=8&num_scrambled_causal=4&num_scrambled_schematic=4&participantId=73DE64120BC64CAE8547ABCF5AA238D5&assignmentId=0198bcce-acdb-7b3a-825c-64d35d4e1900&projectId=0198bbb8-fd11-701d-9147-68794ad37298","73DE64120BC64CAE8547ABCF5AA238D5-2025-08-18-11-25-44","","null","","images/semantic_sequence/cat_care_semantic/cat_care_semantic_0.png","null","",""
"","","","","","image-button-response","89","842261","0.0-14.0-1.0-0.0","73DE64120BC64CAE8547ABCF5AA238D5","73DE64120BC64CAE8547ABCF5AA238D5","0198bcce-acdb-7b3a-825c-64d35d4e1900","0198bbb8-fd11-701d-9147-68794ad37298","{""num_scrambled_semantic"":""8"",""num_scrambled_causal"":""4"",""num_scrambled_schematic"":""4"",""participantId"":""73DE64120BC64CAE8547ABCF5AA238D5"",""assignmentId"":""0198bcce-acdb-7b3a-825c-64d35d4e1900"",""projectId"":""0198bbb8-fd11-701d-9147-68794ad37298""}","https://test12345.live/?num_scrambled_semantic=8&num_scrambled_causal=4&num_scrambled_schematic=4&participantId=73DE64120BC64CAE8547ABCF5AA238D5&assignmentId=0198bcce-acdb-7b3a-825c-64d35d4e1900&projectId=0198bbb8-fd11-701d-9147-68794ad37298","73DE64120BC64CAE8547ABCF5AA238D5-2025-08-18-11-25-44","","null","","images/semantic_sequence/cat_care_semantic/cat_care_semantic_8.png","null","",""
"","","","","","image-button-response","90","843498","0.0-14.0-1.0-1.0","73DE64120BC64CAE8547ABCF5AA238D5","73DE64120BC64CAE8547ABCF5AA238D5","0198bcce-acdb-7b3a-825c-64d35d4e1900","0198bbb8-fd11-701d-9147-68794ad37298","{""num_scrambled_semantic"":""8"",""num_scrambled_causal"":""4"",""num_scrambled_schematic"":""4"",""participantId"":""73DE64120BC64CAE8547ABCF5AA238D5"",""assignmentId"":""0198bcce-acdb-7b3a-825c-64d35d4e1900"",""projectId"":""0198bbb8-fd11-701d-9147-68794ad37298""}","https://test12345.live/?num_scrambled_semantic=8&num_scrambled_causal=4&num_scrambled_schematic=4&participantId=73DE64120BC64CAE8547ABCF5AA238D5&assignmentId=0198bcce-acdb-7b3a-825c-64d35d4e1900&projectId=0198bbb8-fd11-701d-9147-68794ad37298","73DE64120BC64CAE8547ABCF5AA238D5-2025-08-18-11-25-44","","1236","","images/semantic_sequence/cat_care_semantic/cat_care_semantic_8.png","0","",""
"","","","","","image-button-response","91","854317","0.0-14.0-1.0-2.0","73DE64120BC64CAE8547ABCF5AA238D5","73DE64120BC64CAE8547ABCF5AA238D5","0198bcce-acdb-7b3a-825c-64d35d4e1900","0198bbb8-fd11-701d-9147-68794ad37298","{""num_scrambled_semantic"":""8"",""num_scrambled_causal"":""4"",""num_scrambled_schematic"":""4"",""participantId"":""73DE64120BC64CAE8547ABCF5AA238D5"",""assignmentId"":""0198bcce-acdb-7b3a-825c-64d35d4e1900"",""projectId"":""0198bbb8-fd11-701d-9147-68794ad37298""}","https://test12345.live/?num_scrambled_semantic=8&num_scrambled_causal=4&num_scrambled_schematic=4&participantId=73DE64120BC64CAE8547ABCF5AA238D5&assignmentId=0198bcce-acdb-7b3a-825c-64d35d4e1900&projectId=0198bbb8-fd11-701d-9147-68794ad37298","73DE64120BC64CAE8547ABCF5AA238D5-2025-08-18-11-25-44","","null","","[]","null","",""
"","","","","","image-button-response","92","858831","0.0-14.0-1.0-0.1","73DE64120BC64CAE8547ABCF5AA238D5","73DE64120BC64CAE8547ABCF5AA238D5","0198bcce-acdb-7b3a-825c-64d35d4e1900","0198bbb8-fd11-701d-9147-68794ad37298","{""num_scrambled_semantic"":""8"",""num_scrambled_causal"":""4"",""num_scrambled_schematic"":""4"",""participantId"":""73DE64120BC64CAE8547ABCF5AA238D5"",""assignmentId"":""0198bcce-acdb-7b3a-825c-64d35d4e1900"",""projectId"":""0198bbb8-fd11-701d-9147-68794ad37298""}","https://test12345.live/?num_scrambled_semantic=8&num_scrambled_causal=4&num_scrambled_schematic=4&participantId=73DE64120BC64CAE8547ABCF5AA238D5&assignmentId=0198bcce-acdb-7b3a-825c-64d35d4e1900&projectId=0198bbb8-fd11-701d-9147-68794ad37298","73DE64120BC64CAE8547ABCF5AA238D5-2025-08-18-11-25-44","","null","","images/semantic_sequence/cat_care_semantic/cat_care_semantic_7.png","null","",""
"","","","","","image-button-response","93","860214","0.0-14.0-1.0-1.1","73DE64120BC64CAE8547ABCF5AA238D5","73DE64120BC64CAE8547ABCF5AA238D5","0198bcce-acdb-7b3a-825c-64d35d4e1900","0198bbb8-fd11-701d-9147-68794ad37298","{""num_scrambled_semantic"":""8"",""num_scrambled_causal"":""4"",""num_scrambled_schematic"":""4"",""participantId"":""73DE64120BC64CAE8547ABCF5AA238D5"",""assignmentId"":""0198bcce-acdb-7b3a-825c-64d35d4e1900"",""projectId"":""0198bbb8-fd11-701d-9147-68794ad37298""}","https://test12345.live/?num_scrambled_semantic=8&num_scrambled_causal=4&num_scrambled_schematic=4&participantId=73DE64120BC64CAE8547ABCF5AA238D5&assignmentId=0198bcce-acdb-7b3a-825c-64d35d4e1900&projectId=0198bbb8-fd11-701d-9147-68794ad37298","73DE64120BC64CAE8547ABCF5AA238D5-2025-08-18-11-25-44","","1382","","images/semantic_sequence/cat_care_semantic/cat_care_semantic_7.png","0","",""
"","","","","","image-button-response","94","871021","0.0-14.0-1.0-2.1","73DE64120BC64CAE8547ABCF5AA238D5","73DE64120BC64CAE8547ABCF5AA238D5","0198bcce-acdb-7b3a-825c-64d35d4e1900","0198bbb8-fd11-701d-9147-68794ad37298","{""num_scrambled_semantic"":""8"",""num_scrambled_causal"":""4"",""num_scrambled_schematic"":""4"",""participantId"":""73DE64120BC64CAE8547ABCF5AA238D5"",""assignmentId"":""0198bcce-acdb-7b3a-825c-64d35d4e1900"",""projectId"":""0198bbb8-fd11-701d-9147-68794ad37298""}","https://test12345.live/?num_scrambled_semantic=8&num_scrambled_causal=4&num_scrambled_schematic=4&participantId=73DE64120BC64CAE8547ABCF5AA238D5&assignmentId=0198bcce-acdb-7b3a-825c-64d35d4e1900&projectId=0198bbb8-fd11-701d-9147-68794ad37298","73DE64120BC64CAE8547ABCF5AA238D5-2025-08-18-11-25-44","","null","","[]","null","",""
"","","","","","image-button-response","95","875528","0.0-14.0-1.0-0.2","73DE64120BC64CAE8547ABCF5AA238D5","73DE64120BC64CAE8547ABCF5AA238D5","0198bcce-acdb-7b3a-825c-64d35d4e1900","0198bbb8-fd11-701d-9147-68794ad37298","{""num_scrambled_semantic"":""8"",""num_scrambled_causal"":""4"",""num_scrambled_schematic"":""4"",""participantId"":""73DE64120BC64CAE8547ABCF5AA238D5"",""assignmentId"":""0198bcce-acdb-7b3a-825c-64d35d4e1900"",""projectId"":""0198bbb8-fd11-701d-9147-68794ad37298""}","https://test12345.live/?num_scrambled_semantic=8&num_scrambled_causal=4&num_scrambled_schematic=4&participantId=73DE64120BC64CAE8547ABCF5AA238D5&assignmentId=0198bcce-acdb-7b3a-825c-64d35d4e1900&projectId=0198bbb8-fd11-701d-9147-68794ad37298","73DE64120BC64CAE8547ABCF5AA238D5-2025-08-18-11-25-44","","null","","images/semantic_sequence/cat_care_semantic/cat_care_semantic_ten.png","null","",""
"","","","","","image-button-response","96","876272","0.0-14.0-1.0-1.2","73DE64120BC64CAE8547ABCF5AA238D5","73DE64120BC64CAE8547ABCF5AA238D5","0198bcce-acdb-7b3a-825c-64d35d4e1900","0198bbb8-fd11-701d-9147-68794ad37298","{""num_scrambled_semantic"":""8"",""num_scrambled_causal"":""4"",""num_scrambled_schematic"":""4"",""participantId"":""73DE64120BC64CAE8547ABCF5AA238D5"",""assignmentId"":""0198bcce-acdb-7b3a-825c-64d35d4e1900"",""projectId"":""0198bbb8-fd11-701d-9147-68794ad37298""}","https://test12345.live/?num_scrambled_semantic=8&num_scrambled_causal=4&num_scrambled_schematic=4&participantId=73DE64120BC64CAE8547ABCF5AA238D5&assignmentId=0198bcce-acdb-7b3a-825c-64d35d4e1900&projectId=0198bbb8-fd11-701d-9147-68794ad37298","73DE64120BC64CAE8547ABCF5AA238D5-2025-08-18-11-25-44","","744","","images/semantic_sequence/cat_care_semantic/cat_care_semantic_ten.png","1","",""
"","","","","","image-button-response","97","887088","0.0-14.0-1.0-2.2","73DE64120BC64CAE8547ABCF5AA238D5","73DE64120BC64CAE8547ABCF5AA238D5","0198bcce-acdb-7b3a-825c-64d35d4e1900","0198bbb8-fd11-701d-9147-68794ad37298","{""num_scrambled_semantic"":""8"",""num_scrambled_causal"":""4"",""num_scrambled_schematic"":""4"",""participantId"":""73DE64120BC64CAE8547ABCF5AA238D5"",""assignmentId"":""0198bcce-acdb-7b3a-825c-64d35d4e1900"",""projectId"":""0198bbb8-fd11-701d-9147-68794ad37298""}","https://test12345.live/?num_scrambled_semantic=8&num_scrambled_causal=4&num_scrambled_schematic=4&participantId=73DE64120BC64CAE8547ABCF5AA238D5&assignmentId=0198bcce-acdb-7b3a-825c-64d35d4e1900&projectId=0198bbb8-fd11-701d-9147-68794ad37298","73DE64120BC64CAE8547ABCF5AA238D5-2025-08-18-11-25-44","","null","","[]","null","",""
"","","","","","image-button-response","98","891597","0.0-14.0-1.0-0.3","73DE64120BC64CAE8547ABCF5AA238D5","73DE64120BC64CAE8547ABCF5AA238D5","0198bcce-acdb-7b3a-825c-64d35d4e1900","0198bbb8-fd11-701d-9147-68794ad37298","{""num_scrambled_semantic"":""8"",""num_scrambled_causal"":""4"",""num_scrambled_schematic"":""4"",""participantId"":""73DE64120BC64CAE8547ABCF5AA238D5"",""assignmentId"":""0198bcce-acdb-7b3a-825c-64d35d4e1900"",""projectId"":""0198bbb8-fd11-701d-9147-68794ad37298""}","https://test12345.live/?num_scrambled_semantic=8&num_scrambled_causal=4&num_scrambled_schematic=4&participantId=73DE64120BC64CAE8547ABCF5AA238D5&assignmentId=0198bcce-acdb-7b3a-825c-64d35d4e1900&projectId=0198bbb8-fd11-701d-9147-68794ad37298","73DE64120BC64CAE8547ABCF5AA238D5-2025-08-18-11-25-44","","null","","images/semantic_sequence/cat_care_semantic/cat_care_semantic_4.png","null","",""
"","","","","","image-button-response","99","893539","0.0-14.0-1.0-1.3","73DE64120BC64CAE8547ABCF5AA238D5","73DE64120BC64CAE8547ABCF5AA238D5","0198bcce-acdb-7b3a-825c-64d35d4e1900","0198bbb8-fd11-701d-9147-68794ad37298","{""num_scrambled_semantic"":""8"",""num_scrambled_causal"":""4"",""num_scrambled_schematic"":""4"",""participantId"":""73DE64120BC64CAE8547ABCF5AA238D5"",""assignmentId"":""0198bcce-acdb-7b3a-825c-64d35d4e1900"",""projectId"":""0198bbb8-fd11-701d-9147-68794ad37298""}","https://test12345.live/?num_scrambled_semantic=8&num_scrambled_causal=4&num_scrambled_schematic=4&participantId=73DE64120BC64CAE8547ABCF5AA238D5&assignmentId=0198bcce-acdb-7b3a-825c-64d35d4e1900&projectId=0198bbb8-fd11-701d-9147-68794ad37298","73DE64120BC64CAE8547ABCF5AA238D5-2025-08-18-11-25-44","","1941","","images/semantic_sequence/cat_care_semantic/cat_care_semantic_4.png","0","",""
"","","","","","image-button-response","100","904344","0.0-14.0-1.0-2.3","73DE64120BC64CAE8547ABCF5AA238D5","73DE64120BC64CAE8547ABCF5AA238D5","0198bcce-acdb-7b3a-825c-64d35d4e1900","0198bbb8-fd11-701d-9147-68794ad37298","{""num_scrambled_semantic"":""8"",""num_scrambled_causal"":""4"",""num_scrambled_schematic"":""4"",""participantId"":""73DE64120BC64CAE8547ABCF5AA238D5"",""assignmentId"":""0198bcce-acdb-7b3a-825c-64d35d4e1900"",""projectId"":""0198bbb8-fd11-701d-9147-68794ad37298""}","https://test12345.live/?num_scrambled_semantic=8&num_scrambled_causal=4&num_scrambled_schematic=4&participantId=73DE64120BC64CAE8547ABCF5AA238D5&assignmentId=0198bcce-acdb-7b3a-825c-64d35d4e1900&projectId=0198bbb8-fd11-701d-9147-68794ad37298","73DE64120BC64CAE8547ABCF5AA238D5-2025-08-18-11-25-44","","null","","[]","null","",""
"","","","","","image-button-response","101","908858","0.0-14.0-1.0-0.4","73DE64120BC64CAE8547ABCF5AA238D5","73DE64120BC64CAE8547ABCF5AA238D5","0198bcce-acdb-7b3a-825c-64d35d4e1900","0198bbb8-fd11-701d-9147-68794ad37298","{""num_scrambled_semantic"":""8"",""num_scrambled_causal"":""4"",""num_scrambled_schematic"":""4"",""participantId"":""73DE64120BC64CAE8547ABCF5AA238D5"",""assignmentId"":""0198bcce-acdb-7b3a-825c-64d35d4e1900"",""projectId"":""0198bbb8-fd11-701d-9147-68794ad37298""}","https://test12345.live/?num_scrambled_semantic=8&num_scrambled_causal=4&num_scrambled_schematic=4&participantId=73DE64120BC64CAE8547ABCF5AA238D5&assignmentId=0198bcce-acdb-7b3a-825c-64d35d4e1900&projectId=0198bbb8-fd11-701d-9147-68794ad37298","73DE64120BC64CAE8547ABCF5AA238D5-2025-08-18-11-25-44","","null","","images/semantic_sequence/cat_care_semantic/cat_care_semantic_5.png","null","",""
"","","","","","image-button-response","102","912368","0.0-14.0-1.0-1.4","73DE64120BC64CAE8547ABCF5AA238D5","73DE64120BC64CAE8547ABCF5AA238D5","0198bcce-acdb-7b3a-825c-64d35d4e1900","0198bbb8-fd11-701d-9147-68794ad37298","{""num_scrambled_semantic"":""8"",""num_scrambled_causal"":""4"",""num_scrambled_schematic"":""4"",""participantId"":""73DE64120BC64CAE8547ABCF5AA238D5"",""assignmentId"":""0198bcce-acdb-7b3a-825c-64d35d4e1900"",""projectId"":""0198bbb8-fd11-701d-9147-68794ad37298""}","https://test12345.live/?num_scrambled_semantic=8&num_scrambled_causal=4&num_scrambled_schematic=4&participantId=73DE64120BC64CAE8547ABCF5AA238D5&assignmentId=0198bcce-acdb-7b3a-825c-64d35d4e1900&projectId=0198bbb8-fd11-701d-9147-68794ad37298","73DE64120BC64CAE8547ABCF5AA238D5-2025-08-18-11-25-44","","3509","","images/semantic_sequence/cat_care_semantic/cat_care_semantic_5.png","0","",""
"","","","","","image-button-response","103","923171","0.0-14.0-1.0-2.4","73DE64120BC64CAE8547ABCF5AA238D5","73DE64120BC64CAE8547ABCF5AA238D5","0198bcce-acdb-7b3a-825c-64d35d4e1900","0198bbb8-fd11-701d-9147-68794ad37298","{""num_scrambled_semantic"":""8"",""num_scrambled_causal"":""4"",""num_scrambled_schematic"":""4"",""participantId"":""73DE64120BC64CAE8547ABCF5AA238D5"",""assignmentId"":""0198bcce-acdb-7b3a-825c-64d35d4e1900"",""projectId"":""0198bbb8-fd11-701d-9147-68794ad37298""}","https://test12345.live/?num_scrambled_semantic=8&num_scrambled_causal=4&num_scrambled_schematic=4&participantId=73DE64120BC64CAE8547ABCF5AA238D5&assignmentId=0198bcce-acdb-7b3a-825c-64d35d4e1900&projectId=0198bbb8-fd11-701d-9147-68794ad37298","73DE64120BC64CAE8547ABCF5AA238D5-2025-08-18-11-25-44","","null","","[]","null","",""
"","","","","","image-button-response","104","927677","0.0-14.0-1.0-0.5","73DE64120BC64CAE8547ABCF5AA238D5","73DE64120BC64CAE8547ABCF5AA238D5","0198bcce-acdb-7b3a-825c-64d35d4e1900","0198bbb8-fd11-701d-9147-68794ad37298","{""num_scrambled_semantic"":""8"",""num_scrambled_causal"":""4"",""num_scrambled_schematic"":""4"",""participantId"":""73DE64120BC64CAE8547ABCF5AA238D5"",""assignmentId"":""0198bcce-acdb-7b3a-825c-64d35d4e1900"",""projectId"":""0198bbb8-fd11-701d-9147-68794ad37298""}","https://test12345.live/?num_scrambled_semantic=8&num_scrambled_causal=4&num_scrambled_schematic=4&participantId=73DE64120BC64CAE8547ABCF5AA238D5&assignmentId=0198bcce-acdb-7b3a-825c-64d35d4e1900&projectId=0198bbb8-fd11-701d-9147-68794ad37298","73DE64120BC64CAE8547ABCF5AA238D5-2025-08-18-11-25-44","","null","","images/semantic_sequence/cat_care_semantic/cat_care_semantic_2.png","null","",""
"","","","","","image-button-response","105","928705","0.0-14.0-1.0-1.5","73DE64120BC64CAE8547ABCF5AA238D5","73DE64120BC64CAE8547ABCF5AA238D5","0198bcce-acdb-7b3a-825c-64d35d4e1900","0198bbb8-fd11-701d-9147-68794ad37298","{""num_scrambled_semantic"":""8"",""num_scrambled_causal"":""4"",""num_scrambled_schematic"":""4"",""participantId"":""73DE64120BC64CAE8547ABCF5AA238D5"",""assignmentId"":""0198bcce-acdb-7b3a-825c-64d35d4e1900"",""projectId"":""0198bbb8-fd11-701d-9147-68794ad37298""}","https://test12345.live/?num_scrambled_semantic=8&num_scrambled_causal=4&num_scrambled_schematic=4&participantId=73DE64120BC64CAE8547ABCF5AA238D5&assignmentId=0198bcce-acdb-7b3a-825c-64d35d4e1900&projectId=0198bbb8-fd11-701d-9147-68794ad37298","73DE64120BC64CAE8547ABCF5AA238D5-2025-08-18-11-25-44","","1027","","images/semantic_sequence/cat_care_semantic/cat_care_semantic_2.png","0","",""
"","","","","","image-button-response","106","939512","0.0-14.0-1.0-2.5","73DE64120BC64CAE8547ABCF5AA238D5","73DE64120BC64CAE8547ABCF5AA238D5","0198bcce-acdb-7b3a-825c-64d35d4e1900","0198bbb8-fd11-701d-9147-68794ad37298","{""num_scrambled_semantic"":""8"",""num_scrambled_causal"":""4"",""num_scrambled_schematic"":""4"",""participantId"":""73DE64120BC64CAE8547ABCF5AA238D5"",""assignmentId"":""0198bcce-acdb-7b3a-825c-64d35d4e1900"",""projectId"":""0198bbb8-fd11-701d-9147-68794ad37298""}","https://test12345.live/?num_scrambled_semantic=8&num_scrambled_causal=4&num_scrambled_schematic=4&participantId=73DE64120BC64CAE8547ABCF5AA238D5&assignmentId=0198bcce-acdb-7b3a-825c-64d35d4e1900&projectId=0198bbb8-fd11-701d-9147-68794ad37298","73DE64120BC64CAE8547ABCF5AA238D5-2025-08-18-11-25-44","","null","","[]","null","",""
"","","","","","image-button-response","107","944026","0.0-14.0-1.0-0.6","73DE64120BC64CAE8547ABCF5AA238D5","73DE64120BC64CAE8547ABCF5AA238D5","0198bcce-acdb-7b3a-825c-64d35d4e1900","0198bbb8-fd11-701d-9147-68794ad37298","{""num_scrambled_semantic"":""8"",""num_scrambled_causal"":""4"",""num_scrambled_schematic"":""4"",""participantId"":""73DE64120BC64CAE8547ABCF5AA238D5"",""assignmentId"":""0198bcce-acdb-7b3a-825c-64d35d4e1900"",""projectId"":""0198bbb8-fd11-701d-9147-68794ad37298""}","https://test12345.live/?num_scrambled_semantic=8&num_scrambled_causal=4&num_scrambled_schematic=4&participantId=73DE64120BC64CAE8547ABCF5AA238D5&assignmentId=0198bcce-acdb-7b3a-825c-64d35d4e1900&projectId=0198bbb8-fd11-701d-9147-68794ad37298","73DE64120BC64CAE8547ABCF5AA238D5-2025-08-18-11-25-44","","null","","images/semantic_sequence/cat_care_semantic/cat_care_semantic_6.png","null","",""
"","","","","","image-button-response","108","945800","0.0-14.0-1.0-1.6","73DE64120BC64CAE8547ABCF5AA238D5","73DE64120BC64CAE8547ABCF5AA238D5","0198bcce-acdb-7b3a-825c-64d35d4e1900","0198bbb8-fd11-701d-9147-68794ad37298","{""num_scrambled_semantic"":""8"",""num_scrambled_causal"":""4"",""num_scrambled_schematic"":""4"",""participantId"":""73DE64120BC64CAE8547ABCF5AA238D5"",""assignmentId"":""0198bcce-acdb-7b3a-825c-64d35d4e1900"",""projectId"":""0198bbb8-fd11-701d-9147-68794ad37298""}","https://test12345.live/?num_scrambled_semantic=8&num_scrambled_causal=4&num_scrambled_schematic=4&participantId=73DE64120BC64CAE8547ABCF5AA238D5&assignmentId=0198bcce-acdb-7b3a-825c-64d35d4e1900&projectId=0198bbb8-fd11-701d-9147-68794ad37298","73DE64120BC64CAE8547ABCF5AA238D5-2025-08-18-11-25-44","","1773","","images/semantic_sequence/cat_care_semantic/cat_care_semantic_6.png","0","",""
"","","","","","image-button-response","109","956608","0.0-14.0-1.0-2.6","73DE64120BC64CAE8547ABCF5AA238D5","73DE64120BC64CAE8547ABCF5AA238D5","0198bcce-acdb-7b3a-825c-64d35d4e1900","0198bbb8-fd11-701d-9147-68794ad37298","{""num_scrambled_semantic"":""8"",""num_scrambled_causal"":""4"",""num_scrambled_schematic"":""4"",""participantId"":""73DE64120BC64CAE8547ABCF5AA238D5"",""assignmentId"":""0198bcce-acdb-7b3a-825c-64d35d4e1900"",""projectId"":""0198bbb8-fd11-701d-9147-68794ad37298""}","https://test12345.live/?num_scrambled_semantic=8&num_scrambled_causal=4&num_scrambled_schematic=4&participantId=73DE64120BC64CAE8547ABCF5AA238D5&assignmentId=0198bcce-acdb-7b3a-825c-64d35d4e1900&projectId=0198bbb8-fd11-701d-9147-68794ad37298","73DE64120BC64CAE8547ABCF5AA238D5-2025-08-18-11-25-44","","null","","[]","null","",""
"","","","","","image-button-response","110","961114","0.0-14.0-1.0-0.7","73DE64120BC64CAE8547ABCF5AA238D5","73DE64120BC64CAE8547ABCF5AA238D5","0198bcce-acdb-7b3a-825c-64d35d4e1900","0198bbb8-fd11-701d-9147-68794ad37298","{""num_scrambled_semantic"":""8"",""num_scrambled_causal"":""4"",""num_scrambled_schematic"":""4"",""participantId"":""73DE64120BC64CAE8547ABCF5AA238D5"",""assignmentId"":""0198bcce-acdb-7b3a-825c-64d35d4e1900"",""projectId"":""0198bbb8-fd11-701d-9147-68794ad37298""}","https://test12345.live/?num_scrambled_semantic=8&num_scrambled_causal=4&num_scrambled_schematic=4&participantId=73DE64120BC64CAE8547ABCF5AA238D5&assignmentId=0198bcce-acdb-7b3a-825c-64d35d4e1900&projectId=0198bbb8-fd11-701d-9147-68794ad37298","73DE64120BC64CAE8547ABCF5AA238D5-2025-08-18-11-25-44","","null","","images/semantic_sequence/cat_care_semantic/cat_care_semantic_1.png","null","",""
"","","","","","image-button-response","111","962182","0.0-14.0-1.0-1.7","73DE64120BC64CAE8547ABCF5AA238D5","73DE64120BC64CAE8547ABCF5AA238D5","0198bcce-acdb-7b3a-825c-64d35d4e1900","0198bbb8-fd11-701d-9147-68794ad37298","{""num_scrambled_semantic"":""8"",""num_scrambled_causal"":""4"",""num_scrambled_schematic"":""4"",""participantId"":""73DE64120BC64CAE8547ABCF5AA238D5"",""assignmentId"":""0198bcce-acdb-7b3a-825c-64d35d4e1900"",""projectId"":""0198bbb8-fd11-701d-9147-68794ad37298""}","https://test12345.live/?num_scrambled_semantic=8&num_scrambled_causal=4&num_scrambled_schematic=4&participantId=73DE64120BC64CAE8547ABCF5AA238D5&assignmentId=0198bcce-acdb-7b3a-825c-64d35d4e1900&projectId=0198bbb8-fd11-701d-9147-68794ad37298","73DE64120BC64CAE8547ABCF5AA238D5-2025-08-18-11-25-44","","1068","","images/semantic_sequence/cat_care_semantic/cat_care_semantic_1.png","0","",""
"","","","","","image-button-response","112","972984","0.0-14.0-1.0-2.7","73DE64120BC64CAE8547ABCF5AA238D5","73DE64120BC64CAE8547ABCF5AA238D5","0198bcce-acdb-7b3a-825c-64d35d4e1900","0198bbb8-fd11-701d-9147-68794ad37298","{""num_scrambled_semantic"":""8"",""num_scrambled_causal"":""4"",""num_scrambled_schematic"":""4"",""participantId"":""73DE64120BC64CAE8547ABCF5AA238D5"",""assignmentId"":""0198bcce-acdb-7b3a-825c-64d35d4e1900"",""projectId"":""0198bbb8-fd11-701d-9147-68794ad37298""}","https://test12345.live/?num_scrambled_semantic=8&num_scrambled_causal=4&num_scrambled_schematic=4&participantId=73DE64120BC64CAE8547ABCF5AA238D5&assignmentId=0198bcce-acdb-7b3a-825c-64d35d4e1900&projectId=0198bbb8-fd11-701d-9147-68794ad37298","73DE64120BC64CAE8547ABCF5AA238D5-2025-08-18-11-25-44","","null","","[]","null","",""
"","","","","","image-button-response","113","977494","0.0-14.0-1.0-0.8","73DE64120BC64CAE8547ABCF5AA238D5","73DE64120BC64CAE8547ABCF5AA238D5","0198bcce-acdb-7b3a-825c-64d35d4e1900","0198bbb8-fd11-701d-9147-68794ad37298","{""num_scrambled_semantic"":""8"",""num_scrambled_causal"":""4"",""num_scrambled_schematic"":""4"",""participantId"":""73DE64120BC64CAE8547ABCF5AA238D5"",""assignmentId"":""0198bcce-acdb-7b3a-825c-64d35d4e1900"",""projectId"":""0198bbb8-fd11-701d-9147-68794ad37298""}","https://test12345.live/?num_scrambled_semantic=8&num_scrambled_causal=4&num_scrambled_schematic=4&participantId=73DE64120BC64CAE8547ABCF5AA238D5&assignmentId=0198bcce-acdb-7b3a-825c-64d35d4e1900&projectId=0198bbb8-fd11-701d-9147-68794ad37298","73DE64120BC64CAE8547ABCF5AA238D5-2025-08-18-11-25-44","","null","","images/semantic_sequence/cat_care_semantic/cat_care_semantic_9.png","null","",""
"","","","","","image-button-response","114","978823","0.0-14.0-1.0-1.8","73DE64120BC64CAE8547ABCF5AA238D5","73DE64120BC64CAE8547ABCF5AA238D5","0198bcce-acdb-7b3a-825c-64d35d4e1900","0198bbb8-fd11-701d-9147-68794ad37298","{""num_scrambled_semantic"":""8"",""num_scrambled_causal"":""4"",""num_scrambled_schematic"":""4"",""participantId"":""73DE64120BC64CAE8547ABCF5AA238D5"",""assignmentId"":""0198bcce-acdb-7b3a-825c-64d35d4e1900"",""projectId"":""0198bbb8-fd11-701d-9147-68794ad37298""}","https://test12345.live/?num_scrambled_semantic=8&num_scrambled_causal=4&num_scrambled_schematic=4&participantId=73DE64120BC64CAE8547ABCF5AA238D5&assignmentId=0198bcce-acdb-7b3a-825c-64d35d4e1900&projectId=0198bbb8-fd11-701d-9147-68794ad37298","73DE64120BC64CAE8547ABCF5AA238D5-2025-08-18-11-25-44","","1329","","images/semantic_sequence/cat_care_semantic/cat_care_semantic_9.png","0","",""
