"success","timeout","failed_images","failed_audio","failed_video","trial_type","trial_index","time_elapsed","internal_node_id","subject","subject_id","study_id","session_id","urlvar","current_url","audio_id","view_history","rt","device_id","stimulus","response","estimated_stimulus_onset","seq_name"
"true","false","[]","[]","[]","preload","0","4813","0.0-0.0","746439A1D93B4C738345602E74D32971","746439A1D93B4C738345602E74D32971","f54f64a8-558b-4271-b22d-82a0836e9dac","a0a8f18c-a66e-4ba7-a170-23efbdc67501","{""participantId"":""746439A1D93B4C738345602E74D32971"",""assignmentId"":""f54f64a8-558b-4271-b22d-82a0836e9dac"",""projectId"":""a0a8f18c-a66e-4ba7-a170-23efbdc67501""}","https://test12345.live/?participantId=746439A1D93B4C738345602E74D32971&assignmentId=f54f64a8-558b-4271-b22d-82a0836e9dac&projectId=a0a8f18c-a66e-4ba7-a170-23efbdc67501","746439A1D93B4C738345602E74D32971-2024-11-24-19-25-44","","","","","","",""
"","","","","","instructions","1","18010","0.0-1.0","746439A1D93B4C738345602E74D32971","746439A1D93B4C738345602E74D32971","f54f64a8-558b-4271-b22d-82a0836e9dac","a0a8f18c-a66e-4ba7-a170-23efbdc67501","{""participantId"":""746439A1D93B4C738345602E74D32971"",""assignmentId"":""f54f64a8-558b-4271-b22d-82a0836e9dac"",""projectId"":""a0a8f18c-a66e-4ba7-a170-23efbdc67501""}","https://test12345.live/?participantId=746439A1D93B4C738345602E74D32971&assignmentId=f54f64a8-558b-4271-b22d-82a0836e9dac&projectId=a0a8f18c-a66e-4ba7-a170-23efbdc67501","746439A1D93B4C738345602E74D32971-2024-11-24-19-25-44","[{""page_index"":0,""viewing_time"":13197}]","13197","","","","",""
"","","","","","instructions","2","20786","0.0-2.0","746439A1D93B4C738345602E74D32971","746439A1D93B4C738345602E74D32971","f54f64a8-558b-4271-b22d-82a0836e9dac","a0a8f18c-a66e-4ba7-a170-23efbdc67501","{""participantId"":""746439A1D93B4C738345602E74D32971"",""assignmentId"":""f54f64a8-558b-4271-b22d-82a0836e9dac"",""projectId"":""a0a8f18c-a66e-4ba7-a170-23efbdc67501""}","https://test12345.live/?participantId=746439A1D93B4C738345602E74D32971&assignmentId=f54f64a8-558b-4271-b22d-82a0836e9dac&projectId=a0a8f18c-a66e-4ba7-a170-23efbdc67501","746439A1D93B4C738345602E74D32971-2024-11-24-19-25-44","[{""page_index"":0,""viewing_time"":2775}]","2775","","","","",""
"true","","","","","fullscreen","3","24178","0.0-3.0","746439A1D93B4C738345602E74D32971","746439A1D93B4C738345602E74D32971","f54f64a8-558b-4271-b22d-82a0836e9dac","a0a8f18c-a66e-4ba7-a170-23efbdc67501","{""participantId"":""746439A1D93B4C738345602E74D32971"",""assignmentId"":""f54f64a8-558b-4271-b22d-82a0836e9dac"",""projectId"":""a0a8f18c-a66e-4ba7-a170-23efbdc67501""}","https://test12345.live/?participantId=746439A1D93B4C738345602E74D32971&assignmentId=f54f64a8-558b-4271-b22d-82a0836e9dac&projectId=a0a8f18c-a66e-4ba7-a170-23efbdc67501","746439A1D93B4C738345602E74D32971-2024-11-24-19-25-44","","2378","","","","",""
"","","","","","initialize-microphone","4","31617","0.0-4.0-0.0","746439A1D93B4C738345602E74D32971","746439A1D93B4C738345602E74D32971","f54f64a8-558b-4271-b22d-82a0836e9dac","a0a8f18c-a66e-4ba7-a170-23efbdc67501","{""participantId"":""746439A1D93B4C738345602E74D32971"",""assignmentId"":""f54f64a8-558b-4271-b22d-82a0836e9dac"",""projectId"":""a0a8f18c-a66e-4ba7-a170-23efbdc67501""}","https://test12345.live/?participantId=746439A1D93B4C738345602E74D32971&assignmentId=f54f64a8-558b-4271-b22d-82a0836e9dac&projectId=a0a8f18c-a66e-4ba7-a170-23efbdc67501","746439A1D93B4C738345602E74D32971-2024-11-24-19-25-44","","","7b2b2eabdaacd1d8a6c2fec152a14227bc376cb9942e82a767f69e6e0740446f","","","",""
"","","","","","html-audio-response","5","75817","0.0-4.0-1.0","746439A1D93B4C738345602E74D32971","746439A1D93B4C738345602E74D32971","f54f64a8-558b-4271-b22d-82a0836e9dac","a0a8f18c-a66e-4ba7-a170-23efbdc67501","{""participantId"":""746439A1D93B4C738345602E74D32971"",""assignmentId"":""f54f64a8-558b-4271-b22d-82a0836e9dac"",""projectId"":""a0a8f18c-a66e-4ba7-a170-23efbdc67501""}","https://test12345.live/?participantId=746439A1D93B4C738345602E74D32971&assignmentId=f54f64a8-558b-4271-b22d-82a0836e9dac&projectId=a0a8f18c-a66e-4ba7-a170-23efbdc67501","746439A1D93B4C738345602E74D32971-2024-11-24-19-25-44","","4736","","<span style=""color: red; font-size: 24px""> NOW RECORDING</span>
        <p>Please test Microphone</p>","","6",""
"","","","","","html-button-response","6","77556","0.0-4.0-2.0","746439A1D93B4C738345602E74D32971","746439A1D93B4C738345602E74D32971","f54f64a8-558b-4271-b22d-82a0836e9dac","a0a8f18c-a66e-4ba7-a170-23efbdc67501","{""participantId"":""746439A1D93B4C738345602E74D32971"",""assignmentId"":""f54f64a8-558b-4271-b22d-82a0836e9dac"",""projectId"":""a0a8f18c-a66e-4ba7-a170-23efbdc67501""}","https://test12345.live/?participantId=746439A1D93B4C738345602E74D32971&assignmentId=f54f64a8-558b-4271-b22d-82a0836e9dac&projectId=a0a8f18c-a66e-4ba7-a170-23efbdc67501","746439A1D93B4C738345602E74D32971-2024-11-24-19-25-44","","1736","","<p style=""font-size:48px; color:red;"">Is Microphone OK?</p>","1","",""
"","","","","","instructions","7","91819","0.0-5.0","746439A1D93B4C738345602E74D32971","746439A1D93B4C738345602E74D32971","f54f64a8-558b-4271-b22d-82a0836e9dac","a0a8f18c-a66e-4ba7-a170-23efbdc67501","{""participantId"":""746439A1D93B4C738345602E74D32971"",""assignmentId"":""f54f64a8-558b-4271-b22d-82a0836e9dac"",""projectId"":""a0a8f18c-a66e-4ba7-a170-23efbdc67501""}","https://test12345.live/?participantId=746439A1D93B4C738345602E74D32971&assignmentId=f54f64a8-558b-4271-b22d-82a0836e9dac&projectId=a0a8f18c-a66e-4ba7-a170-23efbdc67501","746439A1D93B4C738345602E74D32971-2024-11-24-19-25-44","[{""page_index"":0,""viewing_time"":4308},{""page_index"":1,""viewing_time"":9954}]","14262","","","","",""
"","","","","","image-button-response","8","97837","0.0-6.0-0.0","746439A1D93B4C738345602E74D32971","746439A1D93B4C738345602E74D32971","f54f64a8-558b-4271-b22d-82a0836e9dac","a0a8f18c-a66e-4ba7-a170-23efbdc67501","{""participantId"":""746439A1D93B4C738345602E74D32971"",""assignmentId"":""f54f64a8-558b-4271-b22d-82a0836e9dac"",""projectId"":""a0a8f18c-a66e-4ba7-a170-23efbdc67501""}","https://test12345.live/?participantId=746439A1D93B4C738345602E74D32971&assignmentId=f54f64a8-558b-4271-b22d-82a0836e9dac&projectId=a0a8f18c-a66e-4ba7-a170-23efbdc67501","746439A1D93B4C738345602E74D32971-2024-11-24-19-25-44","","null","","images/instructions/movie_0.png","null","",""
"","","","","","image-button-response","9","102351","0.0-6.0-1.0-0.0","746439A1D93B4C738345602E74D32971","746439A1D93B4C738345602E74D32971","f54f64a8-558b-4271-b22d-82a0836e9dac","a0a8f18c-a66e-4ba7-a170-23efbdc67501","{""participantId"":""746439A1D93B4C738345602E74D32971"",""assignmentId"":""f54f64a8-558b-4271-b22d-82a0836e9dac"",""projectId"":""a0a8f18c-a66e-4ba7-a170-23efbdc67501""}","https://test12345.live/?participantId=746439A1D93B4C738345602E74D32971&assignmentId=f54f64a8-558b-4271-b22d-82a0836e9dac&projectId=a0a8f18c-a66e-4ba7-a170-23efbdc67501","746439A1D93B4C738345602E74D32971-2024-11-24-19-25-44","","null","","images/instructions/movie_1.png","null","",""
"","","","","","image-button-response","10","105323","0.0-6.0-1.0-1.0","746439A1D93B4C738345602E74D32971","746439A1D93B4C738345602E74D32971","f54f64a8-558b-4271-b22d-82a0836e9dac","a0a8f18c-a66e-4ba7-a170-23efbdc67501","{""participantId"":""746439A1D93B4C738345602E74D32971"",""assignmentId"":""f54f64a8-558b-4271-b22d-82a0836e9dac"",""projectId"":""a0a8f18c-a66e-4ba7-a170-23efbdc67501""}","https://test12345.live/?participantId=746439A1D93B4C738345602E74D32971&assignmentId=f54f64a8-558b-4271-b22d-82a0836e9dac&projectId=a0a8f18c-a66e-4ba7-a170-23efbdc67501","746439A1D93B4C738345602E74D32971-2024-11-24-19-25-44","","2970","","images/instructions/movie_1.png","0","",""
"","","","","","image-button-response","11","107125","0.0-6.0-1.0-2.0","746439A1D93B4C738345602E74D32971","746439A1D93B4C738345602E74D32971","f54f64a8-558b-4271-b22d-82a0836e9dac","a0a8f18c-a66e-4ba7-a170-23efbdc67501","{""participantId"":""746439A1D93B4C738345602E74D32971"",""assignmentId"":""f54f64a8-558b-4271-b22d-82a0836e9dac"",""projectId"":""a0a8f18c-a66e-4ba7-a170-23efbdc67501""}","https://test12345.live/?participantId=746439A1D93B4C738345602E74D32971&assignmentId=f54f64a8-558b-4271-b22d-82a0836e9dac&projectId=a0a8f18c-a66e-4ba7-a170-23efbdc67501","746439A1D93B4C738345602E74D32971-2024-11-24-19-25-44","","null","","[]","null","",""
"","","","","","image-button-response","12","111635","0.0-6.0-1.0-0.1","746439A1D93B4C738345602E74D32971","746439A1D93B4C738345602E74D32971","f54f64a8-558b-4271-b22d-82a0836e9dac","a0a8f18c-a66e-4ba7-a170-23efbdc67501","{""participantId"":""746439A1D93B4C738345602E74D32971"",""assignmentId"":""f54f64a8-558b-4271-b22d-82a0836e9dac"",""projectId"":""a0a8f18c-a66e-4ba7-a170-23efbdc67501""}","https://test12345.live/?participantId=746439A1D93B4C738345602E74D32971&assignmentId=f54f64a8-558b-4271-b22d-82a0836e9dac&projectId=a0a8f18c-a66e-4ba7-a170-23efbdc67501","746439A1D93B4C738345602E74D32971-2024-11-24-19-25-44","","null","","images/instructions/movie_2.png","null","",""
"","","","","","image-button-response","13","115610","0.0-6.0-1.0-1.1","746439A1D93B4C738345602E74D32971","746439A1D93B4C738345602E74D32971","f54f64a8-558b-4271-b22d-82a0836e9dac","a0a8f18c-a66e-4ba7-a170-23efbdc67501","{""participantId"":""746439A1D93B4C738345602E74D32971"",""assignmentId"":""f54f64a8-558b-4271-b22d-82a0836e9dac"",""projectId"":""a0a8f18c-a66e-4ba7-a170-23efbdc67501""}","https://test12345.live/?participantId=746439A1D93B4C738345602E74D32971&assignmentId=f54f64a8-558b-4271-b22d-82a0836e9dac&projectId=a0a8f18c-a66e-4ba7-a170-23efbdc67501","746439A1D93B4C738345602E74D32971-2024-11-24-19-25-44","","3974","","images/instructions/movie_2.png","0","",""
"","","","","","image-button-response","14","117415","0.0-6.0-1.0-2.1","746439A1D93B4C738345602E74D32971","746439A1D93B4C738345602E74D32971","f54f64a8-558b-4271-b22d-82a0836e9dac","a0a8f18c-a66e-4ba7-a170-23efbdc67501","{""participantId"":""746439A1D93B4C738345602E74D32971"",""assignmentId"":""f54f64a8-558b-4271-b22d-82a0836e9dac"",""projectId"":""a0a8f18c-a66e-4ba7-a170-23efbdc67501""}","https://test12345.live/?participantId=746439A1D93B4C738345602E74D32971&assignmentId=f54f64a8-558b-4271-b22d-82a0836e9dac&projectId=a0a8f18c-a66e-4ba7-a170-23efbdc67501","746439A1D93B4C738345602E74D32971-2024-11-24-19-25-44","","null","","[]","null","",""
"","","","","","image-button-response","15","121925","0.0-6.0-1.0-0.2","746439A1D93B4C738345602E74D32971","746439A1D93B4C738345602E74D32971","f54f64a8-558b-4271-b22d-82a0836e9dac","a0a8f18c-a66e-4ba7-a170-23efbdc67501","{""participantId"":""746439A1D93B4C738345602E74D32971"",""assignmentId"":""f54f64a8-558b-4271-b22d-82a0836e9dac"",""projectId"":""a0a8f18c-a66e-4ba7-a170-23efbdc67501""}","https://test12345.live/?participantId=746439A1D93B4C738345602E74D32971&assignmentId=f54f64a8-558b-4271-b22d-82a0836e9dac&projectId=a0a8f18c-a66e-4ba7-a170-23efbdc67501","746439A1D93B4C738345602E74D32971-2024-11-24-19-25-44","","null","","images/instructions/movie_3.png","null","",""
"","","","","","image-button-response","16","123585","0.0-6.0-1.0-1.2","746439A1D93B4C738345602E74D32971","746439A1D93B4C738345602E74D32971","f54f64a8-558b-4271-b22d-82a0836e9dac","a0a8f18c-a66e-4ba7-a170-23efbdc67501","{""participantId"":""746439A1D93B4C738345602E74D32971"",""assignmentId"":""f54f64a8-558b-4271-b22d-82a0836e9dac"",""projectId"":""a0a8f18c-a66e-4ba7-a170-23efbdc67501""}","https://test12345.live/?participantId=746439A1D93B4C738345602E74D32971&assignmentId=f54f64a8-558b-4271-b22d-82a0836e9dac&projectId=a0a8f18c-a66e-4ba7-a170-23efbdc67501","746439A1D93B4C738345602E74D32971-2024-11-24-19-25-44","","1659","","images/instructions/movie_3.png","0","",""
"","","","","","image-button-response","17","125395","0.0-6.0-1.0-2.2","746439A1D93B4C738345602E74D32971","746439A1D93B4C738345602E74D32971","f54f64a8-558b-4271-b22d-82a0836e9dac","a0a8f18c-a66e-4ba7-a170-23efbdc67501","{""participantId"":""746439A1D93B4C738345602E74D32971"",""assignmentId"":""f54f64a8-558b-4271-b22d-82a0836e9dac"",""projectId"":""a0a8f18c-a66e-4ba7-a170-23efbdc67501""}","https://test12345.live/?participantId=746439A1D93B4C738345602E74D32971&assignmentId=f54f64a8-558b-4271-b22d-82a0836e9dac&projectId=a0a8f18c-a66e-4ba7-a170-23efbdc67501","746439A1D93B4C738345602E74D32971-2024-11-24-19-25-44","","null","","[]","null","",""
"","","","","","image-button-response","18","129915","0.0-6.0-1.0-0.3","746439A1D93B4C738345602E74D32971","746439A1D93B4C738345602E74D32971","f54f64a8-558b-4271-b22d-82a0836e9dac","a0a8f18c-a66e-4ba7-a170-23efbdc67501","{""participantId"":""746439A1D93B4C738345602E74D32971"",""assignmentId"":""f54f64a8-558b-4271-b22d-82a0836e9dac"",""projectId"":""a0a8f18c-a66e-4ba7-a170-23efbdc67501""}","https://test12345.live/?participantId=746439A1D93B4C738345602E74D32971&assignmentId=f54f64a8-558b-4271-b22d-82a0836e9dac&projectId=a0a8f18c-a66e-4ba7-a170-23efbdc67501","746439A1D93B4C738345602E74D32971-2024-11-24-19-25-44","","null","","images/instructions/movie_4.png","null","",""
"","","","","","image-button-response","19","130926","0.0-6.0-1.0-1.3","746439A1D93B4C738345602E74D32971","746439A1D93B4C738345602E74D32971","f54f64a8-558b-4271-b22d-82a0836e9dac","a0a8f18c-a66e-4ba7-a170-23efbdc67501","{""participantId"":""746439A1D93B4C738345602E74D32971"",""assignmentId"":""f54f64a8-558b-4271-b22d-82a0836e9dac"",""projectId"":""a0a8f18c-a66e-4ba7-a170-23efbdc67501""}","https://test12345.live/?participantId=746439A1D93B4C738345602E74D32971&assignmentId=f54f64a8-558b-4271-b22d-82a0836e9dac&projectId=a0a8f18c-a66e-4ba7-a170-23efbdc67501","746439A1D93B4C738345602E74D32971-2024-11-24-19-25-44","","1010","","images/instructions/movie_4.png","0","",""
"","","","","","image-button-response","20","132745","0.0-6.0-1.0-2.3","746439A1D93B4C738345602E74D32971","746439A1D93B4C738345602E74D32971","f54f64a8-558b-4271-b22d-82a0836e9dac","a0a8f18c-a66e-4ba7-a170-23efbdc67501","{""participantId"":""746439A1D93B4C738345602E74D32971"",""assignmentId"":""f54f64a8-558b-4271-b22d-82a0836e9dac"",""projectId"":""a0a8f18c-a66e-4ba7-a170-23efbdc67501""}","https://test12345.live/?participantId=746439A1D93B4C738345602E74D32971&assignmentId=f54f64a8-558b-4271-b22d-82a0836e9dac&projectId=a0a8f18c-a66e-4ba7-a170-23efbdc67501","746439A1D93B4C738345602E74D32971-2024-11-24-19-25-44","","null","","[]","null","",""
"","","","","","instructions","21","142114","0.0-7.0","746439A1D93B4C738345602E74D32971","746439A1D93B4C738345602E74D32971","f54f64a8-558b-4271-b22d-82a0836e9dac","a0a8f18c-a66e-4ba7-a170-23efbdc67501","{""participantId"":""746439A1D93B4C738345602E74D32971"",""assignmentId"":""f54f64a8-558b-4271-b22d-82a0836e9dac"",""projectId"":""a0a8f18c-a66e-4ba7-a170-23efbdc67501""}","https://test12345.live/?participantId=746439A1D93B4C738345602E74D32971&assignmentId=f54f64a8-558b-4271-b22d-82a0836e9dac&projectId=a0a8f18c-a66e-4ba7-a170-23efbdc67501","746439A1D93B4C738345602E74D32971-2024-11-24-19-25-44","[{""page_index"":0,""viewing_time"":7607},{""page_index"":1,""viewing_time"":1761}]","9369","","","","",""
"","","","","","html-audio-response","22","172365","0.0-8.0","746439A1D93B4C738345602E74D32971","746439A1D93B4C738345602E74D32971","f54f64a8-558b-4271-b22d-82a0836e9dac","a0a8f18c-a66e-4ba7-a170-23efbdc67501","{""participantId"":""746439A1D93B4C738345602E74D32971"",""assignmentId"":""f54f64a8-558b-4271-b22d-82a0836e9dac"",""projectId"":""a0a8f18c-a66e-4ba7-a170-23efbdc67501""}","https://test12345.live/?participantId=746439A1D93B4C738345602E74D32971&assignmentId=f54f64a8-558b-4271-b22d-82a0836e9dac&projectId=a0a8f18c-a66e-4ba7-a170-23efbdc67501","746439A1D93B4C738345602E74D32971-2024-11-24-19-25-44","","8019","","[""<span style=\""color: red; font-size: 24px\""> NOW RECORDING</span><p>Please say out loud all the images you saw, as many as you can remember. The images can be said in any order.</p>""]","","1",""
"","","","","","instructions","23","175146","0.0-9.0","746439A1D93B4C738345602E74D32971","746439A1D93B4C738345602E74D32971","f54f64a8-558b-4271-b22d-82a0836e9dac","a0a8f18c-a66e-4ba7-a170-23efbdc67501","{""participantId"":""746439A1D93B4C738345602E74D32971"",""assignmentId"":""f54f64a8-558b-4271-b22d-82a0836e9dac"",""projectId"":""a0a8f18c-a66e-4ba7-a170-23efbdc67501""}","https://test12345.live/?participantId=746439A1D93B4C738345602E74D32971&assignmentId=f54f64a8-558b-4271-b22d-82a0836e9dac&projectId=a0a8f18c-a66e-4ba7-a170-23efbdc67501","746439A1D93B4C738345602E74D32971-2024-11-24-19-25-44","[{""page_index"":0,""viewing_time"":2774}]","2775","","","","",""
"","","","","","image-button-response","24","181160","0.0-10.0-0.0","746439A1D93B4C738345602E74D32971","746439A1D93B4C738345602E74D32971","f54f64a8-558b-4271-b22d-82a0836e9dac","a0a8f18c-a66e-4ba7-a170-23efbdc67501","{""participantId"":""746439A1D93B4C738345602E74D32971"",""assignmentId"":""f54f64a8-558b-4271-b22d-82a0836e9dac"",""projectId"":""a0a8f18c-a66e-4ba7-a170-23efbdc67501""}","https://test12345.live/?participantId=746439A1D93B4C738345602E74D32971&assignmentId=f54f64a8-558b-4271-b22d-82a0836e9dac&projectId=a0a8f18c-a66e-4ba7-a170-23efbdc67501","746439A1D93B4C738345602E74D32971-2024-11-24-19-25-44","","null","","images/causal_sequence/saving_a_cat_causal/saving_a_cat_causal_0.png","null","",""
"","","","","","image-button-response","25","185680","0.0-10.0-1.0-0.0","746439A1D93B4C738345602E74D32971","746439A1D93B4C738345602E74D32971","f54f64a8-558b-4271-b22d-82a0836e9dac","a0a8f18c-a66e-4ba7-a170-23efbdc67501","{""participantId"":""746439A1D93B4C738345602E74D32971"",""assignmentId"":""f54f64a8-558b-4271-b22d-82a0836e9dac"",""projectId"":""a0a8f18c-a66e-4ba7-a170-23efbdc67501""}","https://test12345.live/?participantId=746439A1D93B4C738345602E74D32971&assignmentId=f54f64a8-558b-4271-b22d-82a0836e9dac&projectId=a0a8f18c-a66e-4ba7-a170-23efbdc67501","746439A1D93B4C738345602E74D32971-2024-11-24-19-25-44","","null","","images/causal_sequence/saving_a_cat_causal/saving_a_cat_causal_1.png","null","",""
"","","","","","image-button-response","26","189686","0.0-10.0-1.0-1.0","746439A1D93B4C738345602E74D32971","746439A1D93B4C738345602E74D32971","f54f64a8-558b-4271-b22d-82a0836e9dac","a0a8f18c-a66e-4ba7-a170-23efbdc67501","{""participantId"":""746439A1D93B4C738345602E74D32971"",""assignmentId"":""f54f64a8-558b-4271-b22d-82a0836e9dac"",""projectId"":""a0a8f18c-a66e-4ba7-a170-23efbdc67501""}","https://test12345.live/?participantId=746439A1D93B4C738345602E74D32971&assignmentId=f54f64a8-558b-4271-b22d-82a0836e9dac&projectId=a0a8f18c-a66e-4ba7-a170-23efbdc67501","746439A1D93B4C738345602E74D32971-2024-11-24-19-25-44","","null","","images/causal_sequence/saving_a_cat_causal/saving_a_cat_causal_1.png","null","",""
"","","","","","image-button-response","27","191505","0.0-10.0-1.0-2.0","746439A1D93B4C738345602E74D32971","746439A1D93B4C738345602E74D32971","f54f64a8-558b-4271-b22d-82a0836e9dac","a0a8f18c-a66e-4ba7-a170-23efbdc67501","{""participantId"":""746439A1D93B4C738345602E74D32971"",""assignmentId"":""f54f64a8-558b-4271-b22d-82a0836e9dac"",""projectId"":""a0a8f18c-a66e-4ba7-a170-23efbdc67501""}","https://test12345.live/?participantId=746439A1D93B4C738345602E74D32971&assignmentId=f54f64a8-558b-4271-b22d-82a0836e9dac&projectId=a0a8f18c-a66e-4ba7-a170-23efbdc67501","746439A1D93B4C738345602E74D32971-2024-11-24-19-25-44","","null","","[]","null","",""
"","","","","","image-button-response","28","196017","0.0-10.0-1.0-0.1","746439A1D93B4C738345602E74D32971","746439A1D93B4C738345602E74D32971","f54f64a8-558b-4271-b22d-82a0836e9dac","a0a8f18c-a66e-4ba7-a170-23efbdc67501","{""participantId"":""746439A1D93B4C738345602E74D32971"",""assignmentId"":""f54f64a8-558b-4271-b22d-82a0836e9dac"",""projectId"":""a0a8f18c-a66e-4ba7-a170-23efbdc67501""}","https://test12345.live/?participantId=746439A1D93B4C738345602E74D32971&assignmentId=f54f64a8-558b-4271-b22d-82a0836e9dac&projectId=a0a8f18c-a66e-4ba7-a170-23efbdc67501","746439A1D93B4C738345602E74D32971-2024-11-24-19-25-44","","null","","images/causal_sequence/saving_a_cat_causal/saving_a_cat_causal_2.png","null","",""
"","","","","","image-button-response","29","198666","0.0-10.0-1.0-1.1","746439A1D93B4C738345602E74D32971","746439A1D93B4C738345602E74D32971","f54f64a8-558b-4271-b22d-82a0836e9dac","a0a8f18c-a66e-4ba7-a170-23efbdc67501","{""participantId"":""746439A1D93B4C738345602E74D32971"",""assignmentId"":""f54f64a8-558b-4271-b22d-82a0836e9dac"",""projectId"":""a0a8f18c-a66e-4ba7-a170-23efbdc67501""}","https://test12345.live/?participantId=746439A1D93B4C738345602E74D32971&assignmentId=f54f64a8-558b-4271-b22d-82a0836e9dac&projectId=a0a8f18c-a66e-4ba7-a170-23efbdc67501","746439A1D93B4C738345602E74D32971-2024-11-24-19-25-44","","2646","","images/causal_sequence/saving_a_cat_causal/saving_a_cat_causal_2.png","1","",""
"","","","","","image-button-response","30","200485","0.0-10.0-1.0-2.1","746439A1D93B4C738345602E74D32971","746439A1D93B4C738345602E74D32971","f54f64a8-558b-4271-b22d-82a0836e9dac","a0a8f18c-a66e-4ba7-a170-23efbdc67501","{""participantId"":""746439A1D93B4C738345602E74D32971"",""assignmentId"":""f54f64a8-558b-4271-b22d-82a0836e9dac"",""projectId"":""a0a8f18c-a66e-4ba7-a170-23efbdc67501""}","https://test12345.live/?participantId=746439A1D93B4C738345602E74D32971&assignmentId=f54f64a8-558b-4271-b22d-82a0836e9dac&projectId=a0a8f18c-a66e-4ba7-a170-23efbdc67501","746439A1D93B4C738345602E74D32971-2024-11-24-19-25-44","","null","","[]","null","",""
"","","","","","image-button-response","31","204995","0.0-10.0-1.0-0.2","746439A1D93B4C738345602E74D32971","746439A1D93B4C738345602E74D32971","f54f64a8-558b-4271-b22d-82a0836e9dac","a0a8f18c-a66e-4ba7-a170-23efbdc67501","{""participantId"":""746439A1D93B4C738345602E74D32971"",""assignmentId"":""f54f64a8-558b-4271-b22d-82a0836e9dac"",""projectId"":""a0a8f18c-a66e-4ba7-a170-23efbdc67501""}","https://test12345.live/?participantId=746439A1D93B4C738345602E74D32971&assignmentId=f54f64a8-558b-4271-b22d-82a0836e9dac&projectId=a0a8f18c-a66e-4ba7-a170-23efbdc67501","746439A1D93B4C738345602E74D32971-2024-11-24-19-25-44","","null","","images/causal_sequence/saving_a_cat_causal/saving_a_cat_causal_3.png","null","",""
"","","","","","image-button-response","32","207130","0.0-10.0-1.0-1.2","746439A1D93B4C738345602E74D32971","746439A1D93B4C738345602E74D32971","f54f64a8-558b-4271-b22d-82a0836e9dac","a0a8f18c-a66e-4ba7-a170-23efbdc67501","{""participantId"":""746439A1D93B4C738345602E74D32971"",""assignmentId"":""f54f64a8-558b-4271-b22d-82a0836e9dac"",""projectId"":""a0a8f18c-a66e-4ba7-a170-23efbdc67501""}","https://test12345.live/?participantId=746439A1D93B4C738345602E74D32971&assignmentId=f54f64a8-558b-4271-b22d-82a0836e9dac&projectId=a0a8f18c-a66e-4ba7-a170-23efbdc67501","746439A1D93B4C738345602E74D32971-2024-11-24-19-25-44","","2132","","images/causal_sequence/saving_a_cat_causal/saving_a_cat_causal_3.png","1","",""
"","","","","","image-button-response","33","208936","0.0-10.0-1.0-2.2","746439A1D93B4C738345602E74D32971","746439A1D93B4C738345602E74D32971","f54f64a8-558b-4271-b22d-82a0836e9dac","a0a8f18c-a66e-4ba7-a170-23efbdc67501","{""participantId"":""746439A1D93B4C738345602E74D32971"",""assignmentId"":""f54f64a8-558b-4271-b22d-82a0836e9dac"",""projectId"":""a0a8f18c-a66e-4ba7-a170-23efbdc67501""}","https://test12345.live/?participantId=746439A1D93B4C738345602E74D32971&assignmentId=f54f64a8-558b-4271-b22d-82a0836e9dac&projectId=a0a8f18c-a66e-4ba7-a170-23efbdc67501","746439A1D93B4C738345602E74D32971-2024-11-24-19-25-44","","null","","[]","null","",""
"","","","","","image-button-response","34","213445","0.0-10.0-1.0-0.3","746439A1D93B4C738345602E74D32971","746439A1D93B4C738345602E74D32971","f54f64a8-558b-4271-b22d-82a0836e9dac","a0a8f18c-a66e-4ba7-a170-23efbdc67501","{""participantId"":""746439A1D93B4C738345602E74D32971"",""assignmentId"":""f54f64a8-558b-4271-b22d-82a0836e9dac"",""projectId"":""a0a8f18c-a66e-4ba7-a170-23efbdc67501""}","https://test12345.live/?participantId=746439A1D93B4C738345602E74D32971&assignmentId=f54f64a8-558b-4271-b22d-82a0836e9dac&projectId=a0a8f18c-a66e-4ba7-a170-23efbdc67501","746439A1D93B4C738345602E74D32971-2024-11-24-19-25-44","","null","","images/causal_sequence/saving_a_cat_causal/saving_a_cat_causal_4.png","null","",""
"","","","","","image-button-response","35","215539","0.0-10.0-1.0-1.3","746439A1D93B4C738345602E74D32971","746439A1D93B4C738345602E74D32971","f54f64a8-558b-4271-b22d-82a0836e9dac","a0a8f18c-a66e-4ba7-a170-23efbdc67501","{""participantId"":""746439A1D93B4C738345602E74D32971"",""assignmentId"":""f54f64a8-558b-4271-b22d-82a0836e9dac"",""projectId"":""a0a8f18c-a66e-4ba7-a170-23efbdc67501""}","https://test12345.live/?participantId=746439A1D93B4C738345602E74D32971&assignmentId=f54f64a8-558b-4271-b22d-82a0836e9dac&projectId=a0a8f18c-a66e-4ba7-a170-23efbdc67501","746439A1D93B4C738345602E74D32971-2024-11-24-19-25-44","","2092","","images/causal_sequence/saving_a_cat_causal/saving_a_cat_causal_4.png","0","",""
"","","","","","image-button-response","36","217345","0.0-10.0-1.0-2.3","746439A1D93B4C738345602E74D32971","746439A1D93B4C738345602E74D32971","f54f64a8-558b-4271-b22d-82a0836e9dac","a0a8f18c-a66e-4ba7-a170-23efbdc67501","{""participantId"":""746439A1D93B4C738345602E74D32971"",""assignmentId"":""f54f64a8-558b-4271-b22d-82a0836e9dac"",""projectId"":""a0a8f18c-a66e-4ba7-a170-23efbdc67501""}","https://test12345.live/?participantId=746439A1D93B4C738345602E74D32971&assignmentId=f54f64a8-558b-4271-b22d-82a0836e9dac&projectId=a0a8f18c-a66e-4ba7-a170-23efbdc67501","746439A1D93B4C738345602E74D32971-2024-11-24-19-25-44","","null","","[]","null","",""
"","","","","","image-button-response","37","221850","0.0-10.0-1.0-0.4","746439A1D93B4C738345602E74D32971","746439A1D93B4C738345602E74D32971","f54f64a8-558b-4271-b22d-82a0836e9dac","a0a8f18c-a66e-4ba7-a170-23efbdc67501","{""participantId"":""746439A1D93B4C738345602E74D32971"",""assignmentId"":""f54f64a8-558b-4271-b22d-82a0836e9dac"",""projectId"":""a0a8f18c-a66e-4ba7-a170-23efbdc67501""}","https://test12345.live/?participantId=746439A1D93B4C738345602E74D32971&assignmentId=f54f64a8-558b-4271-b22d-82a0836e9dac&projectId=a0a8f18c-a66e-4ba7-a170-23efbdc67501","746439A1D93B4C738345602E74D32971-2024-11-24-19-25-44","","null","","images/causal_sequence/saving_a_cat_causal/saving_a_cat_causal_5.png","null","",""
"","","","","","image-button-response","38","222746","0.0-10.0-1.0-1.4","746439A1D93B4C738345602E74D32971","746439A1D93B4C738345602E74D32971","f54f64a8-558b-4271-b22d-82a0836e9dac","a0a8f18c-a66e-4ba7-a170-23efbdc67501","{""participantId"":""746439A1D93B4C738345602E74D32971"",""assignmentId"":""f54f64a8-558b-4271-b22d-82a0836e9dac"",""projectId"":""a0a8f18c-a66e-4ba7-a170-23efbdc67501""}","https://test12345.live/?participantId=746439A1D93B4C738345602E74D32971&assignmentId=f54f64a8-558b-4271-b22d-82a0836e9dac&projectId=a0a8f18c-a66e-4ba7-a170-23efbdc67501","746439A1D93B4C738345602E74D32971-2024-11-24-19-25-44","","893","","images/causal_sequence/saving_a_cat_causal/saving_a_cat_causal_5.png","0","",""
"","","","","","image-button-response","39","224556","0.0-10.0-1.0-2.4","746439A1D93B4C738345602E74D32971","746439A1D93B4C738345602E74D32971","f54f64a8-558b-4271-b22d-82a0836e9dac","a0a8f18c-a66e-4ba7-a170-23efbdc67501","{""participantId"":""746439A1D93B4C738345602E74D32971"",""assignmentId"":""f54f64a8-558b-4271-b22d-82a0836e9dac"",""projectId"":""a0a8f18c-a66e-4ba7-a170-23efbdc67501""}","https://test12345.live/?participantId=746439A1D93B4C738345602E74D32971&assignmentId=f54f64a8-558b-4271-b22d-82a0836e9dac&projectId=a0a8f18c-a66e-4ba7-a170-23efbdc67501","746439A1D93B4C738345602E74D32971-2024-11-24-19-25-44","","null","","[]","null","",""
"","","","","","image-button-response","40","229065","0.0-10.0-1.0-0.5","746439A1D93B4C738345602E74D32971","746439A1D93B4C738345602E74D32971","f54f64a8-558b-4271-b22d-82a0836e9dac","a0a8f18c-a66e-4ba7-a170-23efbdc67501","{""participantId"":""746439A1D93B4C738345602E74D32971"",""assignmentId"":""f54f64a8-558b-4271-b22d-82a0836e9dac"",""projectId"":""a0a8f18c-a66e-4ba7-a170-23efbdc67501""}","https://test12345.live/?participantId=746439A1D93B4C738345602E74D32971&assignmentId=f54f64a8-558b-4271-b22d-82a0836e9dac&projectId=a0a8f18c-a66e-4ba7-a170-23efbdc67501","746439A1D93B4C738345602E74D32971-2024-11-24-19-25-44","","null","","images/causal_sequence/saving_a_cat_causal/saving_a_cat_causal_6.png","null","",""
"","","","","","image-button-response","41","229789","0.0-10.0-1.0-1.5","746439A1D93B4C738345602E74D32971","746439A1D93B4C738345602E74D32971","f54f64a8-558b-4271-b22d-82a0836e9dac","a0a8f18c-a66e-4ba7-a170-23efbdc67501","{""participantId"":""746439A1D93B4C738345602E74D32971"",""assignmentId"":""f54f64a8-558b-4271-b22d-82a0836e9dac"",""projectId"":""a0a8f18c-a66e-4ba7-a170-23efbdc67501""}","https://test12345.live/?participantId=746439A1D93B4C738345602E74D32971&assignmentId=f54f64a8-558b-4271-b22d-82a0836e9dac&projectId=a0a8f18c-a66e-4ba7-a170-23efbdc67501","746439A1D93B4C738345602E74D32971-2024-11-24-19-25-44","","721","","images/causal_sequence/saving_a_cat_causal/saving_a_cat_causal_6.png","0","",""
"","","","","","image-button-response","42","231595","0.0-10.0-1.0-2.5","746439A1D93B4C738345602E74D32971","746439A1D93B4C738345602E74D32971","f54f64a8-558b-4271-b22d-82a0836e9dac","a0a8f18c-a66e-4ba7-a170-23efbdc67501","{""participantId"":""746439A1D93B4C738345602E74D32971"",""assignmentId"":""f54f64a8-558b-4271-b22d-82a0836e9dac"",""projectId"":""a0a8f18c-a66e-4ba7-a170-23efbdc67501""}","https://test12345.live/?participantId=746439A1D93B4C738345602E74D32971&assignmentId=f54f64a8-558b-4271-b22d-82a0836e9dac&projectId=a0a8f18c-a66e-4ba7-a170-23efbdc67501","746439A1D93B4C738345602E74D32971-2024-11-24-19-25-44","","null","","[]","null","",""
"","","","","","image-button-response","43","236115","0.0-10.0-1.0-0.6","746439A1D93B4C738345602E74D32971","746439A1D93B4C738345602E74D32971","f54f64a8-558b-4271-b22d-82a0836e9dac","a0a8f18c-a66e-4ba7-a170-23efbdc67501","{""participantId"":""746439A1D93B4C738345602E74D32971"",""assignmentId"":""f54f64a8-558b-4271-b22d-82a0836e9dac"",""projectId"":""a0a8f18c-a66e-4ba7-a170-23efbdc67501""}","https://test12345.live/?participantId=746439A1D93B4C738345602E74D32971&assignmentId=f54f64a8-558b-4271-b22d-82a0836e9dac&projectId=a0a8f18c-a66e-4ba7-a170-23efbdc67501","746439A1D93B4C738345602E74D32971-2024-11-24-19-25-44","","null","","images/causal_sequence/saving_a_cat_causal/saving_a_cat_causal_7.png","null","",""
"","","","","","image-button-response","44","238029","0.0-10.0-1.0-1.6","746439A1D93B4C738345602E74D32971","746439A1D93B4C738345602E74D32971","f54f64a8-558b-4271-b22d-82a0836e9dac","a0a8f18c-a66e-4ba7-a170-23efbdc67501","{""participantId"":""746439A1D93B4C738345602E74D32971"",""assignmentId"":""f54f64a8-558b-4271-b22d-82a0836e9dac"",""projectId"":""a0a8f18c-a66e-4ba7-a170-23efbdc67501""}","https://test12345.live/?participantId=746439A1D93B4C738345602E74D32971&assignmentId=f54f64a8-558b-4271-b22d-82a0836e9dac&projectId=a0a8f18c-a66e-4ba7-a170-23efbdc67501","746439A1D93B4C738345602E74D32971-2024-11-24-19-25-44","","1911","","images/causal_sequence/saving_a_cat_causal/saving_a_cat_causal_7.png","0","",""
"","","","","","image-button-response","45","239845","0.0-10.0-1.0-2.6","746439A1D93B4C738345602E74D32971","746439A1D93B4C738345602E74D32971","f54f64a8-558b-4271-b22d-82a0836e9dac","a0a8f18c-a66e-4ba7-a170-23efbdc67501","{""participantId"":""746439A1D93B4C738345602E74D32971"",""assignmentId"":""f54f64a8-558b-4271-b22d-82a0836e9dac"",""projectId"":""a0a8f18c-a66e-4ba7-a170-23efbdc67501""}","https://test12345.live/?participantId=746439A1D93B4C738345602E74D32971&assignmentId=f54f64a8-558b-4271-b22d-82a0836e9dac&projectId=a0a8f18c-a66e-4ba7-a170-23efbdc67501","746439A1D93B4C738345602E74D32971-2024-11-24-19-25-44","","null","","[]","null","",""
"","","","","","image-button-response","46","244351","0.0-10.0-1.0-0.7","746439A1D93B4C738345602E74D32971","746439A1D93B4C738345602E74D32971","f54f64a8-558b-4271-b22d-82a0836e9dac","a0a8f18c-a66e-4ba7-a170-23efbdc67501","{""participantId"":""746439A1D93B4C738345602E74D32971"",""assignmentId"":""f54f64a8-558b-4271-b22d-82a0836e9dac"",""projectId"":""a0a8f18c-a66e-4ba7-a170-23efbdc67501""}","https://test12345.live/?participantId=746439A1D93B4C738345602E74D32971&assignmentId=f54f64a8-558b-4271-b22d-82a0836e9dac&projectId=a0a8f18c-a66e-4ba7-a170-23efbdc67501","746439A1D93B4C738345602E74D32971-2024-11-24-19-25-44","","null","","images/causal_sequence/saving_a_cat_causal/saving_a_cat_causal_8.png","null","",""
"","","","","","image-button-response","47","245058","0.0-10.0-1.0-1.7","746439A1D93B4C738345602E74D32971","746439A1D93B4C738345602E74D32971","f54f64a8-558b-4271-b22d-82a0836e9dac","a0a8f18c-a66e-4ba7-a170-23efbdc67501","{""participantId"":""746439A1D93B4C738345602E74D32971"",""assignmentId"":""f54f64a8-558b-4271-b22d-82a0836e9dac"",""projectId"":""a0a8f18c-a66e-4ba7-a170-23efbdc67501""}","https://test12345.live/?participantId=746439A1D93B4C738345602E74D32971&assignmentId=f54f64a8-558b-4271-b22d-82a0836e9dac&projectId=a0a8f18c-a66e-4ba7-a170-23efbdc67501","746439A1D93B4C738345602E74D32971-2024-11-24-19-25-44","","705","","images/causal_sequence/saving_a_cat_causal/saving_a_cat_causal_8.png","0","",""
"","","","","","image-button-response","48","246870","0.0-10.0-1.0-2.7","746439A1D93B4C738345602E74D32971","746439A1D93B4C738345602E74D32971","f54f64a8-558b-4271-b22d-82a0836e9dac","a0a8f18c-a66e-4ba7-a170-23efbdc67501","{""participantId"":""746439A1D93B4C738345602E74D32971"",""assignmentId"":""f54f64a8-558b-4271-b22d-82a0836e9dac"",""projectId"":""a0a8f18c-a66e-4ba7-a170-23efbdc67501""}","https://test12345.live/?participantId=746439A1D93B4C738345602E74D32971&assignmentId=f54f64a8-558b-4271-b22d-82a0836e9dac&projectId=a0a8f18c-a66e-4ba7-a170-23efbdc67501","746439A1D93B4C738345602E74D32971-2024-11-24-19-25-44","","null","","[]","null","",""
"","","","","","image-button-response","49","251375","0.0-10.0-1.0-0.8","746439A1D93B4C738345602E74D32971","746439A1D93B4C738345602E74D32971","f54f64a8-558b-4271-b22d-82a0836e9dac","a0a8f18c-a66e-4ba7-a170-23efbdc67501","{""participantId"":""746439A1D93B4C738345602E74D32971"",""assignmentId"":""f54f64a8-558b-4271-b22d-82a0836e9dac"",""projectId"":""a0a8f18c-a66e-4ba7-a170-23efbdc67501""}","https://test12345.live/?participantId=746439A1D93B4C738345602E74D32971&assignmentId=f54f64a8-558b-4271-b22d-82a0836e9dac&projectId=a0a8f18c-a66e-4ba7-a170-23efbdc67501","746439A1D93B4C738345602E74D32971-2024-11-24-19-25-44","","null","","images/causal_sequence/saving_a_cat_causal/saving_a_cat_causal_9.png","null","",""
"","","","","","image-button-response","50","252721","0.0-10.0-1.0-1.8","746439A1D93B4C738345602E74D32971","746439A1D93B4C738345602E74D32971","f54f64a8-558b-4271-b22d-82a0836e9dac","a0a8f18c-a66e-4ba7-a170-23efbdc67501","{""participantId"":""746439A1D93B4C738345602E74D32971"",""assignmentId"":""f54f64a8-558b-4271-b22d-82a0836e9dac"",""projectId"":""a0a8f18c-a66e-4ba7-a170-23efbdc67501""}","https://test12345.live/?participantId=746439A1D93B4C738345602E74D32971&assignmentId=f54f64a8-558b-4271-b22d-82a0836e9dac&projectId=a0a8f18c-a66e-4ba7-a170-23efbdc67501","746439A1D93B4C738345602E74D32971-2024-11-24-19-25-44","","1344","","images/causal_sequence/saving_a_cat_causal/saving_a_cat_causal_9.png","0","",""
"","","","","","image-button-response","51","254540","0.0-10.0-1.0-2.8","746439A1D93B4C738345602E74D32971","746439A1D93B4C738345602E74D32971","f54f64a8-558b-4271-b22d-82a0836e9dac","a0a8f18c-a66e-4ba7-a170-23efbdc67501","{""participantId"":""746439A1D93B4C738345602E74D32971"",""assignmentId"":""f54f64a8-558b-4271-b22d-82a0836e9dac"",""projectId"":""a0a8f18c-a66e-4ba7-a170-23efbdc67501""}","https://test12345.live/?participantId=746439A1D93B4C738345602E74D32971&assignmentId=f54f64a8-558b-4271-b22d-82a0836e9dac&projectId=a0a8f18c-a66e-4ba7-a170-23efbdc67501","746439A1D93B4C738345602E74D32971-2024-11-24-19-25-44","","null","","[]","null","",""
"","","","","","image-button-response","52","259056","0.0-10.0-1.0-0.9","746439A1D93B4C738345602E74D32971","746439A1D93B4C738345602E74D32971","f54f64a8-558b-4271-b22d-82a0836e9dac","a0a8f18c-a66e-4ba7-a170-23efbdc67501","{""participantId"":""746439A1D93B4C738345602E74D32971"",""assignmentId"":""f54f64a8-558b-4271-b22d-82a0836e9dac"",""projectId"":""a0a8f18c-a66e-4ba7-a170-23efbdc67501""}","https://test12345.live/?participantId=746439A1D93B4C738345602E74D32971&assignmentId=f54f64a8-558b-4271-b22d-82a0836e9dac&projectId=a0a8f18c-a66e-4ba7-a170-23efbdc67501","746439A1D93B4C738345602E74D32971-2024-11-24-19-25-44","","null","","images/causal_sequence/saving_a_cat_causal/saving_a_cat_causal_ten.png","null","",""
"","","","","","image-button-response","53","259904","0.0-10.0-1.0-1.9","746439A1D93B4C738345602E74D32971","746439A1D93B4C738345602E74D32971","f54f64a8-558b-4271-b22d-82a0836e9dac","a0a8f18c-a66e-4ba7-a170-23efbdc67501","{""participantId"":""746439A1D93B4C738345602E74D32971"",""assignmentId"":""f54f64a8-558b-4271-b22d-82a0836e9dac"",""projectId"":""a0a8f18c-a66e-4ba7-a170-23efbdc67501""}","https://test12345.live/?participantId=746439A1D93B4C738345602E74D32971&assignmentId=f54f64a8-558b-4271-b22d-82a0836e9dac&projectId=a0a8f18c-a66e-4ba7-a170-23efbdc67501","746439A1D93B4C738345602E74D32971-2024-11-24-19-25-44","","847","","images/causal_sequence/saving_a_cat_causal/saving_a_cat_causal_ten.png","0","",""
"","","","","","image-button-response","54","261726","0.0-10.0-1.0-2.9","746439A1D93B4C738345602E74D32971","746439A1D93B4C738345602E74D32971","f54f64a8-558b-4271-b22d-82a0836e9dac","a0a8f18c-a66e-4ba7-a170-23efbdc67501","{""participantId"":""746439A1D93B4C738345602E74D32971"",""assignmentId"":""f54f64a8-558b-4271-b22d-82a0836e9dac"",""projectId"":""a0a8f18c-a66e-4ba7-a170-23efbdc67501""}","https://test12345.live/?participantId=746439A1D93B4C738345602E74D32971&assignmentId=f54f64a8-558b-4271-b22d-82a0836e9dac&projectId=a0a8f18c-a66e-4ba7-a170-23efbdc67501","746439A1D93B4C738345602E74D32971-2024-11-24-19-25-44","","null","","[]","null","",""
"","","","","","html-audio-response","55","305742","0.0-11.0","746439A1D93B4C738345602E74D32971","746439A1D93B4C738345602E74D32971","f54f64a8-558b-4271-b22d-82a0836e9dac","a0a8f18c-a66e-4ba7-a170-23efbdc67501","{""participantId"":""746439A1D93B4C738345602E74D32971"",""assignmentId"":""f54f64a8-558b-4271-b22d-82a0836e9dac"",""projectId"":""a0a8f18c-a66e-4ba7-a170-23efbdc67501""}","https://test12345.live/?participantId=746439A1D93B4C738345602E74D32971&assignmentId=f54f64a8-558b-4271-b22d-82a0836e9dac&projectId=a0a8f18c-a66e-4ba7-a170-23efbdc67501","746439A1D93B4C738345602E74D32971-2024-11-24-19-25-44","","35601","","[""<span style=\""color: red; font-size: 24px\""> NOW RECORDING</span><p>Please say out loud all the images you saw, as many as you can remember. The images can be said in any order.</p>""]","","10","saving_a_cat_causal"
"","","","","","image-button-response","56","311755","0.0-12.0-0.0","746439A1D93B4C738345602E74D32971","746439A1D93B4C738345602E74D32971","f54f64a8-558b-4271-b22d-82a0836e9dac","a0a8f18c-a66e-4ba7-a170-23efbdc67501","{""participantId"":""746439A1D93B4C738345602E74D32971"",""assignmentId"":""f54f64a8-558b-4271-b22d-82a0836e9dac"",""projectId"":""a0a8f18c-a66e-4ba7-a170-23efbdc67501""}","https://test12345.live/?participantId=746439A1D93B4C738345602E74D32971&assignmentId=f54f64a8-558b-4271-b22d-82a0836e9dac&projectId=a0a8f18c-a66e-4ba7-a170-23efbdc67501","746439A1D93B4C738345602E74D32971-2024-11-24-19-25-44","","null","","images/schematic_sequence/restaurant_scheme/restaurant_scheme_0.png","null","",""
"","","","","","image-button-response","57","316270","0.0-12.0-1.0-0.0","746439A1D93B4C738345602E74D32971","746439A1D93B4C738345602E74D32971","f54f64a8-558b-4271-b22d-82a0836e9dac","a0a8f18c-a66e-4ba7-a170-23efbdc67501","{""participantId"":""746439A1D93B4C738345602E74D32971"",""assignmentId"":""f54f64a8-558b-4271-b22d-82a0836e9dac"",""projectId"":""a0a8f18c-a66e-4ba7-a170-23efbdc67501""}","https://test12345.live/?participantId=746439A1D93B4C738345602E74D32971&assignmentId=f54f64a8-558b-4271-b22d-82a0836e9dac&projectId=a0a8f18c-a66e-4ba7-a170-23efbdc67501","746439A1D93B4C738345602E74D32971-2024-11-24-19-25-44","","null","","images/schematic_sequence/restaurant_scheme/restaurant_scheme_1.png","null","",""
"","","","","","image-button-response","58","317619","0.0-12.0-1.0-1.0","746439A1D93B4C738345602E74D32971","746439A1D93B4C738345602E74D32971","f54f64a8-558b-4271-b22d-82a0836e9dac","a0a8f18c-a66e-4ba7-a170-23efbdc67501","{""participantId"":""746439A1D93B4C738345602E74D32971"",""assignmentId"":""f54f64a8-558b-4271-b22d-82a0836e9dac"",""projectId"":""a0a8f18c-a66e-4ba7-a170-23efbdc67501""}","https://test12345.live/?participantId=746439A1D93B4C738345602E74D32971&assignmentId=f54f64a8-558b-4271-b22d-82a0836e9dac&projectId=a0a8f18c-a66e-4ba7-a170-23efbdc67501","746439A1D93B4C738345602E74D32971-2024-11-24-19-25-44","","1347","","images/schematic_sequence/restaurant_scheme/restaurant_scheme_1.png","0","",""
"","","","","","image-button-response","59","319436","0.0-12.0-1.0-2.0","746439A1D93B4C738345602E74D32971","746439A1D93B4C738345602E74D32971","f54f64a8-558b-4271-b22d-82a0836e9dac","a0a8f18c-a66e-4ba7-a170-23efbdc67501","{""participantId"":""746439A1D93B4C738345602E74D32971"",""assignmentId"":""f54f64a8-558b-4271-b22d-82a0836e9dac"",""projectId"":""a0a8f18c-a66e-4ba7-a170-23efbdc67501""}","https://test12345.live/?participantId=746439A1D93B4C738345602E74D32971&assignmentId=f54f64a8-558b-4271-b22d-82a0836e9dac&projectId=a0a8f18c-a66e-4ba7-a170-23efbdc67501","746439A1D93B4C738345602E74D32971-2024-11-24-19-25-44","","null","","[]","null","",""
"","","","","","image-button-response","60","323955","0.0-12.0-1.0-0.1","746439A1D93B4C738345602E74D32971","746439A1D93B4C738345602E74D32971","f54f64a8-558b-4271-b22d-82a0836e9dac","a0a8f18c-a66e-4ba7-a170-23efbdc67501","{""participantId"":""746439A1D93B4C738345602E74D32971"",""assignmentId"":""f54f64a8-558b-4271-b22d-82a0836e9dac"",""projectId"":""a0a8f18c-a66e-4ba7-a170-23efbdc67501""}","https://test12345.live/?participantId=746439A1D93B4C738345602E74D32971&assignmentId=f54f64a8-558b-4271-b22d-82a0836e9dac&projectId=a0a8f18c-a66e-4ba7-a170-23efbdc67501","746439A1D93B4C738345602E74D32971-2024-11-24-19-25-44","","null","","images/schematic_sequence/restaurant_scheme/restaurant_scheme_ten.png","null","",""
"","","","","","image-button-response","61","325764","0.0-12.0-1.0-1.1","746439A1D93B4C738345602E74D32971","746439A1D93B4C738345602E74D32971","f54f64a8-558b-4271-b22d-82a0836e9dac","a0a8f18c-a66e-4ba7-a170-23efbdc67501","{""participantId"":""746439A1D93B4C738345602E74D32971"",""assignmentId"":""f54f64a8-558b-4271-b22d-82a0836e9dac"",""projectId"":""a0a8f18c-a66e-4ba7-a170-23efbdc67501""}","https://test12345.live/?participantId=746439A1D93B4C738345602E74D32971&assignmentId=f54f64a8-558b-4271-b22d-82a0836e9dac&projectId=a0a8f18c-a66e-4ba7-a170-23efbdc67501","746439A1D93B4C738345602E74D32971-2024-11-24-19-25-44","","1807","","images/schematic_sequence/restaurant_scheme/restaurant_scheme_ten.png","0","",""
"","","","","","image-button-response","62","327580","0.0-12.0-1.0-2.1","746439A1D93B4C738345602E74D32971","746439A1D93B4C738345602E74D32971","f54f64a8-558b-4271-b22d-82a0836e9dac","a0a8f18c-a66e-4ba7-a170-23efbdc67501","{""participantId"":""746439A1D93B4C738345602E74D32971"",""assignmentId"":""f54f64a8-558b-4271-b22d-82a0836e9dac"",""projectId"":""a0a8f18c-a66e-4ba7-a170-23efbdc67501""}","https://test12345.live/?participantId=746439A1D93B4C738345602E74D32971&assignmentId=f54f64a8-558b-4271-b22d-82a0836e9dac&projectId=a0a8f18c-a66e-4ba7-a170-23efbdc67501","746439A1D93B4C738345602E74D32971-2024-11-24-19-25-44","","null","","[]","null","",""
"","","","","","image-button-response","63","332100","0.0-12.0-1.0-0.2","746439A1D93B4C738345602E74D32971","746439A1D93B4C738345602E74D32971","f54f64a8-558b-4271-b22d-82a0836e9dac","a0a8f18c-a66e-4ba7-a170-23efbdc67501","{""participantId"":""746439A1D93B4C738345602E74D32971"",""assignmentId"":""f54f64a8-558b-4271-b22d-82a0836e9dac"",""projectId"":""a0a8f18c-a66e-4ba7-a170-23efbdc67501""}","https://test12345.live/?participantId=746439A1D93B4C738345602E74D32971&assignmentId=f54f64a8-558b-4271-b22d-82a0836e9dac&projectId=a0a8f18c-a66e-4ba7-a170-23efbdc67501","746439A1D93B4C738345602E74D32971-2024-11-24-19-25-44","","null","","images/schematic_sequence/restaurant_scheme/restaurant_scheme_9.png","null","",""
"","","","","","image-button-response","64","334023","0.0-12.0-1.0-1.2","746439A1D93B4C738345602E74D32971","746439A1D93B4C738345602E74D32971","f54f64a8-558b-4271-b22d-82a0836e9dac","a0a8f18c-a66e-4ba7-a170-23efbdc67501","{""participantId"":""746439A1D93B4C738345602E74D32971"",""assignmentId"":""f54f64a8-558b-4271-b22d-82a0836e9dac"",""projectId"":""a0a8f18c-a66e-4ba7-a170-23efbdc67501""}","https://test12345.live/?participantId=746439A1D93B4C738345602E74D32971&assignmentId=f54f64a8-558b-4271-b22d-82a0836e9dac&projectId=a0a8f18c-a66e-4ba7-a170-23efbdc67501","746439A1D93B4C738345602E74D32971-2024-11-24-19-25-44","","1921","","images/schematic_sequence/restaurant_scheme/restaurant_scheme_9.png","0","",""
"","","","","","image-button-response","65","335826","0.0-12.0-1.0-2.2","746439A1D93B4C738345602E74D32971","746439A1D93B4C738345602E74D32971","f54f64a8-558b-4271-b22d-82a0836e9dac","a0a8f18c-a66e-4ba7-a170-23efbdc67501","{""participantId"":""746439A1D93B4C738345602E74D32971"",""assignmentId"":""f54f64a8-558b-4271-b22d-82a0836e9dac"",""projectId"":""a0a8f18c-a66e-4ba7-a170-23efbdc67501""}","https://test12345.live/?participantId=746439A1D93B4C738345602E74D32971&assignmentId=f54f64a8-558b-4271-b22d-82a0836e9dac&projectId=a0a8f18c-a66e-4ba7-a170-23efbdc67501","746439A1D93B4C738345602E74D32971-2024-11-24-19-25-44","","null","","[]","null","",""
"","","","","","image-button-response","66","340341","0.0-12.0-1.0-0.3","746439A1D93B4C738345602E74D32971","746439A1D93B4C738345602E74D32971","f54f64a8-558b-4271-b22d-82a0836e9dac","a0a8f18c-a66e-4ba7-a170-23efbdc67501","{""participantId"":""746439A1D93B4C738345602E74D32971"",""assignmentId"":""f54f64a8-558b-4271-b22d-82a0836e9dac"",""projectId"":""a0a8f18c-a66e-4ba7-a170-23efbdc67501""}","https://test12345.live/?participantId=746439A1D93B4C738345602E74D32971&assignmentId=f54f64a8-558b-4271-b22d-82a0836e9dac&projectId=a0a8f18c-a66e-4ba7-a170-23efbdc67501","746439A1D93B4C738345602E74D32971-2024-11-24-19-25-44","","null","","images/schematic_sequence/restaurant_scheme/restaurant_scheme_2.png","null","",""
"","","","","","image-button-response","67","342005","0.0-12.0-1.0-1.3","746439A1D93B4C738345602E74D32971","746439A1D93B4C738345602E74D32971","f54f64a8-558b-4271-b22d-82a0836e9dac","a0a8f18c-a66e-4ba7-a170-23efbdc67501","{""participantId"":""746439A1D93B4C738345602E74D32971"",""assignmentId"":""f54f64a8-558b-4271-b22d-82a0836e9dac"",""projectId"":""a0a8f18c-a66e-4ba7-a170-23efbdc67501""}","https://test12345.live/?participantId=746439A1D93B4C738345602E74D32971&assignmentId=f54f64a8-558b-4271-b22d-82a0836e9dac&projectId=a0a8f18c-a66e-4ba7-a170-23efbdc67501","746439A1D93B4C738345602E74D32971-2024-11-24-19-25-44","","1662","","images/schematic_sequence/restaurant_scheme/restaurant_scheme_2.png","0","",""
"","","","","","image-button-response","68","343820","0.0-12.0-1.0-2.3","746439A1D93B4C738345602E74D32971","746439A1D93B4C738345602E74D32971","f54f64a8-558b-4271-b22d-82a0836e9dac","a0a8f18c-a66e-4ba7-a170-23efbdc67501","{""participantId"":""746439A1D93B4C738345602E74D32971"",""assignmentId"":""f54f64a8-558b-4271-b22d-82a0836e9dac"",""projectId"":""a0a8f18c-a66e-4ba7-a170-23efbdc67501""}","https://test12345.live/?participantId=746439A1D93B4C738345602E74D32971&assignmentId=f54f64a8-558b-4271-b22d-82a0836e9dac&projectId=a0a8f18c-a66e-4ba7-a170-23efbdc67501","746439A1D93B4C738345602E74D32971-2024-11-24-19-25-44","","null","","[]","null","",""
"","","","","","image-button-response","69","348325","0.0-12.0-1.0-0.4","746439A1D93B4C738345602E74D32971","746439A1D93B4C738345602E74D32971","f54f64a8-558b-4271-b22d-82a0836e9dac","a0a8f18c-a66e-4ba7-a170-23efbdc67501","{""participantId"":""746439A1D93B4C738345602E74D32971"",""assignmentId"":""f54f64a8-558b-4271-b22d-82a0836e9dac"",""projectId"":""a0a8f18c-a66e-4ba7-a170-23efbdc67501""}","https://test12345.live/?participantId=746439A1D93B4C738345602E74D32971&assignmentId=f54f64a8-558b-4271-b22d-82a0836e9dac&projectId=a0a8f18c-a66e-4ba7-a170-23efbdc67501","746439A1D93B4C738345602E74D32971-2024-11-24-19-25-44","","null","","images/schematic_sequence/restaurant_scheme/restaurant_scheme_5.png","null","",""
"","","","","","image-button-response","70","350272","0.0-12.0-1.0-1.4","746439A1D93B4C738345602E74D32971","746439A1D93B4C738345602E74D32971","f54f64a8-558b-4271-b22d-82a0836e9dac","a0a8f18c-a66e-4ba7-a170-23efbdc67501","{""participantId"":""746439A1D93B4C738345602E74D32971"",""assignmentId"":""f54f64a8-558b-4271-b22d-82a0836e9dac"",""projectId"":""a0a8f18c-a66e-4ba7-a170-23efbdc67501""}","https://test12345.live/?participantId=746439A1D93B4C738345602E74D32971&assignmentId=f54f64a8-558b-4271-b22d-82a0836e9dac&projectId=a0a8f18c-a66e-4ba7-a170-23efbdc67501","746439A1D93B4C738345602E74D32971-2024-11-24-19-25-44","","1945","","images/schematic_sequence/restaurant_scheme/restaurant_scheme_5.png","0","",""
"","","","","","image-button-response","71","352081","0.0-12.0-1.0-2.4","746439A1D93B4C738345602E74D32971","746439A1D93B4C738345602E74D32971","f54f64a8-558b-4271-b22d-82a0836e9dac","a0a8f18c-a66e-4ba7-a170-23efbdc67501","{""participantId"":""746439A1D93B4C738345602E74D32971"",""assignmentId"":""f54f64a8-558b-4271-b22d-82a0836e9dac"",""projectId"":""a0a8f18c-a66e-4ba7-a170-23efbdc67501""}","https://test12345.live/?participantId=746439A1D93B4C738345602E74D32971&assignmentId=f54f64a8-558b-4271-b22d-82a0836e9dac&projectId=a0a8f18c-a66e-4ba7-a170-23efbdc67501","746439A1D93B4C738345602E74D32971-2024-11-24-19-25-44","","null","","[]","null","",""
"","","","","","image-button-response","72","356585","0.0-12.0-1.0-0.5","746439A1D93B4C738345602E74D32971","746439A1D93B4C738345602E74D32971","f54f64a8-558b-4271-b22d-82a0836e9dac","a0a8f18c-a66e-4ba7-a170-23efbdc67501","{""participantId"":""746439A1D93B4C738345602E74D32971"",""assignmentId"":""f54f64a8-558b-4271-b22d-82a0836e9dac"",""projectId"":""a0a8f18c-a66e-4ba7-a170-23efbdc67501""}","https://test12345.live/?participantId=746439A1D93B4C738345602E74D32971&assignmentId=f54f64a8-558b-4271-b22d-82a0836e9dac&projectId=a0a8f18c-a66e-4ba7-a170-23efbdc67501","746439A1D93B4C738345602E74D32971-2024-11-24-19-25-44","","null","","images/schematic_sequence/restaurant_scheme/restaurant_scheme_6.png","null","",""
"","","","","","image-button-response","73","358181","0.0-12.0-1.0-1.5","746439A1D93B4C738345602E74D32971","746439A1D93B4C738345602E74D32971","f54f64a8-558b-4271-b22d-82a0836e9dac","a0a8f18c-a66e-4ba7-a170-23efbdc67501","{""participantId"":""746439A1D93B4C738345602E74D32971"",""assignmentId"":""f54f64a8-558b-4271-b22d-82a0836e9dac"",""projectId"":""a0a8f18c-a66e-4ba7-a170-23efbdc67501""}","https://test12345.live/?participantId=746439A1D93B4C738345602E74D32971&assignmentId=f54f64a8-558b-4271-b22d-82a0836e9dac&projectId=a0a8f18c-a66e-4ba7-a170-23efbdc67501","746439A1D93B4C738345602E74D32971-2024-11-24-19-25-44","","1594","","images/schematic_sequence/restaurant_scheme/restaurant_scheme_6.png","1","",""
"","","","","","image-button-response","74","359996","0.0-12.0-1.0-2.5","746439A1D93B4C738345602E74D32971","746439A1D93B4C738345602E74D32971","f54f64a8-558b-4271-b22d-82a0836e9dac","a0a8f18c-a66e-4ba7-a170-23efbdc67501","{""participantId"":""746439A1D93B4C738345602E74D32971"",""assignmentId"":""f54f64a8-558b-4271-b22d-82a0836e9dac"",""projectId"":""a0a8f18c-a66e-4ba7-a170-23efbdc67501""}","https://test12345.live/?participantId=746439A1D93B4C738345602E74D32971&assignmentId=f54f64a8-558b-4271-b22d-82a0836e9dac&projectId=a0a8f18c-a66e-4ba7-a170-23efbdc67501","746439A1D93B4C738345602E74D32971-2024-11-24-19-25-44","","null","","[]","null","",""
"","","","","","image-button-response","75","364501","0.0-12.0-1.0-0.6","746439A1D93B4C738345602E74D32971","746439A1D93B4C738345602E74D32971","f54f64a8-558b-4271-b22d-82a0836e9dac","a0a8f18c-a66e-4ba7-a170-23efbdc67501","{""participantId"":""746439A1D93B4C738345602E74D32971"",""assignmentId"":""f54f64a8-558b-4271-b22d-82a0836e9dac"",""projectId"":""a0a8f18c-a66e-4ba7-a170-23efbdc67501""}","https://test12345.live/?participantId=746439A1D93B4C738345602E74D32971&assignmentId=f54f64a8-558b-4271-b22d-82a0836e9dac&projectId=a0a8f18c-a66e-4ba7-a170-23efbdc67501","746439A1D93B4C738345602E74D32971-2024-11-24-19-25-44","","null","","images/schematic_sequence/restaurant_scheme/restaurant_scheme_8.png","null","",""
"","","","","","image-button-response","76","365967","0.0-12.0-1.0-1.6","746439A1D93B4C738345602E74D32971","746439A1D93B4C738345602E74D32971","f54f64a8-558b-4271-b22d-82a0836e9dac","a0a8f18c-a66e-4ba7-a170-23efbdc67501","{""participantId"":""746439A1D93B4C738345602E74D32971"",""assignmentId"":""f54f64a8-558b-4271-b22d-82a0836e9dac"",""projectId"":""a0a8f18c-a66e-4ba7-a170-23efbdc67501""}","https://test12345.live/?participantId=746439A1D93B4C738345602E74D32971&assignmentId=f54f64a8-558b-4271-b22d-82a0836e9dac&projectId=a0a8f18c-a66e-4ba7-a170-23efbdc67501","746439A1D93B4C738345602E74D32971-2024-11-24-19-25-44","","1465","","images/schematic_sequence/restaurant_scheme/restaurant_scheme_8.png","0","",""
"","","","","","image-button-response","77","367771","0.0-12.0-1.0-2.6","746439A1D93B4C738345602E74D32971","746439A1D93B4C738345602E74D32971","f54f64a8-558b-4271-b22d-82a0836e9dac","a0a8f18c-a66e-4ba7-a170-23efbdc67501","{""participantId"":""746439A1D93B4C738345602E74D32971"",""assignmentId"":""f54f64a8-558b-4271-b22d-82a0836e9dac"",""projectId"":""a0a8f18c-a66e-4ba7-a170-23efbdc67501""}","https://test12345.live/?participantId=746439A1D93B4C738345602E74D32971&assignmentId=f54f64a8-558b-4271-b22d-82a0836e9dac&projectId=a0a8f18c-a66e-4ba7-a170-23efbdc67501","746439A1D93B4C738345602E74D32971-2024-11-24-19-25-44","","null","","[]","null","",""
"","","","","","image-button-response","78","372275","0.0-12.0-1.0-0.7","746439A1D93B4C738345602E74D32971","746439A1D93B4C738345602E74D32971","f54f64a8-558b-4271-b22d-82a0836e9dac","a0a8f18c-a66e-4ba7-a170-23efbdc67501","{""participantId"":""746439A1D93B4C738345602E74D32971"",""assignmentId"":""f54f64a8-558b-4271-b22d-82a0836e9dac"",""projectId"":""a0a8f18c-a66e-4ba7-a170-23efbdc67501""}","https://test12345.live/?participantId=746439A1D93B4C738345602E74D32971&assignmentId=f54f64a8-558b-4271-b22d-82a0836e9dac&projectId=a0a8f18c-a66e-4ba7-a170-23efbdc67501","746439A1D93B4C738345602E74D32971-2024-11-24-19-25-44","","null","","images/schematic_sequence/restaurant_scheme/restaurant_scheme_4.png","null","",""
"","","","","","image-button-response","79","373408","0.0-12.0-1.0-1.7","746439A1D93B4C738345602E74D32971","746439A1D93B4C738345602E74D32971","f54f64a8-558b-4271-b22d-82a0836e9dac","a0a8f18c-a66e-4ba7-a170-23efbdc67501","{""participantId"":""746439A1D93B4C738345602E74D32971"",""assignmentId"":""f54f64a8-558b-4271-b22d-82a0836e9dac"",""projectId"":""a0a8f18c-a66e-4ba7-a170-23efbdc67501""}","https://test12345.live/?participantId=746439A1D93B4C738345602E74D32971&assignmentId=f54f64a8-558b-4271-b22d-82a0836e9dac&projectId=a0a8f18c-a66e-4ba7-a170-23efbdc67501","746439A1D93B4C738345602E74D32971-2024-11-24-19-25-44","","1131","","images/schematic_sequence/restaurant_scheme/restaurant_scheme_4.png","0","",""
"","","","","","image-button-response","80","375226","0.0-12.0-1.0-2.7","746439A1D93B4C738345602E74D32971","746439A1D93B4C738345602E74D32971","f54f64a8-558b-4271-b22d-82a0836e9dac","a0a8f18c-a66e-4ba7-a170-23efbdc67501","{""participantId"":""746439A1D93B4C738345602E74D32971"",""assignmentId"":""f54f64a8-558b-4271-b22d-82a0836e9dac"",""projectId"":""a0a8f18c-a66e-4ba7-a170-23efbdc67501""}","https://test12345.live/?participantId=746439A1D93B4C738345602E74D32971&assignmentId=f54f64a8-558b-4271-b22d-82a0836e9dac&projectId=a0a8f18c-a66e-4ba7-a170-23efbdc67501","746439A1D93B4C738345602E74D32971-2024-11-24-19-25-44","","null","","[]","null","",""
"","","","","","image-button-response","81","379736","0.0-12.0-1.0-0.8","746439A1D93B4C738345602E74D32971","746439A1D93B4C738345602E74D32971","f54f64a8-558b-4271-b22d-82a0836e9dac","a0a8f18c-a66e-4ba7-a170-23efbdc67501","{""participantId"":""746439A1D93B4C738345602E74D32971"",""assignmentId"":""f54f64a8-558b-4271-b22d-82a0836e9dac"",""projectId"":""a0a8f18c-a66e-4ba7-a170-23efbdc67501""}","https://test12345.live/?participantId=746439A1D93B4C738345602E74D32971&assignmentId=f54f64a8-558b-4271-b22d-82a0836e9dac&projectId=a0a8f18c-a66e-4ba7-a170-23efbdc67501","746439A1D93B4C738345602E74D32971-2024-11-24-19-25-44","","null","","images/schematic_sequence/restaurant_scheme/restaurant_scheme_7.png","null","",""
"","","","","","image-button-response","82","382733","0.0-12.0-1.0-1.8","746439A1D93B4C738345602E74D32971","746439A1D93B4C738345602E74D32971","f54f64a8-558b-4271-b22d-82a0836e9dac","a0a8f18c-a66e-4ba7-a170-23efbdc67501","{""participantId"":""746439A1D93B4C738345602E74D32971"",""assignmentId"":""f54f64a8-558b-4271-b22d-82a0836e9dac"",""projectId"":""a0a8f18c-a66e-4ba7-a170-23efbdc67501""}","https://test12345.live/?participantId=746439A1D93B4C738345602E74D32971&assignmentId=f54f64a8-558b-4271-b22d-82a0836e9dac&projectId=a0a8f18c-a66e-4ba7-a170-23efbdc67501","746439A1D93B4C738345602E74D32971-2024-11-24-19-25-44","","2996","","images/schematic_sequence/restaurant_scheme/restaurant_scheme_7.png","1","",""
"","","","","","image-button-response","83","384541","0.0-12.0-1.0-2.8","746439A1D93B4C738345602E74D32971","746439A1D93B4C738345602E74D32971","f54f64a8-558b-4271-b22d-82a0836e9dac","a0a8f18c-a66e-4ba7-a170-23efbdc67501","{""participantId"":""746439A1D93B4C738345602E74D32971"",""assignmentId"":""f54f64a8-558b-4271-b22d-82a0836e9dac"",""projectId"":""a0a8f18c-a66e-4ba7-a170-23efbdc67501""}","https://test12345.live/?participantId=746439A1D93B4C738345602E74D32971&assignmentId=f54f64a8-558b-4271-b22d-82a0836e9dac&projectId=a0a8f18c-a66e-4ba7-a170-23efbdc67501","746439A1D93B4C738345602E74D32971-2024-11-24-19-25-44","","null","","[]","null","",""
"","","","","","image-button-response","84","389045","0.0-12.0-1.0-0.9","746439A1D93B4C738345602E74D32971","746439A1D93B4C738345602E74D32971","f54f64a8-558b-4271-b22d-82a0836e9dac","a0a8f18c-a66e-4ba7-a170-23efbdc67501","{""participantId"":""746439A1D93B4C738345602E74D32971"",""assignmentId"":""f54f64a8-558b-4271-b22d-82a0836e9dac"",""projectId"":""a0a8f18c-a66e-4ba7-a170-23efbdc67501""}","https://test12345.live/?participantId=746439A1D93B4C738345602E74D32971&assignmentId=f54f64a8-558b-4271-b22d-82a0836e9dac&projectId=a0a8f18c-a66e-4ba7-a170-23efbdc67501","746439A1D93B4C738345602E74D32971-2024-11-24-19-25-44","","null","","images/schematic_sequence/restaurant_scheme/restaurant_scheme_3.png","null","",""
"","","","","","image-button-response","85","390258","0.0-12.0-1.0-1.9","746439A1D93B4C738345602E74D32971","746439A1D93B4C738345602E74D32971","f54f64a8-558b-4271-b22d-82a0836e9dac","a0a8f18c-a66e-4ba7-a170-23efbdc67501","{""participantId"":""746439A1D93B4C738345602E74D32971"",""assignmentId"":""f54f64a8-558b-4271-b22d-82a0836e9dac"",""projectId"":""a0a8f18c-a66e-4ba7-a170-23efbdc67501""}","https://test12345.live/?participantId=746439A1D93B4C738345602E74D32971&assignmentId=f54f64a8-558b-4271-b22d-82a0836e9dac&projectId=a0a8f18c-a66e-4ba7-a170-23efbdc67501","746439A1D93B4C738345602E74D32971-2024-11-24-19-25-44","","1210","","images/schematic_sequence/restaurant_scheme/restaurant_scheme_3.png","1","",""
"","","","","","image-button-response","86","392061","0.0-12.0-1.0-2.9","746439A1D93B4C738345602E74D32971","746439A1D93B4C738345602E74D32971","f54f64a8-558b-4271-b22d-82a0836e9dac","a0a8f18c-a66e-4ba7-a170-23efbdc67501","{""participantId"":""746439A1D93B4C738345602E74D32971"",""assignmentId"":""f54f64a8-558b-4271-b22d-82a0836e9dac"",""projectId"":""a0a8f18c-a66e-4ba7-a170-23efbdc67501""}","https://test12345.live/?participantId=746439A1D93B4C738345602E74D32971&assignmentId=f54f64a8-558b-4271-b22d-82a0836e9dac&projectId=a0a8f18c-a66e-4ba7-a170-23efbdc67501","746439A1D93B4C738345602E74D32971-2024-11-24-19-25-44","","null","","[]","null","",""
"","","","","","html-audio-response","87","424992","0.0-13.0","746439A1D93B4C738345602E74D32971","746439A1D93B4C738345602E74D32971","f54f64a8-558b-4271-b22d-82a0836e9dac","a0a8f18c-a66e-4ba7-a170-23efbdc67501","{""participantId"":""746439A1D93B4C738345602E74D32971"",""assignmentId"":""f54f64a8-558b-4271-b22d-82a0836e9dac"",""projectId"":""a0a8f18c-a66e-4ba7-a170-23efbdc67501""}","https://test12345.live/?participantId=746439A1D93B4C738345602E74D32971&assignmentId=f54f64a8-558b-4271-b22d-82a0836e9dac&projectId=a0a8f18c-a66e-4ba7-a170-23efbdc67501","746439A1D93B4C738345602E74D32971-2024-11-24-19-25-44","","21225","","[""<span style=\""color: red; font-size: 24px\""> NOW RECORDING</span><p>Please say out loud all the images you saw, as many as you can remember. The images can be said in any order.</p>""]","","1","restaurant_scheme"
"","","","","","image-button-response","88","431005","0.0-14.0-0.0","746439A1D93B4C738345602E74D32971","746439A1D93B4C738345602E74D32971","f54f64a8-558b-4271-b22d-82a0836e9dac","a0a8f18c-a66e-4ba7-a170-23efbdc67501","{""participantId"":""746439A1D93B4C738345602E74D32971"",""assignmentId"":""f54f64a8-558b-4271-b22d-82a0836e9dac"",""projectId"":""a0a8f18c-a66e-4ba7-a170-23efbdc67501""}","https://test12345.live/?participantId=746439A1D93B4C738345602E74D32971&assignmentId=f54f64a8-558b-4271-b22d-82a0836e9dac&projectId=a0a8f18c-a66e-4ba7-a170-23efbdc67501","746439A1D93B4C738345602E74D32971-2024-11-24-19-25-44","","null","","images/causal_sequence/dog_causal/dog_causal_0.png","null","",""
"","","","","","image-button-response","89","435516","0.0-14.0-1.0-0.0","746439A1D93B4C738345602E74D32971","746439A1D93B4C738345602E74D32971","f54f64a8-558b-4271-b22d-82a0836e9dac","a0a8f18c-a66e-4ba7-a170-23efbdc67501","{""participantId"":""746439A1D93B4C738345602E74D32971"",""assignmentId"":""f54f64a8-558b-4271-b22d-82a0836e9dac"",""projectId"":""a0a8f18c-a66e-4ba7-a170-23efbdc67501""}","https://test12345.live/?participantId=746439A1D93B4C738345602E74D32971&assignmentId=f54f64a8-558b-4271-b22d-82a0836e9dac&projectId=a0a8f18c-a66e-4ba7-a170-23efbdc67501","746439A1D93B4C738345602E74D32971-2024-11-24-19-25-44","","null","","images/causal_sequence/dog_causal/dog_causal_1.png","null","",""
"","","","","","image-button-response","90","436926","0.0-14.0-1.0-1.0","746439A1D93B4C738345602E74D32971","746439A1D93B4C738345602E74D32971","f54f64a8-558b-4271-b22d-82a0836e9dac","a0a8f18c-a66e-4ba7-a170-23efbdc67501","{""participantId"":""746439A1D93B4C738345602E74D32971"",""assignmentId"":""f54f64a8-558b-4271-b22d-82a0836e9dac"",""projectId"":""a0a8f18c-a66e-4ba7-a170-23efbdc67501""}","https://test12345.live/?participantId=746439A1D93B4C738345602E74D32971&assignmentId=f54f64a8-558b-4271-b22d-82a0836e9dac&projectId=a0a8f18c-a66e-4ba7-a170-23efbdc67501","746439A1D93B4C738345602E74D32971-2024-11-24-19-25-44","","1408","","images/causal_sequence/dog_causal/dog_causal_1.png","0","",""
"","","","","","image-button-response","91","438736","0.0-14.0-1.0-2.0","746439A1D93B4C738345602E74D32971","746439A1D93B4C738345602E74D32971","f54f64a8-558b-4271-b22d-82a0836e9dac","a0a8f18c-a66e-4ba7-a170-23efbdc67501","{""participantId"":""746439A1D93B4C738345602E74D32971"",""assignmentId"":""f54f64a8-558b-4271-b22d-82a0836e9dac"",""projectId"":""a0a8f18c-a66e-4ba7-a170-23efbdc67501""}","https://test12345.live/?participantId=746439A1D93B4C738345602E74D32971&assignmentId=f54f64a8-558b-4271-b22d-82a0836e9dac&projectId=a0a8f18c-a66e-4ba7-a170-23efbdc67501","746439A1D93B4C738345602E74D32971-2024-11-24-19-25-44","","null","","[]","null","",""
"","","","","","image-button-response","92","443245","0.0-14.0-1.0-0.1","746439A1D93B4C738345602E74D32971","746439A1D93B4C738345602E74D32971","f54f64a8-558b-4271-b22d-82a0836e9dac","a0a8f18c-a66e-4ba7-a170-23efbdc67501","{""participantId"":""746439A1D93B4C738345602E74D32971"",""assignmentId"":""f54f64a8-558b-4271-b22d-82a0836e9dac"",""projectId"":""a0a8f18c-a66e-4ba7-a170-23efbdc67501""}","https://test12345.live/?participantId=746439A1D93B4C738345602E74D32971&assignmentId=f54f64a8-558b-4271-b22d-82a0836e9dac&projectId=a0a8f18c-a66e-4ba7-a170-23efbdc67501","746439A1D93B4C738345602E74D32971-2024-11-24-19-25-44","","null","","images/causal_sequence/dog_causal/dog_causal_2.png","null","",""
"","","","","","image-button-response","93","444508","0.0-14.0-1.0-1.1","746439A1D93B4C738345602E74D32971","746439A1D93B4C738345602E74D32971","f54f64a8-558b-4271-b22d-82a0836e9dac","a0a8f18c-a66e-4ba7-a170-23efbdc67501","{""participantId"":""746439A1D93B4C738345602E74D32971"",""assignmentId"":""f54f64a8-558b-4271-b22d-82a0836e9dac"",""projectId"":""a0a8f18c-a66e-4ba7-a170-23efbdc67501""}","https://test12345.live/?participantId=746439A1D93B4C738345602E74D32971&assignmentId=f54f64a8-558b-4271-b22d-82a0836e9dac&projectId=a0a8f18c-a66e-4ba7-a170-23efbdc67501","746439A1D93B4C738345602E74D32971-2024-11-24-19-25-44","","1260","","images/causal_sequence/dog_causal/dog_causal_2.png","0","",""
"","","","","","image-button-response","94","446315","0.0-14.0-1.0-2.1","746439A1D93B4C738345602E74D32971","746439A1D93B4C738345602E74D32971","f54f64a8-558b-4271-b22d-82a0836e9dac","a0a8f18c-a66e-4ba7-a170-23efbdc67501","{""participantId"":""746439A1D93B4C738345602E74D32971"",""assignmentId"":""f54f64a8-558b-4271-b22d-82a0836e9dac"",""projectId"":""a0a8f18c-a66e-4ba7-a170-23efbdc67501""}","https://test12345.live/?participantId=746439A1D93B4C738345602E74D32971&assignmentId=f54f64a8-558b-4271-b22d-82a0836e9dac&projectId=a0a8f18c-a66e-4ba7-a170-23efbdc67501","746439A1D93B4C738345602E74D32971-2024-11-24-19-25-44","","null","","[]","null","",""
"","","","","","image-button-response","95","450836","0.0-14.0-1.0-0.2","746439A1D93B4C738345602E74D32971","746439A1D93B4C738345602E74D32971","f54f64a8-558b-4271-b22d-82a0836e9dac","a0a8f18c-a66e-4ba7-a170-23efbdc67501","{""participantId"":""746439A1D93B4C738345602E74D32971"",""assignmentId"":""f54f64a8-558b-4271-b22d-82a0836e9dac"",""projectId"":""a0a8f18c-a66e-4ba7-a170-23efbdc67501""}","https://test12345.live/?participantId=746439A1D93B4C738345602E74D32971&assignmentId=f54f64a8-558b-4271-b22d-82a0836e9dac&projectId=a0a8f18c-a66e-4ba7-a170-23efbdc67501","746439A1D93B4C738345602E74D32971-2024-11-24-19-25-44","","null","","images/causal_sequence/dog_causal/dog_causal_3.png","null","",""
"","","","","","image-button-response","96","452087","0.0-14.0-1.0-1.2","746439A1D93B4C738345602E74D32971","746439A1D93B4C738345602E74D32971","f54f64a8-558b-4271-b22d-82a0836e9dac","a0a8f18c-a66e-4ba7-a170-23efbdc67501","{""participantId"":""746439A1D93B4C738345602E74D32971"",""assignmentId"":""f54f64a8-558b-4271-b22d-82a0836e9dac"",""projectId"":""a0a8f18c-a66e-4ba7-a170-23efbdc67501""}","https://test12345.live/?participantId=746439A1D93B4C738345602E74D32971&assignmentId=f54f64a8-558b-4271-b22d-82a0836e9dac&projectId=a0a8f18c-a66e-4ba7-a170-23efbdc67501","746439A1D93B4C738345602E74D32971-2024-11-24-19-25-44","","1250","","images/causal_sequence/dog_causal/dog_causal_3.png","0","",""
"","","","","","image-button-response","97","453906","0.0-14.0-1.0-2.2","746439A1D93B4C738345602E74D32971","746439A1D93B4C738345602E74D32971","f54f64a8-558b-4271-b22d-82a0836e9dac","a0a8f18c-a66e-4ba7-a170-23efbdc67501","{""participantId"":""746439A1D93B4C738345602E74D32971"",""assignmentId"":""f54f64a8-558b-4271-b22d-82a0836e9dac"",""projectId"":""a0a8f18c-a66e-4ba7-a170-23efbdc67501""}","https://test12345.live/?participantId=746439A1D93B4C738345602E74D32971&assignmentId=f54f64a8-558b-4271-b22d-82a0836e9dac&projectId=a0a8f18c-a66e-4ba7-a170-23efbdc67501","746439A1D93B4C738345602E74D32971-2024-11-24-19-25-44","","null","","[]","null","",""
"","","","","","image-button-response","98","458425","0.0-14.0-1.0-0.3","746439A1D93B4C738345602E74D32971","746439A1D93B4C738345602E74D32971","f54f64a8-558b-4271-b22d-82a0836e9dac","a0a8f18c-a66e-4ba7-a170-23efbdc67501","{""participantId"":""746439A1D93B4C738345602E74D32971"",""assignmentId"":""f54f64a8-558b-4271-b22d-82a0836e9dac"",""projectId"":""a0a8f18c-a66e-4ba7-a170-23efbdc67501""}","https://test12345.live/?participantId=746439A1D93B4C738345602E74D32971&assignmentId=f54f64a8-558b-4271-b22d-82a0836e9dac&projectId=a0a8f18c-a66e-4ba7-a170-23efbdc67501","746439A1D93B4C738345602E74D32971-2024-11-24-19-25-44","","null","","images/causal_sequence/dog_causal/dog_causal_4.png","null","",""
"","","","","","image-button-response","99","459778","0.0-14.0-1.0-1.3","746439A1D93B4C738345602E74D32971","746439A1D93B4C738345602E74D32971","f54f64a8-558b-4271-b22d-82a0836e9dac","a0a8f18c-a66e-4ba7-a170-23efbdc67501","{""participantId"":""746439A1D93B4C738345602E74D32971"",""assignmentId"":""f54f64a8-558b-4271-b22d-82a0836e9dac"",""projectId"":""a0a8f18c-a66e-4ba7-a170-23efbdc67501""}","https://test12345.live/?participantId=746439A1D93B4C738345602E74D32971&assignmentId=f54f64a8-558b-4271-b22d-82a0836e9dac&projectId=a0a8f18c-a66e-4ba7-a170-23efbdc67501","746439A1D93B4C738345602E74D32971-2024-11-24-19-25-44","","1352","","images/causal_sequence/dog_causal/dog_causal_4.png","0","",""
"","","","","","image-button-response","100","461596","0.0-14.0-1.0-2.3","746439A1D93B4C738345602E74D32971","746439A1D93B4C738345602E74D32971","f54f64a8-558b-4271-b22d-82a0836e9dac","a0a8f18c-a66e-4ba7-a170-23efbdc67501","{""participantId"":""746439A1D93B4C738345602E74D32971"",""assignmentId"":""f54f64a8-558b-4271-b22d-82a0836e9dac"",""projectId"":""a0a8f18c-a66e-4ba7-a170-23efbdc67501""}","https://test12345.live/?participantId=746439A1D93B4C738345602E74D32971&assignmentId=f54f64a8-558b-4271-b22d-82a0836e9dac&projectId=a0a8f18c-a66e-4ba7-a170-23efbdc67501","746439A1D93B4C738345602E74D32971-2024-11-24-19-25-44","","null","","[]","null","",""
"","","","","","image-button-response","101","466116","0.0-14.0-1.0-0.4","746439A1D93B4C738345602E74D32971","746439A1D93B4C738345602E74D32971","f54f64a8-558b-4271-b22d-82a0836e9dac","a0a8f18c-a66e-4ba7-a170-23efbdc67501","{""participantId"":""746439A1D93B4C738345602E74D32971"",""assignmentId"":""f54f64a8-558b-4271-b22d-82a0836e9dac"",""projectId"":""a0a8f18c-a66e-4ba7-a170-23efbdc67501""}","https://test12345.live/?participantId=746439A1D93B4C738345602E74D32971&assignmentId=f54f64a8-558b-4271-b22d-82a0836e9dac&projectId=a0a8f18c-a66e-4ba7-a170-23efbdc67501","746439A1D93B4C738345602E74D32971-2024-11-24-19-25-44","","null","","images/causal_sequence/dog_causal/dog_causal_5.png","null","",""
"","","","","","image-button-response","102","467621","0.0-14.0-1.0-1.4","746439A1D93B4C738345602E74D32971","746439A1D93B4C738345602E74D32971","f54f64a8-558b-4271-b22d-82a0836e9dac","a0a8f18c-a66e-4ba7-a170-23efbdc67501","{""participantId"":""746439A1D93B4C738345602E74D32971"",""assignmentId"":""f54f64a8-558b-4271-b22d-82a0836e9dac"",""projectId"":""a0a8f18c-a66e-4ba7-a170-23efbdc67501""}","https://test12345.live/?participantId=746439A1D93B4C738345602E74D32971&assignmentId=f54f64a8-558b-4271-b22d-82a0836e9dac&projectId=a0a8f18c-a66e-4ba7-a170-23efbdc67501","746439A1D93B4C738345602E74D32971-2024-11-24-19-25-44","","1504","","images/causal_sequence/dog_causal/dog_causal_5.png","0","",""
"","","","","","image-button-response","103","469435","0.0-14.0-1.0-2.4","746439A1D93B4C738345602E74D32971","746439A1D93B4C738345602E74D32971","f54f64a8-558b-4271-b22d-82a0836e9dac","a0a8f18c-a66e-4ba7-a170-23efbdc67501","{""participantId"":""746439A1D93B4C738345602E74D32971"",""assignmentId"":""f54f64a8-558b-4271-b22d-82a0836e9dac"",""projectId"":""a0a8f18c-a66e-4ba7-a170-23efbdc67501""}","https://test12345.live/?participantId=746439A1D93B4C738345602E74D32971&assignmentId=f54f64a8-558b-4271-b22d-82a0836e9dac&projectId=a0a8f18c-a66e-4ba7-a170-23efbdc67501","746439A1D93B4C738345602E74D32971-2024-11-24-19-25-44","","null","","[]","null","",""
"","","","","","image-button-response","104","473956","0.0-14.0-1.0-0.5","746439A1D93B4C738345602E74D32971","746439A1D93B4C738345602E74D32971","f54f64a8-558b-4271-b22d-82a0836e9dac","a0a8f18c-a66e-4ba7-a170-23efbdc67501","{""participantId"":""746439A1D93B4C738345602E74D32971"",""assignmentId"":""f54f64a8-558b-4271-b22d-82a0836e9dac"",""projectId"":""a0a8f18c-a66e-4ba7-a170-23efbdc67501""}","https://test12345.live/?participantId=746439A1D93B4C738345602E74D32971&assignmentId=f54f64a8-558b-4271-b22d-82a0836e9dac&projectId=a0a8f18c-a66e-4ba7-a170-23efbdc67501","746439A1D93B4C738345602E74D32971-2024-11-24-19-25-44","","null","","images/causal_sequence/dog_causal/dog_causal_6.png","null","",""
"","","","","","image-button-response","105","474758","0.0-14.0-1.0-1.5","746439A1D93B4C738345602E74D32971","746439A1D93B4C738345602E74D32971","f54f64a8-558b-4271-b22d-82a0836e9dac","a0a8f18c-a66e-4ba7-a170-23efbdc67501","{""participantId"":""746439A1D93B4C738345602E74D32971"",""assignmentId"":""f54f64a8-558b-4271-b22d-82a0836e9dac"",""projectId"":""a0a8f18c-a66e-4ba7-a170-23efbdc67501""}","https://test12345.live/?participantId=746439A1D93B4C738345602E74D32971&assignmentId=f54f64a8-558b-4271-b22d-82a0836e9dac&projectId=a0a8f18c-a66e-4ba7-a170-23efbdc67501","746439A1D93B4C738345602E74D32971-2024-11-24-19-25-44","","800","","images/causal_sequence/dog_causal/dog_causal_6.png","0","",""
"","","","","","image-button-response","106","476566","0.0-14.0-1.0-2.5","746439A1D93B4C738345602E74D32971","746439A1D93B4C738345602E74D32971","f54f64a8-558b-4271-b22d-82a0836e9dac","a0a8f18c-a66e-4ba7-a170-23efbdc67501","{""participantId"":""746439A1D93B4C738345602E74D32971"",""assignmentId"":""f54f64a8-558b-4271-b22d-82a0836e9dac"",""projectId"":""a0a8f18c-a66e-4ba7-a170-23efbdc67501""}","https://test12345.live/?participantId=746439A1D93B4C738345602E74D32971&assignmentId=f54f64a8-558b-4271-b22d-82a0836e9dac&projectId=a0a8f18c-a66e-4ba7-a170-23efbdc67501","746439A1D93B4C738345602E74D32971-2024-11-24-19-25-44","","null","","[]","null","",""
"","","","","","image-button-response","107","481071","0.0-14.0-1.0-0.6","746439A1D93B4C738345602E74D32971","746439A1D93B4C738345602E74D32971","f54f64a8-558b-4271-b22d-82a0836e9dac","a0a8f18c-a66e-4ba7-a170-23efbdc67501","{""participantId"":""746439A1D93B4C738345602E74D32971"",""assignmentId"":""f54f64a8-558b-4271-b22d-82a0836e9dac"",""projectId"":""a0a8f18c-a66e-4ba7-a170-23efbdc67501""}","https://test12345.live/?participantId=746439A1D93B4C738345602E74D32971&assignmentId=f54f64a8-558b-4271-b22d-82a0836e9dac&projectId=a0a8f18c-a66e-4ba7-a170-23efbdc67501","746439A1D93B4C738345602E74D32971-2024-11-24-19-25-44","","null","","images/causal_sequence/dog_causal/dog_causal_7.png","null","",""
"","","","","","image-button-response","108","482242","0.0-14.0-1.0-1.6","746439A1D93B4C738345602E74D32971","746439A1D93B4C738345602E74D32971","f54f64a8-558b-4271-b22d-82a0836e9dac","a0a8f18c-a66e-4ba7-a170-23efbdc67501","{""participantId"":""746439A1D93B4C738345602E74D32971"",""assignmentId"":""f54f64a8-558b-4271-b22d-82a0836e9dac"",""projectId"":""a0a8f18c-a66e-4ba7-a170-23efbdc67501""}","https://test12345.live/?participantId=746439A1D93B4C738345602E74D32971&assignmentId=f54f64a8-558b-4271-b22d-82a0836e9dac&projectId=a0a8f18c-a66e-4ba7-a170-23efbdc67501","746439A1D93B4C738345602E74D32971-2024-11-24-19-25-44","","1169","","images/causal_sequence/dog_causal/dog_causal_7.png","0","",""
"","","","","","image-button-response","109","484051","0.0-14.0-1.0-2.6","746439A1D93B4C738345602E74D32971","746439A1D93B4C738345602E74D32971","f54f64a8-558b-4271-b22d-82a0836e9dac","a0a8f18c-a66e-4ba7-a170-23efbdc67501","{""participantId"":""746439A1D93B4C738345602E74D32971"",""assignmentId"":""f54f64a8-558b-4271-b22d-82a0836e9dac"",""projectId"":""a0a8f18c-a66e-4ba7-a170-23efbdc67501""}","https://test12345.live/?participantId=746439A1D93B4C738345602E74D32971&assignmentId=f54f64a8-558b-4271-b22d-82a0836e9dac&projectId=a0a8f18c-a66e-4ba7-a170-23efbdc67501","746439A1D93B4C738345602E74D32971-2024-11-24-19-25-44","","null","","[]","null","",""
"","","","","","image-button-response","110","488555","0.0-14.0-1.0-0.7","746439A1D93B4C738345602E74D32971","746439A1D93B4C738345602E74D32971","f54f64a8-558b-4271-b22d-82a0836e9dac","a0a8f18c-a66e-4ba7-a170-23efbdc67501","{""participantId"":""746439A1D93B4C738345602E74D32971"",""assignmentId"":""f54f64a8-558b-4271-b22d-82a0836e9dac"",""projectId"":""a0a8f18c-a66e-4ba7-a170-23efbdc67501""}","https://test12345.live/?participantId=746439A1D93B4C738345602E74D32971&assignmentId=f54f64a8-558b-4271-b22d-82a0836e9dac&projectId=a0a8f18c-a66e-4ba7-a170-23efbdc67501","746439A1D93B4C738345602E74D32971-2024-11-24-19-25-44","","null","","images/causal_sequence/dog_causal/dog_causal_8.png","null","",""
"","","","","","image-button-response","111","489429","0.0-14.0-1.0-1.7","746439A1D93B4C738345602E74D32971","746439A1D93B4C738345602E74D32971","f54f64a8-558b-4271-b22d-82a0836e9dac","a0a8f18c-a66e-4ba7-a170-23efbdc67501","{""participantId"":""746439A1D93B4C738345602E74D32971"",""assignmentId"":""f54f64a8-558b-4271-b22d-82a0836e9dac"",""projectId"":""a0a8f18c-a66e-4ba7-a170-23efbdc67501""}","https://test12345.live/?participantId=746439A1D93B4C738345602E74D32971&assignmentId=f54f64a8-558b-4271-b22d-82a0836e9dac&projectId=a0a8f18c-a66e-4ba7-a170-23efbdc67501","746439A1D93B4C738345602E74D32971-2024-11-24-19-25-44","","872","","images/causal_sequence/dog_causal/dog_causal_8.png","0","",""
"","","","","","image-button-response","112","491246","0.0-14.0-1.0-2.7","746439A1D93B4C738345602E74D32971","746439A1D93B4C738345602E74D32971","f54f64a8-558b-4271-b22d-82a0836e9dac","a0a8f18c-a66e-4ba7-a170-23efbdc67501","{""participantId"":""746439A1D93B4C738345602E74D32971"",""assignmentId"":""f54f64a8-558b-4271-b22d-82a0836e9dac"",""projectId"":""a0a8f18c-a66e-4ba7-a170-23efbdc67501""}","https://test12345.live/?participantId=746439A1D93B4C738345602E74D32971&assignmentId=f54f64a8-558b-4271-b22d-82a0836e9dac&projectId=a0a8f18c-a66e-4ba7-a170-23efbdc67501","746439A1D93B4C738345602E74D32971-2024-11-24-19-25-44","","null","","[]","null","",""
"","","","","","image-button-response","113","495751","0.0-14.0-1.0-0.8","746439A1D93B4C738345602E74D32971","746439A1D93B4C738345602E74D32971","f54f64a8-558b-4271-b22d-82a0836e9dac","a0a8f18c-a66e-4ba7-a170-23efbdc67501","{""participantId"":""746439A1D93B4C738345602E74D32971"",""assignmentId"":""f54f64a8-558b-4271-b22d-82a0836e9dac"",""projectId"":""a0a8f18c-a66e-4ba7-a170-23efbdc67501""}","https://test12345.live/?participantId=746439A1D93B4C738345602E74D32971&assignmentId=f54f64a8-558b-4271-b22d-82a0836e9dac&projectId=a0a8f18c-a66e-4ba7-a170-23efbdc67501","746439A1D93B4C738345602E74D32971-2024-11-24-19-25-44","","null","","images/causal_sequence/dog_causal/dog_causal_9.png","null","",""
"","","","","","image-button-response","114","496631","0.0-14.0-1.0-1.8","746439A1D93B4C738345602E74D32971","746439A1D93B4C738345602E74D32971","f54f64a8-558b-4271-b22d-82a0836e9dac","a0a8f18c-a66e-4ba7-a170-23efbdc67501","{""participantId"":""746439A1D93B4C738345602E74D32971"",""assignmentId"":""f54f64a8-558b-4271-b22d-82a0836e9dac"",""projectId"":""a0a8f18c-a66e-4ba7-a170-23efbdc67501""}","https://test12345.live/?participantId=746439A1D93B4C738345602E74D32971&assignmentId=f54f64a8-558b-4271-b22d-82a0836e9dac&projectId=a0a8f18c-a66e-4ba7-a170-23efbdc67501","746439A1D93B4C738345602E74D32971-2024-11-24-19-25-44","","878","","images/causal_sequence/dog_causal/dog_causal_9.png","0","",""
"","","","","","image-button-response","115","498435","0.0-14.0-1.0-2.8","746439A1D93B4C738345602E74D32971","746439A1D93B4C738345602E74D32971","f54f64a8-558b-4271-b22d-82a0836e9dac","a0a8f18c-a66e-4ba7-a170-23efbdc67501","{""participantId"":""746439A1D93B4C738345602E74D32971"",""assignmentId"":""f54f64a8-558b-4271-b22d-82a0836e9dac"",""projectId"":""a0a8f18c-a66e-4ba7-a170-23efbdc67501""}","https://test12345.live/?participantId=746439A1D93B4C738345602E74D32971&assignmentId=f54f64a8-558b-4271-b22d-82a0836e9dac&projectId=a0a8f18c-a66e-4ba7-a170-23efbdc67501","746439A1D93B4C738345602E74D32971-2024-11-24-19-25-44","","null","","[]","null","",""
"","","","","","image-button-response","116","502946","0.0-14.0-1.0-0.9","746439A1D93B4C738345602E74D32971","746439A1D93B4C738345602E74D32971","f54f64a8-558b-4271-b22d-82a0836e9dac","a0a8f18c-a66e-4ba7-a170-23efbdc67501","{""participantId"":""746439A1D93B4C738345602E74D32971"",""assignmentId"":""f54f64a8-558b-4271-b22d-82a0836e9dac"",""projectId"":""a0a8f18c-a66e-4ba7-a170-23efbdc67501""}","https://test12345.live/?participantId=746439A1D93B4C738345602E74D32971&assignmentId=f54f64a8-558b-4271-b22d-82a0836e9dac&projectId=a0a8f18c-a66e-4ba7-a170-23efbdc67501","746439A1D93B4C738345602E74D32971-2024-11-24-19-25-44","","null","","images/causal_sequence/dog_causal/dog_causal_ten.png","null","",""
"","","","","","image-button-response","117","503642","0.0-14.0-1.0-1.9","746439A1D93B4C738345602E74D32971","746439A1D93B4C738345602E74D32971","f54f64a8-558b-4271-b22d-82a0836e9dac","a0a8f18c-a66e-4ba7-a170-23efbdc67501","{""participantId"":""746439A1D93B4C738345602E74D32971"",""assignmentId"":""f54f64a8-558b-4271-b22d-82a0836e9dac"",""projectId"":""a0a8f18c-a66e-4ba7-a170-23efbdc67501""}","https://test12345.live/?participantId=746439A1D93B4C738345602E74D32971&assignmentId=f54f64a8-558b-4271-b22d-82a0836e9dac&projectId=a0a8f18c-a66e-4ba7-a170-23efbdc67501","746439A1D93B4C738345602E74D32971-2024-11-24-19-25-44","","694","","images/causal_sequence/dog_causal/dog_causal_ten.png","0","",""
"","","","","","image-button-response","118","505446","0.0-14.0-1.0-2.9","746439A1D93B4C738345602E74D32971","746439A1D93B4C738345602E74D32971","f54f64a8-558b-4271-b22d-82a0836e9dac","a0a8f18c-a66e-4ba7-a170-23efbdc67501","{""participantId"":""746439A1D93B4C738345602E74D32971"",""assignmentId"":""f54f64a8-558b-4271-b22d-82a0836e9dac"",""projectId"":""a0a8f18c-a66e-4ba7-a170-23efbdc67501""}","https://test12345.live/?participantId=746439A1D93B4C738345602E74D32971&assignmentId=f54f64a8-558b-4271-b22d-82a0836e9dac&projectId=a0a8f18c-a66e-4ba7-a170-23efbdc67501","746439A1D93B4C738345602E74D32971-2024-11-24-19-25-44","","null","","[]","null","",""
"","","","","","html-audio-response","119","541535","0.0-15.0","746439A1D93B4C738345602E74D32971","746439A1D93B4C738345602E74D32971","f54f64a8-558b-4271-b22d-82a0836e9dac","a0a8f18c-a66e-4ba7-a170-23efbdc67501","{""participantId"":""746439A1D93B4C738345602E74D32971"",""assignmentId"":""f54f64a8-558b-4271-b22d-82a0836e9dac"",""projectId"":""a0a8f18c-a66e-4ba7-a170-23efbdc67501""}","https://test12345.live/?participantId=746439A1D93B4C738345602E74D32971&assignmentId=f54f64a8-558b-4271-b22d-82a0836e9dac&projectId=a0a8f18c-a66e-4ba7-a170-23efbdc67501","746439A1D93B4C738345602E74D32971-2024-11-24-19-25-44","","30171","","[""<span style=\""color: red; font-size: 24px\""> NOW RECORDING</span><p>Please say out loud all the images you saw, as many as you can remember. The images can be said in any order.</p>""]","","12","dog_causal"
"","","","","","image-button-response","120","547555","0.0-16.0-0.0","746439A1D93B4C738345602E74D32971","746439A1D93B4C738345602E74D32971","f54f64a8-558b-4271-b22d-82a0836e9dac","a0a8f18c-a66e-4ba7-a170-23efbdc67501","{""participantId"":""746439A1D93B4C738345602E74D32971"",""assignmentId"":""f54f64a8-558b-4271-b22d-82a0836e9dac"",""projectId"":""a0a8f18c-a66e-4ba7-a170-23efbdc67501""}","https://test12345.live/?participantId=746439A1D93B4C738345602E74D32971&assignmentId=f54f64a8-558b-4271-b22d-82a0836e9dac&projectId=a0a8f18c-a66e-4ba7-a170-23efbdc67501","746439A1D93B4C738345602E74D32971-2024-11-24-19-25-44","","null","","images/causal_sequence/museum_causal/museum_causal_0.png","null","",""
"","","","","","image-button-response","121","552065","0.0-16.0-1.0-0.0","746439A1D93B4C738345602E74D32971","746439A1D93B4C738345602E74D32971","f54f64a8-558b-4271-b22d-82a0836e9dac","a0a8f18c-a66e-4ba7-a170-23efbdc67501","{""participantId"":""746439A1D93B4C738345602E74D32971"",""assignmentId"":""f54f64a8-558b-4271-b22d-82a0836e9dac"",""projectId"":""a0a8f18c-a66e-4ba7-a170-23efbdc67501""}","https://test12345.live/?participantId=746439A1D93B4C738345602E74D32971&assignmentId=f54f64a8-558b-4271-b22d-82a0836e9dac&projectId=a0a8f18c-a66e-4ba7-a170-23efbdc67501","746439A1D93B4C738345602E74D32971-2024-11-24-19-25-44","","null","","images/causal_sequence/museum_causal/museum_causal_8.png","null","",""
"","","","","","image-button-response","122","554147","0.0-16.0-1.0-1.0","746439A1D93B4C738345602E74D32971","746439A1D93B4C738345602E74D32971","f54f64a8-558b-4271-b22d-82a0836e9dac","a0a8f18c-a66e-4ba7-a170-23efbdc67501","{""participantId"":""746439A1D93B4C738345602E74D32971"",""assignmentId"":""f54f64a8-558b-4271-b22d-82a0836e9dac"",""projectId"":""a0a8f18c-a66e-4ba7-a170-23efbdc67501""}","https://test12345.live/?participantId=746439A1D93B4C738345602E74D32971&assignmentId=f54f64a8-558b-4271-b22d-82a0836e9dac&projectId=a0a8f18c-a66e-4ba7-a170-23efbdc67501","746439A1D93B4C738345602E74D32971-2024-11-24-19-25-44","","2081","","images/causal_sequence/museum_causal/museum_causal_8.png","0","",""
"","","","","","image-button-response","123","555960","0.0-16.0-1.0-2.0","746439A1D93B4C738345602E74D32971","746439A1D93B4C738345602E74D32971","f54f64a8-558b-4271-b22d-82a0836e9dac","a0a8f18c-a66e-4ba7-a170-23efbdc67501","{""participantId"":""746439A1D93B4C738345602E74D32971"",""assignmentId"":""f54f64a8-558b-4271-b22d-82a0836e9dac"",""projectId"":""a0a8f18c-a66e-4ba7-a170-23efbdc67501""}","https://test12345.live/?participantId=746439A1D93B4C738345602E74D32971&assignmentId=f54f64a8-558b-4271-b22d-82a0836e9dac&projectId=a0a8f18c-a66e-4ba7-a170-23efbdc67501","746439A1D93B4C738345602E74D32971-2024-11-24-19-25-44","","null","","[]","null","",""
"","","","","","image-button-response","124","560475","0.0-16.0-1.0-0.1","746439A1D93B4C738345602E74D32971","746439A1D93B4C738345602E74D32971","f54f64a8-558b-4271-b22d-82a0836e9dac","a0a8f18c-a66e-4ba7-a170-23efbdc67501","{""participantId"":""746439A1D93B4C738345602E74D32971"",""assignmentId"":""f54f64a8-558b-4271-b22d-82a0836e9dac"",""projectId"":""a0a8f18c-a66e-4ba7-a170-23efbdc67501""}","https://test12345.live/?participantId=746439A1D93B4C738345602E74D32971&assignmentId=f54f64a8-558b-4271-b22d-82a0836e9dac&projectId=a0a8f18c-a66e-4ba7-a170-23efbdc67501","746439A1D93B4C738345602E74D32971-2024-11-24-19-25-44","","null","","images/causal_sequence/museum_causal/museum_causal_7.png","null","",""
"","","","","","image-button-response","125","561993","0.0-16.0-1.0-1.1","746439A1D93B4C738345602E74D32971","746439A1D93B4C738345602E74D32971","f54f64a8-558b-4271-b22d-82a0836e9dac","a0a8f18c-a66e-4ba7-a170-23efbdc67501","{""participantId"":""746439A1D93B4C738345602E74D32971"",""assignmentId"":""f54f64a8-558b-4271-b22d-82a0836e9dac"",""projectId"":""a0a8f18c-a66e-4ba7-a170-23efbdc67501""}","https://test12345.live/?participantId=746439A1D93B4C738345602E74D32971&assignmentId=f54f64a8-558b-4271-b22d-82a0836e9dac&projectId=a0a8f18c-a66e-4ba7-a170-23efbdc67501","746439A1D93B4C738345602E74D32971-2024-11-24-19-25-44","","1516","","images/causal_sequence/museum_causal/museum_causal_7.png","1","",""
"","","","","","image-button-response","126","563796","0.0-16.0-1.0-2.1","746439A1D93B4C738345602E74D32971","746439A1D93B4C738345602E74D32971","f54f64a8-558b-4271-b22d-82a0836e9dac","a0a8f18c-a66e-4ba7-a170-23efbdc67501","{""participantId"":""746439A1D93B4C738345602E74D32971"",""assignmentId"":""f54f64a8-558b-4271-b22d-82a0836e9dac"",""projectId"":""a0a8f18c-a66e-4ba7-a170-23efbdc67501""}","https://test12345.live/?participantId=746439A1D93B4C738345602E74D32971&assignmentId=f54f64a8-558b-4271-b22d-82a0836e9dac&projectId=a0a8f18c-a66e-4ba7-a170-23efbdc67501","746439A1D93B4C738345602E74D32971-2024-11-24-19-25-44","","null","","[]","null","",""
"","","","","","image-button-response","127","568305","0.0-16.0-1.0-0.2","746439A1D93B4C738345602E74D32971","746439A1D93B4C738345602E74D32971","f54f64a8-558b-4271-b22d-82a0836e9dac","a0a8f18c-a66e-4ba7-a170-23efbdc67501","{""participantId"":""746439A1D93B4C738345602E74D32971"",""assignmentId"":""f54f64a8-558b-4271-b22d-82a0836e9dac"",""projectId"":""a0a8f18c-a66e-4ba7-a170-23efbdc67501""}","https://test12345.live/?participantId=746439A1D93B4C738345602E74D32971&assignmentId=f54f64a8-558b-4271-b22d-82a0836e9dac&projectId=a0a8f18c-a66e-4ba7-a170-23efbdc67501","746439A1D93B4C738345602E74D32971-2024-11-24-19-25-44","","null","","images/causal_sequence/museum_causal/museum_causal_9.png","null","",""
"","","","","","image-button-response","128","569667","0.0-16.0-1.0-1.2","746439A1D93B4C738345602E74D32971","746439A1D93B4C738345602E74D32971","f54f64a8-558b-4271-b22d-82a0836e9dac","a0a8f18c-a66e-4ba7-a170-23efbdc67501","{""participantId"":""746439A1D93B4C738345602E74D32971"",""assignmentId"":""f54f64a8-558b-4271-b22d-82a0836e9dac"",""projectId"":""a0a8f18c-a66e-4ba7-a170-23efbdc67501""}","https://test12345.live/?participantId=746439A1D93B4C738345602E74D32971&assignmentId=f54f64a8-558b-4271-b22d-82a0836e9dac&projectId=a0a8f18c-a66e-4ba7-a170-23efbdc67501","746439A1D93B4C738345602E74D32971-2024-11-24-19-25-44","","1360","","images/causal_sequence/museum_causal/museum_causal_9.png","1","",""
"","","","","","image-button-response","129","571486","0.0-16.0-1.0-2.2","746439A1D93B4C738345602E74D32971","746439A1D93B4C738345602E74D32971","f54f64a8-558b-4271-b22d-82a0836e9dac","a0a8f18c-a66e-4ba7-a170-23efbdc67501","{""participantId"":""746439A1D93B4C738345602E74D32971"",""assignmentId"":""f54f64a8-558b-4271-b22d-82a0836e9dac"",""projectId"":""a0a8f18c-a66e-4ba7-a170-23efbdc67501""}","https://test12345.live/?participantId=746439A1D93B4C738345602E74D32971&assignmentId=f54f64a8-558b-4271-b22d-82a0836e9dac&projectId=a0a8f18c-a66e-4ba7-a170-23efbdc67501","746439A1D93B4C738345602E74D32971-2024-11-24-19-25-44","","null","","[]","null","",""
"","","","","","image-button-response","130","576006","0.0-16.0-1.0-0.3","746439A1D93B4C738345602E74D32971","746439A1D93B4C738345602E74D32971","f54f64a8-558b-4271-b22d-82a0836e9dac","a0a8f18c-a66e-4ba7-a170-23efbdc67501","{""participantId"":""746439A1D93B4C738345602E74D32971"",""assignmentId"":""f54f64a8-558b-4271-b22d-82a0836e9dac"",""projectId"":""a0a8f18c-a66e-4ba7-a170-23efbdc67501""}","https://test12345.live/?participantId=746439A1D93B4C738345602E74D32971&assignmentId=f54f64a8-558b-4271-b22d-82a0836e9dac&projectId=a0a8f18c-a66e-4ba7-a170-23efbdc67501","746439A1D93B4C738345602E74D32971-2024-11-24-19-25-44","","null","","images/causal_sequence/museum_causal/museum_causal_6.png","null","",""
"","","","","","image-button-response","131","578937","0.0-16.0-1.0-1.3","746439A1D93B4C738345602E74D32971","746439A1D93B4C738345602E74D32971","f54f64a8-558b-4271-b22d-82a0836e9dac","a0a8f18c-a66e-4ba7-a170-23efbdc67501","{""participantId"":""746439A1D93B4C738345602E74D32971"",""assignmentId"":""f54f64a8-558b-4271-b22d-82a0836e9dac"",""projectId"":""a0a8f18c-a66e-4ba7-a170-23efbdc67501""}","https://test12345.live/?participantId=746439A1D93B4C738345602E74D32971&assignmentId=f54f64a8-558b-4271-b22d-82a0836e9dac&projectId=a0a8f18c-a66e-4ba7-a170-23efbdc67501","746439A1D93B4C738345602E74D32971-2024-11-24-19-25-44","","2929","","images/causal_sequence/museum_causal/museum_causal_6.png","0","",""
"","","","","","image-button-response","132","580756","0.0-16.0-1.0-2.3","746439A1D93B4C738345602E74D32971","746439A1D93B4C738345602E74D32971","f54f64a8-558b-4271-b22d-82a0836e9dac","a0a8f18c-a66e-4ba7-a170-23efbdc67501","{""participantId"":""746439A1D93B4C738345602E74D32971"",""assignmentId"":""f54f64a8-558b-4271-b22d-82a0836e9dac"",""projectId"":""a0a8f18c-a66e-4ba7-a170-23efbdc67501""}","https://test12345.live/?participantId=746439A1D93B4C738345602E74D32971&assignmentId=f54f64a8-558b-4271-b22d-82a0836e9dac&projectId=a0a8f18c-a66e-4ba7-a170-23efbdc67501","746439A1D93B4C738345602E74D32971-2024-11-24-19-25-44","","null","","[]","null","",""
"","","","","","image-button-response","133","585266","0.0-16.0-1.0-0.4","746439A1D93B4C738345602E74D32971","746439A1D93B4C738345602E74D32971","f54f64a8-558b-4271-b22d-82a0836e9dac","a0a8f18c-a66e-4ba7-a170-23efbdc67501","{""participantId"":""746439A1D93B4C738345602E74D32971"",""assignmentId"":""f54f64a8-558b-4271-b22d-82a0836e9dac"",""projectId"":""a0a8f18c-a66e-4ba7-a170-23efbdc67501""}","https://test12345.live/?participantId=746439A1D93B4C738345602E74D32971&assignmentId=f54f64a8-558b-4271-b22d-82a0836e9dac&projectId=a0a8f18c-a66e-4ba7-a170-23efbdc67501","746439A1D93B4C738345602E74D32971-2024-11-24-19-25-44","","null","","images/causal_sequence/museum_causal/museum_causal_5.png","null","",""
"","","","","","image-button-response","134","586003","0.0-16.0-1.0-1.4","746439A1D93B4C738345602E74D32971","746439A1D93B4C738345602E74D32971","f54f64a8-558b-4271-b22d-82a0836e9dac","a0a8f18c-a66e-4ba7-a170-23efbdc67501","{""participantId"":""746439A1D93B4C738345602E74D32971"",""assignmentId"":""f54f64a8-558b-4271-b22d-82a0836e9dac"",""projectId"":""a0a8f18c-a66e-4ba7-a170-23efbdc67501""}","https://test12345.live/?participantId=746439A1D93B4C738345602E74D32971&assignmentId=f54f64a8-558b-4271-b22d-82a0836e9dac&projectId=a0a8f18c-a66e-4ba7-a170-23efbdc67501","746439A1D93B4C738345602E74D32971-2024-11-24-19-25-44","","735","","images/causal_sequence/museum_causal/museum_causal_5.png","0","",""
"","","","","","image-button-response","135","587816","0.0-16.0-1.0-2.4","746439A1D93B4C738345602E74D32971","746439A1D93B4C738345602E74D32971","f54f64a8-558b-4271-b22d-82a0836e9dac","a0a8f18c-a66e-4ba7-a170-23efbdc67501","{""participantId"":""746439A1D93B4C738345602E74D32971"",""assignmentId"":""f54f64a8-558b-4271-b22d-82a0836e9dac"",""projectId"":""a0a8f18c-a66e-4ba7-a170-23efbdc67501""}","https://test12345.live/?participantId=746439A1D93B4C738345602E74D32971&assignmentId=f54f64a8-558b-4271-b22d-82a0836e9dac&projectId=a0a8f18c-a66e-4ba7-a170-23efbdc67501","746439A1D93B4C738345602E74D32971-2024-11-24-19-25-44","","null","","[]","null","",""
"","","","","","image-button-response","136","592326","0.0-16.0-1.0-0.5","746439A1D93B4C738345602E74D32971","746439A1D93B4C738345602E74D32971","f54f64a8-558b-4271-b22d-82a0836e9dac","a0a8f18c-a66e-4ba7-a170-23efbdc67501","{""participantId"":""746439A1D93B4C738345602E74D32971"",""assignmentId"":""f54f64a8-558b-4271-b22d-82a0836e9dac"",""projectId"":""a0a8f18c-a66e-4ba7-a170-23efbdc67501""}","https://test12345.live/?participantId=746439A1D93B4C738345602E74D32971&assignmentId=f54f64a8-558b-4271-b22d-82a0836e9dac&projectId=a0a8f18c-a66e-4ba7-a170-23efbdc67501","746439A1D93B4C738345602E74D32971-2024-11-24-19-25-44","","null","","images/causal_sequence/museum_causal/museum_causal_1.png","null","",""
"","","","","","image-button-response","137","593173","0.0-16.0-1.0-1.5","746439A1D93B4C738345602E74D32971","746439A1D93B4C738345602E74D32971","f54f64a8-558b-4271-b22d-82a0836e9dac","a0a8f18c-a66e-4ba7-a170-23efbdc67501","{""participantId"":""746439A1D93B4C738345602E74D32971"",""assignmentId"":""f54f64a8-558b-4271-b22d-82a0836e9dac"",""projectId"":""a0a8f18c-a66e-4ba7-a170-23efbdc67501""}","https://test12345.live/?participantId=746439A1D93B4C738345602E74D32971&assignmentId=f54f64a8-558b-4271-b22d-82a0836e9dac&projectId=a0a8f18c-a66e-4ba7-a170-23efbdc67501","746439A1D93B4C738345602E74D32971-2024-11-24-19-25-44","","845","","images/causal_sequence/museum_causal/museum_causal_1.png","0","",""
"","","","","","image-button-response","138","594986","0.0-16.0-1.0-2.5","746439A1D93B4C738345602E74D32971","746439A1D93B4C738345602E74D32971","f54f64a8-558b-4271-b22d-82a0836e9dac","a0a8f18c-a66e-4ba7-a170-23efbdc67501","{""participantId"":""746439A1D93B4C738345602E74D32971"",""assignmentId"":""f54f64a8-558b-4271-b22d-82a0836e9dac"",""projectId"":""a0a8f18c-a66e-4ba7-a170-23efbdc67501""}","https://test12345.live/?participantId=746439A1D93B4C738345602E74D32971&assignmentId=f54f64a8-558b-4271-b22d-82a0836e9dac&projectId=a0a8f18c-a66e-4ba7-a170-23efbdc67501","746439A1D93B4C738345602E74D32971-2024-11-24-19-25-44","","null","","[]","null","",""
"","","","","","image-button-response","139","599496","0.0-16.0-1.0-0.6","746439A1D93B4C738345602E74D32971","746439A1D93B4C738345602E74D32971","f54f64a8-558b-4271-b22d-82a0836e9dac","a0a8f18c-a66e-4ba7-a170-23efbdc67501","{""participantId"":""746439A1D93B4C738345602E74D32971"",""assignmentId"":""f54f64a8-558b-4271-b22d-82a0836e9dac"",""projectId"":""a0a8f18c-a66e-4ba7-a170-23efbdc67501""}","https://test12345.live/?participantId=746439A1D93B4C738345602E74D32971&assignmentId=f54f64a8-558b-4271-b22d-82a0836e9dac&projectId=a0a8f18c-a66e-4ba7-a170-23efbdc67501","746439A1D93B4C738345602E74D32971-2024-11-24-19-25-44","","null","","images/causal_sequence/museum_causal/museum_causal_3.png","null","",""
"","","","","","image-button-response","140","600986","0.0-16.0-1.0-1.6","746439A1D93B4C738345602E74D32971","746439A1D93B4C738345602E74D32971","f54f64a8-558b-4271-b22d-82a0836e9dac","a0a8f18c-a66e-4ba7-a170-23efbdc67501","{""participantId"":""746439A1D93B4C738345602E74D32971"",""assignmentId"":""f54f64a8-558b-4271-b22d-82a0836e9dac"",""projectId"":""a0a8f18c-a66e-4ba7-a170-23efbdc67501""}","https://test12345.live/?participantId=746439A1D93B4C738345602E74D32971&assignmentId=f54f64a8-558b-4271-b22d-82a0836e9dac&projectId=a0a8f18c-a66e-4ba7-a170-23efbdc67501","746439A1D93B4C738345602E74D32971-2024-11-24-19-25-44","","1489","","images/causal_sequence/museum_causal/museum_causal_3.png","0","",""
"","","","","","image-button-response","141","602804","0.0-16.0-1.0-2.6","746439A1D93B4C738345602E74D32971","746439A1D93B4C738345602E74D32971","f54f64a8-558b-4271-b22d-82a0836e9dac","a0a8f18c-a66e-4ba7-a170-23efbdc67501","{""participantId"":""746439A1D93B4C738345602E74D32971"",""assignmentId"":""f54f64a8-558b-4271-b22d-82a0836e9dac"",""projectId"":""a0a8f18c-a66e-4ba7-a170-23efbdc67501""}","https://test12345.live/?participantId=746439A1D93B4C738345602E74D32971&assignmentId=f54f64a8-558b-4271-b22d-82a0836e9dac&projectId=a0a8f18c-a66e-4ba7-a170-23efbdc67501","746439A1D93B4C738345602E74D32971-2024-11-24-19-25-44","","null","","[]","null","",""
"","","","","","image-button-response","142","607311","0.0-16.0-1.0-0.7","746439A1D93B4C738345602E74D32971","746439A1D93B4C738345602E74D32971","f54f64a8-558b-4271-b22d-82a0836e9dac","a0a8f18c-a66e-4ba7-a170-23efbdc67501","{""participantId"":""746439A1D93B4C738345602E74D32971"",""assignmentId"":""f54f64a8-558b-4271-b22d-82a0836e9dac"",""projectId"":""a0a8f18c-a66e-4ba7-a170-23efbdc67501""}","https://test12345.live/?participantId=746439A1D93B4C738345602E74D32971&assignmentId=f54f64a8-558b-4271-b22d-82a0836e9dac&projectId=a0a8f18c-a66e-4ba7-a170-23efbdc67501","746439A1D93B4C738345602E74D32971-2024-11-24-19-25-44","","null","","images/causal_sequence/museum_causal/museum_causal_ten.png","null","",""
"","","","","","image-button-response","143","611055","0.0-16.0-1.0-1.7","746439A1D93B4C738345602E74D32971","746439A1D93B4C738345602E74D32971","f54f64a8-558b-4271-b22d-82a0836e9dac","a0a8f18c-a66e-4ba7-a170-23efbdc67501","{""participantId"":""746439A1D93B4C738345602E74D32971"",""assignmentId"":""f54f64a8-558b-4271-b22d-82a0836e9dac"",""projectId"":""a0a8f18c-a66e-4ba7-a170-23efbdc67501""}","https://test12345.live/?participantId=746439A1D93B4C738345602E74D32971&assignmentId=f54f64a8-558b-4271-b22d-82a0836e9dac&projectId=a0a8f18c-a66e-4ba7-a170-23efbdc67501","746439A1D93B4C738345602E74D32971-2024-11-24-19-25-44","","3743","","images/causal_sequence/museum_causal/museum_causal_ten.png","0","",""
