"success","timeout","failed_images","failed_audio","failed_video","trial_type","trial_index","time_elapsed","internal_node_id","subject","subject_id","study_id","session_id","urlvar","current_url","audio_id","view_history","rt","device_id","stimulus","response","estimated_stimulus_onset","seq_name"
"true","false","[]","[]","[]","preload","0","5768","0.0-0.0","7488063171E540C4AEC4D4809583091A","7488063171E540C4AEC4D4809583091A","07e99695-2f3a-40d1-b78b-d642d77a022f","5e631737-0fa4-44a6-b227-7ba1d7345015","{""num_scrambled_semantic"":""8"",""num_scrambled_causal"":""4"",""num_scrambled_schematic"":""4"",""participantId"":""7488063171E540C4AEC4D4809583091A"",""assignmentId"":""07e99695-2f3a-40d1-b78b-d642d77a022f"",""projectId"":""5e631737-0fa4-44a6-b227-7ba1d7345015""}","https://test12345.live/?num_scrambled_semantic=8&num_scrambled_causal=4&num_scrambled_schematic=4&participantId=7488063171E540C4AEC4D4809583091A&assignmentId=07e99695-2f3a-40d1-b78b-d642d77a022f&projectId=5e631737-0fa4-44a6-b227-7ba1d7345015","7488063171E540C4AEC4D4809583091A-2025-05-27-18-22-29","","","","","","",""
"","","","","","instructions","1","14241","0.0-1.0","7488063171E540C4AEC4D4809583091A","7488063171E540C4AEC4D4809583091A","07e99695-2f3a-40d1-b78b-d642d77a022f","5e631737-0fa4-44a6-b227-7ba1d7345015","{""num_scrambled_semantic"":""8"",""num_scrambled_causal"":""4"",""num_scrambled_schematic"":""4"",""participantId"":""7488063171E540C4AEC4D4809583091A"",""assignmentId"":""07e99695-2f3a-40d1-b78b-d642d77a022f"",""projectId"":""5e631737-0fa4-44a6-b227-7ba1d7345015""}","https://test12345.live/?num_scrambled_semantic=8&num_scrambled_causal=4&num_scrambled_schematic=4&participantId=7488063171E540C4AEC4D4809583091A&assignmentId=07e99695-2f3a-40d1-b78b-d642d77a022f&projectId=5e631737-0fa4-44a6-b227-7ba1d7345015","7488063171E540C4AEC4D4809583091A-2025-05-27-18-22-29","[{""page_index"":0,""viewing_time"":8472}]","8473","","","","",""
"","","","","","instructions","2","30069","0.0-2.0","7488063171E540C4AEC4D4809583091A","7488063171E540C4AEC4D4809583091A","07e99695-2f3a-40d1-b78b-d642d77a022f","5e631737-0fa4-44a6-b227-7ba1d7345015","{""num_scrambled_semantic"":""8"",""num_scrambled_causal"":""4"",""num_scrambled_schematic"":""4"",""participantId"":""7488063171E540C4AEC4D4809583091A"",""assignmentId"":""07e99695-2f3a-40d1-b78b-d642d77a022f"",""projectId"":""5e631737-0fa4-44a6-b227-7ba1d7345015""}","https://test12345.live/?num_scrambled_semantic=8&num_scrambled_causal=4&num_scrambled_schematic=4&participantId=7488063171E540C4AEC4D4809583091A&assignmentId=07e99695-2f3a-40d1-b78b-d642d77a022f&projectId=5e631737-0fa4-44a6-b227-7ba1d7345015","7488063171E540C4AEC4D4809583091A-2025-05-27-18-22-29","[{""page_index"":0,""viewing_time"":15828}]","15828","","","","",""
"true","","","","","fullscreen","3","32892","0.0-3.0","7488063171E540C4AEC4D4809583091A","7488063171E540C4AEC4D4809583091A","07e99695-2f3a-40d1-b78b-d642d77a022f","5e631737-0fa4-44a6-b227-7ba1d7345015","{""num_scrambled_semantic"":""8"",""num_scrambled_causal"":""4"",""num_scrambled_schematic"":""4"",""participantId"":""7488063171E540C4AEC4D4809583091A"",""assignmentId"":""07e99695-2f3a-40d1-b78b-d642d77a022f"",""projectId"":""5e631737-0fa4-44a6-b227-7ba1d7345015""}","https://test12345.live/?num_scrambled_semantic=8&num_scrambled_causal=4&num_scrambled_schematic=4&participantId=7488063171E540C4AEC4D4809583091A&assignmentId=07e99695-2f3a-40d1-b78b-d642d77a022f&projectId=5e631737-0fa4-44a6-b227-7ba1d7345015","7488063171E540C4AEC4D4809583091A-2025-05-27-18-22-29","","1809","","","","",""
"","","","","","initialize-microphone","4","36866","0.0-4.0-0.0","7488063171E540C4AEC4D4809583091A","7488063171E540C4AEC4D4809583091A","07e99695-2f3a-40d1-b78b-d642d77a022f","5e631737-0fa4-44a6-b227-7ba1d7345015","{""num_scrambled_semantic"":""8"",""num_scrambled_causal"":""4"",""num_scrambled_schematic"":""4"",""participantId"":""7488063171E540C4AEC4D4809583091A"",""assignmentId"":""07e99695-2f3a-40d1-b78b-d642d77a022f"",""projectId"":""5e631737-0fa4-44a6-b227-7ba1d7345015""}","https://test12345.live/?num_scrambled_semantic=8&num_scrambled_causal=4&num_scrambled_schematic=4&participantId=7488063171E540C4AEC4D4809583091A&assignmentId=07e99695-2f3a-40d1-b78b-d642d77a022f&projectId=5e631737-0fa4-44a6-b227-7ba1d7345015","7488063171E540C4AEC4D4809583091A-2025-05-27-18-22-29","","","0cf4aec393fed2f74ab221e90a63b3478cfa2bb017ef813fc790078c8db91e11","","","",""
"","","","","","html-audio-response","5","45524","0.0-4.0-1.0","7488063171E540C4AEC4D4809583091A","7488063171E540C4AEC4D4809583091A","07e99695-2f3a-40d1-b78b-d642d77a022f","5e631737-0fa4-44a6-b227-7ba1d7345015","{""num_scrambled_semantic"":""8"",""num_scrambled_causal"":""4"",""num_scrambled_schematic"":""4"",""participantId"":""7488063171E540C4AEC4D4809583091A"",""assignmentId"":""07e99695-2f3a-40d1-b78b-d642d77a022f"",""projectId"":""5e631737-0fa4-44a6-b227-7ba1d7345015""}","https://test12345.live/?num_scrambled_semantic=8&num_scrambled_causal=4&num_scrambled_schematic=4&participantId=7488063171E540C4AEC4D4809583091A&assignmentId=07e99695-2f3a-40d1-b78b-d642d77a022f&projectId=5e631737-0fa4-44a6-b227-7ba1d7345015","7488063171E540C4AEC4D4809583091A-2025-05-27-18-22-29","","3128","","<span style=""color: red; font-size: 24px""> NOW RECORDING</span>
        <p>Please test Microphone</p>","","2",""
"","","","","","html-button-response","6","46549","0.0-4.0-2.0","7488063171E540C4AEC4D4809583091A","7488063171E540C4AEC4D4809583091A","07e99695-2f3a-40d1-b78b-d642d77a022f","5e631737-0fa4-44a6-b227-7ba1d7345015","{""num_scrambled_semantic"":""8"",""num_scrambled_causal"":""4"",""num_scrambled_schematic"":""4"",""participantId"":""7488063171E540C4AEC4D4809583091A"",""assignmentId"":""07e99695-2f3a-40d1-b78b-d642d77a022f"",""projectId"":""5e631737-0fa4-44a6-b227-7ba1d7345015""}","https://test12345.live/?num_scrambled_semantic=8&num_scrambled_causal=4&num_scrambled_schematic=4&participantId=7488063171E540C4AEC4D4809583091A&assignmentId=07e99695-2f3a-40d1-b78b-d642d77a022f&projectId=5e631737-0fa4-44a6-b227-7ba1d7345015","7488063171E540C4AEC4D4809583091A-2025-05-27-18-22-29","","1025","","<p style=""font-size:48px; color:red;"">Is Microphone OK?</p>","1","",""
"","","","","","instructions","7","53043","0.0-5.0","7488063171E540C4AEC4D4809583091A","7488063171E540C4AEC4D4809583091A","07e99695-2f3a-40d1-b78b-d642d77a022f","5e631737-0fa4-44a6-b227-7ba1d7345015","{""num_scrambled_semantic"":""8"",""num_scrambled_causal"":""4"",""num_scrambled_schematic"":""4"",""participantId"":""7488063171E540C4AEC4D4809583091A"",""assignmentId"":""07e99695-2f3a-40d1-b78b-d642d77a022f"",""projectId"":""5e631737-0fa4-44a6-b227-7ba1d7345015""}","https://test12345.live/?num_scrambled_semantic=8&num_scrambled_causal=4&num_scrambled_schematic=4&participantId=7488063171E540C4AEC4D4809583091A&assignmentId=07e99695-2f3a-40d1-b78b-d642d77a022f&projectId=5e631737-0fa4-44a6-b227-7ba1d7345015","7488063171E540C4AEC4D4809583091A-2025-05-27-18-22-29","[{""page_index"":0,""viewing_time"":2863},{""page_index"":1,""viewing_time"":3631}]","6494","","","","",""
"","","","","","image-button-response","8","59059","0.0-6.0-0.0","7488063171E540C4AEC4D4809583091A","7488063171E540C4AEC4D4809583091A","07e99695-2f3a-40d1-b78b-d642d77a022f","5e631737-0fa4-44a6-b227-7ba1d7345015","{""num_scrambled_semantic"":""8"",""num_scrambled_causal"":""4"",""num_scrambled_schematic"":""4"",""participantId"":""7488063171E540C4AEC4D4809583091A"",""assignmentId"":""07e99695-2f3a-40d1-b78b-d642d77a022f"",""projectId"":""5e631737-0fa4-44a6-b227-7ba1d7345015""}","https://test12345.live/?num_scrambled_semantic=8&num_scrambled_causal=4&num_scrambled_schematic=4&participantId=7488063171E540C4AEC4D4809583091A&assignmentId=07e99695-2f3a-40d1-b78b-d642d77a022f&projectId=5e631737-0fa4-44a6-b227-7ba1d7345015","7488063171E540C4AEC4D4809583091A-2025-05-27-18-22-29","","null","","images/instructions/movie_0.png","null","",""
"","","","","","image-button-response","9","63575","0.0-6.0-1.0-0.0","7488063171E540C4AEC4D4809583091A","7488063171E540C4AEC4D4809583091A","07e99695-2f3a-40d1-b78b-d642d77a022f","5e631737-0fa4-44a6-b227-7ba1d7345015","{""num_scrambled_semantic"":""8"",""num_scrambled_causal"":""4"",""num_scrambled_schematic"":""4"",""participantId"":""7488063171E540C4AEC4D4809583091A"",""assignmentId"":""07e99695-2f3a-40d1-b78b-d642d77a022f"",""projectId"":""5e631737-0fa4-44a6-b227-7ba1d7345015""}","https://test12345.live/?num_scrambled_semantic=8&num_scrambled_causal=4&num_scrambled_schematic=4&participantId=7488063171E540C4AEC4D4809583091A&assignmentId=07e99695-2f3a-40d1-b78b-d642d77a022f&projectId=5e631737-0fa4-44a6-b227-7ba1d7345015","7488063171E540C4AEC4D4809583091A-2025-05-27-18-22-29","","null","","images/instructions/movie_1.png","null","",""
"","","","","","image-button-response","10","65251","0.0-6.0-1.0-1.0","7488063171E540C4AEC4D4809583091A","7488063171E540C4AEC4D4809583091A","07e99695-2f3a-40d1-b78b-d642d77a022f","5e631737-0fa4-44a6-b227-7ba1d7345015","{""num_scrambled_semantic"":""8"",""num_scrambled_causal"":""4"",""num_scrambled_schematic"":""4"",""participantId"":""7488063171E540C4AEC4D4809583091A"",""assignmentId"":""07e99695-2f3a-40d1-b78b-d642d77a022f"",""projectId"":""5e631737-0fa4-44a6-b227-7ba1d7345015""}","https://test12345.live/?num_scrambled_semantic=8&num_scrambled_causal=4&num_scrambled_schematic=4&participantId=7488063171E540C4AEC4D4809583091A&assignmentId=07e99695-2f3a-40d1-b78b-d642d77a022f&projectId=5e631737-0fa4-44a6-b227-7ba1d7345015","7488063171E540C4AEC4D4809583091A-2025-05-27-18-22-29","","1675","","images/instructions/movie_1.png","0","",""
"","","","","","image-button-response","11","67061","0.0-6.0-1.0-2.0","7488063171E540C4AEC4D4809583091A","7488063171E540C4AEC4D4809583091A","07e99695-2f3a-40d1-b78b-d642d77a022f","5e631737-0fa4-44a6-b227-7ba1d7345015","{""num_scrambled_semantic"":""8"",""num_scrambled_causal"":""4"",""num_scrambled_schematic"":""4"",""participantId"":""7488063171E540C4AEC4D4809583091A"",""assignmentId"":""07e99695-2f3a-40d1-b78b-d642d77a022f"",""projectId"":""5e631737-0fa4-44a6-b227-7ba1d7345015""}","https://test12345.live/?num_scrambled_semantic=8&num_scrambled_causal=4&num_scrambled_schematic=4&participantId=7488063171E540C4AEC4D4809583091A&assignmentId=07e99695-2f3a-40d1-b78b-d642d77a022f&projectId=5e631737-0fa4-44a6-b227-7ba1d7345015","7488063171E540C4AEC4D4809583091A-2025-05-27-18-22-29","","null","","[]","null","",""
"","","","","","image-button-response","12","71573","0.0-6.0-1.0-0.1","7488063171E540C4AEC4D4809583091A","7488063171E540C4AEC4D4809583091A","07e99695-2f3a-40d1-b78b-d642d77a022f","5e631737-0fa4-44a6-b227-7ba1d7345015","{""num_scrambled_semantic"":""8"",""num_scrambled_causal"":""4"",""num_scrambled_schematic"":""4"",""participantId"":""7488063171E540C4AEC4D4809583091A"",""assignmentId"":""07e99695-2f3a-40d1-b78b-d642d77a022f"",""projectId"":""5e631737-0fa4-44a6-b227-7ba1d7345015""}","https://test12345.live/?num_scrambled_semantic=8&num_scrambled_causal=4&num_scrambled_schematic=4&participantId=7488063171E540C4AEC4D4809583091A&assignmentId=07e99695-2f3a-40d1-b78b-d642d77a022f&projectId=5e631737-0fa4-44a6-b227-7ba1d7345015","7488063171E540C4AEC4D4809583091A-2025-05-27-18-22-29","","null","","images/instructions/movie_2.png","null","",""
"","","","","","image-button-response","13","74173","0.0-6.0-1.0-1.1","7488063171E540C4AEC4D4809583091A","7488063171E540C4AEC4D4809583091A","07e99695-2f3a-40d1-b78b-d642d77a022f","5e631737-0fa4-44a6-b227-7ba1d7345015","{""num_scrambled_semantic"":""8"",""num_scrambled_causal"":""4"",""num_scrambled_schematic"":""4"",""participantId"":""7488063171E540C4AEC4D4809583091A"",""assignmentId"":""07e99695-2f3a-40d1-b78b-d642d77a022f"",""projectId"":""5e631737-0fa4-44a6-b227-7ba1d7345015""}","https://test12345.live/?num_scrambled_semantic=8&num_scrambled_causal=4&num_scrambled_schematic=4&participantId=7488063171E540C4AEC4D4809583091A&assignmentId=07e99695-2f3a-40d1-b78b-d642d77a022f&projectId=5e631737-0fa4-44a6-b227-7ba1d7345015","7488063171E540C4AEC4D4809583091A-2025-05-27-18-22-29","","2600","","images/instructions/movie_2.png","0","",""
"","","","","","image-button-response","14","75981","0.0-6.0-1.0-2.1","7488063171E540C4AEC4D4809583091A","7488063171E540C4AEC4D4809583091A","07e99695-2f3a-40d1-b78b-d642d77a022f","5e631737-0fa4-44a6-b227-7ba1d7345015","{""num_scrambled_semantic"":""8"",""num_scrambled_causal"":""4"",""num_scrambled_schematic"":""4"",""participantId"":""7488063171E540C4AEC4D4809583091A"",""assignmentId"":""07e99695-2f3a-40d1-b78b-d642d77a022f"",""projectId"":""5e631737-0fa4-44a6-b227-7ba1d7345015""}","https://test12345.live/?num_scrambled_semantic=8&num_scrambled_causal=4&num_scrambled_schematic=4&participantId=7488063171E540C4AEC4D4809583091A&assignmentId=07e99695-2f3a-40d1-b78b-d642d77a022f&projectId=5e631737-0fa4-44a6-b227-7ba1d7345015","7488063171E540C4AEC4D4809583091A-2025-05-27-18-22-29","","null","","[]","null","",""
"","","","","","image-button-response","15","80494","0.0-6.0-1.0-0.2","7488063171E540C4AEC4D4809583091A","7488063171E540C4AEC4D4809583091A","07e99695-2f3a-40d1-b78b-d642d77a022f","5e631737-0fa4-44a6-b227-7ba1d7345015","{""num_scrambled_semantic"":""8"",""num_scrambled_causal"":""4"",""num_scrambled_schematic"":""4"",""participantId"":""7488063171E540C4AEC4D4809583091A"",""assignmentId"":""07e99695-2f3a-40d1-b78b-d642d77a022f"",""projectId"":""5e631737-0fa4-44a6-b227-7ba1d7345015""}","https://test12345.live/?num_scrambled_semantic=8&num_scrambled_causal=4&num_scrambled_schematic=4&participantId=7488063171E540C4AEC4D4809583091A&assignmentId=07e99695-2f3a-40d1-b78b-d642d77a022f&projectId=5e631737-0fa4-44a6-b227-7ba1d7345015","7488063171E540C4AEC4D4809583091A-2025-05-27-18-22-29","","null","","images/instructions/movie_3.png","null","",""
"","","","","","image-button-response","16","81149","0.0-6.0-1.0-1.2","7488063171E540C4AEC4D4809583091A","7488063171E540C4AEC4D4809583091A","07e99695-2f3a-40d1-b78b-d642d77a022f","5e631737-0fa4-44a6-b227-7ba1d7345015","{""num_scrambled_semantic"":""8"",""num_scrambled_causal"":""4"",""num_scrambled_schematic"":""4"",""participantId"":""7488063171E540C4AEC4D4809583091A"",""assignmentId"":""07e99695-2f3a-40d1-b78b-d642d77a022f"",""projectId"":""5e631737-0fa4-44a6-b227-7ba1d7345015""}","https://test12345.live/?num_scrambled_semantic=8&num_scrambled_causal=4&num_scrambled_schematic=4&participantId=7488063171E540C4AEC4D4809583091A&assignmentId=07e99695-2f3a-40d1-b78b-d642d77a022f&projectId=5e631737-0fa4-44a6-b227-7ba1d7345015","7488063171E540C4AEC4D4809583091A-2025-05-27-18-22-29","","655","","images/instructions/movie_3.png","0","",""
"","","","","","image-button-response","17","82962","0.0-6.0-1.0-2.2","7488063171E540C4AEC4D4809583091A","7488063171E540C4AEC4D4809583091A","07e99695-2f3a-40d1-b78b-d642d77a022f","5e631737-0fa4-44a6-b227-7ba1d7345015","{""num_scrambled_semantic"":""8"",""num_scrambled_causal"":""4"",""num_scrambled_schematic"":""4"",""participantId"":""7488063171E540C4AEC4D4809583091A"",""assignmentId"":""07e99695-2f3a-40d1-b78b-d642d77a022f"",""projectId"":""5e631737-0fa4-44a6-b227-7ba1d7345015""}","https://test12345.live/?num_scrambled_semantic=8&num_scrambled_causal=4&num_scrambled_schematic=4&participantId=7488063171E540C4AEC4D4809583091A&assignmentId=07e99695-2f3a-40d1-b78b-d642d77a022f&projectId=5e631737-0fa4-44a6-b227-7ba1d7345015","7488063171E540C4AEC4D4809583091A-2025-05-27-18-22-29","","null","","[]","null","",""
"","","","","","image-button-response","18","87464","0.0-6.0-1.0-0.3","7488063171E540C4AEC4D4809583091A","7488063171E540C4AEC4D4809583091A","07e99695-2f3a-40d1-b78b-d642d77a022f","5e631737-0fa4-44a6-b227-7ba1d7345015","{""num_scrambled_semantic"":""8"",""num_scrambled_causal"":""4"",""num_scrambled_schematic"":""4"",""participantId"":""7488063171E540C4AEC4D4809583091A"",""assignmentId"":""07e99695-2f3a-40d1-b78b-d642d77a022f"",""projectId"":""5e631737-0fa4-44a6-b227-7ba1d7345015""}","https://test12345.live/?num_scrambled_semantic=8&num_scrambled_causal=4&num_scrambled_schematic=4&participantId=7488063171E540C4AEC4D4809583091A&assignmentId=07e99695-2f3a-40d1-b78b-d642d77a022f&projectId=5e631737-0fa4-44a6-b227-7ba1d7345015","7488063171E540C4AEC4D4809583091A-2025-05-27-18-22-29","","null","","images/instructions/movie_4.png","null","",""
"","","","","","image-button-response","19","88424","0.0-6.0-1.0-1.3","7488063171E540C4AEC4D4809583091A","7488063171E540C4AEC4D4809583091A","07e99695-2f3a-40d1-b78b-d642d77a022f","5e631737-0fa4-44a6-b227-7ba1d7345015","{""num_scrambled_semantic"":""8"",""num_scrambled_causal"":""4"",""num_scrambled_schematic"":""4"",""participantId"":""7488063171E540C4AEC4D4809583091A"",""assignmentId"":""07e99695-2f3a-40d1-b78b-d642d77a022f"",""projectId"":""5e631737-0fa4-44a6-b227-7ba1d7345015""}","https://test12345.live/?num_scrambled_semantic=8&num_scrambled_causal=4&num_scrambled_schematic=4&participantId=7488063171E540C4AEC4D4809583091A&assignmentId=07e99695-2f3a-40d1-b78b-d642d77a022f&projectId=5e631737-0fa4-44a6-b227-7ba1d7345015","7488063171E540C4AEC4D4809583091A-2025-05-27-18-22-29","","959","","images/instructions/movie_4.png","0","",""
"","","","","","image-button-response","20","90239","0.0-6.0-1.0-2.3","7488063171E540C4AEC4D4809583091A","7488063171E540C4AEC4D4809583091A","07e99695-2f3a-40d1-b78b-d642d77a022f","5e631737-0fa4-44a6-b227-7ba1d7345015","{""num_scrambled_semantic"":""8"",""num_scrambled_causal"":""4"",""num_scrambled_schematic"":""4"",""participantId"":""7488063171E540C4AEC4D4809583091A"",""assignmentId"":""07e99695-2f3a-40d1-b78b-d642d77a022f"",""projectId"":""5e631737-0fa4-44a6-b227-7ba1d7345015""}","https://test12345.live/?num_scrambled_semantic=8&num_scrambled_causal=4&num_scrambled_schematic=4&participantId=7488063171E540C4AEC4D4809583091A&assignmentId=07e99695-2f3a-40d1-b78b-d642d77a022f&projectId=5e631737-0fa4-44a6-b227-7ba1d7345015","7488063171E540C4AEC4D4809583091A-2025-05-27-18-22-29","","null","","[]","null","",""
"","","","","","instructions","21","105677","0.0-7.0","7488063171E540C4AEC4D4809583091A","7488063171E540C4AEC4D4809583091A","07e99695-2f3a-40d1-b78b-d642d77a022f","5e631737-0fa4-44a6-b227-7ba1d7345015","{""num_scrambled_semantic"":""8"",""num_scrambled_causal"":""4"",""num_scrambled_schematic"":""4"",""participantId"":""7488063171E540C4AEC4D4809583091A"",""assignmentId"":""07e99695-2f3a-40d1-b78b-d642d77a022f"",""projectId"":""5e631737-0fa4-44a6-b227-7ba1d7345015""}","https://test12345.live/?num_scrambled_semantic=8&num_scrambled_causal=4&num_scrambled_schematic=4&participantId=7488063171E540C4AEC4D4809583091A&assignmentId=07e99695-2f3a-40d1-b78b-d642d77a022f&projectId=5e631737-0fa4-44a6-b227-7ba1d7345015","7488063171E540C4AEC4D4809583091A-2025-05-27-18-22-29","[{""page_index"":0,""viewing_time"":14346},{""page_index"":1,""viewing_time"":1092}]","15438","","","","",""
"","","","","","html-audio-response","22","133386","0.0-8.0","7488063171E540C4AEC4D4809583091A","7488063171E540C4AEC4D4809583091A","07e99695-2f3a-40d1-b78b-d642d77a022f","5e631737-0fa4-44a6-b227-7ba1d7345015","{""num_scrambled_semantic"":""8"",""num_scrambled_causal"":""4"",""num_scrambled_schematic"":""4"",""participantId"":""7488063171E540C4AEC4D4809583091A"",""assignmentId"":""07e99695-2f3a-40d1-b78b-d642d77a022f"",""projectId"":""5e631737-0fa4-44a6-b227-7ba1d7345015""}","https://test12345.live/?num_scrambled_semantic=8&num_scrambled_causal=4&num_scrambled_schematic=4&participantId=7488063171E540C4AEC4D4809583091A&assignmentId=07e99695-2f3a-40d1-b78b-d642d77a022f&projectId=5e631737-0fa4-44a6-b227-7ba1d7345015","7488063171E540C4AEC4D4809583091A-2025-05-27-18-22-29","","12081","","[""<span style=\""color: red; font-size: 24px\""> NOW RECORDING</span><p>Please say out loud all the images you saw in the exact order you saw them. Try to recall as many images as you can, but remember: getting the order right is more important than the number of images you recall.</p>""]","","4",""
"","","","","","instructions","23","134906","0.0-9.0","7488063171E540C4AEC4D4809583091A","7488063171E540C4AEC4D4809583091A","07e99695-2f3a-40d1-b78b-d642d77a022f","5e631737-0fa4-44a6-b227-7ba1d7345015","{""num_scrambled_semantic"":""8"",""num_scrambled_causal"":""4"",""num_scrambled_schematic"":""4"",""participantId"":""7488063171E540C4AEC4D4809583091A"",""assignmentId"":""07e99695-2f3a-40d1-b78b-d642d77a022f"",""projectId"":""5e631737-0fa4-44a6-b227-7ba1d7345015""}","https://test12345.live/?num_scrambled_semantic=8&num_scrambled_causal=4&num_scrambled_schematic=4&participantId=7488063171E540C4AEC4D4809583091A&assignmentId=07e99695-2f3a-40d1-b78b-d642d77a022f&projectId=5e631737-0fa4-44a6-b227-7ba1d7345015","7488063171E540C4AEC4D4809583091A-2025-05-27-18-22-29","[{""page_index"":0,""viewing_time"":1518}]","1518","","","","",""
"","","","","","image-button-response","24","140921","0.0-10.0-0.0","7488063171E540C4AEC4D4809583091A","7488063171E540C4AEC4D4809583091A","07e99695-2f3a-40d1-b78b-d642d77a022f","5e631737-0fa4-44a6-b227-7ba1d7345015","{""num_scrambled_semantic"":""8"",""num_scrambled_causal"":""4"",""num_scrambled_schematic"":""4"",""participantId"":""7488063171E540C4AEC4D4809583091A"",""assignmentId"":""07e99695-2f3a-40d1-b78b-d642d77a022f"",""projectId"":""5e631737-0fa4-44a6-b227-7ba1d7345015""}","https://test12345.live/?num_scrambled_semantic=8&num_scrambled_causal=4&num_scrambled_schematic=4&participantId=7488063171E540C4AEC4D4809583091A&assignmentId=07e99695-2f3a-40d1-b78b-d642d77a022f&projectId=5e631737-0fa4-44a6-b227-7ba1d7345015","7488063171E540C4AEC4D4809583091A-2025-05-27-18-22-29","","null","","images/schematic_sequence/dinner_party_scheme/dinner_party_scheme_0.png","null","",""
"","","","","","image-button-response","25","145431","0.0-10.0-1.0-0.0","7488063171E540C4AEC4D4809583091A","7488063171E540C4AEC4D4809583091A","07e99695-2f3a-40d1-b78b-d642d77a022f","5e631737-0fa4-44a6-b227-7ba1d7345015","{""num_scrambled_semantic"":""8"",""num_scrambled_causal"":""4"",""num_scrambled_schematic"":""4"",""participantId"":""7488063171E540C4AEC4D4809583091A"",""assignmentId"":""07e99695-2f3a-40d1-b78b-d642d77a022f"",""projectId"":""5e631737-0fa4-44a6-b227-7ba1d7345015""}","https://test12345.live/?num_scrambled_semantic=8&num_scrambled_causal=4&num_scrambled_schematic=4&participantId=7488063171E540C4AEC4D4809583091A&assignmentId=07e99695-2f3a-40d1-b78b-d642d77a022f&projectId=5e631737-0fa4-44a6-b227-7ba1d7345015","7488063171E540C4AEC4D4809583091A-2025-05-27-18-22-29","","null","","images/schematic_sequence/dinner_party_scheme/dinner_party_scheme_ten.png","null","",""
"","","","","","image-button-response","26","147959","0.0-10.0-1.0-1.0","7488063171E540C4AEC4D4809583091A","7488063171E540C4AEC4D4809583091A","07e99695-2f3a-40d1-b78b-d642d77a022f","5e631737-0fa4-44a6-b227-7ba1d7345015","{""num_scrambled_semantic"":""8"",""num_scrambled_causal"":""4"",""num_scrambled_schematic"":""4"",""participantId"":""7488063171E540C4AEC4D4809583091A"",""assignmentId"":""07e99695-2f3a-40d1-b78b-d642d77a022f"",""projectId"":""5e631737-0fa4-44a6-b227-7ba1d7345015""}","https://test12345.live/?num_scrambled_semantic=8&num_scrambled_causal=4&num_scrambled_schematic=4&participantId=7488063171E540C4AEC4D4809583091A&assignmentId=07e99695-2f3a-40d1-b78b-d642d77a022f&projectId=5e631737-0fa4-44a6-b227-7ba1d7345015","7488063171E540C4AEC4D4809583091A-2025-05-27-18-22-29","","2528","","images/schematic_sequence/dinner_party_scheme/dinner_party_scheme_ten.png","0","",""
"","","","","","image-button-response","27","149772","0.0-10.0-1.0-2.0","7488063171E540C4AEC4D4809583091A","7488063171E540C4AEC4D4809583091A","07e99695-2f3a-40d1-b78b-d642d77a022f","5e631737-0fa4-44a6-b227-7ba1d7345015","{""num_scrambled_semantic"":""8"",""num_scrambled_causal"":""4"",""num_scrambled_schematic"":""4"",""participantId"":""7488063171E540C4AEC4D4809583091A"",""assignmentId"":""07e99695-2f3a-40d1-b78b-d642d77a022f"",""projectId"":""5e631737-0fa4-44a6-b227-7ba1d7345015""}","https://test12345.live/?num_scrambled_semantic=8&num_scrambled_causal=4&num_scrambled_schematic=4&participantId=7488063171E540C4AEC4D4809583091A&assignmentId=07e99695-2f3a-40d1-b78b-d642d77a022f&projectId=5e631737-0fa4-44a6-b227-7ba1d7345015","7488063171E540C4AEC4D4809583091A-2025-05-27-18-22-29","","null","","[]","null","",""
"","","","","","image-button-response","28","154282","0.0-10.0-1.0-0.1","7488063171E540C4AEC4D4809583091A","7488063171E540C4AEC4D4809583091A","07e99695-2f3a-40d1-b78b-d642d77a022f","5e631737-0fa4-44a6-b227-7ba1d7345015","{""num_scrambled_semantic"":""8"",""num_scrambled_causal"":""4"",""num_scrambled_schematic"":""4"",""participantId"":""7488063171E540C4AEC4D4809583091A"",""assignmentId"":""07e99695-2f3a-40d1-b78b-d642d77a022f"",""projectId"":""5e631737-0fa4-44a6-b227-7ba1d7345015""}","https://test12345.live/?num_scrambled_semantic=8&num_scrambled_causal=4&num_scrambled_schematic=4&participantId=7488063171E540C4AEC4D4809583091A&assignmentId=07e99695-2f3a-40d1-b78b-d642d77a022f&projectId=5e631737-0fa4-44a6-b227-7ba1d7345015","7488063171E540C4AEC4D4809583091A-2025-05-27-18-22-29","","null","","images/schematic_sequence/dinner_party_scheme/dinner_party_scheme_4.png","null","",""
"","","","","","image-button-response","29","158286","0.0-10.0-1.0-1.1","7488063171E540C4AEC4D4809583091A","7488063171E540C4AEC4D4809583091A","07e99695-2f3a-40d1-b78b-d642d77a022f","5e631737-0fa4-44a6-b227-7ba1d7345015","{""num_scrambled_semantic"":""8"",""num_scrambled_causal"":""4"",""num_scrambled_schematic"":""4"",""participantId"":""7488063171E540C4AEC4D4809583091A"",""assignmentId"":""07e99695-2f3a-40d1-b78b-d642d77a022f"",""projectId"":""5e631737-0fa4-44a6-b227-7ba1d7345015""}","https://test12345.live/?num_scrambled_semantic=8&num_scrambled_causal=4&num_scrambled_schematic=4&participantId=7488063171E540C4AEC4D4809583091A&assignmentId=07e99695-2f3a-40d1-b78b-d642d77a022f&projectId=5e631737-0fa4-44a6-b227-7ba1d7345015","7488063171E540C4AEC4D4809583091A-2025-05-27-18-22-29","","null","","images/schematic_sequence/dinner_party_scheme/dinner_party_scheme_4.png","null","",""
"","","","","","image-button-response","30","160090","0.0-10.0-1.0-2.1","7488063171E540C4AEC4D4809583091A","7488063171E540C4AEC4D4809583091A","07e99695-2f3a-40d1-b78b-d642d77a022f","5e631737-0fa4-44a6-b227-7ba1d7345015","{""num_scrambled_semantic"":""8"",""num_scrambled_causal"":""4"",""num_scrambled_schematic"":""4"",""participantId"":""7488063171E540C4AEC4D4809583091A"",""assignmentId"":""07e99695-2f3a-40d1-b78b-d642d77a022f"",""projectId"":""5e631737-0fa4-44a6-b227-7ba1d7345015""}","https://test12345.live/?num_scrambled_semantic=8&num_scrambled_causal=4&num_scrambled_schematic=4&participantId=7488063171E540C4AEC4D4809583091A&assignmentId=07e99695-2f3a-40d1-b78b-d642d77a022f&projectId=5e631737-0fa4-44a6-b227-7ba1d7345015","7488063171E540C4AEC4D4809583091A-2025-05-27-18-22-29","","null","","[]","null","",""
"","","","","","image-button-response","31","164607","0.0-10.0-1.0-0.2","7488063171E540C4AEC4D4809583091A","7488063171E540C4AEC4D4809583091A","07e99695-2f3a-40d1-b78b-d642d77a022f","5e631737-0fa4-44a6-b227-7ba1d7345015","{""num_scrambled_semantic"":""8"",""num_scrambled_causal"":""4"",""num_scrambled_schematic"":""4"",""participantId"":""7488063171E540C4AEC4D4809583091A"",""assignmentId"":""07e99695-2f3a-40d1-b78b-d642d77a022f"",""projectId"":""5e631737-0fa4-44a6-b227-7ba1d7345015""}","https://test12345.live/?num_scrambled_semantic=8&num_scrambled_causal=4&num_scrambled_schematic=4&participantId=7488063171E540C4AEC4D4809583091A&assignmentId=07e99695-2f3a-40d1-b78b-d642d77a022f&projectId=5e631737-0fa4-44a6-b227-7ba1d7345015","7488063171E540C4AEC4D4809583091A-2025-05-27-18-22-29","","null","","images/schematic_sequence/dinner_party_scheme/dinner_party_scheme_2.png","null","",""
"","","","","","image-button-response","32","167245","0.0-10.0-1.0-1.2","7488063171E540C4AEC4D4809583091A","7488063171E540C4AEC4D4809583091A","07e99695-2f3a-40d1-b78b-d642d77a022f","5e631737-0fa4-44a6-b227-7ba1d7345015","{""num_scrambled_semantic"":""8"",""num_scrambled_causal"":""4"",""num_scrambled_schematic"":""4"",""participantId"":""7488063171E540C4AEC4D4809583091A"",""assignmentId"":""07e99695-2f3a-40d1-b78b-d642d77a022f"",""projectId"":""5e631737-0fa4-44a6-b227-7ba1d7345015""}","https://test12345.live/?num_scrambled_semantic=8&num_scrambled_causal=4&num_scrambled_schematic=4&participantId=7488063171E540C4AEC4D4809583091A&assignmentId=07e99695-2f3a-40d1-b78b-d642d77a022f&projectId=5e631737-0fa4-44a6-b227-7ba1d7345015","7488063171E540C4AEC4D4809583091A-2025-05-27-18-22-29","","2638","","images/schematic_sequence/dinner_party_scheme/dinner_party_scheme_2.png","0","",""
"","","","","","image-button-response","33","169058","0.0-10.0-1.0-2.2","7488063171E540C4AEC4D4809583091A","7488063171E540C4AEC4D4809583091A","07e99695-2f3a-40d1-b78b-d642d77a022f","5e631737-0fa4-44a6-b227-7ba1d7345015","{""num_scrambled_semantic"":""8"",""num_scrambled_causal"":""4"",""num_scrambled_schematic"":""4"",""participantId"":""7488063171E540C4AEC4D4809583091A"",""assignmentId"":""07e99695-2f3a-40d1-b78b-d642d77a022f"",""projectId"":""5e631737-0fa4-44a6-b227-7ba1d7345015""}","https://test12345.live/?num_scrambled_semantic=8&num_scrambled_causal=4&num_scrambled_schematic=4&participantId=7488063171E540C4AEC4D4809583091A&assignmentId=07e99695-2f3a-40d1-b78b-d642d77a022f&projectId=5e631737-0fa4-44a6-b227-7ba1d7345015","7488063171E540C4AEC4D4809583091A-2025-05-27-18-22-29","","null","","[]","null","",""
"","","","","","image-button-response","34","173561","0.0-10.0-1.0-0.3","7488063171E540C4AEC4D4809583091A","7488063171E540C4AEC4D4809583091A","07e99695-2f3a-40d1-b78b-d642d77a022f","5e631737-0fa4-44a6-b227-7ba1d7345015","{""num_scrambled_semantic"":""8"",""num_scrambled_causal"":""4"",""num_scrambled_schematic"":""4"",""participantId"":""7488063171E540C4AEC4D4809583091A"",""assignmentId"":""07e99695-2f3a-40d1-b78b-d642d77a022f"",""projectId"":""5e631737-0fa4-44a6-b227-7ba1d7345015""}","https://test12345.live/?num_scrambled_semantic=8&num_scrambled_causal=4&num_scrambled_schematic=4&participantId=7488063171E540C4AEC4D4809583091A&assignmentId=07e99695-2f3a-40d1-b78b-d642d77a022f&projectId=5e631737-0fa4-44a6-b227-7ba1d7345015","7488063171E540C4AEC4D4809583091A-2025-05-27-18-22-29","","null","","images/schematic_sequence/dinner_party_scheme/dinner_party_scheme_7.png","null","",""
"","","","","","image-button-response","35","174951","0.0-10.0-1.0-1.3","7488063171E540C4AEC4D4809583091A","7488063171E540C4AEC4D4809583091A","07e99695-2f3a-40d1-b78b-d642d77a022f","5e631737-0fa4-44a6-b227-7ba1d7345015","{""num_scrambled_semantic"":""8"",""num_scrambled_causal"":""4"",""num_scrambled_schematic"":""4"",""participantId"":""7488063171E540C4AEC4D4809583091A"",""assignmentId"":""07e99695-2f3a-40d1-b78b-d642d77a022f"",""projectId"":""5e631737-0fa4-44a6-b227-7ba1d7345015""}","https://test12345.live/?num_scrambled_semantic=8&num_scrambled_causal=4&num_scrambled_schematic=4&participantId=7488063171E540C4AEC4D4809583091A&assignmentId=07e99695-2f3a-40d1-b78b-d642d77a022f&projectId=5e631737-0fa4-44a6-b227-7ba1d7345015","7488063171E540C4AEC4D4809583091A-2025-05-27-18-22-29","","1390","","images/schematic_sequence/dinner_party_scheme/dinner_party_scheme_7.png","0","",""
"","","","","","image-button-response","36","176753","0.0-10.0-1.0-2.3","7488063171E540C4AEC4D4809583091A","7488063171E540C4AEC4D4809583091A","07e99695-2f3a-40d1-b78b-d642d77a022f","5e631737-0fa4-44a6-b227-7ba1d7345015","{""num_scrambled_semantic"":""8"",""num_scrambled_causal"":""4"",""num_scrambled_schematic"":""4"",""participantId"":""7488063171E540C4AEC4D4809583091A"",""assignmentId"":""07e99695-2f3a-40d1-b78b-d642d77a022f"",""projectId"":""5e631737-0fa4-44a6-b227-7ba1d7345015""}","https://test12345.live/?num_scrambled_semantic=8&num_scrambled_causal=4&num_scrambled_schematic=4&participantId=7488063171E540C4AEC4D4809583091A&assignmentId=07e99695-2f3a-40d1-b78b-d642d77a022f&projectId=5e631737-0fa4-44a6-b227-7ba1d7345015","7488063171E540C4AEC4D4809583091A-2025-05-27-18-22-29","","null","","[]","null","",""
"","","","","","image-button-response","37","181257","0.0-10.0-1.0-0.4","7488063171E540C4AEC4D4809583091A","7488063171E540C4AEC4D4809583091A","07e99695-2f3a-40d1-b78b-d642d77a022f","5e631737-0fa4-44a6-b227-7ba1d7345015","{""num_scrambled_semantic"":""8"",""num_scrambled_causal"":""4"",""num_scrambled_schematic"":""4"",""participantId"":""7488063171E540C4AEC4D4809583091A"",""assignmentId"":""07e99695-2f3a-40d1-b78b-d642d77a022f"",""projectId"":""5e631737-0fa4-44a6-b227-7ba1d7345015""}","https://test12345.live/?num_scrambled_semantic=8&num_scrambled_causal=4&num_scrambled_schematic=4&participantId=7488063171E540C4AEC4D4809583091A&assignmentId=07e99695-2f3a-40d1-b78b-d642d77a022f&projectId=5e631737-0fa4-44a6-b227-7ba1d7345015","7488063171E540C4AEC4D4809583091A-2025-05-27-18-22-29","","null","","images/schematic_sequence/dinner_party_scheme/dinner_party_scheme_9.png","null","",""
"","","","","","image-button-response","38","183587","0.0-10.0-1.0-1.4","7488063171E540C4AEC4D4809583091A","7488063171E540C4AEC4D4809583091A","07e99695-2f3a-40d1-b78b-d642d77a022f","5e631737-0fa4-44a6-b227-7ba1d7345015","{""num_scrambled_semantic"":""8"",""num_scrambled_causal"":""4"",""num_scrambled_schematic"":""4"",""participantId"":""7488063171E540C4AEC4D4809583091A"",""assignmentId"":""07e99695-2f3a-40d1-b78b-d642d77a022f"",""projectId"":""5e631737-0fa4-44a6-b227-7ba1d7345015""}","https://test12345.live/?num_scrambled_semantic=8&num_scrambled_causal=4&num_scrambled_schematic=4&participantId=7488063171E540C4AEC4D4809583091A&assignmentId=07e99695-2f3a-40d1-b78b-d642d77a022f&projectId=5e631737-0fa4-44a6-b227-7ba1d7345015","7488063171E540C4AEC4D4809583091A-2025-05-27-18-22-29","","2330","","images/schematic_sequence/dinner_party_scheme/dinner_party_scheme_9.png","0","",""
"","","","","","image-button-response","39","185397","0.0-10.0-1.0-2.4","7488063171E540C4AEC4D4809583091A","7488063171E540C4AEC4D4809583091A","07e99695-2f3a-40d1-b78b-d642d77a022f","5e631737-0fa4-44a6-b227-7ba1d7345015","{""num_scrambled_semantic"":""8"",""num_scrambled_causal"":""4"",""num_scrambled_schematic"":""4"",""participantId"":""7488063171E540C4AEC4D4809583091A"",""assignmentId"":""07e99695-2f3a-40d1-b78b-d642d77a022f"",""projectId"":""5e631737-0fa4-44a6-b227-7ba1d7345015""}","https://test12345.live/?num_scrambled_semantic=8&num_scrambled_causal=4&num_scrambled_schematic=4&participantId=7488063171E540C4AEC4D4809583091A&assignmentId=07e99695-2f3a-40d1-b78b-d642d77a022f&projectId=5e631737-0fa4-44a6-b227-7ba1d7345015","7488063171E540C4AEC4D4809583091A-2025-05-27-18-22-29","","null","","[]","null","",""
"","","","","","image-button-response","40","189909","0.0-10.0-1.0-0.5","7488063171E540C4AEC4D4809583091A","7488063171E540C4AEC4D4809583091A","07e99695-2f3a-40d1-b78b-d642d77a022f","5e631737-0fa4-44a6-b227-7ba1d7345015","{""num_scrambled_semantic"":""8"",""num_scrambled_causal"":""4"",""num_scrambled_schematic"":""4"",""participantId"":""7488063171E540C4AEC4D4809583091A"",""assignmentId"":""07e99695-2f3a-40d1-b78b-d642d77a022f"",""projectId"":""5e631737-0fa4-44a6-b227-7ba1d7345015""}","https://test12345.live/?num_scrambled_semantic=8&num_scrambled_causal=4&num_scrambled_schematic=4&participantId=7488063171E540C4AEC4D4809583091A&assignmentId=07e99695-2f3a-40d1-b78b-d642d77a022f&projectId=5e631737-0fa4-44a6-b227-7ba1d7345015","7488063171E540C4AEC4D4809583091A-2025-05-27-18-22-29","","null","","images/schematic_sequence/dinner_party_scheme/dinner_party_scheme_6.png","null","",""
"","","","","","image-button-response","41","190392","0.0-10.0-1.0-1.5","7488063171E540C4AEC4D4809583091A","7488063171E540C4AEC4D4809583091A","07e99695-2f3a-40d1-b78b-d642d77a022f","5e631737-0fa4-44a6-b227-7ba1d7345015","{""num_scrambled_semantic"":""8"",""num_scrambled_causal"":""4"",""num_scrambled_schematic"":""4"",""participantId"":""7488063171E540C4AEC4D4809583091A"",""assignmentId"":""07e99695-2f3a-40d1-b78b-d642d77a022f"",""projectId"":""5e631737-0fa4-44a6-b227-7ba1d7345015""}","https://test12345.live/?num_scrambled_semantic=8&num_scrambled_causal=4&num_scrambled_schematic=4&participantId=7488063171E540C4AEC4D4809583091A&assignmentId=07e99695-2f3a-40d1-b78b-d642d77a022f&projectId=5e631737-0fa4-44a6-b227-7ba1d7345015","7488063171E540C4AEC4D4809583091A-2025-05-27-18-22-29","","483","","images/schematic_sequence/dinner_party_scheme/dinner_party_scheme_6.png","0","",""
"","","","","","image-button-response","42","192201","0.0-10.0-1.0-2.5","7488063171E540C4AEC4D4809583091A","7488063171E540C4AEC4D4809583091A","07e99695-2f3a-40d1-b78b-d642d77a022f","5e631737-0fa4-44a6-b227-7ba1d7345015","{""num_scrambled_semantic"":""8"",""num_scrambled_causal"":""4"",""num_scrambled_schematic"":""4"",""participantId"":""7488063171E540C4AEC4D4809583091A"",""assignmentId"":""07e99695-2f3a-40d1-b78b-d642d77a022f"",""projectId"":""5e631737-0fa4-44a6-b227-7ba1d7345015""}","https://test12345.live/?num_scrambled_semantic=8&num_scrambled_causal=4&num_scrambled_schematic=4&participantId=7488063171E540C4AEC4D4809583091A&assignmentId=07e99695-2f3a-40d1-b78b-d642d77a022f&projectId=5e631737-0fa4-44a6-b227-7ba1d7345015","7488063171E540C4AEC4D4809583091A-2025-05-27-18-22-29","","null","","[]","null","",""
"","","","","","image-button-response","43","196710","0.0-10.0-1.0-0.6","7488063171E540C4AEC4D4809583091A","7488063171E540C4AEC4D4809583091A","07e99695-2f3a-40d1-b78b-d642d77a022f","5e631737-0fa4-44a6-b227-7ba1d7345015","{""num_scrambled_semantic"":""8"",""num_scrambled_causal"":""4"",""num_scrambled_schematic"":""4"",""participantId"":""7488063171E540C4AEC4D4809583091A"",""assignmentId"":""07e99695-2f3a-40d1-b78b-d642d77a022f"",""projectId"":""5e631737-0fa4-44a6-b227-7ba1d7345015""}","https://test12345.live/?num_scrambled_semantic=8&num_scrambled_causal=4&num_scrambled_schematic=4&participantId=7488063171E540C4AEC4D4809583091A&assignmentId=07e99695-2f3a-40d1-b78b-d642d77a022f&projectId=5e631737-0fa4-44a6-b227-7ba1d7345015","7488063171E540C4AEC4D4809583091A-2025-05-27-18-22-29","","null","","images/schematic_sequence/dinner_party_scheme/dinner_party_scheme_3.png","null","",""
"","","","","","image-button-response","44","197196","0.0-10.0-1.0-1.6","7488063171E540C4AEC4D4809583091A","7488063171E540C4AEC4D4809583091A","07e99695-2f3a-40d1-b78b-d642d77a022f","5e631737-0fa4-44a6-b227-7ba1d7345015","{""num_scrambled_semantic"":""8"",""num_scrambled_causal"":""4"",""num_scrambled_schematic"":""4"",""participantId"":""7488063171E540C4AEC4D4809583091A"",""assignmentId"":""07e99695-2f3a-40d1-b78b-d642d77a022f"",""projectId"":""5e631737-0fa4-44a6-b227-7ba1d7345015""}","https://test12345.live/?num_scrambled_semantic=8&num_scrambled_causal=4&num_scrambled_schematic=4&participantId=7488063171E540C4AEC4D4809583091A&assignmentId=07e99695-2f3a-40d1-b78b-d642d77a022f&projectId=5e631737-0fa4-44a6-b227-7ba1d7345015","7488063171E540C4AEC4D4809583091A-2025-05-27-18-22-29","","485","","images/schematic_sequence/dinner_party_scheme/dinner_party_scheme_3.png","0","",""
"","","","","","image-button-response","45","199008","0.0-10.0-1.0-2.6","7488063171E540C4AEC4D4809583091A","7488063171E540C4AEC4D4809583091A","07e99695-2f3a-40d1-b78b-d642d77a022f","5e631737-0fa4-44a6-b227-7ba1d7345015","{""num_scrambled_semantic"":""8"",""num_scrambled_causal"":""4"",""num_scrambled_schematic"":""4"",""participantId"":""7488063171E540C4AEC4D4809583091A"",""assignmentId"":""07e99695-2f3a-40d1-b78b-d642d77a022f"",""projectId"":""5e631737-0fa4-44a6-b227-7ba1d7345015""}","https://test12345.live/?num_scrambled_semantic=8&num_scrambled_causal=4&num_scrambled_schematic=4&participantId=7488063171E540C4AEC4D4809583091A&assignmentId=07e99695-2f3a-40d1-b78b-d642d77a022f&projectId=5e631737-0fa4-44a6-b227-7ba1d7345015","7488063171E540C4AEC4D4809583091A-2025-05-27-18-22-29","","null","","[]","null","",""
"","","","","","image-button-response","46","203516","0.0-10.0-1.0-0.7","7488063171E540C4AEC4D4809583091A","7488063171E540C4AEC4D4809583091A","07e99695-2f3a-40d1-b78b-d642d77a022f","5e631737-0fa4-44a6-b227-7ba1d7345015","{""num_scrambled_semantic"":""8"",""num_scrambled_causal"":""4"",""num_scrambled_schematic"":""4"",""participantId"":""7488063171E540C4AEC4D4809583091A"",""assignmentId"":""07e99695-2f3a-40d1-b78b-d642d77a022f"",""projectId"":""5e631737-0fa4-44a6-b227-7ba1d7345015""}","https://test12345.live/?num_scrambled_semantic=8&num_scrambled_causal=4&num_scrambled_schematic=4&participantId=7488063171E540C4AEC4D4809583091A&assignmentId=07e99695-2f3a-40d1-b78b-d642d77a022f&projectId=5e631737-0fa4-44a6-b227-7ba1d7345015","7488063171E540C4AEC4D4809583091A-2025-05-27-18-22-29","","null","","images/schematic_sequence/dinner_party_scheme/dinner_party_scheme_1.png","null","",""
"","","","","","image-button-response","47","204439","0.0-10.0-1.0-1.7","7488063171E540C4AEC4D4809583091A","7488063171E540C4AEC4D4809583091A","07e99695-2f3a-40d1-b78b-d642d77a022f","5e631737-0fa4-44a6-b227-7ba1d7345015","{""num_scrambled_semantic"":""8"",""num_scrambled_causal"":""4"",""num_scrambled_schematic"":""4"",""participantId"":""7488063171E540C4AEC4D4809583091A"",""assignmentId"":""07e99695-2f3a-40d1-b78b-d642d77a022f"",""projectId"":""5e631737-0fa4-44a6-b227-7ba1d7345015""}","https://test12345.live/?num_scrambled_semantic=8&num_scrambled_causal=4&num_scrambled_schematic=4&participantId=7488063171E540C4AEC4D4809583091A&assignmentId=07e99695-2f3a-40d1-b78b-d642d77a022f&projectId=5e631737-0fa4-44a6-b227-7ba1d7345015","7488063171E540C4AEC4D4809583091A-2025-05-27-18-22-29","","923","","images/schematic_sequence/dinner_party_scheme/dinner_party_scheme_1.png","0","",""
"","","","","","image-button-response","48","206240","0.0-10.0-1.0-2.7","7488063171E540C4AEC4D4809583091A","7488063171E540C4AEC4D4809583091A","07e99695-2f3a-40d1-b78b-d642d77a022f","5e631737-0fa4-44a6-b227-7ba1d7345015","{""num_scrambled_semantic"":""8"",""num_scrambled_causal"":""4"",""num_scrambled_schematic"":""4"",""participantId"":""7488063171E540C4AEC4D4809583091A"",""assignmentId"":""07e99695-2f3a-40d1-b78b-d642d77a022f"",""projectId"":""5e631737-0fa4-44a6-b227-7ba1d7345015""}","https://test12345.live/?num_scrambled_semantic=8&num_scrambled_causal=4&num_scrambled_schematic=4&participantId=7488063171E540C4AEC4D4809583091A&assignmentId=07e99695-2f3a-40d1-b78b-d642d77a022f&projectId=5e631737-0fa4-44a6-b227-7ba1d7345015","7488063171E540C4AEC4D4809583091A-2025-05-27-18-22-29","","null","","[]","null","",""
"","","","","","image-button-response","49","210750","0.0-10.0-1.0-0.8","7488063171E540C4AEC4D4809583091A","7488063171E540C4AEC4D4809583091A","07e99695-2f3a-40d1-b78b-d642d77a022f","5e631737-0fa4-44a6-b227-7ba1d7345015","{""num_scrambled_semantic"":""8"",""num_scrambled_causal"":""4"",""num_scrambled_schematic"":""4"",""participantId"":""7488063171E540C4AEC4D4809583091A"",""assignmentId"":""07e99695-2f3a-40d1-b78b-d642d77a022f"",""projectId"":""5e631737-0fa4-44a6-b227-7ba1d7345015""}","https://test12345.live/?num_scrambled_semantic=8&num_scrambled_causal=4&num_scrambled_schematic=4&participantId=7488063171E540C4AEC4D4809583091A&assignmentId=07e99695-2f3a-40d1-b78b-d642d77a022f&projectId=5e631737-0fa4-44a6-b227-7ba1d7345015","7488063171E540C4AEC4D4809583091A-2025-05-27-18-22-29","","null","","images/schematic_sequence/dinner_party_scheme/dinner_party_scheme_5.png","null","",""
"","","","","","image-button-response","50","211174","0.0-10.0-1.0-1.8","7488063171E540C4AEC4D4809583091A","7488063171E540C4AEC4D4809583091A","07e99695-2f3a-40d1-b78b-d642d77a022f","5e631737-0fa4-44a6-b227-7ba1d7345015","{""num_scrambled_semantic"":""8"",""num_scrambled_causal"":""4"",""num_scrambled_schematic"":""4"",""participantId"":""7488063171E540C4AEC4D4809583091A"",""assignmentId"":""07e99695-2f3a-40d1-b78b-d642d77a022f"",""projectId"":""5e631737-0fa4-44a6-b227-7ba1d7345015""}","https://test12345.live/?num_scrambled_semantic=8&num_scrambled_causal=4&num_scrambled_schematic=4&participantId=7488063171E540C4AEC4D4809583091A&assignmentId=07e99695-2f3a-40d1-b78b-d642d77a022f&projectId=5e631737-0fa4-44a6-b227-7ba1d7345015","7488063171E540C4AEC4D4809583091A-2025-05-27-18-22-29","","423","","images/schematic_sequence/dinner_party_scheme/dinner_party_scheme_5.png","0","",""
"","","","","","image-button-response","51","212988","0.0-10.0-1.0-2.8","7488063171E540C4AEC4D4809583091A","7488063171E540C4AEC4D4809583091A","07e99695-2f3a-40d1-b78b-d642d77a022f","5e631737-0fa4-44a6-b227-7ba1d7345015","{""num_scrambled_semantic"":""8"",""num_scrambled_causal"":""4"",""num_scrambled_schematic"":""4"",""participantId"":""7488063171E540C4AEC4D4809583091A"",""assignmentId"":""07e99695-2f3a-40d1-b78b-d642d77a022f"",""projectId"":""5e631737-0fa4-44a6-b227-7ba1d7345015""}","https://test12345.live/?num_scrambled_semantic=8&num_scrambled_causal=4&num_scrambled_schematic=4&participantId=7488063171E540C4AEC4D4809583091A&assignmentId=07e99695-2f3a-40d1-b78b-d642d77a022f&projectId=5e631737-0fa4-44a6-b227-7ba1d7345015","7488063171E540C4AEC4D4809583091A-2025-05-27-18-22-29","","null","","[]","null","",""
"","","","","","image-button-response","52","217505","0.0-10.0-1.0-0.9","7488063171E540C4AEC4D4809583091A","7488063171E540C4AEC4D4809583091A","07e99695-2f3a-40d1-b78b-d642d77a022f","5e631737-0fa4-44a6-b227-7ba1d7345015","{""num_scrambled_semantic"":""8"",""num_scrambled_causal"":""4"",""num_scrambled_schematic"":""4"",""participantId"":""7488063171E540C4AEC4D4809583091A"",""assignmentId"":""07e99695-2f3a-40d1-b78b-d642d77a022f"",""projectId"":""5e631737-0fa4-44a6-b227-7ba1d7345015""}","https://test12345.live/?num_scrambled_semantic=8&num_scrambled_causal=4&num_scrambled_schematic=4&participantId=7488063171E540C4AEC4D4809583091A&assignmentId=07e99695-2f3a-40d1-b78b-d642d77a022f&projectId=5e631737-0fa4-44a6-b227-7ba1d7345015","7488063171E540C4AEC4D4809583091A-2025-05-27-18-22-29","","null","","images/schematic_sequence/dinner_party_scheme/dinner_party_scheme_8.png","null","",""
"","","","","","image-button-response","53","218247","0.0-10.0-1.0-1.9","7488063171E540C4AEC4D4809583091A","7488063171E540C4AEC4D4809583091A","07e99695-2f3a-40d1-b78b-d642d77a022f","5e631737-0fa4-44a6-b227-7ba1d7345015","{""num_scrambled_semantic"":""8"",""num_scrambled_causal"":""4"",""num_scrambled_schematic"":""4"",""participantId"":""7488063171E540C4AEC4D4809583091A"",""assignmentId"":""07e99695-2f3a-40d1-b78b-d642d77a022f"",""projectId"":""5e631737-0fa4-44a6-b227-7ba1d7345015""}","https://test12345.live/?num_scrambled_semantic=8&num_scrambled_causal=4&num_scrambled_schematic=4&participantId=7488063171E540C4AEC4D4809583091A&assignmentId=07e99695-2f3a-40d1-b78b-d642d77a022f&projectId=5e631737-0fa4-44a6-b227-7ba1d7345015","7488063171E540C4AEC4D4809583091A-2025-05-27-18-22-29","","742","","images/schematic_sequence/dinner_party_scheme/dinner_party_scheme_8.png","0","",""
"","","","","","image-button-response","54","220056","0.0-10.0-1.0-2.9","7488063171E540C4AEC4D4809583091A","7488063171E540C4AEC4D4809583091A","07e99695-2f3a-40d1-b78b-d642d77a022f","5e631737-0fa4-44a6-b227-7ba1d7345015","{""num_scrambled_semantic"":""8"",""num_scrambled_causal"":""4"",""num_scrambled_schematic"":""4"",""participantId"":""7488063171E540C4AEC4D4809583091A"",""assignmentId"":""07e99695-2f3a-40d1-b78b-d642d77a022f"",""projectId"":""5e631737-0fa4-44a6-b227-7ba1d7345015""}","https://test12345.live/?num_scrambled_semantic=8&num_scrambled_causal=4&num_scrambled_schematic=4&participantId=7488063171E540C4AEC4D4809583091A&assignmentId=07e99695-2f3a-40d1-b78b-d642d77a022f&projectId=5e631737-0fa4-44a6-b227-7ba1d7345015","7488063171E540C4AEC4D4809583091A-2025-05-27-18-22-29","","null","","[]","null","",""
"","","","","","html-audio-response","55","243430","0.0-11.0","7488063171E540C4AEC4D4809583091A","7488063171E540C4AEC4D4809583091A","07e99695-2f3a-40d1-b78b-d642d77a022f","5e631737-0fa4-44a6-b227-7ba1d7345015","{""num_scrambled_semantic"":""8"",""num_scrambled_causal"":""4"",""num_scrambled_schematic"":""4"",""participantId"":""7488063171E540C4AEC4D4809583091A"",""assignmentId"":""07e99695-2f3a-40d1-b78b-d642d77a022f"",""projectId"":""5e631737-0fa4-44a6-b227-7ba1d7345015""}","https://test12345.live/?num_scrambled_semantic=8&num_scrambled_causal=4&num_scrambled_schematic=4&participantId=7488063171E540C4AEC4D4809583091A&assignmentId=07e99695-2f3a-40d1-b78b-d642d77a022f&projectId=5e631737-0fa4-44a6-b227-7ba1d7345015","7488063171E540C4AEC4D4809583091A-2025-05-27-18-22-29","","22444","","[""<span style=\""color: red; font-size: 24px\""> NOW RECORDING</span><p>Please say out loud all the images you saw, in the exact order you saw them. Try to recall as many images as you can, but remember: getting the order right is more important than the number of images you recall.</p>""]","","1","dinner_party_scheme"
"","","","","","image-button-response","56","249437","0.0-12.0-0.0","7488063171E540C4AEC4D4809583091A","7488063171E540C4AEC4D4809583091A","07e99695-2f3a-40d1-b78b-d642d77a022f","5e631737-0fa4-44a6-b227-7ba1d7345015","{""num_scrambled_semantic"":""8"",""num_scrambled_causal"":""4"",""num_scrambled_schematic"":""4"",""participantId"":""7488063171E540C4AEC4D4809583091A"",""assignmentId"":""07e99695-2f3a-40d1-b78b-d642d77a022f"",""projectId"":""5e631737-0fa4-44a6-b227-7ba1d7345015""}","https://test12345.live/?num_scrambled_semantic=8&num_scrambled_causal=4&num_scrambled_schematic=4&participantId=7488063171E540C4AEC4D4809583091A&assignmentId=07e99695-2f3a-40d1-b78b-d642d77a022f&projectId=5e631737-0fa4-44a6-b227-7ba1d7345015","7488063171E540C4AEC4D4809583091A-2025-05-27-18-22-29","","null","","images/semantic_sequence/kitchen_operations_semantic/kitchen_operations_semantic_0.png","null","",""
"","","","","","image-button-response","57","253948","0.0-12.0-1.0-0.0","7488063171E540C4AEC4D4809583091A","7488063171E540C4AEC4D4809583091A","07e99695-2f3a-40d1-b78b-d642d77a022f","5e631737-0fa4-44a6-b227-7ba1d7345015","{""num_scrambled_semantic"":""8"",""num_scrambled_causal"":""4"",""num_scrambled_schematic"":""4"",""participantId"":""7488063171E540C4AEC4D4809583091A"",""assignmentId"":""07e99695-2f3a-40d1-b78b-d642d77a022f"",""projectId"":""5e631737-0fa4-44a6-b227-7ba1d7345015""}","https://test12345.live/?num_scrambled_semantic=8&num_scrambled_causal=4&num_scrambled_schematic=4&participantId=7488063171E540C4AEC4D4809583091A&assignmentId=07e99695-2f3a-40d1-b78b-d642d77a022f&projectId=5e631737-0fa4-44a6-b227-7ba1d7345015","7488063171E540C4AEC4D4809583091A-2025-05-27-18-22-29","","null","","images/semantic_sequence/kitchen_operations_semantic/kitchen_operations_semantic_8.png","null","",""
"","","","","","image-button-response","58","257957","0.0-12.0-1.0-1.0","7488063171E540C4AEC4D4809583091A","7488063171E540C4AEC4D4809583091A","07e99695-2f3a-40d1-b78b-d642d77a022f","5e631737-0fa4-44a6-b227-7ba1d7345015","{""num_scrambled_semantic"":""8"",""num_scrambled_causal"":""4"",""num_scrambled_schematic"":""4"",""participantId"":""7488063171E540C4AEC4D4809583091A"",""assignmentId"":""07e99695-2f3a-40d1-b78b-d642d77a022f"",""projectId"":""5e631737-0fa4-44a6-b227-7ba1d7345015""}","https://test12345.live/?num_scrambled_semantic=8&num_scrambled_causal=4&num_scrambled_schematic=4&participantId=7488063171E540C4AEC4D4809583091A&assignmentId=07e99695-2f3a-40d1-b78b-d642d77a022f&projectId=5e631737-0fa4-44a6-b227-7ba1d7345015","7488063171E540C4AEC4D4809583091A-2025-05-27-18-22-29","","null","","images/semantic_sequence/kitchen_operations_semantic/kitchen_operations_semantic_8.png","null","",""
"","","","","","image-button-response","59","259772","0.0-12.0-1.0-2.0","7488063171E540C4AEC4D4809583091A","7488063171E540C4AEC4D4809583091A","07e99695-2f3a-40d1-b78b-d642d77a022f","5e631737-0fa4-44a6-b227-7ba1d7345015","{""num_scrambled_semantic"":""8"",""num_scrambled_causal"":""4"",""num_scrambled_schematic"":""4"",""participantId"":""7488063171E540C4AEC4D4809583091A"",""assignmentId"":""07e99695-2f3a-40d1-b78b-d642d77a022f"",""projectId"":""5e631737-0fa4-44a6-b227-7ba1d7345015""}","https://test12345.live/?num_scrambled_semantic=8&num_scrambled_causal=4&num_scrambled_schematic=4&participantId=7488063171E540C4AEC4D4809583091A&assignmentId=07e99695-2f3a-40d1-b78b-d642d77a022f&projectId=5e631737-0fa4-44a6-b227-7ba1d7345015","7488063171E540C4AEC4D4809583091A-2025-05-27-18-22-29","","null","","[]","null","",""
"","","","","","image-button-response","60","264273","0.0-12.0-1.0-0.1","7488063171E540C4AEC4D4809583091A","7488063171E540C4AEC4D4809583091A","07e99695-2f3a-40d1-b78b-d642d77a022f","5e631737-0fa4-44a6-b227-7ba1d7345015","{""num_scrambled_semantic"":""8"",""num_scrambled_causal"":""4"",""num_scrambled_schematic"":""4"",""participantId"":""7488063171E540C4AEC4D4809583091A"",""assignmentId"":""07e99695-2f3a-40d1-b78b-d642d77a022f"",""projectId"":""5e631737-0fa4-44a6-b227-7ba1d7345015""}","https://test12345.live/?num_scrambled_semantic=8&num_scrambled_causal=4&num_scrambled_schematic=4&participantId=7488063171E540C4AEC4D4809583091A&assignmentId=07e99695-2f3a-40d1-b78b-d642d77a022f&projectId=5e631737-0fa4-44a6-b227-7ba1d7345015","7488063171E540C4AEC4D4809583091A-2025-05-27-18-22-29","","null","","images/semantic_sequence/kitchen_operations_semantic/kitchen_operations_semantic_1.png","null","",""
"","","","","","image-button-response","61","265622","0.0-12.0-1.0-1.1","7488063171E540C4AEC4D4809583091A","7488063171E540C4AEC4D4809583091A","07e99695-2f3a-40d1-b78b-d642d77a022f","5e631737-0fa4-44a6-b227-7ba1d7345015","{""num_scrambled_semantic"":""8"",""num_scrambled_causal"":""4"",""num_scrambled_schematic"":""4"",""participantId"":""7488063171E540C4AEC4D4809583091A"",""assignmentId"":""07e99695-2f3a-40d1-b78b-d642d77a022f"",""projectId"":""5e631737-0fa4-44a6-b227-7ba1d7345015""}","https://test12345.live/?num_scrambled_semantic=8&num_scrambled_causal=4&num_scrambled_schematic=4&participantId=7488063171E540C4AEC4D4809583091A&assignmentId=07e99695-2f3a-40d1-b78b-d642d77a022f&projectId=5e631737-0fa4-44a6-b227-7ba1d7345015","7488063171E540C4AEC4D4809583091A-2025-05-27-18-22-29","","1349","","images/semantic_sequence/kitchen_operations_semantic/kitchen_operations_semantic_1.png","0","",""
"","","","","","image-button-response","62","267429","0.0-12.0-1.0-2.1","7488063171E540C4AEC4D4809583091A","7488063171E540C4AEC4D4809583091A","07e99695-2f3a-40d1-b78b-d642d77a022f","5e631737-0fa4-44a6-b227-7ba1d7345015","{""num_scrambled_semantic"":""8"",""num_scrambled_causal"":""4"",""num_scrambled_schematic"":""4"",""participantId"":""7488063171E540C4AEC4D4809583091A"",""assignmentId"":""07e99695-2f3a-40d1-b78b-d642d77a022f"",""projectId"":""5e631737-0fa4-44a6-b227-7ba1d7345015""}","https://test12345.live/?num_scrambled_semantic=8&num_scrambled_causal=4&num_scrambled_schematic=4&participantId=7488063171E540C4AEC4D4809583091A&assignmentId=07e99695-2f3a-40d1-b78b-d642d77a022f&projectId=5e631737-0fa4-44a6-b227-7ba1d7345015","7488063171E540C4AEC4D4809583091A-2025-05-27-18-22-29","","null","","[]","null","",""
"","","","","","image-button-response","63","271936","0.0-12.0-1.0-0.2","7488063171E540C4AEC4D4809583091A","7488063171E540C4AEC4D4809583091A","07e99695-2f3a-40d1-b78b-d642d77a022f","5e631737-0fa4-44a6-b227-7ba1d7345015","{""num_scrambled_semantic"":""8"",""num_scrambled_causal"":""4"",""num_scrambled_schematic"":""4"",""participantId"":""7488063171E540C4AEC4D4809583091A"",""assignmentId"":""07e99695-2f3a-40d1-b78b-d642d77a022f"",""projectId"":""5e631737-0fa4-44a6-b227-7ba1d7345015""}","https://test12345.live/?num_scrambled_semantic=8&num_scrambled_causal=4&num_scrambled_schematic=4&participantId=7488063171E540C4AEC4D4809583091A&assignmentId=07e99695-2f3a-40d1-b78b-d642d77a022f&projectId=5e631737-0fa4-44a6-b227-7ba1d7345015","7488063171E540C4AEC4D4809583091A-2025-05-27-18-22-29","","null","","images/semantic_sequence/kitchen_operations_semantic/kitchen_operations_semantic_5.png","null","",""
"","","","","","image-button-response","64","272749","0.0-12.0-1.0-1.2","7488063171E540C4AEC4D4809583091A","7488063171E540C4AEC4D4809583091A","07e99695-2f3a-40d1-b78b-d642d77a022f","5e631737-0fa4-44a6-b227-7ba1d7345015","{""num_scrambled_semantic"":""8"",""num_scrambled_causal"":""4"",""num_scrambled_schematic"":""4"",""participantId"":""7488063171E540C4AEC4D4809583091A"",""assignmentId"":""07e99695-2f3a-40d1-b78b-d642d77a022f"",""projectId"":""5e631737-0fa4-44a6-b227-7ba1d7345015""}","https://test12345.live/?num_scrambled_semantic=8&num_scrambled_causal=4&num_scrambled_schematic=4&participantId=7488063171E540C4AEC4D4809583091A&assignmentId=07e99695-2f3a-40d1-b78b-d642d77a022f&projectId=5e631737-0fa4-44a6-b227-7ba1d7345015","7488063171E540C4AEC4D4809583091A-2025-05-27-18-22-29","","813","","images/semantic_sequence/kitchen_operations_semantic/kitchen_operations_semantic_5.png","0","",""
"","","","","","image-button-response","65","274559","0.0-12.0-1.0-2.2","7488063171E540C4AEC4D4809583091A","7488063171E540C4AEC4D4809583091A","07e99695-2f3a-40d1-b78b-d642d77a022f","5e631737-0fa4-44a6-b227-7ba1d7345015","{""num_scrambled_semantic"":""8"",""num_scrambled_causal"":""4"",""num_scrambled_schematic"":""4"",""participantId"":""7488063171E540C4AEC4D4809583091A"",""assignmentId"":""07e99695-2f3a-40d1-b78b-d642d77a022f"",""projectId"":""5e631737-0fa4-44a6-b227-7ba1d7345015""}","https://test12345.live/?num_scrambled_semantic=8&num_scrambled_causal=4&num_scrambled_schematic=4&participantId=7488063171E540C4AEC4D4809583091A&assignmentId=07e99695-2f3a-40d1-b78b-d642d77a022f&projectId=5e631737-0fa4-44a6-b227-7ba1d7345015","7488063171E540C4AEC4D4809583091A-2025-05-27-18-22-29","","null","","[]","null","",""
"","","","","","image-button-response","66","279064","0.0-12.0-1.0-0.3","7488063171E540C4AEC4D4809583091A","7488063171E540C4AEC4D4809583091A","07e99695-2f3a-40d1-b78b-d642d77a022f","5e631737-0fa4-44a6-b227-7ba1d7345015","{""num_scrambled_semantic"":""8"",""num_scrambled_causal"":""4"",""num_scrambled_schematic"":""4"",""participantId"":""7488063171E540C4AEC4D4809583091A"",""assignmentId"":""07e99695-2f3a-40d1-b78b-d642d77a022f"",""projectId"":""5e631737-0fa4-44a6-b227-7ba1d7345015""}","https://test12345.live/?num_scrambled_semantic=8&num_scrambled_causal=4&num_scrambled_schematic=4&participantId=7488063171E540C4AEC4D4809583091A&assignmentId=07e99695-2f3a-40d1-b78b-d642d77a022f&projectId=5e631737-0fa4-44a6-b227-7ba1d7345015","7488063171E540C4AEC4D4809583091A-2025-05-27-18-22-29","","null","","images/semantic_sequence/kitchen_operations_semantic/kitchen_operations_semantic_4.png","null","",""
"","","","","","image-button-response","67","281688","0.0-12.0-1.0-1.3","7488063171E540C4AEC4D4809583091A","7488063171E540C4AEC4D4809583091A","07e99695-2f3a-40d1-b78b-d642d77a022f","5e631737-0fa4-44a6-b227-7ba1d7345015","{""num_scrambled_semantic"":""8"",""num_scrambled_causal"":""4"",""num_scrambled_schematic"":""4"",""participantId"":""7488063171E540C4AEC4D4809583091A"",""assignmentId"":""07e99695-2f3a-40d1-b78b-d642d77a022f"",""projectId"":""5e631737-0fa4-44a6-b227-7ba1d7345015""}","https://test12345.live/?num_scrambled_semantic=8&num_scrambled_causal=4&num_scrambled_schematic=4&participantId=7488063171E540C4AEC4D4809583091A&assignmentId=07e99695-2f3a-40d1-b78b-d642d77a022f&projectId=5e631737-0fa4-44a6-b227-7ba1d7345015","7488063171E540C4AEC4D4809583091A-2025-05-27-18-22-29","","2623","","images/semantic_sequence/kitchen_operations_semantic/kitchen_operations_semantic_4.png","0","",""
"","","","","","image-button-response","68","283492","0.0-12.0-1.0-2.3","7488063171E540C4AEC4D4809583091A","7488063171E540C4AEC4D4809583091A","07e99695-2f3a-40d1-b78b-d642d77a022f","5e631737-0fa4-44a6-b227-7ba1d7345015","{""num_scrambled_semantic"":""8"",""num_scrambled_causal"":""4"",""num_scrambled_schematic"":""4"",""participantId"":""7488063171E540C4AEC4D4809583091A"",""assignmentId"":""07e99695-2f3a-40d1-b78b-d642d77a022f"",""projectId"":""5e631737-0fa4-44a6-b227-7ba1d7345015""}","https://test12345.live/?num_scrambled_semantic=8&num_scrambled_causal=4&num_scrambled_schematic=4&participantId=7488063171E540C4AEC4D4809583091A&assignmentId=07e99695-2f3a-40d1-b78b-d642d77a022f&projectId=5e631737-0fa4-44a6-b227-7ba1d7345015","7488063171E540C4AEC4D4809583091A-2025-05-27-18-22-29","","null","","[]","null","",""
"","","","","","image-button-response","69","288001","0.0-12.0-1.0-0.4","7488063171E540C4AEC4D4809583091A","7488063171E540C4AEC4D4809583091A","07e99695-2f3a-40d1-b78b-d642d77a022f","5e631737-0fa4-44a6-b227-7ba1d7345015","{""num_scrambled_semantic"":""8"",""num_scrambled_causal"":""4"",""num_scrambled_schematic"":""4"",""participantId"":""7488063171E540C4AEC4D4809583091A"",""assignmentId"":""07e99695-2f3a-40d1-b78b-d642d77a022f"",""projectId"":""5e631737-0fa4-44a6-b227-7ba1d7345015""}","https://test12345.live/?num_scrambled_semantic=8&num_scrambled_causal=4&num_scrambled_schematic=4&participantId=7488063171E540C4AEC4D4809583091A&assignmentId=07e99695-2f3a-40d1-b78b-d642d77a022f&projectId=5e631737-0fa4-44a6-b227-7ba1d7345015","7488063171E540C4AEC4D4809583091A-2025-05-27-18-22-29","","null","","images/semantic_sequence/kitchen_operations_semantic/kitchen_operations_semantic_ten.png","null","",""
"","","","","","image-button-response","70","289625","0.0-12.0-1.0-1.4","7488063171E540C4AEC4D4809583091A","7488063171E540C4AEC4D4809583091A","07e99695-2f3a-40d1-b78b-d642d77a022f","5e631737-0fa4-44a6-b227-7ba1d7345015","{""num_scrambled_semantic"":""8"",""num_scrambled_causal"":""4"",""num_scrambled_schematic"":""4"",""participantId"":""7488063171E540C4AEC4D4809583091A"",""assignmentId"":""07e99695-2f3a-40d1-b78b-d642d77a022f"",""projectId"":""5e631737-0fa4-44a6-b227-7ba1d7345015""}","https://test12345.live/?num_scrambled_semantic=8&num_scrambled_causal=4&num_scrambled_schematic=4&participantId=7488063171E540C4AEC4D4809583091A&assignmentId=07e99695-2f3a-40d1-b78b-d642d77a022f&projectId=5e631737-0fa4-44a6-b227-7ba1d7345015","7488063171E540C4AEC4D4809583091A-2025-05-27-18-22-29","","1624","","images/semantic_sequence/kitchen_operations_semantic/kitchen_operations_semantic_ten.png","0","",""
"","","","","","image-button-response","71","291433","0.0-12.0-1.0-2.4","7488063171E540C4AEC4D4809583091A","7488063171E540C4AEC4D4809583091A","07e99695-2f3a-40d1-b78b-d642d77a022f","5e631737-0fa4-44a6-b227-7ba1d7345015","{""num_scrambled_semantic"":""8"",""num_scrambled_causal"":""4"",""num_scrambled_schematic"":""4"",""participantId"":""7488063171E540C4AEC4D4809583091A"",""assignmentId"":""07e99695-2f3a-40d1-b78b-d642d77a022f"",""projectId"":""5e631737-0fa4-44a6-b227-7ba1d7345015""}","https://test12345.live/?num_scrambled_semantic=8&num_scrambled_causal=4&num_scrambled_schematic=4&participantId=7488063171E540C4AEC4D4809583091A&assignmentId=07e99695-2f3a-40d1-b78b-d642d77a022f&projectId=5e631737-0fa4-44a6-b227-7ba1d7345015","7488063171E540C4AEC4D4809583091A-2025-05-27-18-22-29","","null","","[]","null","",""
"","","","","","image-button-response","72","295938","0.0-12.0-1.0-0.5","7488063171E540C4AEC4D4809583091A","7488063171E540C4AEC4D4809583091A","07e99695-2f3a-40d1-b78b-d642d77a022f","5e631737-0fa4-44a6-b227-7ba1d7345015","{""num_scrambled_semantic"":""8"",""num_scrambled_causal"":""4"",""num_scrambled_schematic"":""4"",""participantId"":""7488063171E540C4AEC4D4809583091A"",""assignmentId"":""07e99695-2f3a-40d1-b78b-d642d77a022f"",""projectId"":""5e631737-0fa4-44a6-b227-7ba1d7345015""}","https://test12345.live/?num_scrambled_semantic=8&num_scrambled_causal=4&num_scrambled_schematic=4&participantId=7488063171E540C4AEC4D4809583091A&assignmentId=07e99695-2f3a-40d1-b78b-d642d77a022f&projectId=5e631737-0fa4-44a6-b227-7ba1d7345015","7488063171E540C4AEC4D4809583091A-2025-05-27-18-22-29","","null","","images/semantic_sequence/kitchen_operations_semantic/kitchen_operations_semantic_7.png","null","",""
"","","","","","image-button-response","73","297111","0.0-12.0-1.0-1.5","7488063171E540C4AEC4D4809583091A","7488063171E540C4AEC4D4809583091A","07e99695-2f3a-40d1-b78b-d642d77a022f","5e631737-0fa4-44a6-b227-7ba1d7345015","{""num_scrambled_semantic"":""8"",""num_scrambled_causal"":""4"",""num_scrambled_schematic"":""4"",""participantId"":""7488063171E540C4AEC4D4809583091A"",""assignmentId"":""07e99695-2f3a-40d1-b78b-d642d77a022f"",""projectId"":""5e631737-0fa4-44a6-b227-7ba1d7345015""}","https://test12345.live/?num_scrambled_semantic=8&num_scrambled_causal=4&num_scrambled_schematic=4&participantId=7488063171E540C4AEC4D4809583091A&assignmentId=07e99695-2f3a-40d1-b78b-d642d77a022f&projectId=5e631737-0fa4-44a6-b227-7ba1d7345015","7488063171E540C4AEC4D4809583091A-2025-05-27-18-22-29","","1173","","images/semantic_sequence/kitchen_operations_semantic/kitchen_operations_semantic_7.png","0","",""
"","","","","","image-button-response","74","298917","0.0-12.0-1.0-2.5","7488063171E540C4AEC4D4809583091A","7488063171E540C4AEC4D4809583091A","07e99695-2f3a-40d1-b78b-d642d77a022f","5e631737-0fa4-44a6-b227-7ba1d7345015","{""num_scrambled_semantic"":""8"",""num_scrambled_causal"":""4"",""num_scrambled_schematic"":""4"",""participantId"":""7488063171E540C4AEC4D4809583091A"",""assignmentId"":""07e99695-2f3a-40d1-b78b-d642d77a022f"",""projectId"":""5e631737-0fa4-44a6-b227-7ba1d7345015""}","https://test12345.live/?num_scrambled_semantic=8&num_scrambled_causal=4&num_scrambled_schematic=4&participantId=7488063171E540C4AEC4D4809583091A&assignmentId=07e99695-2f3a-40d1-b78b-d642d77a022f&projectId=5e631737-0fa4-44a6-b227-7ba1d7345015","7488063171E540C4AEC4D4809583091A-2025-05-27-18-22-29","","null","","[]","null","",""
"","","","","","image-button-response","75","303426","0.0-12.0-1.0-0.6","7488063171E540C4AEC4D4809583091A","7488063171E540C4AEC4D4809583091A","07e99695-2f3a-40d1-b78b-d642d77a022f","5e631737-0fa4-44a6-b227-7ba1d7345015","{""num_scrambled_semantic"":""8"",""num_scrambled_causal"":""4"",""num_scrambled_schematic"":""4"",""participantId"":""7488063171E540C4AEC4D4809583091A"",""assignmentId"":""07e99695-2f3a-40d1-b78b-d642d77a022f"",""projectId"":""5e631737-0fa4-44a6-b227-7ba1d7345015""}","https://test12345.live/?num_scrambled_semantic=8&num_scrambled_causal=4&num_scrambled_schematic=4&participantId=7488063171E540C4AEC4D4809583091A&assignmentId=07e99695-2f3a-40d1-b78b-d642d77a022f&projectId=5e631737-0fa4-44a6-b227-7ba1d7345015","7488063171E540C4AEC4D4809583091A-2025-05-27-18-22-29","","null","","images/semantic_sequence/kitchen_operations_semantic/kitchen_operations_semantic_9.png","null","",""
"","","","","","image-button-response","76","304067","0.0-12.0-1.0-1.6","7488063171E540C4AEC4D4809583091A","7488063171E540C4AEC4D4809583091A","07e99695-2f3a-40d1-b78b-d642d77a022f","5e631737-0fa4-44a6-b227-7ba1d7345015","{""num_scrambled_semantic"":""8"",""num_scrambled_causal"":""4"",""num_scrambled_schematic"":""4"",""participantId"":""7488063171E540C4AEC4D4809583091A"",""assignmentId"":""07e99695-2f3a-40d1-b78b-d642d77a022f"",""projectId"":""5e631737-0fa4-44a6-b227-7ba1d7345015""}","https://test12345.live/?num_scrambled_semantic=8&num_scrambled_causal=4&num_scrambled_schematic=4&participantId=7488063171E540C4AEC4D4809583091A&assignmentId=07e99695-2f3a-40d1-b78b-d642d77a022f&projectId=5e631737-0fa4-44a6-b227-7ba1d7345015","7488063171E540C4AEC4D4809583091A-2025-05-27-18-22-29","","641","","images/semantic_sequence/kitchen_operations_semantic/kitchen_operations_semantic_9.png","0","",""
"","","","","","image-button-response","77","305870","0.0-12.0-1.0-2.6","7488063171E540C4AEC4D4809583091A","7488063171E540C4AEC4D4809583091A","07e99695-2f3a-40d1-b78b-d642d77a022f","5e631737-0fa4-44a6-b227-7ba1d7345015","{""num_scrambled_semantic"":""8"",""num_scrambled_causal"":""4"",""num_scrambled_schematic"":""4"",""participantId"":""7488063171E540C4AEC4D4809583091A"",""assignmentId"":""07e99695-2f3a-40d1-b78b-d642d77a022f"",""projectId"":""5e631737-0fa4-44a6-b227-7ba1d7345015""}","https://test12345.live/?num_scrambled_semantic=8&num_scrambled_causal=4&num_scrambled_schematic=4&participantId=7488063171E540C4AEC4D4809583091A&assignmentId=07e99695-2f3a-40d1-b78b-d642d77a022f&projectId=5e631737-0fa4-44a6-b227-7ba1d7345015","7488063171E540C4AEC4D4809583091A-2025-05-27-18-22-29","","null","","[]","null","",""
"","","","","","image-button-response","78","310383","0.0-12.0-1.0-0.7","7488063171E540C4AEC4D4809583091A","7488063171E540C4AEC4D4809583091A","07e99695-2f3a-40d1-b78b-d642d77a022f","5e631737-0fa4-44a6-b227-7ba1d7345015","{""num_scrambled_semantic"":""8"",""num_scrambled_causal"":""4"",""num_scrambled_schematic"":""4"",""participantId"":""7488063171E540C4AEC4D4809583091A"",""assignmentId"":""07e99695-2f3a-40d1-b78b-d642d77a022f"",""projectId"":""5e631737-0fa4-44a6-b227-7ba1d7345015""}","https://test12345.live/?num_scrambled_semantic=8&num_scrambled_causal=4&num_scrambled_schematic=4&participantId=7488063171E540C4AEC4D4809583091A&assignmentId=07e99695-2f3a-40d1-b78b-d642d77a022f&projectId=5e631737-0fa4-44a6-b227-7ba1d7345015","7488063171E540C4AEC4D4809583091A-2025-05-27-18-22-29","","null","","images/semantic_sequence/kitchen_operations_semantic/kitchen_operations_semantic_3.png","null","",""
"","","","","","image-button-response","79","310799","0.0-12.0-1.0-1.7","7488063171E540C4AEC4D4809583091A","7488063171E540C4AEC4D4809583091A","07e99695-2f3a-40d1-b78b-d642d77a022f","5e631737-0fa4-44a6-b227-7ba1d7345015","{""num_scrambled_semantic"":""8"",""num_scrambled_causal"":""4"",""num_scrambled_schematic"":""4"",""participantId"":""7488063171E540C4AEC4D4809583091A"",""assignmentId"":""07e99695-2f3a-40d1-b78b-d642d77a022f"",""projectId"":""5e631737-0fa4-44a6-b227-7ba1d7345015""}","https://test12345.live/?num_scrambled_semantic=8&num_scrambled_causal=4&num_scrambled_schematic=4&participantId=7488063171E540C4AEC4D4809583091A&assignmentId=07e99695-2f3a-40d1-b78b-d642d77a022f&projectId=5e631737-0fa4-44a6-b227-7ba1d7345015","7488063171E540C4AEC4D4809583091A-2025-05-27-18-22-29","","416","","images/semantic_sequence/kitchen_operations_semantic/kitchen_operations_semantic_3.png","0","",""
"","","","","","image-button-response","80","312616","0.0-12.0-1.0-2.7","7488063171E540C4AEC4D4809583091A","7488063171E540C4AEC4D4809583091A","07e99695-2f3a-40d1-b78b-d642d77a022f","5e631737-0fa4-44a6-b227-7ba1d7345015","{""num_scrambled_semantic"":""8"",""num_scrambled_causal"":""4"",""num_scrambled_schematic"":""4"",""participantId"":""7488063171E540C4AEC4D4809583091A"",""assignmentId"":""07e99695-2f3a-40d1-b78b-d642d77a022f"",""projectId"":""5e631737-0fa4-44a6-b227-7ba1d7345015""}","https://test12345.live/?num_scrambled_semantic=8&num_scrambled_causal=4&num_scrambled_schematic=4&participantId=7488063171E540C4AEC4D4809583091A&assignmentId=07e99695-2f3a-40d1-b78b-d642d77a022f&projectId=5e631737-0fa4-44a6-b227-7ba1d7345015","7488063171E540C4AEC4D4809583091A-2025-05-27-18-22-29","","null","","[]","null","",""
"","","","","","image-button-response","81","317117","0.0-12.0-1.0-0.8","7488063171E540C4AEC4D4809583091A","7488063171E540C4AEC4D4809583091A","07e99695-2f3a-40d1-b78b-d642d77a022f","5e631737-0fa4-44a6-b227-7ba1d7345015","{""num_scrambled_semantic"":""8"",""num_scrambled_causal"":""4"",""num_scrambled_schematic"":""4"",""participantId"":""7488063171E540C4AEC4D4809583091A"",""assignmentId"":""07e99695-2f3a-40d1-b78b-d642d77a022f"",""projectId"":""5e631737-0fa4-44a6-b227-7ba1d7345015""}","https://test12345.live/?num_scrambled_semantic=8&num_scrambled_causal=4&num_scrambled_schematic=4&participantId=7488063171E540C4AEC4D4809583091A&assignmentId=07e99695-2f3a-40d1-b78b-d642d77a022f&projectId=5e631737-0fa4-44a6-b227-7ba1d7345015","7488063171E540C4AEC4D4809583091A-2025-05-27-18-22-29","","null","","images/semantic_sequence/kitchen_operations_semantic/kitchen_operations_semantic_6.png","null","",""
"","","","","","image-button-response","82","317474","0.0-12.0-1.0-1.8","7488063171E540C4AEC4D4809583091A","7488063171E540C4AEC4D4809583091A","07e99695-2f3a-40d1-b78b-d642d77a022f","5e631737-0fa4-44a6-b227-7ba1d7345015","{""num_scrambled_semantic"":""8"",""num_scrambled_causal"":""4"",""num_scrambled_schematic"":""4"",""participantId"":""7488063171E540C4AEC4D4809583091A"",""assignmentId"":""07e99695-2f3a-40d1-b78b-d642d77a022f"",""projectId"":""5e631737-0fa4-44a6-b227-7ba1d7345015""}","https://test12345.live/?num_scrambled_semantic=8&num_scrambled_causal=4&num_scrambled_schematic=4&participantId=7488063171E540C4AEC4D4809583091A&assignmentId=07e99695-2f3a-40d1-b78b-d642d77a022f&projectId=5e631737-0fa4-44a6-b227-7ba1d7345015","7488063171E540C4AEC4D4809583091A-2025-05-27-18-22-29","","357","","images/semantic_sequence/kitchen_operations_semantic/kitchen_operations_semantic_6.png","0","",""
"","","","","","image-button-response","83","319287","0.0-12.0-1.0-2.8","7488063171E540C4AEC4D4809583091A","7488063171E540C4AEC4D4809583091A","07e99695-2f3a-40d1-b78b-d642d77a022f","5e631737-0fa4-44a6-b227-7ba1d7345015","{""num_scrambled_semantic"":""8"",""num_scrambled_causal"":""4"",""num_scrambled_schematic"":""4"",""participantId"":""7488063171E540C4AEC4D4809583091A"",""assignmentId"":""07e99695-2f3a-40d1-b78b-d642d77a022f"",""projectId"":""5e631737-0fa4-44a6-b227-7ba1d7345015""}","https://test12345.live/?num_scrambled_semantic=8&num_scrambled_causal=4&num_scrambled_schematic=4&participantId=7488063171E540C4AEC4D4809583091A&assignmentId=07e99695-2f3a-40d1-b78b-d642d77a022f&projectId=5e631737-0fa4-44a6-b227-7ba1d7345015","7488063171E540C4AEC4D4809583091A-2025-05-27-18-22-29","","null","","[]","null","",""
"","","","","","image-button-response","84","323790","0.0-12.0-1.0-0.9","7488063171E540C4AEC4D4809583091A","7488063171E540C4AEC4D4809583091A","07e99695-2f3a-40d1-b78b-d642d77a022f","5e631737-0fa4-44a6-b227-7ba1d7345015","{""num_scrambled_semantic"":""8"",""num_scrambled_causal"":""4"",""num_scrambled_schematic"":""4"",""participantId"":""7488063171E540C4AEC4D4809583091A"",""assignmentId"":""07e99695-2f3a-40d1-b78b-d642d77a022f"",""projectId"":""5e631737-0fa4-44a6-b227-7ba1d7345015""}","https://test12345.live/?num_scrambled_semantic=8&num_scrambled_causal=4&num_scrambled_schematic=4&participantId=7488063171E540C4AEC4D4809583091A&assignmentId=07e99695-2f3a-40d1-b78b-d642d77a022f&projectId=5e631737-0fa4-44a6-b227-7ba1d7345015","7488063171E540C4AEC4D4809583091A-2025-05-27-18-22-29","","null","","images/semantic_sequence/kitchen_operations_semantic/kitchen_operations_semantic_2.png","null","",""
"","","","","","image-button-response","85","324120","0.0-12.0-1.0-1.9","7488063171E540C4AEC4D4809583091A","7488063171E540C4AEC4D4809583091A","07e99695-2f3a-40d1-b78b-d642d77a022f","5e631737-0fa4-44a6-b227-7ba1d7345015","{""num_scrambled_semantic"":""8"",""num_scrambled_causal"":""4"",""num_scrambled_schematic"":""4"",""participantId"":""7488063171E540C4AEC4D4809583091A"",""assignmentId"":""07e99695-2f3a-40d1-b78b-d642d77a022f"",""projectId"":""5e631737-0fa4-44a6-b227-7ba1d7345015""}","https://test12345.live/?num_scrambled_semantic=8&num_scrambled_causal=4&num_scrambled_schematic=4&participantId=7488063171E540C4AEC4D4809583091A&assignmentId=07e99695-2f3a-40d1-b78b-d642d77a022f&projectId=5e631737-0fa4-44a6-b227-7ba1d7345015","7488063171E540C4AEC4D4809583091A-2025-05-27-18-22-29","","330","","images/semantic_sequence/kitchen_operations_semantic/kitchen_operations_semantic_2.png","0","",""
"","","","","","image-button-response","86","325921","0.0-12.0-1.0-2.9","7488063171E540C4AEC4D4809583091A","7488063171E540C4AEC4D4809583091A","07e99695-2f3a-40d1-b78b-d642d77a022f","5e631737-0fa4-44a6-b227-7ba1d7345015","{""num_scrambled_semantic"":""8"",""num_scrambled_causal"":""4"",""num_scrambled_schematic"":""4"",""participantId"":""7488063171E540C4AEC4D4809583091A"",""assignmentId"":""07e99695-2f3a-40d1-b78b-d642d77a022f"",""projectId"":""5e631737-0fa4-44a6-b227-7ba1d7345015""}","https://test12345.live/?num_scrambled_semantic=8&num_scrambled_causal=4&num_scrambled_schematic=4&participantId=7488063171E540C4AEC4D4809583091A&assignmentId=07e99695-2f3a-40d1-b78b-d642d77a022f&projectId=5e631737-0fa4-44a6-b227-7ba1d7345015","7488063171E540C4AEC4D4809583091A-2025-05-27-18-22-29","","null","","[]","null","",""
"","","","","","html-audio-response","87","343014","0.0-13.0","7488063171E540C4AEC4D4809583091A","7488063171E540C4AEC4D4809583091A","07e99695-2f3a-40d1-b78b-d642d77a022f","5e631737-0fa4-44a6-b227-7ba1d7345015","{""num_scrambled_semantic"":""8"",""num_scrambled_causal"":""4"",""num_scrambled_schematic"":""4"",""participantId"":""7488063171E540C4AEC4D4809583091A"",""assignmentId"":""07e99695-2f3a-40d1-b78b-d642d77a022f"",""projectId"":""5e631737-0fa4-44a6-b227-7ba1d7345015""}","https://test12345.live/?num_scrambled_semantic=8&num_scrambled_causal=4&num_scrambled_schematic=4&participantId=7488063171E540C4AEC4D4809583091A&assignmentId=07e99695-2f3a-40d1-b78b-d642d77a022f&projectId=5e631737-0fa4-44a6-b227-7ba1d7345015","7488063171E540C4AEC4D4809583091A-2025-05-27-18-22-29","","15653","","[""<span style=\""color: red; font-size: 24px\""> NOW RECORDING</span><p>Please say out loud all the images you saw, in the exact order you saw them. Try to recall as many images as you can, but remember: getting the order right is more important than the number of images you recall.</p>""]","","1","kitchen_operations_semantic"
"","","","","","image-button-response","88","349026","0.0-14.0-0.0","7488063171E540C4AEC4D4809583091A","7488063171E540C4AEC4D4809583091A","07e99695-2f3a-40d1-b78b-d642d77a022f","5e631737-0fa4-44a6-b227-7ba1d7345015","{""num_scrambled_semantic"":""8"",""num_scrambled_causal"":""4"",""num_scrambled_schematic"":""4"",""participantId"":""7488063171E540C4AEC4D4809583091A"",""assignmentId"":""07e99695-2f3a-40d1-b78b-d642d77a022f"",""projectId"":""5e631737-0fa4-44a6-b227-7ba1d7345015""}","https://test12345.live/?num_scrambled_semantic=8&num_scrambled_causal=4&num_scrambled_schematic=4&participantId=7488063171E540C4AEC4D4809583091A&assignmentId=07e99695-2f3a-40d1-b78b-d642d77a022f&projectId=5e631737-0fa4-44a6-b227-7ba1d7345015","7488063171E540C4AEC4D4809583091A-2025-05-27-18-22-29","","null","","images/semantic_sequence/self_care_activities_semantic/self_care_activities_semantic_0.png","null","",""
"","","","","","image-button-response","89","353528","0.0-14.0-1.0-0.0","7488063171E540C4AEC4D4809583091A","7488063171E540C4AEC4D4809583091A","07e99695-2f3a-40d1-b78b-d642d77a022f","5e631737-0fa4-44a6-b227-7ba1d7345015","{""num_scrambled_semantic"":""8"",""num_scrambled_causal"":""4"",""num_scrambled_schematic"":""4"",""participantId"":""7488063171E540C4AEC4D4809583091A"",""assignmentId"":""07e99695-2f3a-40d1-b78b-d642d77a022f"",""projectId"":""5e631737-0fa4-44a6-b227-7ba1d7345015""}","https://test12345.live/?num_scrambled_semantic=8&num_scrambled_causal=4&num_scrambled_schematic=4&participantId=7488063171E540C4AEC4D4809583091A&assignmentId=07e99695-2f3a-40d1-b78b-d642d77a022f&projectId=5e631737-0fa4-44a6-b227-7ba1d7345015","7488063171E540C4AEC4D4809583091A-2025-05-27-18-22-29","","null","","images/semantic_sequence/self_care_activities_semantic/self_care_activities_semantic_7.png","null","",""
"","","","","","image-button-response","90","354730","0.0-14.0-1.0-1.0","7488063171E540C4AEC4D4809583091A","7488063171E540C4AEC4D4809583091A","07e99695-2f3a-40d1-b78b-d642d77a022f","5e631737-0fa4-44a6-b227-7ba1d7345015","{""num_scrambled_semantic"":""8"",""num_scrambled_causal"":""4"",""num_scrambled_schematic"":""4"",""participantId"":""7488063171E540C4AEC4D4809583091A"",""assignmentId"":""07e99695-2f3a-40d1-b78b-d642d77a022f"",""projectId"":""5e631737-0fa4-44a6-b227-7ba1d7345015""}","https://test12345.live/?num_scrambled_semantic=8&num_scrambled_causal=4&num_scrambled_schematic=4&participantId=7488063171E540C4AEC4D4809583091A&assignmentId=07e99695-2f3a-40d1-b78b-d642d77a022f&projectId=5e631737-0fa4-44a6-b227-7ba1d7345015","7488063171E540C4AEC4D4809583091A-2025-05-27-18-22-29","","1200","","images/semantic_sequence/self_care_activities_semantic/self_care_activities_semantic_7.png","0","",""
"","","","","","image-button-response","91","356546","0.0-14.0-1.0-2.0","7488063171E540C4AEC4D4809583091A","7488063171E540C4AEC4D4809583091A","07e99695-2f3a-40d1-b78b-d642d77a022f","5e631737-0fa4-44a6-b227-7ba1d7345015","{""num_scrambled_semantic"":""8"",""num_scrambled_causal"":""4"",""num_scrambled_schematic"":""4"",""participantId"":""7488063171E540C4AEC4D4809583091A"",""assignmentId"":""07e99695-2f3a-40d1-b78b-d642d77a022f"",""projectId"":""5e631737-0fa4-44a6-b227-7ba1d7345015""}","https://test12345.live/?num_scrambled_semantic=8&num_scrambled_causal=4&num_scrambled_schematic=4&participantId=7488063171E540C4AEC4D4809583091A&assignmentId=07e99695-2f3a-40d1-b78b-d642d77a022f&projectId=5e631737-0fa4-44a6-b227-7ba1d7345015","7488063171E540C4AEC4D4809583091A-2025-05-27-18-22-29","","null","","[]","null","",""
"","","","","","image-button-response","92","361050","0.0-14.0-1.0-0.1","7488063171E540C4AEC4D4809583091A","7488063171E540C4AEC4D4809583091A","07e99695-2f3a-40d1-b78b-d642d77a022f","5e631737-0fa4-44a6-b227-7ba1d7345015","{""num_scrambled_semantic"":""8"",""num_scrambled_causal"":""4"",""num_scrambled_schematic"":""4"",""participantId"":""7488063171E540C4AEC4D4809583091A"",""assignmentId"":""07e99695-2f3a-40d1-b78b-d642d77a022f"",""projectId"":""5e631737-0fa4-44a6-b227-7ba1d7345015""}","https://test12345.live/?num_scrambled_semantic=8&num_scrambled_causal=4&num_scrambled_schematic=4&participantId=7488063171E540C4AEC4D4809583091A&assignmentId=07e99695-2f3a-40d1-b78b-d642d77a022f&projectId=5e631737-0fa4-44a6-b227-7ba1d7345015","7488063171E540C4AEC4D4809583091A-2025-05-27-18-22-29","","null","","images/semantic_sequence/self_care_activities_semantic/self_care_activities_semantic_1.png","null","",""
"","","","","","image-button-response","93","361958","0.0-14.0-1.0-1.1","7488063171E540C4AEC4D4809583091A","7488063171E540C4AEC4D4809583091A","07e99695-2f3a-40d1-b78b-d642d77a022f","5e631737-0fa4-44a6-b227-7ba1d7345015","{""num_scrambled_semantic"":""8"",""num_scrambled_causal"":""4"",""num_scrambled_schematic"":""4"",""participantId"":""7488063171E540C4AEC4D4809583091A"",""assignmentId"":""07e99695-2f3a-40d1-b78b-d642d77a022f"",""projectId"":""5e631737-0fa4-44a6-b227-7ba1d7345015""}","https://test12345.live/?num_scrambled_semantic=8&num_scrambled_causal=4&num_scrambled_schematic=4&participantId=7488063171E540C4AEC4D4809583091A&assignmentId=07e99695-2f3a-40d1-b78b-d642d77a022f&projectId=5e631737-0fa4-44a6-b227-7ba1d7345015","7488063171E540C4AEC4D4809583091A-2025-05-27-18-22-29","","908","","images/semantic_sequence/self_care_activities_semantic/self_care_activities_semantic_1.png","0","",""
"","","","","","image-button-response","94","363773","0.0-14.0-1.0-2.1","7488063171E540C4AEC4D4809583091A","7488063171E540C4AEC4D4809583091A","07e99695-2f3a-40d1-b78b-d642d77a022f","5e631737-0fa4-44a6-b227-7ba1d7345015","{""num_scrambled_semantic"":""8"",""num_scrambled_causal"":""4"",""num_scrambled_schematic"":""4"",""participantId"":""7488063171E540C4AEC4D4809583091A"",""assignmentId"":""07e99695-2f3a-40d1-b78b-d642d77a022f"",""projectId"":""5e631737-0fa4-44a6-b227-7ba1d7345015""}","https://test12345.live/?num_scrambled_semantic=8&num_scrambled_causal=4&num_scrambled_schematic=4&participantId=7488063171E540C4AEC4D4809583091A&assignmentId=07e99695-2f3a-40d1-b78b-d642d77a022f&projectId=5e631737-0fa4-44a6-b227-7ba1d7345015","7488063171E540C4AEC4D4809583091A-2025-05-27-18-22-29","","null","","[]","null","",""
"","","","","","image-button-response","95","368277","0.0-14.0-1.0-0.2","7488063171E540C4AEC4D4809583091A","7488063171E540C4AEC4D4809583091A","07e99695-2f3a-40d1-b78b-d642d77a022f","5e631737-0fa4-44a6-b227-7ba1d7345015","{""num_scrambled_semantic"":""8"",""num_scrambled_causal"":""4"",""num_scrambled_schematic"":""4"",""participantId"":""7488063171E540C4AEC4D4809583091A"",""assignmentId"":""07e99695-2f3a-40d1-b78b-d642d77a022f"",""projectId"":""5e631737-0fa4-44a6-b227-7ba1d7345015""}","https://test12345.live/?num_scrambled_semantic=8&num_scrambled_causal=4&num_scrambled_schematic=4&participantId=7488063171E540C4AEC4D4809583091A&assignmentId=07e99695-2f3a-40d1-b78b-d642d77a022f&projectId=5e631737-0fa4-44a6-b227-7ba1d7345015","7488063171E540C4AEC4D4809583091A-2025-05-27-18-22-29","","null","","images/semantic_sequence/self_care_activities_semantic/self_care_activities_semantic_8.png","null","",""
"","","","","","image-button-response","96","368696","0.0-14.0-1.0-1.2","7488063171E540C4AEC4D4809583091A","7488063171E540C4AEC4D4809583091A","07e99695-2f3a-40d1-b78b-d642d77a022f","5e631737-0fa4-44a6-b227-7ba1d7345015","{""num_scrambled_semantic"":""8"",""num_scrambled_causal"":""4"",""num_scrambled_schematic"":""4"",""participantId"":""7488063171E540C4AEC4D4809583091A"",""assignmentId"":""07e99695-2f3a-40d1-b78b-d642d77a022f"",""projectId"":""5e631737-0fa4-44a6-b227-7ba1d7345015""}","https://test12345.live/?num_scrambled_semantic=8&num_scrambled_causal=4&num_scrambled_schematic=4&participantId=7488063171E540C4AEC4D4809583091A&assignmentId=07e99695-2f3a-40d1-b78b-d642d77a022f&projectId=5e631737-0fa4-44a6-b227-7ba1d7345015","7488063171E540C4AEC4D4809583091A-2025-05-27-18-22-29","","419","","images/semantic_sequence/self_care_activities_semantic/self_care_activities_semantic_8.png","0","",""
"","","","","","image-button-response","97","370509","0.0-14.0-1.0-2.2","7488063171E540C4AEC4D4809583091A","7488063171E540C4AEC4D4809583091A","07e99695-2f3a-40d1-b78b-d642d77a022f","5e631737-0fa4-44a6-b227-7ba1d7345015","{""num_scrambled_semantic"":""8"",""num_scrambled_causal"":""4"",""num_scrambled_schematic"":""4"",""participantId"":""7488063171E540C4AEC4D4809583091A"",""assignmentId"":""07e99695-2f3a-40d1-b78b-d642d77a022f"",""projectId"":""5e631737-0fa4-44a6-b227-7ba1d7345015""}","https://test12345.live/?num_scrambled_semantic=8&num_scrambled_causal=4&num_scrambled_schematic=4&participantId=7488063171E540C4AEC4D4809583091A&assignmentId=07e99695-2f3a-40d1-b78b-d642d77a022f&projectId=5e631737-0fa4-44a6-b227-7ba1d7345015","7488063171E540C4AEC4D4809583091A-2025-05-27-18-22-29","","null","","[]","null","",""
"","","","","","image-button-response","98","375011","0.0-14.0-1.0-0.3","7488063171E540C4AEC4D4809583091A","7488063171E540C4AEC4D4809583091A","07e99695-2f3a-40d1-b78b-d642d77a022f","5e631737-0fa4-44a6-b227-7ba1d7345015","{""num_scrambled_semantic"":""8"",""num_scrambled_causal"":""4"",""num_scrambled_schematic"":""4"",""participantId"":""7488063171E540C4AEC4D4809583091A"",""assignmentId"":""07e99695-2f3a-40d1-b78b-d642d77a022f"",""projectId"":""5e631737-0fa4-44a6-b227-7ba1d7345015""}","https://test12345.live/?num_scrambled_semantic=8&num_scrambled_causal=4&num_scrambled_schematic=4&participantId=7488063171E540C4AEC4D4809583091A&assignmentId=07e99695-2f3a-40d1-b78b-d642d77a022f&projectId=5e631737-0fa4-44a6-b227-7ba1d7345015","7488063171E540C4AEC4D4809583091A-2025-05-27-18-22-29","","null","","images/semantic_sequence/self_care_activities_semantic/self_care_activities_semantic_4.png","null","",""
"","","","","","image-button-response","99","375661","0.0-14.0-1.0-1.3","7488063171E540C4AEC4D4809583091A","7488063171E540C4AEC4D4809583091A","07e99695-2f3a-40d1-b78b-d642d77a022f","5e631737-0fa4-44a6-b227-7ba1d7345015","{""num_scrambled_semantic"":""8"",""num_scrambled_causal"":""4"",""num_scrambled_schematic"":""4"",""participantId"":""7488063171E540C4AEC4D4809583091A"",""assignmentId"":""07e99695-2f3a-40d1-b78b-d642d77a022f"",""projectId"":""5e631737-0fa4-44a6-b227-7ba1d7345015""}","https://test12345.live/?num_scrambled_semantic=8&num_scrambled_causal=4&num_scrambled_schematic=4&participantId=7488063171E540C4AEC4D4809583091A&assignmentId=07e99695-2f3a-40d1-b78b-d642d77a022f&projectId=5e631737-0fa4-44a6-b227-7ba1d7345015","7488063171E540C4AEC4D4809583091A-2025-05-27-18-22-29","","649","","images/semantic_sequence/self_care_activities_semantic/self_care_activities_semantic_4.png","0","",""
"","","","","","image-button-response","100","377462","0.0-14.0-1.0-2.3","7488063171E540C4AEC4D4809583091A","7488063171E540C4AEC4D4809583091A","07e99695-2f3a-40d1-b78b-d642d77a022f","5e631737-0fa4-44a6-b227-7ba1d7345015","{""num_scrambled_semantic"":""8"",""num_scrambled_causal"":""4"",""num_scrambled_schematic"":""4"",""participantId"":""7488063171E540C4AEC4D4809583091A"",""assignmentId"":""07e99695-2f3a-40d1-b78b-d642d77a022f"",""projectId"":""5e631737-0fa4-44a6-b227-7ba1d7345015""}","https://test12345.live/?num_scrambled_semantic=8&num_scrambled_causal=4&num_scrambled_schematic=4&participantId=7488063171E540C4AEC4D4809583091A&assignmentId=07e99695-2f3a-40d1-b78b-d642d77a022f&projectId=5e631737-0fa4-44a6-b227-7ba1d7345015","7488063171E540C4AEC4D4809583091A-2025-05-27-18-22-29","","null","","[]","null","",""
"","","","","","image-button-response","101","381964","0.0-14.0-1.0-0.4","7488063171E540C4AEC4D4809583091A","7488063171E540C4AEC4D4809583091A","07e99695-2f3a-40d1-b78b-d642d77a022f","5e631737-0fa4-44a6-b227-7ba1d7345015","{""num_scrambled_semantic"":""8"",""num_scrambled_causal"":""4"",""num_scrambled_schematic"":""4"",""participantId"":""7488063171E540C4AEC4D4809583091A"",""assignmentId"":""07e99695-2f3a-40d1-b78b-d642d77a022f"",""projectId"":""5e631737-0fa4-44a6-b227-7ba1d7345015""}","https://test12345.live/?num_scrambled_semantic=8&num_scrambled_causal=4&num_scrambled_schematic=4&participantId=7488063171E540C4AEC4D4809583091A&assignmentId=07e99695-2f3a-40d1-b78b-d642d77a022f&projectId=5e631737-0fa4-44a6-b227-7ba1d7345015","7488063171E540C4AEC4D4809583091A-2025-05-27-18-22-29","","null","","images/semantic_sequence/self_care_activities_semantic/self_care_activities_semantic_2.png","null","",""
"","","","","","image-button-response","102","382320","0.0-14.0-1.0-1.4","7488063171E540C4AEC4D4809583091A","7488063171E540C4AEC4D4809583091A","07e99695-2f3a-40d1-b78b-d642d77a022f","5e631737-0fa4-44a6-b227-7ba1d7345015","{""num_scrambled_semantic"":""8"",""num_scrambled_causal"":""4"",""num_scrambled_schematic"":""4"",""participantId"":""7488063171E540C4AEC4D4809583091A"",""assignmentId"":""07e99695-2f3a-40d1-b78b-d642d77a022f"",""projectId"":""5e631737-0fa4-44a6-b227-7ba1d7345015""}","https://test12345.live/?num_scrambled_semantic=8&num_scrambled_causal=4&num_scrambled_schematic=4&participantId=7488063171E540C4AEC4D4809583091A&assignmentId=07e99695-2f3a-40d1-b78b-d642d77a022f&projectId=5e631737-0fa4-44a6-b227-7ba1d7345015","7488063171E540C4AEC4D4809583091A-2025-05-27-18-22-29","","356","","images/semantic_sequence/self_care_activities_semantic/self_care_activities_semantic_2.png","0","",""
"","","","","","image-button-response","103","384123","0.0-14.0-1.0-2.4","7488063171E540C4AEC4D4809583091A","7488063171E540C4AEC4D4809583091A","07e99695-2f3a-40d1-b78b-d642d77a022f","5e631737-0fa4-44a6-b227-7ba1d7345015","{""num_scrambled_semantic"":""8"",""num_scrambled_causal"":""4"",""num_scrambled_schematic"":""4"",""participantId"":""7488063171E540C4AEC4D4809583091A"",""assignmentId"":""07e99695-2f3a-40d1-b78b-d642d77a022f"",""projectId"":""5e631737-0fa4-44a6-b227-7ba1d7345015""}","https://test12345.live/?num_scrambled_semantic=8&num_scrambled_causal=4&num_scrambled_schematic=4&participantId=7488063171E540C4AEC4D4809583091A&assignmentId=07e99695-2f3a-40d1-b78b-d642d77a022f&projectId=5e631737-0fa4-44a6-b227-7ba1d7345015","7488063171E540C4AEC4D4809583091A-2025-05-27-18-22-29","","null","","[]","null","",""
"","","","","","image-button-response","104","388626","0.0-14.0-1.0-0.5","7488063171E540C4AEC4D4809583091A","7488063171E540C4AEC4D4809583091A","07e99695-2f3a-40d1-b78b-d642d77a022f","5e631737-0fa4-44a6-b227-7ba1d7345015","{""num_scrambled_semantic"":""8"",""num_scrambled_causal"":""4"",""num_scrambled_schematic"":""4"",""participantId"":""7488063171E540C4AEC4D4809583091A"",""assignmentId"":""07e99695-2f3a-40d1-b78b-d642d77a022f"",""projectId"":""5e631737-0fa4-44a6-b227-7ba1d7345015""}","https://test12345.live/?num_scrambled_semantic=8&num_scrambled_causal=4&num_scrambled_schematic=4&participantId=7488063171E540C4AEC4D4809583091A&assignmentId=07e99695-2f3a-40d1-b78b-d642d77a022f&projectId=5e631737-0fa4-44a6-b227-7ba1d7345015","7488063171E540C4AEC4D4809583091A-2025-05-27-18-22-29","","null","","images/semantic_sequence/self_care_activities_semantic/self_care_activities_semantic_9.png","null","",""
"","","","","","image-button-response","105","389022","0.0-14.0-1.0-1.5","7488063171E540C4AEC4D4809583091A","7488063171E540C4AEC4D4809583091A","07e99695-2f3a-40d1-b78b-d642d77a022f","5e631737-0fa4-44a6-b227-7ba1d7345015","{""num_scrambled_semantic"":""8"",""num_scrambled_causal"":""4"",""num_scrambled_schematic"":""4"",""participantId"":""7488063171E540C4AEC4D4809583091A"",""assignmentId"":""07e99695-2f3a-40d1-b78b-d642d77a022f"",""projectId"":""5e631737-0fa4-44a6-b227-7ba1d7345015""}","https://test12345.live/?num_scrambled_semantic=8&num_scrambled_causal=4&num_scrambled_schematic=4&participantId=7488063171E540C4AEC4D4809583091A&assignmentId=07e99695-2f3a-40d1-b78b-d642d77a022f&projectId=5e631737-0fa4-44a6-b227-7ba1d7345015","7488063171E540C4AEC4D4809583091A-2025-05-27-18-22-29","","396","","images/semantic_sequence/self_care_activities_semantic/self_care_activities_semantic_9.png","0","",""
"","","","","","image-button-response","106","390829","0.0-14.0-1.0-2.5","7488063171E540C4AEC4D4809583091A","7488063171E540C4AEC4D4809583091A","07e99695-2f3a-40d1-b78b-d642d77a022f","5e631737-0fa4-44a6-b227-7ba1d7345015","{""num_scrambled_semantic"":""8"",""num_scrambled_causal"":""4"",""num_scrambled_schematic"":""4"",""participantId"":""7488063171E540C4AEC4D4809583091A"",""assignmentId"":""07e99695-2f3a-40d1-b78b-d642d77a022f"",""projectId"":""5e631737-0fa4-44a6-b227-7ba1d7345015""}","https://test12345.live/?num_scrambled_semantic=8&num_scrambled_causal=4&num_scrambled_schematic=4&participantId=7488063171E540C4AEC4D4809583091A&assignmentId=07e99695-2f3a-40d1-b78b-d642d77a022f&projectId=5e631737-0fa4-44a6-b227-7ba1d7345015","7488063171E540C4AEC4D4809583091A-2025-05-27-18-22-29","","null","","[]","null","",""
"","","","","","image-button-response","107","395340","0.0-14.0-1.0-0.6","7488063171E540C4AEC4D4809583091A","7488063171E540C4AEC4D4809583091A","07e99695-2f3a-40d1-b78b-d642d77a022f","5e631737-0fa4-44a6-b227-7ba1d7345015","{""num_scrambled_semantic"":""8"",""num_scrambled_causal"":""4"",""num_scrambled_schematic"":""4"",""participantId"":""7488063171E540C4AEC4D4809583091A"",""assignmentId"":""07e99695-2f3a-40d1-b78b-d642d77a022f"",""projectId"":""5e631737-0fa4-44a6-b227-7ba1d7345015""}","https://test12345.live/?num_scrambled_semantic=8&num_scrambled_causal=4&num_scrambled_schematic=4&participantId=7488063171E540C4AEC4D4809583091A&assignmentId=07e99695-2f3a-40d1-b78b-d642d77a022f&projectId=5e631737-0fa4-44a6-b227-7ba1d7345015","7488063171E540C4AEC4D4809583091A-2025-05-27-18-22-29","","null","","images/semantic_sequence/self_care_activities_semantic/self_care_activities_semantic_3.png","null","",""
"","","","","","image-button-response","108","395934","0.0-14.0-1.0-1.6","7488063171E540C4AEC4D4809583091A","7488063171E540C4AEC4D4809583091A","07e99695-2f3a-40d1-b78b-d642d77a022f","5e631737-0fa4-44a6-b227-7ba1d7345015","{""num_scrambled_semantic"":""8"",""num_scrambled_causal"":""4"",""num_scrambled_schematic"":""4"",""participantId"":""7488063171E540C4AEC4D4809583091A"",""assignmentId"":""07e99695-2f3a-40d1-b78b-d642d77a022f"",""projectId"":""5e631737-0fa4-44a6-b227-7ba1d7345015""}","https://test12345.live/?num_scrambled_semantic=8&num_scrambled_causal=4&num_scrambled_schematic=4&participantId=7488063171E540C4AEC4D4809583091A&assignmentId=07e99695-2f3a-40d1-b78b-d642d77a022f&projectId=5e631737-0fa4-44a6-b227-7ba1d7345015","7488063171E540C4AEC4D4809583091A-2025-05-27-18-22-29","","594","","images/semantic_sequence/self_care_activities_semantic/self_care_activities_semantic_3.png","0","",""
"","","","","","image-button-response","109","397736","0.0-14.0-1.0-2.6","7488063171E540C4AEC4D4809583091A","7488063171E540C4AEC4D4809583091A","07e99695-2f3a-40d1-b78b-d642d77a022f","5e631737-0fa4-44a6-b227-7ba1d7345015","{""num_scrambled_semantic"":""8"",""num_scrambled_causal"":""4"",""num_scrambled_schematic"":""4"",""participantId"":""7488063171E540C4AEC4D4809583091A"",""assignmentId"":""07e99695-2f3a-40d1-b78b-d642d77a022f"",""projectId"":""5e631737-0fa4-44a6-b227-7ba1d7345015""}","https://test12345.live/?num_scrambled_semantic=8&num_scrambled_causal=4&num_scrambled_schematic=4&participantId=7488063171E540C4AEC4D4809583091A&assignmentId=07e99695-2f3a-40d1-b78b-d642d77a022f&projectId=5e631737-0fa4-44a6-b227-7ba1d7345015","7488063171E540C4AEC4D4809583091A-2025-05-27-18-22-29","","null","","[]","null","",""
"","","","","","image-button-response","110","402247","0.0-14.0-1.0-0.7","7488063171E540C4AEC4D4809583091A","7488063171E540C4AEC4D4809583091A","07e99695-2f3a-40d1-b78b-d642d77a022f","5e631737-0fa4-44a6-b227-7ba1d7345015","{""num_scrambled_semantic"":""8"",""num_scrambled_causal"":""4"",""num_scrambled_schematic"":""4"",""participantId"":""7488063171E540C4AEC4D4809583091A"",""assignmentId"":""07e99695-2f3a-40d1-b78b-d642d77a022f"",""projectId"":""5e631737-0fa4-44a6-b227-7ba1d7345015""}","https://test12345.live/?num_scrambled_semantic=8&num_scrambled_causal=4&num_scrambled_schematic=4&participantId=7488063171E540C4AEC4D4809583091A&assignmentId=07e99695-2f3a-40d1-b78b-d642d77a022f&projectId=5e631737-0fa4-44a6-b227-7ba1d7345015","7488063171E540C4AEC4D4809583091A-2025-05-27-18-22-29","","null","","images/semantic_sequence/self_care_activities_semantic/self_care_activities_semantic_6.png","null","",""
"","","","","","image-button-response","111","402779","0.0-14.0-1.0-1.7","7488063171E540C4AEC4D4809583091A","7488063171E540C4AEC4D4809583091A","07e99695-2f3a-40d1-b78b-d642d77a022f","5e631737-0fa4-44a6-b227-7ba1d7345015","{""num_scrambled_semantic"":""8"",""num_scrambled_causal"":""4"",""num_scrambled_schematic"":""4"",""participantId"":""7488063171E540C4AEC4D4809583091A"",""assignmentId"":""07e99695-2f3a-40d1-b78b-d642d77a022f"",""projectId"":""5e631737-0fa4-44a6-b227-7ba1d7345015""}","https://test12345.live/?num_scrambled_semantic=8&num_scrambled_causal=4&num_scrambled_schematic=4&participantId=7488063171E540C4AEC4D4809583091A&assignmentId=07e99695-2f3a-40d1-b78b-d642d77a022f&projectId=5e631737-0fa4-44a6-b227-7ba1d7345015","7488063171E540C4AEC4D4809583091A-2025-05-27-18-22-29","","532","","images/semantic_sequence/self_care_activities_semantic/self_care_activities_semantic_6.png","1","",""
"","","","","","image-button-response","112","404595","0.0-14.0-1.0-2.7","7488063171E540C4AEC4D4809583091A","7488063171E540C4AEC4D4809583091A","07e99695-2f3a-40d1-b78b-d642d77a022f","5e631737-0fa4-44a6-b227-7ba1d7345015","{""num_scrambled_semantic"":""8"",""num_scrambled_causal"":""4"",""num_scrambled_schematic"":""4"",""participantId"":""7488063171E540C4AEC4D4809583091A"",""assignmentId"":""07e99695-2f3a-40d1-b78b-d642d77a022f"",""projectId"":""5e631737-0fa4-44a6-b227-7ba1d7345015""}","https://test12345.live/?num_scrambled_semantic=8&num_scrambled_causal=4&num_scrambled_schematic=4&participantId=7488063171E540C4AEC4D4809583091A&assignmentId=07e99695-2f3a-40d1-b78b-d642d77a022f&projectId=5e631737-0fa4-44a6-b227-7ba1d7345015","7488063171E540C4AEC4D4809583091A-2025-05-27-18-22-29","","null","","[]","null","",""
