"success","timeout","failed_images","failed_audio","failed_video","trial_type","trial_index","time_elapsed","internal_node_id","subject","subject_id","study_id","session_id","urlvar","current_url","audio_id","view_history","rt","device_id","stimulus","response","estimated_stimulus_onset","seq_name"
"true","false","[]","[]","[]","preload","0","879","0.0-0.0","75855CF14D7445938636BC9DC9893591","75855CF14D7445938636BC9DC9893591","f8c51160-c049-4381-96e5-2e9d4e4133fc","a9f3d40c-5730-405c-b25e-1034c4c56f3f","{""num_scrambled_semantic"":""8"",""num_scrambled_causal"":""4"",""num_scrambled_schematic"":""4"",""participantId"":""75855CF14D7445938636BC9DC9893591"",""assignmentId"":""f8c51160-c049-4381-96e5-2e9d4e4133fc"",""projectId"":""a9f3d40c-5730-405c-b25e-1034c4c56f3f""}","https://test12345.live/?num_scrambled_semantic=8&num_scrambled_causal=4&num_scrambled_schematic=4&participantId=75855CF14D7445938636BC9DC9893591&assignmentId=f8c51160-c049-4381-96e5-2e9d4e4133fc&projectId=a9f3d40c-5730-405c-b25e-1034c4c56f3f","75855CF14D7445938636BC9DC9893591-2025-08-07-19-28-16","","","","","","",""
"","","","","","instructions","1","63850","0.0-1.0","75855CF14D7445938636BC9DC9893591","75855CF14D7445938636BC9DC9893591","f8c51160-c049-4381-96e5-2e9d4e4133fc","a9f3d40c-5730-405c-b25e-1034c4c56f3f","{""num_scrambled_semantic"":""8"",""num_scrambled_causal"":""4"",""num_scrambled_schematic"":""4"",""participantId"":""75855CF14D7445938636BC9DC9893591"",""assignmentId"":""f8c51160-c049-4381-96e5-2e9d4e4133fc"",""projectId"":""a9f3d40c-5730-405c-b25e-1034c4c56f3f""}","https://test12345.live/?num_scrambled_semantic=8&num_scrambled_causal=4&num_scrambled_schematic=4&participantId=75855CF14D7445938636BC9DC9893591&assignmentId=f8c51160-c049-4381-96e5-2e9d4e4133fc&projectId=a9f3d40c-5730-405c-b25e-1034c4c56f3f","75855CF14D7445938636BC9DC9893591-2025-08-07-19-28-16","[{""page_index"":0,""viewing_time"":62969}]","62970","","","","",""
"","","","","","instructions","2","119885","0.0-2.0","75855CF14D7445938636BC9DC9893591","75855CF14D7445938636BC9DC9893591","f8c51160-c049-4381-96e5-2e9d4e4133fc","a9f3d40c-5730-405c-b25e-1034c4c56f3f","{""num_scrambled_semantic"":""8"",""num_scrambled_causal"":""4"",""num_scrambled_schematic"":""4"",""participantId"":""75855CF14D7445938636BC9DC9893591"",""assignmentId"":""f8c51160-c049-4381-96e5-2e9d4e4133fc"",""projectId"":""a9f3d40c-5730-405c-b25e-1034c4c56f3f""}","https://test12345.live/?num_scrambled_semantic=8&num_scrambled_causal=4&num_scrambled_schematic=4&participantId=75855CF14D7445938636BC9DC9893591&assignmentId=f8c51160-c049-4381-96e5-2e9d4e4133fc&projectId=a9f3d40c-5730-405c-b25e-1034c4c56f3f","75855CF14D7445938636BC9DC9893591-2025-08-07-19-28-16","[{""page_index"":0,""viewing_time"":56034}]","56034","","","","",""
"true","","","","","fullscreen","3","124907","0.0-3.0","75855CF14D7445938636BC9DC9893591","75855CF14D7445938636BC9DC9893591","f8c51160-c049-4381-96e5-2e9d4e4133fc","a9f3d40c-5730-405c-b25e-1034c4c56f3f","{""num_scrambled_semantic"":""8"",""num_scrambled_causal"":""4"",""num_scrambled_schematic"":""4"",""participantId"":""75855CF14D7445938636BC9DC9893591"",""assignmentId"":""f8c51160-c049-4381-96e5-2e9d4e4133fc"",""projectId"":""a9f3d40c-5730-405c-b25e-1034c4c56f3f""}","https://test12345.live/?num_scrambled_semantic=8&num_scrambled_causal=4&num_scrambled_schematic=4&participantId=75855CF14D7445938636BC9DC9893591&assignmentId=f8c51160-c049-4381-96e5-2e9d4e4133fc&projectId=a9f3d40c-5730-405c-b25e-1034c4c56f3f","75855CF14D7445938636BC9DC9893591-2025-08-07-19-28-16","","4016","","","","",""
"","","","","","initialize-microphone","4","175140","0.0-4.0-0.0","75855CF14D7445938636BC9DC9893591","75855CF14D7445938636BC9DC9893591","f8c51160-c049-4381-96e5-2e9d4e4133fc","a9f3d40c-5730-405c-b25e-1034c4c56f3f","{""num_scrambled_semantic"":""8"",""num_scrambled_causal"":""4"",""num_scrambled_schematic"":""4"",""participantId"":""75855CF14D7445938636BC9DC9893591"",""assignmentId"":""f8c51160-c049-4381-96e5-2e9d4e4133fc"",""projectId"":""a9f3d40c-5730-405c-b25e-1034c4c56f3f""}","https://test12345.live/?num_scrambled_semantic=8&num_scrambled_causal=4&num_scrambled_schematic=4&participantId=75855CF14D7445938636BC9DC9893591&assignmentId=f8c51160-c049-4381-96e5-2e9d4e4133fc&projectId=a9f3d40c-5730-405c-b25e-1034c4c56f3f","75855CF14D7445938636BC9DC9893591-2025-08-07-19-28-16","","","e5d48d3c93ba859a14a6d69424fe203271bb3aaf0a775b03c28b56ea7fbc391a","","","",""
"","","","","","html-audio-response","5","290155","0.0-4.0-1.0","75855CF14D7445938636BC9DC9893591","75855CF14D7445938636BC9DC9893591","f8c51160-c049-4381-96e5-2e9d4e4133fc","a9f3d40c-5730-405c-b25e-1034c4c56f3f","{""num_scrambled_semantic"":""8"",""num_scrambled_causal"":""4"",""num_scrambled_schematic"":""4"",""participantId"":""75855CF14D7445938636BC9DC9893591"",""assignmentId"":""f8c51160-c049-4381-96e5-2e9d4e4133fc"",""projectId"":""a9f3d40c-5730-405c-b25e-1034c4c56f3f""}","https://test12345.live/?num_scrambled_semantic=8&num_scrambled_causal=4&num_scrambled_schematic=4&participantId=75855CF14D7445938636BC9DC9893591&assignmentId=f8c51160-c049-4381-96e5-2e9d4e4133fc&projectId=a9f3d40c-5730-405c-b25e-1034c4c56f3f","75855CF14D7445938636BC9DC9893591-2025-08-07-19-28-16","","4618","","<span style=""color: red; font-size: 24px""> NOW RECORDING</span>
        <p>Please test Microphone</p>","","4",""
"","","","","","html-button-response","6","293367","0.0-4.0-2.0","75855CF14D7445938636BC9DC9893591","75855CF14D7445938636BC9DC9893591","f8c51160-c049-4381-96e5-2e9d4e4133fc","a9f3d40c-5730-405c-b25e-1034c4c56f3f","{""num_scrambled_semantic"":""8"",""num_scrambled_causal"":""4"",""num_scrambled_schematic"":""4"",""participantId"":""75855CF14D7445938636BC9DC9893591"",""assignmentId"":""f8c51160-c049-4381-96e5-2e9d4e4133fc"",""projectId"":""a9f3d40c-5730-405c-b25e-1034c4c56f3f""}","https://test12345.live/?num_scrambled_semantic=8&num_scrambled_causal=4&num_scrambled_schematic=4&participantId=75855CF14D7445938636BC9DC9893591&assignmentId=f8c51160-c049-4381-96e5-2e9d4e4133fc&projectId=a9f3d40c-5730-405c-b25e-1034c4c56f3f","75855CF14D7445938636BC9DC9893591-2025-08-07-19-28-16","","3210","","<p style=""font-size:48px; color:red;"">Is Microphone OK?</p>","1","",""
"","","","","","instructions","7","309786","0.0-5.0","75855CF14D7445938636BC9DC9893591","75855CF14D7445938636BC9DC9893591","f8c51160-c049-4381-96e5-2e9d4e4133fc","a9f3d40c-5730-405c-b25e-1034c4c56f3f","{""num_scrambled_semantic"":""8"",""num_scrambled_causal"":""4"",""num_scrambled_schematic"":""4"",""participantId"":""75855CF14D7445938636BC9DC9893591"",""assignmentId"":""f8c51160-c049-4381-96e5-2e9d4e4133fc"",""projectId"":""a9f3d40c-5730-405c-b25e-1034c4c56f3f""}","https://test12345.live/?num_scrambled_semantic=8&num_scrambled_causal=4&num_scrambled_schematic=4&participantId=75855CF14D7445938636BC9DC9893591&assignmentId=f8c51160-c049-4381-96e5-2e9d4e4133fc&projectId=a9f3d40c-5730-405c-b25e-1034c4c56f3f","75855CF14D7445938636BC9DC9893591-2025-08-07-19-28-16","[{""page_index"":0,""viewing_time"":6755},{""page_index"":1,""viewing_time"":9664}]","16419","","","","",""
"","","","","","image-button-response","8","315797","0.0-6.0-0.0","75855CF14D7445938636BC9DC9893591","75855CF14D7445938636BC9DC9893591","f8c51160-c049-4381-96e5-2e9d4e4133fc","a9f3d40c-5730-405c-b25e-1034c4c56f3f","{""num_scrambled_semantic"":""8"",""num_scrambled_causal"":""4"",""num_scrambled_schematic"":""4"",""participantId"":""75855CF14D7445938636BC9DC9893591"",""assignmentId"":""f8c51160-c049-4381-96e5-2e9d4e4133fc"",""projectId"":""a9f3d40c-5730-405c-b25e-1034c4c56f3f""}","https://test12345.live/?num_scrambled_semantic=8&num_scrambled_causal=4&num_scrambled_schematic=4&participantId=75855CF14D7445938636BC9DC9893591&assignmentId=f8c51160-c049-4381-96e5-2e9d4e4133fc&projectId=a9f3d40c-5730-405c-b25e-1034c4c56f3f","75855CF14D7445938636BC9DC9893591-2025-08-07-19-28-16","","null","","images/instructions/movie_0.png","null","",""
"","","","","","image-button-response","9","320311","0.0-6.0-1.0-0.0","75855CF14D7445938636BC9DC9893591","75855CF14D7445938636BC9DC9893591","f8c51160-c049-4381-96e5-2e9d4e4133fc","a9f3d40c-5730-405c-b25e-1034c4c56f3f","{""num_scrambled_semantic"":""8"",""num_scrambled_causal"":""4"",""num_scrambled_schematic"":""4"",""participantId"":""75855CF14D7445938636BC9DC9893591"",""assignmentId"":""f8c51160-c049-4381-96e5-2e9d4e4133fc"",""projectId"":""a9f3d40c-5730-405c-b25e-1034c4c56f3f""}","https://test12345.live/?num_scrambled_semantic=8&num_scrambled_causal=4&num_scrambled_schematic=4&participantId=75855CF14D7445938636BC9DC9893591&assignmentId=f8c51160-c049-4381-96e5-2e9d4e4133fc&projectId=a9f3d40c-5730-405c-b25e-1034c4c56f3f","75855CF14D7445938636BC9DC9893591-2025-08-07-19-28-16","","null","","images/instructions/movie_1.png","null","",""
"","","","","","image-button-response","10","323501","0.0-6.0-1.0-1.0","75855CF14D7445938636BC9DC9893591","75855CF14D7445938636BC9DC9893591","f8c51160-c049-4381-96e5-2e9d4e4133fc","a9f3d40c-5730-405c-b25e-1034c4c56f3f","{""num_scrambled_semantic"":""8"",""num_scrambled_causal"":""4"",""num_scrambled_schematic"":""4"",""participantId"":""75855CF14D7445938636BC9DC9893591"",""assignmentId"":""f8c51160-c049-4381-96e5-2e9d4e4133fc"",""projectId"":""a9f3d40c-5730-405c-b25e-1034c4c56f3f""}","https://test12345.live/?num_scrambled_semantic=8&num_scrambled_causal=4&num_scrambled_schematic=4&participantId=75855CF14D7445938636BC9DC9893591&assignmentId=f8c51160-c049-4381-96e5-2e9d4e4133fc&projectId=a9f3d40c-5730-405c-b25e-1034c4c56f3f","75855CF14D7445938636BC9DC9893591-2025-08-07-19-28-16","","3188","","images/instructions/movie_1.png","0","",""
"","","","","","image-button-response","11","325304","0.0-6.0-1.0-2.0","75855CF14D7445938636BC9DC9893591","75855CF14D7445938636BC9DC9893591","f8c51160-c049-4381-96e5-2e9d4e4133fc","a9f3d40c-5730-405c-b25e-1034c4c56f3f","{""num_scrambled_semantic"":""8"",""num_scrambled_causal"":""4"",""num_scrambled_schematic"":""4"",""participantId"":""75855CF14D7445938636BC9DC9893591"",""assignmentId"":""f8c51160-c049-4381-96e5-2e9d4e4133fc"",""projectId"":""a9f3d40c-5730-405c-b25e-1034c4c56f3f""}","https://test12345.live/?num_scrambled_semantic=8&num_scrambled_causal=4&num_scrambled_schematic=4&participantId=75855CF14D7445938636BC9DC9893591&assignmentId=f8c51160-c049-4381-96e5-2e9d4e4133fc&projectId=a9f3d40c-5730-405c-b25e-1034c4c56f3f","75855CF14D7445938636BC9DC9893591-2025-08-07-19-28-16","","null","","[]","null","",""
"","","","","","image-button-response","12","329813","0.0-6.0-1.0-0.1","75855CF14D7445938636BC9DC9893591","75855CF14D7445938636BC9DC9893591","f8c51160-c049-4381-96e5-2e9d4e4133fc","a9f3d40c-5730-405c-b25e-1034c4c56f3f","{""num_scrambled_semantic"":""8"",""num_scrambled_causal"":""4"",""num_scrambled_schematic"":""4"",""participantId"":""75855CF14D7445938636BC9DC9893591"",""assignmentId"":""f8c51160-c049-4381-96e5-2e9d4e4133fc"",""projectId"":""a9f3d40c-5730-405c-b25e-1034c4c56f3f""}","https://test12345.live/?num_scrambled_semantic=8&num_scrambled_causal=4&num_scrambled_schematic=4&participantId=75855CF14D7445938636BC9DC9893591&assignmentId=f8c51160-c049-4381-96e5-2e9d4e4133fc&projectId=a9f3d40c-5730-405c-b25e-1034c4c56f3f","75855CF14D7445938636BC9DC9893591-2025-08-07-19-28-16","","null","","images/instructions/movie_2.png","null","",""
"","","","","","image-button-response","13","333814","0.0-6.0-1.0-1.1","75855CF14D7445938636BC9DC9893591","75855CF14D7445938636BC9DC9893591","f8c51160-c049-4381-96e5-2e9d4e4133fc","a9f3d40c-5730-405c-b25e-1034c4c56f3f","{""num_scrambled_semantic"":""8"",""num_scrambled_causal"":""4"",""num_scrambled_schematic"":""4"",""participantId"":""75855CF14D7445938636BC9DC9893591"",""assignmentId"":""f8c51160-c049-4381-96e5-2e9d4e4133fc"",""projectId"":""a9f3d40c-5730-405c-b25e-1034c4c56f3f""}","https://test12345.live/?num_scrambled_semantic=8&num_scrambled_causal=4&num_scrambled_schematic=4&participantId=75855CF14D7445938636BC9DC9893591&assignmentId=f8c51160-c049-4381-96e5-2e9d4e4133fc&projectId=a9f3d40c-5730-405c-b25e-1034c4c56f3f","75855CF14D7445938636BC9DC9893591-2025-08-07-19-28-16","","null","","images/instructions/movie_2.png","null","",""
"","","","","","image-button-response","14","335616","0.0-6.0-1.0-2.1","75855CF14D7445938636BC9DC9893591","75855CF14D7445938636BC9DC9893591","f8c51160-c049-4381-96e5-2e9d4e4133fc","a9f3d40c-5730-405c-b25e-1034c4c56f3f","{""num_scrambled_semantic"":""8"",""num_scrambled_causal"":""4"",""num_scrambled_schematic"":""4"",""participantId"":""75855CF14D7445938636BC9DC9893591"",""assignmentId"":""f8c51160-c049-4381-96e5-2e9d4e4133fc"",""projectId"":""a9f3d40c-5730-405c-b25e-1034c4c56f3f""}","https://test12345.live/?num_scrambled_semantic=8&num_scrambled_causal=4&num_scrambled_schematic=4&participantId=75855CF14D7445938636BC9DC9893591&assignmentId=f8c51160-c049-4381-96e5-2e9d4e4133fc&projectId=a9f3d40c-5730-405c-b25e-1034c4c56f3f","75855CF14D7445938636BC9DC9893591-2025-08-07-19-28-16","","null","","[]","null","",""
"","","","","","image-button-response","15","340129","0.0-6.0-1.0-0.2","75855CF14D7445938636BC9DC9893591","75855CF14D7445938636BC9DC9893591","f8c51160-c049-4381-96e5-2e9d4e4133fc","a9f3d40c-5730-405c-b25e-1034c4c56f3f","{""num_scrambled_semantic"":""8"",""num_scrambled_causal"":""4"",""num_scrambled_schematic"":""4"",""participantId"":""75855CF14D7445938636BC9DC9893591"",""assignmentId"":""f8c51160-c049-4381-96e5-2e9d4e4133fc"",""projectId"":""a9f3d40c-5730-405c-b25e-1034c4c56f3f""}","https://test12345.live/?num_scrambled_semantic=8&num_scrambled_causal=4&num_scrambled_schematic=4&participantId=75855CF14D7445938636BC9DC9893591&assignmentId=f8c51160-c049-4381-96e5-2e9d4e4133fc&projectId=a9f3d40c-5730-405c-b25e-1034c4c56f3f","75855CF14D7445938636BC9DC9893591-2025-08-07-19-28-16","","null","","images/instructions/movie_3.png","null","",""
"","","","","","image-button-response","16","342805","0.0-6.0-1.0-1.2","75855CF14D7445938636BC9DC9893591","75855CF14D7445938636BC9DC9893591","f8c51160-c049-4381-96e5-2e9d4e4133fc","a9f3d40c-5730-405c-b25e-1034c4c56f3f","{""num_scrambled_semantic"":""8"",""num_scrambled_causal"":""4"",""num_scrambled_schematic"":""4"",""participantId"":""75855CF14D7445938636BC9DC9893591"",""assignmentId"":""f8c51160-c049-4381-96e5-2e9d4e4133fc"",""projectId"":""a9f3d40c-5730-405c-b25e-1034c4c56f3f""}","https://test12345.live/?num_scrambled_semantic=8&num_scrambled_causal=4&num_scrambled_schematic=4&participantId=75855CF14D7445938636BC9DC9893591&assignmentId=f8c51160-c049-4381-96e5-2e9d4e4133fc&projectId=a9f3d40c-5730-405c-b25e-1034c4c56f3f","75855CF14D7445938636BC9DC9893591-2025-08-07-19-28-16","","2674","","images/instructions/movie_3.png","0","",""
"","","","","","image-button-response","17","344613","0.0-6.0-1.0-2.2","75855CF14D7445938636BC9DC9893591","75855CF14D7445938636BC9DC9893591","f8c51160-c049-4381-96e5-2e9d4e4133fc","a9f3d40c-5730-405c-b25e-1034c4c56f3f","{""num_scrambled_semantic"":""8"",""num_scrambled_causal"":""4"",""num_scrambled_schematic"":""4"",""participantId"":""75855CF14D7445938636BC9DC9893591"",""assignmentId"":""f8c51160-c049-4381-96e5-2e9d4e4133fc"",""projectId"":""a9f3d40c-5730-405c-b25e-1034c4c56f3f""}","https://test12345.live/?num_scrambled_semantic=8&num_scrambled_causal=4&num_scrambled_schematic=4&participantId=75855CF14D7445938636BC9DC9893591&assignmentId=f8c51160-c049-4381-96e5-2e9d4e4133fc&projectId=a9f3d40c-5730-405c-b25e-1034c4c56f3f","75855CF14D7445938636BC9DC9893591-2025-08-07-19-28-16","","null","","[]","null","",""
"","","","","","image-button-response","18","349121","0.0-6.0-1.0-0.3","75855CF14D7445938636BC9DC9893591","75855CF14D7445938636BC9DC9893591","f8c51160-c049-4381-96e5-2e9d4e4133fc","a9f3d40c-5730-405c-b25e-1034c4c56f3f","{""num_scrambled_semantic"":""8"",""num_scrambled_causal"":""4"",""num_scrambled_schematic"":""4"",""participantId"":""75855CF14D7445938636BC9DC9893591"",""assignmentId"":""f8c51160-c049-4381-96e5-2e9d4e4133fc"",""projectId"":""a9f3d40c-5730-405c-b25e-1034c4c56f3f""}","https://test12345.live/?num_scrambled_semantic=8&num_scrambled_causal=4&num_scrambled_schematic=4&participantId=75855CF14D7445938636BC9DC9893591&assignmentId=f8c51160-c049-4381-96e5-2e9d4e4133fc&projectId=a9f3d40c-5730-405c-b25e-1034c4c56f3f","75855CF14D7445938636BC9DC9893591-2025-08-07-19-28-16","","null","","images/instructions/movie_4.png","null","",""
"","","","","","image-button-response","19","351461","0.0-6.0-1.0-1.3","75855CF14D7445938636BC9DC9893591","75855CF14D7445938636BC9DC9893591","f8c51160-c049-4381-96e5-2e9d4e4133fc","a9f3d40c-5730-405c-b25e-1034c4c56f3f","{""num_scrambled_semantic"":""8"",""num_scrambled_causal"":""4"",""num_scrambled_schematic"":""4"",""participantId"":""75855CF14D7445938636BC9DC9893591"",""assignmentId"":""f8c51160-c049-4381-96e5-2e9d4e4133fc"",""projectId"":""a9f3d40c-5730-405c-b25e-1034c4c56f3f""}","https://test12345.live/?num_scrambled_semantic=8&num_scrambled_causal=4&num_scrambled_schematic=4&participantId=75855CF14D7445938636BC9DC9893591&assignmentId=f8c51160-c049-4381-96e5-2e9d4e4133fc&projectId=a9f3d40c-5730-405c-b25e-1034c4c56f3f","75855CF14D7445938636BC9DC9893591-2025-08-07-19-28-16","","2340","","images/instructions/movie_4.png","0","",""
"","","","","","image-button-response","20","353274","0.0-6.0-1.0-2.3","75855CF14D7445938636BC9DC9893591","75855CF14D7445938636BC9DC9893591","f8c51160-c049-4381-96e5-2e9d4e4133fc","a9f3d40c-5730-405c-b25e-1034c4c56f3f","{""num_scrambled_semantic"":""8"",""num_scrambled_causal"":""4"",""num_scrambled_schematic"":""4"",""participantId"":""75855CF14D7445938636BC9DC9893591"",""assignmentId"":""f8c51160-c049-4381-96e5-2e9d4e4133fc"",""projectId"":""a9f3d40c-5730-405c-b25e-1034c4c56f3f""}","https://test12345.live/?num_scrambled_semantic=8&num_scrambled_causal=4&num_scrambled_schematic=4&participantId=75855CF14D7445938636BC9DC9893591&assignmentId=f8c51160-c049-4381-96e5-2e9d4e4133fc&projectId=a9f3d40c-5730-405c-b25e-1034c4c56f3f","75855CF14D7445938636BC9DC9893591-2025-08-07-19-28-16","","null","","[]","null","",""
"","","","","","instructions","21","363358","0.0-7.0","75855CF14D7445938636BC9DC9893591","75855CF14D7445938636BC9DC9893591","f8c51160-c049-4381-96e5-2e9d4e4133fc","a9f3d40c-5730-405c-b25e-1034c4c56f3f","{""num_scrambled_semantic"":""8"",""num_scrambled_causal"":""4"",""num_scrambled_schematic"":""4"",""participantId"":""75855CF14D7445938636BC9DC9893591"",""assignmentId"":""f8c51160-c049-4381-96e5-2e9d4e4133fc"",""projectId"":""a9f3d40c-5730-405c-b25e-1034c4c56f3f""}","https://test12345.live/?num_scrambled_semantic=8&num_scrambled_causal=4&num_scrambled_schematic=4&participantId=75855CF14D7445938636BC9DC9893591&assignmentId=f8c51160-c049-4381-96e5-2e9d4e4133fc&projectId=a9f3d40c-5730-405c-b25e-1034c4c56f3f","75855CF14D7445938636BC9DC9893591-2025-08-07-19-28-16","[{""page_index"":0,""viewing_time"":8186},{""page_index"":1,""viewing_time"":1897}]","10084","","","","",""
"","","","","","html-audio-response","22","414372","0.0-8.0","75855CF14D7445938636BC9DC9893591","75855CF14D7445938636BC9DC9893591","f8c51160-c049-4381-96e5-2e9d4e4133fc","a9f3d40c-5730-405c-b25e-1034c4c56f3f","{""num_scrambled_semantic"":""8"",""num_scrambled_causal"":""4"",""num_scrambled_schematic"":""4"",""participantId"":""75855CF14D7445938636BC9DC9893591"",""assignmentId"":""f8c51160-c049-4381-96e5-2e9d4e4133fc"",""projectId"":""a9f3d40c-5730-405c-b25e-1034c4c56f3f""}","https://test12345.live/?num_scrambled_semantic=8&num_scrambled_causal=4&num_scrambled_schematic=4&participantId=75855CF14D7445938636BC9DC9893591&assignmentId=f8c51160-c049-4381-96e5-2e9d4e4133fc&projectId=a9f3d40c-5730-405c-b25e-1034c4c56f3f","75855CF14D7445938636BC9DC9893591-2025-08-07-19-28-16","","7115","","[""<span style=\""color: red; font-size: 24px\""> NOW RECORDING</span><p>Please say out loud all the images you saw, as many as you can remember. The images can be said in any order.</p>""]","","10",""
"","","","","","instructions","23","416764","0.0-9.0","75855CF14D7445938636BC9DC9893591","75855CF14D7445938636BC9DC9893591","f8c51160-c049-4381-96e5-2e9d4e4133fc","a9f3d40c-5730-405c-b25e-1034c4c56f3f","{""num_scrambled_semantic"":""8"",""num_scrambled_causal"":""4"",""num_scrambled_schematic"":""4"",""participantId"":""75855CF14D7445938636BC9DC9893591"",""assignmentId"":""f8c51160-c049-4381-96e5-2e9d4e4133fc"",""projectId"":""a9f3d40c-5730-405c-b25e-1034c4c56f3f""}","https://test12345.live/?num_scrambled_semantic=8&num_scrambled_causal=4&num_scrambled_schematic=4&participantId=75855CF14D7445938636BC9DC9893591&assignmentId=f8c51160-c049-4381-96e5-2e9d4e4133fc&projectId=a9f3d40c-5730-405c-b25e-1034c4c56f3f","75855CF14D7445938636BC9DC9893591-2025-08-07-19-28-16","[{""page_index"":0,""viewing_time"":2389}]","2389","","","","",""
"","","","","","image-button-response","24","422772","0.0-10.0-0.0","75855CF14D7445938636BC9DC9893591","75855CF14D7445938636BC9DC9893591","f8c51160-c049-4381-96e5-2e9d4e4133fc","a9f3d40c-5730-405c-b25e-1034c4c56f3f","{""num_scrambled_semantic"":""8"",""num_scrambled_causal"":""4"",""num_scrambled_schematic"":""4"",""participantId"":""75855CF14D7445938636BC9DC9893591"",""assignmentId"":""f8c51160-c049-4381-96e5-2e9d4e4133fc"",""projectId"":""a9f3d40c-5730-405c-b25e-1034c4c56f3f""}","https://test12345.live/?num_scrambled_semantic=8&num_scrambled_causal=4&num_scrambled_schematic=4&participantId=75855CF14D7445938636BC9DC9893591&assignmentId=f8c51160-c049-4381-96e5-2e9d4e4133fc&projectId=a9f3d40c-5730-405c-b25e-1034c4c56f3f","75855CF14D7445938636BC9DC9893591-2025-08-07-19-28-16","","null","","images/semantic_sequence/housework_semantic/housework_semantic_0.png","null","",""
"","","","","","image-button-response","25","427279","0.0-10.0-1.0-0.0","75855CF14D7445938636BC9DC9893591","75855CF14D7445938636BC9DC9893591","f8c51160-c049-4381-96e5-2e9d4e4133fc","a9f3d40c-5730-405c-b25e-1034c4c56f3f","{""num_scrambled_semantic"":""8"",""num_scrambled_causal"":""4"",""num_scrambled_schematic"":""4"",""participantId"":""75855CF14D7445938636BC9DC9893591"",""assignmentId"":""f8c51160-c049-4381-96e5-2e9d4e4133fc"",""projectId"":""a9f3d40c-5730-405c-b25e-1034c4c56f3f""}","https://test12345.live/?num_scrambled_semantic=8&num_scrambled_causal=4&num_scrambled_schematic=4&participantId=75855CF14D7445938636BC9DC9893591&assignmentId=f8c51160-c049-4381-96e5-2e9d4e4133fc&projectId=a9f3d40c-5730-405c-b25e-1034c4c56f3f","75855CF14D7445938636BC9DC9893591-2025-08-07-19-28-16","","null","","images/semantic_sequence/housework_semantic/housework_semantic_3.png","null","",""
"","","","","","image-button-response","26","428876","0.0-10.0-1.0-1.0","75855CF14D7445938636BC9DC9893591","75855CF14D7445938636BC9DC9893591","f8c51160-c049-4381-96e5-2e9d4e4133fc","a9f3d40c-5730-405c-b25e-1034c4c56f3f","{""num_scrambled_semantic"":""8"",""num_scrambled_causal"":""4"",""num_scrambled_schematic"":""4"",""participantId"":""75855CF14D7445938636BC9DC9893591"",""assignmentId"":""f8c51160-c049-4381-96e5-2e9d4e4133fc"",""projectId"":""a9f3d40c-5730-405c-b25e-1034c4c56f3f""}","https://test12345.live/?num_scrambled_semantic=8&num_scrambled_causal=4&num_scrambled_schematic=4&participantId=75855CF14D7445938636BC9DC9893591&assignmentId=f8c51160-c049-4381-96e5-2e9d4e4133fc&projectId=a9f3d40c-5730-405c-b25e-1034c4c56f3f","75855CF14D7445938636BC9DC9893591-2025-08-07-19-28-16","","1596","","images/semantic_sequence/housework_semantic/housework_semantic_3.png","0","",""
"","","","","","image-button-response","27","430685","0.0-10.0-1.0-2.0","75855CF14D7445938636BC9DC9893591","75855CF14D7445938636BC9DC9893591","f8c51160-c049-4381-96e5-2e9d4e4133fc","a9f3d40c-5730-405c-b25e-1034c4c56f3f","{""num_scrambled_semantic"":""8"",""num_scrambled_causal"":""4"",""num_scrambled_schematic"":""4"",""participantId"":""75855CF14D7445938636BC9DC9893591"",""assignmentId"":""f8c51160-c049-4381-96e5-2e9d4e4133fc"",""projectId"":""a9f3d40c-5730-405c-b25e-1034c4c56f3f""}","https://test12345.live/?num_scrambled_semantic=8&num_scrambled_causal=4&num_scrambled_schematic=4&participantId=75855CF14D7445938636BC9DC9893591&assignmentId=f8c51160-c049-4381-96e5-2e9d4e4133fc&projectId=a9f3d40c-5730-405c-b25e-1034c4c56f3f","75855CF14D7445938636BC9DC9893591-2025-08-07-19-28-16","","null","","[]","null","",""
"","","","","","image-button-response","28","435187","0.0-10.0-1.0-0.1","75855CF14D7445938636BC9DC9893591","75855CF14D7445938636BC9DC9893591","f8c51160-c049-4381-96e5-2e9d4e4133fc","a9f3d40c-5730-405c-b25e-1034c4c56f3f","{""num_scrambled_semantic"":""8"",""num_scrambled_causal"":""4"",""num_scrambled_schematic"":""4"",""participantId"":""75855CF14D7445938636BC9DC9893591"",""assignmentId"":""f8c51160-c049-4381-96e5-2e9d4e4133fc"",""projectId"":""a9f3d40c-5730-405c-b25e-1034c4c56f3f""}","https://test12345.live/?num_scrambled_semantic=8&num_scrambled_causal=4&num_scrambled_schematic=4&participantId=75855CF14D7445938636BC9DC9893591&assignmentId=f8c51160-c049-4381-96e5-2e9d4e4133fc&projectId=a9f3d40c-5730-405c-b25e-1034c4c56f3f","75855CF14D7445938636BC9DC9893591-2025-08-07-19-28-16","","null","","images/semantic_sequence/housework_semantic/housework_semantic_8.png","null","",""
"","","","","","image-button-response","29","436358","0.0-10.0-1.0-1.1","75855CF14D7445938636BC9DC9893591","75855CF14D7445938636BC9DC9893591","f8c51160-c049-4381-96e5-2e9d4e4133fc","a9f3d40c-5730-405c-b25e-1034c4c56f3f","{""num_scrambled_semantic"":""8"",""num_scrambled_causal"":""4"",""num_scrambled_schematic"":""4"",""participantId"":""75855CF14D7445938636BC9DC9893591"",""assignmentId"":""f8c51160-c049-4381-96e5-2e9d4e4133fc"",""projectId"":""a9f3d40c-5730-405c-b25e-1034c4c56f3f""}","https://test12345.live/?num_scrambled_semantic=8&num_scrambled_causal=4&num_scrambled_schematic=4&participantId=75855CF14D7445938636BC9DC9893591&assignmentId=f8c51160-c049-4381-96e5-2e9d4e4133fc&projectId=a9f3d40c-5730-405c-b25e-1034c4c56f3f","75855CF14D7445938636BC9DC9893591-2025-08-07-19-28-16","","1170","","images/semantic_sequence/housework_semantic/housework_semantic_8.png","0","",""
"","","","","","image-button-response","30","438165","0.0-10.0-1.0-2.1","75855CF14D7445938636BC9DC9893591","75855CF14D7445938636BC9DC9893591","f8c51160-c049-4381-96e5-2e9d4e4133fc","a9f3d40c-5730-405c-b25e-1034c4c56f3f","{""num_scrambled_semantic"":""8"",""num_scrambled_causal"":""4"",""num_scrambled_schematic"":""4"",""participantId"":""75855CF14D7445938636BC9DC9893591"",""assignmentId"":""f8c51160-c049-4381-96e5-2e9d4e4133fc"",""projectId"":""a9f3d40c-5730-405c-b25e-1034c4c56f3f""}","https://test12345.live/?num_scrambled_semantic=8&num_scrambled_causal=4&num_scrambled_schematic=4&participantId=75855CF14D7445938636BC9DC9893591&assignmentId=f8c51160-c049-4381-96e5-2e9d4e4133fc&projectId=a9f3d40c-5730-405c-b25e-1034c4c56f3f","75855CF14D7445938636BC9DC9893591-2025-08-07-19-28-16","","null","","[]","null","",""
"","","","","","image-button-response","31","442666","0.0-10.0-1.0-0.2","75855CF14D7445938636BC9DC9893591","75855CF14D7445938636BC9DC9893591","f8c51160-c049-4381-96e5-2e9d4e4133fc","a9f3d40c-5730-405c-b25e-1034c4c56f3f","{""num_scrambled_semantic"":""8"",""num_scrambled_causal"":""4"",""num_scrambled_schematic"":""4"",""participantId"":""75855CF14D7445938636BC9DC9893591"",""assignmentId"":""f8c51160-c049-4381-96e5-2e9d4e4133fc"",""projectId"":""a9f3d40c-5730-405c-b25e-1034c4c56f3f""}","https://test12345.live/?num_scrambled_semantic=8&num_scrambled_causal=4&num_scrambled_schematic=4&participantId=75855CF14D7445938636BC9DC9893591&assignmentId=f8c51160-c049-4381-96e5-2e9d4e4133fc&projectId=a9f3d40c-5730-405c-b25e-1034c4c56f3f","75855CF14D7445938636BC9DC9893591-2025-08-07-19-28-16","","null","","images/semantic_sequence/housework_semantic/housework_semantic_6.png","null","",""
"","","","","","image-button-response","32","445625","0.0-10.0-1.0-1.2","75855CF14D7445938636BC9DC9893591","75855CF14D7445938636BC9DC9893591","f8c51160-c049-4381-96e5-2e9d4e4133fc","a9f3d40c-5730-405c-b25e-1034c4c56f3f","{""num_scrambled_semantic"":""8"",""num_scrambled_causal"":""4"",""num_scrambled_schematic"":""4"",""participantId"":""75855CF14D7445938636BC9DC9893591"",""assignmentId"":""f8c51160-c049-4381-96e5-2e9d4e4133fc"",""projectId"":""a9f3d40c-5730-405c-b25e-1034c4c56f3f""}","https://test12345.live/?num_scrambled_semantic=8&num_scrambled_causal=4&num_scrambled_schematic=4&participantId=75855CF14D7445938636BC9DC9893591&assignmentId=f8c51160-c049-4381-96e5-2e9d4e4133fc&projectId=a9f3d40c-5730-405c-b25e-1034c4c56f3f","75855CF14D7445938636BC9DC9893591-2025-08-07-19-28-16","","2958","","images/semantic_sequence/housework_semantic/housework_semantic_6.png","0","",""
"","","","","","image-button-response","33","447438","0.0-10.0-1.0-2.2","75855CF14D7445938636BC9DC9893591","75855CF14D7445938636BC9DC9893591","f8c51160-c049-4381-96e5-2e9d4e4133fc","a9f3d40c-5730-405c-b25e-1034c4c56f3f","{""num_scrambled_semantic"":""8"",""num_scrambled_causal"":""4"",""num_scrambled_schematic"":""4"",""participantId"":""75855CF14D7445938636BC9DC9893591"",""assignmentId"":""f8c51160-c049-4381-96e5-2e9d4e4133fc"",""projectId"":""a9f3d40c-5730-405c-b25e-1034c4c56f3f""}","https://test12345.live/?num_scrambled_semantic=8&num_scrambled_causal=4&num_scrambled_schematic=4&participantId=75855CF14D7445938636BC9DC9893591&assignmentId=f8c51160-c049-4381-96e5-2e9d4e4133fc&projectId=a9f3d40c-5730-405c-b25e-1034c4c56f3f","75855CF14D7445938636BC9DC9893591-2025-08-07-19-28-16","","null","","[]","null","",""
"","","","","","image-button-response","34","451943","0.0-10.0-1.0-0.3","75855CF14D7445938636BC9DC9893591","75855CF14D7445938636BC9DC9893591","f8c51160-c049-4381-96e5-2e9d4e4133fc","a9f3d40c-5730-405c-b25e-1034c4c56f3f","{""num_scrambled_semantic"":""8"",""num_scrambled_causal"":""4"",""num_scrambled_schematic"":""4"",""participantId"":""75855CF14D7445938636BC9DC9893591"",""assignmentId"":""f8c51160-c049-4381-96e5-2e9d4e4133fc"",""projectId"":""a9f3d40c-5730-405c-b25e-1034c4c56f3f""}","https://test12345.live/?num_scrambled_semantic=8&num_scrambled_causal=4&num_scrambled_schematic=4&participantId=75855CF14D7445938636BC9DC9893591&assignmentId=f8c51160-c049-4381-96e5-2e9d4e4133fc&projectId=a9f3d40c-5730-405c-b25e-1034c4c56f3f","75855CF14D7445938636BC9DC9893591-2025-08-07-19-28-16","","null","","images/semantic_sequence/housework_semantic/housework_semantic_1.png","null","",""
"","","","","","image-button-response","35","454037","0.0-10.0-1.0-1.3","75855CF14D7445938636BC9DC9893591","75855CF14D7445938636BC9DC9893591","f8c51160-c049-4381-96e5-2e9d4e4133fc","a9f3d40c-5730-405c-b25e-1034c4c56f3f","{""num_scrambled_semantic"":""8"",""num_scrambled_causal"":""4"",""num_scrambled_schematic"":""4"",""participantId"":""75855CF14D7445938636BC9DC9893591"",""assignmentId"":""f8c51160-c049-4381-96e5-2e9d4e4133fc"",""projectId"":""a9f3d40c-5730-405c-b25e-1034c4c56f3f""}","https://test12345.live/?num_scrambled_semantic=8&num_scrambled_causal=4&num_scrambled_schematic=4&participantId=75855CF14D7445938636BC9DC9893591&assignmentId=f8c51160-c049-4381-96e5-2e9d4e4133fc&projectId=a9f3d40c-5730-405c-b25e-1034c4c56f3f","75855CF14D7445938636BC9DC9893591-2025-08-07-19-28-16","","2093","","images/semantic_sequence/housework_semantic/housework_semantic_1.png","0","",""
"","","","","","image-button-response","36","455846","0.0-10.0-1.0-2.3","75855CF14D7445938636BC9DC9893591","75855CF14D7445938636BC9DC9893591","f8c51160-c049-4381-96e5-2e9d4e4133fc","a9f3d40c-5730-405c-b25e-1034c4c56f3f","{""num_scrambled_semantic"":""8"",""num_scrambled_causal"":""4"",""num_scrambled_schematic"":""4"",""participantId"":""75855CF14D7445938636BC9DC9893591"",""assignmentId"":""f8c51160-c049-4381-96e5-2e9d4e4133fc"",""projectId"":""a9f3d40c-5730-405c-b25e-1034c4c56f3f""}","https://test12345.live/?num_scrambled_semantic=8&num_scrambled_causal=4&num_scrambled_schematic=4&participantId=75855CF14D7445938636BC9DC9893591&assignmentId=f8c51160-c049-4381-96e5-2e9d4e4133fc&projectId=a9f3d40c-5730-405c-b25e-1034c4c56f3f","75855CF14D7445938636BC9DC9893591-2025-08-07-19-28-16","","null","","[]","null","",""
"","","","","","image-button-response","37","460354","0.0-10.0-1.0-0.4","75855CF14D7445938636BC9DC9893591","75855CF14D7445938636BC9DC9893591","f8c51160-c049-4381-96e5-2e9d4e4133fc","a9f3d40c-5730-405c-b25e-1034c4c56f3f","{""num_scrambled_semantic"":""8"",""num_scrambled_causal"":""4"",""num_scrambled_schematic"":""4"",""participantId"":""75855CF14D7445938636BC9DC9893591"",""assignmentId"":""f8c51160-c049-4381-96e5-2e9d4e4133fc"",""projectId"":""a9f3d40c-5730-405c-b25e-1034c4c56f3f""}","https://test12345.live/?num_scrambled_semantic=8&num_scrambled_causal=4&num_scrambled_schematic=4&participantId=75855CF14D7445938636BC9DC9893591&assignmentId=f8c51160-c049-4381-96e5-2e9d4e4133fc&projectId=a9f3d40c-5730-405c-b25e-1034c4c56f3f","75855CF14D7445938636BC9DC9893591-2025-08-07-19-28-16","","null","","images/semantic_sequence/housework_semantic/housework_semantic_ten.png","null","",""
"","","","","","image-button-response","38","462368","0.0-10.0-1.0-1.4","75855CF14D7445938636BC9DC9893591","75855CF14D7445938636BC9DC9893591","f8c51160-c049-4381-96e5-2e9d4e4133fc","a9f3d40c-5730-405c-b25e-1034c4c56f3f","{""num_scrambled_semantic"":""8"",""num_scrambled_causal"":""4"",""num_scrambled_schematic"":""4"",""participantId"":""75855CF14D7445938636BC9DC9893591"",""assignmentId"":""f8c51160-c049-4381-96e5-2e9d4e4133fc"",""projectId"":""a9f3d40c-5730-405c-b25e-1034c4c56f3f""}","https://test12345.live/?num_scrambled_semantic=8&num_scrambled_causal=4&num_scrambled_schematic=4&participantId=75855CF14D7445938636BC9DC9893591&assignmentId=f8c51160-c049-4381-96e5-2e9d4e4133fc&projectId=a9f3d40c-5730-405c-b25e-1034c4c56f3f","75855CF14D7445938636BC9DC9893591-2025-08-07-19-28-16","","2012","","images/semantic_sequence/housework_semantic/housework_semantic_ten.png","0","",""
"","","","","","image-button-response","39","464184","0.0-10.0-1.0-2.4","75855CF14D7445938636BC9DC9893591","75855CF14D7445938636BC9DC9893591","f8c51160-c049-4381-96e5-2e9d4e4133fc","a9f3d40c-5730-405c-b25e-1034c4c56f3f","{""num_scrambled_semantic"":""8"",""num_scrambled_causal"":""4"",""num_scrambled_schematic"":""4"",""participantId"":""75855CF14D7445938636BC9DC9893591"",""assignmentId"":""f8c51160-c049-4381-96e5-2e9d4e4133fc"",""projectId"":""a9f3d40c-5730-405c-b25e-1034c4c56f3f""}","https://test12345.live/?num_scrambled_semantic=8&num_scrambled_causal=4&num_scrambled_schematic=4&participantId=75855CF14D7445938636BC9DC9893591&assignmentId=f8c51160-c049-4381-96e5-2e9d4e4133fc&projectId=a9f3d40c-5730-405c-b25e-1034c4c56f3f","75855CF14D7445938636BC9DC9893591-2025-08-07-19-28-16","","null","","[]","null","",""
"","","","","","image-button-response","40","468698","0.0-10.0-1.0-0.5","75855CF14D7445938636BC9DC9893591","75855CF14D7445938636BC9DC9893591","f8c51160-c049-4381-96e5-2e9d4e4133fc","a9f3d40c-5730-405c-b25e-1034c4c56f3f","{""num_scrambled_semantic"":""8"",""num_scrambled_causal"":""4"",""num_scrambled_schematic"":""4"",""participantId"":""75855CF14D7445938636BC9DC9893591"",""assignmentId"":""f8c51160-c049-4381-96e5-2e9d4e4133fc"",""projectId"":""a9f3d40c-5730-405c-b25e-1034c4c56f3f""}","https://test12345.live/?num_scrambled_semantic=8&num_scrambled_causal=4&num_scrambled_schematic=4&participantId=75855CF14D7445938636BC9DC9893591&assignmentId=f8c51160-c049-4381-96e5-2e9d4e4133fc&projectId=a9f3d40c-5730-405c-b25e-1034c4c56f3f","75855CF14D7445938636BC9DC9893591-2025-08-07-19-28-16","","null","","images/semantic_sequence/housework_semantic/housework_semantic_7.png","null","",""
"","","","","","image-button-response","41","471225","0.0-10.0-1.0-1.5","75855CF14D7445938636BC9DC9893591","75855CF14D7445938636BC9DC9893591","f8c51160-c049-4381-96e5-2e9d4e4133fc","a9f3d40c-5730-405c-b25e-1034c4c56f3f","{""num_scrambled_semantic"":""8"",""num_scrambled_causal"":""4"",""num_scrambled_schematic"":""4"",""participantId"":""75855CF14D7445938636BC9DC9893591"",""assignmentId"":""f8c51160-c049-4381-96e5-2e9d4e4133fc"",""projectId"":""a9f3d40c-5730-405c-b25e-1034c4c56f3f""}","https://test12345.live/?num_scrambled_semantic=8&num_scrambled_causal=4&num_scrambled_schematic=4&participantId=75855CF14D7445938636BC9DC9893591&assignmentId=f8c51160-c049-4381-96e5-2e9d4e4133fc&projectId=a9f3d40c-5730-405c-b25e-1034c4c56f3f","75855CF14D7445938636BC9DC9893591-2025-08-07-19-28-16","","2526","","images/semantic_sequence/housework_semantic/housework_semantic_7.png","0","",""
"","","","","","image-button-response","42","473038","0.0-10.0-1.0-2.5","75855CF14D7445938636BC9DC9893591","75855CF14D7445938636BC9DC9893591","f8c51160-c049-4381-96e5-2e9d4e4133fc","a9f3d40c-5730-405c-b25e-1034c4c56f3f","{""num_scrambled_semantic"":""8"",""num_scrambled_causal"":""4"",""num_scrambled_schematic"":""4"",""participantId"":""75855CF14D7445938636BC9DC9893591"",""assignmentId"":""f8c51160-c049-4381-96e5-2e9d4e4133fc"",""projectId"":""a9f3d40c-5730-405c-b25e-1034c4c56f3f""}","https://test12345.live/?num_scrambled_semantic=8&num_scrambled_causal=4&num_scrambled_schematic=4&participantId=75855CF14D7445938636BC9DC9893591&assignmentId=f8c51160-c049-4381-96e5-2e9d4e4133fc&projectId=a9f3d40c-5730-405c-b25e-1034c4c56f3f","75855CF14D7445938636BC9DC9893591-2025-08-07-19-28-16","","null","","[]","null","",""
"","","","","","image-button-response","43","477548","0.0-10.0-1.0-0.6","75855CF14D7445938636BC9DC9893591","75855CF14D7445938636BC9DC9893591","f8c51160-c049-4381-96e5-2e9d4e4133fc","a9f3d40c-5730-405c-b25e-1034c4c56f3f","{""num_scrambled_semantic"":""8"",""num_scrambled_causal"":""4"",""num_scrambled_schematic"":""4"",""participantId"":""75855CF14D7445938636BC9DC9893591"",""assignmentId"":""f8c51160-c049-4381-96e5-2e9d4e4133fc"",""projectId"":""a9f3d40c-5730-405c-b25e-1034c4c56f3f""}","https://test12345.live/?num_scrambled_semantic=8&num_scrambled_causal=4&num_scrambled_schematic=4&participantId=75855CF14D7445938636BC9DC9893591&assignmentId=f8c51160-c049-4381-96e5-2e9d4e4133fc&projectId=a9f3d40c-5730-405c-b25e-1034c4c56f3f","75855CF14D7445938636BC9DC9893591-2025-08-07-19-28-16","","null","","images/semantic_sequence/housework_semantic/housework_semantic_5.png","null","",""
"","","","","","image-button-response","44","478919","0.0-10.0-1.0-1.6","75855CF14D7445938636BC9DC9893591","75855CF14D7445938636BC9DC9893591","f8c51160-c049-4381-96e5-2e9d4e4133fc","a9f3d40c-5730-405c-b25e-1034c4c56f3f","{""num_scrambled_semantic"":""8"",""num_scrambled_causal"":""4"",""num_scrambled_schematic"":""4"",""participantId"":""75855CF14D7445938636BC9DC9893591"",""assignmentId"":""f8c51160-c049-4381-96e5-2e9d4e4133fc"",""projectId"":""a9f3d40c-5730-405c-b25e-1034c4c56f3f""}","https://test12345.live/?num_scrambled_semantic=8&num_scrambled_causal=4&num_scrambled_schematic=4&participantId=75855CF14D7445938636BC9DC9893591&assignmentId=f8c51160-c049-4381-96e5-2e9d4e4133fc&projectId=a9f3d40c-5730-405c-b25e-1034c4c56f3f","75855CF14D7445938636BC9DC9893591-2025-08-07-19-28-16","","1370","","images/semantic_sequence/housework_semantic/housework_semantic_5.png","0","",""
"","","","","","image-button-response","45","480731","0.0-10.0-1.0-2.6","75855CF14D7445938636BC9DC9893591","75855CF14D7445938636BC9DC9893591","f8c51160-c049-4381-96e5-2e9d4e4133fc","a9f3d40c-5730-405c-b25e-1034c4c56f3f","{""num_scrambled_semantic"":""8"",""num_scrambled_causal"":""4"",""num_scrambled_schematic"":""4"",""participantId"":""75855CF14D7445938636BC9DC9893591"",""assignmentId"":""f8c51160-c049-4381-96e5-2e9d4e4133fc"",""projectId"":""a9f3d40c-5730-405c-b25e-1034c4c56f3f""}","https://test12345.live/?num_scrambled_semantic=8&num_scrambled_causal=4&num_scrambled_schematic=4&participantId=75855CF14D7445938636BC9DC9893591&assignmentId=f8c51160-c049-4381-96e5-2e9d4e4133fc&projectId=a9f3d40c-5730-405c-b25e-1034c4c56f3f","75855CF14D7445938636BC9DC9893591-2025-08-07-19-28-16","","null","","[]","null","",""
"","","","","","image-button-response","46","485235","0.0-10.0-1.0-0.7","75855CF14D7445938636BC9DC9893591","75855CF14D7445938636BC9DC9893591","f8c51160-c049-4381-96e5-2e9d4e4133fc","a9f3d40c-5730-405c-b25e-1034c4c56f3f","{""num_scrambled_semantic"":""8"",""num_scrambled_causal"":""4"",""num_scrambled_schematic"":""4"",""participantId"":""75855CF14D7445938636BC9DC9893591"",""assignmentId"":""f8c51160-c049-4381-96e5-2e9d4e4133fc"",""projectId"":""a9f3d40c-5730-405c-b25e-1034c4c56f3f""}","https://test12345.live/?num_scrambled_semantic=8&num_scrambled_causal=4&num_scrambled_schematic=4&participantId=75855CF14D7445938636BC9DC9893591&assignmentId=f8c51160-c049-4381-96e5-2e9d4e4133fc&projectId=a9f3d40c-5730-405c-b25e-1034c4c56f3f","75855CF14D7445938636BC9DC9893591-2025-08-07-19-28-16","","null","","images/semantic_sequence/housework_semantic/housework_semantic_9.png","null","",""
"","","","","","image-button-response","47","488243","0.0-10.0-1.0-1.7","75855CF14D7445938636BC9DC9893591","75855CF14D7445938636BC9DC9893591","f8c51160-c049-4381-96e5-2e9d4e4133fc","a9f3d40c-5730-405c-b25e-1034c4c56f3f","{""num_scrambled_semantic"":""8"",""num_scrambled_causal"":""4"",""num_scrambled_schematic"":""4"",""participantId"":""75855CF14D7445938636BC9DC9893591"",""assignmentId"":""f8c51160-c049-4381-96e5-2e9d4e4133fc"",""projectId"":""a9f3d40c-5730-405c-b25e-1034c4c56f3f""}","https://test12345.live/?num_scrambled_semantic=8&num_scrambled_causal=4&num_scrambled_schematic=4&participantId=75855CF14D7445938636BC9DC9893591&assignmentId=f8c51160-c049-4381-96e5-2e9d4e4133fc&projectId=a9f3d40c-5730-405c-b25e-1034c4c56f3f","75855CF14D7445938636BC9DC9893591-2025-08-07-19-28-16","","3006","","images/semantic_sequence/housework_semantic/housework_semantic_9.png","0","",""
"","","","","","image-button-response","48","490056","0.0-10.0-1.0-2.7","75855CF14D7445938636BC9DC9893591","75855CF14D7445938636BC9DC9893591","f8c51160-c049-4381-96e5-2e9d4e4133fc","a9f3d40c-5730-405c-b25e-1034c4c56f3f","{""num_scrambled_semantic"":""8"",""num_scrambled_causal"":""4"",""num_scrambled_schematic"":""4"",""participantId"":""75855CF14D7445938636BC9DC9893591"",""assignmentId"":""f8c51160-c049-4381-96e5-2e9d4e4133fc"",""projectId"":""a9f3d40c-5730-405c-b25e-1034c4c56f3f""}","https://test12345.live/?num_scrambled_semantic=8&num_scrambled_causal=4&num_scrambled_schematic=4&participantId=75855CF14D7445938636BC9DC9893591&assignmentId=f8c51160-c049-4381-96e5-2e9d4e4133fc&projectId=a9f3d40c-5730-405c-b25e-1034c4c56f3f","75855CF14D7445938636BC9DC9893591-2025-08-07-19-28-16","","null","","[]","null","",""
"","","","","","image-button-response","49","494569","0.0-10.0-1.0-0.8","75855CF14D7445938636BC9DC9893591","75855CF14D7445938636BC9DC9893591","f8c51160-c049-4381-96e5-2e9d4e4133fc","a9f3d40c-5730-405c-b25e-1034c4c56f3f","{""num_scrambled_semantic"":""8"",""num_scrambled_causal"":""4"",""num_scrambled_schematic"":""4"",""participantId"":""75855CF14D7445938636BC9DC9893591"",""assignmentId"":""f8c51160-c049-4381-96e5-2e9d4e4133fc"",""projectId"":""a9f3d40c-5730-405c-b25e-1034c4c56f3f""}","https://test12345.live/?num_scrambled_semantic=8&num_scrambled_causal=4&num_scrambled_schematic=4&participantId=75855CF14D7445938636BC9DC9893591&assignmentId=f8c51160-c049-4381-96e5-2e9d4e4133fc&projectId=a9f3d40c-5730-405c-b25e-1034c4c56f3f","75855CF14D7445938636BC9DC9893591-2025-08-07-19-28-16","","null","","images/semantic_sequence/housework_semantic/housework_semantic_4.png","null","",""
"","","","","","image-button-response","50","496716","0.0-10.0-1.0-1.8","75855CF14D7445938636BC9DC9893591","75855CF14D7445938636BC9DC9893591","f8c51160-c049-4381-96e5-2e9d4e4133fc","a9f3d40c-5730-405c-b25e-1034c4c56f3f","{""num_scrambled_semantic"":""8"",""num_scrambled_causal"":""4"",""num_scrambled_schematic"":""4"",""participantId"":""75855CF14D7445938636BC9DC9893591"",""assignmentId"":""f8c51160-c049-4381-96e5-2e9d4e4133fc"",""projectId"":""a9f3d40c-5730-405c-b25e-1034c4c56f3f""}","https://test12345.live/?num_scrambled_semantic=8&num_scrambled_causal=4&num_scrambled_schematic=4&participantId=75855CF14D7445938636BC9DC9893591&assignmentId=f8c51160-c049-4381-96e5-2e9d4e4133fc&projectId=a9f3d40c-5730-405c-b25e-1034c4c56f3f","75855CF14D7445938636BC9DC9893591-2025-08-07-19-28-16","","2146","","images/semantic_sequence/housework_semantic/housework_semantic_4.png","0","",""
"","","","","","image-button-response","51","498523","0.0-10.0-1.0-2.8","75855CF14D7445938636BC9DC9893591","75855CF14D7445938636BC9DC9893591","f8c51160-c049-4381-96e5-2e9d4e4133fc","a9f3d40c-5730-405c-b25e-1034c4c56f3f","{""num_scrambled_semantic"":""8"",""num_scrambled_causal"":""4"",""num_scrambled_schematic"":""4"",""participantId"":""75855CF14D7445938636BC9DC9893591"",""assignmentId"":""f8c51160-c049-4381-96e5-2e9d4e4133fc"",""projectId"":""a9f3d40c-5730-405c-b25e-1034c4c56f3f""}","https://test12345.live/?num_scrambled_semantic=8&num_scrambled_causal=4&num_scrambled_schematic=4&participantId=75855CF14D7445938636BC9DC9893591&assignmentId=f8c51160-c049-4381-96e5-2e9d4e4133fc&projectId=a9f3d40c-5730-405c-b25e-1034c4c56f3f","75855CF14D7445938636BC9DC9893591-2025-08-07-19-28-16","","null","","[]","null","",""
"","","","","","image-button-response","52","503027","0.0-10.0-1.0-0.9","75855CF14D7445938636BC9DC9893591","75855CF14D7445938636BC9DC9893591","f8c51160-c049-4381-96e5-2e9d4e4133fc","a9f3d40c-5730-405c-b25e-1034c4c56f3f","{""num_scrambled_semantic"":""8"",""num_scrambled_causal"":""4"",""num_scrambled_schematic"":""4"",""participantId"":""75855CF14D7445938636BC9DC9893591"",""assignmentId"":""f8c51160-c049-4381-96e5-2e9d4e4133fc"",""projectId"":""a9f3d40c-5730-405c-b25e-1034c4c56f3f""}","https://test12345.live/?num_scrambled_semantic=8&num_scrambled_causal=4&num_scrambled_schematic=4&participantId=75855CF14D7445938636BC9DC9893591&assignmentId=f8c51160-c049-4381-96e5-2e9d4e4133fc&projectId=a9f3d40c-5730-405c-b25e-1034c4c56f3f","75855CF14D7445938636BC9DC9893591-2025-08-07-19-28-16","","null","","images/semantic_sequence/housework_semantic/housework_semantic_2.png","null","",""
"","","","","","image-button-response","53","504159","0.0-10.0-1.0-1.9","75855CF14D7445938636BC9DC9893591","75855CF14D7445938636BC9DC9893591","f8c51160-c049-4381-96e5-2e9d4e4133fc","a9f3d40c-5730-405c-b25e-1034c4c56f3f","{""num_scrambled_semantic"":""8"",""num_scrambled_causal"":""4"",""num_scrambled_schematic"":""4"",""participantId"":""75855CF14D7445938636BC9DC9893591"",""assignmentId"":""f8c51160-c049-4381-96e5-2e9d4e4133fc"",""projectId"":""a9f3d40c-5730-405c-b25e-1034c4c56f3f""}","https://test12345.live/?num_scrambled_semantic=8&num_scrambled_causal=4&num_scrambled_schematic=4&participantId=75855CF14D7445938636BC9DC9893591&assignmentId=f8c51160-c049-4381-96e5-2e9d4e4133fc&projectId=a9f3d40c-5730-405c-b25e-1034c4c56f3f","75855CF14D7445938636BC9DC9893591-2025-08-07-19-28-16","","1131","","images/semantic_sequence/housework_semantic/housework_semantic_2.png","0","",""
"","","","","","image-button-response","54","505975","0.0-10.0-1.0-2.9","75855CF14D7445938636BC9DC9893591","75855CF14D7445938636BC9DC9893591","f8c51160-c049-4381-96e5-2e9d4e4133fc","a9f3d40c-5730-405c-b25e-1034c4c56f3f","{""num_scrambled_semantic"":""8"",""num_scrambled_causal"":""4"",""num_scrambled_schematic"":""4"",""participantId"":""75855CF14D7445938636BC9DC9893591"",""assignmentId"":""f8c51160-c049-4381-96e5-2e9d4e4133fc"",""projectId"":""a9f3d40c-5730-405c-b25e-1034c4c56f3f""}","https://test12345.live/?num_scrambled_semantic=8&num_scrambled_causal=4&num_scrambled_schematic=4&participantId=75855CF14D7445938636BC9DC9893591&assignmentId=f8c51160-c049-4381-96e5-2e9d4e4133fc&projectId=a9f3d40c-5730-405c-b25e-1034c4c56f3f","75855CF14D7445938636BC9DC9893591-2025-08-07-19-28-16","","null","","[]","null","",""
"","","","","","html-audio-response","55","558185","0.0-11.0","75855CF14D7445938636BC9DC9893591","75855CF14D7445938636BC9DC9893591","f8c51160-c049-4381-96e5-2e9d4e4133fc","a9f3d40c-5730-405c-b25e-1034c4c56f3f","{""num_scrambled_semantic"":""8"",""num_scrambled_causal"":""4"",""num_scrambled_schematic"":""4"",""participantId"":""75855CF14D7445938636BC9DC9893591"",""assignmentId"":""f8c51160-c049-4381-96e5-2e9d4e4133fc"",""projectId"":""a9f3d40c-5730-405c-b25e-1034c4c56f3f""}","https://test12345.live/?num_scrambled_semantic=8&num_scrambled_causal=4&num_scrambled_schematic=4&participantId=75855CF14D7445938636BC9DC9893591&assignmentId=f8c51160-c049-4381-96e5-2e9d4e4133fc&projectId=a9f3d40c-5730-405c-b25e-1034c4c56f3f","75855CF14D7445938636BC9DC9893591-2025-08-07-19-28-16","","26755","","[""<span style=\""color: red; font-size: 24px\""> NOW RECORDING</span><p>Please say out loud all the images you saw, as many as you can remember. The images can be said in any order.</p>""]","","1","housework_semantic"
"","","","","","image-button-response","56","564255","0.0-12.0-0.0","75855CF14D7445938636BC9DC9893591","75855CF14D7445938636BC9DC9893591","f8c51160-c049-4381-96e5-2e9d4e4133fc","a9f3d40c-5730-405c-b25e-1034c4c56f3f","{""num_scrambled_semantic"":""8"",""num_scrambled_causal"":""4"",""num_scrambled_schematic"":""4"",""participantId"":""75855CF14D7445938636BC9DC9893591"",""assignmentId"":""f8c51160-c049-4381-96e5-2e9d4e4133fc"",""projectId"":""a9f3d40c-5730-405c-b25e-1034c4c56f3f""}","https://test12345.live/?num_scrambled_semantic=8&num_scrambled_causal=4&num_scrambled_schematic=4&participantId=75855CF14D7445938636BC9DC9893591&assignmentId=f8c51160-c049-4381-96e5-2e9d4e4133fc&projectId=a9f3d40c-5730-405c-b25e-1034c4c56f3f","75855CF14D7445938636BC9DC9893591-2025-08-07-19-28-16","","null","","images/causal_sequence/dog_causal/dog_causal_0.png","null","",""
"","","","","","image-button-response","57","568763","0.0-12.0-1.0-0.0","75855CF14D7445938636BC9DC9893591","75855CF14D7445938636BC9DC9893591","f8c51160-c049-4381-96e5-2e9d4e4133fc","a9f3d40c-5730-405c-b25e-1034c4c56f3f","{""num_scrambled_semantic"":""8"",""num_scrambled_causal"":""4"",""num_scrambled_schematic"":""4"",""participantId"":""75855CF14D7445938636BC9DC9893591"",""assignmentId"":""f8c51160-c049-4381-96e5-2e9d4e4133fc"",""projectId"":""a9f3d40c-5730-405c-b25e-1034c4c56f3f""}","https://test12345.live/?num_scrambled_semantic=8&num_scrambled_causal=4&num_scrambled_schematic=4&participantId=75855CF14D7445938636BC9DC9893591&assignmentId=f8c51160-c049-4381-96e5-2e9d4e4133fc&projectId=a9f3d40c-5730-405c-b25e-1034c4c56f3f","75855CF14D7445938636BC9DC9893591-2025-08-07-19-28-16","","null","","images/causal_sequence/dog_causal/dog_causal_3.png","null","",""
"","","","","","image-button-response","58","571625","0.0-12.0-1.0-1.0","75855CF14D7445938636BC9DC9893591","75855CF14D7445938636BC9DC9893591","f8c51160-c049-4381-96e5-2e9d4e4133fc","a9f3d40c-5730-405c-b25e-1034c4c56f3f","{""num_scrambled_semantic"":""8"",""num_scrambled_causal"":""4"",""num_scrambled_schematic"":""4"",""participantId"":""75855CF14D7445938636BC9DC9893591"",""assignmentId"":""f8c51160-c049-4381-96e5-2e9d4e4133fc"",""projectId"":""a9f3d40c-5730-405c-b25e-1034c4c56f3f""}","https://test12345.live/?num_scrambled_semantic=8&num_scrambled_causal=4&num_scrambled_schematic=4&participantId=75855CF14D7445938636BC9DC9893591&assignmentId=f8c51160-c049-4381-96e5-2e9d4e4133fc&projectId=a9f3d40c-5730-405c-b25e-1034c4c56f3f","75855CF14D7445938636BC9DC9893591-2025-08-07-19-28-16","","2861","","images/causal_sequence/dog_causal/dog_causal_3.png","0","",""
"","","","","","image-button-response","59","573428","0.0-12.0-1.0-2.0","75855CF14D7445938636BC9DC9893591","75855CF14D7445938636BC9DC9893591","f8c51160-c049-4381-96e5-2e9d4e4133fc","a9f3d40c-5730-405c-b25e-1034c4c56f3f","{""num_scrambled_semantic"":""8"",""num_scrambled_causal"":""4"",""num_scrambled_schematic"":""4"",""participantId"":""75855CF14D7445938636BC9DC9893591"",""assignmentId"":""f8c51160-c049-4381-96e5-2e9d4e4133fc"",""projectId"":""a9f3d40c-5730-405c-b25e-1034c4c56f3f""}","https://test12345.live/?num_scrambled_semantic=8&num_scrambled_causal=4&num_scrambled_schematic=4&participantId=75855CF14D7445938636BC9DC9893591&assignmentId=f8c51160-c049-4381-96e5-2e9d4e4133fc&projectId=a9f3d40c-5730-405c-b25e-1034c4c56f3f","75855CF14D7445938636BC9DC9893591-2025-08-07-19-28-16","","null","","[]","null","",""
"","","","","","image-button-response","60","577935","0.0-12.0-1.0-0.1","75855CF14D7445938636BC9DC9893591","75855CF14D7445938636BC9DC9893591","f8c51160-c049-4381-96e5-2e9d4e4133fc","a9f3d40c-5730-405c-b25e-1034c4c56f3f","{""num_scrambled_semantic"":""8"",""num_scrambled_causal"":""4"",""num_scrambled_schematic"":""4"",""participantId"":""75855CF14D7445938636BC9DC9893591"",""assignmentId"":""f8c51160-c049-4381-96e5-2e9d4e4133fc"",""projectId"":""a9f3d40c-5730-405c-b25e-1034c4c56f3f""}","https://test12345.live/?num_scrambled_semantic=8&num_scrambled_causal=4&num_scrambled_schematic=4&participantId=75855CF14D7445938636BC9DC9893591&assignmentId=f8c51160-c049-4381-96e5-2e9d4e4133fc&projectId=a9f3d40c-5730-405c-b25e-1034c4c56f3f","75855CF14D7445938636BC9DC9893591-2025-08-07-19-28-16","","null","","images/causal_sequence/dog_causal/dog_causal_2.png","null","",""
"","","","","","image-button-response","61","580258","0.0-12.0-1.0-1.1","75855CF14D7445938636BC9DC9893591","75855CF14D7445938636BC9DC9893591","f8c51160-c049-4381-96e5-2e9d4e4133fc","a9f3d40c-5730-405c-b25e-1034c4c56f3f","{""num_scrambled_semantic"":""8"",""num_scrambled_causal"":""4"",""num_scrambled_schematic"":""4"",""participantId"":""75855CF14D7445938636BC9DC9893591"",""assignmentId"":""f8c51160-c049-4381-96e5-2e9d4e4133fc"",""projectId"":""a9f3d40c-5730-405c-b25e-1034c4c56f3f""}","https://test12345.live/?num_scrambled_semantic=8&num_scrambled_causal=4&num_scrambled_schematic=4&participantId=75855CF14D7445938636BC9DC9893591&assignmentId=f8c51160-c049-4381-96e5-2e9d4e4133fc&projectId=a9f3d40c-5730-405c-b25e-1034c4c56f3f","75855CF14D7445938636BC9DC9893591-2025-08-07-19-28-16","","2322","","images/causal_sequence/dog_causal/dog_causal_2.png","0","",""
"","","","","","image-button-response","62","582059","0.0-12.0-1.0-2.1","75855CF14D7445938636BC9DC9893591","75855CF14D7445938636BC9DC9893591","f8c51160-c049-4381-96e5-2e9d4e4133fc","a9f3d40c-5730-405c-b25e-1034c4c56f3f","{""num_scrambled_semantic"":""8"",""num_scrambled_causal"":""4"",""num_scrambled_schematic"":""4"",""participantId"":""75855CF14D7445938636BC9DC9893591"",""assignmentId"":""f8c51160-c049-4381-96e5-2e9d4e4133fc"",""projectId"":""a9f3d40c-5730-405c-b25e-1034c4c56f3f""}","https://test12345.live/?num_scrambled_semantic=8&num_scrambled_causal=4&num_scrambled_schematic=4&participantId=75855CF14D7445938636BC9DC9893591&assignmentId=f8c51160-c049-4381-96e5-2e9d4e4133fc&projectId=a9f3d40c-5730-405c-b25e-1034c4c56f3f","75855CF14D7445938636BC9DC9893591-2025-08-07-19-28-16","","null","","[]","null","",""
"","","","","","image-button-response","63","586568","0.0-12.0-1.0-0.2","75855CF14D7445938636BC9DC9893591","75855CF14D7445938636BC9DC9893591","f8c51160-c049-4381-96e5-2e9d4e4133fc","a9f3d40c-5730-405c-b25e-1034c4c56f3f","{""num_scrambled_semantic"":""8"",""num_scrambled_causal"":""4"",""num_scrambled_schematic"":""4"",""participantId"":""75855CF14D7445938636BC9DC9893591"",""assignmentId"":""f8c51160-c049-4381-96e5-2e9d4e4133fc"",""projectId"":""a9f3d40c-5730-405c-b25e-1034c4c56f3f""}","https://test12345.live/?num_scrambled_semantic=8&num_scrambled_causal=4&num_scrambled_schematic=4&participantId=75855CF14D7445938636BC9DC9893591&assignmentId=f8c51160-c049-4381-96e5-2e9d4e4133fc&projectId=a9f3d40c-5730-405c-b25e-1034c4c56f3f","75855CF14D7445938636BC9DC9893591-2025-08-07-19-28-16","","null","","images/causal_sequence/dog_causal/dog_causal_9.png","null","",""
"","","","","","image-button-response","64","587843","0.0-12.0-1.0-1.2","75855CF14D7445938636BC9DC9893591","75855CF14D7445938636BC9DC9893591","f8c51160-c049-4381-96e5-2e9d4e4133fc","a9f3d40c-5730-405c-b25e-1034c4c56f3f","{""num_scrambled_semantic"":""8"",""num_scrambled_causal"":""4"",""num_scrambled_schematic"":""4"",""participantId"":""75855CF14D7445938636BC9DC9893591"",""assignmentId"":""f8c51160-c049-4381-96e5-2e9d4e4133fc"",""projectId"":""a9f3d40c-5730-405c-b25e-1034c4c56f3f""}","https://test12345.live/?num_scrambled_semantic=8&num_scrambled_causal=4&num_scrambled_schematic=4&participantId=75855CF14D7445938636BC9DC9893591&assignmentId=f8c51160-c049-4381-96e5-2e9d4e4133fc&projectId=a9f3d40c-5730-405c-b25e-1034c4c56f3f","75855CF14D7445938636BC9DC9893591-2025-08-07-19-28-16","","1273","","images/causal_sequence/dog_causal/dog_causal_9.png","0","",""
"","","","","","image-button-response","65","589649","0.0-12.0-1.0-2.2","75855CF14D7445938636BC9DC9893591","75855CF14D7445938636BC9DC9893591","f8c51160-c049-4381-96e5-2e9d4e4133fc","a9f3d40c-5730-405c-b25e-1034c4c56f3f","{""num_scrambled_semantic"":""8"",""num_scrambled_causal"":""4"",""num_scrambled_schematic"":""4"",""participantId"":""75855CF14D7445938636BC9DC9893591"",""assignmentId"":""f8c51160-c049-4381-96e5-2e9d4e4133fc"",""projectId"":""a9f3d40c-5730-405c-b25e-1034c4c56f3f""}","https://test12345.live/?num_scrambled_semantic=8&num_scrambled_causal=4&num_scrambled_schematic=4&participantId=75855CF14D7445938636BC9DC9893591&assignmentId=f8c51160-c049-4381-96e5-2e9d4e4133fc&projectId=a9f3d40c-5730-405c-b25e-1034c4c56f3f","75855CF14D7445938636BC9DC9893591-2025-08-07-19-28-16","","null","","[]","null","",""
"","","","","","image-button-response","66","594152","0.0-12.0-1.0-0.3","75855CF14D7445938636BC9DC9893591","75855CF14D7445938636BC9DC9893591","f8c51160-c049-4381-96e5-2e9d4e4133fc","a9f3d40c-5730-405c-b25e-1034c4c56f3f","{""num_scrambled_semantic"":""8"",""num_scrambled_causal"":""4"",""num_scrambled_schematic"":""4"",""participantId"":""75855CF14D7445938636BC9DC9893591"",""assignmentId"":""f8c51160-c049-4381-96e5-2e9d4e4133fc"",""projectId"":""a9f3d40c-5730-405c-b25e-1034c4c56f3f""}","https://test12345.live/?num_scrambled_semantic=8&num_scrambled_causal=4&num_scrambled_schematic=4&participantId=75855CF14D7445938636BC9DC9893591&assignmentId=f8c51160-c049-4381-96e5-2e9d4e4133fc&projectId=a9f3d40c-5730-405c-b25e-1034c4c56f3f","75855CF14D7445938636BC9DC9893591-2025-08-07-19-28-16","","null","","images/causal_sequence/dog_causal/dog_causal_1.png","null","",""
"","","","","","image-button-response","67","595367","0.0-12.0-1.0-1.3","75855CF14D7445938636BC9DC9893591","75855CF14D7445938636BC9DC9893591","f8c51160-c049-4381-96e5-2e9d4e4133fc","a9f3d40c-5730-405c-b25e-1034c4c56f3f","{""num_scrambled_semantic"":""8"",""num_scrambled_causal"":""4"",""num_scrambled_schematic"":""4"",""participantId"":""75855CF14D7445938636BC9DC9893591"",""assignmentId"":""f8c51160-c049-4381-96e5-2e9d4e4133fc"",""projectId"":""a9f3d40c-5730-405c-b25e-1034c4c56f3f""}","https://test12345.live/?num_scrambled_semantic=8&num_scrambled_causal=4&num_scrambled_schematic=4&participantId=75855CF14D7445938636BC9DC9893591&assignmentId=f8c51160-c049-4381-96e5-2e9d4e4133fc&projectId=a9f3d40c-5730-405c-b25e-1034c4c56f3f","75855CF14D7445938636BC9DC9893591-2025-08-07-19-28-16","","1214","","images/causal_sequence/dog_causal/dog_causal_1.png","0","",""
"","","","","","image-button-response","68","597177","0.0-12.0-1.0-2.3","75855CF14D7445938636BC9DC9893591","75855CF14D7445938636BC9DC9893591","f8c51160-c049-4381-96e5-2e9d4e4133fc","a9f3d40c-5730-405c-b25e-1034c4c56f3f","{""num_scrambled_semantic"":""8"",""num_scrambled_causal"":""4"",""num_scrambled_schematic"":""4"",""participantId"":""75855CF14D7445938636BC9DC9893591"",""assignmentId"":""f8c51160-c049-4381-96e5-2e9d4e4133fc"",""projectId"":""a9f3d40c-5730-405c-b25e-1034c4c56f3f""}","https://test12345.live/?num_scrambled_semantic=8&num_scrambled_causal=4&num_scrambled_schematic=4&participantId=75855CF14D7445938636BC9DC9893591&assignmentId=f8c51160-c049-4381-96e5-2e9d4e4133fc&projectId=a9f3d40c-5730-405c-b25e-1034c4c56f3f","75855CF14D7445938636BC9DC9893591-2025-08-07-19-28-16","","null","","[]","null","",""
"","","","","","image-button-response","69","601691","0.0-12.0-1.0-0.4","75855CF14D7445938636BC9DC9893591","75855CF14D7445938636BC9DC9893591","f8c51160-c049-4381-96e5-2e9d4e4133fc","a9f3d40c-5730-405c-b25e-1034c4c56f3f","{""num_scrambled_semantic"":""8"",""num_scrambled_causal"":""4"",""num_scrambled_schematic"":""4"",""participantId"":""75855CF14D7445938636BC9DC9893591"",""assignmentId"":""f8c51160-c049-4381-96e5-2e9d4e4133fc"",""projectId"":""a9f3d40c-5730-405c-b25e-1034c4c56f3f""}","https://test12345.live/?num_scrambled_semantic=8&num_scrambled_causal=4&num_scrambled_schematic=4&participantId=75855CF14D7445938636BC9DC9893591&assignmentId=f8c51160-c049-4381-96e5-2e9d4e4133fc&projectId=a9f3d40c-5730-405c-b25e-1034c4c56f3f","75855CF14D7445938636BC9DC9893591-2025-08-07-19-28-16","","null","","images/causal_sequence/dog_causal/dog_causal_4.png","null","",""
"","","","","","image-button-response","70","602864","0.0-12.0-1.0-1.4","75855CF14D7445938636BC9DC9893591","75855CF14D7445938636BC9DC9893591","f8c51160-c049-4381-96e5-2e9d4e4133fc","a9f3d40c-5730-405c-b25e-1034c4c56f3f","{""num_scrambled_semantic"":""8"",""num_scrambled_causal"":""4"",""num_scrambled_schematic"":""4"",""participantId"":""75855CF14D7445938636BC9DC9893591"",""assignmentId"":""f8c51160-c049-4381-96e5-2e9d4e4133fc"",""projectId"":""a9f3d40c-5730-405c-b25e-1034c4c56f3f""}","https://test12345.live/?num_scrambled_semantic=8&num_scrambled_causal=4&num_scrambled_schematic=4&participantId=75855CF14D7445938636BC9DC9893591&assignmentId=f8c51160-c049-4381-96e5-2e9d4e4133fc&projectId=a9f3d40c-5730-405c-b25e-1034c4c56f3f","75855CF14D7445938636BC9DC9893591-2025-08-07-19-28-16","","1172","","images/causal_sequence/dog_causal/dog_causal_4.png","0","",""
"","","","","","image-button-response","71","604674","0.0-12.0-1.0-2.4","75855CF14D7445938636BC9DC9893591","75855CF14D7445938636BC9DC9893591","f8c51160-c049-4381-96e5-2e9d4e4133fc","a9f3d40c-5730-405c-b25e-1034c4c56f3f","{""num_scrambled_semantic"":""8"",""num_scrambled_causal"":""4"",""num_scrambled_schematic"":""4"",""participantId"":""75855CF14D7445938636BC9DC9893591"",""assignmentId"":""f8c51160-c049-4381-96e5-2e9d4e4133fc"",""projectId"":""a9f3d40c-5730-405c-b25e-1034c4c56f3f""}","https://test12345.live/?num_scrambled_semantic=8&num_scrambled_causal=4&num_scrambled_schematic=4&participantId=75855CF14D7445938636BC9DC9893591&assignmentId=f8c51160-c049-4381-96e5-2e9d4e4133fc&projectId=a9f3d40c-5730-405c-b25e-1034c4c56f3f","75855CF14D7445938636BC9DC9893591-2025-08-07-19-28-16","","null","","[]","null","",""
"","","","","","image-button-response","72","609189","0.0-12.0-1.0-0.5","75855CF14D7445938636BC9DC9893591","75855CF14D7445938636BC9DC9893591","f8c51160-c049-4381-96e5-2e9d4e4133fc","a9f3d40c-5730-405c-b25e-1034c4c56f3f","{""num_scrambled_semantic"":""8"",""num_scrambled_causal"":""4"",""num_scrambled_schematic"":""4"",""participantId"":""75855CF14D7445938636BC9DC9893591"",""assignmentId"":""f8c51160-c049-4381-96e5-2e9d4e4133fc"",""projectId"":""a9f3d40c-5730-405c-b25e-1034c4c56f3f""}","https://test12345.live/?num_scrambled_semantic=8&num_scrambled_causal=4&num_scrambled_schematic=4&participantId=75855CF14D7445938636BC9DC9893591&assignmentId=f8c51160-c049-4381-96e5-2e9d4e4133fc&projectId=a9f3d40c-5730-405c-b25e-1034c4c56f3f","75855CF14D7445938636BC9DC9893591-2025-08-07-19-28-16","","null","","images/causal_sequence/dog_causal/dog_causal_6.png","null","",""
"","","","","","image-button-response","73","610150","0.0-12.0-1.0-1.5","75855CF14D7445938636BC9DC9893591","75855CF14D7445938636BC9DC9893591","f8c51160-c049-4381-96e5-2e9d4e4133fc","a9f3d40c-5730-405c-b25e-1034c4c56f3f","{""num_scrambled_semantic"":""8"",""num_scrambled_causal"":""4"",""num_scrambled_schematic"":""4"",""participantId"":""75855CF14D7445938636BC9DC9893591"",""assignmentId"":""f8c51160-c049-4381-96e5-2e9d4e4133fc"",""projectId"":""a9f3d40c-5730-405c-b25e-1034c4c56f3f""}","https://test12345.live/?num_scrambled_semantic=8&num_scrambled_causal=4&num_scrambled_schematic=4&participantId=75855CF14D7445938636BC9DC9893591&assignmentId=f8c51160-c049-4381-96e5-2e9d4e4133fc&projectId=a9f3d40c-5730-405c-b25e-1034c4c56f3f","75855CF14D7445938636BC9DC9893591-2025-08-07-19-28-16","","960","","images/causal_sequence/dog_causal/dog_causal_6.png","0","",""
"","","","","","image-button-response","74","611955","0.0-12.0-1.0-2.5","75855CF14D7445938636BC9DC9893591","75855CF14D7445938636BC9DC9893591","f8c51160-c049-4381-96e5-2e9d4e4133fc","a9f3d40c-5730-405c-b25e-1034c4c56f3f","{""num_scrambled_semantic"":""8"",""num_scrambled_causal"":""4"",""num_scrambled_schematic"":""4"",""participantId"":""75855CF14D7445938636BC9DC9893591"",""assignmentId"":""f8c51160-c049-4381-96e5-2e9d4e4133fc"",""projectId"":""a9f3d40c-5730-405c-b25e-1034c4c56f3f""}","https://test12345.live/?num_scrambled_semantic=8&num_scrambled_causal=4&num_scrambled_schematic=4&participantId=75855CF14D7445938636BC9DC9893591&assignmentId=f8c51160-c049-4381-96e5-2e9d4e4133fc&projectId=a9f3d40c-5730-405c-b25e-1034c4c56f3f","75855CF14D7445938636BC9DC9893591-2025-08-07-19-28-16","","null","","[]","null","",""
"","","","","","image-button-response","75","616478","0.0-12.0-1.0-0.6","75855CF14D7445938636BC9DC9893591","75855CF14D7445938636BC9DC9893591","f8c51160-c049-4381-96e5-2e9d4e4133fc","a9f3d40c-5730-405c-b25e-1034c4c56f3f","{""num_scrambled_semantic"":""8"",""num_scrambled_causal"":""4"",""num_scrambled_schematic"":""4"",""participantId"":""75855CF14D7445938636BC9DC9893591"",""assignmentId"":""f8c51160-c049-4381-96e5-2e9d4e4133fc"",""projectId"":""a9f3d40c-5730-405c-b25e-1034c4c56f3f""}","https://test12345.live/?num_scrambled_semantic=8&num_scrambled_causal=4&num_scrambled_schematic=4&participantId=75855CF14D7445938636BC9DC9893591&assignmentId=f8c51160-c049-4381-96e5-2e9d4e4133fc&projectId=a9f3d40c-5730-405c-b25e-1034c4c56f3f","75855CF14D7445938636BC9DC9893591-2025-08-07-19-28-16","","null","","images/causal_sequence/dog_causal/dog_causal_5.png","null","",""
"","","","","","image-button-response","76","617670","0.0-12.0-1.0-1.6","75855CF14D7445938636BC9DC9893591","75855CF14D7445938636BC9DC9893591","f8c51160-c049-4381-96e5-2e9d4e4133fc","a9f3d40c-5730-405c-b25e-1034c4c56f3f","{""num_scrambled_semantic"":""8"",""num_scrambled_causal"":""4"",""num_scrambled_schematic"":""4"",""participantId"":""75855CF14D7445938636BC9DC9893591"",""assignmentId"":""f8c51160-c049-4381-96e5-2e9d4e4133fc"",""projectId"":""a9f3d40c-5730-405c-b25e-1034c4c56f3f""}","https://test12345.live/?num_scrambled_semantic=8&num_scrambled_causal=4&num_scrambled_schematic=4&participantId=75855CF14D7445938636BC9DC9893591&assignmentId=f8c51160-c049-4381-96e5-2e9d4e4133fc&projectId=a9f3d40c-5730-405c-b25e-1034c4c56f3f","75855CF14D7445938636BC9DC9893591-2025-08-07-19-28-16","","1191","","images/causal_sequence/dog_causal/dog_causal_5.png","0","",""
"","","","","","image-button-response","77","619478","0.0-12.0-1.0-2.6","75855CF14D7445938636BC9DC9893591","75855CF14D7445938636BC9DC9893591","f8c51160-c049-4381-96e5-2e9d4e4133fc","a9f3d40c-5730-405c-b25e-1034c4c56f3f","{""num_scrambled_semantic"":""8"",""num_scrambled_causal"":""4"",""num_scrambled_schematic"":""4"",""participantId"":""75855CF14D7445938636BC9DC9893591"",""assignmentId"":""f8c51160-c049-4381-96e5-2e9d4e4133fc"",""projectId"":""a9f3d40c-5730-405c-b25e-1034c4c56f3f""}","https://test12345.live/?num_scrambled_semantic=8&num_scrambled_causal=4&num_scrambled_schematic=4&participantId=75855CF14D7445938636BC9DC9893591&assignmentId=f8c51160-c049-4381-96e5-2e9d4e4133fc&projectId=a9f3d40c-5730-405c-b25e-1034c4c56f3f","75855CF14D7445938636BC9DC9893591-2025-08-07-19-28-16","","null","","[]","null","",""
"","","","","","image-button-response","78","623985","0.0-12.0-1.0-0.7","75855CF14D7445938636BC9DC9893591","75855CF14D7445938636BC9DC9893591","f8c51160-c049-4381-96e5-2e9d4e4133fc","a9f3d40c-5730-405c-b25e-1034c4c56f3f","{""num_scrambled_semantic"":""8"",""num_scrambled_causal"":""4"",""num_scrambled_schematic"":""4"",""participantId"":""75855CF14D7445938636BC9DC9893591"",""assignmentId"":""f8c51160-c049-4381-96e5-2e9d4e4133fc"",""projectId"":""a9f3d40c-5730-405c-b25e-1034c4c56f3f""}","https://test12345.live/?num_scrambled_semantic=8&num_scrambled_causal=4&num_scrambled_schematic=4&participantId=75855CF14D7445938636BC9DC9893591&assignmentId=f8c51160-c049-4381-96e5-2e9d4e4133fc&projectId=a9f3d40c-5730-405c-b25e-1034c4c56f3f","75855CF14D7445938636BC9DC9893591-2025-08-07-19-28-16","","null","","images/causal_sequence/dog_causal/dog_causal_7.png","null","",""
"","","","","","image-button-response","79","625513","0.0-12.0-1.0-1.7","75855CF14D7445938636BC9DC9893591","75855CF14D7445938636BC9DC9893591","f8c51160-c049-4381-96e5-2e9d4e4133fc","a9f3d40c-5730-405c-b25e-1034c4c56f3f","{""num_scrambled_semantic"":""8"",""num_scrambled_causal"":""4"",""num_scrambled_schematic"":""4"",""participantId"":""75855CF14D7445938636BC9DC9893591"",""assignmentId"":""f8c51160-c049-4381-96e5-2e9d4e4133fc"",""projectId"":""a9f3d40c-5730-405c-b25e-1034c4c56f3f""}","https://test12345.live/?num_scrambled_semantic=8&num_scrambled_causal=4&num_scrambled_schematic=4&participantId=75855CF14D7445938636BC9DC9893591&assignmentId=f8c51160-c049-4381-96e5-2e9d4e4133fc&projectId=a9f3d40c-5730-405c-b25e-1034c4c56f3f","75855CF14D7445938636BC9DC9893591-2025-08-07-19-28-16","","1525","","images/causal_sequence/dog_causal/dog_causal_7.png","0","",""
"","","","","","image-button-response","80","627319","0.0-12.0-1.0-2.7","75855CF14D7445938636BC9DC9893591","75855CF14D7445938636BC9DC9893591","f8c51160-c049-4381-96e5-2e9d4e4133fc","a9f3d40c-5730-405c-b25e-1034c4c56f3f","{""num_scrambled_semantic"":""8"",""num_scrambled_causal"":""4"",""num_scrambled_schematic"":""4"",""participantId"":""75855CF14D7445938636BC9DC9893591"",""assignmentId"":""f8c51160-c049-4381-96e5-2e9d4e4133fc"",""projectId"":""a9f3d40c-5730-405c-b25e-1034c4c56f3f""}","https://test12345.live/?num_scrambled_semantic=8&num_scrambled_causal=4&num_scrambled_schematic=4&participantId=75855CF14D7445938636BC9DC9893591&assignmentId=f8c51160-c049-4381-96e5-2e9d4e4133fc&projectId=a9f3d40c-5730-405c-b25e-1034c4c56f3f","75855CF14D7445938636BC9DC9893591-2025-08-07-19-28-16","","null","","[]","null","",""
"","","","","","image-button-response","81","631832","0.0-12.0-1.0-0.8","75855CF14D7445938636BC9DC9893591","75855CF14D7445938636BC9DC9893591","f8c51160-c049-4381-96e5-2e9d4e4133fc","a9f3d40c-5730-405c-b25e-1034c4c56f3f","{""num_scrambled_semantic"":""8"",""num_scrambled_causal"":""4"",""num_scrambled_schematic"":""4"",""participantId"":""75855CF14D7445938636BC9DC9893591"",""assignmentId"":""f8c51160-c049-4381-96e5-2e9d4e4133fc"",""projectId"":""a9f3d40c-5730-405c-b25e-1034c4c56f3f""}","https://test12345.live/?num_scrambled_semantic=8&num_scrambled_causal=4&num_scrambled_schematic=4&participantId=75855CF14D7445938636BC9DC9893591&assignmentId=f8c51160-c049-4381-96e5-2e9d4e4133fc&projectId=a9f3d40c-5730-405c-b25e-1034c4c56f3f","75855CF14D7445938636BC9DC9893591-2025-08-07-19-28-16","","null","","images/causal_sequence/dog_causal/dog_causal_ten.png","null","",""
"","","","","","image-button-response","82","633102","0.0-12.0-1.0-1.8","75855CF14D7445938636BC9DC9893591","75855CF14D7445938636BC9DC9893591","f8c51160-c049-4381-96e5-2e9d4e4133fc","a9f3d40c-5730-405c-b25e-1034c4c56f3f","{""num_scrambled_semantic"":""8"",""num_scrambled_causal"":""4"",""num_scrambled_schematic"":""4"",""participantId"":""75855CF14D7445938636BC9DC9893591"",""assignmentId"":""f8c51160-c049-4381-96e5-2e9d4e4133fc"",""projectId"":""a9f3d40c-5730-405c-b25e-1034c4c56f3f""}","https://test12345.live/?num_scrambled_semantic=8&num_scrambled_causal=4&num_scrambled_schematic=4&participantId=75855CF14D7445938636BC9DC9893591&assignmentId=f8c51160-c049-4381-96e5-2e9d4e4133fc&projectId=a9f3d40c-5730-405c-b25e-1034c4c56f3f","75855CF14D7445938636BC9DC9893591-2025-08-07-19-28-16","","1269","","images/causal_sequence/dog_causal/dog_causal_ten.png","0","",""
"","","","","","image-button-response","83","634906","0.0-12.0-1.0-2.8","75855CF14D7445938636BC9DC9893591","75855CF14D7445938636BC9DC9893591","f8c51160-c049-4381-96e5-2e9d4e4133fc","a9f3d40c-5730-405c-b25e-1034c4c56f3f","{""num_scrambled_semantic"":""8"",""num_scrambled_causal"":""4"",""num_scrambled_schematic"":""4"",""participantId"":""75855CF14D7445938636BC9DC9893591"",""assignmentId"":""f8c51160-c049-4381-96e5-2e9d4e4133fc"",""projectId"":""a9f3d40c-5730-405c-b25e-1034c4c56f3f""}","https://test12345.live/?num_scrambled_semantic=8&num_scrambled_causal=4&num_scrambled_schematic=4&participantId=75855CF14D7445938636BC9DC9893591&assignmentId=f8c51160-c049-4381-96e5-2e9d4e4133fc&projectId=a9f3d40c-5730-405c-b25e-1034c4c56f3f","75855CF14D7445938636BC9DC9893591-2025-08-07-19-28-16","","null","","[]","null","",""
"","","","","","image-button-response","84","639408","0.0-12.0-1.0-0.9","75855CF14D7445938636BC9DC9893591","75855CF14D7445938636BC9DC9893591","f8c51160-c049-4381-96e5-2e9d4e4133fc","a9f3d40c-5730-405c-b25e-1034c4c56f3f","{""num_scrambled_semantic"":""8"",""num_scrambled_causal"":""4"",""num_scrambled_schematic"":""4"",""participantId"":""75855CF14D7445938636BC9DC9893591"",""assignmentId"":""f8c51160-c049-4381-96e5-2e9d4e4133fc"",""projectId"":""a9f3d40c-5730-405c-b25e-1034c4c56f3f""}","https://test12345.live/?num_scrambled_semantic=8&num_scrambled_causal=4&num_scrambled_schematic=4&participantId=75855CF14D7445938636BC9DC9893591&assignmentId=f8c51160-c049-4381-96e5-2e9d4e4133fc&projectId=a9f3d40c-5730-405c-b25e-1034c4c56f3f","75855CF14D7445938636BC9DC9893591-2025-08-07-19-28-16","","null","","images/causal_sequence/dog_causal/dog_causal_8.png","null","",""
"","","","","","image-button-response","85","640718","0.0-12.0-1.0-1.9","75855CF14D7445938636BC9DC9893591","75855CF14D7445938636BC9DC9893591","f8c51160-c049-4381-96e5-2e9d4e4133fc","a9f3d40c-5730-405c-b25e-1034c4c56f3f","{""num_scrambled_semantic"":""8"",""num_scrambled_causal"":""4"",""num_scrambled_schematic"":""4"",""participantId"":""75855CF14D7445938636BC9DC9893591"",""assignmentId"":""f8c51160-c049-4381-96e5-2e9d4e4133fc"",""projectId"":""a9f3d40c-5730-405c-b25e-1034c4c56f3f""}","https://test12345.live/?num_scrambled_semantic=8&num_scrambled_causal=4&num_scrambled_schematic=4&participantId=75855CF14D7445938636BC9DC9893591&assignmentId=f8c51160-c049-4381-96e5-2e9d4e4133fc&projectId=a9f3d40c-5730-405c-b25e-1034c4c56f3f","75855CF14D7445938636BC9DC9893591-2025-08-07-19-28-16","","1309","","images/causal_sequence/dog_causal/dog_causal_8.png","0","",""
"","","","","","image-button-response","86","642522","0.0-12.0-1.0-2.9","75855CF14D7445938636BC9DC9893591","75855CF14D7445938636BC9DC9893591","f8c51160-c049-4381-96e5-2e9d4e4133fc","a9f3d40c-5730-405c-b25e-1034c4c56f3f","{""num_scrambled_semantic"":""8"",""num_scrambled_causal"":""4"",""num_scrambled_schematic"":""4"",""participantId"":""75855CF14D7445938636BC9DC9893591"",""assignmentId"":""f8c51160-c049-4381-96e5-2e9d4e4133fc"",""projectId"":""a9f3d40c-5730-405c-b25e-1034c4c56f3f""}","https://test12345.live/?num_scrambled_semantic=8&num_scrambled_causal=4&num_scrambled_schematic=4&participantId=75855CF14D7445938636BC9DC9893591&assignmentId=f8c51160-c049-4381-96e5-2e9d4e4133fc&projectId=a9f3d40c-5730-405c-b25e-1034c4c56f3f","75855CF14D7445938636BC9DC9893591-2025-08-07-19-28-16","","null","","[]","null","",""
"","","","","","html-audio-response","87","697272","0.0-13.0","75855CF14D7445938636BC9DC9893591","75855CF14D7445938636BC9DC9893591","f8c51160-c049-4381-96e5-2e9d4e4133fc","a9f3d40c-5730-405c-b25e-1034c4c56f3f","{""num_scrambled_semantic"":""8"",""num_scrambled_causal"":""4"",""num_scrambled_schematic"":""4"",""participantId"":""75855CF14D7445938636BC9DC9893591"",""assignmentId"":""f8c51160-c049-4381-96e5-2e9d4e4133fc"",""projectId"":""a9f3d40c-5730-405c-b25e-1034c4c56f3f""}","https://test12345.live/?num_scrambled_semantic=8&num_scrambled_causal=4&num_scrambled_schematic=4&participantId=75855CF14D7445938636BC9DC9893591&assignmentId=f8c51160-c049-4381-96e5-2e9d4e4133fc&projectId=a9f3d40c-5730-405c-b25e-1034c4c56f3f","75855CF14D7445938636BC9DC9893591-2025-08-07-19-28-16","","27687","","[""<span style=\""color: red; font-size: 24px\""> NOW RECORDING</span><p>Please say out loud all the images you saw, as many as you can remember. The images can be said in any order.</p>""]","","1","dog_causal"
"","","","","","image-button-response","88","703279","0.0-14.0-0.0","75855CF14D7445938636BC9DC9893591","75855CF14D7445938636BC9DC9893591","f8c51160-c049-4381-96e5-2e9d4e4133fc","a9f3d40c-5730-405c-b25e-1034c4c56f3f","{""num_scrambled_semantic"":""8"",""num_scrambled_causal"":""4"",""num_scrambled_schematic"":""4"",""participantId"":""75855CF14D7445938636BC9DC9893591"",""assignmentId"":""f8c51160-c049-4381-96e5-2e9d4e4133fc"",""projectId"":""a9f3d40c-5730-405c-b25e-1034c4c56f3f""}","https://test12345.live/?num_scrambled_semantic=8&num_scrambled_causal=4&num_scrambled_schematic=4&participantId=75855CF14D7445938636BC9DC9893591&assignmentId=f8c51160-c049-4381-96e5-2e9d4e4133fc&projectId=a9f3d40c-5730-405c-b25e-1034c4c56f3f","75855CF14D7445938636BC9DC9893591-2025-08-07-19-28-16","","null","","images/causal_sequence/coin_causal/coin_causal_0.png","null","",""
"","","","","","image-button-response","89","707790","0.0-14.0-1.0-0.0","75855CF14D7445938636BC9DC9893591","75855CF14D7445938636BC9DC9893591","f8c51160-c049-4381-96e5-2e9d4e4133fc","a9f3d40c-5730-405c-b25e-1034c4c56f3f","{""num_scrambled_semantic"":""8"",""num_scrambled_causal"":""4"",""num_scrambled_schematic"":""4"",""participantId"":""75855CF14D7445938636BC9DC9893591"",""assignmentId"":""f8c51160-c049-4381-96e5-2e9d4e4133fc"",""projectId"":""a9f3d40c-5730-405c-b25e-1034c4c56f3f""}","https://test12345.live/?num_scrambled_semantic=8&num_scrambled_causal=4&num_scrambled_schematic=4&participantId=75855CF14D7445938636BC9DC9893591&assignmentId=f8c51160-c049-4381-96e5-2e9d4e4133fc&projectId=a9f3d40c-5730-405c-b25e-1034c4c56f3f","75855CF14D7445938636BC9DC9893591-2025-08-07-19-28-16","","null","","images/causal_sequence/coin_causal/coin_causal_1.png","null","",""
"","","","","","image-button-response","90","711802","0.0-14.0-1.0-1.0","75855CF14D7445938636BC9DC9893591","75855CF14D7445938636BC9DC9893591","f8c51160-c049-4381-96e5-2e9d4e4133fc","a9f3d40c-5730-405c-b25e-1034c4c56f3f","{""num_scrambled_semantic"":""8"",""num_scrambled_causal"":""4"",""num_scrambled_schematic"":""4"",""participantId"":""75855CF14D7445938636BC9DC9893591"",""assignmentId"":""f8c51160-c049-4381-96e5-2e9d4e4133fc"",""projectId"":""a9f3d40c-5730-405c-b25e-1034c4c56f3f""}","https://test12345.live/?num_scrambled_semantic=8&num_scrambled_causal=4&num_scrambled_schematic=4&participantId=75855CF14D7445938636BC9DC9893591&assignmentId=f8c51160-c049-4381-96e5-2e9d4e4133fc&projectId=a9f3d40c-5730-405c-b25e-1034c4c56f3f","75855CF14D7445938636BC9DC9893591-2025-08-07-19-28-16","","null","","images/causal_sequence/coin_causal/coin_causal_1.png","null","",""
"","","","","","image-button-response","91","713612","0.0-14.0-1.0-2.0","75855CF14D7445938636BC9DC9893591","75855CF14D7445938636BC9DC9893591","f8c51160-c049-4381-96e5-2e9d4e4133fc","a9f3d40c-5730-405c-b25e-1034c4c56f3f","{""num_scrambled_semantic"":""8"",""num_scrambled_causal"":""4"",""num_scrambled_schematic"":""4"",""participantId"":""75855CF14D7445938636BC9DC9893591"",""assignmentId"":""f8c51160-c049-4381-96e5-2e9d4e4133fc"",""projectId"":""a9f3d40c-5730-405c-b25e-1034c4c56f3f""}","https://test12345.live/?num_scrambled_semantic=8&num_scrambled_causal=4&num_scrambled_schematic=4&participantId=75855CF14D7445938636BC9DC9893591&assignmentId=f8c51160-c049-4381-96e5-2e9d4e4133fc&projectId=a9f3d40c-5730-405c-b25e-1034c4c56f3f","75855CF14D7445938636BC9DC9893591-2025-08-07-19-28-16","","null","","[]","null","",""
"","","","","","image-button-response","92","718127","0.0-14.0-1.0-0.1","75855CF14D7445938636BC9DC9893591","75855CF14D7445938636BC9DC9893591","f8c51160-c049-4381-96e5-2e9d4e4133fc","a9f3d40c-5730-405c-b25e-1034c4c56f3f","{""num_scrambled_semantic"":""8"",""num_scrambled_causal"":""4"",""num_scrambled_schematic"":""4"",""participantId"":""75855CF14D7445938636BC9DC9893591"",""assignmentId"":""f8c51160-c049-4381-96e5-2e9d4e4133fc"",""projectId"":""a9f3d40c-5730-405c-b25e-1034c4c56f3f""}","https://test12345.live/?num_scrambled_semantic=8&num_scrambled_causal=4&num_scrambled_schematic=4&participantId=75855CF14D7445938636BC9DC9893591&assignmentId=f8c51160-c049-4381-96e5-2e9d4e4133fc&projectId=a9f3d40c-5730-405c-b25e-1034c4c56f3f","75855CF14D7445938636BC9DC9893591-2025-08-07-19-28-16","","null","","images/causal_sequence/coin_causal/coin_causal_4.png","null","",""
"","","","","","image-button-response","93","722140","0.0-14.0-1.0-1.1","75855CF14D7445938636BC9DC9893591","75855CF14D7445938636BC9DC9893591","f8c51160-c049-4381-96e5-2e9d4e4133fc","a9f3d40c-5730-405c-b25e-1034c4c56f3f","{""num_scrambled_semantic"":""8"",""num_scrambled_causal"":""4"",""num_scrambled_schematic"":""4"",""participantId"":""75855CF14D7445938636BC9DC9893591"",""assignmentId"":""f8c51160-c049-4381-96e5-2e9d4e4133fc"",""projectId"":""a9f3d40c-5730-405c-b25e-1034c4c56f3f""}","https://test12345.live/?num_scrambled_semantic=8&num_scrambled_causal=4&num_scrambled_schematic=4&participantId=75855CF14D7445938636BC9DC9893591&assignmentId=f8c51160-c049-4381-96e5-2e9d4e4133fc&projectId=a9f3d40c-5730-405c-b25e-1034c4c56f3f","75855CF14D7445938636BC9DC9893591-2025-08-07-19-28-16","","null","","images/causal_sequence/coin_causal/coin_causal_4.png","null","",""
"","","","","","image-button-response","94","723955","0.0-14.0-1.0-2.1","75855CF14D7445938636BC9DC9893591","75855CF14D7445938636BC9DC9893591","f8c51160-c049-4381-96e5-2e9d4e4133fc","a9f3d40c-5730-405c-b25e-1034c4c56f3f","{""num_scrambled_semantic"":""8"",""num_scrambled_causal"":""4"",""num_scrambled_schematic"":""4"",""participantId"":""75855CF14D7445938636BC9DC9893591"",""assignmentId"":""f8c51160-c049-4381-96e5-2e9d4e4133fc"",""projectId"":""a9f3d40c-5730-405c-b25e-1034c4c56f3f""}","https://test12345.live/?num_scrambled_semantic=8&num_scrambled_causal=4&num_scrambled_schematic=4&participantId=75855CF14D7445938636BC9DC9893591&assignmentId=f8c51160-c049-4381-96e5-2e9d4e4133fc&projectId=a9f3d40c-5730-405c-b25e-1034c4c56f3f","75855CF14D7445938636BC9DC9893591-2025-08-07-19-28-16","","null","","[]","null","",""
"","","","","","image-button-response","95","728469","0.0-14.0-1.0-0.2","75855CF14D7445938636BC9DC9893591","75855CF14D7445938636BC9DC9893591","f8c51160-c049-4381-96e5-2e9d4e4133fc","a9f3d40c-5730-405c-b25e-1034c4c56f3f","{""num_scrambled_semantic"":""8"",""num_scrambled_causal"":""4"",""num_scrambled_schematic"":""4"",""participantId"":""75855CF14D7445938636BC9DC9893591"",""assignmentId"":""f8c51160-c049-4381-96e5-2e9d4e4133fc"",""projectId"":""a9f3d40c-5730-405c-b25e-1034c4c56f3f""}","https://test12345.live/?num_scrambled_semantic=8&num_scrambled_causal=4&num_scrambled_schematic=4&participantId=75855CF14D7445938636BC9DC9893591&assignmentId=f8c51160-c049-4381-96e5-2e9d4e4133fc&projectId=a9f3d40c-5730-405c-b25e-1034c4c56f3f","75855CF14D7445938636BC9DC9893591-2025-08-07-19-28-16","","null","","images/causal_sequence/coin_causal/coin_causal_3.png","null","",""
"","","","","","image-button-response","96","731535","0.0-14.0-1.0-1.2","75855CF14D7445938636BC9DC9893591","75855CF14D7445938636BC9DC9893591","f8c51160-c049-4381-96e5-2e9d4e4133fc","a9f3d40c-5730-405c-b25e-1034c4c56f3f","{""num_scrambled_semantic"":""8"",""num_scrambled_causal"":""4"",""num_scrambled_schematic"":""4"",""participantId"":""75855CF14D7445938636BC9DC9893591"",""assignmentId"":""f8c51160-c049-4381-96e5-2e9d4e4133fc"",""projectId"":""a9f3d40c-5730-405c-b25e-1034c4c56f3f""}","https://test12345.live/?num_scrambled_semantic=8&num_scrambled_causal=4&num_scrambled_schematic=4&participantId=75855CF14D7445938636BC9DC9893591&assignmentId=f8c51160-c049-4381-96e5-2e9d4e4133fc&projectId=a9f3d40c-5730-405c-b25e-1034c4c56f3f","75855CF14D7445938636BC9DC9893591-2025-08-07-19-28-16","","3065","","images/causal_sequence/coin_causal/coin_causal_3.png","0","",""
"","","","","","image-button-response","97","733340","0.0-14.0-1.0-2.2","75855CF14D7445938636BC9DC9893591","75855CF14D7445938636BC9DC9893591","f8c51160-c049-4381-96e5-2e9d4e4133fc","a9f3d40c-5730-405c-b25e-1034c4c56f3f","{""num_scrambled_semantic"":""8"",""num_scrambled_causal"":""4"",""num_scrambled_schematic"":""4"",""participantId"":""75855CF14D7445938636BC9DC9893591"",""assignmentId"":""f8c51160-c049-4381-96e5-2e9d4e4133fc"",""projectId"":""a9f3d40c-5730-405c-b25e-1034c4c56f3f""}","https://test12345.live/?num_scrambled_semantic=8&num_scrambled_causal=4&num_scrambled_schematic=4&participantId=75855CF14D7445938636BC9DC9893591&assignmentId=f8c51160-c049-4381-96e5-2e9d4e4133fc&projectId=a9f3d40c-5730-405c-b25e-1034c4c56f3f","75855CF14D7445938636BC9DC9893591-2025-08-07-19-28-16","","null","","[]","null","",""
"","","","","","image-button-response","98","737843","0.0-14.0-1.0-0.3","75855CF14D7445938636BC9DC9893591","75855CF14D7445938636BC9DC9893591","f8c51160-c049-4381-96e5-2e9d4e4133fc","a9f3d40c-5730-405c-b25e-1034c4c56f3f","{""num_scrambled_semantic"":""8"",""num_scrambled_causal"":""4"",""num_scrambled_schematic"":""4"",""participantId"":""75855CF14D7445938636BC9DC9893591"",""assignmentId"":""f8c51160-c049-4381-96e5-2e9d4e4133fc"",""projectId"":""a9f3d40c-5730-405c-b25e-1034c4c56f3f""}","https://test12345.live/?num_scrambled_semantic=8&num_scrambled_causal=4&num_scrambled_schematic=4&participantId=75855CF14D7445938636BC9DC9893591&assignmentId=f8c51160-c049-4381-96e5-2e9d4e4133fc&projectId=a9f3d40c-5730-405c-b25e-1034c4c56f3f","75855CF14D7445938636BC9DC9893591-2025-08-07-19-28-16","","null","","images/causal_sequence/coin_causal/coin_causal_8.png","null","",""
"","","","","","image-button-response","99","741849","0.0-14.0-1.0-1.3","75855CF14D7445938636BC9DC9893591","75855CF14D7445938636BC9DC9893591","f8c51160-c049-4381-96e5-2e9d4e4133fc","a9f3d40c-5730-405c-b25e-1034c4c56f3f","{""num_scrambled_semantic"":""8"",""num_scrambled_causal"":""4"",""num_scrambled_schematic"":""4"",""participantId"":""75855CF14D7445938636BC9DC9893591"",""assignmentId"":""f8c51160-c049-4381-96e5-2e9d4e4133fc"",""projectId"":""a9f3d40c-5730-405c-b25e-1034c4c56f3f""}","https://test12345.live/?num_scrambled_semantic=8&num_scrambled_causal=4&num_scrambled_schematic=4&participantId=75855CF14D7445938636BC9DC9893591&assignmentId=f8c51160-c049-4381-96e5-2e9d4e4133fc&projectId=a9f3d40c-5730-405c-b25e-1034c4c56f3f","75855CF14D7445938636BC9DC9893591-2025-08-07-19-28-16","","null","","images/causal_sequence/coin_causal/coin_causal_8.png","null","",""
"","","","","","image-button-response","100","743665","0.0-14.0-1.0-2.3","75855CF14D7445938636BC9DC9893591","75855CF14D7445938636BC9DC9893591","f8c51160-c049-4381-96e5-2e9d4e4133fc","a9f3d40c-5730-405c-b25e-1034c4c56f3f","{""num_scrambled_semantic"":""8"",""num_scrambled_causal"":""4"",""num_scrambled_schematic"":""4"",""participantId"":""75855CF14D7445938636BC9DC9893591"",""assignmentId"":""f8c51160-c049-4381-96e5-2e9d4e4133fc"",""projectId"":""a9f3d40c-5730-405c-b25e-1034c4c56f3f""}","https://test12345.live/?num_scrambled_semantic=8&num_scrambled_causal=4&num_scrambled_schematic=4&participantId=75855CF14D7445938636BC9DC9893591&assignmentId=f8c51160-c049-4381-96e5-2e9d4e4133fc&projectId=a9f3d40c-5730-405c-b25e-1034c4c56f3f","75855CF14D7445938636BC9DC9893591-2025-08-07-19-28-16","","null","","[]","null","",""
"","","","","","image-button-response","101","748175","0.0-14.0-1.0-0.4","75855CF14D7445938636BC9DC9893591","75855CF14D7445938636BC9DC9893591","f8c51160-c049-4381-96e5-2e9d4e4133fc","a9f3d40c-5730-405c-b25e-1034c4c56f3f","{""num_scrambled_semantic"":""8"",""num_scrambled_causal"":""4"",""num_scrambled_schematic"":""4"",""participantId"":""75855CF14D7445938636BC9DC9893591"",""assignmentId"":""f8c51160-c049-4381-96e5-2e9d4e4133fc"",""projectId"":""a9f3d40c-5730-405c-b25e-1034c4c56f3f""}","https://test12345.live/?num_scrambled_semantic=8&num_scrambled_causal=4&num_scrambled_schematic=4&participantId=75855CF14D7445938636BC9DC9893591&assignmentId=f8c51160-c049-4381-96e5-2e9d4e4133fc&projectId=a9f3d40c-5730-405c-b25e-1034c4c56f3f","75855CF14D7445938636BC9DC9893591-2025-08-07-19-28-16","","null","","images/causal_sequence/coin_causal/coin_causal_2.png","null","",""
"","","","","","image-button-response","102","751961","0.0-14.0-1.0-1.4","75855CF14D7445938636BC9DC9893591","75855CF14D7445938636BC9DC9893591","f8c51160-c049-4381-96e5-2e9d4e4133fc","a9f3d40c-5730-405c-b25e-1034c4c56f3f","{""num_scrambled_semantic"":""8"",""num_scrambled_causal"":""4"",""num_scrambled_schematic"":""4"",""participantId"":""75855CF14D7445938636BC9DC9893591"",""assignmentId"":""f8c51160-c049-4381-96e5-2e9d4e4133fc"",""projectId"":""a9f3d40c-5730-405c-b25e-1034c4c56f3f""}","https://test12345.live/?num_scrambled_semantic=8&num_scrambled_causal=4&num_scrambled_schematic=4&participantId=75855CF14D7445938636BC9DC9893591&assignmentId=f8c51160-c049-4381-96e5-2e9d4e4133fc&projectId=a9f3d40c-5730-405c-b25e-1034c4c56f3f","75855CF14D7445938636BC9DC9893591-2025-08-07-19-28-16","","3784","","images/causal_sequence/coin_causal/coin_causal_2.png","0","",""
"","","","","","image-button-response","103","753764","0.0-14.0-1.0-2.4","75855CF14D7445938636BC9DC9893591","75855CF14D7445938636BC9DC9893591","f8c51160-c049-4381-96e5-2e9d4e4133fc","a9f3d40c-5730-405c-b25e-1034c4c56f3f","{""num_scrambled_semantic"":""8"",""num_scrambled_causal"":""4"",""num_scrambled_schematic"":""4"",""participantId"":""75855CF14D7445938636BC9DC9893591"",""assignmentId"":""f8c51160-c049-4381-96e5-2e9d4e4133fc"",""projectId"":""a9f3d40c-5730-405c-b25e-1034c4c56f3f""}","https://test12345.live/?num_scrambled_semantic=8&num_scrambled_causal=4&num_scrambled_schematic=4&participantId=75855CF14D7445938636BC9DC9893591&assignmentId=f8c51160-c049-4381-96e5-2e9d4e4133fc&projectId=a9f3d40c-5730-405c-b25e-1034c4c56f3f","75855CF14D7445938636BC9DC9893591-2025-08-07-19-28-16","","null","","[]","null","",""
"","","","","","image-button-response","104","758266","0.0-14.0-1.0-0.5","75855CF14D7445938636BC9DC9893591","75855CF14D7445938636BC9DC9893591","f8c51160-c049-4381-96e5-2e9d4e4133fc","a9f3d40c-5730-405c-b25e-1034c4c56f3f","{""num_scrambled_semantic"":""8"",""num_scrambled_causal"":""4"",""num_scrambled_schematic"":""4"",""participantId"":""75855CF14D7445938636BC9DC9893591"",""assignmentId"":""f8c51160-c049-4381-96e5-2e9d4e4133fc"",""projectId"":""a9f3d40c-5730-405c-b25e-1034c4c56f3f""}","https://test12345.live/?num_scrambled_semantic=8&num_scrambled_causal=4&num_scrambled_schematic=4&participantId=75855CF14D7445938636BC9DC9893591&assignmentId=f8c51160-c049-4381-96e5-2e9d4e4133fc&projectId=a9f3d40c-5730-405c-b25e-1034c4c56f3f","75855CF14D7445938636BC9DC9893591-2025-08-07-19-28-16","","null","","images/causal_sequence/coin_causal/coin_causal_5.png","null","",""
"","","","","","image-button-response","105","759552","0.0-14.0-1.0-1.5","75855CF14D7445938636BC9DC9893591","75855CF14D7445938636BC9DC9893591","f8c51160-c049-4381-96e5-2e9d4e4133fc","a9f3d40c-5730-405c-b25e-1034c4c56f3f","{""num_scrambled_semantic"":""8"",""num_scrambled_causal"":""4"",""num_scrambled_schematic"":""4"",""participantId"":""75855CF14D7445938636BC9DC9893591"",""assignmentId"":""f8c51160-c049-4381-96e5-2e9d4e4133fc"",""projectId"":""a9f3d40c-5730-405c-b25e-1034c4c56f3f""}","https://test12345.live/?num_scrambled_semantic=8&num_scrambled_causal=4&num_scrambled_schematic=4&participantId=75855CF14D7445938636BC9DC9893591&assignmentId=f8c51160-c049-4381-96e5-2e9d4e4133fc&projectId=a9f3d40c-5730-405c-b25e-1034c4c56f3f","75855CF14D7445938636BC9DC9893591-2025-08-07-19-28-16","","1285","","images/causal_sequence/coin_causal/coin_causal_5.png","0","",""
"","","","","","image-button-response","106","761353","0.0-14.0-1.0-2.5","75855CF14D7445938636BC9DC9893591","75855CF14D7445938636BC9DC9893591","f8c51160-c049-4381-96e5-2e9d4e4133fc","a9f3d40c-5730-405c-b25e-1034c4c56f3f","{""num_scrambled_semantic"":""8"",""num_scrambled_causal"":""4"",""num_scrambled_schematic"":""4"",""participantId"":""75855CF14D7445938636BC9DC9893591"",""assignmentId"":""f8c51160-c049-4381-96e5-2e9d4e4133fc"",""projectId"":""a9f3d40c-5730-405c-b25e-1034c4c56f3f""}","https://test12345.live/?num_scrambled_semantic=8&num_scrambled_causal=4&num_scrambled_schematic=4&participantId=75855CF14D7445938636BC9DC9893591&assignmentId=f8c51160-c049-4381-96e5-2e9d4e4133fc&projectId=a9f3d40c-5730-405c-b25e-1034c4c56f3f","75855CF14D7445938636BC9DC9893591-2025-08-07-19-28-16","","null","","[]","null","",""
"","","","","","image-button-response","107","765855","0.0-14.0-1.0-0.6","75855CF14D7445938636BC9DC9893591","75855CF14D7445938636BC9DC9893591","f8c51160-c049-4381-96e5-2e9d4e4133fc","a9f3d40c-5730-405c-b25e-1034c4c56f3f","{""num_scrambled_semantic"":""8"",""num_scrambled_causal"":""4"",""num_scrambled_schematic"":""4"",""participantId"":""75855CF14D7445938636BC9DC9893591"",""assignmentId"":""f8c51160-c049-4381-96e5-2e9d4e4133fc"",""projectId"":""a9f3d40c-5730-405c-b25e-1034c4c56f3f""}","https://test12345.live/?num_scrambled_semantic=8&num_scrambled_causal=4&num_scrambled_schematic=4&participantId=75855CF14D7445938636BC9DC9893591&assignmentId=f8c51160-c049-4381-96e5-2e9d4e4133fc&projectId=a9f3d40c-5730-405c-b25e-1034c4c56f3f","75855CF14D7445938636BC9DC9893591-2025-08-07-19-28-16","","null","","images/causal_sequence/coin_causal/coin_causal_7.png","null","",""
"","","","","","image-button-response","108","767581","0.0-14.0-1.0-1.6","75855CF14D7445938636BC9DC9893591","75855CF14D7445938636BC9DC9893591","f8c51160-c049-4381-96e5-2e9d4e4133fc","a9f3d40c-5730-405c-b25e-1034c4c56f3f","{""num_scrambled_semantic"":""8"",""num_scrambled_causal"":""4"",""num_scrambled_schematic"":""4"",""participantId"":""75855CF14D7445938636BC9DC9893591"",""assignmentId"":""f8c51160-c049-4381-96e5-2e9d4e4133fc"",""projectId"":""a9f3d40c-5730-405c-b25e-1034c4c56f3f""}","https://test12345.live/?num_scrambled_semantic=8&num_scrambled_causal=4&num_scrambled_schematic=4&participantId=75855CF14D7445938636BC9DC9893591&assignmentId=f8c51160-c049-4381-96e5-2e9d4e4133fc&projectId=a9f3d40c-5730-405c-b25e-1034c4c56f3f","75855CF14D7445938636BC9DC9893591-2025-08-07-19-28-16","","1726","","images/causal_sequence/coin_causal/coin_causal_7.png","0","",""
"","","","","","image-button-response","109","769393","0.0-14.0-1.0-2.6","75855CF14D7445938636BC9DC9893591","75855CF14D7445938636BC9DC9893591","f8c51160-c049-4381-96e5-2e9d4e4133fc","a9f3d40c-5730-405c-b25e-1034c4c56f3f","{""num_scrambled_semantic"":""8"",""num_scrambled_causal"":""4"",""num_scrambled_schematic"":""4"",""participantId"":""75855CF14D7445938636BC9DC9893591"",""assignmentId"":""f8c51160-c049-4381-96e5-2e9d4e4133fc"",""projectId"":""a9f3d40c-5730-405c-b25e-1034c4c56f3f""}","https://test12345.live/?num_scrambled_semantic=8&num_scrambled_causal=4&num_scrambled_schematic=4&participantId=75855CF14D7445938636BC9DC9893591&assignmentId=f8c51160-c049-4381-96e5-2e9d4e4133fc&projectId=a9f3d40c-5730-405c-b25e-1034c4c56f3f","75855CF14D7445938636BC9DC9893591-2025-08-07-19-28-16","","null","","[]","null","",""
"","","","","","image-button-response","110","773895","0.0-14.0-1.0-0.7","75855CF14D7445938636BC9DC9893591","75855CF14D7445938636BC9DC9893591","f8c51160-c049-4381-96e5-2e9d4e4133fc","a9f3d40c-5730-405c-b25e-1034c4c56f3f","{""num_scrambled_semantic"":""8"",""num_scrambled_causal"":""4"",""num_scrambled_schematic"":""4"",""participantId"":""75855CF14D7445938636BC9DC9893591"",""assignmentId"":""f8c51160-c049-4381-96e5-2e9d4e4133fc"",""projectId"":""a9f3d40c-5730-405c-b25e-1034c4c56f3f""}","https://test12345.live/?num_scrambled_semantic=8&num_scrambled_causal=4&num_scrambled_schematic=4&participantId=75855CF14D7445938636BC9DC9893591&assignmentId=f8c51160-c049-4381-96e5-2e9d4e4133fc&projectId=a9f3d40c-5730-405c-b25e-1034c4c56f3f","75855CF14D7445938636BC9DC9893591-2025-08-07-19-28-16","","null","","images/causal_sequence/coin_causal/coin_causal_6.png","null","",""
"","","","","","image-button-response","111","775119","0.0-14.0-1.0-1.7","75855CF14D7445938636BC9DC9893591","75855CF14D7445938636BC9DC9893591","f8c51160-c049-4381-96e5-2e9d4e4133fc","a9f3d40c-5730-405c-b25e-1034c4c56f3f","{""num_scrambled_semantic"":""8"",""num_scrambled_causal"":""4"",""num_scrambled_schematic"":""4"",""participantId"":""75855CF14D7445938636BC9DC9893591"",""assignmentId"":""f8c51160-c049-4381-96e5-2e9d4e4133fc"",""projectId"":""a9f3d40c-5730-405c-b25e-1034c4c56f3f""}","https://test12345.live/?num_scrambled_semantic=8&num_scrambled_causal=4&num_scrambled_schematic=4&participantId=75855CF14D7445938636BC9DC9893591&assignmentId=f8c51160-c049-4381-96e5-2e9d4e4133fc&projectId=a9f3d40c-5730-405c-b25e-1034c4c56f3f","75855CF14D7445938636BC9DC9893591-2025-08-07-19-28-16","","1223","","images/causal_sequence/coin_causal/coin_causal_6.png","0","",""
"","","","","","image-button-response","112","776934","0.0-14.0-1.0-2.7","75855CF14D7445938636BC9DC9893591","75855CF14D7445938636BC9DC9893591","f8c51160-c049-4381-96e5-2e9d4e4133fc","a9f3d40c-5730-405c-b25e-1034c4c56f3f","{""num_scrambled_semantic"":""8"",""num_scrambled_causal"":""4"",""num_scrambled_schematic"":""4"",""participantId"":""75855CF14D7445938636BC9DC9893591"",""assignmentId"":""f8c51160-c049-4381-96e5-2e9d4e4133fc"",""projectId"":""a9f3d40c-5730-405c-b25e-1034c4c56f3f""}","https://test12345.live/?num_scrambled_semantic=8&num_scrambled_causal=4&num_scrambled_schematic=4&participantId=75855CF14D7445938636BC9DC9893591&assignmentId=f8c51160-c049-4381-96e5-2e9d4e4133fc&projectId=a9f3d40c-5730-405c-b25e-1034c4c56f3f","75855CF14D7445938636BC9DC9893591-2025-08-07-19-28-16","","null","","[]","null","",""
"","","","","","image-button-response","113","781436","0.0-14.0-1.0-0.8","75855CF14D7445938636BC9DC9893591","75855CF14D7445938636BC9DC9893591","f8c51160-c049-4381-96e5-2e9d4e4133fc","a9f3d40c-5730-405c-b25e-1034c4c56f3f","{""num_scrambled_semantic"":""8"",""num_scrambled_causal"":""4"",""num_scrambled_schematic"":""4"",""participantId"":""75855CF14D7445938636BC9DC9893591"",""assignmentId"":""f8c51160-c049-4381-96e5-2e9d4e4133fc"",""projectId"":""a9f3d40c-5730-405c-b25e-1034c4c56f3f""}","https://test12345.live/?num_scrambled_semantic=8&num_scrambled_causal=4&num_scrambled_schematic=4&participantId=75855CF14D7445938636BC9DC9893591&assignmentId=f8c51160-c049-4381-96e5-2e9d4e4133fc&projectId=a9f3d40c-5730-405c-b25e-1034c4c56f3f","75855CF14D7445938636BC9DC9893591-2025-08-07-19-28-16","","null","","images/causal_sequence/coin_causal/coin_causal_ten.png","null","",""
"","","","","","image-button-response","114","783436","0.0-14.0-1.0-1.8","75855CF14D7445938636BC9DC9893591","75855CF14D7445938636BC9DC9893591","f8c51160-c049-4381-96e5-2e9d4e4133fc","a9f3d40c-5730-405c-b25e-1034c4c56f3f","{""num_scrambled_semantic"":""8"",""num_scrambled_causal"":""4"",""num_scrambled_schematic"":""4"",""participantId"":""75855CF14D7445938636BC9DC9893591"",""assignmentId"":""f8c51160-c049-4381-96e5-2e9d4e4133fc"",""projectId"":""a9f3d40c-5730-405c-b25e-1034c4c56f3f""}","https://test12345.live/?num_scrambled_semantic=8&num_scrambled_causal=4&num_scrambled_schematic=4&participantId=75855CF14D7445938636BC9DC9893591&assignmentId=f8c51160-c049-4381-96e5-2e9d4e4133fc&projectId=a9f3d40c-5730-405c-b25e-1034c4c56f3f","75855CF14D7445938636BC9DC9893591-2025-08-07-19-28-16","","2000","","images/causal_sequence/coin_causal/coin_causal_ten.png","0","",""
"","","","","","image-button-response","115","785238","0.0-14.0-1.0-2.8","75855CF14D7445938636BC9DC9893591","75855CF14D7445938636BC9DC9893591","f8c51160-c049-4381-96e5-2e9d4e4133fc","a9f3d40c-5730-405c-b25e-1034c4c56f3f","{""num_scrambled_semantic"":""8"",""num_scrambled_causal"":""4"",""num_scrambled_schematic"":""4"",""participantId"":""75855CF14D7445938636BC9DC9893591"",""assignmentId"":""f8c51160-c049-4381-96e5-2e9d4e4133fc"",""projectId"":""a9f3d40c-5730-405c-b25e-1034c4c56f3f""}","https://test12345.live/?num_scrambled_semantic=8&num_scrambled_causal=4&num_scrambled_schematic=4&participantId=75855CF14D7445938636BC9DC9893591&assignmentId=f8c51160-c049-4381-96e5-2e9d4e4133fc&projectId=a9f3d40c-5730-405c-b25e-1034c4c56f3f","75855CF14D7445938636BC9DC9893591-2025-08-07-19-28-16","","null","","[]","null","",""
