"success","timeout","failed_images","failed_audio","failed_video","trial_type","trial_index","time_elapsed","internal_node_id","subject","subject_id","study_id","session_id","urlvar","current_url","audio_id","view_history","rt","device_id","stimulus","response","estimated_stimulus_onset","seq_name"
"true","false","[]","[]","[]","preload","0","6129","0.0-0.0","7622E247FD564A23A70A62C16301506F","7622E247FD564A23A70A62C16301506F","dc56b55d-906c-4168-b331-9fc0130002bc","6d972c12-ef4f-4967-baa7-815328c4c025","{""num_scrambled_semantic"":""8"",""num_scrambled_causal"":""4"",""num_scrambled_schematic"":""4"",""participantId"":""7622E247FD564A23A70A62C16301506F"",""assignmentId"":""dc56b55d-906c-4168-b331-9fc0130002bc"",""projectId"":""6d972c12-ef4f-4967-baa7-815328c4c025""}","https://test12345.live/?num_scrambled_semantic=8&num_scrambled_causal=4&num_scrambled_schematic=4&participantId=7622E247FD564A23A70A62C16301506F&assignmentId=dc56b55d-906c-4168-b331-9fc0130002bc&projectId=6d972c12-ef4f-4967-baa7-815328c4c025","7622E247FD564A23A70A62C16301506F-2025-08-07-17-50-34","","","","","","",""
"","","","","","instructions","1","43324","0.0-1.0","7622E247FD564A23A70A62C16301506F","7622E247FD564A23A70A62C16301506F","dc56b55d-906c-4168-b331-9fc0130002bc","6d972c12-ef4f-4967-baa7-815328c4c025","{""num_scrambled_semantic"":""8"",""num_scrambled_causal"":""4"",""num_scrambled_schematic"":""4"",""participantId"":""7622E247FD564A23A70A62C16301506F"",""assignmentId"":""dc56b55d-906c-4168-b331-9fc0130002bc"",""projectId"":""6d972c12-ef4f-4967-baa7-815328c4c025""}","https://test12345.live/?num_scrambled_semantic=8&num_scrambled_causal=4&num_scrambled_schematic=4&participantId=7622E247FD564A23A70A62C16301506F&assignmentId=dc56b55d-906c-4168-b331-9fc0130002bc&projectId=6d972c12-ef4f-4967-baa7-815328c4c025","7622E247FD564A23A70A62C16301506F-2025-08-07-17-50-34","[{""page_index"":0,""viewing_time"":37195}]","37195","","","","",""
"","","","","","instructions","2","46621","0.0-2.0","7622E247FD564A23A70A62C16301506F","7622E247FD564A23A70A62C16301506F","dc56b55d-906c-4168-b331-9fc0130002bc","6d972c12-ef4f-4967-baa7-815328c4c025","{""num_scrambled_semantic"":""8"",""num_scrambled_causal"":""4"",""num_scrambled_schematic"":""4"",""participantId"":""7622E247FD564A23A70A62C16301506F"",""assignmentId"":""dc56b55d-906c-4168-b331-9fc0130002bc"",""projectId"":""6d972c12-ef4f-4967-baa7-815328c4c025""}","https://test12345.live/?num_scrambled_semantic=8&num_scrambled_causal=4&num_scrambled_schematic=4&participantId=7622E247FD564A23A70A62C16301506F&assignmentId=dc56b55d-906c-4168-b331-9fc0130002bc&projectId=6d972c12-ef4f-4967-baa7-815328c4c025","7622E247FD564A23A70A62C16301506F-2025-08-07-17-50-34","[{""page_index"":0,""viewing_time"":3296}]","3296","","","","",""
"true","","","","","fullscreen","3","49410","0.0-3.0","7622E247FD564A23A70A62C16301506F","7622E247FD564A23A70A62C16301506F","dc56b55d-906c-4168-b331-9fc0130002bc","6d972c12-ef4f-4967-baa7-815328c4c025","{""num_scrambled_semantic"":""8"",""num_scrambled_causal"":""4"",""num_scrambled_schematic"":""4"",""participantId"":""7622E247FD564A23A70A62C16301506F"",""assignmentId"":""dc56b55d-906c-4168-b331-9fc0130002bc"",""projectId"":""6d972c12-ef4f-4967-baa7-815328c4c025""}","https://test12345.live/?num_scrambled_semantic=8&num_scrambled_causal=4&num_scrambled_schematic=4&participantId=7622E247FD564A23A70A62C16301506F&assignmentId=dc56b55d-906c-4168-b331-9fc0130002bc&projectId=6d972c12-ef4f-4967-baa7-815328c4c025","7622E247FD564A23A70A62C16301506F-2025-08-07-17-50-34","","1782","","","","",""
"","","","","","initialize-microphone","4","61215","0.0-4.0-0.0","7622E247FD564A23A70A62C16301506F","7622E247FD564A23A70A62C16301506F","dc56b55d-906c-4168-b331-9fc0130002bc","6d972c12-ef4f-4967-baa7-815328c4c025","{""num_scrambled_semantic"":""8"",""num_scrambled_causal"":""4"",""num_scrambled_schematic"":""4"",""participantId"":""7622E247FD564A23A70A62C16301506F"",""assignmentId"":""dc56b55d-906c-4168-b331-9fc0130002bc"",""projectId"":""6d972c12-ef4f-4967-baa7-815328c4c025""}","https://test12345.live/?num_scrambled_semantic=8&num_scrambled_causal=4&num_scrambled_schematic=4&participantId=7622E247FD564A23A70A62C16301506F&assignmentId=dc56b55d-906c-4168-b331-9fc0130002bc&projectId=6d972c12-ef4f-4967-baa7-815328c4c025","7622E247FD564A23A70A62C16301506F-2025-08-07-17-50-34","","","Ym9dnW6kC8g0Iyw7VSGPx/woYNMwXcJgIXlRPyn7N0g=","","","",""
"","","","","","html-audio-response","5","70798","0.0-4.0-1.0","7622E247FD564A23A70A62C16301506F","7622E247FD564A23A70A62C16301506F","dc56b55d-906c-4168-b331-9fc0130002bc","6d972c12-ef4f-4967-baa7-815328c4c025","{""num_scrambled_semantic"":""8"",""num_scrambled_causal"":""4"",""num_scrambled_schematic"":""4"",""participantId"":""7622E247FD564A23A70A62C16301506F"",""assignmentId"":""dc56b55d-906c-4168-b331-9fc0130002bc"",""projectId"":""6d972c12-ef4f-4967-baa7-815328c4c025""}","https://test12345.live/?num_scrambled_semantic=8&num_scrambled_causal=4&num_scrambled_schematic=4&participantId=7622E247FD564A23A70A62C16301506F&assignmentId=dc56b55d-906c-4168-b331-9fc0130002bc&projectId=6d972c12-ef4f-4967-baa7-815328c4c025","7622E247FD564A23A70A62C16301506F-2025-08-07-17-50-34","","3426","","<span style=""color: red; font-size: 24px""> NOW RECORDING</span>
        <p>Please test Microphone</p>","","1",""
"","","","","","html-button-response","6","72488","0.0-4.0-2.0","7622E247FD564A23A70A62C16301506F","7622E247FD564A23A70A62C16301506F","dc56b55d-906c-4168-b331-9fc0130002bc","6d972c12-ef4f-4967-baa7-815328c4c025","{""num_scrambled_semantic"":""8"",""num_scrambled_causal"":""4"",""num_scrambled_schematic"":""4"",""participantId"":""7622E247FD564A23A70A62C16301506F"",""assignmentId"":""dc56b55d-906c-4168-b331-9fc0130002bc"",""projectId"":""6d972c12-ef4f-4967-baa7-815328c4c025""}","https://test12345.live/?num_scrambled_semantic=8&num_scrambled_causal=4&num_scrambled_schematic=4&participantId=7622E247FD564A23A70A62C16301506F&assignmentId=dc56b55d-906c-4168-b331-9fc0130002bc&projectId=6d972c12-ef4f-4967-baa7-815328c4c025","7622E247FD564A23A70A62C16301506F-2025-08-07-17-50-34","","1690","","<p style=""font-size:48px; color:red;"">Is Microphone OK?</p>","1","",""
"","","","","","instructions","7","85703","0.0-5.0","7622E247FD564A23A70A62C16301506F","7622E247FD564A23A70A62C16301506F","dc56b55d-906c-4168-b331-9fc0130002bc","6d972c12-ef4f-4967-baa7-815328c4c025","{""num_scrambled_semantic"":""8"",""num_scrambled_causal"":""4"",""num_scrambled_schematic"":""4"",""participantId"":""7622E247FD564A23A70A62C16301506F"",""assignmentId"":""dc56b55d-906c-4168-b331-9fc0130002bc"",""projectId"":""6d972c12-ef4f-4967-baa7-815328c4c025""}","https://test12345.live/?num_scrambled_semantic=8&num_scrambled_causal=4&num_scrambled_schematic=4&participantId=7622E247FD564A23A70A62C16301506F&assignmentId=dc56b55d-906c-4168-b331-9fc0130002bc&projectId=6d972c12-ef4f-4967-baa7-815328c4c025","7622E247FD564A23A70A62C16301506F-2025-08-07-17-50-34","[{""page_index"":0,""viewing_time"":4321},{""page_index"":1,""viewing_time"":8893}]","13214","","","","",""
"","","","","","image-button-response","8","91978","0.0-6.0-0.0","7622E247FD564A23A70A62C16301506F","7622E247FD564A23A70A62C16301506F","dc56b55d-906c-4168-b331-9fc0130002bc","6d972c12-ef4f-4967-baa7-815328c4c025","{""num_scrambled_semantic"":""8"",""num_scrambled_causal"":""4"",""num_scrambled_schematic"":""4"",""participantId"":""7622E247FD564A23A70A62C16301506F"",""assignmentId"":""dc56b55d-906c-4168-b331-9fc0130002bc"",""projectId"":""6d972c12-ef4f-4967-baa7-815328c4c025""}","https://test12345.live/?num_scrambled_semantic=8&num_scrambled_causal=4&num_scrambled_schematic=4&participantId=7622E247FD564A23A70A62C16301506F&assignmentId=dc56b55d-906c-4168-b331-9fc0130002bc&projectId=6d972c12-ef4f-4967-baa7-815328c4c025","7622E247FD564A23A70A62C16301506F-2025-08-07-17-50-34","","null","","images/instructions/movie_0.png","null","",""
"","","","","","image-button-response","9","96505","0.0-6.0-1.0-0.0","7622E247FD564A23A70A62C16301506F","7622E247FD564A23A70A62C16301506F","dc56b55d-906c-4168-b331-9fc0130002bc","6d972c12-ef4f-4967-baa7-815328c4c025","{""num_scrambled_semantic"":""8"",""num_scrambled_causal"":""4"",""num_scrambled_schematic"":""4"",""participantId"":""7622E247FD564A23A70A62C16301506F"",""assignmentId"":""dc56b55d-906c-4168-b331-9fc0130002bc"",""projectId"":""6d972c12-ef4f-4967-baa7-815328c4c025""}","https://test12345.live/?num_scrambled_semantic=8&num_scrambled_causal=4&num_scrambled_schematic=4&participantId=7622E247FD564A23A70A62C16301506F&assignmentId=dc56b55d-906c-4168-b331-9fc0130002bc&projectId=6d972c12-ef4f-4967-baa7-815328c4c025","7622E247FD564A23A70A62C16301506F-2025-08-07-17-50-34","","null","","images/instructions/movie_1.png","null","",""
"","","","","","image-button-response","10","98851","0.0-6.0-1.0-1.0","7622E247FD564A23A70A62C16301506F","7622E247FD564A23A70A62C16301506F","dc56b55d-906c-4168-b331-9fc0130002bc","6d972c12-ef4f-4967-baa7-815328c4c025","{""num_scrambled_semantic"":""8"",""num_scrambled_causal"":""4"",""num_scrambled_schematic"":""4"",""participantId"":""7622E247FD564A23A70A62C16301506F"",""assignmentId"":""dc56b55d-906c-4168-b331-9fc0130002bc"",""projectId"":""6d972c12-ef4f-4967-baa7-815328c4c025""}","https://test12345.live/?num_scrambled_semantic=8&num_scrambled_causal=4&num_scrambled_schematic=4&participantId=7622E247FD564A23A70A62C16301506F&assignmentId=dc56b55d-906c-4168-b331-9fc0130002bc&projectId=6d972c12-ef4f-4967-baa7-815328c4c025","7622E247FD564A23A70A62C16301506F-2025-08-07-17-50-34","","2345","","images/instructions/movie_1.png","0","",""
"","","","","","image-button-response","11","100653","0.0-6.0-1.0-2.0","7622E247FD564A23A70A62C16301506F","7622E247FD564A23A70A62C16301506F","dc56b55d-906c-4168-b331-9fc0130002bc","6d972c12-ef4f-4967-baa7-815328c4c025","{""num_scrambled_semantic"":""8"",""num_scrambled_causal"":""4"",""num_scrambled_schematic"":""4"",""participantId"":""7622E247FD564A23A70A62C16301506F"",""assignmentId"":""dc56b55d-906c-4168-b331-9fc0130002bc"",""projectId"":""6d972c12-ef4f-4967-baa7-815328c4c025""}","https://test12345.live/?num_scrambled_semantic=8&num_scrambled_causal=4&num_scrambled_schematic=4&participantId=7622E247FD564A23A70A62C16301506F&assignmentId=dc56b55d-906c-4168-b331-9fc0130002bc&projectId=6d972c12-ef4f-4967-baa7-815328c4c025","7622E247FD564A23A70A62C16301506F-2025-08-07-17-50-34","","null","","[]","null","",""
"","","","","","image-button-response","12","105181","0.0-6.0-1.0-0.1","7622E247FD564A23A70A62C16301506F","7622E247FD564A23A70A62C16301506F","dc56b55d-906c-4168-b331-9fc0130002bc","6d972c12-ef4f-4967-baa7-815328c4c025","{""num_scrambled_semantic"":""8"",""num_scrambled_causal"":""4"",""num_scrambled_schematic"":""4"",""participantId"":""7622E247FD564A23A70A62C16301506F"",""assignmentId"":""dc56b55d-906c-4168-b331-9fc0130002bc"",""projectId"":""6d972c12-ef4f-4967-baa7-815328c4c025""}","https://test12345.live/?num_scrambled_semantic=8&num_scrambled_causal=4&num_scrambled_schematic=4&participantId=7622E247FD564A23A70A62C16301506F&assignmentId=dc56b55d-906c-4168-b331-9fc0130002bc&projectId=6d972c12-ef4f-4967-baa7-815328c4c025","7622E247FD564A23A70A62C16301506F-2025-08-07-17-50-34","","null","","images/instructions/movie_2.png","null","",""
"","","","","","image-button-response","13","106798","0.0-6.0-1.0-1.1","7622E247FD564A23A70A62C16301506F","7622E247FD564A23A70A62C16301506F","dc56b55d-906c-4168-b331-9fc0130002bc","6d972c12-ef4f-4967-baa7-815328c4c025","{""num_scrambled_semantic"":""8"",""num_scrambled_causal"":""4"",""num_scrambled_schematic"":""4"",""participantId"":""7622E247FD564A23A70A62C16301506F"",""assignmentId"":""dc56b55d-906c-4168-b331-9fc0130002bc"",""projectId"":""6d972c12-ef4f-4967-baa7-815328c4c025""}","https://test12345.live/?num_scrambled_semantic=8&num_scrambled_causal=4&num_scrambled_schematic=4&participantId=7622E247FD564A23A70A62C16301506F&assignmentId=dc56b55d-906c-4168-b331-9fc0130002bc&projectId=6d972c12-ef4f-4967-baa7-815328c4c025","7622E247FD564A23A70A62C16301506F-2025-08-07-17-50-34","","1616","","images/instructions/movie_2.png","0","",""
"","","","","","image-button-response","14","108685","0.0-6.0-1.0-2.1","7622E247FD564A23A70A62C16301506F","7622E247FD564A23A70A62C16301506F","dc56b55d-906c-4168-b331-9fc0130002bc","6d972c12-ef4f-4967-baa7-815328c4c025","{""num_scrambled_semantic"":""8"",""num_scrambled_causal"":""4"",""num_scrambled_schematic"":""4"",""participantId"":""7622E247FD564A23A70A62C16301506F"",""assignmentId"":""dc56b55d-906c-4168-b331-9fc0130002bc"",""projectId"":""6d972c12-ef4f-4967-baa7-815328c4c025""}","https://test12345.live/?num_scrambled_semantic=8&num_scrambled_causal=4&num_scrambled_schematic=4&participantId=7622E247FD564A23A70A62C16301506F&assignmentId=dc56b55d-906c-4168-b331-9fc0130002bc&projectId=6d972c12-ef4f-4967-baa7-815328c4c025","7622E247FD564A23A70A62C16301506F-2025-08-07-17-50-34","","null","","[]","null","",""
"","","","","","image-button-response","15","113371","0.0-6.0-1.0-0.2","7622E247FD564A23A70A62C16301506F","7622E247FD564A23A70A62C16301506F","dc56b55d-906c-4168-b331-9fc0130002bc","6d972c12-ef4f-4967-baa7-815328c4c025","{""num_scrambled_semantic"":""8"",""num_scrambled_causal"":""4"",""num_scrambled_schematic"":""4"",""participantId"":""7622E247FD564A23A70A62C16301506F"",""assignmentId"":""dc56b55d-906c-4168-b331-9fc0130002bc"",""projectId"":""6d972c12-ef4f-4967-baa7-815328c4c025""}","https://test12345.live/?num_scrambled_semantic=8&num_scrambled_causal=4&num_scrambled_schematic=4&participantId=7622E247FD564A23A70A62C16301506F&assignmentId=dc56b55d-906c-4168-b331-9fc0130002bc&projectId=6d972c12-ef4f-4967-baa7-815328c4c025","7622E247FD564A23A70A62C16301506F-2025-08-07-17-50-34","","null","","images/instructions/movie_3.png","null","",""
"","","","","","image-button-response","16","114355","0.0-6.0-1.0-1.2","7622E247FD564A23A70A62C16301506F","7622E247FD564A23A70A62C16301506F","dc56b55d-906c-4168-b331-9fc0130002bc","6d972c12-ef4f-4967-baa7-815328c4c025","{""num_scrambled_semantic"":""8"",""num_scrambled_causal"":""4"",""num_scrambled_schematic"":""4"",""participantId"":""7622E247FD564A23A70A62C16301506F"",""assignmentId"":""dc56b55d-906c-4168-b331-9fc0130002bc"",""projectId"":""6d972c12-ef4f-4967-baa7-815328c4c025""}","https://test12345.live/?num_scrambled_semantic=8&num_scrambled_causal=4&num_scrambled_schematic=4&participantId=7622E247FD564A23A70A62C16301506F&assignmentId=dc56b55d-906c-4168-b331-9fc0130002bc&projectId=6d972c12-ef4f-4967-baa7-815328c4c025","7622E247FD564A23A70A62C16301506F-2025-08-07-17-50-34","","981","","images/instructions/movie_3.png","0","",""
"","","","","","image-button-response","17","116166","0.0-6.0-1.0-2.2","7622E247FD564A23A70A62C16301506F","7622E247FD564A23A70A62C16301506F","dc56b55d-906c-4168-b331-9fc0130002bc","6d972c12-ef4f-4967-baa7-815328c4c025","{""num_scrambled_semantic"":""8"",""num_scrambled_causal"":""4"",""num_scrambled_schematic"":""4"",""participantId"":""7622E247FD564A23A70A62C16301506F"",""assignmentId"":""dc56b55d-906c-4168-b331-9fc0130002bc"",""projectId"":""6d972c12-ef4f-4967-baa7-815328c4c025""}","https://test12345.live/?num_scrambled_semantic=8&num_scrambled_causal=4&num_scrambled_schematic=4&participantId=7622E247FD564A23A70A62C16301506F&assignmentId=dc56b55d-906c-4168-b331-9fc0130002bc&projectId=6d972c12-ef4f-4967-baa7-815328c4c025","7622E247FD564A23A70A62C16301506F-2025-08-07-17-50-34","","null","","[]","null","",""
"","","","","","image-button-response","18","120942","0.0-6.0-1.0-0.3","7622E247FD564A23A70A62C16301506F","7622E247FD564A23A70A62C16301506F","dc56b55d-906c-4168-b331-9fc0130002bc","6d972c12-ef4f-4967-baa7-815328c4c025","{""num_scrambled_semantic"":""8"",""num_scrambled_causal"":""4"",""num_scrambled_schematic"":""4"",""participantId"":""7622E247FD564A23A70A62C16301506F"",""assignmentId"":""dc56b55d-906c-4168-b331-9fc0130002bc"",""projectId"":""6d972c12-ef4f-4967-baa7-815328c4c025""}","https://test12345.live/?num_scrambled_semantic=8&num_scrambled_causal=4&num_scrambled_schematic=4&participantId=7622E247FD564A23A70A62C16301506F&assignmentId=dc56b55d-906c-4168-b331-9fc0130002bc&projectId=6d972c12-ef4f-4967-baa7-815328c4c025","7622E247FD564A23A70A62C16301506F-2025-08-07-17-50-34","","null","","images/instructions/movie_4.png","null","",""
"","","","","","image-button-response","19","121945","0.0-6.0-1.0-1.3","7622E247FD564A23A70A62C16301506F","7622E247FD564A23A70A62C16301506F","dc56b55d-906c-4168-b331-9fc0130002bc","6d972c12-ef4f-4967-baa7-815328c4c025","{""num_scrambled_semantic"":""8"",""num_scrambled_causal"":""4"",""num_scrambled_schematic"":""4"",""participantId"":""7622E247FD564A23A70A62C16301506F"",""assignmentId"":""dc56b55d-906c-4168-b331-9fc0130002bc"",""projectId"":""6d972c12-ef4f-4967-baa7-815328c4c025""}","https://test12345.live/?num_scrambled_semantic=8&num_scrambled_causal=4&num_scrambled_schematic=4&participantId=7622E247FD564A23A70A62C16301506F&assignmentId=dc56b55d-906c-4168-b331-9fc0130002bc&projectId=6d972c12-ef4f-4967-baa7-815328c4c025","7622E247FD564A23A70A62C16301506F-2025-08-07-17-50-34","","1002","","images/instructions/movie_4.png","0","",""
"","","","","","image-button-response","20","123962","0.0-6.0-1.0-2.3","7622E247FD564A23A70A62C16301506F","7622E247FD564A23A70A62C16301506F","dc56b55d-906c-4168-b331-9fc0130002bc","6d972c12-ef4f-4967-baa7-815328c4c025","{""num_scrambled_semantic"":""8"",""num_scrambled_causal"":""4"",""num_scrambled_schematic"":""4"",""participantId"":""7622E247FD564A23A70A62C16301506F"",""assignmentId"":""dc56b55d-906c-4168-b331-9fc0130002bc"",""projectId"":""6d972c12-ef4f-4967-baa7-815328c4c025""}","https://test12345.live/?num_scrambled_semantic=8&num_scrambled_causal=4&num_scrambled_schematic=4&participantId=7622E247FD564A23A70A62C16301506F&assignmentId=dc56b55d-906c-4168-b331-9fc0130002bc&projectId=6d972c12-ef4f-4967-baa7-815328c4c025","7622E247FD564A23A70A62C16301506F-2025-08-07-17-50-34","","null","","[]","null","",""
"","","","","","instructions","21","136661","0.0-7.0","7622E247FD564A23A70A62C16301506F","7622E247FD564A23A70A62C16301506F","dc56b55d-906c-4168-b331-9fc0130002bc","6d972c12-ef4f-4967-baa7-815328c4c025","{""num_scrambled_semantic"":""8"",""num_scrambled_causal"":""4"",""num_scrambled_schematic"":""4"",""participantId"":""7622E247FD564A23A70A62C16301506F"",""assignmentId"":""dc56b55d-906c-4168-b331-9fc0130002bc"",""projectId"":""6d972c12-ef4f-4967-baa7-815328c4c025""}","https://test12345.live/?num_scrambled_semantic=8&num_scrambled_causal=4&num_scrambled_schematic=4&participantId=7622E247FD564A23A70A62C16301506F&assignmentId=dc56b55d-906c-4168-b331-9fc0130002bc&projectId=6d972c12-ef4f-4967-baa7-815328c4c025","7622E247FD564A23A70A62C16301506F-2025-08-07-17-50-34","[{""page_index"":0,""viewing_time"":11713},{""page_index"":1,""viewing_time"":985}]","12698","","","","",""
"","","","","","html-audio-response","22","168065","0.0-8.0","7622E247FD564A23A70A62C16301506F","7622E247FD564A23A70A62C16301506F","dc56b55d-906c-4168-b331-9fc0130002bc","6d972c12-ef4f-4967-baa7-815328c4c025","{""num_scrambled_semantic"":""8"",""num_scrambled_causal"":""4"",""num_scrambled_schematic"":""4"",""participantId"":""7622E247FD564A23A70A62C16301506F"",""assignmentId"":""dc56b55d-906c-4168-b331-9fc0130002bc"",""projectId"":""6d972c12-ef4f-4967-baa7-815328c4c025""}","https://test12345.live/?num_scrambled_semantic=8&num_scrambled_causal=4&num_scrambled_schematic=4&participantId=7622E247FD564A23A70A62C16301506F&assignmentId=dc56b55d-906c-4168-b331-9fc0130002bc&projectId=6d972c12-ef4f-4967-baa7-815328c4c025","7622E247FD564A23A70A62C16301506F-2025-08-07-17-50-34","","15990","","[""<span style=\""color: red; font-size: 24px\""> NOW RECORDING</span><p>Please say out loud all the images you saw in the exact order you saw them. Try to recall as many images as you can, but remember: getting the order right is more important than the number of images you recall.</p>""]","","7",""
"","","","","","instructions","23","169317","0.0-9.0","7622E247FD564A23A70A62C16301506F","7622E247FD564A23A70A62C16301506F","dc56b55d-906c-4168-b331-9fc0130002bc","6d972c12-ef4f-4967-baa7-815328c4c025","{""num_scrambled_semantic"":""8"",""num_scrambled_causal"":""4"",""num_scrambled_schematic"":""4"",""participantId"":""7622E247FD564A23A70A62C16301506F"",""assignmentId"":""dc56b55d-906c-4168-b331-9fc0130002bc"",""projectId"":""6d972c12-ef4f-4967-baa7-815328c4c025""}","https://test12345.live/?num_scrambled_semantic=8&num_scrambled_causal=4&num_scrambled_schematic=4&participantId=7622E247FD564A23A70A62C16301506F&assignmentId=dc56b55d-906c-4168-b331-9fc0130002bc&projectId=6d972c12-ef4f-4967-baa7-815328c4c025","7622E247FD564A23A70A62C16301506F-2025-08-07-17-50-34","[{""page_index"":0,""viewing_time"":1247}]","1248","","","","",""
"","","","","","image-button-response","24","175428","0.0-10.0-0.0","7622E247FD564A23A70A62C16301506F","7622E247FD564A23A70A62C16301506F","dc56b55d-906c-4168-b331-9fc0130002bc","6d972c12-ef4f-4967-baa7-815328c4c025","{""num_scrambled_semantic"":""8"",""num_scrambled_causal"":""4"",""num_scrambled_schematic"":""4"",""participantId"":""7622E247FD564A23A70A62C16301506F"",""assignmentId"":""dc56b55d-906c-4168-b331-9fc0130002bc"",""projectId"":""6d972c12-ef4f-4967-baa7-815328c4c025""}","https://test12345.live/?num_scrambled_semantic=8&num_scrambled_causal=4&num_scrambled_schematic=4&participantId=7622E247FD564A23A70A62C16301506F&assignmentId=dc56b55d-906c-4168-b331-9fc0130002bc&projectId=6d972c12-ef4f-4967-baa7-815328c4c025","7622E247FD564A23A70A62C16301506F-2025-08-07-17-50-34","","null","","images/semantic_sequence/housework_semantic/housework_semantic_0.png","null","",""
"","","","","","image-button-response","25","179950","0.0-10.0-1.0-0.0","7622E247FD564A23A70A62C16301506F","7622E247FD564A23A70A62C16301506F","dc56b55d-906c-4168-b331-9fc0130002bc","6d972c12-ef4f-4967-baa7-815328c4c025","{""num_scrambled_semantic"":""8"",""num_scrambled_causal"":""4"",""num_scrambled_schematic"":""4"",""participantId"":""7622E247FD564A23A70A62C16301506F"",""assignmentId"":""dc56b55d-906c-4168-b331-9fc0130002bc"",""projectId"":""6d972c12-ef4f-4967-baa7-815328c4c025""}","https://test12345.live/?num_scrambled_semantic=8&num_scrambled_causal=4&num_scrambled_schematic=4&participantId=7622E247FD564A23A70A62C16301506F&assignmentId=dc56b55d-906c-4168-b331-9fc0130002bc&projectId=6d972c12-ef4f-4967-baa7-815328c4c025","7622E247FD564A23A70A62C16301506F-2025-08-07-17-50-34","","null","","images/semantic_sequence/housework_semantic/housework_semantic_4.png","null","",""
"","","","","","image-button-response","26","181343","0.0-10.0-1.0-1.0","7622E247FD564A23A70A62C16301506F","7622E247FD564A23A70A62C16301506F","dc56b55d-906c-4168-b331-9fc0130002bc","6d972c12-ef4f-4967-baa7-815328c4c025","{""num_scrambled_semantic"":""8"",""num_scrambled_causal"":""4"",""num_scrambled_schematic"":""4"",""participantId"":""7622E247FD564A23A70A62C16301506F"",""assignmentId"":""dc56b55d-906c-4168-b331-9fc0130002bc"",""projectId"":""6d972c12-ef4f-4967-baa7-815328c4c025""}","https://test12345.live/?num_scrambled_semantic=8&num_scrambled_causal=4&num_scrambled_schematic=4&participantId=7622E247FD564A23A70A62C16301506F&assignmentId=dc56b55d-906c-4168-b331-9fc0130002bc&projectId=6d972c12-ef4f-4967-baa7-815328c4c025","7622E247FD564A23A70A62C16301506F-2025-08-07-17-50-34","","1391","","images/semantic_sequence/housework_semantic/housework_semantic_4.png","0","",""
"","","","","","image-button-response","27","183354","0.0-10.0-1.0-2.0","7622E247FD564A23A70A62C16301506F","7622E247FD564A23A70A62C16301506F","dc56b55d-906c-4168-b331-9fc0130002bc","6d972c12-ef4f-4967-baa7-815328c4c025","{""num_scrambled_semantic"":""8"",""num_scrambled_causal"":""4"",""num_scrambled_schematic"":""4"",""participantId"":""7622E247FD564A23A70A62C16301506F"",""assignmentId"":""dc56b55d-906c-4168-b331-9fc0130002bc"",""projectId"":""6d972c12-ef4f-4967-baa7-815328c4c025""}","https://test12345.live/?num_scrambled_semantic=8&num_scrambled_causal=4&num_scrambled_schematic=4&participantId=7622E247FD564A23A70A62C16301506F&assignmentId=dc56b55d-906c-4168-b331-9fc0130002bc&projectId=6d972c12-ef4f-4967-baa7-815328c4c025","7622E247FD564A23A70A62C16301506F-2025-08-07-17-50-34","","null","","[]","null","",""
"","","","","","image-button-response","28","188114","0.0-10.0-1.0-0.1","7622E247FD564A23A70A62C16301506F","7622E247FD564A23A70A62C16301506F","dc56b55d-906c-4168-b331-9fc0130002bc","6d972c12-ef4f-4967-baa7-815328c4c025","{""num_scrambled_semantic"":""8"",""num_scrambled_causal"":""4"",""num_scrambled_schematic"":""4"",""participantId"":""7622E247FD564A23A70A62C16301506F"",""assignmentId"":""dc56b55d-906c-4168-b331-9fc0130002bc"",""projectId"":""6d972c12-ef4f-4967-baa7-815328c4c025""}","https://test12345.live/?num_scrambled_semantic=8&num_scrambled_causal=4&num_scrambled_schematic=4&participantId=7622E247FD564A23A70A62C16301506F&assignmentId=dc56b55d-906c-4168-b331-9fc0130002bc&projectId=6d972c12-ef4f-4967-baa7-815328c4c025","7622E247FD564A23A70A62C16301506F-2025-08-07-17-50-34","","null","","images/semantic_sequence/housework_semantic/housework_semantic_7.png","null","",""
"","","","","","image-button-response","29","188886","0.0-10.0-1.0-1.1","7622E247FD564A23A70A62C16301506F","7622E247FD564A23A70A62C16301506F","dc56b55d-906c-4168-b331-9fc0130002bc","6d972c12-ef4f-4967-baa7-815328c4c025","{""num_scrambled_semantic"":""8"",""num_scrambled_causal"":""4"",""num_scrambled_schematic"":""4"",""participantId"":""7622E247FD564A23A70A62C16301506F"",""assignmentId"":""dc56b55d-906c-4168-b331-9fc0130002bc"",""projectId"":""6d972c12-ef4f-4967-baa7-815328c4c025""}","https://test12345.live/?num_scrambled_semantic=8&num_scrambled_causal=4&num_scrambled_schematic=4&participantId=7622E247FD564A23A70A62C16301506F&assignmentId=dc56b55d-906c-4168-b331-9fc0130002bc&projectId=6d972c12-ef4f-4967-baa7-815328c4c025","7622E247FD564A23A70A62C16301506F-2025-08-07-17-50-34","","771","","images/semantic_sequence/housework_semantic/housework_semantic_7.png","0","",""
"","","","","","image-button-response","30","190856","0.0-10.0-1.0-2.1","7622E247FD564A23A70A62C16301506F","7622E247FD564A23A70A62C16301506F","dc56b55d-906c-4168-b331-9fc0130002bc","6d972c12-ef4f-4967-baa7-815328c4c025","{""num_scrambled_semantic"":""8"",""num_scrambled_causal"":""4"",""num_scrambled_schematic"":""4"",""participantId"":""7622E247FD564A23A70A62C16301506F"",""assignmentId"":""dc56b55d-906c-4168-b331-9fc0130002bc"",""projectId"":""6d972c12-ef4f-4967-baa7-815328c4c025""}","https://test12345.live/?num_scrambled_semantic=8&num_scrambled_causal=4&num_scrambled_schematic=4&participantId=7622E247FD564A23A70A62C16301506F&assignmentId=dc56b55d-906c-4168-b331-9fc0130002bc&projectId=6d972c12-ef4f-4967-baa7-815328c4c025","7622E247FD564A23A70A62C16301506F-2025-08-07-17-50-34","","null","","[]","null","",""
"","","","","","image-button-response","31","195726","0.0-10.0-1.0-0.2","7622E247FD564A23A70A62C16301506F","7622E247FD564A23A70A62C16301506F","dc56b55d-906c-4168-b331-9fc0130002bc","6d972c12-ef4f-4967-baa7-815328c4c025","{""num_scrambled_semantic"":""8"",""num_scrambled_causal"":""4"",""num_scrambled_schematic"":""4"",""participantId"":""7622E247FD564A23A70A62C16301506F"",""assignmentId"":""dc56b55d-906c-4168-b331-9fc0130002bc"",""projectId"":""6d972c12-ef4f-4967-baa7-815328c4c025""}","https://test12345.live/?num_scrambled_semantic=8&num_scrambled_causal=4&num_scrambled_schematic=4&participantId=7622E247FD564A23A70A62C16301506F&assignmentId=dc56b55d-906c-4168-b331-9fc0130002bc&projectId=6d972c12-ef4f-4967-baa7-815328c4c025","7622E247FD564A23A70A62C16301506F-2025-08-07-17-50-34","","null","","images/semantic_sequence/housework_semantic/housework_semantic_2.png","null","",""
"","","","","","image-button-response","32","196753","0.0-10.0-1.0-1.2","7622E247FD564A23A70A62C16301506F","7622E247FD564A23A70A62C16301506F","dc56b55d-906c-4168-b331-9fc0130002bc","6d972c12-ef4f-4967-baa7-815328c4c025","{""num_scrambled_semantic"":""8"",""num_scrambled_causal"":""4"",""num_scrambled_schematic"":""4"",""participantId"":""7622E247FD564A23A70A62C16301506F"",""assignmentId"":""dc56b55d-906c-4168-b331-9fc0130002bc"",""projectId"":""6d972c12-ef4f-4967-baa7-815328c4c025""}","https://test12345.live/?num_scrambled_semantic=8&num_scrambled_causal=4&num_scrambled_schematic=4&participantId=7622E247FD564A23A70A62C16301506F&assignmentId=dc56b55d-906c-4168-b331-9fc0130002bc&projectId=6d972c12-ef4f-4967-baa7-815328c4c025","7622E247FD564A23A70A62C16301506F-2025-08-07-17-50-34","","1027","","images/semantic_sequence/housework_semantic/housework_semantic_2.png","0","",""
"","","","","","image-button-response","33","198757","0.0-10.0-1.0-2.2","7622E247FD564A23A70A62C16301506F","7622E247FD564A23A70A62C16301506F","dc56b55d-906c-4168-b331-9fc0130002bc","6d972c12-ef4f-4967-baa7-815328c4c025","{""num_scrambled_semantic"":""8"",""num_scrambled_causal"":""4"",""num_scrambled_schematic"":""4"",""participantId"":""7622E247FD564A23A70A62C16301506F"",""assignmentId"":""dc56b55d-906c-4168-b331-9fc0130002bc"",""projectId"":""6d972c12-ef4f-4967-baa7-815328c4c025""}","https://test12345.live/?num_scrambled_semantic=8&num_scrambled_causal=4&num_scrambled_schematic=4&participantId=7622E247FD564A23A70A62C16301506F&assignmentId=dc56b55d-906c-4168-b331-9fc0130002bc&projectId=6d972c12-ef4f-4967-baa7-815328c4c025","7622E247FD564A23A70A62C16301506F-2025-08-07-17-50-34","","null","","[]","null","",""
"","","","","","image-button-response","34","203288","0.0-10.0-1.0-0.3","7622E247FD564A23A70A62C16301506F","7622E247FD564A23A70A62C16301506F","dc56b55d-906c-4168-b331-9fc0130002bc","6d972c12-ef4f-4967-baa7-815328c4c025","{""num_scrambled_semantic"":""8"",""num_scrambled_causal"":""4"",""num_scrambled_schematic"":""4"",""participantId"":""7622E247FD564A23A70A62C16301506F"",""assignmentId"":""dc56b55d-906c-4168-b331-9fc0130002bc"",""projectId"":""6d972c12-ef4f-4967-baa7-815328c4c025""}","https://test12345.live/?num_scrambled_semantic=8&num_scrambled_causal=4&num_scrambled_schematic=4&participantId=7622E247FD564A23A70A62C16301506F&assignmentId=dc56b55d-906c-4168-b331-9fc0130002bc&projectId=6d972c12-ef4f-4967-baa7-815328c4c025","7622E247FD564A23A70A62C16301506F-2025-08-07-17-50-34","","null","","images/semantic_sequence/housework_semantic/housework_semantic_9.png","null","",""
"","","","","","image-button-response","35","204034","0.0-10.0-1.0-1.3","7622E247FD564A23A70A62C16301506F","7622E247FD564A23A70A62C16301506F","dc56b55d-906c-4168-b331-9fc0130002bc","6d972c12-ef4f-4967-baa7-815328c4c025","{""num_scrambled_semantic"":""8"",""num_scrambled_causal"":""4"",""num_scrambled_schematic"":""4"",""participantId"":""7622E247FD564A23A70A62C16301506F"",""assignmentId"":""dc56b55d-906c-4168-b331-9fc0130002bc"",""projectId"":""6d972c12-ef4f-4967-baa7-815328c4c025""}","https://test12345.live/?num_scrambled_semantic=8&num_scrambled_causal=4&num_scrambled_schematic=4&participantId=7622E247FD564A23A70A62C16301506F&assignmentId=dc56b55d-906c-4168-b331-9fc0130002bc&projectId=6d972c12-ef4f-4967-baa7-815328c4c025","7622E247FD564A23A70A62C16301506F-2025-08-07-17-50-34","","742","","images/semantic_sequence/housework_semantic/housework_semantic_9.png","0","",""
"","","","","","image-button-response","36","205845","0.0-10.0-1.0-2.3","7622E247FD564A23A70A62C16301506F","7622E247FD564A23A70A62C16301506F","dc56b55d-906c-4168-b331-9fc0130002bc","6d972c12-ef4f-4967-baa7-815328c4c025","{""num_scrambled_semantic"":""8"",""num_scrambled_causal"":""4"",""num_scrambled_schematic"":""4"",""participantId"":""7622E247FD564A23A70A62C16301506F"",""assignmentId"":""dc56b55d-906c-4168-b331-9fc0130002bc"",""projectId"":""6d972c12-ef4f-4967-baa7-815328c4c025""}","https://test12345.live/?num_scrambled_semantic=8&num_scrambled_causal=4&num_scrambled_schematic=4&participantId=7622E247FD564A23A70A62C16301506F&assignmentId=dc56b55d-906c-4168-b331-9fc0130002bc&projectId=6d972c12-ef4f-4967-baa7-815328c4c025","7622E247FD564A23A70A62C16301506F-2025-08-07-17-50-34","","null","","[]","null","",""
"","","","","","image-button-response","37","210546","0.0-10.0-1.0-0.4","7622E247FD564A23A70A62C16301506F","7622E247FD564A23A70A62C16301506F","dc56b55d-906c-4168-b331-9fc0130002bc","6d972c12-ef4f-4967-baa7-815328c4c025","{""num_scrambled_semantic"":""8"",""num_scrambled_causal"":""4"",""num_scrambled_schematic"":""4"",""participantId"":""7622E247FD564A23A70A62C16301506F"",""assignmentId"":""dc56b55d-906c-4168-b331-9fc0130002bc"",""projectId"":""6d972c12-ef4f-4967-baa7-815328c4c025""}","https://test12345.live/?num_scrambled_semantic=8&num_scrambled_causal=4&num_scrambled_schematic=4&participantId=7622E247FD564A23A70A62C16301506F&assignmentId=dc56b55d-906c-4168-b331-9fc0130002bc&projectId=6d972c12-ef4f-4967-baa7-815328c4c025","7622E247FD564A23A70A62C16301506F-2025-08-07-17-50-34","","null","","images/semantic_sequence/housework_semantic/housework_semantic_5.png","null","",""
"","","","","","image-button-response","38","212101","0.0-10.0-1.0-1.4","7622E247FD564A23A70A62C16301506F","7622E247FD564A23A70A62C16301506F","dc56b55d-906c-4168-b331-9fc0130002bc","6d972c12-ef4f-4967-baa7-815328c4c025","{""num_scrambled_semantic"":""8"",""num_scrambled_causal"":""4"",""num_scrambled_schematic"":""4"",""participantId"":""7622E247FD564A23A70A62C16301506F"",""assignmentId"":""dc56b55d-906c-4168-b331-9fc0130002bc"",""projectId"":""6d972c12-ef4f-4967-baa7-815328c4c025""}","https://test12345.live/?num_scrambled_semantic=8&num_scrambled_causal=4&num_scrambled_schematic=4&participantId=7622E247FD564A23A70A62C16301506F&assignmentId=dc56b55d-906c-4168-b331-9fc0130002bc&projectId=6d972c12-ef4f-4967-baa7-815328c4c025","7622E247FD564A23A70A62C16301506F-2025-08-07-17-50-34","","1552","","images/semantic_sequence/housework_semantic/housework_semantic_5.png","0","",""
"","","","","","image-button-response","39","214122","0.0-10.0-1.0-2.4","7622E247FD564A23A70A62C16301506F","7622E247FD564A23A70A62C16301506F","dc56b55d-906c-4168-b331-9fc0130002bc","6d972c12-ef4f-4967-baa7-815328c4c025","{""num_scrambled_semantic"":""8"",""num_scrambled_causal"":""4"",""num_scrambled_schematic"":""4"",""participantId"":""7622E247FD564A23A70A62C16301506F"",""assignmentId"":""dc56b55d-906c-4168-b331-9fc0130002bc"",""projectId"":""6d972c12-ef4f-4967-baa7-815328c4c025""}","https://test12345.live/?num_scrambled_semantic=8&num_scrambled_causal=4&num_scrambled_schematic=4&participantId=7622E247FD564A23A70A62C16301506F&assignmentId=dc56b55d-906c-4168-b331-9fc0130002bc&projectId=6d972c12-ef4f-4967-baa7-815328c4c025","7622E247FD564A23A70A62C16301506F-2025-08-07-17-50-34","","null","","[]","null","",""
"","","","","","image-button-response","40","218657","0.0-10.0-1.0-0.5","7622E247FD564A23A70A62C16301506F","7622E247FD564A23A70A62C16301506F","dc56b55d-906c-4168-b331-9fc0130002bc","6d972c12-ef4f-4967-baa7-815328c4c025","{""num_scrambled_semantic"":""8"",""num_scrambled_causal"":""4"",""num_scrambled_schematic"":""4"",""participantId"":""7622E247FD564A23A70A62C16301506F"",""assignmentId"":""dc56b55d-906c-4168-b331-9fc0130002bc"",""projectId"":""6d972c12-ef4f-4967-baa7-815328c4c025""}","https://test12345.live/?num_scrambled_semantic=8&num_scrambled_causal=4&num_scrambled_schematic=4&participantId=7622E247FD564A23A70A62C16301506F&assignmentId=dc56b55d-906c-4168-b331-9fc0130002bc&projectId=6d972c12-ef4f-4967-baa7-815328c4c025","7622E247FD564A23A70A62C16301506F-2025-08-07-17-50-34","","null","","images/semantic_sequence/housework_semantic/housework_semantic_3.png","null","",""
"","","","","","image-button-response","41","219630","0.0-10.0-1.0-1.5","7622E247FD564A23A70A62C16301506F","7622E247FD564A23A70A62C16301506F","dc56b55d-906c-4168-b331-9fc0130002bc","6d972c12-ef4f-4967-baa7-815328c4c025","{""num_scrambled_semantic"":""8"",""num_scrambled_causal"":""4"",""num_scrambled_schematic"":""4"",""participantId"":""7622E247FD564A23A70A62C16301506F"",""assignmentId"":""dc56b55d-906c-4168-b331-9fc0130002bc"",""projectId"":""6d972c12-ef4f-4967-baa7-815328c4c025""}","https://test12345.live/?num_scrambled_semantic=8&num_scrambled_causal=4&num_scrambled_schematic=4&participantId=7622E247FD564A23A70A62C16301506F&assignmentId=dc56b55d-906c-4168-b331-9fc0130002bc&projectId=6d972c12-ef4f-4967-baa7-815328c4c025","7622E247FD564A23A70A62C16301506F-2025-08-07-17-50-34","","972","","images/semantic_sequence/housework_semantic/housework_semantic_3.png","0","",""
"","","","","","image-button-response","42","221439","0.0-10.0-1.0-2.5","7622E247FD564A23A70A62C16301506F","7622E247FD564A23A70A62C16301506F","dc56b55d-906c-4168-b331-9fc0130002bc","6d972c12-ef4f-4967-baa7-815328c4c025","{""num_scrambled_semantic"":""8"",""num_scrambled_causal"":""4"",""num_scrambled_schematic"":""4"",""participantId"":""7622E247FD564A23A70A62C16301506F"",""assignmentId"":""dc56b55d-906c-4168-b331-9fc0130002bc"",""projectId"":""6d972c12-ef4f-4967-baa7-815328c4c025""}","https://test12345.live/?num_scrambled_semantic=8&num_scrambled_causal=4&num_scrambled_schematic=4&participantId=7622E247FD564A23A70A62C16301506F&assignmentId=dc56b55d-906c-4168-b331-9fc0130002bc&projectId=6d972c12-ef4f-4967-baa7-815328c4c025","7622E247FD564A23A70A62C16301506F-2025-08-07-17-50-34","","null","","[]","null","",""
"","","","","","image-button-response","43","225978","0.0-10.0-1.0-0.6","7622E247FD564A23A70A62C16301506F","7622E247FD564A23A70A62C16301506F","dc56b55d-906c-4168-b331-9fc0130002bc","6d972c12-ef4f-4967-baa7-815328c4c025","{""num_scrambled_semantic"":""8"",""num_scrambled_causal"":""4"",""num_scrambled_schematic"":""4"",""participantId"":""7622E247FD564A23A70A62C16301506F"",""assignmentId"":""dc56b55d-906c-4168-b331-9fc0130002bc"",""projectId"":""6d972c12-ef4f-4967-baa7-815328c4c025""}","https://test12345.live/?num_scrambled_semantic=8&num_scrambled_causal=4&num_scrambled_schematic=4&participantId=7622E247FD564A23A70A62C16301506F&assignmentId=dc56b55d-906c-4168-b331-9fc0130002bc&projectId=6d972c12-ef4f-4967-baa7-815328c4c025","7622E247FD564A23A70A62C16301506F-2025-08-07-17-50-34","","null","","images/semantic_sequence/housework_semantic/housework_semantic_1.png","null","",""
"","","","","","image-button-response","44","227028","0.0-10.0-1.0-1.6","7622E247FD564A23A70A62C16301506F","7622E247FD564A23A70A62C16301506F","dc56b55d-906c-4168-b331-9fc0130002bc","6d972c12-ef4f-4967-baa7-815328c4c025","{""num_scrambled_semantic"":""8"",""num_scrambled_causal"":""4"",""num_scrambled_schematic"":""4"",""participantId"":""7622E247FD564A23A70A62C16301506F"",""assignmentId"":""dc56b55d-906c-4168-b331-9fc0130002bc"",""projectId"":""6d972c12-ef4f-4967-baa7-815328c4c025""}","https://test12345.live/?num_scrambled_semantic=8&num_scrambled_causal=4&num_scrambled_schematic=4&participantId=7622E247FD564A23A70A62C16301506F&assignmentId=dc56b55d-906c-4168-b331-9fc0130002bc&projectId=6d972c12-ef4f-4967-baa7-815328c4c025","7622E247FD564A23A70A62C16301506F-2025-08-07-17-50-34","","1049","","images/semantic_sequence/housework_semantic/housework_semantic_1.png","0","",""
"","","","","","image-button-response","45","228908","0.0-10.0-1.0-2.6","7622E247FD564A23A70A62C16301506F","7622E247FD564A23A70A62C16301506F","dc56b55d-906c-4168-b331-9fc0130002bc","6d972c12-ef4f-4967-baa7-815328c4c025","{""num_scrambled_semantic"":""8"",""num_scrambled_causal"":""4"",""num_scrambled_schematic"":""4"",""participantId"":""7622E247FD564A23A70A62C16301506F"",""assignmentId"":""dc56b55d-906c-4168-b331-9fc0130002bc"",""projectId"":""6d972c12-ef4f-4967-baa7-815328c4c025""}","https://test12345.live/?num_scrambled_semantic=8&num_scrambled_causal=4&num_scrambled_schematic=4&participantId=7622E247FD564A23A70A62C16301506F&assignmentId=dc56b55d-906c-4168-b331-9fc0130002bc&projectId=6d972c12-ef4f-4967-baa7-815328c4c025","7622E247FD564A23A70A62C16301506F-2025-08-07-17-50-34","","null","","[]","null","",""
"","","","","","image-button-response","46","233573","0.0-10.0-1.0-0.7","7622E247FD564A23A70A62C16301506F","7622E247FD564A23A70A62C16301506F","dc56b55d-906c-4168-b331-9fc0130002bc","6d972c12-ef4f-4967-baa7-815328c4c025","{""num_scrambled_semantic"":""8"",""num_scrambled_causal"":""4"",""num_scrambled_schematic"":""4"",""participantId"":""7622E247FD564A23A70A62C16301506F"",""assignmentId"":""dc56b55d-906c-4168-b331-9fc0130002bc"",""projectId"":""6d972c12-ef4f-4967-baa7-815328c4c025""}","https://test12345.live/?num_scrambled_semantic=8&num_scrambled_causal=4&num_scrambled_schematic=4&participantId=7622E247FD564A23A70A62C16301506F&assignmentId=dc56b55d-906c-4168-b331-9fc0130002bc&projectId=6d972c12-ef4f-4967-baa7-815328c4c025","7622E247FD564A23A70A62C16301506F-2025-08-07-17-50-34","","null","","images/semantic_sequence/housework_semantic/housework_semantic_6.png","null","",""
"","","","","","image-button-response","47","234107","0.0-10.0-1.0-1.7","7622E247FD564A23A70A62C16301506F","7622E247FD564A23A70A62C16301506F","dc56b55d-906c-4168-b331-9fc0130002bc","6d972c12-ef4f-4967-baa7-815328c4c025","{""num_scrambled_semantic"":""8"",""num_scrambled_causal"":""4"",""num_scrambled_schematic"":""4"",""participantId"":""7622E247FD564A23A70A62C16301506F"",""assignmentId"":""dc56b55d-906c-4168-b331-9fc0130002bc"",""projectId"":""6d972c12-ef4f-4967-baa7-815328c4c025""}","https://test12345.live/?num_scrambled_semantic=8&num_scrambled_causal=4&num_scrambled_schematic=4&participantId=7622E247FD564A23A70A62C16301506F&assignmentId=dc56b55d-906c-4168-b331-9fc0130002bc&projectId=6d972c12-ef4f-4967-baa7-815328c4c025","7622E247FD564A23A70A62C16301506F-2025-08-07-17-50-34","","533","","images/semantic_sequence/housework_semantic/housework_semantic_6.png","0","",""
"","","","","","image-button-response","48","236123","0.0-10.0-1.0-2.7","7622E247FD564A23A70A62C16301506F","7622E247FD564A23A70A62C16301506F","dc56b55d-906c-4168-b331-9fc0130002bc","6d972c12-ef4f-4967-baa7-815328c4c025","{""num_scrambled_semantic"":""8"",""num_scrambled_causal"":""4"",""num_scrambled_schematic"":""4"",""participantId"":""7622E247FD564A23A70A62C16301506F"",""assignmentId"":""dc56b55d-906c-4168-b331-9fc0130002bc"",""projectId"":""6d972c12-ef4f-4967-baa7-815328c4c025""}","https://test12345.live/?num_scrambled_semantic=8&num_scrambled_causal=4&num_scrambled_schematic=4&participantId=7622E247FD564A23A70A62C16301506F&assignmentId=dc56b55d-906c-4168-b331-9fc0130002bc&projectId=6d972c12-ef4f-4967-baa7-815328c4c025","7622E247FD564A23A70A62C16301506F-2025-08-07-17-50-34","","null","","[]","null","",""
"","","","","","image-button-response","49","240690","0.0-10.0-1.0-0.8","7622E247FD564A23A70A62C16301506F","7622E247FD564A23A70A62C16301506F","dc56b55d-906c-4168-b331-9fc0130002bc","6d972c12-ef4f-4967-baa7-815328c4c025","{""num_scrambled_semantic"":""8"",""num_scrambled_causal"":""4"",""num_scrambled_schematic"":""4"",""participantId"":""7622E247FD564A23A70A62C16301506F"",""assignmentId"":""dc56b55d-906c-4168-b331-9fc0130002bc"",""projectId"":""6d972c12-ef4f-4967-baa7-815328c4c025""}","https://test12345.live/?num_scrambled_semantic=8&num_scrambled_causal=4&num_scrambled_schematic=4&participantId=7622E247FD564A23A70A62C16301506F&assignmentId=dc56b55d-906c-4168-b331-9fc0130002bc&projectId=6d972c12-ef4f-4967-baa7-815328c4c025","7622E247FD564A23A70A62C16301506F-2025-08-07-17-50-34","","null","","images/semantic_sequence/housework_semantic/housework_semantic_8.png","null","",""
"","","","","","image-button-response","50","241331","0.0-10.0-1.0-1.8","7622E247FD564A23A70A62C16301506F","7622E247FD564A23A70A62C16301506F","dc56b55d-906c-4168-b331-9fc0130002bc","6d972c12-ef4f-4967-baa7-815328c4c025","{""num_scrambled_semantic"":""8"",""num_scrambled_causal"":""4"",""num_scrambled_schematic"":""4"",""participantId"":""7622E247FD564A23A70A62C16301506F"",""assignmentId"":""dc56b55d-906c-4168-b331-9fc0130002bc"",""projectId"":""6d972c12-ef4f-4967-baa7-815328c4c025""}","https://test12345.live/?num_scrambled_semantic=8&num_scrambled_causal=4&num_scrambled_schematic=4&participantId=7622E247FD564A23A70A62C16301506F&assignmentId=dc56b55d-906c-4168-b331-9fc0130002bc&projectId=6d972c12-ef4f-4967-baa7-815328c4c025","7622E247FD564A23A70A62C16301506F-2025-08-07-17-50-34","","640","","images/semantic_sequence/housework_semantic/housework_semantic_8.png","0","",""
"","","","","","image-button-response","51","243133","0.0-10.0-1.0-2.8","7622E247FD564A23A70A62C16301506F","7622E247FD564A23A70A62C16301506F","dc56b55d-906c-4168-b331-9fc0130002bc","6d972c12-ef4f-4967-baa7-815328c4c025","{""num_scrambled_semantic"":""8"",""num_scrambled_causal"":""4"",""num_scrambled_schematic"":""4"",""participantId"":""7622E247FD564A23A70A62C16301506F"",""assignmentId"":""dc56b55d-906c-4168-b331-9fc0130002bc"",""projectId"":""6d972c12-ef4f-4967-baa7-815328c4c025""}","https://test12345.live/?num_scrambled_semantic=8&num_scrambled_causal=4&num_scrambled_schematic=4&participantId=7622E247FD564A23A70A62C16301506F&assignmentId=dc56b55d-906c-4168-b331-9fc0130002bc&projectId=6d972c12-ef4f-4967-baa7-815328c4c025","7622E247FD564A23A70A62C16301506F-2025-08-07-17-50-34","","null","","[]","null","",""
"","","","","","image-button-response","52","247985","0.0-10.0-1.0-0.9","7622E247FD564A23A70A62C16301506F","7622E247FD564A23A70A62C16301506F","dc56b55d-906c-4168-b331-9fc0130002bc","6d972c12-ef4f-4967-baa7-815328c4c025","{""num_scrambled_semantic"":""8"",""num_scrambled_causal"":""4"",""num_scrambled_schematic"":""4"",""participantId"":""7622E247FD564A23A70A62C16301506F"",""assignmentId"":""dc56b55d-906c-4168-b331-9fc0130002bc"",""projectId"":""6d972c12-ef4f-4967-baa7-815328c4c025""}","https://test12345.live/?num_scrambled_semantic=8&num_scrambled_causal=4&num_scrambled_schematic=4&participantId=7622E247FD564A23A70A62C16301506F&assignmentId=dc56b55d-906c-4168-b331-9fc0130002bc&projectId=6d972c12-ef4f-4967-baa7-815328c4c025","7622E247FD564A23A70A62C16301506F-2025-08-07-17-50-34","","null","","images/semantic_sequence/housework_semantic/housework_semantic_ten.png","null","",""
"","","","","","image-button-response","53","248683","0.0-10.0-1.0-1.9","7622E247FD564A23A70A62C16301506F","7622E247FD564A23A70A62C16301506F","dc56b55d-906c-4168-b331-9fc0130002bc","6d972c12-ef4f-4967-baa7-815328c4c025","{""num_scrambled_semantic"":""8"",""num_scrambled_causal"":""4"",""num_scrambled_schematic"":""4"",""participantId"":""7622E247FD564A23A70A62C16301506F"",""assignmentId"":""dc56b55d-906c-4168-b331-9fc0130002bc"",""projectId"":""6d972c12-ef4f-4967-baa7-815328c4c025""}","https://test12345.live/?num_scrambled_semantic=8&num_scrambled_causal=4&num_scrambled_schematic=4&participantId=7622E247FD564A23A70A62C16301506F&assignmentId=dc56b55d-906c-4168-b331-9fc0130002bc&projectId=6d972c12-ef4f-4967-baa7-815328c4c025","7622E247FD564A23A70A62C16301506F-2025-08-07-17-50-34","","695","","images/semantic_sequence/housework_semantic/housework_semantic_ten.png","0","",""
"","","","","","image-button-response","54","250697","0.0-10.0-1.0-2.9","7622E247FD564A23A70A62C16301506F","7622E247FD564A23A70A62C16301506F","dc56b55d-906c-4168-b331-9fc0130002bc","6d972c12-ef4f-4967-baa7-815328c4c025","{""num_scrambled_semantic"":""8"",""num_scrambled_causal"":""4"",""num_scrambled_schematic"":""4"",""participantId"":""7622E247FD564A23A70A62C16301506F"",""assignmentId"":""dc56b55d-906c-4168-b331-9fc0130002bc"",""projectId"":""6d972c12-ef4f-4967-baa7-815328c4c025""}","https://test12345.live/?num_scrambled_semantic=8&num_scrambled_causal=4&num_scrambled_schematic=4&participantId=7622E247FD564A23A70A62C16301506F&assignmentId=dc56b55d-906c-4168-b331-9fc0130002bc&projectId=6d972c12-ef4f-4967-baa7-815328c4c025","7622E247FD564A23A70A62C16301506F-2025-08-07-17-50-34","","null","","[]","null","",""
"","","","","","html-audio-response","55","278248","0.0-11.0","7622E247FD564A23A70A62C16301506F","7622E247FD564A23A70A62C16301506F","dc56b55d-906c-4168-b331-9fc0130002bc","6d972c12-ef4f-4967-baa7-815328c4c025","{""num_scrambled_semantic"":""8"",""num_scrambled_causal"":""4"",""num_scrambled_schematic"":""4"",""participantId"":""7622E247FD564A23A70A62C16301506F"",""assignmentId"":""dc56b55d-906c-4168-b331-9fc0130002bc"",""projectId"":""6d972c12-ef4f-4967-baa7-815328c4c025""}","https://test12345.live/?num_scrambled_semantic=8&num_scrambled_causal=4&num_scrambled_schematic=4&participantId=7622E247FD564A23A70A62C16301506F&assignmentId=dc56b55d-906c-4168-b331-9fc0130002bc&projectId=6d972c12-ef4f-4967-baa7-815328c4c025","7622E247FD564A23A70A62C16301506F-2025-08-07-17-50-34","","22677","","[""<span style=\""color: red; font-size: 24px\""> NOW RECORDING</span><p>Please say out loud all the images you saw, in the exact order you saw them. Try to recall as many images as you can, but remember: getting the order right is more important than the number of images you recall.</p>""]","","6","housework_semantic"
"","","","","","image-button-response","56","284359","0.0-12.0-0.0","7622E247FD564A23A70A62C16301506F","7622E247FD564A23A70A62C16301506F","dc56b55d-906c-4168-b331-9fc0130002bc","6d972c12-ef4f-4967-baa7-815328c4c025","{""num_scrambled_semantic"":""8"",""num_scrambled_causal"":""4"",""num_scrambled_schematic"":""4"",""participantId"":""7622E247FD564A23A70A62C16301506F"",""assignmentId"":""dc56b55d-906c-4168-b331-9fc0130002bc"",""projectId"":""6d972c12-ef4f-4967-baa7-815328c4c025""}","https://test12345.live/?num_scrambled_semantic=8&num_scrambled_causal=4&num_scrambled_schematic=4&participantId=7622E247FD564A23A70A62C16301506F&assignmentId=dc56b55d-906c-4168-b331-9fc0130002bc&projectId=6d972c12-ef4f-4967-baa7-815328c4c025","7622E247FD564A23A70A62C16301506F-2025-08-07-17-50-34","","null","","images/causal_sequence/museum_causal/museum_causal_0.png","null","",""
"","","","","","image-button-response","57","289422","0.0-12.0-1.0-0.0","7622E247FD564A23A70A62C16301506F","7622E247FD564A23A70A62C16301506F","dc56b55d-906c-4168-b331-9fc0130002bc","6d972c12-ef4f-4967-baa7-815328c4c025","{""num_scrambled_semantic"":""8"",""num_scrambled_causal"":""4"",""num_scrambled_schematic"":""4"",""participantId"":""7622E247FD564A23A70A62C16301506F"",""assignmentId"":""dc56b55d-906c-4168-b331-9fc0130002bc"",""projectId"":""6d972c12-ef4f-4967-baa7-815328c4c025""}","https://test12345.live/?num_scrambled_semantic=8&num_scrambled_causal=4&num_scrambled_schematic=4&participantId=7622E247FD564A23A70A62C16301506F&assignmentId=dc56b55d-906c-4168-b331-9fc0130002bc&projectId=6d972c12-ef4f-4967-baa7-815328c4c025","7622E247FD564A23A70A62C16301506F-2025-08-07-17-50-34","","null","","images/causal_sequence/museum_causal/museum_causal_1.png","null","",""
"","","","","","image-button-response","58","291739","0.0-12.0-1.0-1.0","7622E247FD564A23A70A62C16301506F","7622E247FD564A23A70A62C16301506F","dc56b55d-906c-4168-b331-9fc0130002bc","6d972c12-ef4f-4967-baa7-815328c4c025","{""num_scrambled_semantic"":""8"",""num_scrambled_causal"":""4"",""num_scrambled_schematic"":""4"",""participantId"":""7622E247FD564A23A70A62C16301506F"",""assignmentId"":""dc56b55d-906c-4168-b331-9fc0130002bc"",""projectId"":""6d972c12-ef4f-4967-baa7-815328c4c025""}","https://test12345.live/?num_scrambled_semantic=8&num_scrambled_causal=4&num_scrambled_schematic=4&participantId=7622E247FD564A23A70A62C16301506F&assignmentId=dc56b55d-906c-4168-b331-9fc0130002bc&projectId=6d972c12-ef4f-4967-baa7-815328c4c025","7622E247FD564A23A70A62C16301506F-2025-08-07-17-50-34","","2315","","images/causal_sequence/museum_causal/museum_causal_1.png","0","",""
"","","","","","image-button-response","59","293752","0.0-12.0-1.0-2.0","7622E247FD564A23A70A62C16301506F","7622E247FD564A23A70A62C16301506F","dc56b55d-906c-4168-b331-9fc0130002bc","6d972c12-ef4f-4967-baa7-815328c4c025","{""num_scrambled_semantic"":""8"",""num_scrambled_causal"":""4"",""num_scrambled_schematic"":""4"",""participantId"":""7622E247FD564A23A70A62C16301506F"",""assignmentId"":""dc56b55d-906c-4168-b331-9fc0130002bc"",""projectId"":""6d972c12-ef4f-4967-baa7-815328c4c025""}","https://test12345.live/?num_scrambled_semantic=8&num_scrambled_causal=4&num_scrambled_schematic=4&participantId=7622E247FD564A23A70A62C16301506F&assignmentId=dc56b55d-906c-4168-b331-9fc0130002bc&projectId=6d972c12-ef4f-4967-baa7-815328c4c025","7622E247FD564A23A70A62C16301506F-2025-08-07-17-50-34","","null","","[]","null","",""
"","","","","","image-button-response","60","298315","0.0-12.0-1.0-0.1","7622E247FD564A23A70A62C16301506F","7622E247FD564A23A70A62C16301506F","dc56b55d-906c-4168-b331-9fc0130002bc","6d972c12-ef4f-4967-baa7-815328c4c025","{""num_scrambled_semantic"":""8"",""num_scrambled_causal"":""4"",""num_scrambled_schematic"":""4"",""participantId"":""7622E247FD564A23A70A62C16301506F"",""assignmentId"":""dc56b55d-906c-4168-b331-9fc0130002bc"",""projectId"":""6d972c12-ef4f-4967-baa7-815328c4c025""}","https://test12345.live/?num_scrambled_semantic=8&num_scrambled_causal=4&num_scrambled_schematic=4&participantId=7622E247FD564A23A70A62C16301506F&assignmentId=dc56b55d-906c-4168-b331-9fc0130002bc&projectId=6d972c12-ef4f-4967-baa7-815328c4c025","7622E247FD564A23A70A62C16301506F-2025-08-07-17-50-34","","null","","images/causal_sequence/museum_causal/museum_causal_2.png","null","",""
"","","","","","image-button-response","61","301412","0.0-12.0-1.0-1.1","7622E247FD564A23A70A62C16301506F","7622E247FD564A23A70A62C16301506F","dc56b55d-906c-4168-b331-9fc0130002bc","6d972c12-ef4f-4967-baa7-815328c4c025","{""num_scrambled_semantic"":""8"",""num_scrambled_causal"":""4"",""num_scrambled_schematic"":""4"",""participantId"":""7622E247FD564A23A70A62C16301506F"",""assignmentId"":""dc56b55d-906c-4168-b331-9fc0130002bc"",""projectId"":""6d972c12-ef4f-4967-baa7-815328c4c025""}","https://test12345.live/?num_scrambled_semantic=8&num_scrambled_causal=4&num_scrambled_schematic=4&participantId=7622E247FD564A23A70A62C16301506F&assignmentId=dc56b55d-906c-4168-b331-9fc0130002bc&projectId=6d972c12-ef4f-4967-baa7-815328c4c025","7622E247FD564A23A70A62C16301506F-2025-08-07-17-50-34","","3095","","images/causal_sequence/museum_causal/museum_causal_2.png","0","",""
"","","","","","image-button-response","62","303326","0.0-12.0-1.0-2.1","7622E247FD564A23A70A62C16301506F","7622E247FD564A23A70A62C16301506F","dc56b55d-906c-4168-b331-9fc0130002bc","6d972c12-ef4f-4967-baa7-815328c4c025","{""num_scrambled_semantic"":""8"",""num_scrambled_causal"":""4"",""num_scrambled_schematic"":""4"",""participantId"":""7622E247FD564A23A70A62C16301506F"",""assignmentId"":""dc56b55d-906c-4168-b331-9fc0130002bc"",""projectId"":""6d972c12-ef4f-4967-baa7-815328c4c025""}","https://test12345.live/?num_scrambled_semantic=8&num_scrambled_causal=4&num_scrambled_schematic=4&participantId=7622E247FD564A23A70A62C16301506F&assignmentId=dc56b55d-906c-4168-b331-9fc0130002bc&projectId=6d972c12-ef4f-4967-baa7-815328c4c025","7622E247FD564A23A70A62C16301506F-2025-08-07-17-50-34","","null","","[]","null","",""
"","","","","","image-button-response","63","307877","0.0-12.0-1.0-0.2","7622E247FD564A23A70A62C16301506F","7622E247FD564A23A70A62C16301506F","dc56b55d-906c-4168-b331-9fc0130002bc","6d972c12-ef4f-4967-baa7-815328c4c025","{""num_scrambled_semantic"":""8"",""num_scrambled_causal"":""4"",""num_scrambled_schematic"":""4"",""participantId"":""7622E247FD564A23A70A62C16301506F"",""assignmentId"":""dc56b55d-906c-4168-b331-9fc0130002bc"",""projectId"":""6d972c12-ef4f-4967-baa7-815328c4c025""}","https://test12345.live/?num_scrambled_semantic=8&num_scrambled_causal=4&num_scrambled_schematic=4&participantId=7622E247FD564A23A70A62C16301506F&assignmentId=dc56b55d-906c-4168-b331-9fc0130002bc&projectId=6d972c12-ef4f-4967-baa7-815328c4c025","7622E247FD564A23A70A62C16301506F-2025-08-07-17-50-34","","null","","images/causal_sequence/museum_causal/museum_causal_3.png","null","",""
"","","","","","image-button-response","64","309045","0.0-12.0-1.0-1.2","7622E247FD564A23A70A62C16301506F","7622E247FD564A23A70A62C16301506F","dc56b55d-906c-4168-b331-9fc0130002bc","6d972c12-ef4f-4967-baa7-815328c4c025","{""num_scrambled_semantic"":""8"",""num_scrambled_causal"":""4"",""num_scrambled_schematic"":""4"",""participantId"":""7622E247FD564A23A70A62C16301506F"",""assignmentId"":""dc56b55d-906c-4168-b331-9fc0130002bc"",""projectId"":""6d972c12-ef4f-4967-baa7-815328c4c025""}","https://test12345.live/?num_scrambled_semantic=8&num_scrambled_causal=4&num_scrambled_schematic=4&participantId=7622E247FD564A23A70A62C16301506F&assignmentId=dc56b55d-906c-4168-b331-9fc0130002bc&projectId=6d972c12-ef4f-4967-baa7-815328c4c025","7622E247FD564A23A70A62C16301506F-2025-08-07-17-50-34","","1168","","images/causal_sequence/museum_causal/museum_causal_3.png","0","",""
"","","","","","image-button-response","65","310888","0.0-12.0-1.0-2.2","7622E247FD564A23A70A62C16301506F","7622E247FD564A23A70A62C16301506F","dc56b55d-906c-4168-b331-9fc0130002bc","6d972c12-ef4f-4967-baa7-815328c4c025","{""num_scrambled_semantic"":""8"",""num_scrambled_causal"":""4"",""num_scrambled_schematic"":""4"",""participantId"":""7622E247FD564A23A70A62C16301506F"",""assignmentId"":""dc56b55d-906c-4168-b331-9fc0130002bc"",""projectId"":""6d972c12-ef4f-4967-baa7-815328c4c025""}","https://test12345.live/?num_scrambled_semantic=8&num_scrambled_causal=4&num_scrambled_schematic=4&participantId=7622E247FD564A23A70A62C16301506F&assignmentId=dc56b55d-906c-4168-b331-9fc0130002bc&projectId=6d972c12-ef4f-4967-baa7-815328c4c025","7622E247FD564A23A70A62C16301506F-2025-08-07-17-50-34","","null","","[]","null","",""
"","","","","","image-button-response","66","315749","0.0-12.0-1.0-0.3","7622E247FD564A23A70A62C16301506F","7622E247FD564A23A70A62C16301506F","dc56b55d-906c-4168-b331-9fc0130002bc","6d972c12-ef4f-4967-baa7-815328c4c025","{""num_scrambled_semantic"":""8"",""num_scrambled_causal"":""4"",""num_scrambled_schematic"":""4"",""participantId"":""7622E247FD564A23A70A62C16301506F"",""assignmentId"":""dc56b55d-906c-4168-b331-9fc0130002bc"",""projectId"":""6d972c12-ef4f-4967-baa7-815328c4c025""}","https://test12345.live/?num_scrambled_semantic=8&num_scrambled_causal=4&num_scrambled_schematic=4&participantId=7622E247FD564A23A70A62C16301506F&assignmentId=dc56b55d-906c-4168-b331-9fc0130002bc&projectId=6d972c12-ef4f-4967-baa7-815328c4c025","7622E247FD564A23A70A62C16301506F-2025-08-07-17-50-34","","null","","images/causal_sequence/museum_causal/museum_causal_4.png","null","",""
"","","","","","image-button-response","67","316545","0.0-12.0-1.0-1.3","7622E247FD564A23A70A62C16301506F","7622E247FD564A23A70A62C16301506F","dc56b55d-906c-4168-b331-9fc0130002bc","6d972c12-ef4f-4967-baa7-815328c4c025","{""num_scrambled_semantic"":""8"",""num_scrambled_causal"":""4"",""num_scrambled_schematic"":""4"",""participantId"":""7622E247FD564A23A70A62C16301506F"",""assignmentId"":""dc56b55d-906c-4168-b331-9fc0130002bc"",""projectId"":""6d972c12-ef4f-4967-baa7-815328c4c025""}","https://test12345.live/?num_scrambled_semantic=8&num_scrambled_causal=4&num_scrambled_schematic=4&participantId=7622E247FD564A23A70A62C16301506F&assignmentId=dc56b55d-906c-4168-b331-9fc0130002bc&projectId=6d972c12-ef4f-4967-baa7-815328c4c025","7622E247FD564A23A70A62C16301506F-2025-08-07-17-50-34","","795","","images/causal_sequence/museum_causal/museum_causal_4.png","1","",""
"","","","","","image-button-response","68","318355","0.0-12.0-1.0-2.3","7622E247FD564A23A70A62C16301506F","7622E247FD564A23A70A62C16301506F","dc56b55d-906c-4168-b331-9fc0130002bc","6d972c12-ef4f-4967-baa7-815328c4c025","{""num_scrambled_semantic"":""8"",""num_scrambled_causal"":""4"",""num_scrambled_schematic"":""4"",""participantId"":""7622E247FD564A23A70A62C16301506F"",""assignmentId"":""dc56b55d-906c-4168-b331-9fc0130002bc"",""projectId"":""6d972c12-ef4f-4967-baa7-815328c4c025""}","https://test12345.live/?num_scrambled_semantic=8&num_scrambled_causal=4&num_scrambled_schematic=4&participantId=7622E247FD564A23A70A62C16301506F&assignmentId=dc56b55d-906c-4168-b331-9fc0130002bc&projectId=6d972c12-ef4f-4967-baa7-815328c4c025","7622E247FD564A23A70A62C16301506F-2025-08-07-17-50-34","","null","","[]","null","",""
"","","","","","image-button-response","69","322945","0.0-12.0-1.0-0.4","7622E247FD564A23A70A62C16301506F","7622E247FD564A23A70A62C16301506F","dc56b55d-906c-4168-b331-9fc0130002bc","6d972c12-ef4f-4967-baa7-815328c4c025","{""num_scrambled_semantic"":""8"",""num_scrambled_causal"":""4"",""num_scrambled_schematic"":""4"",""participantId"":""7622E247FD564A23A70A62C16301506F"",""assignmentId"":""dc56b55d-906c-4168-b331-9fc0130002bc"",""projectId"":""6d972c12-ef4f-4967-baa7-815328c4c025""}","https://test12345.live/?num_scrambled_semantic=8&num_scrambled_causal=4&num_scrambled_schematic=4&participantId=7622E247FD564A23A70A62C16301506F&assignmentId=dc56b55d-906c-4168-b331-9fc0130002bc&projectId=6d972c12-ef4f-4967-baa7-815328c4c025","7622E247FD564A23A70A62C16301506F-2025-08-07-17-50-34","","null","","images/causal_sequence/museum_causal/museum_causal_5.png","null","",""
"","","","","","image-button-response","70","325266","0.0-12.0-1.0-1.4","7622E247FD564A23A70A62C16301506F","7622E247FD564A23A70A62C16301506F","dc56b55d-906c-4168-b331-9fc0130002bc","6d972c12-ef4f-4967-baa7-815328c4c025","{""num_scrambled_semantic"":""8"",""num_scrambled_causal"":""4"",""num_scrambled_schematic"":""4"",""participantId"":""7622E247FD564A23A70A62C16301506F"",""assignmentId"":""dc56b55d-906c-4168-b331-9fc0130002bc"",""projectId"":""6d972c12-ef4f-4967-baa7-815328c4c025""}","https://test12345.live/?num_scrambled_semantic=8&num_scrambled_causal=4&num_scrambled_schematic=4&participantId=7622E247FD564A23A70A62C16301506F&assignmentId=dc56b55d-906c-4168-b331-9fc0130002bc&projectId=6d972c12-ef4f-4967-baa7-815328c4c025","7622E247FD564A23A70A62C16301506F-2025-08-07-17-50-34","","2320","","images/causal_sequence/museum_causal/museum_causal_5.png","0","",""
"","","","","","image-button-response","71","327069","0.0-12.0-1.0-2.4","7622E247FD564A23A70A62C16301506F","7622E247FD564A23A70A62C16301506F","dc56b55d-906c-4168-b331-9fc0130002bc","6d972c12-ef4f-4967-baa7-815328c4c025","{""num_scrambled_semantic"":""8"",""num_scrambled_causal"":""4"",""num_scrambled_schematic"":""4"",""participantId"":""7622E247FD564A23A70A62C16301506F"",""assignmentId"":""dc56b55d-906c-4168-b331-9fc0130002bc"",""projectId"":""6d972c12-ef4f-4967-baa7-815328c4c025""}","https://test12345.live/?num_scrambled_semantic=8&num_scrambled_causal=4&num_scrambled_schematic=4&participantId=7622E247FD564A23A70A62C16301506F&assignmentId=dc56b55d-906c-4168-b331-9fc0130002bc&projectId=6d972c12-ef4f-4967-baa7-815328c4c025","7622E247FD564A23A70A62C16301506F-2025-08-07-17-50-34","","null","","[]","null","",""
"","","","","","image-button-response","72","331754","0.0-12.0-1.0-0.5","7622E247FD564A23A70A62C16301506F","7622E247FD564A23A70A62C16301506F","dc56b55d-906c-4168-b331-9fc0130002bc","6d972c12-ef4f-4967-baa7-815328c4c025","{""num_scrambled_semantic"":""8"",""num_scrambled_causal"":""4"",""num_scrambled_schematic"":""4"",""participantId"":""7622E247FD564A23A70A62C16301506F"",""assignmentId"":""dc56b55d-906c-4168-b331-9fc0130002bc"",""projectId"":""6d972c12-ef4f-4967-baa7-815328c4c025""}","https://test12345.live/?num_scrambled_semantic=8&num_scrambled_causal=4&num_scrambled_schematic=4&participantId=7622E247FD564A23A70A62C16301506F&assignmentId=dc56b55d-906c-4168-b331-9fc0130002bc&projectId=6d972c12-ef4f-4967-baa7-815328c4c025","7622E247FD564A23A70A62C16301506F-2025-08-07-17-50-34","","null","","images/causal_sequence/museum_causal/museum_causal_6.png","null","",""
"","","","","","image-button-response","73","333163","0.0-12.0-1.0-1.5","7622E247FD564A23A70A62C16301506F","7622E247FD564A23A70A62C16301506F","dc56b55d-906c-4168-b331-9fc0130002bc","6d972c12-ef4f-4967-baa7-815328c4c025","{""num_scrambled_semantic"":""8"",""num_scrambled_causal"":""4"",""num_scrambled_schematic"":""4"",""participantId"":""7622E247FD564A23A70A62C16301506F"",""assignmentId"":""dc56b55d-906c-4168-b331-9fc0130002bc"",""projectId"":""6d972c12-ef4f-4967-baa7-815328c4c025""}","https://test12345.live/?num_scrambled_semantic=8&num_scrambled_causal=4&num_scrambled_schematic=4&participantId=7622E247FD564A23A70A62C16301506F&assignmentId=dc56b55d-906c-4168-b331-9fc0130002bc&projectId=6d972c12-ef4f-4967-baa7-815328c4c025","7622E247FD564A23A70A62C16301506F-2025-08-07-17-50-34","","1404","","images/causal_sequence/museum_causal/museum_causal_6.png","0","",""
"","","","","","image-button-response","74","334977","0.0-12.0-1.0-2.5","7622E247FD564A23A70A62C16301506F","7622E247FD564A23A70A62C16301506F","dc56b55d-906c-4168-b331-9fc0130002bc","6d972c12-ef4f-4967-baa7-815328c4c025","{""num_scrambled_semantic"":""8"",""num_scrambled_causal"":""4"",""num_scrambled_schematic"":""4"",""participantId"":""7622E247FD564A23A70A62C16301506F"",""assignmentId"":""dc56b55d-906c-4168-b331-9fc0130002bc"",""projectId"":""6d972c12-ef4f-4967-baa7-815328c4c025""}","https://test12345.live/?num_scrambled_semantic=8&num_scrambled_causal=4&num_scrambled_schematic=4&participantId=7622E247FD564A23A70A62C16301506F&assignmentId=dc56b55d-906c-4168-b331-9fc0130002bc&projectId=6d972c12-ef4f-4967-baa7-815328c4c025","7622E247FD564A23A70A62C16301506F-2025-08-07-17-50-34","","null","","[]","null","",""
"","","","","","image-button-response","75","339567","0.0-12.0-1.0-0.6","7622E247FD564A23A70A62C16301506F","7622E247FD564A23A70A62C16301506F","dc56b55d-906c-4168-b331-9fc0130002bc","6d972c12-ef4f-4967-baa7-815328c4c025","{""num_scrambled_semantic"":""8"",""num_scrambled_causal"":""4"",""num_scrambled_schematic"":""4"",""participantId"":""7622E247FD564A23A70A62C16301506F"",""assignmentId"":""dc56b55d-906c-4168-b331-9fc0130002bc"",""projectId"":""6d972c12-ef4f-4967-baa7-815328c4c025""}","https://test12345.live/?num_scrambled_semantic=8&num_scrambled_causal=4&num_scrambled_schematic=4&participantId=7622E247FD564A23A70A62C16301506F&assignmentId=dc56b55d-906c-4168-b331-9fc0130002bc&projectId=6d972c12-ef4f-4967-baa7-815328c4c025","7622E247FD564A23A70A62C16301506F-2025-08-07-17-50-34","","null","","images/causal_sequence/museum_causal/museum_causal_7.png","null","",""
"","","","","","image-button-response","76","340341","0.0-12.0-1.0-1.6","7622E247FD564A23A70A62C16301506F","7622E247FD564A23A70A62C16301506F","dc56b55d-906c-4168-b331-9fc0130002bc","6d972c12-ef4f-4967-baa7-815328c4c025","{""num_scrambled_semantic"":""8"",""num_scrambled_causal"":""4"",""num_scrambled_schematic"":""4"",""participantId"":""7622E247FD564A23A70A62C16301506F"",""assignmentId"":""dc56b55d-906c-4168-b331-9fc0130002bc"",""projectId"":""6d972c12-ef4f-4967-baa7-815328c4c025""}","https://test12345.live/?num_scrambled_semantic=8&num_scrambled_causal=4&num_scrambled_schematic=4&participantId=7622E247FD564A23A70A62C16301506F&assignmentId=dc56b55d-906c-4168-b331-9fc0130002bc&projectId=6d972c12-ef4f-4967-baa7-815328c4c025","7622E247FD564A23A70A62C16301506F-2025-08-07-17-50-34","","772","","images/causal_sequence/museum_causal/museum_causal_7.png","1","",""
"","","","","","image-button-response","77","342165","0.0-12.0-1.0-2.6","7622E247FD564A23A70A62C16301506F","7622E247FD564A23A70A62C16301506F","dc56b55d-906c-4168-b331-9fc0130002bc","6d972c12-ef4f-4967-baa7-815328c4c025","{""num_scrambled_semantic"":""8"",""num_scrambled_causal"":""4"",""num_scrambled_schematic"":""4"",""participantId"":""7622E247FD564A23A70A62C16301506F"",""assignmentId"":""dc56b55d-906c-4168-b331-9fc0130002bc"",""projectId"":""6d972c12-ef4f-4967-baa7-815328c4c025""}","https://test12345.live/?num_scrambled_semantic=8&num_scrambled_causal=4&num_scrambled_schematic=4&participantId=7622E247FD564A23A70A62C16301506F&assignmentId=dc56b55d-906c-4168-b331-9fc0130002bc&projectId=6d972c12-ef4f-4967-baa7-815328c4c025","7622E247FD564A23A70A62C16301506F-2025-08-07-17-50-34","","null","","[]","null","",""
"","","","","","image-button-response","78","346714","0.0-12.0-1.0-0.7","7622E247FD564A23A70A62C16301506F","7622E247FD564A23A70A62C16301506F","dc56b55d-906c-4168-b331-9fc0130002bc","6d972c12-ef4f-4967-baa7-815328c4c025","{""num_scrambled_semantic"":""8"",""num_scrambled_causal"":""4"",""num_scrambled_schematic"":""4"",""participantId"":""7622E247FD564A23A70A62C16301506F"",""assignmentId"":""dc56b55d-906c-4168-b331-9fc0130002bc"",""projectId"":""6d972c12-ef4f-4967-baa7-815328c4c025""}","https://test12345.live/?num_scrambled_semantic=8&num_scrambled_causal=4&num_scrambled_schematic=4&participantId=7622E247FD564A23A70A62C16301506F&assignmentId=dc56b55d-906c-4168-b331-9fc0130002bc&projectId=6d972c12-ef4f-4967-baa7-815328c4c025","7622E247FD564A23A70A62C16301506F-2025-08-07-17-50-34","","null","","images/causal_sequence/museum_causal/museum_causal_8.png","null","",""
"","","","","","image-button-response","79","347351","0.0-12.0-1.0-1.7","7622E247FD564A23A70A62C16301506F","7622E247FD564A23A70A62C16301506F","dc56b55d-906c-4168-b331-9fc0130002bc","6d972c12-ef4f-4967-baa7-815328c4c025","{""num_scrambled_semantic"":""8"",""num_scrambled_causal"":""4"",""num_scrambled_schematic"":""4"",""participantId"":""7622E247FD564A23A70A62C16301506F"",""assignmentId"":""dc56b55d-906c-4168-b331-9fc0130002bc"",""projectId"":""6d972c12-ef4f-4967-baa7-815328c4c025""}","https://test12345.live/?num_scrambled_semantic=8&num_scrambled_causal=4&num_scrambled_schematic=4&participantId=7622E247FD564A23A70A62C16301506F&assignmentId=dc56b55d-906c-4168-b331-9fc0130002bc&projectId=6d972c12-ef4f-4967-baa7-815328c4c025","7622E247FD564A23A70A62C16301506F-2025-08-07-17-50-34","","638","","images/causal_sequence/museum_causal/museum_causal_8.png","0","",""
"","","","","","image-button-response","80","349303","0.0-12.0-1.0-2.7","7622E247FD564A23A70A62C16301506F","7622E247FD564A23A70A62C16301506F","dc56b55d-906c-4168-b331-9fc0130002bc","6d972c12-ef4f-4967-baa7-815328c4c025","{""num_scrambled_semantic"":""8"",""num_scrambled_causal"":""4"",""num_scrambled_schematic"":""4"",""participantId"":""7622E247FD564A23A70A62C16301506F"",""assignmentId"":""dc56b55d-906c-4168-b331-9fc0130002bc"",""projectId"":""6d972c12-ef4f-4967-baa7-815328c4c025""}","https://test12345.live/?num_scrambled_semantic=8&num_scrambled_causal=4&num_scrambled_schematic=4&participantId=7622E247FD564A23A70A62C16301506F&assignmentId=dc56b55d-906c-4168-b331-9fc0130002bc&projectId=6d972c12-ef4f-4967-baa7-815328c4c025","7622E247FD564A23A70A62C16301506F-2025-08-07-17-50-34","","null","","[]","null","",""
"","","","","","image-button-response","81","354067","0.0-12.0-1.0-0.8","7622E247FD564A23A70A62C16301506F","7622E247FD564A23A70A62C16301506F","dc56b55d-906c-4168-b331-9fc0130002bc","6d972c12-ef4f-4967-baa7-815328c4c025","{""num_scrambled_semantic"":""8"",""num_scrambled_causal"":""4"",""num_scrambled_schematic"":""4"",""participantId"":""7622E247FD564A23A70A62C16301506F"",""assignmentId"":""dc56b55d-906c-4168-b331-9fc0130002bc"",""projectId"":""6d972c12-ef4f-4967-baa7-815328c4c025""}","https://test12345.live/?num_scrambled_semantic=8&num_scrambled_causal=4&num_scrambled_schematic=4&participantId=7622E247FD564A23A70A62C16301506F&assignmentId=dc56b55d-906c-4168-b331-9fc0130002bc&projectId=6d972c12-ef4f-4967-baa7-815328c4c025","7622E247FD564A23A70A62C16301506F-2025-08-07-17-50-34","","null","","images/causal_sequence/museum_causal/museum_causal_9.png","null","",""
"","","","","","image-button-response","82","354936","0.0-12.0-1.0-1.8","7622E247FD564A23A70A62C16301506F","7622E247FD564A23A70A62C16301506F","dc56b55d-906c-4168-b331-9fc0130002bc","6d972c12-ef4f-4967-baa7-815328c4c025","{""num_scrambled_semantic"":""8"",""num_scrambled_causal"":""4"",""num_scrambled_schematic"":""4"",""participantId"":""7622E247FD564A23A70A62C16301506F"",""assignmentId"":""dc56b55d-906c-4168-b331-9fc0130002bc"",""projectId"":""6d972c12-ef4f-4967-baa7-815328c4c025""}","https://test12345.live/?num_scrambled_semantic=8&num_scrambled_causal=4&num_scrambled_schematic=4&participantId=7622E247FD564A23A70A62C16301506F&assignmentId=dc56b55d-906c-4168-b331-9fc0130002bc&projectId=6d972c12-ef4f-4967-baa7-815328c4c025","7622E247FD564A23A70A62C16301506F-2025-08-07-17-50-34","","869","","images/causal_sequence/museum_causal/museum_causal_9.png","1","",""
"","","","","","image-button-response","83","356777","0.0-12.0-1.0-2.8","7622E247FD564A23A70A62C16301506F","7622E247FD564A23A70A62C16301506F","dc56b55d-906c-4168-b331-9fc0130002bc","6d972c12-ef4f-4967-baa7-815328c4c025","{""num_scrambled_semantic"":""8"",""num_scrambled_causal"":""4"",""num_scrambled_schematic"":""4"",""participantId"":""7622E247FD564A23A70A62C16301506F"",""assignmentId"":""dc56b55d-906c-4168-b331-9fc0130002bc"",""projectId"":""6d972c12-ef4f-4967-baa7-815328c4c025""}","https://test12345.live/?num_scrambled_semantic=8&num_scrambled_causal=4&num_scrambled_schematic=4&participantId=7622E247FD564A23A70A62C16301506F&assignmentId=dc56b55d-906c-4168-b331-9fc0130002bc&projectId=6d972c12-ef4f-4967-baa7-815328c4c025","7622E247FD564A23A70A62C16301506F-2025-08-07-17-50-34","","null","","[]","null","",""
"","","","","","image-button-response","84","361298","0.0-12.0-1.0-0.9","7622E247FD564A23A70A62C16301506F","7622E247FD564A23A70A62C16301506F","dc56b55d-906c-4168-b331-9fc0130002bc","6d972c12-ef4f-4967-baa7-815328c4c025","{""num_scrambled_semantic"":""8"",""num_scrambled_causal"":""4"",""num_scrambled_schematic"":""4"",""participantId"":""7622E247FD564A23A70A62C16301506F"",""assignmentId"":""dc56b55d-906c-4168-b331-9fc0130002bc"",""projectId"":""6d972c12-ef4f-4967-baa7-815328c4c025""}","https://test12345.live/?num_scrambled_semantic=8&num_scrambled_causal=4&num_scrambled_schematic=4&participantId=7622E247FD564A23A70A62C16301506F&assignmentId=dc56b55d-906c-4168-b331-9fc0130002bc&projectId=6d972c12-ef4f-4967-baa7-815328c4c025","7622E247FD564A23A70A62C16301506F-2025-08-07-17-50-34","","null","","images/causal_sequence/museum_causal/museum_causal_ten.png","null","",""
"","","","","","image-button-response","85","361766","0.0-12.0-1.0-1.9","7622E247FD564A23A70A62C16301506F","7622E247FD564A23A70A62C16301506F","dc56b55d-906c-4168-b331-9fc0130002bc","6d972c12-ef4f-4967-baa7-815328c4c025","{""num_scrambled_semantic"":""8"",""num_scrambled_causal"":""4"",""num_scrambled_schematic"":""4"",""participantId"":""7622E247FD564A23A70A62C16301506F"",""assignmentId"":""dc56b55d-906c-4168-b331-9fc0130002bc"",""projectId"":""6d972c12-ef4f-4967-baa7-815328c4c025""}","https://test12345.live/?num_scrambled_semantic=8&num_scrambled_causal=4&num_scrambled_schematic=4&participantId=7622E247FD564A23A70A62C16301506F&assignmentId=dc56b55d-906c-4168-b331-9fc0130002bc&projectId=6d972c12-ef4f-4967-baa7-815328c4c025","7622E247FD564A23A70A62C16301506F-2025-08-07-17-50-34","","467","","images/causal_sequence/museum_causal/museum_causal_ten.png","0","",""
"","","","","","image-button-response","86","363571","0.0-12.0-1.0-2.9","7622E247FD564A23A70A62C16301506F","7622E247FD564A23A70A62C16301506F","dc56b55d-906c-4168-b331-9fc0130002bc","6d972c12-ef4f-4967-baa7-815328c4c025","{""num_scrambled_semantic"":""8"",""num_scrambled_causal"":""4"",""num_scrambled_schematic"":""4"",""participantId"":""7622E247FD564A23A70A62C16301506F"",""assignmentId"":""dc56b55d-906c-4168-b331-9fc0130002bc"",""projectId"":""6d972c12-ef4f-4967-baa7-815328c4c025""}","https://test12345.live/?num_scrambled_semantic=8&num_scrambled_causal=4&num_scrambled_schematic=4&participantId=7622E247FD564A23A70A62C16301506F&assignmentId=dc56b55d-906c-4168-b331-9fc0130002bc&projectId=6d972c12-ef4f-4967-baa7-815328c4c025","7622E247FD564A23A70A62C16301506F-2025-08-07-17-50-34","","null","","[]","null","",""
"","","","","","html-audio-response","87","400406","0.0-13.0","7622E247FD564A23A70A62C16301506F","7622E247FD564A23A70A62C16301506F","dc56b55d-906c-4168-b331-9fc0130002bc","6d972c12-ef4f-4967-baa7-815328c4c025","{""num_scrambled_semantic"":""8"",""num_scrambled_causal"":""4"",""num_scrambled_schematic"":""4"",""participantId"":""7622E247FD564A23A70A62C16301506F"",""assignmentId"":""dc56b55d-906c-4168-b331-9fc0130002bc"",""projectId"":""6d972c12-ef4f-4967-baa7-815328c4c025""}","https://test12345.live/?num_scrambled_semantic=8&num_scrambled_causal=4&num_scrambled_schematic=4&participantId=7622E247FD564A23A70A62C16301506F&assignmentId=dc56b55d-906c-4168-b331-9fc0130002bc&projectId=6d972c12-ef4f-4967-baa7-815328c4c025","7622E247FD564A23A70A62C16301506F-2025-08-07-17-50-34","","33909","","[""<span style=\""color: red; font-size: 24px\""> NOW RECORDING</span><p>Please say out loud all the images you saw, in the exact order you saw them. Try to recall as many images as you can, but remember: getting the order right is more important than the number of images you recall.</p>""]","","2","museum_causal"
"","","","","","image-button-response","88","406903","0.0-14.0-0.0","7622E247FD564A23A70A62C16301506F","7622E247FD564A23A70A62C16301506F","dc56b55d-906c-4168-b331-9fc0130002bc","6d972c12-ef4f-4967-baa7-815328c4c025","{""num_scrambled_semantic"":""8"",""num_scrambled_causal"":""4"",""num_scrambled_schematic"":""4"",""participantId"":""7622E247FD564A23A70A62C16301506F"",""assignmentId"":""dc56b55d-906c-4168-b331-9fc0130002bc"",""projectId"":""6d972c12-ef4f-4967-baa7-815328c4c025""}","https://test12345.live/?num_scrambled_semantic=8&num_scrambled_causal=4&num_scrambled_schematic=4&participantId=7622E247FD564A23A70A62C16301506F&assignmentId=dc56b55d-906c-4168-b331-9fc0130002bc&projectId=6d972c12-ef4f-4967-baa7-815328c4c025","7622E247FD564A23A70A62C16301506F-2025-08-07-17-50-34","","null","","images/semantic_sequence/physical_activity_semantic/physical_activity_semantic_0.png","null","",""
"","","","","","image-button-response","89","411929","0.0-14.0-1.0-0.0","7622E247FD564A23A70A62C16301506F","7622E247FD564A23A70A62C16301506F","dc56b55d-906c-4168-b331-9fc0130002bc","6d972c12-ef4f-4967-baa7-815328c4c025","{""num_scrambled_semantic"":""8"",""num_scrambled_causal"":""4"",""num_scrambled_schematic"":""4"",""participantId"":""7622E247FD564A23A70A62C16301506F"",""assignmentId"":""dc56b55d-906c-4168-b331-9fc0130002bc"",""projectId"":""6d972c12-ef4f-4967-baa7-815328c4c025""}","https://test12345.live/?num_scrambled_semantic=8&num_scrambled_causal=4&num_scrambled_schematic=4&participantId=7622E247FD564A23A70A62C16301506F&assignmentId=dc56b55d-906c-4168-b331-9fc0130002bc&projectId=6d972c12-ef4f-4967-baa7-815328c4c025","7622E247FD564A23A70A62C16301506F-2025-08-07-17-50-34","","null","","images/semantic_sequence/physical_activity_semantic/physical_activity_semantic_9.png","null","",""
"","","","","","image-button-response","90","413023","0.0-14.0-1.0-1.0","7622E247FD564A23A70A62C16301506F","7622E247FD564A23A70A62C16301506F","dc56b55d-906c-4168-b331-9fc0130002bc","6d972c12-ef4f-4967-baa7-815328c4c025","{""num_scrambled_semantic"":""8"",""num_scrambled_causal"":""4"",""num_scrambled_schematic"":""4"",""participantId"":""7622E247FD564A23A70A62C16301506F"",""assignmentId"":""dc56b55d-906c-4168-b331-9fc0130002bc"",""projectId"":""6d972c12-ef4f-4967-baa7-815328c4c025""}","https://test12345.live/?num_scrambled_semantic=8&num_scrambled_causal=4&num_scrambled_schematic=4&participantId=7622E247FD564A23A70A62C16301506F&assignmentId=dc56b55d-906c-4168-b331-9fc0130002bc&projectId=6d972c12-ef4f-4967-baa7-815328c4c025","7622E247FD564A23A70A62C16301506F-2025-08-07-17-50-34","","1093","","images/semantic_sequence/physical_activity_semantic/physical_activity_semantic_9.png","0","",""
"","","","","","image-button-response","91","414825","0.0-14.0-1.0-2.0","7622E247FD564A23A70A62C16301506F","7622E247FD564A23A70A62C16301506F","dc56b55d-906c-4168-b331-9fc0130002bc","6d972c12-ef4f-4967-baa7-815328c4c025","{""num_scrambled_semantic"":""8"",""num_scrambled_causal"":""4"",""num_scrambled_schematic"":""4"",""participantId"":""7622E247FD564A23A70A62C16301506F"",""assignmentId"":""dc56b55d-906c-4168-b331-9fc0130002bc"",""projectId"":""6d972c12-ef4f-4967-baa7-815328c4c025""}","https://test12345.live/?num_scrambled_semantic=8&num_scrambled_causal=4&num_scrambled_schematic=4&participantId=7622E247FD564A23A70A62C16301506F&assignmentId=dc56b55d-906c-4168-b331-9fc0130002bc&projectId=6d972c12-ef4f-4967-baa7-815328c4c025","7622E247FD564A23A70A62C16301506F-2025-08-07-17-50-34","","null","","[]","null","",""
"","","","","","image-button-response","92","419353","0.0-14.0-1.0-0.1","7622E247FD564A23A70A62C16301506F","7622E247FD564A23A70A62C16301506F","dc56b55d-906c-4168-b331-9fc0130002bc","6d972c12-ef4f-4967-baa7-815328c4c025","{""num_scrambled_semantic"":""8"",""num_scrambled_causal"":""4"",""num_scrambled_schematic"":""4"",""participantId"":""7622E247FD564A23A70A62C16301506F"",""assignmentId"":""dc56b55d-906c-4168-b331-9fc0130002bc"",""projectId"":""6d972c12-ef4f-4967-baa7-815328c4c025""}","https://test12345.live/?num_scrambled_semantic=8&num_scrambled_causal=4&num_scrambled_schematic=4&participantId=7622E247FD564A23A70A62C16301506F&assignmentId=dc56b55d-906c-4168-b331-9fc0130002bc&projectId=6d972c12-ef4f-4967-baa7-815328c4c025","7622E247FD564A23A70A62C16301506F-2025-08-07-17-50-34","","null","","images/semantic_sequence/physical_activity_semantic/physical_activity_semantic_2.png","null","",""
"","","","","","image-button-response","93","420453","0.0-14.0-1.0-1.1","7622E247FD564A23A70A62C16301506F","7622E247FD564A23A70A62C16301506F","dc56b55d-906c-4168-b331-9fc0130002bc","6d972c12-ef4f-4967-baa7-815328c4c025","{""num_scrambled_semantic"":""8"",""num_scrambled_causal"":""4"",""num_scrambled_schematic"":""4"",""participantId"":""7622E247FD564A23A70A62C16301506F"",""assignmentId"":""dc56b55d-906c-4168-b331-9fc0130002bc"",""projectId"":""6d972c12-ef4f-4967-baa7-815328c4c025""}","https://test12345.live/?num_scrambled_semantic=8&num_scrambled_causal=4&num_scrambled_schematic=4&participantId=7622E247FD564A23A70A62C16301506F&assignmentId=dc56b55d-906c-4168-b331-9fc0130002bc&projectId=6d972c12-ef4f-4967-baa7-815328c4c025","7622E247FD564A23A70A62C16301506F-2025-08-07-17-50-34","","1099","","images/semantic_sequence/physical_activity_semantic/physical_activity_semantic_2.png","0","",""
"","","","","","image-button-response","94","422461","0.0-14.0-1.0-2.1","7622E247FD564A23A70A62C16301506F","7622E247FD564A23A70A62C16301506F","dc56b55d-906c-4168-b331-9fc0130002bc","6d972c12-ef4f-4967-baa7-815328c4c025","{""num_scrambled_semantic"":""8"",""num_scrambled_causal"":""4"",""num_scrambled_schematic"":""4"",""participantId"":""7622E247FD564A23A70A62C16301506F"",""assignmentId"":""dc56b55d-906c-4168-b331-9fc0130002bc"",""projectId"":""6d972c12-ef4f-4967-baa7-815328c4c025""}","https://test12345.live/?num_scrambled_semantic=8&num_scrambled_causal=4&num_scrambled_schematic=4&participantId=7622E247FD564A23A70A62C16301506F&assignmentId=dc56b55d-906c-4168-b331-9fc0130002bc&projectId=6d972c12-ef4f-4967-baa7-815328c4c025","7622E247FD564A23A70A62C16301506F-2025-08-07-17-50-34","","null","","[]","null","",""
"","","","","","image-button-response","95","427001","0.0-14.0-1.0-0.2","7622E247FD564A23A70A62C16301506F","7622E247FD564A23A70A62C16301506F","dc56b55d-906c-4168-b331-9fc0130002bc","6d972c12-ef4f-4967-baa7-815328c4c025","{""num_scrambled_semantic"":""8"",""num_scrambled_causal"":""4"",""num_scrambled_schematic"":""4"",""participantId"":""7622E247FD564A23A70A62C16301506F"",""assignmentId"":""dc56b55d-906c-4168-b331-9fc0130002bc"",""projectId"":""6d972c12-ef4f-4967-baa7-815328c4c025""}","https://test12345.live/?num_scrambled_semantic=8&num_scrambled_causal=4&num_scrambled_schematic=4&participantId=7622E247FD564A23A70A62C16301506F&assignmentId=dc56b55d-906c-4168-b331-9fc0130002bc&projectId=6d972c12-ef4f-4967-baa7-815328c4c025","7622E247FD564A23A70A62C16301506F-2025-08-07-17-50-34","","null","","images/semantic_sequence/physical_activity_semantic/physical_activity_semantic_5.png","null","",""
"","","","","","image-button-response","96","427586","0.0-14.0-1.0-1.2","7622E247FD564A23A70A62C16301506F","7622E247FD564A23A70A62C16301506F","dc56b55d-906c-4168-b331-9fc0130002bc","6d972c12-ef4f-4967-baa7-815328c4c025","{""num_scrambled_semantic"":""8"",""num_scrambled_causal"":""4"",""num_scrambled_schematic"":""4"",""participantId"":""7622E247FD564A23A70A62C16301506F"",""assignmentId"":""dc56b55d-906c-4168-b331-9fc0130002bc"",""projectId"":""6d972c12-ef4f-4967-baa7-815328c4c025""}","https://test12345.live/?num_scrambled_semantic=8&num_scrambled_causal=4&num_scrambled_schematic=4&participantId=7622E247FD564A23A70A62C16301506F&assignmentId=dc56b55d-906c-4168-b331-9fc0130002bc&projectId=6d972c12-ef4f-4967-baa7-815328c4c025","7622E247FD564A23A70A62C16301506F-2025-08-07-17-50-34","","584","","images/semantic_sequence/physical_activity_semantic/physical_activity_semantic_5.png","0","",""
"","","","","","image-button-response","97","429602","0.0-14.0-1.0-2.2","7622E247FD564A23A70A62C16301506F","7622E247FD564A23A70A62C16301506F","dc56b55d-906c-4168-b331-9fc0130002bc","6d972c12-ef4f-4967-baa7-815328c4c025","{""num_scrambled_semantic"":""8"",""num_scrambled_causal"":""4"",""num_scrambled_schematic"":""4"",""participantId"":""7622E247FD564A23A70A62C16301506F"",""assignmentId"":""dc56b55d-906c-4168-b331-9fc0130002bc"",""projectId"":""6d972c12-ef4f-4967-baa7-815328c4c025""}","https://test12345.live/?num_scrambled_semantic=8&num_scrambled_causal=4&num_scrambled_schematic=4&participantId=7622E247FD564A23A70A62C16301506F&assignmentId=dc56b55d-906c-4168-b331-9fc0130002bc&projectId=6d972c12-ef4f-4967-baa7-815328c4c025","7622E247FD564A23A70A62C16301506F-2025-08-07-17-50-34","","null","","[]","null","",""
"","","","","","image-button-response","98","434181","0.0-14.0-1.0-0.3","7622E247FD564A23A70A62C16301506F","7622E247FD564A23A70A62C16301506F","dc56b55d-906c-4168-b331-9fc0130002bc","6d972c12-ef4f-4967-baa7-815328c4c025","{""num_scrambled_semantic"":""8"",""num_scrambled_causal"":""4"",""num_scrambled_schematic"":""4"",""participantId"":""7622E247FD564A23A70A62C16301506F"",""assignmentId"":""dc56b55d-906c-4168-b331-9fc0130002bc"",""projectId"":""6d972c12-ef4f-4967-baa7-815328c4c025""}","https://test12345.live/?num_scrambled_semantic=8&num_scrambled_causal=4&num_scrambled_schematic=4&participantId=7622E247FD564A23A70A62C16301506F&assignmentId=dc56b55d-906c-4168-b331-9fc0130002bc&projectId=6d972c12-ef4f-4967-baa7-815328c4c025","7622E247FD564A23A70A62C16301506F-2025-08-07-17-50-34","","null","","images/semantic_sequence/physical_activity_semantic/physical_activity_semantic_3.png","null","",""
"","","","","","image-button-response","99","434854","0.0-14.0-1.0-1.3","7622E247FD564A23A70A62C16301506F","7622E247FD564A23A70A62C16301506F","dc56b55d-906c-4168-b331-9fc0130002bc","6d972c12-ef4f-4967-baa7-815328c4c025","{""num_scrambled_semantic"":""8"",""num_scrambled_causal"":""4"",""num_scrambled_schematic"":""4"",""participantId"":""7622E247FD564A23A70A62C16301506F"",""assignmentId"":""dc56b55d-906c-4168-b331-9fc0130002bc"",""projectId"":""6d972c12-ef4f-4967-baa7-815328c4c025""}","https://test12345.live/?num_scrambled_semantic=8&num_scrambled_causal=4&num_scrambled_schematic=4&participantId=7622E247FD564A23A70A62C16301506F&assignmentId=dc56b55d-906c-4168-b331-9fc0130002bc&projectId=6d972c12-ef4f-4967-baa7-815328c4c025","7622E247FD564A23A70A62C16301506F-2025-08-07-17-50-34","","672","","images/semantic_sequence/physical_activity_semantic/physical_activity_semantic_3.png","0","",""
"","","","","","image-button-response","100","436879","0.0-14.0-1.0-2.3","7622E247FD564A23A70A62C16301506F","7622E247FD564A23A70A62C16301506F","dc56b55d-906c-4168-b331-9fc0130002bc","6d972c12-ef4f-4967-baa7-815328c4c025","{""num_scrambled_semantic"":""8"",""num_scrambled_causal"":""4"",""num_scrambled_schematic"":""4"",""participantId"":""7622E247FD564A23A70A62C16301506F"",""assignmentId"":""dc56b55d-906c-4168-b331-9fc0130002bc"",""projectId"":""6d972c12-ef4f-4967-baa7-815328c4c025""}","https://test12345.live/?num_scrambled_semantic=8&num_scrambled_causal=4&num_scrambled_schematic=4&participantId=7622E247FD564A23A70A62C16301506F&assignmentId=dc56b55d-906c-4168-b331-9fc0130002bc&projectId=6d972c12-ef4f-4967-baa7-815328c4c025","7622E247FD564A23A70A62C16301506F-2025-08-07-17-50-34","","null","","[]","null","",""
"","","","","","image-button-response","101","441611","0.0-14.0-1.0-0.4","7622E247FD564A23A70A62C16301506F","7622E247FD564A23A70A62C16301506F","dc56b55d-906c-4168-b331-9fc0130002bc","6d972c12-ef4f-4967-baa7-815328c4c025","{""num_scrambled_semantic"":""8"",""num_scrambled_causal"":""4"",""num_scrambled_schematic"":""4"",""participantId"":""7622E247FD564A23A70A62C16301506F"",""assignmentId"":""dc56b55d-906c-4168-b331-9fc0130002bc"",""projectId"":""6d972c12-ef4f-4967-baa7-815328c4c025""}","https://test12345.live/?num_scrambled_semantic=8&num_scrambled_causal=4&num_scrambled_schematic=4&participantId=7622E247FD564A23A70A62C16301506F&assignmentId=dc56b55d-906c-4168-b331-9fc0130002bc&projectId=6d972c12-ef4f-4967-baa7-815328c4c025","7622E247FD564A23A70A62C16301506F-2025-08-07-17-50-34","","null","","images/semantic_sequence/physical_activity_semantic/physical_activity_semantic_ten.png","null","",""
"","","","","","image-button-response","102","443137","0.0-14.0-1.0-1.4","7622E247FD564A23A70A62C16301506F","7622E247FD564A23A70A62C16301506F","dc56b55d-906c-4168-b331-9fc0130002bc","6d972c12-ef4f-4967-baa7-815328c4c025","{""num_scrambled_semantic"":""8"",""num_scrambled_causal"":""4"",""num_scrambled_schematic"":""4"",""participantId"":""7622E247FD564A23A70A62C16301506F"",""assignmentId"":""dc56b55d-906c-4168-b331-9fc0130002bc"",""projectId"":""6d972c12-ef4f-4967-baa7-815328c4c025""}","https://test12345.live/?num_scrambled_semantic=8&num_scrambled_causal=4&num_scrambled_schematic=4&participantId=7622E247FD564A23A70A62C16301506F&assignmentId=dc56b55d-906c-4168-b331-9fc0130002bc&projectId=6d972c12-ef4f-4967-baa7-815328c4c025","7622E247FD564A23A70A62C16301506F-2025-08-07-17-50-34","","1526","","images/semantic_sequence/physical_activity_semantic/physical_activity_semantic_ten.png","0","",""
"","","","","","image-button-response","103","445152","0.0-14.0-1.0-2.4","7622E247FD564A23A70A62C16301506F","7622E247FD564A23A70A62C16301506F","dc56b55d-906c-4168-b331-9fc0130002bc","6d972c12-ef4f-4967-baa7-815328c4c025","{""num_scrambled_semantic"":""8"",""num_scrambled_causal"":""4"",""num_scrambled_schematic"":""4"",""participantId"":""7622E247FD564A23A70A62C16301506F"",""assignmentId"":""dc56b55d-906c-4168-b331-9fc0130002bc"",""projectId"":""6d972c12-ef4f-4967-baa7-815328c4c025""}","https://test12345.live/?num_scrambled_semantic=8&num_scrambled_causal=4&num_scrambled_schematic=4&participantId=7622E247FD564A23A70A62C16301506F&assignmentId=dc56b55d-906c-4168-b331-9fc0130002bc&projectId=6d972c12-ef4f-4967-baa7-815328c4c025","7622E247FD564A23A70A62C16301506F-2025-08-07-17-50-34","","null","","[]","null","",""
"","","","","","image-button-response","104","449680","0.0-14.0-1.0-0.5","7622E247FD564A23A70A62C16301506F","7622E247FD564A23A70A62C16301506F","dc56b55d-906c-4168-b331-9fc0130002bc","6d972c12-ef4f-4967-baa7-815328c4c025","{""num_scrambled_semantic"":""8"",""num_scrambled_causal"":""4"",""num_scrambled_schematic"":""4"",""participantId"":""7622E247FD564A23A70A62C16301506F"",""assignmentId"":""dc56b55d-906c-4168-b331-9fc0130002bc"",""projectId"":""6d972c12-ef4f-4967-baa7-815328c4c025""}","https://test12345.live/?num_scrambled_semantic=8&num_scrambled_causal=4&num_scrambled_schematic=4&participantId=7622E247FD564A23A70A62C16301506F&assignmentId=dc56b55d-906c-4168-b331-9fc0130002bc&projectId=6d972c12-ef4f-4967-baa7-815328c4c025","7622E247FD564A23A70A62C16301506F-2025-08-07-17-50-34","","null","","images/semantic_sequence/physical_activity_semantic/physical_activity_semantic_1.png","null","",""
"","","","","","image-button-response","105","450668","0.0-14.0-1.0-1.5","7622E247FD564A23A70A62C16301506F","7622E247FD564A23A70A62C16301506F","dc56b55d-906c-4168-b331-9fc0130002bc","6d972c12-ef4f-4967-baa7-815328c4c025","{""num_scrambled_semantic"":""8"",""num_scrambled_causal"":""4"",""num_scrambled_schematic"":""4"",""participantId"":""7622E247FD564A23A70A62C16301506F"",""assignmentId"":""dc56b55d-906c-4168-b331-9fc0130002bc"",""projectId"":""6d972c12-ef4f-4967-baa7-815328c4c025""}","https://test12345.live/?num_scrambled_semantic=8&num_scrambled_causal=4&num_scrambled_schematic=4&participantId=7622E247FD564A23A70A62C16301506F&assignmentId=dc56b55d-906c-4168-b331-9fc0130002bc&projectId=6d972c12-ef4f-4967-baa7-815328c4c025","7622E247FD564A23A70A62C16301506F-2025-08-07-17-50-34","","987","","images/semantic_sequence/physical_activity_semantic/physical_activity_semantic_1.png","0","",""
"","","","","","image-button-response","106","452468","0.0-14.0-1.0-2.5","7622E247FD564A23A70A62C16301506F","7622E247FD564A23A70A62C16301506F","dc56b55d-906c-4168-b331-9fc0130002bc","6d972c12-ef4f-4967-baa7-815328c4c025","{""num_scrambled_semantic"":""8"",""num_scrambled_causal"":""4"",""num_scrambled_schematic"":""4"",""participantId"":""7622E247FD564A23A70A62C16301506F"",""assignmentId"":""dc56b55d-906c-4168-b331-9fc0130002bc"",""projectId"":""6d972c12-ef4f-4967-baa7-815328c4c025""}","https://test12345.live/?num_scrambled_semantic=8&num_scrambled_causal=4&num_scrambled_schematic=4&participantId=7622E247FD564A23A70A62C16301506F&assignmentId=dc56b55d-906c-4168-b331-9fc0130002bc&projectId=6d972c12-ef4f-4967-baa7-815328c4c025","7622E247FD564A23A70A62C16301506F-2025-08-07-17-50-34","","null","","[]","null","",""
"","","","","","image-button-response","107","457250","0.0-14.0-1.0-0.6","7622E247FD564A23A70A62C16301506F","7622E247FD564A23A70A62C16301506F","dc56b55d-906c-4168-b331-9fc0130002bc","6d972c12-ef4f-4967-baa7-815328c4c025","{""num_scrambled_semantic"":""8"",""num_scrambled_causal"":""4"",""num_scrambled_schematic"":""4"",""participantId"":""7622E247FD564A23A70A62C16301506F"",""assignmentId"":""dc56b55d-906c-4168-b331-9fc0130002bc"",""projectId"":""6d972c12-ef4f-4967-baa7-815328c4c025""}","https://test12345.live/?num_scrambled_semantic=8&num_scrambled_causal=4&num_scrambled_schematic=4&participantId=7622E247FD564A23A70A62C16301506F&assignmentId=dc56b55d-906c-4168-b331-9fc0130002bc&projectId=6d972c12-ef4f-4967-baa7-815328c4c025","7622E247FD564A23A70A62C16301506F-2025-08-07-17-50-34","","null","","images/semantic_sequence/physical_activity_semantic/physical_activity_semantic_8.png","null","",""
"","","","","","image-button-response","108","458005","0.0-14.0-1.0-1.6","7622E247FD564A23A70A62C16301506F","7622E247FD564A23A70A62C16301506F","dc56b55d-906c-4168-b331-9fc0130002bc","6d972c12-ef4f-4967-baa7-815328c4c025","{""num_scrambled_semantic"":""8"",""num_scrambled_causal"":""4"",""num_scrambled_schematic"":""4"",""participantId"":""7622E247FD564A23A70A62C16301506F"",""assignmentId"":""dc56b55d-906c-4168-b331-9fc0130002bc"",""projectId"":""6d972c12-ef4f-4967-baa7-815328c4c025""}","https://test12345.live/?num_scrambled_semantic=8&num_scrambled_causal=4&num_scrambled_schematic=4&participantId=7622E247FD564A23A70A62C16301506F&assignmentId=dc56b55d-906c-4168-b331-9fc0130002bc&projectId=6d972c12-ef4f-4967-baa7-815328c4c025","7622E247FD564A23A70A62C16301506F-2025-08-07-17-50-34","","752","","images/semantic_sequence/physical_activity_semantic/physical_activity_semantic_8.png","0","",""
"","","","","","image-button-response","109","460026","0.0-14.0-1.0-2.6","7622E247FD564A23A70A62C16301506F","7622E247FD564A23A70A62C16301506F","dc56b55d-906c-4168-b331-9fc0130002bc","6d972c12-ef4f-4967-baa7-815328c4c025","{""num_scrambled_semantic"":""8"",""num_scrambled_causal"":""4"",""num_scrambled_schematic"":""4"",""participantId"":""7622E247FD564A23A70A62C16301506F"",""assignmentId"":""dc56b55d-906c-4168-b331-9fc0130002bc"",""projectId"":""6d972c12-ef4f-4967-baa7-815328c4c025""}","https://test12345.live/?num_scrambled_semantic=8&num_scrambled_causal=4&num_scrambled_schematic=4&participantId=7622E247FD564A23A70A62C16301506F&assignmentId=dc56b55d-906c-4168-b331-9fc0130002bc&projectId=6d972c12-ef4f-4967-baa7-815328c4c025","7622E247FD564A23A70A62C16301506F-2025-08-07-17-50-34","","null","","[]","null","",""
"","","","","","image-button-response","110","464546","0.0-14.0-1.0-0.7","7622E247FD564A23A70A62C16301506F","7622E247FD564A23A70A62C16301506F","dc56b55d-906c-4168-b331-9fc0130002bc","6d972c12-ef4f-4967-baa7-815328c4c025","{""num_scrambled_semantic"":""8"",""num_scrambled_causal"":""4"",""num_scrambled_schematic"":""4"",""participantId"":""7622E247FD564A23A70A62C16301506F"",""assignmentId"":""dc56b55d-906c-4168-b331-9fc0130002bc"",""projectId"":""6d972c12-ef4f-4967-baa7-815328c4c025""}","https://test12345.live/?num_scrambled_semantic=8&num_scrambled_causal=4&num_scrambled_schematic=4&participantId=7622E247FD564A23A70A62C16301506F&assignmentId=dc56b55d-906c-4168-b331-9fc0130002bc&projectId=6d972c12-ef4f-4967-baa7-815328c4c025","7622E247FD564A23A70A62C16301506F-2025-08-07-17-50-34","","null","","images/semantic_sequence/physical_activity_semantic/physical_activity_semantic_4.png","null","",""
"","","","","","image-button-response","111","465378","0.0-14.0-1.0-1.7","7622E247FD564A23A70A62C16301506F","7622E247FD564A23A70A62C16301506F","dc56b55d-906c-4168-b331-9fc0130002bc","6d972c12-ef4f-4967-baa7-815328c4c025","{""num_scrambled_semantic"":""8"",""num_scrambled_causal"":""4"",""num_scrambled_schematic"":""4"",""participantId"":""7622E247FD564A23A70A62C16301506F"",""assignmentId"":""dc56b55d-906c-4168-b331-9fc0130002bc"",""projectId"":""6d972c12-ef4f-4967-baa7-815328c4c025""}","https://test12345.live/?num_scrambled_semantic=8&num_scrambled_causal=4&num_scrambled_schematic=4&participantId=7622E247FD564A23A70A62C16301506F&assignmentId=dc56b55d-906c-4168-b331-9fc0130002bc&projectId=6d972c12-ef4f-4967-baa7-815328c4c025","7622E247FD564A23A70A62C16301506F-2025-08-07-17-50-34","","830","","images/semantic_sequence/physical_activity_semantic/physical_activity_semantic_4.png","0","",""
"","","","","","image-button-response","112","467186","0.0-14.0-1.0-2.7","7622E247FD564A23A70A62C16301506F","7622E247FD564A23A70A62C16301506F","dc56b55d-906c-4168-b331-9fc0130002bc","6d972c12-ef4f-4967-baa7-815328c4c025","{""num_scrambled_semantic"":""8"",""num_scrambled_causal"":""4"",""num_scrambled_schematic"":""4"",""participantId"":""7622E247FD564A23A70A62C16301506F"",""assignmentId"":""dc56b55d-906c-4168-b331-9fc0130002bc"",""projectId"":""6d972c12-ef4f-4967-baa7-815328c4c025""}","https://test12345.live/?num_scrambled_semantic=8&num_scrambled_causal=4&num_scrambled_schematic=4&participantId=7622E247FD564A23A70A62C16301506F&assignmentId=dc56b55d-906c-4168-b331-9fc0130002bc&projectId=6d972c12-ef4f-4967-baa7-815328c4c025","7622E247FD564A23A70A62C16301506F-2025-08-07-17-50-34","","null","","[]","null","",""
"","","","","","image-button-response","113","471725","0.0-14.0-1.0-0.8","7622E247FD564A23A70A62C16301506F","7622E247FD564A23A70A62C16301506F","dc56b55d-906c-4168-b331-9fc0130002bc","6d972c12-ef4f-4967-baa7-815328c4c025","{""num_scrambled_semantic"":""8"",""num_scrambled_causal"":""4"",""num_scrambled_schematic"":""4"",""participantId"":""7622E247FD564A23A70A62C16301506F"",""assignmentId"":""dc56b55d-906c-4168-b331-9fc0130002bc"",""projectId"":""6d972c12-ef4f-4967-baa7-815328c4c025""}","https://test12345.live/?num_scrambled_semantic=8&num_scrambled_causal=4&num_scrambled_schematic=4&participantId=7622E247FD564A23A70A62C16301506F&assignmentId=dc56b55d-906c-4168-b331-9fc0130002bc&projectId=6d972c12-ef4f-4967-baa7-815328c4c025","7622E247FD564A23A70A62C16301506F-2025-08-07-17-50-34","","null","","images/semantic_sequence/physical_activity_semantic/physical_activity_semantic_6.png","null","",""
