"success","timeout","failed_images","failed_audio","failed_video","trial_type","trial_index","time_elapsed","internal_node_id","subject","subject_id","study_id","session_id","urlvar","current_url","audio_id","view_history","rt","device_id","stimulus","response","estimated_stimulus_onset","seq_name"
"true","false","[]","[]","[]","preload","0","8505","0.0-0.0","76A6A31DA16F423A8B9D9D63791511B2","76A6A31DA16F423A8B9D9D63791511B2","22ba9779-030f-4a3e-bde2-a74a5d82ebdc","9076ac92-be42-43a2-9634-8b67c7fe93a7","{""num_scrambled_semantic"":""8"",""num_scrambled_causal"":""4"",""num_scrambled_schematic"":""4"",""participantId"":""76A6A31DA16F423A8B9D9D63791511B2"",""assignmentId"":""22ba9779-030f-4a3e-bde2-a74a5d82ebdc"",""projectId"":""9076ac92-be42-43a2-9634-8b67c7fe93a7""}","https://test12345.live/?num_scrambled_semantic=8&num_scrambled_causal=4&num_scrambled_schematic=4&participantId=76A6A31DA16F423A8B9D9D63791511B2&assignmentId=22ba9779-030f-4a3e-bde2-a74a5d82ebdc&projectId=9076ac92-be42-43a2-9634-8b67c7fe93a7","76A6A31DA16F423A8B9D9D63791511B2-2025-05-22-19-53-49","","","","","","",""
"","","","","","instructions","1","16847","0.0-1.0","76A6A31DA16F423A8B9D9D63791511B2","76A6A31DA16F423A8B9D9D63791511B2","22ba9779-030f-4a3e-bde2-a74a5d82ebdc","9076ac92-be42-43a2-9634-8b67c7fe93a7","{""num_scrambled_semantic"":""8"",""num_scrambled_causal"":""4"",""num_scrambled_schematic"":""4"",""participantId"":""76A6A31DA16F423A8B9D9D63791511B2"",""assignmentId"":""22ba9779-030f-4a3e-bde2-a74a5d82ebdc"",""projectId"":""9076ac92-be42-43a2-9634-8b67c7fe93a7""}","https://test12345.live/?num_scrambled_semantic=8&num_scrambled_causal=4&num_scrambled_schematic=4&participantId=76A6A31DA16F423A8B9D9D63791511B2&assignmentId=22ba9779-030f-4a3e-bde2-a74a5d82ebdc&projectId=9076ac92-be42-43a2-9634-8b67c7fe93a7","76A6A31DA16F423A8B9D9D63791511B2-2025-05-22-19-53-49","[{""page_index"":0,""viewing_time"":8341}]","8341","","","","",""
"","","","","","instructions","2","31131","0.0-2.0","76A6A31DA16F423A8B9D9D63791511B2","76A6A31DA16F423A8B9D9D63791511B2","22ba9779-030f-4a3e-bde2-a74a5d82ebdc","9076ac92-be42-43a2-9634-8b67c7fe93a7","{""num_scrambled_semantic"":""8"",""num_scrambled_causal"":""4"",""num_scrambled_schematic"":""4"",""participantId"":""76A6A31DA16F423A8B9D9D63791511B2"",""assignmentId"":""22ba9779-030f-4a3e-bde2-a74a5d82ebdc"",""projectId"":""9076ac92-be42-43a2-9634-8b67c7fe93a7""}","https://test12345.live/?num_scrambled_semantic=8&num_scrambled_causal=4&num_scrambled_schematic=4&participantId=76A6A31DA16F423A8B9D9D63791511B2&assignmentId=22ba9779-030f-4a3e-bde2-a74a5d82ebdc&projectId=9076ac92-be42-43a2-9634-8b67c7fe93a7","76A6A31DA16F423A8B9D9D63791511B2-2025-05-22-19-53-49","[{""page_index"":0,""viewing_time"":14283}]","14283","","","","",""
"true","","","","","fullscreen","3","33147","0.0-3.0","76A6A31DA16F423A8B9D9D63791511B2","76A6A31DA16F423A8B9D9D63791511B2","22ba9779-030f-4a3e-bde2-a74a5d82ebdc","9076ac92-be42-43a2-9634-8b67c7fe93a7","{""num_scrambled_semantic"":""8"",""num_scrambled_causal"":""4"",""num_scrambled_schematic"":""4"",""participantId"":""76A6A31DA16F423A8B9D9D63791511B2"",""assignmentId"":""22ba9779-030f-4a3e-bde2-a74a5d82ebdc"",""projectId"":""9076ac92-be42-43a2-9634-8b67c7fe93a7""}","https://test12345.live/?num_scrambled_semantic=8&num_scrambled_causal=4&num_scrambled_schematic=4&participantId=76A6A31DA16F423A8B9D9D63791511B2&assignmentId=22ba9779-030f-4a3e-bde2-a74a5d82ebdc&projectId=9076ac92-be42-43a2-9634-8b67c7fe93a7","76A6A31DA16F423A8B9D9D63791511B2-2025-05-22-19-53-49","","1013","","","","",""
"","","","","","initialize-microphone","4","38354","0.0-4.0-0.0","76A6A31DA16F423A8B9D9D63791511B2","76A6A31DA16F423A8B9D9D63791511B2","22ba9779-030f-4a3e-bde2-a74a5d82ebdc","9076ac92-be42-43a2-9634-8b67c7fe93a7","{""num_scrambled_semantic"":""8"",""num_scrambled_causal"":""4"",""num_scrambled_schematic"":""4"",""participantId"":""76A6A31DA16F423A8B9D9D63791511B2"",""assignmentId"":""22ba9779-030f-4a3e-bde2-a74a5d82ebdc"",""projectId"":""9076ac92-be42-43a2-9634-8b67c7fe93a7""}","https://test12345.live/?num_scrambled_semantic=8&num_scrambled_causal=4&num_scrambled_schematic=4&participantId=76A6A31DA16F423A8B9D9D63791511B2&assignmentId=22ba9779-030f-4a3e-bde2-a74a5d82ebdc&projectId=9076ac92-be42-43a2-9634-8b67c7fe93a7","76A6A31DA16F423A8B9D9D63791511B2-2025-05-22-19-53-49","","","4f96ea192a788f7360814e9a563d3602a2e41369cc1277471c9f0a27851c5dac","","","",""
"","","","","","html-audio-response","5","59531","0.0-4.0-1.0","76A6A31DA16F423A8B9D9D63791511B2","76A6A31DA16F423A8B9D9D63791511B2","22ba9779-030f-4a3e-bde2-a74a5d82ebdc","9076ac92-be42-43a2-9634-8b67c7fe93a7","{""num_scrambled_semantic"":""8"",""num_scrambled_causal"":""4"",""num_scrambled_schematic"":""4"",""participantId"":""76A6A31DA16F423A8B9D9D63791511B2"",""assignmentId"":""22ba9779-030f-4a3e-bde2-a74a5d82ebdc"",""projectId"":""9076ac92-be42-43a2-9634-8b67c7fe93a7""}","https://test12345.live/?num_scrambled_semantic=8&num_scrambled_causal=4&num_scrambled_schematic=4&participantId=76A6A31DA16F423A8B9D9D63791511B2&assignmentId=22ba9779-030f-4a3e-bde2-a74a5d82ebdc&projectId=9076ac92-be42-43a2-9634-8b67c7fe93a7","76A6A31DA16F423A8B9D9D63791511B2-2025-05-22-19-53-49","","5162","","<span style=""color: red; font-size: 24px""> NOW RECORDING</span>
        <p>Please test Microphone</p>","","16",""
"","","","","","html-button-response","6","60962","0.0-4.0-2.0","76A6A31DA16F423A8B9D9D63791511B2","76A6A31DA16F423A8B9D9D63791511B2","22ba9779-030f-4a3e-bde2-a74a5d82ebdc","9076ac92-be42-43a2-9634-8b67c7fe93a7","{""num_scrambled_semantic"":""8"",""num_scrambled_causal"":""4"",""num_scrambled_schematic"":""4"",""participantId"":""76A6A31DA16F423A8B9D9D63791511B2"",""assignmentId"":""22ba9779-030f-4a3e-bde2-a74a5d82ebdc"",""projectId"":""9076ac92-be42-43a2-9634-8b67c7fe93a7""}","https://test12345.live/?num_scrambled_semantic=8&num_scrambled_causal=4&num_scrambled_schematic=4&participantId=76A6A31DA16F423A8B9D9D63791511B2&assignmentId=22ba9779-030f-4a3e-bde2-a74a5d82ebdc&projectId=9076ac92-be42-43a2-9634-8b67c7fe93a7","76A6A31DA16F423A8B9D9D63791511B2-2025-05-22-19-53-49","","1430","","<p style=""font-size:48px; color:red;"">Is Microphone OK?</p>","1","",""
"","","","","","instructions","7","72564","0.0-5.0","76A6A31DA16F423A8B9D9D63791511B2","76A6A31DA16F423A8B9D9D63791511B2","22ba9779-030f-4a3e-bde2-a74a5d82ebdc","9076ac92-be42-43a2-9634-8b67c7fe93a7","{""num_scrambled_semantic"":""8"",""num_scrambled_causal"":""4"",""num_scrambled_schematic"":""4"",""participantId"":""76A6A31DA16F423A8B9D9D63791511B2"",""assignmentId"":""22ba9779-030f-4a3e-bde2-a74a5d82ebdc"",""projectId"":""9076ac92-be42-43a2-9634-8b67c7fe93a7""}","https://test12345.live/?num_scrambled_semantic=8&num_scrambled_causal=4&num_scrambled_schematic=4&participantId=76A6A31DA16F423A8B9D9D63791511B2&assignmentId=22ba9779-030f-4a3e-bde2-a74a5d82ebdc&projectId=9076ac92-be42-43a2-9634-8b67c7fe93a7","76A6A31DA16F423A8B9D9D63791511B2-2025-05-22-19-53-49","[{""page_index"":0,""viewing_time"":2768},{""page_index"":1,""viewing_time"":8834}]","11602","","","","",""
"","","","","","image-button-response","8","78572","0.0-6.0-0.0","76A6A31DA16F423A8B9D9D63791511B2","76A6A31DA16F423A8B9D9D63791511B2","22ba9779-030f-4a3e-bde2-a74a5d82ebdc","9076ac92-be42-43a2-9634-8b67c7fe93a7","{""num_scrambled_semantic"":""8"",""num_scrambled_causal"":""4"",""num_scrambled_schematic"":""4"",""participantId"":""76A6A31DA16F423A8B9D9D63791511B2"",""assignmentId"":""22ba9779-030f-4a3e-bde2-a74a5d82ebdc"",""projectId"":""9076ac92-be42-43a2-9634-8b67c7fe93a7""}","https://test12345.live/?num_scrambled_semantic=8&num_scrambled_causal=4&num_scrambled_schematic=4&participantId=76A6A31DA16F423A8B9D9D63791511B2&assignmentId=22ba9779-030f-4a3e-bde2-a74a5d82ebdc&projectId=9076ac92-be42-43a2-9634-8b67c7fe93a7","76A6A31DA16F423A8B9D9D63791511B2-2025-05-22-19-53-49","","null","","images/instructions/movie_0.png","null","",""
"","","","","","image-button-response","9","83079","0.0-6.0-1.0-0.0","76A6A31DA16F423A8B9D9D63791511B2","76A6A31DA16F423A8B9D9D63791511B2","22ba9779-030f-4a3e-bde2-a74a5d82ebdc","9076ac92-be42-43a2-9634-8b67c7fe93a7","{""num_scrambled_semantic"":""8"",""num_scrambled_causal"":""4"",""num_scrambled_schematic"":""4"",""participantId"":""76A6A31DA16F423A8B9D9D63791511B2"",""assignmentId"":""22ba9779-030f-4a3e-bde2-a74a5d82ebdc"",""projectId"":""9076ac92-be42-43a2-9634-8b67c7fe93a7""}","https://test12345.live/?num_scrambled_semantic=8&num_scrambled_causal=4&num_scrambled_schematic=4&participantId=76A6A31DA16F423A8B9D9D63791511B2&assignmentId=22ba9779-030f-4a3e-bde2-a74a5d82ebdc&projectId=9076ac92-be42-43a2-9634-8b67c7fe93a7","76A6A31DA16F423A8B9D9D63791511B2-2025-05-22-19-53-49","","null","","images/instructions/movie_1.png","null","",""
"","","","","","image-button-response","10","86112","0.0-6.0-1.0-1.0","76A6A31DA16F423A8B9D9D63791511B2","76A6A31DA16F423A8B9D9D63791511B2","22ba9779-030f-4a3e-bde2-a74a5d82ebdc","9076ac92-be42-43a2-9634-8b67c7fe93a7","{""num_scrambled_semantic"":""8"",""num_scrambled_causal"":""4"",""num_scrambled_schematic"":""4"",""participantId"":""76A6A31DA16F423A8B9D9D63791511B2"",""assignmentId"":""22ba9779-030f-4a3e-bde2-a74a5d82ebdc"",""projectId"":""9076ac92-be42-43a2-9634-8b67c7fe93a7""}","https://test12345.live/?num_scrambled_semantic=8&num_scrambled_causal=4&num_scrambled_schematic=4&participantId=76A6A31DA16F423A8B9D9D63791511B2&assignmentId=22ba9779-030f-4a3e-bde2-a74a5d82ebdc&projectId=9076ac92-be42-43a2-9634-8b67c7fe93a7","76A6A31DA16F423A8B9D9D63791511B2-2025-05-22-19-53-49","","3032","","images/instructions/movie_1.png","0","",""
"","","","","","image-button-response","11","87919","0.0-6.0-1.0-2.0","76A6A31DA16F423A8B9D9D63791511B2","76A6A31DA16F423A8B9D9D63791511B2","22ba9779-030f-4a3e-bde2-a74a5d82ebdc","9076ac92-be42-43a2-9634-8b67c7fe93a7","{""num_scrambled_semantic"":""8"",""num_scrambled_causal"":""4"",""num_scrambled_schematic"":""4"",""participantId"":""76A6A31DA16F423A8B9D9D63791511B2"",""assignmentId"":""22ba9779-030f-4a3e-bde2-a74a5d82ebdc"",""projectId"":""9076ac92-be42-43a2-9634-8b67c7fe93a7""}","https://test12345.live/?num_scrambled_semantic=8&num_scrambled_causal=4&num_scrambled_schematic=4&participantId=76A6A31DA16F423A8B9D9D63791511B2&assignmentId=22ba9779-030f-4a3e-bde2-a74a5d82ebdc&projectId=9076ac92-be42-43a2-9634-8b67c7fe93a7","76A6A31DA16F423A8B9D9D63791511B2-2025-05-22-19-53-49","","null","","[]","null","",""
"","","","","","image-button-response","12","92426","0.0-6.0-1.0-0.1","76A6A31DA16F423A8B9D9D63791511B2","76A6A31DA16F423A8B9D9D63791511B2","22ba9779-030f-4a3e-bde2-a74a5d82ebdc","9076ac92-be42-43a2-9634-8b67c7fe93a7","{""num_scrambled_semantic"":""8"",""num_scrambled_causal"":""4"",""num_scrambled_schematic"":""4"",""participantId"":""76A6A31DA16F423A8B9D9D63791511B2"",""assignmentId"":""22ba9779-030f-4a3e-bde2-a74a5d82ebdc"",""projectId"":""9076ac92-be42-43a2-9634-8b67c7fe93a7""}","https://test12345.live/?num_scrambled_semantic=8&num_scrambled_causal=4&num_scrambled_schematic=4&participantId=76A6A31DA16F423A8B9D9D63791511B2&assignmentId=22ba9779-030f-4a3e-bde2-a74a5d82ebdc&projectId=9076ac92-be42-43a2-9634-8b67c7fe93a7","76A6A31DA16F423A8B9D9D63791511B2-2025-05-22-19-53-49","","null","","images/instructions/movie_2.png","null","",""
"","","","","","image-button-response","13","93246","0.0-6.0-1.0-1.1","76A6A31DA16F423A8B9D9D63791511B2","76A6A31DA16F423A8B9D9D63791511B2","22ba9779-030f-4a3e-bde2-a74a5d82ebdc","9076ac92-be42-43a2-9634-8b67c7fe93a7","{""num_scrambled_semantic"":""8"",""num_scrambled_causal"":""4"",""num_scrambled_schematic"":""4"",""participantId"":""76A6A31DA16F423A8B9D9D63791511B2"",""assignmentId"":""22ba9779-030f-4a3e-bde2-a74a5d82ebdc"",""projectId"":""9076ac92-be42-43a2-9634-8b67c7fe93a7""}","https://test12345.live/?num_scrambled_semantic=8&num_scrambled_causal=4&num_scrambled_schematic=4&participantId=76A6A31DA16F423A8B9D9D63791511B2&assignmentId=22ba9779-030f-4a3e-bde2-a74a5d82ebdc&projectId=9076ac92-be42-43a2-9634-8b67c7fe93a7","76A6A31DA16F423A8B9D9D63791511B2-2025-05-22-19-53-49","","818","","images/instructions/movie_2.png","0","",""
"","","","","","image-button-response","14","95053","0.0-6.0-1.0-2.1","76A6A31DA16F423A8B9D9D63791511B2","76A6A31DA16F423A8B9D9D63791511B2","22ba9779-030f-4a3e-bde2-a74a5d82ebdc","9076ac92-be42-43a2-9634-8b67c7fe93a7","{""num_scrambled_semantic"":""8"",""num_scrambled_causal"":""4"",""num_scrambled_schematic"":""4"",""participantId"":""76A6A31DA16F423A8B9D9D63791511B2"",""assignmentId"":""22ba9779-030f-4a3e-bde2-a74a5d82ebdc"",""projectId"":""9076ac92-be42-43a2-9634-8b67c7fe93a7""}","https://test12345.live/?num_scrambled_semantic=8&num_scrambled_causal=4&num_scrambled_schematic=4&participantId=76A6A31DA16F423A8B9D9D63791511B2&assignmentId=22ba9779-030f-4a3e-bde2-a74a5d82ebdc&projectId=9076ac92-be42-43a2-9634-8b67c7fe93a7","76A6A31DA16F423A8B9D9D63791511B2-2025-05-22-19-53-49","","null","","[]","null","",""
"","","","","","image-button-response","15","99557","0.0-6.0-1.0-0.2","76A6A31DA16F423A8B9D9D63791511B2","76A6A31DA16F423A8B9D9D63791511B2","22ba9779-030f-4a3e-bde2-a74a5d82ebdc","9076ac92-be42-43a2-9634-8b67c7fe93a7","{""num_scrambled_semantic"":""8"",""num_scrambled_causal"":""4"",""num_scrambled_schematic"":""4"",""participantId"":""76A6A31DA16F423A8B9D9D63791511B2"",""assignmentId"":""22ba9779-030f-4a3e-bde2-a74a5d82ebdc"",""projectId"":""9076ac92-be42-43a2-9634-8b67c7fe93a7""}","https://test12345.live/?num_scrambled_semantic=8&num_scrambled_causal=4&num_scrambled_schematic=4&participantId=76A6A31DA16F423A8B9D9D63791511B2&assignmentId=22ba9779-030f-4a3e-bde2-a74a5d82ebdc&projectId=9076ac92-be42-43a2-9634-8b67c7fe93a7","76A6A31DA16F423A8B9D9D63791511B2-2025-05-22-19-53-49","","null","","images/instructions/movie_3.png","null","",""
"","","","","","image-button-response","16","100912","0.0-6.0-1.0-1.2","76A6A31DA16F423A8B9D9D63791511B2","76A6A31DA16F423A8B9D9D63791511B2","22ba9779-030f-4a3e-bde2-a74a5d82ebdc","9076ac92-be42-43a2-9634-8b67c7fe93a7","{""num_scrambled_semantic"":""8"",""num_scrambled_causal"":""4"",""num_scrambled_schematic"":""4"",""participantId"":""76A6A31DA16F423A8B9D9D63791511B2"",""assignmentId"":""22ba9779-030f-4a3e-bde2-a74a5d82ebdc"",""projectId"":""9076ac92-be42-43a2-9634-8b67c7fe93a7""}","https://test12345.live/?num_scrambled_semantic=8&num_scrambled_causal=4&num_scrambled_schematic=4&participantId=76A6A31DA16F423A8B9D9D63791511B2&assignmentId=22ba9779-030f-4a3e-bde2-a74a5d82ebdc&projectId=9076ac92-be42-43a2-9634-8b67c7fe93a7","76A6A31DA16F423A8B9D9D63791511B2-2025-05-22-19-53-49","","1353","","images/instructions/movie_3.png","0","",""
"","","","","","image-button-response","17","102716","0.0-6.0-1.0-2.2","76A6A31DA16F423A8B9D9D63791511B2","76A6A31DA16F423A8B9D9D63791511B2","22ba9779-030f-4a3e-bde2-a74a5d82ebdc","9076ac92-be42-43a2-9634-8b67c7fe93a7","{""num_scrambled_semantic"":""8"",""num_scrambled_causal"":""4"",""num_scrambled_schematic"":""4"",""participantId"":""76A6A31DA16F423A8B9D9D63791511B2"",""assignmentId"":""22ba9779-030f-4a3e-bde2-a74a5d82ebdc"",""projectId"":""9076ac92-be42-43a2-9634-8b67c7fe93a7""}","https://test12345.live/?num_scrambled_semantic=8&num_scrambled_causal=4&num_scrambled_schematic=4&participantId=76A6A31DA16F423A8B9D9D63791511B2&assignmentId=22ba9779-030f-4a3e-bde2-a74a5d82ebdc&projectId=9076ac92-be42-43a2-9634-8b67c7fe93a7","76A6A31DA16F423A8B9D9D63791511B2-2025-05-22-19-53-49","","null","","[]","null","",""
"","","","","","image-button-response","18","107221","0.0-6.0-1.0-0.3","76A6A31DA16F423A8B9D9D63791511B2","76A6A31DA16F423A8B9D9D63791511B2","22ba9779-030f-4a3e-bde2-a74a5d82ebdc","9076ac92-be42-43a2-9634-8b67c7fe93a7","{""num_scrambled_semantic"":""8"",""num_scrambled_causal"":""4"",""num_scrambled_schematic"":""4"",""participantId"":""76A6A31DA16F423A8B9D9D63791511B2"",""assignmentId"":""22ba9779-030f-4a3e-bde2-a74a5d82ebdc"",""projectId"":""9076ac92-be42-43a2-9634-8b67c7fe93a7""}","https://test12345.live/?num_scrambled_semantic=8&num_scrambled_causal=4&num_scrambled_schematic=4&participantId=76A6A31DA16F423A8B9D9D63791511B2&assignmentId=22ba9779-030f-4a3e-bde2-a74a5d82ebdc&projectId=9076ac92-be42-43a2-9634-8b67c7fe93a7","76A6A31DA16F423A8B9D9D63791511B2-2025-05-22-19-53-49","","null","","images/instructions/movie_4.png","null","",""
"","","","","","image-button-response","19","107848","0.0-6.0-1.0-1.3","76A6A31DA16F423A8B9D9D63791511B2","76A6A31DA16F423A8B9D9D63791511B2","22ba9779-030f-4a3e-bde2-a74a5d82ebdc","9076ac92-be42-43a2-9634-8b67c7fe93a7","{""num_scrambled_semantic"":""8"",""num_scrambled_causal"":""4"",""num_scrambled_schematic"":""4"",""participantId"":""76A6A31DA16F423A8B9D9D63791511B2"",""assignmentId"":""22ba9779-030f-4a3e-bde2-a74a5d82ebdc"",""projectId"":""9076ac92-be42-43a2-9634-8b67c7fe93a7""}","https://test12345.live/?num_scrambled_semantic=8&num_scrambled_causal=4&num_scrambled_schematic=4&participantId=76A6A31DA16F423A8B9D9D63791511B2&assignmentId=22ba9779-030f-4a3e-bde2-a74a5d82ebdc&projectId=9076ac92-be42-43a2-9634-8b67c7fe93a7","76A6A31DA16F423A8B9D9D63791511B2-2025-05-22-19-53-49","","625","","images/instructions/movie_4.png","0","",""
"","","","","","image-button-response","20","109652","0.0-6.0-1.0-2.3","76A6A31DA16F423A8B9D9D63791511B2","76A6A31DA16F423A8B9D9D63791511B2","22ba9779-030f-4a3e-bde2-a74a5d82ebdc","9076ac92-be42-43a2-9634-8b67c7fe93a7","{""num_scrambled_semantic"":""8"",""num_scrambled_causal"":""4"",""num_scrambled_schematic"":""4"",""participantId"":""76A6A31DA16F423A8B9D9D63791511B2"",""assignmentId"":""22ba9779-030f-4a3e-bde2-a74a5d82ebdc"",""projectId"":""9076ac92-be42-43a2-9634-8b67c7fe93a7""}","https://test12345.live/?num_scrambled_semantic=8&num_scrambled_causal=4&num_scrambled_schematic=4&participantId=76A6A31DA16F423A8B9D9D63791511B2&assignmentId=22ba9779-030f-4a3e-bde2-a74a5d82ebdc&projectId=9076ac92-be42-43a2-9634-8b67c7fe93a7","76A6A31DA16F423A8B9D9D63791511B2-2025-05-22-19-53-49","","null","","[]","null","",""
"","","","","","instructions","21","125465","0.0-7.0","76A6A31DA16F423A8B9D9D63791511B2","76A6A31DA16F423A8B9D9D63791511B2","22ba9779-030f-4a3e-bde2-a74a5d82ebdc","9076ac92-be42-43a2-9634-8b67c7fe93a7","{""num_scrambled_semantic"":""8"",""num_scrambled_causal"":""4"",""num_scrambled_schematic"":""4"",""participantId"":""76A6A31DA16F423A8B9D9D63791511B2"",""assignmentId"":""22ba9779-030f-4a3e-bde2-a74a5d82ebdc"",""projectId"":""9076ac92-be42-43a2-9634-8b67c7fe93a7""}","https://test12345.live/?num_scrambled_semantic=8&num_scrambled_causal=4&num_scrambled_schematic=4&participantId=76A6A31DA16F423A8B9D9D63791511B2&assignmentId=22ba9779-030f-4a3e-bde2-a74a5d82ebdc&projectId=9076ac92-be42-43a2-9634-8b67c7fe93a7","76A6A31DA16F423A8B9D9D63791511B2-2025-05-22-19-53-49","[{""page_index"":0,""viewing_time"":14760},{""page_index"":1,""viewing_time"":1052}]","15812","","","","",""
"","","","","","html-audio-response","22","163035","0.0-8.0","76A6A31DA16F423A8B9D9D63791511B2","76A6A31DA16F423A8B9D9D63791511B2","22ba9779-030f-4a3e-bde2-a74a5d82ebdc","9076ac92-be42-43a2-9634-8b67c7fe93a7","{""num_scrambled_semantic"":""8"",""num_scrambled_causal"":""4"",""num_scrambled_schematic"":""4"",""participantId"":""76A6A31DA16F423A8B9D9D63791511B2"",""assignmentId"":""22ba9779-030f-4a3e-bde2-a74a5d82ebdc"",""projectId"":""9076ac92-be42-43a2-9634-8b67c7fe93a7""}","https://test12345.live/?num_scrambled_semantic=8&num_scrambled_causal=4&num_scrambled_schematic=4&participantId=76A6A31DA16F423A8B9D9D63791511B2&assignmentId=22ba9779-030f-4a3e-bde2-a74a5d82ebdc&projectId=9076ac92-be42-43a2-9634-8b67c7fe93a7","76A6A31DA16F423A8B9D9D63791511B2-2025-05-22-19-53-49","","15087","","[""<span style=\""color: red; font-size: 24px\""> NOW RECORDING</span><p>Please say out loud all the images you saw in the exact order you saw them. Try to recall as many images as you can, but remember: getting the order right is more important than the number of images you recall.</p>""]","","2",""
"","","","","","instructions","23","171816","0.0-9.0","76A6A31DA16F423A8B9D9D63791511B2","76A6A31DA16F423A8B9D9D63791511B2","22ba9779-030f-4a3e-bde2-a74a5d82ebdc","9076ac92-be42-43a2-9634-8b67c7fe93a7","{""num_scrambled_semantic"":""8"",""num_scrambled_causal"":""4"",""num_scrambled_schematic"":""4"",""participantId"":""76A6A31DA16F423A8B9D9D63791511B2"",""assignmentId"":""22ba9779-030f-4a3e-bde2-a74a5d82ebdc"",""projectId"":""9076ac92-be42-43a2-9634-8b67c7fe93a7""}","https://test12345.live/?num_scrambled_semantic=8&num_scrambled_causal=4&num_scrambled_schematic=4&participantId=76A6A31DA16F423A8B9D9D63791511B2&assignmentId=22ba9779-030f-4a3e-bde2-a74a5d82ebdc&projectId=9076ac92-be42-43a2-9634-8b67c7fe93a7","76A6A31DA16F423A8B9D9D63791511B2-2025-05-22-19-53-49","[{""page_index"":0,""viewing_time"":8778}]","8778","","","","",""
"","","","","","image-button-response","24","177818","0.0-10.0-0.0","76A6A31DA16F423A8B9D9D63791511B2","76A6A31DA16F423A8B9D9D63791511B2","22ba9779-030f-4a3e-bde2-a74a5d82ebdc","9076ac92-be42-43a2-9634-8b67c7fe93a7","{""num_scrambled_semantic"":""8"",""num_scrambled_causal"":""4"",""num_scrambled_schematic"":""4"",""participantId"":""76A6A31DA16F423A8B9D9D63791511B2"",""assignmentId"":""22ba9779-030f-4a3e-bde2-a74a5d82ebdc"",""projectId"":""9076ac92-be42-43a2-9634-8b67c7fe93a7""}","https://test12345.live/?num_scrambled_semantic=8&num_scrambled_causal=4&num_scrambled_schematic=4&participantId=76A6A31DA16F423A8B9D9D63791511B2&assignmentId=22ba9779-030f-4a3e-bde2-a74a5d82ebdc&projectId=9076ac92-be42-43a2-9634-8b67c7fe93a7","76A6A31DA16F423A8B9D9D63791511B2-2025-05-22-19-53-49","","null","","images/schematic_sequence/hotel_scheme/hotel_scheme_0.png","null","",""
"","","","","","image-button-response","25","182324","0.0-10.0-1.0-0.0","76A6A31DA16F423A8B9D9D63791511B2","76A6A31DA16F423A8B9D9D63791511B2","22ba9779-030f-4a3e-bde2-a74a5d82ebdc","9076ac92-be42-43a2-9634-8b67c7fe93a7","{""num_scrambled_semantic"":""8"",""num_scrambled_causal"":""4"",""num_scrambled_schematic"":""4"",""participantId"":""76A6A31DA16F423A8B9D9D63791511B2"",""assignmentId"":""22ba9779-030f-4a3e-bde2-a74a5d82ebdc"",""projectId"":""9076ac92-be42-43a2-9634-8b67c7fe93a7""}","https://test12345.live/?num_scrambled_semantic=8&num_scrambled_causal=4&num_scrambled_schematic=4&participantId=76A6A31DA16F423A8B9D9D63791511B2&assignmentId=22ba9779-030f-4a3e-bde2-a74a5d82ebdc&projectId=9076ac92-be42-43a2-9634-8b67c7fe93a7","76A6A31DA16F423A8B9D9D63791511B2-2025-05-22-19-53-49","","null","","images/schematic_sequence/hotel_scheme/hotel_scheme_1.png","null","",""
"","","","","","image-button-response","26","184830","0.0-10.0-1.0-1.0","76A6A31DA16F423A8B9D9D63791511B2","76A6A31DA16F423A8B9D9D63791511B2","22ba9779-030f-4a3e-bde2-a74a5d82ebdc","9076ac92-be42-43a2-9634-8b67c7fe93a7","{""num_scrambled_semantic"":""8"",""num_scrambled_causal"":""4"",""num_scrambled_schematic"":""4"",""participantId"":""76A6A31DA16F423A8B9D9D63791511B2"",""assignmentId"":""22ba9779-030f-4a3e-bde2-a74a5d82ebdc"",""projectId"":""9076ac92-be42-43a2-9634-8b67c7fe93a7""}","https://test12345.live/?num_scrambled_semantic=8&num_scrambled_causal=4&num_scrambled_schematic=4&participantId=76A6A31DA16F423A8B9D9D63791511B2&assignmentId=22ba9779-030f-4a3e-bde2-a74a5d82ebdc&projectId=9076ac92-be42-43a2-9634-8b67c7fe93a7","76A6A31DA16F423A8B9D9D63791511B2-2025-05-22-19-53-49","","2504","","images/schematic_sequence/hotel_scheme/hotel_scheme_1.png","1","",""
"","","","","","image-button-response","27","186637","0.0-10.0-1.0-2.0","76A6A31DA16F423A8B9D9D63791511B2","76A6A31DA16F423A8B9D9D63791511B2","22ba9779-030f-4a3e-bde2-a74a5d82ebdc","9076ac92-be42-43a2-9634-8b67c7fe93a7","{""num_scrambled_semantic"":""8"",""num_scrambled_causal"":""4"",""num_scrambled_schematic"":""4"",""participantId"":""76A6A31DA16F423A8B9D9D63791511B2"",""assignmentId"":""22ba9779-030f-4a3e-bde2-a74a5d82ebdc"",""projectId"":""9076ac92-be42-43a2-9634-8b67c7fe93a7""}","https://test12345.live/?num_scrambled_semantic=8&num_scrambled_causal=4&num_scrambled_schematic=4&participantId=76A6A31DA16F423A8B9D9D63791511B2&assignmentId=22ba9779-030f-4a3e-bde2-a74a5d82ebdc&projectId=9076ac92-be42-43a2-9634-8b67c7fe93a7","76A6A31DA16F423A8B9D9D63791511B2-2025-05-22-19-53-49","","null","","[]","null","",""
"","","","","","image-button-response","28","191142","0.0-10.0-1.0-0.1","76A6A31DA16F423A8B9D9D63791511B2","76A6A31DA16F423A8B9D9D63791511B2","22ba9779-030f-4a3e-bde2-a74a5d82ebdc","9076ac92-be42-43a2-9634-8b67c7fe93a7","{""num_scrambled_semantic"":""8"",""num_scrambled_causal"":""4"",""num_scrambled_schematic"":""4"",""participantId"":""76A6A31DA16F423A8B9D9D63791511B2"",""assignmentId"":""22ba9779-030f-4a3e-bde2-a74a5d82ebdc"",""projectId"":""9076ac92-be42-43a2-9634-8b67c7fe93a7""}","https://test12345.live/?num_scrambled_semantic=8&num_scrambled_causal=4&num_scrambled_schematic=4&participantId=76A6A31DA16F423A8B9D9D63791511B2&assignmentId=22ba9779-030f-4a3e-bde2-a74a5d82ebdc&projectId=9076ac92-be42-43a2-9634-8b67c7fe93a7","76A6A31DA16F423A8B9D9D63791511B2-2025-05-22-19-53-49","","null","","images/schematic_sequence/hotel_scheme/hotel_scheme_2.png","null","",""
"","","","","","image-button-response","29","191931","0.0-10.0-1.0-1.1","76A6A31DA16F423A8B9D9D63791511B2","76A6A31DA16F423A8B9D9D63791511B2","22ba9779-030f-4a3e-bde2-a74a5d82ebdc","9076ac92-be42-43a2-9634-8b67c7fe93a7","{""num_scrambled_semantic"":""8"",""num_scrambled_causal"":""4"",""num_scrambled_schematic"":""4"",""participantId"":""76A6A31DA16F423A8B9D9D63791511B2"",""assignmentId"":""22ba9779-030f-4a3e-bde2-a74a5d82ebdc"",""projectId"":""9076ac92-be42-43a2-9634-8b67c7fe93a7""}","https://test12345.live/?num_scrambled_semantic=8&num_scrambled_causal=4&num_scrambled_schematic=4&participantId=76A6A31DA16F423A8B9D9D63791511B2&assignmentId=22ba9779-030f-4a3e-bde2-a74a5d82ebdc&projectId=9076ac92-be42-43a2-9634-8b67c7fe93a7","76A6A31DA16F423A8B9D9D63791511B2-2025-05-22-19-53-49","","787","","images/schematic_sequence/hotel_scheme/hotel_scheme_2.png","0","",""
"","","","","","image-button-response","30","193737","0.0-10.0-1.0-2.1","76A6A31DA16F423A8B9D9D63791511B2","76A6A31DA16F423A8B9D9D63791511B2","22ba9779-030f-4a3e-bde2-a74a5d82ebdc","9076ac92-be42-43a2-9634-8b67c7fe93a7","{""num_scrambled_semantic"":""8"",""num_scrambled_causal"":""4"",""num_scrambled_schematic"":""4"",""participantId"":""76A6A31DA16F423A8B9D9D63791511B2"",""assignmentId"":""22ba9779-030f-4a3e-bde2-a74a5d82ebdc"",""projectId"":""9076ac92-be42-43a2-9634-8b67c7fe93a7""}","https://test12345.live/?num_scrambled_semantic=8&num_scrambled_causal=4&num_scrambled_schematic=4&participantId=76A6A31DA16F423A8B9D9D63791511B2&assignmentId=22ba9779-030f-4a3e-bde2-a74a5d82ebdc&projectId=9076ac92-be42-43a2-9634-8b67c7fe93a7","76A6A31DA16F423A8B9D9D63791511B2-2025-05-22-19-53-49","","null","","[]","null","",""
"","","","","","image-button-response","31","198243","0.0-10.0-1.0-0.2","76A6A31DA16F423A8B9D9D63791511B2","76A6A31DA16F423A8B9D9D63791511B2","22ba9779-030f-4a3e-bde2-a74a5d82ebdc","9076ac92-be42-43a2-9634-8b67c7fe93a7","{""num_scrambled_semantic"":""8"",""num_scrambled_causal"":""4"",""num_scrambled_schematic"":""4"",""participantId"":""76A6A31DA16F423A8B9D9D63791511B2"",""assignmentId"":""22ba9779-030f-4a3e-bde2-a74a5d82ebdc"",""projectId"":""9076ac92-be42-43a2-9634-8b67c7fe93a7""}","https://test12345.live/?num_scrambled_semantic=8&num_scrambled_causal=4&num_scrambled_schematic=4&participantId=76A6A31DA16F423A8B9D9D63791511B2&assignmentId=22ba9779-030f-4a3e-bde2-a74a5d82ebdc&projectId=9076ac92-be42-43a2-9634-8b67c7fe93a7","76A6A31DA16F423A8B9D9D63791511B2-2025-05-22-19-53-49","","null","","images/schematic_sequence/hotel_scheme/hotel_scheme_3.png","null","",""
"","","","","","image-button-response","32","199415","0.0-10.0-1.0-1.2","76A6A31DA16F423A8B9D9D63791511B2","76A6A31DA16F423A8B9D9D63791511B2","22ba9779-030f-4a3e-bde2-a74a5d82ebdc","9076ac92-be42-43a2-9634-8b67c7fe93a7","{""num_scrambled_semantic"":""8"",""num_scrambled_causal"":""4"",""num_scrambled_schematic"":""4"",""participantId"":""76A6A31DA16F423A8B9D9D63791511B2"",""assignmentId"":""22ba9779-030f-4a3e-bde2-a74a5d82ebdc"",""projectId"":""9076ac92-be42-43a2-9634-8b67c7fe93a7""}","https://test12345.live/?num_scrambled_semantic=8&num_scrambled_causal=4&num_scrambled_schematic=4&participantId=76A6A31DA16F423A8B9D9D63791511B2&assignmentId=22ba9779-030f-4a3e-bde2-a74a5d82ebdc&projectId=9076ac92-be42-43a2-9634-8b67c7fe93a7","76A6A31DA16F423A8B9D9D63791511B2-2025-05-22-19-53-49","","1171","","images/schematic_sequence/hotel_scheme/hotel_scheme_3.png","0","",""
"","","","","","image-button-response","33","201218","0.0-10.0-1.0-2.2","76A6A31DA16F423A8B9D9D63791511B2","76A6A31DA16F423A8B9D9D63791511B2","22ba9779-030f-4a3e-bde2-a74a5d82ebdc","9076ac92-be42-43a2-9634-8b67c7fe93a7","{""num_scrambled_semantic"":""8"",""num_scrambled_causal"":""4"",""num_scrambled_schematic"":""4"",""participantId"":""76A6A31DA16F423A8B9D9D63791511B2"",""assignmentId"":""22ba9779-030f-4a3e-bde2-a74a5d82ebdc"",""projectId"":""9076ac92-be42-43a2-9634-8b67c7fe93a7""}","https://test12345.live/?num_scrambled_semantic=8&num_scrambled_causal=4&num_scrambled_schematic=4&participantId=76A6A31DA16F423A8B9D9D63791511B2&assignmentId=22ba9779-030f-4a3e-bde2-a74a5d82ebdc&projectId=9076ac92-be42-43a2-9634-8b67c7fe93a7","76A6A31DA16F423A8B9D9D63791511B2-2025-05-22-19-53-49","","null","","[]","null","",""
"","","","","","image-button-response","34","205720","0.0-10.0-1.0-0.3","76A6A31DA16F423A8B9D9D63791511B2","76A6A31DA16F423A8B9D9D63791511B2","22ba9779-030f-4a3e-bde2-a74a5d82ebdc","9076ac92-be42-43a2-9634-8b67c7fe93a7","{""num_scrambled_semantic"":""8"",""num_scrambled_causal"":""4"",""num_scrambled_schematic"":""4"",""participantId"":""76A6A31DA16F423A8B9D9D63791511B2"",""assignmentId"":""22ba9779-030f-4a3e-bde2-a74a5d82ebdc"",""projectId"":""9076ac92-be42-43a2-9634-8b67c7fe93a7""}","https://test12345.live/?num_scrambled_semantic=8&num_scrambled_causal=4&num_scrambled_schematic=4&participantId=76A6A31DA16F423A8B9D9D63791511B2&assignmentId=22ba9779-030f-4a3e-bde2-a74a5d82ebdc&projectId=9076ac92-be42-43a2-9634-8b67c7fe93a7","76A6A31DA16F423A8B9D9D63791511B2-2025-05-22-19-53-49","","null","","images/schematic_sequence/hotel_scheme/hotel_scheme_4.png","null","",""
"","","","","","image-button-response","35","206430","0.0-10.0-1.0-1.3","76A6A31DA16F423A8B9D9D63791511B2","76A6A31DA16F423A8B9D9D63791511B2","22ba9779-030f-4a3e-bde2-a74a5d82ebdc","9076ac92-be42-43a2-9634-8b67c7fe93a7","{""num_scrambled_semantic"":""8"",""num_scrambled_causal"":""4"",""num_scrambled_schematic"":""4"",""participantId"":""76A6A31DA16F423A8B9D9D63791511B2"",""assignmentId"":""22ba9779-030f-4a3e-bde2-a74a5d82ebdc"",""projectId"":""9076ac92-be42-43a2-9634-8b67c7fe93a7""}","https://test12345.live/?num_scrambled_semantic=8&num_scrambled_causal=4&num_scrambled_schematic=4&participantId=76A6A31DA16F423A8B9D9D63791511B2&assignmentId=22ba9779-030f-4a3e-bde2-a74a5d82ebdc&projectId=9076ac92-be42-43a2-9634-8b67c7fe93a7","76A6A31DA16F423A8B9D9D63791511B2-2025-05-22-19-53-49","","708","","images/schematic_sequence/hotel_scheme/hotel_scheme_4.png","1","",""
"","","","","","image-button-response","36","208236","0.0-10.0-1.0-2.3","76A6A31DA16F423A8B9D9D63791511B2","76A6A31DA16F423A8B9D9D63791511B2","22ba9779-030f-4a3e-bde2-a74a5d82ebdc","9076ac92-be42-43a2-9634-8b67c7fe93a7","{""num_scrambled_semantic"":""8"",""num_scrambled_causal"":""4"",""num_scrambled_schematic"":""4"",""participantId"":""76A6A31DA16F423A8B9D9D63791511B2"",""assignmentId"":""22ba9779-030f-4a3e-bde2-a74a5d82ebdc"",""projectId"":""9076ac92-be42-43a2-9634-8b67c7fe93a7""}","https://test12345.live/?num_scrambled_semantic=8&num_scrambled_causal=4&num_scrambled_schematic=4&participantId=76A6A31DA16F423A8B9D9D63791511B2&assignmentId=22ba9779-030f-4a3e-bde2-a74a5d82ebdc&projectId=9076ac92-be42-43a2-9634-8b67c7fe93a7","76A6A31DA16F423A8B9D9D63791511B2-2025-05-22-19-53-49","","null","","[]","null","",""
"","","","","","image-button-response","37","212740","0.0-10.0-1.0-0.4","76A6A31DA16F423A8B9D9D63791511B2","76A6A31DA16F423A8B9D9D63791511B2","22ba9779-030f-4a3e-bde2-a74a5d82ebdc","9076ac92-be42-43a2-9634-8b67c7fe93a7","{""num_scrambled_semantic"":""8"",""num_scrambled_causal"":""4"",""num_scrambled_schematic"":""4"",""participantId"":""76A6A31DA16F423A8B9D9D63791511B2"",""assignmentId"":""22ba9779-030f-4a3e-bde2-a74a5d82ebdc"",""projectId"":""9076ac92-be42-43a2-9634-8b67c7fe93a7""}","https://test12345.live/?num_scrambled_semantic=8&num_scrambled_causal=4&num_scrambled_schematic=4&participantId=76A6A31DA16F423A8B9D9D63791511B2&assignmentId=22ba9779-030f-4a3e-bde2-a74a5d82ebdc&projectId=9076ac92-be42-43a2-9634-8b67c7fe93a7","76A6A31DA16F423A8B9D9D63791511B2-2025-05-22-19-53-49","","null","","images/schematic_sequence/hotel_scheme/hotel_scheme_5.png","null","",""
"","","","","","image-button-response","38","214029","0.0-10.0-1.0-1.4","76A6A31DA16F423A8B9D9D63791511B2","76A6A31DA16F423A8B9D9D63791511B2","22ba9779-030f-4a3e-bde2-a74a5d82ebdc","9076ac92-be42-43a2-9634-8b67c7fe93a7","{""num_scrambled_semantic"":""8"",""num_scrambled_causal"":""4"",""num_scrambled_schematic"":""4"",""participantId"":""76A6A31DA16F423A8B9D9D63791511B2"",""assignmentId"":""22ba9779-030f-4a3e-bde2-a74a5d82ebdc"",""projectId"":""9076ac92-be42-43a2-9634-8b67c7fe93a7""}","https://test12345.live/?num_scrambled_semantic=8&num_scrambled_causal=4&num_scrambled_schematic=4&participantId=76A6A31DA16F423A8B9D9D63791511B2&assignmentId=22ba9779-030f-4a3e-bde2-a74a5d82ebdc&projectId=9076ac92-be42-43a2-9634-8b67c7fe93a7","76A6A31DA16F423A8B9D9D63791511B2-2025-05-22-19-53-49","","1287","","images/schematic_sequence/hotel_scheme/hotel_scheme_5.png","0","",""
"","","","","","image-button-response","39","215836","0.0-10.0-1.0-2.4","76A6A31DA16F423A8B9D9D63791511B2","76A6A31DA16F423A8B9D9D63791511B2","22ba9779-030f-4a3e-bde2-a74a5d82ebdc","9076ac92-be42-43a2-9634-8b67c7fe93a7","{""num_scrambled_semantic"":""8"",""num_scrambled_causal"":""4"",""num_scrambled_schematic"":""4"",""participantId"":""76A6A31DA16F423A8B9D9D63791511B2"",""assignmentId"":""22ba9779-030f-4a3e-bde2-a74a5d82ebdc"",""projectId"":""9076ac92-be42-43a2-9634-8b67c7fe93a7""}","https://test12345.live/?num_scrambled_semantic=8&num_scrambled_causal=4&num_scrambled_schematic=4&participantId=76A6A31DA16F423A8B9D9D63791511B2&assignmentId=22ba9779-030f-4a3e-bde2-a74a5d82ebdc&projectId=9076ac92-be42-43a2-9634-8b67c7fe93a7","76A6A31DA16F423A8B9D9D63791511B2-2025-05-22-19-53-49","","null","","[]","null","",""
"","","","","","image-button-response","40","220338","0.0-10.0-1.0-0.5","76A6A31DA16F423A8B9D9D63791511B2","76A6A31DA16F423A8B9D9D63791511B2","22ba9779-030f-4a3e-bde2-a74a5d82ebdc","9076ac92-be42-43a2-9634-8b67c7fe93a7","{""num_scrambled_semantic"":""8"",""num_scrambled_causal"":""4"",""num_scrambled_schematic"":""4"",""participantId"":""76A6A31DA16F423A8B9D9D63791511B2"",""assignmentId"":""22ba9779-030f-4a3e-bde2-a74a5d82ebdc"",""projectId"":""9076ac92-be42-43a2-9634-8b67c7fe93a7""}","https://test12345.live/?num_scrambled_semantic=8&num_scrambled_causal=4&num_scrambled_schematic=4&participantId=76A6A31DA16F423A8B9D9D63791511B2&assignmentId=22ba9779-030f-4a3e-bde2-a74a5d82ebdc&projectId=9076ac92-be42-43a2-9634-8b67c7fe93a7","76A6A31DA16F423A8B9D9D63791511B2-2025-05-22-19-53-49","","null","","images/schematic_sequence/hotel_scheme/hotel_scheme_6.png","null","",""
"","","","","","image-button-response","41","220834","0.0-10.0-1.0-1.5","76A6A31DA16F423A8B9D9D63791511B2","76A6A31DA16F423A8B9D9D63791511B2","22ba9779-030f-4a3e-bde2-a74a5d82ebdc","9076ac92-be42-43a2-9634-8b67c7fe93a7","{""num_scrambled_semantic"":""8"",""num_scrambled_causal"":""4"",""num_scrambled_schematic"":""4"",""participantId"":""76A6A31DA16F423A8B9D9D63791511B2"",""assignmentId"":""22ba9779-030f-4a3e-bde2-a74a5d82ebdc"",""projectId"":""9076ac92-be42-43a2-9634-8b67c7fe93a7""}","https://test12345.live/?num_scrambled_semantic=8&num_scrambled_causal=4&num_scrambled_schematic=4&participantId=76A6A31DA16F423A8B9D9D63791511B2&assignmentId=22ba9779-030f-4a3e-bde2-a74a5d82ebdc&projectId=9076ac92-be42-43a2-9634-8b67c7fe93a7","76A6A31DA16F423A8B9D9D63791511B2-2025-05-22-19-53-49","","494","","images/schematic_sequence/hotel_scheme/hotel_scheme_6.png","0","",""
"","","","","","image-button-response","42","222636","0.0-10.0-1.0-2.5","76A6A31DA16F423A8B9D9D63791511B2","76A6A31DA16F423A8B9D9D63791511B2","22ba9779-030f-4a3e-bde2-a74a5d82ebdc","9076ac92-be42-43a2-9634-8b67c7fe93a7","{""num_scrambled_semantic"":""8"",""num_scrambled_causal"":""4"",""num_scrambled_schematic"":""4"",""participantId"":""76A6A31DA16F423A8B9D9D63791511B2"",""assignmentId"":""22ba9779-030f-4a3e-bde2-a74a5d82ebdc"",""projectId"":""9076ac92-be42-43a2-9634-8b67c7fe93a7""}","https://test12345.live/?num_scrambled_semantic=8&num_scrambled_causal=4&num_scrambled_schematic=4&participantId=76A6A31DA16F423A8B9D9D63791511B2&assignmentId=22ba9779-030f-4a3e-bde2-a74a5d82ebdc&projectId=9076ac92-be42-43a2-9634-8b67c7fe93a7","76A6A31DA16F423A8B9D9D63791511B2-2025-05-22-19-53-49","","null","","[]","null","",""
"","","","","","image-button-response","43","227142","0.0-10.0-1.0-0.6","76A6A31DA16F423A8B9D9D63791511B2","76A6A31DA16F423A8B9D9D63791511B2","22ba9779-030f-4a3e-bde2-a74a5d82ebdc","9076ac92-be42-43a2-9634-8b67c7fe93a7","{""num_scrambled_semantic"":""8"",""num_scrambled_causal"":""4"",""num_scrambled_schematic"":""4"",""participantId"":""76A6A31DA16F423A8B9D9D63791511B2"",""assignmentId"":""22ba9779-030f-4a3e-bde2-a74a5d82ebdc"",""projectId"":""9076ac92-be42-43a2-9634-8b67c7fe93a7""}","https://test12345.live/?num_scrambled_semantic=8&num_scrambled_causal=4&num_scrambled_schematic=4&participantId=76A6A31DA16F423A8B9D9D63791511B2&assignmentId=22ba9779-030f-4a3e-bde2-a74a5d82ebdc&projectId=9076ac92-be42-43a2-9634-8b67c7fe93a7","76A6A31DA16F423A8B9D9D63791511B2-2025-05-22-19-53-49","","null","","images/schematic_sequence/hotel_scheme/hotel_scheme_7.png","null","",""
"","","","","","image-button-response","44","227696","0.0-10.0-1.0-1.6","76A6A31DA16F423A8B9D9D63791511B2","76A6A31DA16F423A8B9D9D63791511B2","22ba9779-030f-4a3e-bde2-a74a5d82ebdc","9076ac92-be42-43a2-9634-8b67c7fe93a7","{""num_scrambled_semantic"":""8"",""num_scrambled_causal"":""4"",""num_scrambled_schematic"":""4"",""participantId"":""76A6A31DA16F423A8B9D9D63791511B2"",""assignmentId"":""22ba9779-030f-4a3e-bde2-a74a5d82ebdc"",""projectId"":""9076ac92-be42-43a2-9634-8b67c7fe93a7""}","https://test12345.live/?num_scrambled_semantic=8&num_scrambled_causal=4&num_scrambled_schematic=4&participantId=76A6A31DA16F423A8B9D9D63791511B2&assignmentId=22ba9779-030f-4a3e-bde2-a74a5d82ebdc&projectId=9076ac92-be42-43a2-9634-8b67c7fe93a7","76A6A31DA16F423A8B9D9D63791511B2-2025-05-22-19-53-49","","552","","images/schematic_sequence/hotel_scheme/hotel_scheme_7.png","0","",""
"","","","","","image-button-response","45","229500","0.0-10.0-1.0-2.6","76A6A31DA16F423A8B9D9D63791511B2","76A6A31DA16F423A8B9D9D63791511B2","22ba9779-030f-4a3e-bde2-a74a5d82ebdc","9076ac92-be42-43a2-9634-8b67c7fe93a7","{""num_scrambled_semantic"":""8"",""num_scrambled_causal"":""4"",""num_scrambled_schematic"":""4"",""participantId"":""76A6A31DA16F423A8B9D9D63791511B2"",""assignmentId"":""22ba9779-030f-4a3e-bde2-a74a5d82ebdc"",""projectId"":""9076ac92-be42-43a2-9634-8b67c7fe93a7""}","https://test12345.live/?num_scrambled_semantic=8&num_scrambled_causal=4&num_scrambled_schematic=4&participantId=76A6A31DA16F423A8B9D9D63791511B2&assignmentId=22ba9779-030f-4a3e-bde2-a74a5d82ebdc&projectId=9076ac92-be42-43a2-9634-8b67c7fe93a7","76A6A31DA16F423A8B9D9D63791511B2-2025-05-22-19-53-49","","null","","[]","null","",""
"","","","","","image-button-response","46","234006","0.0-10.0-1.0-0.7","76A6A31DA16F423A8B9D9D63791511B2","76A6A31DA16F423A8B9D9D63791511B2","22ba9779-030f-4a3e-bde2-a74a5d82ebdc","9076ac92-be42-43a2-9634-8b67c7fe93a7","{""num_scrambled_semantic"":""8"",""num_scrambled_causal"":""4"",""num_scrambled_schematic"":""4"",""participantId"":""76A6A31DA16F423A8B9D9D63791511B2"",""assignmentId"":""22ba9779-030f-4a3e-bde2-a74a5d82ebdc"",""projectId"":""9076ac92-be42-43a2-9634-8b67c7fe93a7""}","https://test12345.live/?num_scrambled_semantic=8&num_scrambled_causal=4&num_scrambled_schematic=4&participantId=76A6A31DA16F423A8B9D9D63791511B2&assignmentId=22ba9779-030f-4a3e-bde2-a74a5d82ebdc&projectId=9076ac92-be42-43a2-9634-8b67c7fe93a7","76A6A31DA16F423A8B9D9D63791511B2-2025-05-22-19-53-49","","null","","images/schematic_sequence/hotel_scheme/hotel_scheme_8.png","null","",""
"","","","","","image-button-response","47","234400","0.0-10.0-1.0-1.7","76A6A31DA16F423A8B9D9D63791511B2","76A6A31DA16F423A8B9D9D63791511B2","22ba9779-030f-4a3e-bde2-a74a5d82ebdc","9076ac92-be42-43a2-9634-8b67c7fe93a7","{""num_scrambled_semantic"":""8"",""num_scrambled_causal"":""4"",""num_scrambled_schematic"":""4"",""participantId"":""76A6A31DA16F423A8B9D9D63791511B2"",""assignmentId"":""22ba9779-030f-4a3e-bde2-a74a5d82ebdc"",""projectId"":""9076ac92-be42-43a2-9634-8b67c7fe93a7""}","https://test12345.live/?num_scrambled_semantic=8&num_scrambled_causal=4&num_scrambled_schematic=4&participantId=76A6A31DA16F423A8B9D9D63791511B2&assignmentId=22ba9779-030f-4a3e-bde2-a74a5d82ebdc&projectId=9076ac92-be42-43a2-9634-8b67c7fe93a7","76A6A31DA16F423A8B9D9D63791511B2-2025-05-22-19-53-49","","392","","images/schematic_sequence/hotel_scheme/hotel_scheme_8.png","0","",""
"","","","","","image-button-response","48","236202","0.0-10.0-1.0-2.7","76A6A31DA16F423A8B9D9D63791511B2","76A6A31DA16F423A8B9D9D63791511B2","22ba9779-030f-4a3e-bde2-a74a5d82ebdc","9076ac92-be42-43a2-9634-8b67c7fe93a7","{""num_scrambled_semantic"":""8"",""num_scrambled_causal"":""4"",""num_scrambled_schematic"":""4"",""participantId"":""76A6A31DA16F423A8B9D9D63791511B2"",""assignmentId"":""22ba9779-030f-4a3e-bde2-a74a5d82ebdc"",""projectId"":""9076ac92-be42-43a2-9634-8b67c7fe93a7""}","https://test12345.live/?num_scrambled_semantic=8&num_scrambled_causal=4&num_scrambled_schematic=4&participantId=76A6A31DA16F423A8B9D9D63791511B2&assignmentId=22ba9779-030f-4a3e-bde2-a74a5d82ebdc&projectId=9076ac92-be42-43a2-9634-8b67c7fe93a7","76A6A31DA16F423A8B9D9D63791511B2-2025-05-22-19-53-49","","null","","[]","null","",""
"","","","","","image-button-response","49","240708","0.0-10.0-1.0-0.8","76A6A31DA16F423A8B9D9D63791511B2","76A6A31DA16F423A8B9D9D63791511B2","22ba9779-030f-4a3e-bde2-a74a5d82ebdc","9076ac92-be42-43a2-9634-8b67c7fe93a7","{""num_scrambled_semantic"":""8"",""num_scrambled_causal"":""4"",""num_scrambled_schematic"":""4"",""participantId"":""76A6A31DA16F423A8B9D9D63791511B2"",""assignmentId"":""22ba9779-030f-4a3e-bde2-a74a5d82ebdc"",""projectId"":""9076ac92-be42-43a2-9634-8b67c7fe93a7""}","https://test12345.live/?num_scrambled_semantic=8&num_scrambled_causal=4&num_scrambled_schematic=4&participantId=76A6A31DA16F423A8B9D9D63791511B2&assignmentId=22ba9779-030f-4a3e-bde2-a74a5d82ebdc&projectId=9076ac92-be42-43a2-9634-8b67c7fe93a7","76A6A31DA16F423A8B9D9D63791511B2-2025-05-22-19-53-49","","null","","images/schematic_sequence/hotel_scheme/hotel_scheme_9.png","null","",""
"","","","","","image-button-response","50","242297","0.0-10.0-1.0-1.8","76A6A31DA16F423A8B9D9D63791511B2","76A6A31DA16F423A8B9D9D63791511B2","22ba9779-030f-4a3e-bde2-a74a5d82ebdc","9076ac92-be42-43a2-9634-8b67c7fe93a7","{""num_scrambled_semantic"":""8"",""num_scrambled_causal"":""4"",""num_scrambled_schematic"":""4"",""participantId"":""76A6A31DA16F423A8B9D9D63791511B2"",""assignmentId"":""22ba9779-030f-4a3e-bde2-a74a5d82ebdc"",""projectId"":""9076ac92-be42-43a2-9634-8b67c7fe93a7""}","https://test12345.live/?num_scrambled_semantic=8&num_scrambled_causal=4&num_scrambled_schematic=4&participantId=76A6A31DA16F423A8B9D9D63791511B2&assignmentId=22ba9779-030f-4a3e-bde2-a74a5d82ebdc&projectId=9076ac92-be42-43a2-9634-8b67c7fe93a7","76A6A31DA16F423A8B9D9D63791511B2-2025-05-22-19-53-49","","1588","","images/schematic_sequence/hotel_scheme/hotel_scheme_9.png","0","",""
"","","","","","image-button-response","51","244103","0.0-10.0-1.0-2.8","76A6A31DA16F423A8B9D9D63791511B2","76A6A31DA16F423A8B9D9D63791511B2","22ba9779-030f-4a3e-bde2-a74a5d82ebdc","9076ac92-be42-43a2-9634-8b67c7fe93a7","{""num_scrambled_semantic"":""8"",""num_scrambled_causal"":""4"",""num_scrambled_schematic"":""4"",""participantId"":""76A6A31DA16F423A8B9D9D63791511B2"",""assignmentId"":""22ba9779-030f-4a3e-bde2-a74a5d82ebdc"",""projectId"":""9076ac92-be42-43a2-9634-8b67c7fe93a7""}","https://test12345.live/?num_scrambled_semantic=8&num_scrambled_causal=4&num_scrambled_schematic=4&participantId=76A6A31DA16F423A8B9D9D63791511B2&assignmentId=22ba9779-030f-4a3e-bde2-a74a5d82ebdc&projectId=9076ac92-be42-43a2-9634-8b67c7fe93a7","76A6A31DA16F423A8B9D9D63791511B2-2025-05-22-19-53-49","","null","","[]","null","",""
"","","","","","image-button-response","52","248610","0.0-10.0-1.0-0.9","76A6A31DA16F423A8B9D9D63791511B2","76A6A31DA16F423A8B9D9D63791511B2","22ba9779-030f-4a3e-bde2-a74a5d82ebdc","9076ac92-be42-43a2-9634-8b67c7fe93a7","{""num_scrambled_semantic"":""8"",""num_scrambled_causal"":""4"",""num_scrambled_schematic"":""4"",""participantId"":""76A6A31DA16F423A8B9D9D63791511B2"",""assignmentId"":""22ba9779-030f-4a3e-bde2-a74a5d82ebdc"",""projectId"":""9076ac92-be42-43a2-9634-8b67c7fe93a7""}","https://test12345.live/?num_scrambled_semantic=8&num_scrambled_causal=4&num_scrambled_schematic=4&participantId=76A6A31DA16F423A8B9D9D63791511B2&assignmentId=22ba9779-030f-4a3e-bde2-a74a5d82ebdc&projectId=9076ac92-be42-43a2-9634-8b67c7fe93a7","76A6A31DA16F423A8B9D9D63791511B2-2025-05-22-19-53-49","","null","","images/schematic_sequence/hotel_scheme/hotel_scheme_ten.png","null","",""
"","","","","","image-button-response","53","250481","0.0-10.0-1.0-1.9","76A6A31DA16F423A8B9D9D63791511B2","76A6A31DA16F423A8B9D9D63791511B2","22ba9779-030f-4a3e-bde2-a74a5d82ebdc","9076ac92-be42-43a2-9634-8b67c7fe93a7","{""num_scrambled_semantic"":""8"",""num_scrambled_causal"":""4"",""num_scrambled_schematic"":""4"",""participantId"":""76A6A31DA16F423A8B9D9D63791511B2"",""assignmentId"":""22ba9779-030f-4a3e-bde2-a74a5d82ebdc"",""projectId"":""9076ac92-be42-43a2-9634-8b67c7fe93a7""}","https://test12345.live/?num_scrambled_semantic=8&num_scrambled_causal=4&num_scrambled_schematic=4&participantId=76A6A31DA16F423A8B9D9D63791511B2&assignmentId=22ba9779-030f-4a3e-bde2-a74a5d82ebdc&projectId=9076ac92-be42-43a2-9634-8b67c7fe93a7","76A6A31DA16F423A8B9D9D63791511B2-2025-05-22-19-53-49","","1869","","images/schematic_sequence/hotel_scheme/hotel_scheme_ten.png","0","",""
"","","","","","image-button-response","54","252287","0.0-10.0-1.0-2.9","76A6A31DA16F423A8B9D9D63791511B2","76A6A31DA16F423A8B9D9D63791511B2","22ba9779-030f-4a3e-bde2-a74a5d82ebdc","9076ac92-be42-43a2-9634-8b67c7fe93a7","{""num_scrambled_semantic"":""8"",""num_scrambled_causal"":""4"",""num_scrambled_schematic"":""4"",""participantId"":""76A6A31DA16F423A8B9D9D63791511B2"",""assignmentId"":""22ba9779-030f-4a3e-bde2-a74a5d82ebdc"",""projectId"":""9076ac92-be42-43a2-9634-8b67c7fe93a7""}","https://test12345.live/?num_scrambled_semantic=8&num_scrambled_causal=4&num_scrambled_schematic=4&participantId=76A6A31DA16F423A8B9D9D63791511B2&assignmentId=22ba9779-030f-4a3e-bde2-a74a5d82ebdc&projectId=9076ac92-be42-43a2-9634-8b67c7fe93a7","76A6A31DA16F423A8B9D9D63791511B2-2025-05-22-19-53-49","","null","","[]","null","",""
"","","","","","html-audio-response","55","293213","0.0-11.0","76A6A31DA16F423A8B9D9D63791511B2","76A6A31DA16F423A8B9D9D63791511B2","22ba9779-030f-4a3e-bde2-a74a5d82ebdc","9076ac92-be42-43a2-9634-8b67c7fe93a7","{""num_scrambled_semantic"":""8"",""num_scrambled_causal"":""4"",""num_scrambled_schematic"":""4"",""participantId"":""76A6A31DA16F423A8B9D9D63791511B2"",""assignmentId"":""22ba9779-030f-4a3e-bde2-a74a5d82ebdc"",""projectId"":""9076ac92-be42-43a2-9634-8b67c7fe93a7""}","https://test12345.live/?num_scrambled_semantic=8&num_scrambled_causal=4&num_scrambled_schematic=4&participantId=76A6A31DA16F423A8B9D9D63791511B2&assignmentId=22ba9779-030f-4a3e-bde2-a74a5d82ebdc&projectId=9076ac92-be42-43a2-9634-8b67c7fe93a7","76A6A31DA16F423A8B9D9D63791511B2-2025-05-22-19-53-49","","18037","","[""<span style=\""color: red; font-size: 24px\""> NOW RECORDING</span><p>Please say out loud all the images you saw, in the exact order you saw them. Try to recall as many images as you can, but remember: getting the order right is more important than the number of images you recall.</p>""]","","2","hotel_scheme"
"","","","","","image-button-response","56","299223","0.0-12.0-0.0","76A6A31DA16F423A8B9D9D63791511B2","76A6A31DA16F423A8B9D9D63791511B2","22ba9779-030f-4a3e-bde2-a74a5d82ebdc","9076ac92-be42-43a2-9634-8b67c7fe93a7","{""num_scrambled_semantic"":""8"",""num_scrambled_causal"":""4"",""num_scrambled_schematic"":""4"",""participantId"":""76A6A31DA16F423A8B9D9D63791511B2"",""assignmentId"":""22ba9779-030f-4a3e-bde2-a74a5d82ebdc"",""projectId"":""9076ac92-be42-43a2-9634-8b67c7fe93a7""}","https://test12345.live/?num_scrambled_semantic=8&num_scrambled_causal=4&num_scrambled_schematic=4&participantId=76A6A31DA16F423A8B9D9D63791511B2&assignmentId=22ba9779-030f-4a3e-bde2-a74a5d82ebdc&projectId=9076ac92-be42-43a2-9634-8b67c7fe93a7","76A6A31DA16F423A8B9D9D63791511B2-2025-05-22-19-53-49","","null","","images/semantic_sequence/market_semantic/market_semantic_0.png","null","",""
"","","","","","image-button-response","57","303727","0.0-12.0-1.0-0.0","76A6A31DA16F423A8B9D9D63791511B2","76A6A31DA16F423A8B9D9D63791511B2","22ba9779-030f-4a3e-bde2-a74a5d82ebdc","9076ac92-be42-43a2-9634-8b67c7fe93a7","{""num_scrambled_semantic"":""8"",""num_scrambled_causal"":""4"",""num_scrambled_schematic"":""4"",""participantId"":""76A6A31DA16F423A8B9D9D63791511B2"",""assignmentId"":""22ba9779-030f-4a3e-bde2-a74a5d82ebdc"",""projectId"":""9076ac92-be42-43a2-9634-8b67c7fe93a7""}","https://test12345.live/?num_scrambled_semantic=8&num_scrambled_causal=4&num_scrambled_schematic=4&participantId=76A6A31DA16F423A8B9D9D63791511B2&assignmentId=22ba9779-030f-4a3e-bde2-a74a5d82ebdc&projectId=9076ac92-be42-43a2-9634-8b67c7fe93a7","76A6A31DA16F423A8B9D9D63791511B2-2025-05-22-19-53-49","","null","","images/semantic_sequence/market_semantic/market_semantic_6.png","null","",""
"","","","","","image-button-response","58","306931","0.0-12.0-1.0-1.0","76A6A31DA16F423A8B9D9D63791511B2","76A6A31DA16F423A8B9D9D63791511B2","22ba9779-030f-4a3e-bde2-a74a5d82ebdc","9076ac92-be42-43a2-9634-8b67c7fe93a7","{""num_scrambled_semantic"":""8"",""num_scrambled_causal"":""4"",""num_scrambled_schematic"":""4"",""participantId"":""76A6A31DA16F423A8B9D9D63791511B2"",""assignmentId"":""22ba9779-030f-4a3e-bde2-a74a5d82ebdc"",""projectId"":""9076ac92-be42-43a2-9634-8b67c7fe93a7""}","https://test12345.live/?num_scrambled_semantic=8&num_scrambled_causal=4&num_scrambled_schematic=4&participantId=76A6A31DA16F423A8B9D9D63791511B2&assignmentId=22ba9779-030f-4a3e-bde2-a74a5d82ebdc&projectId=9076ac92-be42-43a2-9634-8b67c7fe93a7","76A6A31DA16F423A8B9D9D63791511B2-2025-05-22-19-53-49","","3203","","images/semantic_sequence/market_semantic/market_semantic_6.png","1","",""
"","","","","","image-button-response","59","308735","0.0-12.0-1.0-2.0","76A6A31DA16F423A8B9D9D63791511B2","76A6A31DA16F423A8B9D9D63791511B2","22ba9779-030f-4a3e-bde2-a74a5d82ebdc","9076ac92-be42-43a2-9634-8b67c7fe93a7","{""num_scrambled_semantic"":""8"",""num_scrambled_causal"":""4"",""num_scrambled_schematic"":""4"",""participantId"":""76A6A31DA16F423A8B9D9D63791511B2"",""assignmentId"":""22ba9779-030f-4a3e-bde2-a74a5d82ebdc"",""projectId"":""9076ac92-be42-43a2-9634-8b67c7fe93a7""}","https://test12345.live/?num_scrambled_semantic=8&num_scrambled_causal=4&num_scrambled_schematic=4&participantId=76A6A31DA16F423A8B9D9D63791511B2&assignmentId=22ba9779-030f-4a3e-bde2-a74a5d82ebdc&projectId=9076ac92-be42-43a2-9634-8b67c7fe93a7","76A6A31DA16F423A8B9D9D63791511B2-2025-05-22-19-53-49","","null","","[]","null","",""
"","","","","","image-button-response","60","313242","0.0-12.0-1.0-0.1","76A6A31DA16F423A8B9D9D63791511B2","76A6A31DA16F423A8B9D9D63791511B2","22ba9779-030f-4a3e-bde2-a74a5d82ebdc","9076ac92-be42-43a2-9634-8b67c7fe93a7","{""num_scrambled_semantic"":""8"",""num_scrambled_causal"":""4"",""num_scrambled_schematic"":""4"",""participantId"":""76A6A31DA16F423A8B9D9D63791511B2"",""assignmentId"":""22ba9779-030f-4a3e-bde2-a74a5d82ebdc"",""projectId"":""9076ac92-be42-43a2-9634-8b67c7fe93a7""}","https://test12345.live/?num_scrambled_semantic=8&num_scrambled_causal=4&num_scrambled_schematic=4&participantId=76A6A31DA16F423A8B9D9D63791511B2&assignmentId=22ba9779-030f-4a3e-bde2-a74a5d82ebdc&projectId=9076ac92-be42-43a2-9634-8b67c7fe93a7","76A6A31DA16F423A8B9D9D63791511B2-2025-05-22-19-53-49","","null","","images/semantic_sequence/market_semantic/market_semantic_4.png","null","",""
"","","","","","image-button-response","61","314549","0.0-12.0-1.0-1.1","76A6A31DA16F423A8B9D9D63791511B2","76A6A31DA16F423A8B9D9D63791511B2","22ba9779-030f-4a3e-bde2-a74a5d82ebdc","9076ac92-be42-43a2-9634-8b67c7fe93a7","{""num_scrambled_semantic"":""8"",""num_scrambled_causal"":""4"",""num_scrambled_schematic"":""4"",""participantId"":""76A6A31DA16F423A8B9D9D63791511B2"",""assignmentId"":""22ba9779-030f-4a3e-bde2-a74a5d82ebdc"",""projectId"":""9076ac92-be42-43a2-9634-8b67c7fe93a7""}","https://test12345.live/?num_scrambled_semantic=8&num_scrambled_causal=4&num_scrambled_schematic=4&participantId=76A6A31DA16F423A8B9D9D63791511B2&assignmentId=22ba9779-030f-4a3e-bde2-a74a5d82ebdc&projectId=9076ac92-be42-43a2-9634-8b67c7fe93a7","76A6A31DA16F423A8B9D9D63791511B2-2025-05-22-19-53-49","","1305","","images/semantic_sequence/market_semantic/market_semantic_4.png","0","",""
"","","","","","image-button-response","62","316353","0.0-12.0-1.0-2.1","76A6A31DA16F423A8B9D9D63791511B2","76A6A31DA16F423A8B9D9D63791511B2","22ba9779-030f-4a3e-bde2-a74a5d82ebdc","9076ac92-be42-43a2-9634-8b67c7fe93a7","{""num_scrambled_semantic"":""8"",""num_scrambled_causal"":""4"",""num_scrambled_schematic"":""4"",""participantId"":""76A6A31DA16F423A8B9D9D63791511B2"",""assignmentId"":""22ba9779-030f-4a3e-bde2-a74a5d82ebdc"",""projectId"":""9076ac92-be42-43a2-9634-8b67c7fe93a7""}","https://test12345.live/?num_scrambled_semantic=8&num_scrambled_causal=4&num_scrambled_schematic=4&participantId=76A6A31DA16F423A8B9D9D63791511B2&assignmentId=22ba9779-030f-4a3e-bde2-a74a5d82ebdc&projectId=9076ac92-be42-43a2-9634-8b67c7fe93a7","76A6A31DA16F423A8B9D9D63791511B2-2025-05-22-19-53-49","","null","","[]","null","",""
"","","","","","image-button-response","63","320858","0.0-12.0-1.0-0.2","76A6A31DA16F423A8B9D9D63791511B2","76A6A31DA16F423A8B9D9D63791511B2","22ba9779-030f-4a3e-bde2-a74a5d82ebdc","9076ac92-be42-43a2-9634-8b67c7fe93a7","{""num_scrambled_semantic"":""8"",""num_scrambled_causal"":""4"",""num_scrambled_schematic"":""4"",""participantId"":""76A6A31DA16F423A8B9D9D63791511B2"",""assignmentId"":""22ba9779-030f-4a3e-bde2-a74a5d82ebdc"",""projectId"":""9076ac92-be42-43a2-9634-8b67c7fe93a7""}","https://test12345.live/?num_scrambled_semantic=8&num_scrambled_causal=4&num_scrambled_schematic=4&participantId=76A6A31DA16F423A8B9D9D63791511B2&assignmentId=22ba9779-030f-4a3e-bde2-a74a5d82ebdc&projectId=9076ac92-be42-43a2-9634-8b67c7fe93a7","76A6A31DA16F423A8B9D9D63791511B2-2025-05-22-19-53-49","","null","","images/semantic_sequence/market_semantic/market_semantic_1.png","null","",""
"","","","","","image-button-response","64","321515","0.0-12.0-1.0-1.2","76A6A31DA16F423A8B9D9D63791511B2","76A6A31DA16F423A8B9D9D63791511B2","22ba9779-030f-4a3e-bde2-a74a5d82ebdc","9076ac92-be42-43a2-9634-8b67c7fe93a7","{""num_scrambled_semantic"":""8"",""num_scrambled_causal"":""4"",""num_scrambled_schematic"":""4"",""participantId"":""76A6A31DA16F423A8B9D9D63791511B2"",""assignmentId"":""22ba9779-030f-4a3e-bde2-a74a5d82ebdc"",""projectId"":""9076ac92-be42-43a2-9634-8b67c7fe93a7""}","https://test12345.live/?num_scrambled_semantic=8&num_scrambled_causal=4&num_scrambled_schematic=4&participantId=76A6A31DA16F423A8B9D9D63791511B2&assignmentId=22ba9779-030f-4a3e-bde2-a74a5d82ebdc&projectId=9076ac92-be42-43a2-9634-8b67c7fe93a7","76A6A31DA16F423A8B9D9D63791511B2-2025-05-22-19-53-49","","655","","images/semantic_sequence/market_semantic/market_semantic_1.png","1","",""
"","","","","","image-button-response","65","323321","0.0-12.0-1.0-2.2","76A6A31DA16F423A8B9D9D63791511B2","76A6A31DA16F423A8B9D9D63791511B2","22ba9779-030f-4a3e-bde2-a74a5d82ebdc","9076ac92-be42-43a2-9634-8b67c7fe93a7","{""num_scrambled_semantic"":""8"",""num_scrambled_causal"":""4"",""num_scrambled_schematic"":""4"",""participantId"":""76A6A31DA16F423A8B9D9D63791511B2"",""assignmentId"":""22ba9779-030f-4a3e-bde2-a74a5d82ebdc"",""projectId"":""9076ac92-be42-43a2-9634-8b67c7fe93a7""}","https://test12345.live/?num_scrambled_semantic=8&num_scrambled_causal=4&num_scrambled_schematic=4&participantId=76A6A31DA16F423A8B9D9D63791511B2&assignmentId=22ba9779-030f-4a3e-bde2-a74a5d82ebdc&projectId=9076ac92-be42-43a2-9634-8b67c7fe93a7","76A6A31DA16F423A8B9D9D63791511B2-2025-05-22-19-53-49","","null","","[]","null","",""
"","","","","","image-button-response","66","327828","0.0-12.0-1.0-0.3","76A6A31DA16F423A8B9D9D63791511B2","76A6A31DA16F423A8B9D9D63791511B2","22ba9779-030f-4a3e-bde2-a74a5d82ebdc","9076ac92-be42-43a2-9634-8b67c7fe93a7","{""num_scrambled_semantic"":""8"",""num_scrambled_causal"":""4"",""num_scrambled_schematic"":""4"",""participantId"":""76A6A31DA16F423A8B9D9D63791511B2"",""assignmentId"":""22ba9779-030f-4a3e-bde2-a74a5d82ebdc"",""projectId"":""9076ac92-be42-43a2-9634-8b67c7fe93a7""}","https://test12345.live/?num_scrambled_semantic=8&num_scrambled_causal=4&num_scrambled_schematic=4&participantId=76A6A31DA16F423A8B9D9D63791511B2&assignmentId=22ba9779-030f-4a3e-bde2-a74a5d82ebdc&projectId=9076ac92-be42-43a2-9634-8b67c7fe93a7","76A6A31DA16F423A8B9D9D63791511B2-2025-05-22-19-53-49","","null","","images/semantic_sequence/market_semantic/market_semantic_9.png","null","",""
"","","","","","image-button-response","67","328713","0.0-12.0-1.0-1.3","76A6A31DA16F423A8B9D9D63791511B2","76A6A31DA16F423A8B9D9D63791511B2","22ba9779-030f-4a3e-bde2-a74a5d82ebdc","9076ac92-be42-43a2-9634-8b67c7fe93a7","{""num_scrambled_semantic"":""8"",""num_scrambled_causal"":""4"",""num_scrambled_schematic"":""4"",""participantId"":""76A6A31DA16F423A8B9D9D63791511B2"",""assignmentId"":""22ba9779-030f-4a3e-bde2-a74a5d82ebdc"",""projectId"":""9076ac92-be42-43a2-9634-8b67c7fe93a7""}","https://test12345.live/?num_scrambled_semantic=8&num_scrambled_causal=4&num_scrambled_schematic=4&participantId=76A6A31DA16F423A8B9D9D63791511B2&assignmentId=22ba9779-030f-4a3e-bde2-a74a5d82ebdc&projectId=9076ac92-be42-43a2-9634-8b67c7fe93a7","76A6A31DA16F423A8B9D9D63791511B2-2025-05-22-19-53-49","","884","","images/semantic_sequence/market_semantic/market_semantic_9.png","0","",""
"","","","","","image-button-response","68","330519","0.0-12.0-1.0-2.3","76A6A31DA16F423A8B9D9D63791511B2","76A6A31DA16F423A8B9D9D63791511B2","22ba9779-030f-4a3e-bde2-a74a5d82ebdc","9076ac92-be42-43a2-9634-8b67c7fe93a7","{""num_scrambled_semantic"":""8"",""num_scrambled_causal"":""4"",""num_scrambled_schematic"":""4"",""participantId"":""76A6A31DA16F423A8B9D9D63791511B2"",""assignmentId"":""22ba9779-030f-4a3e-bde2-a74a5d82ebdc"",""projectId"":""9076ac92-be42-43a2-9634-8b67c7fe93a7""}","https://test12345.live/?num_scrambled_semantic=8&num_scrambled_causal=4&num_scrambled_schematic=4&participantId=76A6A31DA16F423A8B9D9D63791511B2&assignmentId=22ba9779-030f-4a3e-bde2-a74a5d82ebdc&projectId=9076ac92-be42-43a2-9634-8b67c7fe93a7","76A6A31DA16F423A8B9D9D63791511B2-2025-05-22-19-53-49","","null","","[]","null","",""
"","","","","","image-button-response","69","335025","0.0-12.0-1.0-0.4","76A6A31DA16F423A8B9D9D63791511B2","76A6A31DA16F423A8B9D9D63791511B2","22ba9779-030f-4a3e-bde2-a74a5d82ebdc","9076ac92-be42-43a2-9634-8b67c7fe93a7","{""num_scrambled_semantic"":""8"",""num_scrambled_causal"":""4"",""num_scrambled_schematic"":""4"",""participantId"":""76A6A31DA16F423A8B9D9D63791511B2"",""assignmentId"":""22ba9779-030f-4a3e-bde2-a74a5d82ebdc"",""projectId"":""9076ac92-be42-43a2-9634-8b67c7fe93a7""}","https://test12345.live/?num_scrambled_semantic=8&num_scrambled_causal=4&num_scrambled_schematic=4&participantId=76A6A31DA16F423A8B9D9D63791511B2&assignmentId=22ba9779-030f-4a3e-bde2-a74a5d82ebdc&projectId=9076ac92-be42-43a2-9634-8b67c7fe93a7","76A6A31DA16F423A8B9D9D63791511B2-2025-05-22-19-53-49","","null","","images/semantic_sequence/market_semantic/market_semantic_2.png","null","",""
"","","","","","image-button-response","70","335667","0.0-12.0-1.0-1.4","76A6A31DA16F423A8B9D9D63791511B2","76A6A31DA16F423A8B9D9D63791511B2","22ba9779-030f-4a3e-bde2-a74a5d82ebdc","9076ac92-be42-43a2-9634-8b67c7fe93a7","{""num_scrambled_semantic"":""8"",""num_scrambled_causal"":""4"",""num_scrambled_schematic"":""4"",""participantId"":""76A6A31DA16F423A8B9D9D63791511B2"",""assignmentId"":""22ba9779-030f-4a3e-bde2-a74a5d82ebdc"",""projectId"":""9076ac92-be42-43a2-9634-8b67c7fe93a7""}","https://test12345.live/?num_scrambled_semantic=8&num_scrambled_causal=4&num_scrambled_schematic=4&participantId=76A6A31DA16F423A8B9D9D63791511B2&assignmentId=22ba9779-030f-4a3e-bde2-a74a5d82ebdc&projectId=9076ac92-be42-43a2-9634-8b67c7fe93a7","76A6A31DA16F423A8B9D9D63791511B2-2025-05-22-19-53-49","","640","","images/semantic_sequence/market_semantic/market_semantic_2.png","1","",""
"","","","","","image-button-response","71","337473","0.0-12.0-1.0-2.4","76A6A31DA16F423A8B9D9D63791511B2","76A6A31DA16F423A8B9D9D63791511B2","22ba9779-030f-4a3e-bde2-a74a5d82ebdc","9076ac92-be42-43a2-9634-8b67c7fe93a7","{""num_scrambled_semantic"":""8"",""num_scrambled_causal"":""4"",""num_scrambled_schematic"":""4"",""participantId"":""76A6A31DA16F423A8B9D9D63791511B2"",""assignmentId"":""22ba9779-030f-4a3e-bde2-a74a5d82ebdc"",""projectId"":""9076ac92-be42-43a2-9634-8b67c7fe93a7""}","https://test12345.live/?num_scrambled_semantic=8&num_scrambled_causal=4&num_scrambled_schematic=4&participantId=76A6A31DA16F423A8B9D9D63791511B2&assignmentId=22ba9779-030f-4a3e-bde2-a74a5d82ebdc&projectId=9076ac92-be42-43a2-9634-8b67c7fe93a7","76A6A31DA16F423A8B9D9D63791511B2-2025-05-22-19-53-49","","null","","[]","null","",""
"","","","","","image-button-response","72","341980","0.0-12.0-1.0-0.5","76A6A31DA16F423A8B9D9D63791511B2","76A6A31DA16F423A8B9D9D63791511B2","22ba9779-030f-4a3e-bde2-a74a5d82ebdc","9076ac92-be42-43a2-9634-8b67c7fe93a7","{""num_scrambled_semantic"":""8"",""num_scrambled_causal"":""4"",""num_scrambled_schematic"":""4"",""participantId"":""76A6A31DA16F423A8B9D9D63791511B2"",""assignmentId"":""22ba9779-030f-4a3e-bde2-a74a5d82ebdc"",""projectId"":""9076ac92-be42-43a2-9634-8b67c7fe93a7""}","https://test12345.live/?num_scrambled_semantic=8&num_scrambled_causal=4&num_scrambled_schematic=4&participantId=76A6A31DA16F423A8B9D9D63791511B2&assignmentId=22ba9779-030f-4a3e-bde2-a74a5d82ebdc&projectId=9076ac92-be42-43a2-9634-8b67c7fe93a7","76A6A31DA16F423A8B9D9D63791511B2-2025-05-22-19-53-49","","null","","images/semantic_sequence/market_semantic/market_semantic_3.png","null","",""
"","","","","","image-button-response","73","342401","0.0-12.0-1.0-1.5","76A6A31DA16F423A8B9D9D63791511B2","76A6A31DA16F423A8B9D9D63791511B2","22ba9779-030f-4a3e-bde2-a74a5d82ebdc","9076ac92-be42-43a2-9634-8b67c7fe93a7","{""num_scrambled_semantic"":""8"",""num_scrambled_causal"":""4"",""num_scrambled_schematic"":""4"",""participantId"":""76A6A31DA16F423A8B9D9D63791511B2"",""assignmentId"":""22ba9779-030f-4a3e-bde2-a74a5d82ebdc"",""projectId"":""9076ac92-be42-43a2-9634-8b67c7fe93a7""}","https://test12345.live/?num_scrambled_semantic=8&num_scrambled_causal=4&num_scrambled_schematic=4&participantId=76A6A31DA16F423A8B9D9D63791511B2&assignmentId=22ba9779-030f-4a3e-bde2-a74a5d82ebdc&projectId=9076ac92-be42-43a2-9634-8b67c7fe93a7","76A6A31DA16F423A8B9D9D63791511B2-2025-05-22-19-53-49","","419","","images/semantic_sequence/market_semantic/market_semantic_3.png","1","",""
"","","","","","image-button-response","74","344207","0.0-12.0-1.0-2.5","76A6A31DA16F423A8B9D9D63791511B2","76A6A31DA16F423A8B9D9D63791511B2","22ba9779-030f-4a3e-bde2-a74a5d82ebdc","9076ac92-be42-43a2-9634-8b67c7fe93a7","{""num_scrambled_semantic"":""8"",""num_scrambled_causal"":""4"",""num_scrambled_schematic"":""4"",""participantId"":""76A6A31DA16F423A8B9D9D63791511B2"",""assignmentId"":""22ba9779-030f-4a3e-bde2-a74a5d82ebdc"",""projectId"":""9076ac92-be42-43a2-9634-8b67c7fe93a7""}","https://test12345.live/?num_scrambled_semantic=8&num_scrambled_causal=4&num_scrambled_schematic=4&participantId=76A6A31DA16F423A8B9D9D63791511B2&assignmentId=22ba9779-030f-4a3e-bde2-a74a5d82ebdc&projectId=9076ac92-be42-43a2-9634-8b67c7fe93a7","76A6A31DA16F423A8B9D9D63791511B2-2025-05-22-19-53-49","","null","","[]","null","",""
"","","","","","image-button-response","75","348714","0.0-12.0-1.0-0.6","76A6A31DA16F423A8B9D9D63791511B2","76A6A31DA16F423A8B9D9D63791511B2","22ba9779-030f-4a3e-bde2-a74a5d82ebdc","9076ac92-be42-43a2-9634-8b67c7fe93a7","{""num_scrambled_semantic"":""8"",""num_scrambled_causal"":""4"",""num_scrambled_schematic"":""4"",""participantId"":""76A6A31DA16F423A8B9D9D63791511B2"",""assignmentId"":""22ba9779-030f-4a3e-bde2-a74a5d82ebdc"",""projectId"":""9076ac92-be42-43a2-9634-8b67c7fe93a7""}","https://test12345.live/?num_scrambled_semantic=8&num_scrambled_causal=4&num_scrambled_schematic=4&participantId=76A6A31DA16F423A8B9D9D63791511B2&assignmentId=22ba9779-030f-4a3e-bde2-a74a5d82ebdc&projectId=9076ac92-be42-43a2-9634-8b67c7fe93a7","76A6A31DA16F423A8B9D9D63791511B2-2025-05-22-19-53-49","","null","","images/semantic_sequence/market_semantic/market_semantic_ten.png","null","",""
"","","","","","image-button-response","76","349198","0.0-12.0-1.0-1.6","76A6A31DA16F423A8B9D9D63791511B2","76A6A31DA16F423A8B9D9D63791511B2","22ba9779-030f-4a3e-bde2-a74a5d82ebdc","9076ac92-be42-43a2-9634-8b67c7fe93a7","{""num_scrambled_semantic"":""8"",""num_scrambled_causal"":""4"",""num_scrambled_schematic"":""4"",""participantId"":""76A6A31DA16F423A8B9D9D63791511B2"",""assignmentId"":""22ba9779-030f-4a3e-bde2-a74a5d82ebdc"",""projectId"":""9076ac92-be42-43a2-9634-8b67c7fe93a7""}","https://test12345.live/?num_scrambled_semantic=8&num_scrambled_causal=4&num_scrambled_schematic=4&participantId=76A6A31DA16F423A8B9D9D63791511B2&assignmentId=22ba9779-030f-4a3e-bde2-a74a5d82ebdc&projectId=9076ac92-be42-43a2-9634-8b67c7fe93a7","76A6A31DA16F423A8B9D9D63791511B2-2025-05-22-19-53-49","","482","","images/semantic_sequence/market_semantic/market_semantic_ten.png","1","",""
"","","","","","image-button-response","77","351005","0.0-12.0-1.0-2.6","76A6A31DA16F423A8B9D9D63791511B2","76A6A31DA16F423A8B9D9D63791511B2","22ba9779-030f-4a3e-bde2-a74a5d82ebdc","9076ac92-be42-43a2-9634-8b67c7fe93a7","{""num_scrambled_semantic"":""8"",""num_scrambled_causal"":""4"",""num_scrambled_schematic"":""4"",""participantId"":""76A6A31DA16F423A8B9D9D63791511B2"",""assignmentId"":""22ba9779-030f-4a3e-bde2-a74a5d82ebdc"",""projectId"":""9076ac92-be42-43a2-9634-8b67c7fe93a7""}","https://test12345.live/?num_scrambled_semantic=8&num_scrambled_causal=4&num_scrambled_schematic=4&participantId=76A6A31DA16F423A8B9D9D63791511B2&assignmentId=22ba9779-030f-4a3e-bde2-a74a5d82ebdc&projectId=9076ac92-be42-43a2-9634-8b67c7fe93a7","76A6A31DA16F423A8B9D9D63791511B2-2025-05-22-19-53-49","","null","","[]","null","",""
"","","","","","image-button-response","78","355510","0.0-12.0-1.0-0.7","76A6A31DA16F423A8B9D9D63791511B2","76A6A31DA16F423A8B9D9D63791511B2","22ba9779-030f-4a3e-bde2-a74a5d82ebdc","9076ac92-be42-43a2-9634-8b67c7fe93a7","{""num_scrambled_semantic"":""8"",""num_scrambled_causal"":""4"",""num_scrambled_schematic"":""4"",""participantId"":""76A6A31DA16F423A8B9D9D63791511B2"",""assignmentId"":""22ba9779-030f-4a3e-bde2-a74a5d82ebdc"",""projectId"":""9076ac92-be42-43a2-9634-8b67c7fe93a7""}","https://test12345.live/?num_scrambled_semantic=8&num_scrambled_causal=4&num_scrambled_schematic=4&participantId=76A6A31DA16F423A8B9D9D63791511B2&assignmentId=22ba9779-030f-4a3e-bde2-a74a5d82ebdc&projectId=9076ac92-be42-43a2-9634-8b67c7fe93a7","76A6A31DA16F423A8B9D9D63791511B2-2025-05-22-19-53-49","","null","","images/semantic_sequence/market_semantic/market_semantic_5.png","null","",""
"","","","","","image-button-response","79","355949","0.0-12.0-1.0-1.7","76A6A31DA16F423A8B9D9D63791511B2","76A6A31DA16F423A8B9D9D63791511B2","22ba9779-030f-4a3e-bde2-a74a5d82ebdc","9076ac92-be42-43a2-9634-8b67c7fe93a7","{""num_scrambled_semantic"":""8"",""num_scrambled_causal"":""4"",""num_scrambled_schematic"":""4"",""participantId"":""76A6A31DA16F423A8B9D9D63791511B2"",""assignmentId"":""22ba9779-030f-4a3e-bde2-a74a5d82ebdc"",""projectId"":""9076ac92-be42-43a2-9634-8b67c7fe93a7""}","https://test12345.live/?num_scrambled_semantic=8&num_scrambled_causal=4&num_scrambled_schematic=4&participantId=76A6A31DA16F423A8B9D9D63791511B2&assignmentId=22ba9779-030f-4a3e-bde2-a74a5d82ebdc&projectId=9076ac92-be42-43a2-9634-8b67c7fe93a7","76A6A31DA16F423A8B9D9D63791511B2-2025-05-22-19-53-49","","436","","images/semantic_sequence/market_semantic/market_semantic_5.png","1","",""
"","","","","","image-button-response","80","357750","0.0-12.0-1.0-2.7","76A6A31DA16F423A8B9D9D63791511B2","76A6A31DA16F423A8B9D9D63791511B2","22ba9779-030f-4a3e-bde2-a74a5d82ebdc","9076ac92-be42-43a2-9634-8b67c7fe93a7","{""num_scrambled_semantic"":""8"",""num_scrambled_causal"":""4"",""num_scrambled_schematic"":""4"",""participantId"":""76A6A31DA16F423A8B9D9D63791511B2"",""assignmentId"":""22ba9779-030f-4a3e-bde2-a74a5d82ebdc"",""projectId"":""9076ac92-be42-43a2-9634-8b67c7fe93a7""}","https://test12345.live/?num_scrambled_semantic=8&num_scrambled_causal=4&num_scrambled_schematic=4&participantId=76A6A31DA16F423A8B9D9D63791511B2&assignmentId=22ba9779-030f-4a3e-bde2-a74a5d82ebdc&projectId=9076ac92-be42-43a2-9634-8b67c7fe93a7","76A6A31DA16F423A8B9D9D63791511B2-2025-05-22-19-53-49","","null","","[]","null","",""
"","","","","","image-button-response","81","362253","0.0-12.0-1.0-0.8","76A6A31DA16F423A8B9D9D63791511B2","76A6A31DA16F423A8B9D9D63791511B2","22ba9779-030f-4a3e-bde2-a74a5d82ebdc","9076ac92-be42-43a2-9634-8b67c7fe93a7","{""num_scrambled_semantic"":""8"",""num_scrambled_causal"":""4"",""num_scrambled_schematic"":""4"",""participantId"":""76A6A31DA16F423A8B9D9D63791511B2"",""assignmentId"":""22ba9779-030f-4a3e-bde2-a74a5d82ebdc"",""projectId"":""9076ac92-be42-43a2-9634-8b67c7fe93a7""}","https://test12345.live/?num_scrambled_semantic=8&num_scrambled_causal=4&num_scrambled_schematic=4&participantId=76A6A31DA16F423A8B9D9D63791511B2&assignmentId=22ba9779-030f-4a3e-bde2-a74a5d82ebdc&projectId=9076ac92-be42-43a2-9634-8b67c7fe93a7","76A6A31DA16F423A8B9D9D63791511B2-2025-05-22-19-53-49","","null","","images/semantic_sequence/market_semantic/market_semantic_7.png","null","",""
"","","","","","image-button-response","82","362916","0.0-12.0-1.0-1.8","76A6A31DA16F423A8B9D9D63791511B2","76A6A31DA16F423A8B9D9D63791511B2","22ba9779-030f-4a3e-bde2-a74a5d82ebdc","9076ac92-be42-43a2-9634-8b67c7fe93a7","{""num_scrambled_semantic"":""8"",""num_scrambled_causal"":""4"",""num_scrambled_schematic"":""4"",""participantId"":""76A6A31DA16F423A8B9D9D63791511B2"",""assignmentId"":""22ba9779-030f-4a3e-bde2-a74a5d82ebdc"",""projectId"":""9076ac92-be42-43a2-9634-8b67c7fe93a7""}","https://test12345.live/?num_scrambled_semantic=8&num_scrambled_causal=4&num_scrambled_schematic=4&participantId=76A6A31DA16F423A8B9D9D63791511B2&assignmentId=22ba9779-030f-4a3e-bde2-a74a5d82ebdc&projectId=9076ac92-be42-43a2-9634-8b67c7fe93a7","76A6A31DA16F423A8B9D9D63791511B2-2025-05-22-19-53-49","","663","","images/semantic_sequence/market_semantic/market_semantic_7.png","0","",""
"","","","","","image-button-response","83","364722","0.0-12.0-1.0-2.8","76A6A31DA16F423A8B9D9D63791511B2","76A6A31DA16F423A8B9D9D63791511B2","22ba9779-030f-4a3e-bde2-a74a5d82ebdc","9076ac92-be42-43a2-9634-8b67c7fe93a7","{""num_scrambled_semantic"":""8"",""num_scrambled_causal"":""4"",""num_scrambled_schematic"":""4"",""participantId"":""76A6A31DA16F423A8B9D9D63791511B2"",""assignmentId"":""22ba9779-030f-4a3e-bde2-a74a5d82ebdc"",""projectId"":""9076ac92-be42-43a2-9634-8b67c7fe93a7""}","https://test12345.live/?num_scrambled_semantic=8&num_scrambled_causal=4&num_scrambled_schematic=4&participantId=76A6A31DA16F423A8B9D9D63791511B2&assignmentId=22ba9779-030f-4a3e-bde2-a74a5d82ebdc&projectId=9076ac92-be42-43a2-9634-8b67c7fe93a7","76A6A31DA16F423A8B9D9D63791511B2-2025-05-22-19-53-49","","null","","[]","null","",""
"","","","","","image-button-response","84","369230","0.0-12.0-1.0-0.9","76A6A31DA16F423A8B9D9D63791511B2","76A6A31DA16F423A8B9D9D63791511B2","22ba9779-030f-4a3e-bde2-a74a5d82ebdc","9076ac92-be42-43a2-9634-8b67c7fe93a7","{""num_scrambled_semantic"":""8"",""num_scrambled_causal"":""4"",""num_scrambled_schematic"":""4"",""participantId"":""76A6A31DA16F423A8B9D9D63791511B2"",""assignmentId"":""22ba9779-030f-4a3e-bde2-a74a5d82ebdc"",""projectId"":""9076ac92-be42-43a2-9634-8b67c7fe93a7""}","https://test12345.live/?num_scrambled_semantic=8&num_scrambled_causal=4&num_scrambled_schematic=4&participantId=76A6A31DA16F423A8B9D9D63791511B2&assignmentId=22ba9779-030f-4a3e-bde2-a74a5d82ebdc&projectId=9076ac92-be42-43a2-9634-8b67c7fe93a7","76A6A31DA16F423A8B9D9D63791511B2-2025-05-22-19-53-49","","null","","images/semantic_sequence/market_semantic/market_semantic_8.png","null","",""
"","","","","","image-button-response","85","369664","0.0-12.0-1.0-1.9","76A6A31DA16F423A8B9D9D63791511B2","76A6A31DA16F423A8B9D9D63791511B2","22ba9779-030f-4a3e-bde2-a74a5d82ebdc","9076ac92-be42-43a2-9634-8b67c7fe93a7","{""num_scrambled_semantic"":""8"",""num_scrambled_causal"":""4"",""num_scrambled_schematic"":""4"",""participantId"":""76A6A31DA16F423A8B9D9D63791511B2"",""assignmentId"":""22ba9779-030f-4a3e-bde2-a74a5d82ebdc"",""projectId"":""9076ac92-be42-43a2-9634-8b67c7fe93a7""}","https://test12345.live/?num_scrambled_semantic=8&num_scrambled_causal=4&num_scrambled_schematic=4&participantId=76A6A31DA16F423A8B9D9D63791511B2&assignmentId=22ba9779-030f-4a3e-bde2-a74a5d82ebdc&projectId=9076ac92-be42-43a2-9634-8b67c7fe93a7","76A6A31DA16F423A8B9D9D63791511B2-2025-05-22-19-53-49","","433","","images/semantic_sequence/market_semantic/market_semantic_8.png","1","",""
"","","","","","image-button-response","86","371466","0.0-12.0-1.0-2.9","76A6A31DA16F423A8B9D9D63791511B2","76A6A31DA16F423A8B9D9D63791511B2","22ba9779-030f-4a3e-bde2-a74a5d82ebdc","9076ac92-be42-43a2-9634-8b67c7fe93a7","{""num_scrambled_semantic"":""8"",""num_scrambled_causal"":""4"",""num_scrambled_schematic"":""4"",""participantId"":""76A6A31DA16F423A8B9D9D63791511B2"",""assignmentId"":""22ba9779-030f-4a3e-bde2-a74a5d82ebdc"",""projectId"":""9076ac92-be42-43a2-9634-8b67c7fe93a7""}","https://test12345.live/?num_scrambled_semantic=8&num_scrambled_causal=4&num_scrambled_schematic=4&participantId=76A6A31DA16F423A8B9D9D63791511B2&assignmentId=22ba9779-030f-4a3e-bde2-a74a5d82ebdc&projectId=9076ac92-be42-43a2-9634-8b67c7fe93a7","76A6A31DA16F423A8B9D9D63791511B2-2025-05-22-19-53-49","","null","","[]","null","",""
"","","","","","html-audio-response","87","439115","0.0-13.0","76A6A31DA16F423A8B9D9D63791511B2","76A6A31DA16F423A8B9D9D63791511B2","22ba9779-030f-4a3e-bde2-a74a5d82ebdc","9076ac92-be42-43a2-9634-8b67c7fe93a7","{""num_scrambled_semantic"":""8"",""num_scrambled_causal"":""4"",""num_scrambled_schematic"":""4"",""participantId"":""76A6A31DA16F423A8B9D9D63791511B2"",""assignmentId"":""22ba9779-030f-4a3e-bde2-a74a5d82ebdc"",""projectId"":""9076ac92-be42-43a2-9634-8b67c7fe93a7""}","https://test12345.live/?num_scrambled_semantic=8&num_scrambled_causal=4&num_scrambled_schematic=4&participantId=76A6A31DA16F423A8B9D9D63791511B2&assignmentId=22ba9779-030f-4a3e-bde2-a74a5d82ebdc&projectId=9076ac92-be42-43a2-9634-8b67c7fe93a7","76A6A31DA16F423A8B9D9D63791511B2-2025-05-22-19-53-49","","33406","","[""<span style=\""color: red; font-size: 24px\""> NOW RECORDING</span><p>Please say out loud all the images you saw, in the exact order you saw them. Try to recall as many images as you can, but remember: getting the order right is more important than the number of images you recall.</p>""]","","2","market_semantic"
"","","","","","image-button-response","88","445122","0.0-14.0-0.0","76A6A31DA16F423A8B9D9D63791511B2","76A6A31DA16F423A8B9D9D63791511B2","22ba9779-030f-4a3e-bde2-a74a5d82ebdc","9076ac92-be42-43a2-9634-8b67c7fe93a7","{""num_scrambled_semantic"":""8"",""num_scrambled_causal"":""4"",""num_scrambled_schematic"":""4"",""participantId"":""76A6A31DA16F423A8B9D9D63791511B2"",""assignmentId"":""22ba9779-030f-4a3e-bde2-a74a5d82ebdc"",""projectId"":""9076ac92-be42-43a2-9634-8b67c7fe93a7""}","https://test12345.live/?num_scrambled_semantic=8&num_scrambled_causal=4&num_scrambled_schematic=4&participantId=76A6A31DA16F423A8B9D9D63791511B2&assignmentId=22ba9779-030f-4a3e-bde2-a74a5d82ebdc&projectId=9076ac92-be42-43a2-9634-8b67c7fe93a7","76A6A31DA16F423A8B9D9D63791511B2-2025-05-22-19-53-49","","null","","images/semantic_sequence/creative_activities_semantic/creative_activities_semantic_0.png","null","",""
"","","","","","image-button-response","89","449629","0.0-14.0-1.0-0.0","76A6A31DA16F423A8B9D9D63791511B2","76A6A31DA16F423A8B9D9D63791511B2","22ba9779-030f-4a3e-bde2-a74a5d82ebdc","9076ac92-be42-43a2-9634-8b67c7fe93a7","{""num_scrambled_semantic"":""8"",""num_scrambled_causal"":""4"",""num_scrambled_schematic"":""4"",""participantId"":""76A6A31DA16F423A8B9D9D63791511B2"",""assignmentId"":""22ba9779-030f-4a3e-bde2-a74a5d82ebdc"",""projectId"":""9076ac92-be42-43a2-9634-8b67c7fe93a7""}","https://test12345.live/?num_scrambled_semantic=8&num_scrambled_causal=4&num_scrambled_schematic=4&participantId=76A6A31DA16F423A8B9D9D63791511B2&assignmentId=22ba9779-030f-4a3e-bde2-a74a5d82ebdc&projectId=9076ac92-be42-43a2-9634-8b67c7fe93a7","76A6A31DA16F423A8B9D9D63791511B2-2025-05-22-19-53-49","","null","","images/semantic_sequence/creative_activities_semantic/creative_activities_semantic_5.png","null","",""
"","","","","","image-button-response","90","450281","0.0-14.0-1.0-1.0","76A6A31DA16F423A8B9D9D63791511B2","76A6A31DA16F423A8B9D9D63791511B2","22ba9779-030f-4a3e-bde2-a74a5d82ebdc","9076ac92-be42-43a2-9634-8b67c7fe93a7","{""num_scrambled_semantic"":""8"",""num_scrambled_causal"":""4"",""num_scrambled_schematic"":""4"",""participantId"":""76A6A31DA16F423A8B9D9D63791511B2"",""assignmentId"":""22ba9779-030f-4a3e-bde2-a74a5d82ebdc"",""projectId"":""9076ac92-be42-43a2-9634-8b67c7fe93a7""}","https://test12345.live/?num_scrambled_semantic=8&num_scrambled_causal=4&num_scrambled_schematic=4&participantId=76A6A31DA16F423A8B9D9D63791511B2&assignmentId=22ba9779-030f-4a3e-bde2-a74a5d82ebdc&projectId=9076ac92-be42-43a2-9634-8b67c7fe93a7","76A6A31DA16F423A8B9D9D63791511B2-2025-05-22-19-53-49","","651","","images/semantic_sequence/creative_activities_semantic/creative_activities_semantic_5.png","0","",""
"","","","","","image-button-response","91","452087","0.0-14.0-1.0-2.0","76A6A31DA16F423A8B9D9D63791511B2","76A6A31DA16F423A8B9D9D63791511B2","22ba9779-030f-4a3e-bde2-a74a5d82ebdc","9076ac92-be42-43a2-9634-8b67c7fe93a7","{""num_scrambled_semantic"":""8"",""num_scrambled_causal"":""4"",""num_scrambled_schematic"":""4"",""participantId"":""76A6A31DA16F423A8B9D9D63791511B2"",""assignmentId"":""22ba9779-030f-4a3e-bde2-a74a5d82ebdc"",""projectId"":""9076ac92-be42-43a2-9634-8b67c7fe93a7""}","https://test12345.live/?num_scrambled_semantic=8&num_scrambled_causal=4&num_scrambled_schematic=4&participantId=76A6A31DA16F423A8B9D9D63791511B2&assignmentId=22ba9779-030f-4a3e-bde2-a74a5d82ebdc&projectId=9076ac92-be42-43a2-9634-8b67c7fe93a7","76A6A31DA16F423A8B9D9D63791511B2-2025-05-22-19-53-49","","null","","[]","null","",""
"","","","","","image-button-response","92","456591","0.0-14.0-1.0-0.1","76A6A31DA16F423A8B9D9D63791511B2","76A6A31DA16F423A8B9D9D63791511B2","22ba9779-030f-4a3e-bde2-a74a5d82ebdc","9076ac92-be42-43a2-9634-8b67c7fe93a7","{""num_scrambled_semantic"":""8"",""num_scrambled_causal"":""4"",""num_scrambled_schematic"":""4"",""participantId"":""76A6A31DA16F423A8B9D9D63791511B2"",""assignmentId"":""22ba9779-030f-4a3e-bde2-a74a5d82ebdc"",""projectId"":""9076ac92-be42-43a2-9634-8b67c7fe93a7""}","https://test12345.live/?num_scrambled_semantic=8&num_scrambled_causal=4&num_scrambled_schematic=4&participantId=76A6A31DA16F423A8B9D9D63791511B2&assignmentId=22ba9779-030f-4a3e-bde2-a74a5d82ebdc&projectId=9076ac92-be42-43a2-9634-8b67c7fe93a7","76A6A31DA16F423A8B9D9D63791511B2-2025-05-22-19-53-49","","null","","images/semantic_sequence/creative_activities_semantic/creative_activities_semantic_1.png","null","",""
"","","","","","image-button-response","93","457366","0.0-14.0-1.0-1.1","76A6A31DA16F423A8B9D9D63791511B2","76A6A31DA16F423A8B9D9D63791511B2","22ba9779-030f-4a3e-bde2-a74a5d82ebdc","9076ac92-be42-43a2-9634-8b67c7fe93a7","{""num_scrambled_semantic"":""8"",""num_scrambled_causal"":""4"",""num_scrambled_schematic"":""4"",""participantId"":""76A6A31DA16F423A8B9D9D63791511B2"",""assignmentId"":""22ba9779-030f-4a3e-bde2-a74a5d82ebdc"",""projectId"":""9076ac92-be42-43a2-9634-8b67c7fe93a7""}","https://test12345.live/?num_scrambled_semantic=8&num_scrambled_causal=4&num_scrambled_schematic=4&participantId=76A6A31DA16F423A8B9D9D63791511B2&assignmentId=22ba9779-030f-4a3e-bde2-a74a5d82ebdc&projectId=9076ac92-be42-43a2-9634-8b67c7fe93a7","76A6A31DA16F423A8B9D9D63791511B2-2025-05-22-19-53-49","","773","","images/semantic_sequence/creative_activities_semantic/creative_activities_semantic_1.png","0","",""
"","","","","","image-button-response","94","459173","0.0-14.0-1.0-2.1","76A6A31DA16F423A8B9D9D63791511B2","76A6A31DA16F423A8B9D9D63791511B2","22ba9779-030f-4a3e-bde2-a74a5d82ebdc","9076ac92-be42-43a2-9634-8b67c7fe93a7","{""num_scrambled_semantic"":""8"",""num_scrambled_causal"":""4"",""num_scrambled_schematic"":""4"",""participantId"":""76A6A31DA16F423A8B9D9D63791511B2"",""assignmentId"":""22ba9779-030f-4a3e-bde2-a74a5d82ebdc"",""projectId"":""9076ac92-be42-43a2-9634-8b67c7fe93a7""}","https://test12345.live/?num_scrambled_semantic=8&num_scrambled_causal=4&num_scrambled_schematic=4&participantId=76A6A31DA16F423A8B9D9D63791511B2&assignmentId=22ba9779-030f-4a3e-bde2-a74a5d82ebdc&projectId=9076ac92-be42-43a2-9634-8b67c7fe93a7","76A6A31DA16F423A8B9D9D63791511B2-2025-05-22-19-53-49","","null","","[]","null","",""
"","","","","","image-button-response","95","463679","0.0-14.0-1.0-0.2","76A6A31DA16F423A8B9D9D63791511B2","76A6A31DA16F423A8B9D9D63791511B2","22ba9779-030f-4a3e-bde2-a74a5d82ebdc","9076ac92-be42-43a2-9634-8b67c7fe93a7","{""num_scrambled_semantic"":""8"",""num_scrambled_causal"":""4"",""num_scrambled_schematic"":""4"",""participantId"":""76A6A31DA16F423A8B9D9D63791511B2"",""assignmentId"":""22ba9779-030f-4a3e-bde2-a74a5d82ebdc"",""projectId"":""9076ac92-be42-43a2-9634-8b67c7fe93a7""}","https://test12345.live/?num_scrambled_semantic=8&num_scrambled_causal=4&num_scrambled_schematic=4&participantId=76A6A31DA16F423A8B9D9D63791511B2&assignmentId=22ba9779-030f-4a3e-bde2-a74a5d82ebdc&projectId=9076ac92-be42-43a2-9634-8b67c7fe93a7","76A6A31DA16F423A8B9D9D63791511B2-2025-05-22-19-53-49","","null","","images/semantic_sequence/creative_activities_semantic/creative_activities_semantic_9.png","null","",""
"","","","","","image-button-response","96","464115","0.0-14.0-1.0-1.2","76A6A31DA16F423A8B9D9D63791511B2","76A6A31DA16F423A8B9D9D63791511B2","22ba9779-030f-4a3e-bde2-a74a5d82ebdc","9076ac92-be42-43a2-9634-8b67c7fe93a7","{""num_scrambled_semantic"":""8"",""num_scrambled_causal"":""4"",""num_scrambled_schematic"":""4"",""participantId"":""76A6A31DA16F423A8B9D9D63791511B2"",""assignmentId"":""22ba9779-030f-4a3e-bde2-a74a5d82ebdc"",""projectId"":""9076ac92-be42-43a2-9634-8b67c7fe93a7""}","https://test12345.live/?num_scrambled_semantic=8&num_scrambled_causal=4&num_scrambled_schematic=4&participantId=76A6A31DA16F423A8B9D9D63791511B2&assignmentId=22ba9779-030f-4a3e-bde2-a74a5d82ebdc&projectId=9076ac92-be42-43a2-9634-8b67c7fe93a7","76A6A31DA16F423A8B9D9D63791511B2-2025-05-22-19-53-49","","434","","images/semantic_sequence/creative_activities_semantic/creative_activities_semantic_9.png","0","",""
"","","","","","image-button-response","97","465921","0.0-14.0-1.0-2.2","76A6A31DA16F423A8B9D9D63791511B2","76A6A31DA16F423A8B9D9D63791511B2","22ba9779-030f-4a3e-bde2-a74a5d82ebdc","9076ac92-be42-43a2-9634-8b67c7fe93a7","{""num_scrambled_semantic"":""8"",""num_scrambled_causal"":""4"",""num_scrambled_schematic"":""4"",""participantId"":""76A6A31DA16F423A8B9D9D63791511B2"",""assignmentId"":""22ba9779-030f-4a3e-bde2-a74a5d82ebdc"",""projectId"":""9076ac92-be42-43a2-9634-8b67c7fe93a7""}","https://test12345.live/?num_scrambled_semantic=8&num_scrambled_causal=4&num_scrambled_schematic=4&participantId=76A6A31DA16F423A8B9D9D63791511B2&assignmentId=22ba9779-030f-4a3e-bde2-a74a5d82ebdc&projectId=9076ac92-be42-43a2-9634-8b67c7fe93a7","76A6A31DA16F423A8B9D9D63791511B2-2025-05-22-19-53-49","","null","","[]","null","",""
"","","","","","image-button-response","98","470428","0.0-14.0-1.0-0.3","76A6A31DA16F423A8B9D9D63791511B2","76A6A31DA16F423A8B9D9D63791511B2","22ba9779-030f-4a3e-bde2-a74a5d82ebdc","9076ac92-be42-43a2-9634-8b67c7fe93a7","{""num_scrambled_semantic"":""8"",""num_scrambled_causal"":""4"",""num_scrambled_schematic"":""4"",""participantId"":""76A6A31DA16F423A8B9D9D63791511B2"",""assignmentId"":""22ba9779-030f-4a3e-bde2-a74a5d82ebdc"",""projectId"":""9076ac92-be42-43a2-9634-8b67c7fe93a7""}","https://test12345.live/?num_scrambled_semantic=8&num_scrambled_causal=4&num_scrambled_schematic=4&participantId=76A6A31DA16F423A8B9D9D63791511B2&assignmentId=22ba9779-030f-4a3e-bde2-a74a5d82ebdc&projectId=9076ac92-be42-43a2-9634-8b67c7fe93a7","76A6A31DA16F423A8B9D9D63791511B2-2025-05-22-19-53-49","","null","","images/semantic_sequence/creative_activities_semantic/creative_activities_semantic_8.png","null","",""
"","","","","","image-button-response","99","472500","0.0-14.0-1.0-1.3","76A6A31DA16F423A8B9D9D63791511B2","76A6A31DA16F423A8B9D9D63791511B2","22ba9779-030f-4a3e-bde2-a74a5d82ebdc","9076ac92-be42-43a2-9634-8b67c7fe93a7","{""num_scrambled_semantic"":""8"",""num_scrambled_causal"":""4"",""num_scrambled_schematic"":""4"",""participantId"":""76A6A31DA16F423A8B9D9D63791511B2"",""assignmentId"":""22ba9779-030f-4a3e-bde2-a74a5d82ebdc"",""projectId"":""9076ac92-be42-43a2-9634-8b67c7fe93a7""}","https://test12345.live/?num_scrambled_semantic=8&num_scrambled_causal=4&num_scrambled_schematic=4&participantId=76A6A31DA16F423A8B9D9D63791511B2&assignmentId=22ba9779-030f-4a3e-bde2-a74a5d82ebdc&projectId=9076ac92-be42-43a2-9634-8b67c7fe93a7","76A6A31DA16F423A8B9D9D63791511B2-2025-05-22-19-53-49","","2070","","images/semantic_sequence/creative_activities_semantic/creative_activities_semantic_8.png","0","",""
"","","","","","image-button-response","100","474306","0.0-14.0-1.0-2.3","76A6A31DA16F423A8B9D9D63791511B2","76A6A31DA16F423A8B9D9D63791511B2","22ba9779-030f-4a3e-bde2-a74a5d82ebdc","9076ac92-be42-43a2-9634-8b67c7fe93a7","{""num_scrambled_semantic"":""8"",""num_scrambled_causal"":""4"",""num_scrambled_schematic"":""4"",""participantId"":""76A6A31DA16F423A8B9D9D63791511B2"",""assignmentId"":""22ba9779-030f-4a3e-bde2-a74a5d82ebdc"",""projectId"":""9076ac92-be42-43a2-9634-8b67c7fe93a7""}","https://test12345.live/?num_scrambled_semantic=8&num_scrambled_causal=4&num_scrambled_schematic=4&participantId=76A6A31DA16F423A8B9D9D63791511B2&assignmentId=22ba9779-030f-4a3e-bde2-a74a5d82ebdc&projectId=9076ac92-be42-43a2-9634-8b67c7fe93a7","76A6A31DA16F423A8B9D9D63791511B2-2025-05-22-19-53-49","","null","","[]","null","",""
"","","","","","image-button-response","101","478812","0.0-14.0-1.0-0.4","76A6A31DA16F423A8B9D9D63791511B2","76A6A31DA16F423A8B9D9D63791511B2","22ba9779-030f-4a3e-bde2-a74a5d82ebdc","9076ac92-be42-43a2-9634-8b67c7fe93a7","{""num_scrambled_semantic"":""8"",""num_scrambled_causal"":""4"",""num_scrambled_schematic"":""4"",""participantId"":""76A6A31DA16F423A8B9D9D63791511B2"",""assignmentId"":""22ba9779-030f-4a3e-bde2-a74a5d82ebdc"",""projectId"":""9076ac92-be42-43a2-9634-8b67c7fe93a7""}","https://test12345.live/?num_scrambled_semantic=8&num_scrambled_causal=4&num_scrambled_schematic=4&participantId=76A6A31DA16F423A8B9D9D63791511B2&assignmentId=22ba9779-030f-4a3e-bde2-a74a5d82ebdc&projectId=9076ac92-be42-43a2-9634-8b67c7fe93a7","76A6A31DA16F423A8B9D9D63791511B2-2025-05-22-19-53-49","","null","","images/semantic_sequence/creative_activities_semantic/creative_activities_semantic_ten.png","null","",""
"","","","","","image-button-response","102","479231","0.0-14.0-1.0-1.4","76A6A31DA16F423A8B9D9D63791511B2","76A6A31DA16F423A8B9D9D63791511B2","22ba9779-030f-4a3e-bde2-a74a5d82ebdc","9076ac92-be42-43a2-9634-8b67c7fe93a7","{""num_scrambled_semantic"":""8"",""num_scrambled_causal"":""4"",""num_scrambled_schematic"":""4"",""participantId"":""76A6A31DA16F423A8B9D9D63791511B2"",""assignmentId"":""22ba9779-030f-4a3e-bde2-a74a5d82ebdc"",""projectId"":""9076ac92-be42-43a2-9634-8b67c7fe93a7""}","https://test12345.live/?num_scrambled_semantic=8&num_scrambled_causal=4&num_scrambled_schematic=4&participantId=76A6A31DA16F423A8B9D9D63791511B2&assignmentId=22ba9779-030f-4a3e-bde2-a74a5d82ebdc&projectId=9076ac92-be42-43a2-9634-8b67c7fe93a7","76A6A31DA16F423A8B9D9D63791511B2-2025-05-22-19-53-49","","418","","images/semantic_sequence/creative_activities_semantic/creative_activities_semantic_ten.png","0","",""
"","","","","","image-button-response","103","481037","0.0-14.0-1.0-2.4","76A6A31DA16F423A8B9D9D63791511B2","76A6A31DA16F423A8B9D9D63791511B2","22ba9779-030f-4a3e-bde2-a74a5d82ebdc","9076ac92-be42-43a2-9634-8b67c7fe93a7","{""num_scrambled_semantic"":""8"",""num_scrambled_causal"":""4"",""num_scrambled_schematic"":""4"",""participantId"":""76A6A31DA16F423A8B9D9D63791511B2"",""assignmentId"":""22ba9779-030f-4a3e-bde2-a74a5d82ebdc"",""projectId"":""9076ac92-be42-43a2-9634-8b67c7fe93a7""}","https://test12345.live/?num_scrambled_semantic=8&num_scrambled_causal=4&num_scrambled_schematic=4&participantId=76A6A31DA16F423A8B9D9D63791511B2&assignmentId=22ba9779-030f-4a3e-bde2-a74a5d82ebdc&projectId=9076ac92-be42-43a2-9634-8b67c7fe93a7","76A6A31DA16F423A8B9D9D63791511B2-2025-05-22-19-53-49","","null","","[]","null","",""
"","","","","","image-button-response","104","485543","0.0-14.0-1.0-0.5","76A6A31DA16F423A8B9D9D63791511B2","76A6A31DA16F423A8B9D9D63791511B2","22ba9779-030f-4a3e-bde2-a74a5d82ebdc","9076ac92-be42-43a2-9634-8b67c7fe93a7","{""num_scrambled_semantic"":""8"",""num_scrambled_causal"":""4"",""num_scrambled_schematic"":""4"",""participantId"":""76A6A31DA16F423A8B9D9D63791511B2"",""assignmentId"":""22ba9779-030f-4a3e-bde2-a74a5d82ebdc"",""projectId"":""9076ac92-be42-43a2-9634-8b67c7fe93a7""}","https://test12345.live/?num_scrambled_semantic=8&num_scrambled_causal=4&num_scrambled_schematic=4&participantId=76A6A31DA16F423A8B9D9D63791511B2&assignmentId=22ba9779-030f-4a3e-bde2-a74a5d82ebdc&projectId=9076ac92-be42-43a2-9634-8b67c7fe93a7","76A6A31DA16F423A8B9D9D63791511B2-2025-05-22-19-53-49","","null","","images/semantic_sequence/creative_activities_semantic/creative_activities_semantic_4.png","null","",""
"","","","","","image-button-response","105","485983","0.0-14.0-1.0-1.5","76A6A31DA16F423A8B9D9D63791511B2","76A6A31DA16F423A8B9D9D63791511B2","22ba9779-030f-4a3e-bde2-a74a5d82ebdc","9076ac92-be42-43a2-9634-8b67c7fe93a7","{""num_scrambled_semantic"":""8"",""num_scrambled_causal"":""4"",""num_scrambled_schematic"":""4"",""participantId"":""76A6A31DA16F423A8B9D9D63791511B2"",""assignmentId"":""22ba9779-030f-4a3e-bde2-a74a5d82ebdc"",""projectId"":""9076ac92-be42-43a2-9634-8b67c7fe93a7""}","https://test12345.live/?num_scrambled_semantic=8&num_scrambled_causal=4&num_scrambled_schematic=4&participantId=76A6A31DA16F423A8B9D9D63791511B2&assignmentId=22ba9779-030f-4a3e-bde2-a74a5d82ebdc&projectId=9076ac92-be42-43a2-9634-8b67c7fe93a7","76A6A31DA16F423A8B9D9D63791511B2-2025-05-22-19-53-49","","438","","images/semantic_sequence/creative_activities_semantic/creative_activities_semantic_4.png","0","",""
"","","","","","image-button-response","106","487789","0.0-14.0-1.0-2.5","76A6A31DA16F423A8B9D9D63791511B2","76A6A31DA16F423A8B9D9D63791511B2","22ba9779-030f-4a3e-bde2-a74a5d82ebdc","9076ac92-be42-43a2-9634-8b67c7fe93a7","{""num_scrambled_semantic"":""8"",""num_scrambled_causal"":""4"",""num_scrambled_schematic"":""4"",""participantId"":""76A6A31DA16F423A8B9D9D63791511B2"",""assignmentId"":""22ba9779-030f-4a3e-bde2-a74a5d82ebdc"",""projectId"":""9076ac92-be42-43a2-9634-8b67c7fe93a7""}","https://test12345.live/?num_scrambled_semantic=8&num_scrambled_causal=4&num_scrambled_schematic=4&participantId=76A6A31DA16F423A8B9D9D63791511B2&assignmentId=22ba9779-030f-4a3e-bde2-a74a5d82ebdc&projectId=9076ac92-be42-43a2-9634-8b67c7fe93a7","76A6A31DA16F423A8B9D9D63791511B2-2025-05-22-19-53-49","","null","","[]","null","",""
"","","","","","image-button-response","107","492294","0.0-14.0-1.0-0.6","76A6A31DA16F423A8B9D9D63791511B2","76A6A31DA16F423A8B9D9D63791511B2","22ba9779-030f-4a3e-bde2-a74a5d82ebdc","9076ac92-be42-43a2-9634-8b67c7fe93a7","{""num_scrambled_semantic"":""8"",""num_scrambled_causal"":""4"",""num_scrambled_schematic"":""4"",""participantId"":""76A6A31DA16F423A8B9D9D63791511B2"",""assignmentId"":""22ba9779-030f-4a3e-bde2-a74a5d82ebdc"",""projectId"":""9076ac92-be42-43a2-9634-8b67c7fe93a7""}","https://test12345.live/?num_scrambled_semantic=8&num_scrambled_causal=4&num_scrambled_schematic=4&participantId=76A6A31DA16F423A8B9D9D63791511B2&assignmentId=22ba9779-030f-4a3e-bde2-a74a5d82ebdc&projectId=9076ac92-be42-43a2-9634-8b67c7fe93a7","76A6A31DA16F423A8B9D9D63791511B2-2025-05-22-19-53-49","","null","","images/semantic_sequence/creative_activities_semantic/creative_activities_semantic_6.png","null","",""
"","","","","","image-button-response","108","492699","0.0-14.0-1.0-1.6","76A6A31DA16F423A8B9D9D63791511B2","76A6A31DA16F423A8B9D9D63791511B2","22ba9779-030f-4a3e-bde2-a74a5d82ebdc","9076ac92-be42-43a2-9634-8b67c7fe93a7","{""num_scrambled_semantic"":""8"",""num_scrambled_causal"":""4"",""num_scrambled_schematic"":""4"",""participantId"":""76A6A31DA16F423A8B9D9D63791511B2"",""assignmentId"":""22ba9779-030f-4a3e-bde2-a74a5d82ebdc"",""projectId"":""9076ac92-be42-43a2-9634-8b67c7fe93a7""}","https://test12345.live/?num_scrambled_semantic=8&num_scrambled_causal=4&num_scrambled_schematic=4&participantId=76A6A31DA16F423A8B9D9D63791511B2&assignmentId=22ba9779-030f-4a3e-bde2-a74a5d82ebdc&projectId=9076ac92-be42-43a2-9634-8b67c7fe93a7","76A6A31DA16F423A8B9D9D63791511B2-2025-05-22-19-53-49","","403","","images/semantic_sequence/creative_activities_semantic/creative_activities_semantic_6.png","0","",""
"","","","","","image-button-response","109","494505","0.0-14.0-1.0-2.6","76A6A31DA16F423A8B9D9D63791511B2","76A6A31DA16F423A8B9D9D63791511B2","22ba9779-030f-4a3e-bde2-a74a5d82ebdc","9076ac92-be42-43a2-9634-8b67c7fe93a7","{""num_scrambled_semantic"":""8"",""num_scrambled_causal"":""4"",""num_scrambled_schematic"":""4"",""participantId"":""76A6A31DA16F423A8B9D9D63791511B2"",""assignmentId"":""22ba9779-030f-4a3e-bde2-a74a5d82ebdc"",""projectId"":""9076ac92-be42-43a2-9634-8b67c7fe93a7""}","https://test12345.live/?num_scrambled_semantic=8&num_scrambled_causal=4&num_scrambled_schematic=4&participantId=76A6A31DA16F423A8B9D9D63791511B2&assignmentId=22ba9779-030f-4a3e-bde2-a74a5d82ebdc&projectId=9076ac92-be42-43a2-9634-8b67c7fe93a7","76A6A31DA16F423A8B9D9D63791511B2-2025-05-22-19-53-49","","null","","[]","null","",""
"","","","","","image-button-response","110","499011","0.0-14.0-1.0-0.7","76A6A31DA16F423A8B9D9D63791511B2","76A6A31DA16F423A8B9D9D63791511B2","22ba9779-030f-4a3e-bde2-a74a5d82ebdc","9076ac92-be42-43a2-9634-8b67c7fe93a7","{""num_scrambled_semantic"":""8"",""num_scrambled_causal"":""4"",""num_scrambled_schematic"":""4"",""participantId"":""76A6A31DA16F423A8B9D9D63791511B2"",""assignmentId"":""22ba9779-030f-4a3e-bde2-a74a5d82ebdc"",""projectId"":""9076ac92-be42-43a2-9634-8b67c7fe93a7""}","https://test12345.live/?num_scrambled_semantic=8&num_scrambled_causal=4&num_scrambled_schematic=4&participantId=76A6A31DA16F423A8B9D9D63791511B2&assignmentId=22ba9779-030f-4a3e-bde2-a74a5d82ebdc&projectId=9076ac92-be42-43a2-9634-8b67c7fe93a7","76A6A31DA16F423A8B9D9D63791511B2-2025-05-22-19-53-49","","null","","images/semantic_sequence/creative_activities_semantic/creative_activities_semantic_3.png","null","",""
"","","","","","image-button-response","111","499415","0.0-14.0-1.0-1.7","76A6A31DA16F423A8B9D9D63791511B2","76A6A31DA16F423A8B9D9D63791511B2","22ba9779-030f-4a3e-bde2-a74a5d82ebdc","9076ac92-be42-43a2-9634-8b67c7fe93a7","{""num_scrambled_semantic"":""8"",""num_scrambled_causal"":""4"",""num_scrambled_schematic"":""4"",""participantId"":""76A6A31DA16F423A8B9D9D63791511B2"",""assignmentId"":""22ba9779-030f-4a3e-bde2-a74a5d82ebdc"",""projectId"":""9076ac92-be42-43a2-9634-8b67c7fe93a7""}","https://test12345.live/?num_scrambled_semantic=8&num_scrambled_causal=4&num_scrambled_schematic=4&participantId=76A6A31DA16F423A8B9D9D63791511B2&assignmentId=22ba9779-030f-4a3e-bde2-a74a5d82ebdc&projectId=9076ac92-be42-43a2-9634-8b67c7fe93a7","76A6A31DA16F423A8B9D9D63791511B2-2025-05-22-19-53-49","","402","","images/semantic_sequence/creative_activities_semantic/creative_activities_semantic_3.png","0","",""
"","","","","","image-button-response","112","501221","0.0-14.0-1.0-2.7","76A6A31DA16F423A8B9D9D63791511B2","76A6A31DA16F423A8B9D9D63791511B2","22ba9779-030f-4a3e-bde2-a74a5d82ebdc","9076ac92-be42-43a2-9634-8b67c7fe93a7","{""num_scrambled_semantic"":""8"",""num_scrambled_causal"":""4"",""num_scrambled_schematic"":""4"",""participantId"":""76A6A31DA16F423A8B9D9D63791511B2"",""assignmentId"":""22ba9779-030f-4a3e-bde2-a74a5d82ebdc"",""projectId"":""9076ac92-be42-43a2-9634-8b67c7fe93a7""}","https://test12345.live/?num_scrambled_semantic=8&num_scrambled_causal=4&num_scrambled_schematic=4&participantId=76A6A31DA16F423A8B9D9D63791511B2&assignmentId=22ba9779-030f-4a3e-bde2-a74a5d82ebdc&projectId=9076ac92-be42-43a2-9634-8b67c7fe93a7","76A6A31DA16F423A8B9D9D63791511B2-2025-05-22-19-53-49","","null","","[]","null","",""
"","","","","","image-button-response","113","505724","0.0-14.0-1.0-0.8","76A6A31DA16F423A8B9D9D63791511B2","76A6A31DA16F423A8B9D9D63791511B2","22ba9779-030f-4a3e-bde2-a74a5d82ebdc","9076ac92-be42-43a2-9634-8b67c7fe93a7","{""num_scrambled_semantic"":""8"",""num_scrambled_causal"":""4"",""num_scrambled_schematic"":""4"",""participantId"":""76A6A31DA16F423A8B9D9D63791511B2"",""assignmentId"":""22ba9779-030f-4a3e-bde2-a74a5d82ebdc"",""projectId"":""9076ac92-be42-43a2-9634-8b67c7fe93a7""}","https://test12345.live/?num_scrambled_semantic=8&num_scrambled_causal=4&num_scrambled_schematic=4&participantId=76A6A31DA16F423A8B9D9D63791511B2&assignmentId=22ba9779-030f-4a3e-bde2-a74a5d82ebdc&projectId=9076ac92-be42-43a2-9634-8b67c7fe93a7","76A6A31DA16F423A8B9D9D63791511B2-2025-05-22-19-53-49","","null","","images/semantic_sequence/creative_activities_semantic/creative_activities_semantic_2.png","null","",""
