"success","timeout","failed_images","failed_audio","failed_video","trial_type","trial_index","time_elapsed","internal_node_id","subject","subject_id","study_id","session_id","urlvar","current_url","audio_id","view_history","rt","device_id","stimulus","response","estimated_stimulus_onset","seq_name"
"true","false","[]","[]","[]","preload","0","5160","0.0-0.0","77D8BBD980704B8C82494AC3B8ECAF50","77D8BBD980704B8C82494AC3B8ECAF50","cc01f0a4-c006-44fb-bc86-12d4f6e8d491","9076ac92-be42-43a2-9634-8b67c7fe93a7","{""num_scrambled_semantic"":""8"",""num_scrambled_causal"":""4"",""num_scrambled_schematic"":""4"",""participantId"":""77D8BBD980704B8C82494AC3B8ECAF50"",""assignmentId"":""cc01f0a4-c006-44fb-bc86-12d4f6e8d491"",""projectId"":""9076ac92-be42-43a2-9634-8b67c7fe93a7""}","https://test12345.live/?num_scrambled_semantic=8&num_scrambled_causal=4&num_scrambled_schematic=4&participantId=77D8BBD980704B8C82494AC3B8ECAF50&assignmentId=cc01f0a4-c006-44fb-bc86-12d4f6e8d491&projectId=9076ac92-be42-43a2-9634-8b67c7fe93a7","77D8BBD980704B8C82494AC3B8ECAF50-2025-05-22-19-16-00","","","","","","",""
"","","","","","instructions","1","102728","0.0-1.0","77D8BBD980704B8C82494AC3B8ECAF50","77D8BBD980704B8C82494AC3B8ECAF50","cc01f0a4-c006-44fb-bc86-12d4f6e8d491","9076ac92-be42-43a2-9634-8b67c7fe93a7","{""num_scrambled_semantic"":""8"",""num_scrambled_causal"":""4"",""num_scrambled_schematic"":""4"",""participantId"":""77D8BBD980704B8C82494AC3B8ECAF50"",""assignmentId"":""cc01f0a4-c006-44fb-bc86-12d4f6e8d491"",""projectId"":""9076ac92-be42-43a2-9634-8b67c7fe93a7""}","https://test12345.live/?num_scrambled_semantic=8&num_scrambled_causal=4&num_scrambled_schematic=4&participantId=77D8BBD980704B8C82494AC3B8ECAF50&assignmentId=cc01f0a4-c006-44fb-bc86-12d4f6e8d491&projectId=9076ac92-be42-43a2-9634-8b67c7fe93a7","77D8BBD980704B8C82494AC3B8ECAF50-2025-05-22-19-16-00","[{""page_index"":0,""viewing_time"":97568}]","97568","","","","",""
"","","","","","instructions","2","111224","0.0-2.0","77D8BBD980704B8C82494AC3B8ECAF50","77D8BBD980704B8C82494AC3B8ECAF50","cc01f0a4-c006-44fb-bc86-12d4f6e8d491","9076ac92-be42-43a2-9634-8b67c7fe93a7","{""num_scrambled_semantic"":""8"",""num_scrambled_causal"":""4"",""num_scrambled_schematic"":""4"",""participantId"":""77D8BBD980704B8C82494AC3B8ECAF50"",""assignmentId"":""cc01f0a4-c006-44fb-bc86-12d4f6e8d491"",""projectId"":""9076ac92-be42-43a2-9634-8b67c7fe93a7""}","https://test12345.live/?num_scrambled_semantic=8&num_scrambled_causal=4&num_scrambled_schematic=4&participantId=77D8BBD980704B8C82494AC3B8ECAF50&assignmentId=cc01f0a4-c006-44fb-bc86-12d4f6e8d491&projectId=9076ac92-be42-43a2-9634-8b67c7fe93a7","77D8BBD980704B8C82494AC3B8ECAF50-2025-05-22-19-16-00","[{""page_index"":0,""viewing_time"":8494}]","8494","","","","",""
"true","","","","","fullscreen","3","115225","0.0-3.0","77D8BBD980704B8C82494AC3B8ECAF50","77D8BBD980704B8C82494AC3B8ECAF50","cc01f0a4-c006-44fb-bc86-12d4f6e8d491","9076ac92-be42-43a2-9634-8b67c7fe93a7","{""num_scrambled_semantic"":""8"",""num_scrambled_causal"":""4"",""num_scrambled_schematic"":""4"",""participantId"":""77D8BBD980704B8C82494AC3B8ECAF50"",""assignmentId"":""cc01f0a4-c006-44fb-bc86-12d4f6e8d491"",""projectId"":""9076ac92-be42-43a2-9634-8b67c7fe93a7""}","https://test12345.live/?num_scrambled_semantic=8&num_scrambled_causal=4&num_scrambled_schematic=4&participantId=77D8BBD980704B8C82494AC3B8ECAF50&assignmentId=cc01f0a4-c006-44fb-bc86-12d4f6e8d491&projectId=9076ac92-be42-43a2-9634-8b67c7fe93a7","77D8BBD980704B8C82494AC3B8ECAF50-2025-05-22-19-16-00","","2914","","","","",""
"","","","","","initialize-microphone","4","127062","0.0-4.0-0.0","77D8BBD980704B8C82494AC3B8ECAF50","77D8BBD980704B8C82494AC3B8ECAF50","cc01f0a4-c006-44fb-bc86-12d4f6e8d491","9076ac92-be42-43a2-9634-8b67c7fe93a7","{""num_scrambled_semantic"":""8"",""num_scrambled_causal"":""4"",""num_scrambled_schematic"":""4"",""participantId"":""77D8BBD980704B8C82494AC3B8ECAF50"",""assignmentId"":""cc01f0a4-c006-44fb-bc86-12d4f6e8d491"",""projectId"":""9076ac92-be42-43a2-9634-8b67c7fe93a7""}","https://test12345.live/?num_scrambled_semantic=8&num_scrambled_causal=4&num_scrambled_schematic=4&participantId=77D8BBD980704B8C82494AC3B8ECAF50&assignmentId=cc01f0a4-c006-44fb-bc86-12d4f6e8d491&projectId=9076ac92-be42-43a2-9634-8b67c7fe93a7","77D8BBD980704B8C82494AC3B8ECAF50-2025-05-22-19-16-00","","","i9n7+HOrm3YrR0hPalT2y6y1vnAgfZ6rUwx3taWZyek=","","","",""
"","","","","","html-audio-response","5","156605","0.0-4.0-1.0","77D8BBD980704B8C82494AC3B8ECAF50","77D8BBD980704B8C82494AC3B8ECAF50","cc01f0a4-c006-44fb-bc86-12d4f6e8d491","9076ac92-be42-43a2-9634-8b67c7fe93a7","{""num_scrambled_semantic"":""8"",""num_scrambled_causal"":""4"",""num_scrambled_schematic"":""4"",""participantId"":""77D8BBD980704B8C82494AC3B8ECAF50"",""assignmentId"":""cc01f0a4-c006-44fb-bc86-12d4f6e8d491"",""projectId"":""9076ac92-be42-43a2-9634-8b67c7fe93a7""}","https://test12345.live/?num_scrambled_semantic=8&num_scrambled_causal=4&num_scrambled_schematic=4&participantId=77D8BBD980704B8C82494AC3B8ECAF50&assignmentId=cc01f0a4-c006-44fb-bc86-12d4f6e8d491&projectId=9076ac92-be42-43a2-9634-8b67c7fe93a7","77D8BBD980704B8C82494AC3B8ECAF50-2025-05-22-19-16-00","","4131","","<span style=""color: red; font-size: 24px""> NOW RECORDING</span>
        <p>Please test Microphone</p>","","6",""
"","","","","","html-button-response","6","159826","0.0-4.0-2.0","77D8BBD980704B8C82494AC3B8ECAF50","77D8BBD980704B8C82494AC3B8ECAF50","cc01f0a4-c006-44fb-bc86-12d4f6e8d491","9076ac92-be42-43a2-9634-8b67c7fe93a7","{""num_scrambled_semantic"":""8"",""num_scrambled_causal"":""4"",""num_scrambled_schematic"":""4"",""participantId"":""77D8BBD980704B8C82494AC3B8ECAF50"",""assignmentId"":""cc01f0a4-c006-44fb-bc86-12d4f6e8d491"",""projectId"":""9076ac92-be42-43a2-9634-8b67c7fe93a7""}","https://test12345.live/?num_scrambled_semantic=8&num_scrambled_causal=4&num_scrambled_schematic=4&participantId=77D8BBD980704B8C82494AC3B8ECAF50&assignmentId=cc01f0a4-c006-44fb-bc86-12d4f6e8d491&projectId=9076ac92-be42-43a2-9634-8b67c7fe93a7","77D8BBD980704B8C82494AC3B8ECAF50-2025-05-22-19-16-00","","3220","","<p style=""font-size:48px; color:red;"">Is Microphone OK?</p>","0","",""
"","","","","","initialize-microphone","7","166530","0.0-4.1-0.1","77D8BBD980704B8C82494AC3B8ECAF50","77D8BBD980704B8C82494AC3B8ECAF50","cc01f0a4-c006-44fb-bc86-12d4f6e8d491","9076ac92-be42-43a2-9634-8b67c7fe93a7","{""num_scrambled_semantic"":""8"",""num_scrambled_causal"":""4"",""num_scrambled_schematic"":""4"",""participantId"":""77D8BBD980704B8C82494AC3B8ECAF50"",""assignmentId"":""cc01f0a4-c006-44fb-bc86-12d4f6e8d491"",""projectId"":""9076ac92-be42-43a2-9634-8b67c7fe93a7""}","https://test12345.live/?num_scrambled_semantic=8&num_scrambled_causal=4&num_scrambled_schematic=4&participantId=77D8BBD980704B8C82494AC3B8ECAF50&assignmentId=cc01f0a4-c006-44fb-bc86-12d4f6e8d491&projectId=9076ac92-be42-43a2-9634-8b67c7fe93a7","77D8BBD980704B8C82494AC3B8ECAF50-2025-05-22-19-16-00","","","i9n7+HOrm3YrR0hPalT2y6y1vnAgfZ6rUwx3taWZyek=","","","",""
"","","","","","html-audio-response","8","170501","0.0-4.1-1.1","77D8BBD980704B8C82494AC3B8ECAF50","77D8BBD980704B8C82494AC3B8ECAF50","cc01f0a4-c006-44fb-bc86-12d4f6e8d491","9076ac92-be42-43a2-9634-8b67c7fe93a7","{""num_scrambled_semantic"":""8"",""num_scrambled_causal"":""4"",""num_scrambled_schematic"":""4"",""participantId"":""77D8BBD980704B8C82494AC3B8ECAF50"",""assignmentId"":""cc01f0a4-c006-44fb-bc86-12d4f6e8d491"",""projectId"":""9076ac92-be42-43a2-9634-8b67c7fe93a7""}","https://test12345.live/?num_scrambled_semantic=8&num_scrambled_causal=4&num_scrambled_schematic=4&participantId=77D8BBD980704B8C82494AC3B8ECAF50&assignmentId=cc01f0a4-c006-44fb-bc86-12d4f6e8d491&projectId=9076ac92-be42-43a2-9634-8b67c7fe93a7","77D8BBD980704B8C82494AC3B8ECAF50-2025-05-22-19-16-00","","1438","","<span style=""color: red; font-size: 24px""> NOW RECORDING</span>
        <p>Please test Microphone</p>","","4",""
"","","","","","html-button-response","9","171299","0.0-4.1-2.1","77D8BBD980704B8C82494AC3B8ECAF50","77D8BBD980704B8C82494AC3B8ECAF50","cc01f0a4-c006-44fb-bc86-12d4f6e8d491","9076ac92-be42-43a2-9634-8b67c7fe93a7","{""num_scrambled_semantic"":""8"",""num_scrambled_causal"":""4"",""num_scrambled_schematic"":""4"",""participantId"":""77D8BBD980704B8C82494AC3B8ECAF50"",""assignmentId"":""cc01f0a4-c006-44fb-bc86-12d4f6e8d491"",""projectId"":""9076ac92-be42-43a2-9634-8b67c7fe93a7""}","https://test12345.live/?num_scrambled_semantic=8&num_scrambled_causal=4&num_scrambled_schematic=4&participantId=77D8BBD980704B8C82494AC3B8ECAF50&assignmentId=cc01f0a4-c006-44fb-bc86-12d4f6e8d491&projectId=9076ac92-be42-43a2-9634-8b67c7fe93a7","77D8BBD980704B8C82494AC3B8ECAF50-2025-05-22-19-16-00","","796","","<p style=""font-size:48px; color:red;"">Is Microphone OK?</p>","1","",""
"","","","","","instructions","10","187471","0.0-5.0","77D8BBD980704B8C82494AC3B8ECAF50","77D8BBD980704B8C82494AC3B8ECAF50","cc01f0a4-c006-44fb-bc86-12d4f6e8d491","9076ac92-be42-43a2-9634-8b67c7fe93a7","{""num_scrambled_semantic"":""8"",""num_scrambled_causal"":""4"",""num_scrambled_schematic"":""4"",""participantId"":""77D8BBD980704B8C82494AC3B8ECAF50"",""assignmentId"":""cc01f0a4-c006-44fb-bc86-12d4f6e8d491"",""projectId"":""9076ac92-be42-43a2-9634-8b67c7fe93a7""}","https://test12345.live/?num_scrambled_semantic=8&num_scrambled_causal=4&num_scrambled_schematic=4&participantId=77D8BBD980704B8C82494AC3B8ECAF50&assignmentId=cc01f0a4-c006-44fb-bc86-12d4f6e8d491&projectId=9076ac92-be42-43a2-9634-8b67c7fe93a7","77D8BBD980704B8C82494AC3B8ECAF50-2025-05-22-19-16-00","[{""page_index"":0,""viewing_time"":10475},{""page_index"":1,""viewing_time"":5696}]","16171","","","","",""
"","","","","","image-button-response","11","193518","0.0-6.0-0.0","77D8BBD980704B8C82494AC3B8ECAF50","77D8BBD980704B8C82494AC3B8ECAF50","cc01f0a4-c006-44fb-bc86-12d4f6e8d491","9076ac92-be42-43a2-9634-8b67c7fe93a7","{""num_scrambled_semantic"":""8"",""num_scrambled_causal"":""4"",""num_scrambled_schematic"":""4"",""participantId"":""77D8BBD980704B8C82494AC3B8ECAF50"",""assignmentId"":""cc01f0a4-c006-44fb-bc86-12d4f6e8d491"",""projectId"":""9076ac92-be42-43a2-9634-8b67c7fe93a7""}","https://test12345.live/?num_scrambled_semantic=8&num_scrambled_causal=4&num_scrambled_schematic=4&participantId=77D8BBD980704B8C82494AC3B8ECAF50&assignmentId=cc01f0a4-c006-44fb-bc86-12d4f6e8d491&projectId=9076ac92-be42-43a2-9634-8b67c7fe93a7","77D8BBD980704B8C82494AC3B8ECAF50-2025-05-22-19-16-00","","null","","images/instructions/movie_0.png","null","",""
"","","","","","image-button-response","12","198057","0.0-6.0-1.0-0.0","77D8BBD980704B8C82494AC3B8ECAF50","77D8BBD980704B8C82494AC3B8ECAF50","cc01f0a4-c006-44fb-bc86-12d4f6e8d491","9076ac92-be42-43a2-9634-8b67c7fe93a7","{""num_scrambled_semantic"":""8"",""num_scrambled_causal"":""4"",""num_scrambled_schematic"":""4"",""participantId"":""77D8BBD980704B8C82494AC3B8ECAF50"",""assignmentId"":""cc01f0a4-c006-44fb-bc86-12d4f6e8d491"",""projectId"":""9076ac92-be42-43a2-9634-8b67c7fe93a7""}","https://test12345.live/?num_scrambled_semantic=8&num_scrambled_causal=4&num_scrambled_schematic=4&participantId=77D8BBD980704B8C82494AC3B8ECAF50&assignmentId=cc01f0a4-c006-44fb-bc86-12d4f6e8d491&projectId=9076ac92-be42-43a2-9634-8b67c7fe93a7","77D8BBD980704B8C82494AC3B8ECAF50-2025-05-22-19-16-00","","null","","images/instructions/movie_1.png","null","",""
"","","","","","image-button-response","13","201854","0.0-6.0-1.0-1.0","77D8BBD980704B8C82494AC3B8ECAF50","77D8BBD980704B8C82494AC3B8ECAF50","cc01f0a4-c006-44fb-bc86-12d4f6e8d491","9076ac92-be42-43a2-9634-8b67c7fe93a7","{""num_scrambled_semantic"":""8"",""num_scrambled_causal"":""4"",""num_scrambled_schematic"":""4"",""participantId"":""77D8BBD980704B8C82494AC3B8ECAF50"",""assignmentId"":""cc01f0a4-c006-44fb-bc86-12d4f6e8d491"",""projectId"":""9076ac92-be42-43a2-9634-8b67c7fe93a7""}","https://test12345.live/?num_scrambled_semantic=8&num_scrambled_causal=4&num_scrambled_schematic=4&participantId=77D8BBD980704B8C82494AC3B8ECAF50&assignmentId=cc01f0a4-c006-44fb-bc86-12d4f6e8d491&projectId=9076ac92-be42-43a2-9634-8b67c7fe93a7","77D8BBD980704B8C82494AC3B8ECAF50-2025-05-22-19-16-00","","3796","","images/instructions/movie_1.png","0","",""
"","","","","","image-button-response","14","203876","0.0-6.0-1.0-2.0","77D8BBD980704B8C82494AC3B8ECAF50","77D8BBD980704B8C82494AC3B8ECAF50","cc01f0a4-c006-44fb-bc86-12d4f6e8d491","9076ac92-be42-43a2-9634-8b67c7fe93a7","{""num_scrambled_semantic"":""8"",""num_scrambled_causal"":""4"",""num_scrambled_schematic"":""4"",""participantId"":""77D8BBD980704B8C82494AC3B8ECAF50"",""assignmentId"":""cc01f0a4-c006-44fb-bc86-12d4f6e8d491"",""projectId"":""9076ac92-be42-43a2-9634-8b67c7fe93a7""}","https://test12345.live/?num_scrambled_semantic=8&num_scrambled_causal=4&num_scrambled_schematic=4&participantId=77D8BBD980704B8C82494AC3B8ECAF50&assignmentId=cc01f0a4-c006-44fb-bc86-12d4f6e8d491&projectId=9076ac92-be42-43a2-9634-8b67c7fe93a7","77D8BBD980704B8C82494AC3B8ECAF50-2025-05-22-19-16-00","","null","","[]","null","",""
"","","","","","image-button-response","15","208404","0.0-6.0-1.0-0.1","77D8BBD980704B8C82494AC3B8ECAF50","77D8BBD980704B8C82494AC3B8ECAF50","cc01f0a4-c006-44fb-bc86-12d4f6e8d491","9076ac92-be42-43a2-9634-8b67c7fe93a7","{""num_scrambled_semantic"":""8"",""num_scrambled_causal"":""4"",""num_scrambled_schematic"":""4"",""participantId"":""77D8BBD980704B8C82494AC3B8ECAF50"",""assignmentId"":""cc01f0a4-c006-44fb-bc86-12d4f6e8d491"",""projectId"":""9076ac92-be42-43a2-9634-8b67c7fe93a7""}","https://test12345.live/?num_scrambled_semantic=8&num_scrambled_causal=4&num_scrambled_schematic=4&participantId=77D8BBD980704B8C82494AC3B8ECAF50&assignmentId=cc01f0a4-c006-44fb-bc86-12d4f6e8d491&projectId=9076ac92-be42-43a2-9634-8b67c7fe93a7","77D8BBD980704B8C82494AC3B8ECAF50-2025-05-22-19-16-00","","null","","images/instructions/movie_2.png","null","",""
"","","","","","image-button-response","16","210914","0.0-6.0-1.0-1.1","77D8BBD980704B8C82494AC3B8ECAF50","77D8BBD980704B8C82494AC3B8ECAF50","cc01f0a4-c006-44fb-bc86-12d4f6e8d491","9076ac92-be42-43a2-9634-8b67c7fe93a7","{""num_scrambled_semantic"":""8"",""num_scrambled_causal"":""4"",""num_scrambled_schematic"":""4"",""participantId"":""77D8BBD980704B8C82494AC3B8ECAF50"",""assignmentId"":""cc01f0a4-c006-44fb-bc86-12d4f6e8d491"",""projectId"":""9076ac92-be42-43a2-9634-8b67c7fe93a7""}","https://test12345.live/?num_scrambled_semantic=8&num_scrambled_causal=4&num_scrambled_schematic=4&participantId=77D8BBD980704B8C82494AC3B8ECAF50&assignmentId=cc01f0a4-c006-44fb-bc86-12d4f6e8d491&projectId=9076ac92-be42-43a2-9634-8b67c7fe93a7","77D8BBD980704B8C82494AC3B8ECAF50-2025-05-22-19-16-00","","2508","","images/instructions/movie_2.png","1","",""
"","","","","","image-button-response","17","212725","0.0-6.0-1.0-2.1","77D8BBD980704B8C82494AC3B8ECAF50","77D8BBD980704B8C82494AC3B8ECAF50","cc01f0a4-c006-44fb-bc86-12d4f6e8d491","9076ac92-be42-43a2-9634-8b67c7fe93a7","{""num_scrambled_semantic"":""8"",""num_scrambled_causal"":""4"",""num_scrambled_schematic"":""4"",""participantId"":""77D8BBD980704B8C82494AC3B8ECAF50"",""assignmentId"":""cc01f0a4-c006-44fb-bc86-12d4f6e8d491"",""projectId"":""9076ac92-be42-43a2-9634-8b67c7fe93a7""}","https://test12345.live/?num_scrambled_semantic=8&num_scrambled_causal=4&num_scrambled_schematic=4&participantId=77D8BBD980704B8C82494AC3B8ECAF50&assignmentId=cc01f0a4-c006-44fb-bc86-12d4f6e8d491&projectId=9076ac92-be42-43a2-9634-8b67c7fe93a7","77D8BBD980704B8C82494AC3B8ECAF50-2025-05-22-19-16-00","","null","","[]","null","",""
"","","","","","image-button-response","18","217255","0.0-6.0-1.0-0.2","77D8BBD980704B8C82494AC3B8ECAF50","77D8BBD980704B8C82494AC3B8ECAF50","cc01f0a4-c006-44fb-bc86-12d4f6e8d491","9076ac92-be42-43a2-9634-8b67c7fe93a7","{""num_scrambled_semantic"":""8"",""num_scrambled_causal"":""4"",""num_scrambled_schematic"":""4"",""participantId"":""77D8BBD980704B8C82494AC3B8ECAF50"",""assignmentId"":""cc01f0a4-c006-44fb-bc86-12d4f6e8d491"",""projectId"":""9076ac92-be42-43a2-9634-8b67c7fe93a7""}","https://test12345.live/?num_scrambled_semantic=8&num_scrambled_causal=4&num_scrambled_schematic=4&participantId=77D8BBD980704B8C82494AC3B8ECAF50&assignmentId=cc01f0a4-c006-44fb-bc86-12d4f6e8d491&projectId=9076ac92-be42-43a2-9634-8b67c7fe93a7","77D8BBD980704B8C82494AC3B8ECAF50-2025-05-22-19-16-00","","null","","images/instructions/movie_3.png","null","",""
"","","","","","image-button-response","19","218681","0.0-6.0-1.0-1.2","77D8BBD980704B8C82494AC3B8ECAF50","77D8BBD980704B8C82494AC3B8ECAF50","cc01f0a4-c006-44fb-bc86-12d4f6e8d491","9076ac92-be42-43a2-9634-8b67c7fe93a7","{""num_scrambled_semantic"":""8"",""num_scrambled_causal"":""4"",""num_scrambled_schematic"":""4"",""participantId"":""77D8BBD980704B8C82494AC3B8ECAF50"",""assignmentId"":""cc01f0a4-c006-44fb-bc86-12d4f6e8d491"",""projectId"":""9076ac92-be42-43a2-9634-8b67c7fe93a7""}","https://test12345.live/?num_scrambled_semantic=8&num_scrambled_causal=4&num_scrambled_schematic=4&participantId=77D8BBD980704B8C82494AC3B8ECAF50&assignmentId=cc01f0a4-c006-44fb-bc86-12d4f6e8d491&projectId=9076ac92-be42-43a2-9634-8b67c7fe93a7","77D8BBD980704B8C82494AC3B8ECAF50-2025-05-22-19-16-00","","1423","","images/instructions/movie_3.png","0","",""
"","","","","","image-button-response","20","220688","0.0-6.0-1.0-2.2","77D8BBD980704B8C82494AC3B8ECAF50","77D8BBD980704B8C82494AC3B8ECAF50","cc01f0a4-c006-44fb-bc86-12d4f6e8d491","9076ac92-be42-43a2-9634-8b67c7fe93a7","{""num_scrambled_semantic"":""8"",""num_scrambled_causal"":""4"",""num_scrambled_schematic"":""4"",""participantId"":""77D8BBD980704B8C82494AC3B8ECAF50"",""assignmentId"":""cc01f0a4-c006-44fb-bc86-12d4f6e8d491"",""projectId"":""9076ac92-be42-43a2-9634-8b67c7fe93a7""}","https://test12345.live/?num_scrambled_semantic=8&num_scrambled_causal=4&num_scrambled_schematic=4&participantId=77D8BBD980704B8C82494AC3B8ECAF50&assignmentId=cc01f0a4-c006-44fb-bc86-12d4f6e8d491&projectId=9076ac92-be42-43a2-9634-8b67c7fe93a7","77D8BBD980704B8C82494AC3B8ECAF50-2025-05-22-19-16-00","","null","","[]","null","",""
"","","","","","image-button-response","21","225494","0.0-6.0-1.0-0.3","77D8BBD980704B8C82494AC3B8ECAF50","77D8BBD980704B8C82494AC3B8ECAF50","cc01f0a4-c006-44fb-bc86-12d4f6e8d491","9076ac92-be42-43a2-9634-8b67c7fe93a7","{""num_scrambled_semantic"":""8"",""num_scrambled_causal"":""4"",""num_scrambled_schematic"":""4"",""participantId"":""77D8BBD980704B8C82494AC3B8ECAF50"",""assignmentId"":""cc01f0a4-c006-44fb-bc86-12d4f6e8d491"",""projectId"":""9076ac92-be42-43a2-9634-8b67c7fe93a7""}","https://test12345.live/?num_scrambled_semantic=8&num_scrambled_causal=4&num_scrambled_schematic=4&participantId=77D8BBD980704B8C82494AC3B8ECAF50&assignmentId=cc01f0a4-c006-44fb-bc86-12d4f6e8d491&projectId=9076ac92-be42-43a2-9634-8b67c7fe93a7","77D8BBD980704B8C82494AC3B8ECAF50-2025-05-22-19-16-00","","null","","images/instructions/movie_4.png","null","",""
"","","","","","image-button-response","22","226968","0.0-6.0-1.0-1.3","77D8BBD980704B8C82494AC3B8ECAF50","77D8BBD980704B8C82494AC3B8ECAF50","cc01f0a4-c006-44fb-bc86-12d4f6e8d491","9076ac92-be42-43a2-9634-8b67c7fe93a7","{""num_scrambled_semantic"":""8"",""num_scrambled_causal"":""4"",""num_scrambled_schematic"":""4"",""participantId"":""77D8BBD980704B8C82494AC3B8ECAF50"",""assignmentId"":""cc01f0a4-c006-44fb-bc86-12d4f6e8d491"",""projectId"":""9076ac92-be42-43a2-9634-8b67c7fe93a7""}","https://test12345.live/?num_scrambled_semantic=8&num_scrambled_causal=4&num_scrambled_schematic=4&participantId=77D8BBD980704B8C82494AC3B8ECAF50&assignmentId=cc01f0a4-c006-44fb-bc86-12d4f6e8d491&projectId=9076ac92-be42-43a2-9634-8b67c7fe93a7","77D8BBD980704B8C82494AC3B8ECAF50-2025-05-22-19-16-00","","1474","","images/instructions/movie_4.png","0","",""
"","","","","","image-button-response","23","228770","0.0-6.0-1.0-2.3","77D8BBD980704B8C82494AC3B8ECAF50","77D8BBD980704B8C82494AC3B8ECAF50","cc01f0a4-c006-44fb-bc86-12d4f6e8d491","9076ac92-be42-43a2-9634-8b67c7fe93a7","{""num_scrambled_semantic"":""8"",""num_scrambled_causal"":""4"",""num_scrambled_schematic"":""4"",""participantId"":""77D8BBD980704B8C82494AC3B8ECAF50"",""assignmentId"":""cc01f0a4-c006-44fb-bc86-12d4f6e8d491"",""projectId"":""9076ac92-be42-43a2-9634-8b67c7fe93a7""}","https://test12345.live/?num_scrambled_semantic=8&num_scrambled_causal=4&num_scrambled_schematic=4&participantId=77D8BBD980704B8C82494AC3B8ECAF50&assignmentId=cc01f0a4-c006-44fb-bc86-12d4f6e8d491&projectId=9076ac92-be42-43a2-9634-8b67c7fe93a7","77D8BBD980704B8C82494AC3B8ECAF50-2025-05-22-19-16-00","","null","","[]","null","",""
"","","","","","instructions","24","241607","0.0-7.0","77D8BBD980704B8C82494AC3B8ECAF50","77D8BBD980704B8C82494AC3B8ECAF50","cc01f0a4-c006-44fb-bc86-12d4f6e8d491","9076ac92-be42-43a2-9634-8b67c7fe93a7","{""num_scrambled_semantic"":""8"",""num_scrambled_causal"":""4"",""num_scrambled_schematic"":""4"",""participantId"":""77D8BBD980704B8C82494AC3B8ECAF50"",""assignmentId"":""cc01f0a4-c006-44fb-bc86-12d4f6e8d491"",""projectId"":""9076ac92-be42-43a2-9634-8b67c7fe93a7""}","https://test12345.live/?num_scrambled_semantic=8&num_scrambled_causal=4&num_scrambled_schematic=4&participantId=77D8BBD980704B8C82494AC3B8ECAF50&assignmentId=cc01f0a4-c006-44fb-bc86-12d4f6e8d491&projectId=9076ac92-be42-43a2-9634-8b67c7fe93a7","77D8BBD980704B8C82494AC3B8ECAF50-2025-05-22-19-16-00","[{""page_index"":0,""viewing_time"":10039},{""page_index"":1,""viewing_time"":2797}]","12836","","","","",""
"","","","","","html-audio-response","25","407716","0.0-8.0","77D8BBD980704B8C82494AC3B8ECAF50","77D8BBD980704B8C82494AC3B8ECAF50","cc01f0a4-c006-44fb-bc86-12d4f6e8d491","9076ac92-be42-43a2-9634-8b67c7fe93a7","{""num_scrambled_semantic"":""8"",""num_scrambled_causal"":""4"",""num_scrambled_schematic"":""4"",""participantId"":""77D8BBD980704B8C82494AC3B8ECAF50"",""assignmentId"":""cc01f0a4-c006-44fb-bc86-12d4f6e8d491"",""projectId"":""9076ac92-be42-43a2-9634-8b67c7fe93a7""}","https://test12345.live/?num_scrambled_semantic=8&num_scrambled_causal=4&num_scrambled_schematic=4&participantId=77D8BBD980704B8C82494AC3B8ECAF50&assignmentId=cc01f0a4-c006-44fb-bc86-12d4f6e8d491&projectId=9076ac92-be42-43a2-9634-8b67c7fe93a7","77D8BBD980704B8C82494AC3B8ECAF50-2025-05-22-19-16-00","","null","","[""<span style=\""color: red; font-size: 24px\""> NOW RECORDING</span><p>Please say out loud all the images you saw in the exact order you saw them. Try to recall as many images as you can, but remember: getting the order right is more important than the number of images you recall.</p>""]","","2",""
"","","","","","instructions","26","412889","0.0-9.0","77D8BBD980704B8C82494AC3B8ECAF50","77D8BBD980704B8C82494AC3B8ECAF50","cc01f0a4-c006-44fb-bc86-12d4f6e8d491","9076ac92-be42-43a2-9634-8b67c7fe93a7","{""num_scrambled_semantic"":""8"",""num_scrambled_causal"":""4"",""num_scrambled_schematic"":""4"",""participantId"":""77D8BBD980704B8C82494AC3B8ECAF50"",""assignmentId"":""cc01f0a4-c006-44fb-bc86-12d4f6e8d491"",""projectId"":""9076ac92-be42-43a2-9634-8b67c7fe93a7""}","https://test12345.live/?num_scrambled_semantic=8&num_scrambled_causal=4&num_scrambled_schematic=4&participantId=77D8BBD980704B8C82494AC3B8ECAF50&assignmentId=cc01f0a4-c006-44fb-bc86-12d4f6e8d491&projectId=9076ac92-be42-43a2-9634-8b67c7fe93a7","77D8BBD980704B8C82494AC3B8ECAF50-2025-05-22-19-16-00","[{""page_index"":0,""viewing_time"":5167}]","5167","","","","",""
"","","","","","image-button-response","27","419249","0.0-10.0-0.0","77D8BBD980704B8C82494AC3B8ECAF50","77D8BBD980704B8C82494AC3B8ECAF50","cc01f0a4-c006-44fb-bc86-12d4f6e8d491","9076ac92-be42-43a2-9634-8b67c7fe93a7","{""num_scrambled_semantic"":""8"",""num_scrambled_causal"":""4"",""num_scrambled_schematic"":""4"",""participantId"":""77D8BBD980704B8C82494AC3B8ECAF50"",""assignmentId"":""cc01f0a4-c006-44fb-bc86-12d4f6e8d491"",""projectId"":""9076ac92-be42-43a2-9634-8b67c7fe93a7""}","https://test12345.live/?num_scrambled_semantic=8&num_scrambled_causal=4&num_scrambled_schematic=4&participantId=77D8BBD980704B8C82494AC3B8ECAF50&assignmentId=cc01f0a4-c006-44fb-bc86-12d4f6e8d491&projectId=9076ac92-be42-43a2-9634-8b67c7fe93a7","77D8BBD980704B8C82494AC3B8ECAF50-2025-05-22-19-16-00","","null","","images/causal_sequence/dog_causal/dog_causal_0.png","null","",""
"","","","","","image-button-response","28","424301","0.0-10.0-1.0-0.0","77D8BBD980704B8C82494AC3B8ECAF50","77D8BBD980704B8C82494AC3B8ECAF50","cc01f0a4-c006-44fb-bc86-12d4f6e8d491","9076ac92-be42-43a2-9634-8b67c7fe93a7","{""num_scrambled_semantic"":""8"",""num_scrambled_causal"":""4"",""num_scrambled_schematic"":""4"",""participantId"":""77D8BBD980704B8C82494AC3B8ECAF50"",""assignmentId"":""cc01f0a4-c006-44fb-bc86-12d4f6e8d491"",""projectId"":""9076ac92-be42-43a2-9634-8b67c7fe93a7""}","https://test12345.live/?num_scrambled_semantic=8&num_scrambled_causal=4&num_scrambled_schematic=4&participantId=77D8BBD980704B8C82494AC3B8ECAF50&assignmentId=cc01f0a4-c006-44fb-bc86-12d4f6e8d491&projectId=9076ac92-be42-43a2-9634-8b67c7fe93a7","77D8BBD980704B8C82494AC3B8ECAF50-2025-05-22-19-16-00","","null","","images/causal_sequence/dog_causal/dog_causal_3.png","null","",""
"","","","","","image-button-response","29","427840","0.0-10.0-1.0-1.0","77D8BBD980704B8C82494AC3B8ECAF50","77D8BBD980704B8C82494AC3B8ECAF50","cc01f0a4-c006-44fb-bc86-12d4f6e8d491","9076ac92-be42-43a2-9634-8b67c7fe93a7","{""num_scrambled_semantic"":""8"",""num_scrambled_causal"":""4"",""num_scrambled_schematic"":""4"",""participantId"":""77D8BBD980704B8C82494AC3B8ECAF50"",""assignmentId"":""cc01f0a4-c006-44fb-bc86-12d4f6e8d491"",""projectId"":""9076ac92-be42-43a2-9634-8b67c7fe93a7""}","https://test12345.live/?num_scrambled_semantic=8&num_scrambled_causal=4&num_scrambled_schematic=4&participantId=77D8BBD980704B8C82494AC3B8ECAF50&assignmentId=cc01f0a4-c006-44fb-bc86-12d4f6e8d491&projectId=9076ac92-be42-43a2-9634-8b67c7fe93a7","77D8BBD980704B8C82494AC3B8ECAF50-2025-05-22-19-16-00","","3538","","images/causal_sequence/dog_causal/dog_causal_3.png","0","",""
"","","","","","image-button-response","30","429862","0.0-10.0-1.0-2.0","77D8BBD980704B8C82494AC3B8ECAF50","77D8BBD980704B8C82494AC3B8ECAF50","cc01f0a4-c006-44fb-bc86-12d4f6e8d491","9076ac92-be42-43a2-9634-8b67c7fe93a7","{""num_scrambled_semantic"":""8"",""num_scrambled_causal"":""4"",""num_scrambled_schematic"":""4"",""participantId"":""77D8BBD980704B8C82494AC3B8ECAF50"",""assignmentId"":""cc01f0a4-c006-44fb-bc86-12d4f6e8d491"",""projectId"":""9076ac92-be42-43a2-9634-8b67c7fe93a7""}","https://test12345.live/?num_scrambled_semantic=8&num_scrambled_causal=4&num_scrambled_schematic=4&participantId=77D8BBD980704B8C82494AC3B8ECAF50&assignmentId=cc01f0a4-c006-44fb-bc86-12d4f6e8d491&projectId=9076ac92-be42-43a2-9634-8b67c7fe93a7","77D8BBD980704B8C82494AC3B8ECAF50-2025-05-22-19-16-00","","null","","[]","null","",""
"","","","","","image-button-response","31","434537","0.0-10.0-1.0-0.1","77D8BBD980704B8C82494AC3B8ECAF50","77D8BBD980704B8C82494AC3B8ECAF50","cc01f0a4-c006-44fb-bc86-12d4f6e8d491","9076ac92-be42-43a2-9634-8b67c7fe93a7","{""num_scrambled_semantic"":""8"",""num_scrambled_causal"":""4"",""num_scrambled_schematic"":""4"",""participantId"":""77D8BBD980704B8C82494AC3B8ECAF50"",""assignmentId"":""cc01f0a4-c006-44fb-bc86-12d4f6e8d491"",""projectId"":""9076ac92-be42-43a2-9634-8b67c7fe93a7""}","https://test12345.live/?num_scrambled_semantic=8&num_scrambled_causal=4&num_scrambled_schematic=4&participantId=77D8BBD980704B8C82494AC3B8ECAF50&assignmentId=cc01f0a4-c006-44fb-bc86-12d4f6e8d491&projectId=9076ac92-be42-43a2-9634-8b67c7fe93a7","77D8BBD980704B8C82494AC3B8ECAF50-2025-05-22-19-16-00","","null","","images/causal_sequence/dog_causal/dog_causal_9.png","null","",""
"","","","","","image-button-response","32","437708","0.0-10.0-1.0-1.1","77D8BBD980704B8C82494AC3B8ECAF50","77D8BBD980704B8C82494AC3B8ECAF50","cc01f0a4-c006-44fb-bc86-12d4f6e8d491","9076ac92-be42-43a2-9634-8b67c7fe93a7","{""num_scrambled_semantic"":""8"",""num_scrambled_causal"":""4"",""num_scrambled_schematic"":""4"",""participantId"":""77D8BBD980704B8C82494AC3B8ECAF50"",""assignmentId"":""cc01f0a4-c006-44fb-bc86-12d4f6e8d491"",""projectId"":""9076ac92-be42-43a2-9634-8b67c7fe93a7""}","https://test12345.live/?num_scrambled_semantic=8&num_scrambled_causal=4&num_scrambled_schematic=4&participantId=77D8BBD980704B8C82494AC3B8ECAF50&assignmentId=cc01f0a4-c006-44fb-bc86-12d4f6e8d491&projectId=9076ac92-be42-43a2-9634-8b67c7fe93a7","77D8BBD980704B8C82494AC3B8ECAF50-2025-05-22-19-16-00","","3171","","images/causal_sequence/dog_causal/dog_causal_9.png","0","",""
"","","","","","image-button-response","33","439723","0.0-10.0-1.0-2.1","77D8BBD980704B8C82494AC3B8ECAF50","77D8BBD980704B8C82494AC3B8ECAF50","cc01f0a4-c006-44fb-bc86-12d4f6e8d491","9076ac92-be42-43a2-9634-8b67c7fe93a7","{""num_scrambled_semantic"":""8"",""num_scrambled_causal"":""4"",""num_scrambled_schematic"":""4"",""participantId"":""77D8BBD980704B8C82494AC3B8ECAF50"",""assignmentId"":""cc01f0a4-c006-44fb-bc86-12d4f6e8d491"",""projectId"":""9076ac92-be42-43a2-9634-8b67c7fe93a7""}","https://test12345.live/?num_scrambled_semantic=8&num_scrambled_causal=4&num_scrambled_schematic=4&participantId=77D8BBD980704B8C82494AC3B8ECAF50&assignmentId=cc01f0a4-c006-44fb-bc86-12d4f6e8d491&projectId=9076ac92-be42-43a2-9634-8b67c7fe93a7","77D8BBD980704B8C82494AC3B8ECAF50-2025-05-22-19-16-00","","null","","[]","null","",""
"","","","","","image-button-response","34","444771","0.0-10.0-1.0-0.2","77D8BBD980704B8C82494AC3B8ECAF50","77D8BBD980704B8C82494AC3B8ECAF50","cc01f0a4-c006-44fb-bc86-12d4f6e8d491","9076ac92-be42-43a2-9634-8b67c7fe93a7","{""num_scrambled_semantic"":""8"",""num_scrambled_causal"":""4"",""num_scrambled_schematic"":""4"",""participantId"":""77D8BBD980704B8C82494AC3B8ECAF50"",""assignmentId"":""cc01f0a4-c006-44fb-bc86-12d4f6e8d491"",""projectId"":""9076ac92-be42-43a2-9634-8b67c7fe93a7""}","https://test12345.live/?num_scrambled_semantic=8&num_scrambled_causal=4&num_scrambled_schematic=4&participantId=77D8BBD980704B8C82494AC3B8ECAF50&assignmentId=cc01f0a4-c006-44fb-bc86-12d4f6e8d491&projectId=9076ac92-be42-43a2-9634-8b67c7fe93a7","77D8BBD980704B8C82494AC3B8ECAF50-2025-05-22-19-16-00","","null","","images/causal_sequence/dog_causal/dog_causal_4.png","null","",""
"","","","","","image-button-response","35","448812","0.0-10.0-1.0-1.2","77D8BBD980704B8C82494AC3B8ECAF50","77D8BBD980704B8C82494AC3B8ECAF50","cc01f0a4-c006-44fb-bc86-12d4f6e8d491","9076ac92-be42-43a2-9634-8b67c7fe93a7","{""num_scrambled_semantic"":""8"",""num_scrambled_causal"":""4"",""num_scrambled_schematic"":""4"",""participantId"":""77D8BBD980704B8C82494AC3B8ECAF50"",""assignmentId"":""cc01f0a4-c006-44fb-bc86-12d4f6e8d491"",""projectId"":""9076ac92-be42-43a2-9634-8b67c7fe93a7""}","https://test12345.live/?num_scrambled_semantic=8&num_scrambled_causal=4&num_scrambled_schematic=4&participantId=77D8BBD980704B8C82494AC3B8ECAF50&assignmentId=cc01f0a4-c006-44fb-bc86-12d4f6e8d491&projectId=9076ac92-be42-43a2-9634-8b67c7fe93a7","77D8BBD980704B8C82494AC3B8ECAF50-2025-05-22-19-16-00","","null","","images/causal_sequence/dog_causal/dog_causal_4.png","null","",""
"","","","","","image-button-response","36","450628","0.0-10.0-1.0-2.2","77D8BBD980704B8C82494AC3B8ECAF50","77D8BBD980704B8C82494AC3B8ECAF50","cc01f0a4-c006-44fb-bc86-12d4f6e8d491","9076ac92-be42-43a2-9634-8b67c7fe93a7","{""num_scrambled_semantic"":""8"",""num_scrambled_causal"":""4"",""num_scrambled_schematic"":""4"",""participantId"":""77D8BBD980704B8C82494AC3B8ECAF50"",""assignmentId"":""cc01f0a4-c006-44fb-bc86-12d4f6e8d491"",""projectId"":""9076ac92-be42-43a2-9634-8b67c7fe93a7""}","https://test12345.live/?num_scrambled_semantic=8&num_scrambled_causal=4&num_scrambled_schematic=4&participantId=77D8BBD980704B8C82494AC3B8ECAF50&assignmentId=cc01f0a4-c006-44fb-bc86-12d4f6e8d491&projectId=9076ac92-be42-43a2-9634-8b67c7fe93a7","77D8BBD980704B8C82494AC3B8ECAF50-2025-05-22-19-16-00","","null","","[]","null","",""
"","","","","","image-button-response","37","455163","0.0-10.0-1.0-0.3","77D8BBD980704B8C82494AC3B8ECAF50","77D8BBD980704B8C82494AC3B8ECAF50","cc01f0a4-c006-44fb-bc86-12d4f6e8d491","9076ac92-be42-43a2-9634-8b67c7fe93a7","{""num_scrambled_semantic"":""8"",""num_scrambled_causal"":""4"",""num_scrambled_schematic"":""4"",""participantId"":""77D8BBD980704B8C82494AC3B8ECAF50"",""assignmentId"":""cc01f0a4-c006-44fb-bc86-12d4f6e8d491"",""projectId"":""9076ac92-be42-43a2-9634-8b67c7fe93a7""}","https://test12345.live/?num_scrambled_semantic=8&num_scrambled_causal=4&num_scrambled_schematic=4&participantId=77D8BBD980704B8C82494AC3B8ECAF50&assignmentId=cc01f0a4-c006-44fb-bc86-12d4f6e8d491&projectId=9076ac92-be42-43a2-9634-8b67c7fe93a7","77D8BBD980704B8C82494AC3B8ECAF50-2025-05-22-19-16-00","","null","","images/causal_sequence/dog_causal/dog_causal_5.png","null","",""
"","","","","","image-button-response","38","457479","0.0-10.0-1.0-1.3","77D8BBD980704B8C82494AC3B8ECAF50","77D8BBD980704B8C82494AC3B8ECAF50","cc01f0a4-c006-44fb-bc86-12d4f6e8d491","9076ac92-be42-43a2-9634-8b67c7fe93a7","{""num_scrambled_semantic"":""8"",""num_scrambled_causal"":""4"",""num_scrambled_schematic"":""4"",""participantId"":""77D8BBD980704B8C82494AC3B8ECAF50"",""assignmentId"":""cc01f0a4-c006-44fb-bc86-12d4f6e8d491"",""projectId"":""9076ac92-be42-43a2-9634-8b67c7fe93a7""}","https://test12345.live/?num_scrambled_semantic=8&num_scrambled_causal=4&num_scrambled_schematic=4&participantId=77D8BBD980704B8C82494AC3B8ECAF50&assignmentId=cc01f0a4-c006-44fb-bc86-12d4f6e8d491&projectId=9076ac92-be42-43a2-9634-8b67c7fe93a7","77D8BBD980704B8C82494AC3B8ECAF50-2025-05-22-19-16-00","","2314","","images/causal_sequence/dog_causal/dog_causal_5.png","0","",""
"","","","","","image-button-response","39","459292","0.0-10.0-1.0-2.3","77D8BBD980704B8C82494AC3B8ECAF50","77D8BBD980704B8C82494AC3B8ECAF50","cc01f0a4-c006-44fb-bc86-12d4f6e8d491","9076ac92-be42-43a2-9634-8b67c7fe93a7","{""num_scrambled_semantic"":""8"",""num_scrambled_causal"":""4"",""num_scrambled_schematic"":""4"",""participantId"":""77D8BBD980704B8C82494AC3B8ECAF50"",""assignmentId"":""cc01f0a4-c006-44fb-bc86-12d4f6e8d491"",""projectId"":""9076ac92-be42-43a2-9634-8b67c7fe93a7""}","https://test12345.live/?num_scrambled_semantic=8&num_scrambled_causal=4&num_scrambled_schematic=4&participantId=77D8BBD980704B8C82494AC3B8ECAF50&assignmentId=cc01f0a4-c006-44fb-bc86-12d4f6e8d491&projectId=9076ac92-be42-43a2-9634-8b67c7fe93a7","77D8BBD980704B8C82494AC3B8ECAF50-2025-05-22-19-16-00","","null","","[]","null","",""
"","","","","","image-button-response","40","463845","0.0-10.0-1.0-0.4","77D8BBD980704B8C82494AC3B8ECAF50","77D8BBD980704B8C82494AC3B8ECAF50","cc01f0a4-c006-44fb-bc86-12d4f6e8d491","9076ac92-be42-43a2-9634-8b67c7fe93a7","{""num_scrambled_semantic"":""8"",""num_scrambled_causal"":""4"",""num_scrambled_schematic"":""4"",""participantId"":""77D8BBD980704B8C82494AC3B8ECAF50"",""assignmentId"":""cc01f0a4-c006-44fb-bc86-12d4f6e8d491"",""projectId"":""9076ac92-be42-43a2-9634-8b67c7fe93a7""}","https://test12345.live/?num_scrambled_semantic=8&num_scrambled_causal=4&num_scrambled_schematic=4&participantId=77D8BBD980704B8C82494AC3B8ECAF50&assignmentId=cc01f0a4-c006-44fb-bc86-12d4f6e8d491&projectId=9076ac92-be42-43a2-9634-8b67c7fe93a7","77D8BBD980704B8C82494AC3B8ECAF50-2025-05-22-19-16-00","","null","","images/causal_sequence/dog_causal/dog_causal_2.png","null","",""
"","","","","","image-button-response","41","465753","0.0-10.0-1.0-1.4","77D8BBD980704B8C82494AC3B8ECAF50","77D8BBD980704B8C82494AC3B8ECAF50","cc01f0a4-c006-44fb-bc86-12d4f6e8d491","9076ac92-be42-43a2-9634-8b67c7fe93a7","{""num_scrambled_semantic"":""8"",""num_scrambled_causal"":""4"",""num_scrambled_schematic"":""4"",""participantId"":""77D8BBD980704B8C82494AC3B8ECAF50"",""assignmentId"":""cc01f0a4-c006-44fb-bc86-12d4f6e8d491"",""projectId"":""9076ac92-be42-43a2-9634-8b67c7fe93a7""}","https://test12345.live/?num_scrambled_semantic=8&num_scrambled_causal=4&num_scrambled_schematic=4&participantId=77D8BBD980704B8C82494AC3B8ECAF50&assignmentId=cc01f0a4-c006-44fb-bc86-12d4f6e8d491&projectId=9076ac92-be42-43a2-9634-8b67c7fe93a7","77D8BBD980704B8C82494AC3B8ECAF50-2025-05-22-19-16-00","","1908","","images/causal_sequence/dog_causal/dog_causal_2.png","0","",""
"","","","","","image-button-response","42","467556","0.0-10.0-1.0-2.4","77D8BBD980704B8C82494AC3B8ECAF50","77D8BBD980704B8C82494AC3B8ECAF50","cc01f0a4-c006-44fb-bc86-12d4f6e8d491","9076ac92-be42-43a2-9634-8b67c7fe93a7","{""num_scrambled_semantic"":""8"",""num_scrambled_causal"":""4"",""num_scrambled_schematic"":""4"",""participantId"":""77D8BBD980704B8C82494AC3B8ECAF50"",""assignmentId"":""cc01f0a4-c006-44fb-bc86-12d4f6e8d491"",""projectId"":""9076ac92-be42-43a2-9634-8b67c7fe93a7""}","https://test12345.live/?num_scrambled_semantic=8&num_scrambled_causal=4&num_scrambled_schematic=4&participantId=77D8BBD980704B8C82494AC3B8ECAF50&assignmentId=cc01f0a4-c006-44fb-bc86-12d4f6e8d491&projectId=9076ac92-be42-43a2-9634-8b67c7fe93a7","77D8BBD980704B8C82494AC3B8ECAF50-2025-05-22-19-16-00","","null","","[]","null","",""
"","","","","","image-button-response","43","472122","0.0-10.0-1.0-0.5","77D8BBD980704B8C82494AC3B8ECAF50","77D8BBD980704B8C82494AC3B8ECAF50","cc01f0a4-c006-44fb-bc86-12d4f6e8d491","9076ac92-be42-43a2-9634-8b67c7fe93a7","{""num_scrambled_semantic"":""8"",""num_scrambled_causal"":""4"",""num_scrambled_schematic"":""4"",""participantId"":""77D8BBD980704B8C82494AC3B8ECAF50"",""assignmentId"":""cc01f0a4-c006-44fb-bc86-12d4f6e8d491"",""projectId"":""9076ac92-be42-43a2-9634-8b67c7fe93a7""}","https://test12345.live/?num_scrambled_semantic=8&num_scrambled_causal=4&num_scrambled_schematic=4&participantId=77D8BBD980704B8C82494AC3B8ECAF50&assignmentId=cc01f0a4-c006-44fb-bc86-12d4f6e8d491&projectId=9076ac92-be42-43a2-9634-8b67c7fe93a7","77D8BBD980704B8C82494AC3B8ECAF50-2025-05-22-19-16-00","","null","","images/causal_sequence/dog_causal/dog_causal_7.png","null","",""
"","","","","","image-button-response","44","473298","0.0-10.0-1.0-1.5","77D8BBD980704B8C82494AC3B8ECAF50","77D8BBD980704B8C82494AC3B8ECAF50","cc01f0a4-c006-44fb-bc86-12d4f6e8d491","9076ac92-be42-43a2-9634-8b67c7fe93a7","{""num_scrambled_semantic"":""8"",""num_scrambled_causal"":""4"",""num_scrambled_schematic"":""4"",""participantId"":""77D8BBD980704B8C82494AC3B8ECAF50"",""assignmentId"":""cc01f0a4-c006-44fb-bc86-12d4f6e8d491"",""projectId"":""9076ac92-be42-43a2-9634-8b67c7fe93a7""}","https://test12345.live/?num_scrambled_semantic=8&num_scrambled_causal=4&num_scrambled_schematic=4&participantId=77D8BBD980704B8C82494AC3B8ECAF50&assignmentId=cc01f0a4-c006-44fb-bc86-12d4f6e8d491&projectId=9076ac92-be42-43a2-9634-8b67c7fe93a7","77D8BBD980704B8C82494AC3B8ECAF50-2025-05-22-19-16-00","","1175","","images/causal_sequence/dog_causal/dog_causal_7.png","0","",""
"","","","","","image-button-response","45","475230","0.0-10.0-1.0-2.5","77D8BBD980704B8C82494AC3B8ECAF50","77D8BBD980704B8C82494AC3B8ECAF50","cc01f0a4-c006-44fb-bc86-12d4f6e8d491","9076ac92-be42-43a2-9634-8b67c7fe93a7","{""num_scrambled_semantic"":""8"",""num_scrambled_causal"":""4"",""num_scrambled_schematic"":""4"",""participantId"":""77D8BBD980704B8C82494AC3B8ECAF50"",""assignmentId"":""cc01f0a4-c006-44fb-bc86-12d4f6e8d491"",""projectId"":""9076ac92-be42-43a2-9634-8b67c7fe93a7""}","https://test12345.live/?num_scrambled_semantic=8&num_scrambled_causal=4&num_scrambled_schematic=4&participantId=77D8BBD980704B8C82494AC3B8ECAF50&assignmentId=cc01f0a4-c006-44fb-bc86-12d4f6e8d491&projectId=9076ac92-be42-43a2-9634-8b67c7fe93a7","77D8BBD980704B8C82494AC3B8ECAF50-2025-05-22-19-16-00","","null","","[]","null","",""
"","","","","","image-button-response","46","479772","0.0-10.0-1.0-0.6","77D8BBD980704B8C82494AC3B8ECAF50","77D8BBD980704B8C82494AC3B8ECAF50","cc01f0a4-c006-44fb-bc86-12d4f6e8d491","9076ac92-be42-43a2-9634-8b67c7fe93a7","{""num_scrambled_semantic"":""8"",""num_scrambled_causal"":""4"",""num_scrambled_schematic"":""4"",""participantId"":""77D8BBD980704B8C82494AC3B8ECAF50"",""assignmentId"":""cc01f0a4-c006-44fb-bc86-12d4f6e8d491"",""projectId"":""9076ac92-be42-43a2-9634-8b67c7fe93a7""}","https://test12345.live/?num_scrambled_semantic=8&num_scrambled_causal=4&num_scrambled_schematic=4&participantId=77D8BBD980704B8C82494AC3B8ECAF50&assignmentId=cc01f0a4-c006-44fb-bc86-12d4f6e8d491&projectId=9076ac92-be42-43a2-9634-8b67c7fe93a7","77D8BBD980704B8C82494AC3B8ECAF50-2025-05-22-19-16-00","","null","","images/causal_sequence/dog_causal/dog_causal_1.png","null","",""
"","","","","","image-button-response","47","481183","0.0-10.0-1.0-1.6","77D8BBD980704B8C82494AC3B8ECAF50","77D8BBD980704B8C82494AC3B8ECAF50","cc01f0a4-c006-44fb-bc86-12d4f6e8d491","9076ac92-be42-43a2-9634-8b67c7fe93a7","{""num_scrambled_semantic"":""8"",""num_scrambled_causal"":""4"",""num_scrambled_schematic"":""4"",""participantId"":""77D8BBD980704B8C82494AC3B8ECAF50"",""assignmentId"":""cc01f0a4-c006-44fb-bc86-12d4f6e8d491"",""projectId"":""9076ac92-be42-43a2-9634-8b67c7fe93a7""}","https://test12345.live/?num_scrambled_semantic=8&num_scrambled_causal=4&num_scrambled_schematic=4&participantId=77D8BBD980704B8C82494AC3B8ECAF50&assignmentId=cc01f0a4-c006-44fb-bc86-12d4f6e8d491&projectId=9076ac92-be42-43a2-9634-8b67c7fe93a7","77D8BBD980704B8C82494AC3B8ECAF50-2025-05-22-19-16-00","","1411","","images/causal_sequence/dog_causal/dog_causal_1.png","0","",""
"","","","","","image-button-response","48","483196","0.0-10.0-1.0-2.6","77D8BBD980704B8C82494AC3B8ECAF50","77D8BBD980704B8C82494AC3B8ECAF50","cc01f0a4-c006-44fb-bc86-12d4f6e8d491","9076ac92-be42-43a2-9634-8b67c7fe93a7","{""num_scrambled_semantic"":""8"",""num_scrambled_causal"":""4"",""num_scrambled_schematic"":""4"",""participantId"":""77D8BBD980704B8C82494AC3B8ECAF50"",""assignmentId"":""cc01f0a4-c006-44fb-bc86-12d4f6e8d491"",""projectId"":""9076ac92-be42-43a2-9634-8b67c7fe93a7""}","https://test12345.live/?num_scrambled_semantic=8&num_scrambled_causal=4&num_scrambled_schematic=4&participantId=77D8BBD980704B8C82494AC3B8ECAF50&assignmentId=cc01f0a4-c006-44fb-bc86-12d4f6e8d491&projectId=9076ac92-be42-43a2-9634-8b67c7fe93a7","77D8BBD980704B8C82494AC3B8ECAF50-2025-05-22-19-16-00","","null","","[]","null","",""
"","","","","","image-button-response","49","487858","0.0-10.0-1.0-0.7","77D8BBD980704B8C82494AC3B8ECAF50","77D8BBD980704B8C82494AC3B8ECAF50","cc01f0a4-c006-44fb-bc86-12d4f6e8d491","9076ac92-be42-43a2-9634-8b67c7fe93a7","{""num_scrambled_semantic"":""8"",""num_scrambled_causal"":""4"",""num_scrambled_schematic"":""4"",""participantId"":""77D8BBD980704B8C82494AC3B8ECAF50"",""assignmentId"":""cc01f0a4-c006-44fb-bc86-12d4f6e8d491"",""projectId"":""9076ac92-be42-43a2-9634-8b67c7fe93a7""}","https://test12345.live/?num_scrambled_semantic=8&num_scrambled_causal=4&num_scrambled_schematic=4&participantId=77D8BBD980704B8C82494AC3B8ECAF50&assignmentId=cc01f0a4-c006-44fb-bc86-12d4f6e8d491&projectId=9076ac92-be42-43a2-9634-8b67c7fe93a7","77D8BBD980704B8C82494AC3B8ECAF50-2025-05-22-19-16-00","","null","","images/causal_sequence/dog_causal/dog_causal_ten.png","null","",""
"","","","","","image-button-response","50","489801","0.0-10.0-1.0-1.7","77D8BBD980704B8C82494AC3B8ECAF50","77D8BBD980704B8C82494AC3B8ECAF50","cc01f0a4-c006-44fb-bc86-12d4f6e8d491","9076ac92-be42-43a2-9634-8b67c7fe93a7","{""num_scrambled_semantic"":""8"",""num_scrambled_causal"":""4"",""num_scrambled_schematic"":""4"",""participantId"":""77D8BBD980704B8C82494AC3B8ECAF50"",""assignmentId"":""cc01f0a4-c006-44fb-bc86-12d4f6e8d491"",""projectId"":""9076ac92-be42-43a2-9634-8b67c7fe93a7""}","https://test12345.live/?num_scrambled_semantic=8&num_scrambled_causal=4&num_scrambled_schematic=4&participantId=77D8BBD980704B8C82494AC3B8ECAF50&assignmentId=cc01f0a4-c006-44fb-bc86-12d4f6e8d491&projectId=9076ac92-be42-43a2-9634-8b67c7fe93a7","77D8BBD980704B8C82494AC3B8ECAF50-2025-05-22-19-16-00","","1942","","images/causal_sequence/dog_causal/dog_causal_ten.png","0","",""
"","","","","","image-button-response","51","491612","0.0-10.0-1.0-2.7","77D8BBD980704B8C82494AC3B8ECAF50","77D8BBD980704B8C82494AC3B8ECAF50","cc01f0a4-c006-44fb-bc86-12d4f6e8d491","9076ac92-be42-43a2-9634-8b67c7fe93a7","{""num_scrambled_semantic"":""8"",""num_scrambled_causal"":""4"",""num_scrambled_schematic"":""4"",""participantId"":""77D8BBD980704B8C82494AC3B8ECAF50"",""assignmentId"":""cc01f0a4-c006-44fb-bc86-12d4f6e8d491"",""projectId"":""9076ac92-be42-43a2-9634-8b67c7fe93a7""}","https://test12345.live/?num_scrambled_semantic=8&num_scrambled_causal=4&num_scrambled_schematic=4&participantId=77D8BBD980704B8C82494AC3B8ECAF50&assignmentId=cc01f0a4-c006-44fb-bc86-12d4f6e8d491&projectId=9076ac92-be42-43a2-9634-8b67c7fe93a7","77D8BBD980704B8C82494AC3B8ECAF50-2025-05-22-19-16-00","","null","","[]","null","",""
"","","","","","image-button-response","52","496216","0.0-10.0-1.0-0.8","77D8BBD980704B8C82494AC3B8ECAF50","77D8BBD980704B8C82494AC3B8ECAF50","cc01f0a4-c006-44fb-bc86-12d4f6e8d491","9076ac92-be42-43a2-9634-8b67c7fe93a7","{""num_scrambled_semantic"":""8"",""num_scrambled_causal"":""4"",""num_scrambled_schematic"":""4"",""participantId"":""77D8BBD980704B8C82494AC3B8ECAF50"",""assignmentId"":""cc01f0a4-c006-44fb-bc86-12d4f6e8d491"",""projectId"":""9076ac92-be42-43a2-9634-8b67c7fe93a7""}","https://test12345.live/?num_scrambled_semantic=8&num_scrambled_causal=4&num_scrambled_schematic=4&participantId=77D8BBD980704B8C82494AC3B8ECAF50&assignmentId=cc01f0a4-c006-44fb-bc86-12d4f6e8d491&projectId=9076ac92-be42-43a2-9634-8b67c7fe93a7","77D8BBD980704B8C82494AC3B8ECAF50-2025-05-22-19-16-00","","null","","images/causal_sequence/dog_causal/dog_causal_8.png","null","",""
"","","","","","image-button-response","53","500165","0.0-10.0-1.0-1.8","77D8BBD980704B8C82494AC3B8ECAF50","77D8BBD980704B8C82494AC3B8ECAF50","cc01f0a4-c006-44fb-bc86-12d4f6e8d491","9076ac92-be42-43a2-9634-8b67c7fe93a7","{""num_scrambled_semantic"":""8"",""num_scrambled_causal"":""4"",""num_scrambled_schematic"":""4"",""participantId"":""77D8BBD980704B8C82494AC3B8ECAF50"",""assignmentId"":""cc01f0a4-c006-44fb-bc86-12d4f6e8d491"",""projectId"":""9076ac92-be42-43a2-9634-8b67c7fe93a7""}","https://test12345.live/?num_scrambled_semantic=8&num_scrambled_causal=4&num_scrambled_schematic=4&participantId=77D8BBD980704B8C82494AC3B8ECAF50&assignmentId=cc01f0a4-c006-44fb-bc86-12d4f6e8d491&projectId=9076ac92-be42-43a2-9634-8b67c7fe93a7","77D8BBD980704B8C82494AC3B8ECAF50-2025-05-22-19-16-00","","3948","","images/causal_sequence/dog_causal/dog_causal_8.png","0","",""
"","","","","","image-button-response","54","502007","0.0-10.0-1.0-2.8","77D8BBD980704B8C82494AC3B8ECAF50","77D8BBD980704B8C82494AC3B8ECAF50","cc01f0a4-c006-44fb-bc86-12d4f6e8d491","9076ac92-be42-43a2-9634-8b67c7fe93a7","{""num_scrambled_semantic"":""8"",""num_scrambled_causal"":""4"",""num_scrambled_schematic"":""4"",""participantId"":""77D8BBD980704B8C82494AC3B8ECAF50"",""assignmentId"":""cc01f0a4-c006-44fb-bc86-12d4f6e8d491"",""projectId"":""9076ac92-be42-43a2-9634-8b67c7fe93a7""}","https://test12345.live/?num_scrambled_semantic=8&num_scrambled_causal=4&num_scrambled_schematic=4&participantId=77D8BBD980704B8C82494AC3B8ECAF50&assignmentId=cc01f0a4-c006-44fb-bc86-12d4f6e8d491&projectId=9076ac92-be42-43a2-9634-8b67c7fe93a7","77D8BBD980704B8C82494AC3B8ECAF50-2025-05-22-19-16-00","","null","","[]","null","",""
"","","","","","image-button-response","55","506545","0.0-10.0-1.0-0.9","77D8BBD980704B8C82494AC3B8ECAF50","77D8BBD980704B8C82494AC3B8ECAF50","cc01f0a4-c006-44fb-bc86-12d4f6e8d491","9076ac92-be42-43a2-9634-8b67c7fe93a7","{""num_scrambled_semantic"":""8"",""num_scrambled_causal"":""4"",""num_scrambled_schematic"":""4"",""participantId"":""77D8BBD980704B8C82494AC3B8ECAF50"",""assignmentId"":""cc01f0a4-c006-44fb-bc86-12d4f6e8d491"",""projectId"":""9076ac92-be42-43a2-9634-8b67c7fe93a7""}","https://test12345.live/?num_scrambled_semantic=8&num_scrambled_causal=4&num_scrambled_schematic=4&participantId=77D8BBD980704B8C82494AC3B8ECAF50&assignmentId=cc01f0a4-c006-44fb-bc86-12d4f6e8d491&projectId=9076ac92-be42-43a2-9634-8b67c7fe93a7","77D8BBD980704B8C82494AC3B8ECAF50-2025-05-22-19-16-00","","null","","images/causal_sequence/dog_causal/dog_causal_6.png","null","",""
"","","","","","image-button-response","56","507510","0.0-10.0-1.0-1.9","77D8BBD980704B8C82494AC3B8ECAF50","77D8BBD980704B8C82494AC3B8ECAF50","cc01f0a4-c006-44fb-bc86-12d4f6e8d491","9076ac92-be42-43a2-9634-8b67c7fe93a7","{""num_scrambled_semantic"":""8"",""num_scrambled_causal"":""4"",""num_scrambled_schematic"":""4"",""participantId"":""77D8BBD980704B8C82494AC3B8ECAF50"",""assignmentId"":""cc01f0a4-c006-44fb-bc86-12d4f6e8d491"",""projectId"":""9076ac92-be42-43a2-9634-8b67c7fe93a7""}","https://test12345.live/?num_scrambled_semantic=8&num_scrambled_causal=4&num_scrambled_schematic=4&participantId=77D8BBD980704B8C82494AC3B8ECAF50&assignmentId=cc01f0a4-c006-44fb-bc86-12d4f6e8d491&projectId=9076ac92-be42-43a2-9634-8b67c7fe93a7","77D8BBD980704B8C82494AC3B8ECAF50-2025-05-22-19-16-00","","964","","images/causal_sequence/dog_causal/dog_causal_6.png","0","",""
"","","","","","image-button-response","57","509323","0.0-10.0-1.0-2.9","77D8BBD980704B8C82494AC3B8ECAF50","77D8BBD980704B8C82494AC3B8ECAF50","cc01f0a4-c006-44fb-bc86-12d4f6e8d491","9076ac92-be42-43a2-9634-8b67c7fe93a7","{""num_scrambled_semantic"":""8"",""num_scrambled_causal"":""4"",""num_scrambled_schematic"":""4"",""participantId"":""77D8BBD980704B8C82494AC3B8ECAF50"",""assignmentId"":""cc01f0a4-c006-44fb-bc86-12d4f6e8d491"",""projectId"":""9076ac92-be42-43a2-9634-8b67c7fe93a7""}","https://test12345.live/?num_scrambled_semantic=8&num_scrambled_causal=4&num_scrambled_schematic=4&participantId=77D8BBD980704B8C82494AC3B8ECAF50&assignmentId=cc01f0a4-c006-44fb-bc86-12d4f6e8d491&projectId=9076ac92-be42-43a2-9634-8b67c7fe93a7","77D8BBD980704B8C82494AC3B8ECAF50-2025-05-22-19-16-00","","null","","[]","null","",""
"","","","","","html-audio-response","58","585204","0.0-11.0","77D8BBD980704B8C82494AC3B8ECAF50","77D8BBD980704B8C82494AC3B8ECAF50","cc01f0a4-c006-44fb-bc86-12d4f6e8d491","9076ac92-be42-43a2-9634-8b67c7fe93a7","{""num_scrambled_semantic"":""8"",""num_scrambled_causal"":""4"",""num_scrambled_schematic"":""4"",""participantId"":""77D8BBD980704B8C82494AC3B8ECAF50"",""assignmentId"":""cc01f0a4-c006-44fb-bc86-12d4f6e8d491"",""projectId"":""9076ac92-be42-43a2-9634-8b67c7fe93a7""}","https://test12345.live/?num_scrambled_semantic=8&num_scrambled_causal=4&num_scrambled_schematic=4&participantId=77D8BBD980704B8C82494AC3B8ECAF50&assignmentId=cc01f0a4-c006-44fb-bc86-12d4f6e8d491&projectId=9076ac92-be42-43a2-9634-8b67c7fe93a7","77D8BBD980704B8C82494AC3B8ECAF50-2025-05-22-19-16-00","","38062","","[""<span style=\""color: red; font-size: 24px\""> NOW RECORDING</span><p>Please say out loud all the images you saw, in the exact order you saw them. Try to recall as many images as you can, but remember: getting the order right is more important than the number of images you recall.</p>""]","","1","dog_causal"
"","","","","","image-button-response","59","591575","0.0-12.0-0.0","77D8BBD980704B8C82494AC3B8ECAF50","77D8BBD980704B8C82494AC3B8ECAF50","cc01f0a4-c006-44fb-bc86-12d4f6e8d491","9076ac92-be42-43a2-9634-8b67c7fe93a7","{""num_scrambled_semantic"":""8"",""num_scrambled_causal"":""4"",""num_scrambled_schematic"":""4"",""participantId"":""77D8BBD980704B8C82494AC3B8ECAF50"",""assignmentId"":""cc01f0a4-c006-44fb-bc86-12d4f6e8d491"",""projectId"":""9076ac92-be42-43a2-9634-8b67c7fe93a7""}","https://test12345.live/?num_scrambled_semantic=8&num_scrambled_causal=4&num_scrambled_schematic=4&participantId=77D8BBD980704B8C82494AC3B8ECAF50&assignmentId=cc01f0a4-c006-44fb-bc86-12d4f6e8d491&projectId=9076ac92-be42-43a2-9634-8b67c7fe93a7","77D8BBD980704B8C82494AC3B8ECAF50-2025-05-22-19-16-00","","null","","images/schematic_sequence/restaurant_scheme/restaurant_scheme_0.png","null","",""
"","","","","","image-button-response","60","596279","0.0-12.0-1.0-0.0","77D8BBD980704B8C82494AC3B8ECAF50","77D8BBD980704B8C82494AC3B8ECAF50","cc01f0a4-c006-44fb-bc86-12d4f6e8d491","9076ac92-be42-43a2-9634-8b67c7fe93a7","{""num_scrambled_semantic"":""8"",""num_scrambled_causal"":""4"",""num_scrambled_schematic"":""4"",""participantId"":""77D8BBD980704B8C82494AC3B8ECAF50"",""assignmentId"":""cc01f0a4-c006-44fb-bc86-12d4f6e8d491"",""projectId"":""9076ac92-be42-43a2-9634-8b67c7fe93a7""}","https://test12345.live/?num_scrambled_semantic=8&num_scrambled_causal=4&num_scrambled_schematic=4&participantId=77D8BBD980704B8C82494AC3B8ECAF50&assignmentId=cc01f0a4-c006-44fb-bc86-12d4f6e8d491&projectId=9076ac92-be42-43a2-9634-8b67c7fe93a7","77D8BBD980704B8C82494AC3B8ECAF50-2025-05-22-19-16-00","","null","","images/schematic_sequence/restaurant_scheme/restaurant_scheme_5.png","null","",""
"","","","","","image-button-response","61","600325","0.0-12.0-1.0-1.0","77D8BBD980704B8C82494AC3B8ECAF50","77D8BBD980704B8C82494AC3B8ECAF50","cc01f0a4-c006-44fb-bc86-12d4f6e8d491","9076ac92-be42-43a2-9634-8b67c7fe93a7","{""num_scrambled_semantic"":""8"",""num_scrambled_causal"":""4"",""num_scrambled_schematic"":""4"",""participantId"":""77D8BBD980704B8C82494AC3B8ECAF50"",""assignmentId"":""cc01f0a4-c006-44fb-bc86-12d4f6e8d491"",""projectId"":""9076ac92-be42-43a2-9634-8b67c7fe93a7""}","https://test12345.live/?num_scrambled_semantic=8&num_scrambled_causal=4&num_scrambled_schematic=4&participantId=77D8BBD980704B8C82494AC3B8ECAF50&assignmentId=cc01f0a4-c006-44fb-bc86-12d4f6e8d491&projectId=9076ac92-be42-43a2-9634-8b67c7fe93a7","77D8BBD980704B8C82494AC3B8ECAF50-2025-05-22-19-16-00","","null","","images/schematic_sequence/restaurant_scheme/restaurant_scheme_5.png","null","",""
"","","","","","image-button-response","62","602341","0.0-12.0-1.0-2.0","77D8BBD980704B8C82494AC3B8ECAF50","77D8BBD980704B8C82494AC3B8ECAF50","cc01f0a4-c006-44fb-bc86-12d4f6e8d491","9076ac92-be42-43a2-9634-8b67c7fe93a7","{""num_scrambled_semantic"":""8"",""num_scrambled_causal"":""4"",""num_scrambled_schematic"":""4"",""participantId"":""77D8BBD980704B8C82494AC3B8ECAF50"",""assignmentId"":""cc01f0a4-c006-44fb-bc86-12d4f6e8d491"",""projectId"":""9076ac92-be42-43a2-9634-8b67c7fe93a7""}","https://test12345.live/?num_scrambled_semantic=8&num_scrambled_causal=4&num_scrambled_schematic=4&participantId=77D8BBD980704B8C82494AC3B8ECAF50&assignmentId=cc01f0a4-c006-44fb-bc86-12d4f6e8d491&projectId=9076ac92-be42-43a2-9634-8b67c7fe93a7","77D8BBD980704B8C82494AC3B8ECAF50-2025-05-22-19-16-00","","null","","[]","null","",""
"","","","","","image-button-response","63","606861","0.0-12.0-1.0-0.1","77D8BBD980704B8C82494AC3B8ECAF50","77D8BBD980704B8C82494AC3B8ECAF50","cc01f0a4-c006-44fb-bc86-12d4f6e8d491","9076ac92-be42-43a2-9634-8b67c7fe93a7","{""num_scrambled_semantic"":""8"",""num_scrambled_causal"":""4"",""num_scrambled_schematic"":""4"",""participantId"":""77D8BBD980704B8C82494AC3B8ECAF50"",""assignmentId"":""cc01f0a4-c006-44fb-bc86-12d4f6e8d491"",""projectId"":""9076ac92-be42-43a2-9634-8b67c7fe93a7""}","https://test12345.live/?num_scrambled_semantic=8&num_scrambled_causal=4&num_scrambled_schematic=4&participantId=77D8BBD980704B8C82494AC3B8ECAF50&assignmentId=cc01f0a4-c006-44fb-bc86-12d4f6e8d491&projectId=9076ac92-be42-43a2-9634-8b67c7fe93a7","77D8BBD980704B8C82494AC3B8ECAF50-2025-05-22-19-16-00","","null","","images/schematic_sequence/restaurant_scheme/restaurant_scheme_ten.png","null","",""
"","","","","","image-button-response","64","608939","0.0-12.0-1.0-1.1","77D8BBD980704B8C82494AC3B8ECAF50","77D8BBD980704B8C82494AC3B8ECAF50","cc01f0a4-c006-44fb-bc86-12d4f6e8d491","9076ac92-be42-43a2-9634-8b67c7fe93a7","{""num_scrambled_semantic"":""8"",""num_scrambled_causal"":""4"",""num_scrambled_schematic"":""4"",""participantId"":""77D8BBD980704B8C82494AC3B8ECAF50"",""assignmentId"":""cc01f0a4-c006-44fb-bc86-12d4f6e8d491"",""projectId"":""9076ac92-be42-43a2-9634-8b67c7fe93a7""}","https://test12345.live/?num_scrambled_semantic=8&num_scrambled_causal=4&num_scrambled_schematic=4&participantId=77D8BBD980704B8C82494AC3B8ECAF50&assignmentId=cc01f0a4-c006-44fb-bc86-12d4f6e8d491&projectId=9076ac92-be42-43a2-9634-8b67c7fe93a7","77D8BBD980704B8C82494AC3B8ECAF50-2025-05-22-19-16-00","","2077","","images/schematic_sequence/restaurant_scheme/restaurant_scheme_ten.png","0","",""
"","","","","","image-button-response","65","610874","0.0-12.0-1.0-2.1","77D8BBD980704B8C82494AC3B8ECAF50","77D8BBD980704B8C82494AC3B8ECAF50","cc01f0a4-c006-44fb-bc86-12d4f6e8d491","9076ac92-be42-43a2-9634-8b67c7fe93a7","{""num_scrambled_semantic"":""8"",""num_scrambled_causal"":""4"",""num_scrambled_schematic"":""4"",""participantId"":""77D8BBD980704B8C82494AC3B8ECAF50"",""assignmentId"":""cc01f0a4-c006-44fb-bc86-12d4f6e8d491"",""projectId"":""9076ac92-be42-43a2-9634-8b67c7fe93a7""}","https://test12345.live/?num_scrambled_semantic=8&num_scrambled_causal=4&num_scrambled_schematic=4&participantId=77D8BBD980704B8C82494AC3B8ECAF50&assignmentId=cc01f0a4-c006-44fb-bc86-12d4f6e8d491&projectId=9076ac92-be42-43a2-9634-8b67c7fe93a7","77D8BBD980704B8C82494AC3B8ECAF50-2025-05-22-19-16-00","","null","","[]","null","",""
"","","","","","image-button-response","66","615704","0.0-12.0-1.0-0.2","77D8BBD980704B8C82494AC3B8ECAF50","77D8BBD980704B8C82494AC3B8ECAF50","cc01f0a4-c006-44fb-bc86-12d4f6e8d491","9076ac92-be42-43a2-9634-8b67c7fe93a7","{""num_scrambled_semantic"":""8"",""num_scrambled_causal"":""4"",""num_scrambled_schematic"":""4"",""participantId"":""77D8BBD980704B8C82494AC3B8ECAF50"",""assignmentId"":""cc01f0a4-c006-44fb-bc86-12d4f6e8d491"",""projectId"":""9076ac92-be42-43a2-9634-8b67c7fe93a7""}","https://test12345.live/?num_scrambled_semantic=8&num_scrambled_causal=4&num_scrambled_schematic=4&participantId=77D8BBD980704B8C82494AC3B8ECAF50&assignmentId=cc01f0a4-c006-44fb-bc86-12d4f6e8d491&projectId=9076ac92-be42-43a2-9634-8b67c7fe93a7","77D8BBD980704B8C82494AC3B8ECAF50-2025-05-22-19-16-00","","null","","images/schematic_sequence/restaurant_scheme/restaurant_scheme_3.png","null","",""
"","","","","","image-button-response","67","617723","0.0-12.0-1.0-1.2","77D8BBD980704B8C82494AC3B8ECAF50","77D8BBD980704B8C82494AC3B8ECAF50","cc01f0a4-c006-44fb-bc86-12d4f6e8d491","9076ac92-be42-43a2-9634-8b67c7fe93a7","{""num_scrambled_semantic"":""8"",""num_scrambled_causal"":""4"",""num_scrambled_schematic"":""4"",""participantId"":""77D8BBD980704B8C82494AC3B8ECAF50"",""assignmentId"":""cc01f0a4-c006-44fb-bc86-12d4f6e8d491"",""projectId"":""9076ac92-be42-43a2-9634-8b67c7fe93a7""}","https://test12345.live/?num_scrambled_semantic=8&num_scrambled_causal=4&num_scrambled_schematic=4&participantId=77D8BBD980704B8C82494AC3B8ECAF50&assignmentId=cc01f0a4-c006-44fb-bc86-12d4f6e8d491&projectId=9076ac92-be42-43a2-9634-8b67c7fe93a7","77D8BBD980704B8C82494AC3B8ECAF50-2025-05-22-19-16-00","","2018","","images/schematic_sequence/restaurant_scheme/restaurant_scheme_3.png","0","",""
"","","","","","image-button-response","68","619527","0.0-12.0-1.0-2.2","77D8BBD980704B8C82494AC3B8ECAF50","77D8BBD980704B8C82494AC3B8ECAF50","cc01f0a4-c006-44fb-bc86-12d4f6e8d491","9076ac92-be42-43a2-9634-8b67c7fe93a7","{""num_scrambled_semantic"":""8"",""num_scrambled_causal"":""4"",""num_scrambled_schematic"":""4"",""participantId"":""77D8BBD980704B8C82494AC3B8ECAF50"",""assignmentId"":""cc01f0a4-c006-44fb-bc86-12d4f6e8d491"",""projectId"":""9076ac92-be42-43a2-9634-8b67c7fe93a7""}","https://test12345.live/?num_scrambled_semantic=8&num_scrambled_causal=4&num_scrambled_schematic=4&participantId=77D8BBD980704B8C82494AC3B8ECAF50&assignmentId=cc01f0a4-c006-44fb-bc86-12d4f6e8d491&projectId=9076ac92-be42-43a2-9634-8b67c7fe93a7","77D8BBD980704B8C82494AC3B8ECAF50-2025-05-22-19-16-00","","null","","[]","null","",""
"","","","","","image-button-response","69","624520","0.0-12.0-1.0-0.3","77D8BBD980704B8C82494AC3B8ECAF50","77D8BBD980704B8C82494AC3B8ECAF50","cc01f0a4-c006-44fb-bc86-12d4f6e8d491","9076ac92-be42-43a2-9634-8b67c7fe93a7","{""num_scrambled_semantic"":""8"",""num_scrambled_causal"":""4"",""num_scrambled_schematic"":""4"",""participantId"":""77D8BBD980704B8C82494AC3B8ECAF50"",""assignmentId"":""cc01f0a4-c006-44fb-bc86-12d4f6e8d491"",""projectId"":""9076ac92-be42-43a2-9634-8b67c7fe93a7""}","https://test12345.live/?num_scrambled_semantic=8&num_scrambled_causal=4&num_scrambled_schematic=4&participantId=77D8BBD980704B8C82494AC3B8ECAF50&assignmentId=cc01f0a4-c006-44fb-bc86-12d4f6e8d491&projectId=9076ac92-be42-43a2-9634-8b67c7fe93a7","77D8BBD980704B8C82494AC3B8ECAF50-2025-05-22-19-16-00","","null","","images/schematic_sequence/restaurant_scheme/restaurant_scheme_4.png","null","",""
"","","","","","image-button-response","70","625935","0.0-12.0-1.0-1.3","77D8BBD980704B8C82494AC3B8ECAF50","77D8BBD980704B8C82494AC3B8ECAF50","cc01f0a4-c006-44fb-bc86-12d4f6e8d491","9076ac92-be42-43a2-9634-8b67c7fe93a7","{""num_scrambled_semantic"":""8"",""num_scrambled_causal"":""4"",""num_scrambled_schematic"":""4"",""participantId"":""77D8BBD980704B8C82494AC3B8ECAF50"",""assignmentId"":""cc01f0a4-c006-44fb-bc86-12d4f6e8d491"",""projectId"":""9076ac92-be42-43a2-9634-8b67c7fe93a7""}","https://test12345.live/?num_scrambled_semantic=8&num_scrambled_causal=4&num_scrambled_schematic=4&participantId=77D8BBD980704B8C82494AC3B8ECAF50&assignmentId=cc01f0a4-c006-44fb-bc86-12d4f6e8d491&projectId=9076ac92-be42-43a2-9634-8b67c7fe93a7","77D8BBD980704B8C82494AC3B8ECAF50-2025-05-22-19-16-00","","1413","","images/schematic_sequence/restaurant_scheme/restaurant_scheme_4.png","0","",""
"","","","","","image-button-response","71","627952","0.0-12.0-1.0-2.3","77D8BBD980704B8C82494AC3B8ECAF50","77D8BBD980704B8C82494AC3B8ECAF50","cc01f0a4-c006-44fb-bc86-12d4f6e8d491","9076ac92-be42-43a2-9634-8b67c7fe93a7","{""num_scrambled_semantic"":""8"",""num_scrambled_causal"":""4"",""num_scrambled_schematic"":""4"",""participantId"":""77D8BBD980704B8C82494AC3B8ECAF50"",""assignmentId"":""cc01f0a4-c006-44fb-bc86-12d4f6e8d491"",""projectId"":""9076ac92-be42-43a2-9634-8b67c7fe93a7""}","https://test12345.live/?num_scrambled_semantic=8&num_scrambled_causal=4&num_scrambled_schematic=4&participantId=77D8BBD980704B8C82494AC3B8ECAF50&assignmentId=cc01f0a4-c006-44fb-bc86-12d4f6e8d491&projectId=9076ac92-be42-43a2-9634-8b67c7fe93a7","77D8BBD980704B8C82494AC3B8ECAF50-2025-05-22-19-16-00","","null","","[]","null","",""
"","","","","","image-button-response","72","632482","0.0-12.0-1.0-0.4","77D8BBD980704B8C82494AC3B8ECAF50","77D8BBD980704B8C82494AC3B8ECAF50","cc01f0a4-c006-44fb-bc86-12d4f6e8d491","9076ac92-be42-43a2-9634-8b67c7fe93a7","{""num_scrambled_semantic"":""8"",""num_scrambled_causal"":""4"",""num_scrambled_schematic"":""4"",""participantId"":""77D8BBD980704B8C82494AC3B8ECAF50"",""assignmentId"":""cc01f0a4-c006-44fb-bc86-12d4f6e8d491"",""projectId"":""9076ac92-be42-43a2-9634-8b67c7fe93a7""}","https://test12345.live/?num_scrambled_semantic=8&num_scrambled_causal=4&num_scrambled_schematic=4&participantId=77D8BBD980704B8C82494AC3B8ECAF50&assignmentId=cc01f0a4-c006-44fb-bc86-12d4f6e8d491&projectId=9076ac92-be42-43a2-9634-8b67c7fe93a7","77D8BBD980704B8C82494AC3B8ECAF50-2025-05-22-19-16-00","","null","","images/schematic_sequence/restaurant_scheme/restaurant_scheme_6.png","null","",""
"","","","","","image-button-response","73","633863","0.0-12.0-1.0-1.4","77D8BBD980704B8C82494AC3B8ECAF50","77D8BBD980704B8C82494AC3B8ECAF50","cc01f0a4-c006-44fb-bc86-12d4f6e8d491","9076ac92-be42-43a2-9634-8b67c7fe93a7","{""num_scrambled_semantic"":""8"",""num_scrambled_causal"":""4"",""num_scrambled_schematic"":""4"",""participantId"":""77D8BBD980704B8C82494AC3B8ECAF50"",""assignmentId"":""cc01f0a4-c006-44fb-bc86-12d4f6e8d491"",""projectId"":""9076ac92-be42-43a2-9634-8b67c7fe93a7""}","https://test12345.live/?num_scrambled_semantic=8&num_scrambled_causal=4&num_scrambled_schematic=4&participantId=77D8BBD980704B8C82494AC3B8ECAF50&assignmentId=cc01f0a4-c006-44fb-bc86-12d4f6e8d491&projectId=9076ac92-be42-43a2-9634-8b67c7fe93a7","77D8BBD980704B8C82494AC3B8ECAF50-2025-05-22-19-16-00","","1380","","images/schematic_sequence/restaurant_scheme/restaurant_scheme_6.png","1","",""
"","","","","","image-button-response","74","635667","0.0-12.0-1.0-2.4","77D8BBD980704B8C82494AC3B8ECAF50","77D8BBD980704B8C82494AC3B8ECAF50","cc01f0a4-c006-44fb-bc86-12d4f6e8d491","9076ac92-be42-43a2-9634-8b67c7fe93a7","{""num_scrambled_semantic"":""8"",""num_scrambled_causal"":""4"",""num_scrambled_schematic"":""4"",""participantId"":""77D8BBD980704B8C82494AC3B8ECAF50"",""assignmentId"":""cc01f0a4-c006-44fb-bc86-12d4f6e8d491"",""projectId"":""9076ac92-be42-43a2-9634-8b67c7fe93a7""}","https://test12345.live/?num_scrambled_semantic=8&num_scrambled_causal=4&num_scrambled_schematic=4&participantId=77D8BBD980704B8C82494AC3B8ECAF50&assignmentId=cc01f0a4-c006-44fb-bc86-12d4f6e8d491&projectId=9076ac92-be42-43a2-9634-8b67c7fe93a7","77D8BBD980704B8C82494AC3B8ECAF50-2025-05-22-19-16-00","","null","","[]","null","",""
"","","","","","image-button-response","75","640288","0.0-12.0-1.0-0.5","77D8BBD980704B8C82494AC3B8ECAF50","77D8BBD980704B8C82494AC3B8ECAF50","cc01f0a4-c006-44fb-bc86-12d4f6e8d491","9076ac92-be42-43a2-9634-8b67c7fe93a7","{""num_scrambled_semantic"":""8"",""num_scrambled_causal"":""4"",""num_scrambled_schematic"":""4"",""participantId"":""77D8BBD980704B8C82494AC3B8ECAF50"",""assignmentId"":""cc01f0a4-c006-44fb-bc86-12d4f6e8d491"",""projectId"":""9076ac92-be42-43a2-9634-8b67c7fe93a7""}","https://test12345.live/?num_scrambled_semantic=8&num_scrambled_causal=4&num_scrambled_schematic=4&participantId=77D8BBD980704B8C82494AC3B8ECAF50&assignmentId=cc01f0a4-c006-44fb-bc86-12d4f6e8d491&projectId=9076ac92-be42-43a2-9634-8b67c7fe93a7","77D8BBD980704B8C82494AC3B8ECAF50-2025-05-22-19-16-00","","null","","images/schematic_sequence/restaurant_scheme/restaurant_scheme_7.png","null","",""
"","","","","","image-button-response","76","641624","0.0-12.0-1.0-1.5","77D8BBD980704B8C82494AC3B8ECAF50","77D8BBD980704B8C82494AC3B8ECAF50","cc01f0a4-c006-44fb-bc86-12d4f6e8d491","9076ac92-be42-43a2-9634-8b67c7fe93a7","{""num_scrambled_semantic"":""8"",""num_scrambled_causal"":""4"",""num_scrambled_schematic"":""4"",""participantId"":""77D8BBD980704B8C82494AC3B8ECAF50"",""assignmentId"":""cc01f0a4-c006-44fb-bc86-12d4f6e8d491"",""projectId"":""9076ac92-be42-43a2-9634-8b67c7fe93a7""}","https://test12345.live/?num_scrambled_semantic=8&num_scrambled_causal=4&num_scrambled_schematic=4&participantId=77D8BBD980704B8C82494AC3B8ECAF50&assignmentId=cc01f0a4-c006-44fb-bc86-12d4f6e8d491&projectId=9076ac92-be42-43a2-9634-8b67c7fe93a7","77D8BBD980704B8C82494AC3B8ECAF50-2025-05-22-19-16-00","","1334","","images/schematic_sequence/restaurant_scheme/restaurant_scheme_7.png","1","",""
"","","","","","image-button-response","77","643429","0.0-12.0-1.0-2.5","77D8BBD980704B8C82494AC3B8ECAF50","77D8BBD980704B8C82494AC3B8ECAF50","cc01f0a4-c006-44fb-bc86-12d4f6e8d491","9076ac92-be42-43a2-9634-8b67c7fe93a7","{""num_scrambled_semantic"":""8"",""num_scrambled_causal"":""4"",""num_scrambled_schematic"":""4"",""participantId"":""77D8BBD980704B8C82494AC3B8ECAF50"",""assignmentId"":""cc01f0a4-c006-44fb-bc86-12d4f6e8d491"",""projectId"":""9076ac92-be42-43a2-9634-8b67c7fe93a7""}","https://test12345.live/?num_scrambled_semantic=8&num_scrambled_causal=4&num_scrambled_schematic=4&participantId=77D8BBD980704B8C82494AC3B8ECAF50&assignmentId=cc01f0a4-c006-44fb-bc86-12d4f6e8d491&projectId=9076ac92-be42-43a2-9634-8b67c7fe93a7","77D8BBD980704B8C82494AC3B8ECAF50-2025-05-22-19-16-00","","null","","[]","null","",""
"","","","","","image-button-response","78","647967","0.0-12.0-1.0-0.6","77D8BBD980704B8C82494AC3B8ECAF50","77D8BBD980704B8C82494AC3B8ECAF50","cc01f0a4-c006-44fb-bc86-12d4f6e8d491","9076ac92-be42-43a2-9634-8b67c7fe93a7","{""num_scrambled_semantic"":""8"",""num_scrambled_causal"":""4"",""num_scrambled_schematic"":""4"",""participantId"":""77D8BBD980704B8C82494AC3B8ECAF50"",""assignmentId"":""cc01f0a4-c006-44fb-bc86-12d4f6e8d491"",""projectId"":""9076ac92-be42-43a2-9634-8b67c7fe93a7""}","https://test12345.live/?num_scrambled_semantic=8&num_scrambled_causal=4&num_scrambled_schematic=4&participantId=77D8BBD980704B8C82494AC3B8ECAF50&assignmentId=cc01f0a4-c006-44fb-bc86-12d4f6e8d491&projectId=9076ac92-be42-43a2-9634-8b67c7fe93a7","77D8BBD980704B8C82494AC3B8ECAF50-2025-05-22-19-16-00","","null","","images/schematic_sequence/restaurant_scheme/restaurant_scheme_8.png","null","",""
"","","","","","image-button-response","79","648894","0.0-12.0-1.0-1.6","77D8BBD980704B8C82494AC3B8ECAF50","77D8BBD980704B8C82494AC3B8ECAF50","cc01f0a4-c006-44fb-bc86-12d4f6e8d491","9076ac92-be42-43a2-9634-8b67c7fe93a7","{""num_scrambled_semantic"":""8"",""num_scrambled_causal"":""4"",""num_scrambled_schematic"":""4"",""participantId"":""77D8BBD980704B8C82494AC3B8ECAF50"",""assignmentId"":""cc01f0a4-c006-44fb-bc86-12d4f6e8d491"",""projectId"":""9076ac92-be42-43a2-9634-8b67c7fe93a7""}","https://test12345.live/?num_scrambled_semantic=8&num_scrambled_causal=4&num_scrambled_schematic=4&participantId=77D8BBD980704B8C82494AC3B8ECAF50&assignmentId=cc01f0a4-c006-44fb-bc86-12d4f6e8d491&projectId=9076ac92-be42-43a2-9634-8b67c7fe93a7","77D8BBD980704B8C82494AC3B8ECAF50-2025-05-22-19-16-00","","927","","images/schematic_sequence/restaurant_scheme/restaurant_scheme_8.png","1","",""
"","","","","","image-button-response","80","650700","0.0-12.0-1.0-2.6","77D8BBD980704B8C82494AC3B8ECAF50","77D8BBD980704B8C82494AC3B8ECAF50","cc01f0a4-c006-44fb-bc86-12d4f6e8d491","9076ac92-be42-43a2-9634-8b67c7fe93a7","{""num_scrambled_semantic"":""8"",""num_scrambled_causal"":""4"",""num_scrambled_schematic"":""4"",""participantId"":""77D8BBD980704B8C82494AC3B8ECAF50"",""assignmentId"":""cc01f0a4-c006-44fb-bc86-12d4f6e8d491"",""projectId"":""9076ac92-be42-43a2-9634-8b67c7fe93a7""}","https://test12345.live/?num_scrambled_semantic=8&num_scrambled_causal=4&num_scrambled_schematic=4&participantId=77D8BBD980704B8C82494AC3B8ECAF50&assignmentId=cc01f0a4-c006-44fb-bc86-12d4f6e8d491&projectId=9076ac92-be42-43a2-9634-8b67c7fe93a7","77D8BBD980704B8C82494AC3B8ECAF50-2025-05-22-19-16-00","","null","","[]","null","",""
"","","","","","image-button-response","81","655760","0.0-12.0-1.0-0.7","77D8BBD980704B8C82494AC3B8ECAF50","77D8BBD980704B8C82494AC3B8ECAF50","cc01f0a4-c006-44fb-bc86-12d4f6e8d491","9076ac92-be42-43a2-9634-8b67c7fe93a7","{""num_scrambled_semantic"":""8"",""num_scrambled_causal"":""4"",""num_scrambled_schematic"":""4"",""participantId"":""77D8BBD980704B8C82494AC3B8ECAF50"",""assignmentId"":""cc01f0a4-c006-44fb-bc86-12d4f6e8d491"",""projectId"":""9076ac92-be42-43a2-9634-8b67c7fe93a7""}","https://test12345.live/?num_scrambled_semantic=8&num_scrambled_causal=4&num_scrambled_schematic=4&participantId=77D8BBD980704B8C82494AC3B8ECAF50&assignmentId=cc01f0a4-c006-44fb-bc86-12d4f6e8d491&projectId=9076ac92-be42-43a2-9634-8b67c7fe93a7","77D8BBD980704B8C82494AC3B8ECAF50-2025-05-22-19-16-00","","null","","images/schematic_sequence/restaurant_scheme/restaurant_scheme_1.png","null","",""
"","","","","","image-button-response","82","658550","0.0-12.0-1.0-1.7","77D8BBD980704B8C82494AC3B8ECAF50","77D8BBD980704B8C82494AC3B8ECAF50","cc01f0a4-c006-44fb-bc86-12d4f6e8d491","9076ac92-be42-43a2-9634-8b67c7fe93a7","{""num_scrambled_semantic"":""8"",""num_scrambled_causal"":""4"",""num_scrambled_schematic"":""4"",""participantId"":""77D8BBD980704B8C82494AC3B8ECAF50"",""assignmentId"":""cc01f0a4-c006-44fb-bc86-12d4f6e8d491"",""projectId"":""9076ac92-be42-43a2-9634-8b67c7fe93a7""}","https://test12345.live/?num_scrambled_semantic=8&num_scrambled_causal=4&num_scrambled_schematic=4&participantId=77D8BBD980704B8C82494AC3B8ECAF50&assignmentId=cc01f0a4-c006-44fb-bc86-12d4f6e8d491&projectId=9076ac92-be42-43a2-9634-8b67c7fe93a7","77D8BBD980704B8C82494AC3B8ECAF50-2025-05-22-19-16-00","","2788","","images/schematic_sequence/restaurant_scheme/restaurant_scheme_1.png","0","",""
"","","","","","image-button-response","83","660362","0.0-12.0-1.0-2.7","77D8BBD980704B8C82494AC3B8ECAF50","77D8BBD980704B8C82494AC3B8ECAF50","cc01f0a4-c006-44fb-bc86-12d4f6e8d491","9076ac92-be42-43a2-9634-8b67c7fe93a7","{""num_scrambled_semantic"":""8"",""num_scrambled_causal"":""4"",""num_scrambled_schematic"":""4"",""participantId"":""77D8BBD980704B8C82494AC3B8ECAF50"",""assignmentId"":""cc01f0a4-c006-44fb-bc86-12d4f6e8d491"",""projectId"":""9076ac92-be42-43a2-9634-8b67c7fe93a7""}","https://test12345.live/?num_scrambled_semantic=8&num_scrambled_causal=4&num_scrambled_schematic=4&participantId=77D8BBD980704B8C82494AC3B8ECAF50&assignmentId=cc01f0a4-c006-44fb-bc86-12d4f6e8d491&projectId=9076ac92-be42-43a2-9634-8b67c7fe93a7","77D8BBD980704B8C82494AC3B8ECAF50-2025-05-22-19-16-00","","null","","[]","null","",""
"","","","","","image-button-response","84","664894","0.0-12.0-1.0-0.8","77D8BBD980704B8C82494AC3B8ECAF50","77D8BBD980704B8C82494AC3B8ECAF50","cc01f0a4-c006-44fb-bc86-12d4f6e8d491","9076ac92-be42-43a2-9634-8b67c7fe93a7","{""num_scrambled_semantic"":""8"",""num_scrambled_causal"":""4"",""num_scrambled_schematic"":""4"",""participantId"":""77D8BBD980704B8C82494AC3B8ECAF50"",""assignmentId"":""cc01f0a4-c006-44fb-bc86-12d4f6e8d491"",""projectId"":""9076ac92-be42-43a2-9634-8b67c7fe93a7""}","https://test12345.live/?num_scrambled_semantic=8&num_scrambled_causal=4&num_scrambled_schematic=4&participantId=77D8BBD980704B8C82494AC3B8ECAF50&assignmentId=cc01f0a4-c006-44fb-bc86-12d4f6e8d491&projectId=9076ac92-be42-43a2-9634-8b67c7fe93a7","77D8BBD980704B8C82494AC3B8ECAF50-2025-05-22-19-16-00","","null","","images/schematic_sequence/restaurant_scheme/restaurant_scheme_9.png","null","",""
"","","","","","image-button-response","85","668474","0.0-12.0-1.0-1.8","77D8BBD980704B8C82494AC3B8ECAF50","77D8BBD980704B8C82494AC3B8ECAF50","cc01f0a4-c006-44fb-bc86-12d4f6e8d491","9076ac92-be42-43a2-9634-8b67c7fe93a7","{""num_scrambled_semantic"":""8"",""num_scrambled_causal"":""4"",""num_scrambled_schematic"":""4"",""participantId"":""77D8BBD980704B8C82494AC3B8ECAF50"",""assignmentId"":""cc01f0a4-c006-44fb-bc86-12d4f6e8d491"",""projectId"":""9076ac92-be42-43a2-9634-8b67c7fe93a7""}","https://test12345.live/?num_scrambled_semantic=8&num_scrambled_causal=4&num_scrambled_schematic=4&participantId=77D8BBD980704B8C82494AC3B8ECAF50&assignmentId=cc01f0a4-c006-44fb-bc86-12d4f6e8d491&projectId=9076ac92-be42-43a2-9634-8b67c7fe93a7","77D8BBD980704B8C82494AC3B8ECAF50-2025-05-22-19-16-00","","3581","","images/schematic_sequence/restaurant_scheme/restaurant_scheme_9.png","0","",""
"","","","","","image-button-response","86","670489","0.0-12.0-1.0-2.8","77D8BBD980704B8C82494AC3B8ECAF50","77D8BBD980704B8C82494AC3B8ECAF50","cc01f0a4-c006-44fb-bc86-12d4f6e8d491","9076ac92-be42-43a2-9634-8b67c7fe93a7","{""num_scrambled_semantic"":""8"",""num_scrambled_causal"":""4"",""num_scrambled_schematic"":""4"",""participantId"":""77D8BBD980704B8C82494AC3B8ECAF50"",""assignmentId"":""cc01f0a4-c006-44fb-bc86-12d4f6e8d491"",""projectId"":""9076ac92-be42-43a2-9634-8b67c7fe93a7""}","https://test12345.live/?num_scrambled_semantic=8&num_scrambled_causal=4&num_scrambled_schematic=4&participantId=77D8BBD980704B8C82494AC3B8ECAF50&assignmentId=cc01f0a4-c006-44fb-bc86-12d4f6e8d491&projectId=9076ac92-be42-43a2-9634-8b67c7fe93a7","77D8BBD980704B8C82494AC3B8ECAF50-2025-05-22-19-16-00","","null","","[]","null","",""
"","","","","","image-button-response","87","675308","0.0-12.0-1.0-0.9","77D8BBD980704B8C82494AC3B8ECAF50","77D8BBD980704B8C82494AC3B8ECAF50","cc01f0a4-c006-44fb-bc86-12d4f6e8d491","9076ac92-be42-43a2-9634-8b67c7fe93a7","{""num_scrambled_semantic"":""8"",""num_scrambled_causal"":""4"",""num_scrambled_schematic"":""4"",""participantId"":""77D8BBD980704B8C82494AC3B8ECAF50"",""assignmentId"":""cc01f0a4-c006-44fb-bc86-12d4f6e8d491"",""projectId"":""9076ac92-be42-43a2-9634-8b67c7fe93a7""}","https://test12345.live/?num_scrambled_semantic=8&num_scrambled_causal=4&num_scrambled_schematic=4&participantId=77D8BBD980704B8C82494AC3B8ECAF50&assignmentId=cc01f0a4-c006-44fb-bc86-12d4f6e8d491&projectId=9076ac92-be42-43a2-9634-8b67c7fe93a7","77D8BBD980704B8C82494AC3B8ECAF50-2025-05-22-19-16-00","","null","","images/schematic_sequence/restaurant_scheme/restaurant_scheme_2.png","null","",""
"","","","","","image-button-response","88","677473","0.0-12.0-1.0-1.9","77D8BBD980704B8C82494AC3B8ECAF50","77D8BBD980704B8C82494AC3B8ECAF50","cc01f0a4-c006-44fb-bc86-12d4f6e8d491","9076ac92-be42-43a2-9634-8b67c7fe93a7","{""num_scrambled_semantic"":""8"",""num_scrambled_causal"":""4"",""num_scrambled_schematic"":""4"",""participantId"":""77D8BBD980704B8C82494AC3B8ECAF50"",""assignmentId"":""cc01f0a4-c006-44fb-bc86-12d4f6e8d491"",""projectId"":""9076ac92-be42-43a2-9634-8b67c7fe93a7""}","https://test12345.live/?num_scrambled_semantic=8&num_scrambled_causal=4&num_scrambled_schematic=4&participantId=77D8BBD980704B8C82494AC3B8ECAF50&assignmentId=cc01f0a4-c006-44fb-bc86-12d4f6e8d491&projectId=9076ac92-be42-43a2-9634-8b67c7fe93a7","77D8BBD980704B8C82494AC3B8ECAF50-2025-05-22-19-16-00","","2164","","images/schematic_sequence/restaurant_scheme/restaurant_scheme_2.png","1","",""
"","","","","","image-button-response","89","679358","0.0-12.0-1.0-2.9","77D8BBD980704B8C82494AC3B8ECAF50","77D8BBD980704B8C82494AC3B8ECAF50","cc01f0a4-c006-44fb-bc86-12d4f6e8d491","9076ac92-be42-43a2-9634-8b67c7fe93a7","{""num_scrambled_semantic"":""8"",""num_scrambled_causal"":""4"",""num_scrambled_schematic"":""4"",""participantId"":""77D8BBD980704B8C82494AC3B8ECAF50"",""assignmentId"":""cc01f0a4-c006-44fb-bc86-12d4f6e8d491"",""projectId"":""9076ac92-be42-43a2-9634-8b67c7fe93a7""}","https://test12345.live/?num_scrambled_semantic=8&num_scrambled_causal=4&num_scrambled_schematic=4&participantId=77D8BBD980704B8C82494AC3B8ECAF50&assignmentId=cc01f0a4-c006-44fb-bc86-12d4f6e8d491&projectId=9076ac92-be42-43a2-9634-8b67c7fe93a7","77D8BBD980704B8C82494AC3B8ECAF50-2025-05-22-19-16-00","","null","","[]","null","",""
"","","","","","html-audio-response","90","740261","0.0-13.0","77D8BBD980704B8C82494AC3B8ECAF50","77D8BBD980704B8C82494AC3B8ECAF50","cc01f0a4-c006-44fb-bc86-12d4f6e8d491","9076ac92-be42-43a2-9634-8b67c7fe93a7","{""num_scrambled_semantic"":""8"",""num_scrambled_causal"":""4"",""num_scrambled_schematic"":""4"",""participantId"":""77D8BBD980704B8C82494AC3B8ECAF50"",""assignmentId"":""cc01f0a4-c006-44fb-bc86-12d4f6e8d491"",""projectId"":""9076ac92-be42-43a2-9634-8b67c7fe93a7""}","https://test12345.live/?num_scrambled_semantic=8&num_scrambled_causal=4&num_scrambled_schematic=4&participantId=77D8BBD980704B8C82494AC3B8ECAF50&assignmentId=cc01f0a4-c006-44fb-bc86-12d4f6e8d491&projectId=9076ac92-be42-43a2-9634-8b67c7fe93a7","77D8BBD980704B8C82494AC3B8ECAF50-2025-05-22-19-16-00","","19818","","[""<span style=\""color: red; font-size: 24px\""> NOW RECORDING</span><p>Please say out loud all the images you saw, in the exact order you saw them. Try to recall as many images as you can, but remember: getting the order right is more important than the number of images you recall.</p>""]","","11","restaurant_scheme"
"","","","","","image-button-response","91","746635","0.0-14.0-0.0","77D8BBD980704B8C82494AC3B8ECAF50","77D8BBD980704B8C82494AC3B8ECAF50","cc01f0a4-c006-44fb-bc86-12d4f6e8d491","9076ac92-be42-43a2-9634-8b67c7fe93a7","{""num_scrambled_semantic"":""8"",""num_scrambled_causal"":""4"",""num_scrambled_schematic"":""4"",""participantId"":""77D8BBD980704B8C82494AC3B8ECAF50"",""assignmentId"":""cc01f0a4-c006-44fb-bc86-12d4f6e8d491"",""projectId"":""9076ac92-be42-43a2-9634-8b67c7fe93a7""}","https://test12345.live/?num_scrambled_semantic=8&num_scrambled_causal=4&num_scrambled_schematic=4&participantId=77D8BBD980704B8C82494AC3B8ECAF50&assignmentId=cc01f0a4-c006-44fb-bc86-12d4f6e8d491&projectId=9076ac92-be42-43a2-9634-8b67c7fe93a7","77D8BBD980704B8C82494AC3B8ECAF50-2025-05-22-19-16-00","","null","","images/semantic_sequence/housework_semantic/housework_semantic_0.png","null","",""
"","","","","","image-button-response","92","751242","0.0-14.0-1.0-0.0","77D8BBD980704B8C82494AC3B8ECAF50","77D8BBD980704B8C82494AC3B8ECAF50","cc01f0a4-c006-44fb-bc86-12d4f6e8d491","9076ac92-be42-43a2-9634-8b67c7fe93a7","{""num_scrambled_semantic"":""8"",""num_scrambled_causal"":""4"",""num_scrambled_schematic"":""4"",""participantId"":""77D8BBD980704B8C82494AC3B8ECAF50"",""assignmentId"":""cc01f0a4-c006-44fb-bc86-12d4f6e8d491"",""projectId"":""9076ac92-be42-43a2-9634-8b67c7fe93a7""}","https://test12345.live/?num_scrambled_semantic=8&num_scrambled_causal=4&num_scrambled_schematic=4&participantId=77D8BBD980704B8C82494AC3B8ECAF50&assignmentId=cc01f0a4-c006-44fb-bc86-12d4f6e8d491&projectId=9076ac92-be42-43a2-9634-8b67c7fe93a7","77D8BBD980704B8C82494AC3B8ECAF50-2025-05-22-19-16-00","","null","","images/semantic_sequence/housework_semantic/housework_semantic_1.png","null","",""
"","","","","","image-button-response","93","754837","0.0-14.0-1.0-1.0","77D8BBD980704B8C82494AC3B8ECAF50","77D8BBD980704B8C82494AC3B8ECAF50","cc01f0a4-c006-44fb-bc86-12d4f6e8d491","9076ac92-be42-43a2-9634-8b67c7fe93a7","{""num_scrambled_semantic"":""8"",""num_scrambled_causal"":""4"",""num_scrambled_schematic"":""4"",""participantId"":""77D8BBD980704B8C82494AC3B8ECAF50"",""assignmentId"":""cc01f0a4-c006-44fb-bc86-12d4f6e8d491"",""projectId"":""9076ac92-be42-43a2-9634-8b67c7fe93a7""}","https://test12345.live/?num_scrambled_semantic=8&num_scrambled_causal=4&num_scrambled_schematic=4&participantId=77D8BBD980704B8C82494AC3B8ECAF50&assignmentId=cc01f0a4-c006-44fb-bc86-12d4f6e8d491&projectId=9076ac92-be42-43a2-9634-8b67c7fe93a7","77D8BBD980704B8C82494AC3B8ECAF50-2025-05-22-19-16-00","","3593","","images/semantic_sequence/housework_semantic/housework_semantic_1.png","0","",""
"","","","","","image-button-response","94","756677","0.0-14.0-1.0-2.0","77D8BBD980704B8C82494AC3B8ECAF50","77D8BBD980704B8C82494AC3B8ECAF50","cc01f0a4-c006-44fb-bc86-12d4f6e8d491","9076ac92-be42-43a2-9634-8b67c7fe93a7","{""num_scrambled_semantic"":""8"",""num_scrambled_causal"":""4"",""num_scrambled_schematic"":""4"",""participantId"":""77D8BBD980704B8C82494AC3B8ECAF50"",""assignmentId"":""cc01f0a4-c006-44fb-bc86-12d4f6e8d491"",""projectId"":""9076ac92-be42-43a2-9634-8b67c7fe93a7""}","https://test12345.live/?num_scrambled_semantic=8&num_scrambled_causal=4&num_scrambled_schematic=4&participantId=77D8BBD980704B8C82494AC3B8ECAF50&assignmentId=cc01f0a4-c006-44fb-bc86-12d4f6e8d491&projectId=9076ac92-be42-43a2-9634-8b67c7fe93a7","77D8BBD980704B8C82494AC3B8ECAF50-2025-05-22-19-16-00","","null","","[]","null","",""
"","","","","","image-button-response","95","761209","0.0-14.0-1.0-0.1","77D8BBD980704B8C82494AC3B8ECAF50","77D8BBD980704B8C82494AC3B8ECAF50","cc01f0a4-c006-44fb-bc86-12d4f6e8d491","9076ac92-be42-43a2-9634-8b67c7fe93a7","{""num_scrambled_semantic"":""8"",""num_scrambled_causal"":""4"",""num_scrambled_schematic"":""4"",""participantId"":""77D8BBD980704B8C82494AC3B8ECAF50"",""assignmentId"":""cc01f0a4-c006-44fb-bc86-12d4f6e8d491"",""projectId"":""9076ac92-be42-43a2-9634-8b67c7fe93a7""}","https://test12345.live/?num_scrambled_semantic=8&num_scrambled_causal=4&num_scrambled_schematic=4&participantId=77D8BBD980704B8C82494AC3B8ECAF50&assignmentId=cc01f0a4-c006-44fb-bc86-12d4f6e8d491&projectId=9076ac92-be42-43a2-9634-8b67c7fe93a7","77D8BBD980704B8C82494AC3B8ECAF50-2025-05-22-19-16-00","","null","","images/semantic_sequence/housework_semantic/housework_semantic_9.png","null","",""
"","","","","","image-button-response","96","762670","0.0-14.0-1.0-1.1","77D8BBD980704B8C82494AC3B8ECAF50","77D8BBD980704B8C82494AC3B8ECAF50","cc01f0a4-c006-44fb-bc86-12d4f6e8d491","9076ac92-be42-43a2-9634-8b67c7fe93a7","{""num_scrambled_semantic"":""8"",""num_scrambled_causal"":""4"",""num_scrambled_schematic"":""4"",""participantId"":""77D8BBD980704B8C82494AC3B8ECAF50"",""assignmentId"":""cc01f0a4-c006-44fb-bc86-12d4f6e8d491"",""projectId"":""9076ac92-be42-43a2-9634-8b67c7fe93a7""}","https://test12345.live/?num_scrambled_semantic=8&num_scrambled_causal=4&num_scrambled_schematic=4&participantId=77D8BBD980704B8C82494AC3B8ECAF50&assignmentId=cc01f0a4-c006-44fb-bc86-12d4f6e8d491&projectId=9076ac92-be42-43a2-9634-8b67c7fe93a7","77D8BBD980704B8C82494AC3B8ECAF50-2025-05-22-19-16-00","","1460","","images/semantic_sequence/housework_semantic/housework_semantic_9.png","0","",""
"","","","","","image-button-response","97","764479","0.0-14.0-1.0-2.1","77D8BBD980704B8C82494AC3B8ECAF50","77D8BBD980704B8C82494AC3B8ECAF50","cc01f0a4-c006-44fb-bc86-12d4f6e8d491","9076ac92-be42-43a2-9634-8b67c7fe93a7","{""num_scrambled_semantic"":""8"",""num_scrambled_causal"":""4"",""num_scrambled_schematic"":""4"",""participantId"":""77D8BBD980704B8C82494AC3B8ECAF50"",""assignmentId"":""cc01f0a4-c006-44fb-bc86-12d4f6e8d491"",""projectId"":""9076ac92-be42-43a2-9634-8b67c7fe93a7""}","https://test12345.live/?num_scrambled_semantic=8&num_scrambled_causal=4&num_scrambled_schematic=4&participantId=77D8BBD980704B8C82494AC3B8ECAF50&assignmentId=cc01f0a4-c006-44fb-bc86-12d4f6e8d491&projectId=9076ac92-be42-43a2-9634-8b67c7fe93a7","77D8BBD980704B8C82494AC3B8ECAF50-2025-05-22-19-16-00","","null","","[]","null","",""
"","","","","","image-button-response","98","769264","0.0-14.0-1.0-0.2","77D8BBD980704B8C82494AC3B8ECAF50","77D8BBD980704B8C82494AC3B8ECAF50","cc01f0a4-c006-44fb-bc86-12d4f6e8d491","9076ac92-be42-43a2-9634-8b67c7fe93a7","{""num_scrambled_semantic"":""8"",""num_scrambled_causal"":""4"",""num_scrambled_schematic"":""4"",""participantId"":""77D8BBD980704B8C82494AC3B8ECAF50"",""assignmentId"":""cc01f0a4-c006-44fb-bc86-12d4f6e8d491"",""projectId"":""9076ac92-be42-43a2-9634-8b67c7fe93a7""}","https://test12345.live/?num_scrambled_semantic=8&num_scrambled_causal=4&num_scrambled_schematic=4&participantId=77D8BBD980704B8C82494AC3B8ECAF50&assignmentId=cc01f0a4-c006-44fb-bc86-12d4f6e8d491&projectId=9076ac92-be42-43a2-9634-8b67c7fe93a7","77D8BBD980704B8C82494AC3B8ECAF50-2025-05-22-19-16-00","","null","","images/semantic_sequence/housework_semantic/housework_semantic_5.png","null","",""
"","","","","","image-button-response","99","771795","0.0-14.0-1.0-1.2","77D8BBD980704B8C82494AC3B8ECAF50","77D8BBD980704B8C82494AC3B8ECAF50","cc01f0a4-c006-44fb-bc86-12d4f6e8d491","9076ac92-be42-43a2-9634-8b67c7fe93a7","{""num_scrambled_semantic"":""8"",""num_scrambled_causal"":""4"",""num_scrambled_schematic"":""4"",""participantId"":""77D8BBD980704B8C82494AC3B8ECAF50"",""assignmentId"":""cc01f0a4-c006-44fb-bc86-12d4f6e8d491"",""projectId"":""9076ac92-be42-43a2-9634-8b67c7fe93a7""}","https://test12345.live/?num_scrambled_semantic=8&num_scrambled_causal=4&num_scrambled_schematic=4&participantId=77D8BBD980704B8C82494AC3B8ECAF50&assignmentId=cc01f0a4-c006-44fb-bc86-12d4f6e8d491&projectId=9076ac92-be42-43a2-9634-8b67c7fe93a7","77D8BBD980704B8C82494AC3B8ECAF50-2025-05-22-19-16-00","","2530","","images/semantic_sequence/housework_semantic/housework_semantic_5.png","0","",""
"","","","","","image-button-response","100","773811","0.0-14.0-1.0-2.2","77D8BBD980704B8C82494AC3B8ECAF50","77D8BBD980704B8C82494AC3B8ECAF50","cc01f0a4-c006-44fb-bc86-12d4f6e8d491","9076ac92-be42-43a2-9634-8b67c7fe93a7","{""num_scrambled_semantic"":""8"",""num_scrambled_causal"":""4"",""num_scrambled_schematic"":""4"",""participantId"":""77D8BBD980704B8C82494AC3B8ECAF50"",""assignmentId"":""cc01f0a4-c006-44fb-bc86-12d4f6e8d491"",""projectId"":""9076ac92-be42-43a2-9634-8b67c7fe93a7""}","https://test12345.live/?num_scrambled_semantic=8&num_scrambled_causal=4&num_scrambled_schematic=4&participantId=77D8BBD980704B8C82494AC3B8ECAF50&assignmentId=cc01f0a4-c006-44fb-bc86-12d4f6e8d491&projectId=9076ac92-be42-43a2-9634-8b67c7fe93a7","77D8BBD980704B8C82494AC3B8ECAF50-2025-05-22-19-16-00","","null","","[]","null","",""
"","","","","","image-button-response","101","778525","0.0-14.0-1.0-0.3","77D8BBD980704B8C82494AC3B8ECAF50","77D8BBD980704B8C82494AC3B8ECAF50","cc01f0a4-c006-44fb-bc86-12d4f6e8d491","9076ac92-be42-43a2-9634-8b67c7fe93a7","{""num_scrambled_semantic"":""8"",""num_scrambled_causal"":""4"",""num_scrambled_schematic"":""4"",""participantId"":""77D8BBD980704B8C82494AC3B8ECAF50"",""assignmentId"":""cc01f0a4-c006-44fb-bc86-12d4f6e8d491"",""projectId"":""9076ac92-be42-43a2-9634-8b67c7fe93a7""}","https://test12345.live/?num_scrambled_semantic=8&num_scrambled_causal=4&num_scrambled_schematic=4&participantId=77D8BBD980704B8C82494AC3B8ECAF50&assignmentId=cc01f0a4-c006-44fb-bc86-12d4f6e8d491&projectId=9076ac92-be42-43a2-9634-8b67c7fe93a7","77D8BBD980704B8C82494AC3B8ECAF50-2025-05-22-19-16-00","","null","","images/semantic_sequence/housework_semantic/housework_semantic_4.png","null","",""
"","","","","","image-button-response","102","782012","0.0-14.0-1.0-1.3","77D8BBD980704B8C82494AC3B8ECAF50","77D8BBD980704B8C82494AC3B8ECAF50","cc01f0a4-c006-44fb-bc86-12d4f6e8d491","9076ac92-be42-43a2-9634-8b67c7fe93a7","{""num_scrambled_semantic"":""8"",""num_scrambled_causal"":""4"",""num_scrambled_schematic"":""4"",""participantId"":""77D8BBD980704B8C82494AC3B8ECAF50"",""assignmentId"":""cc01f0a4-c006-44fb-bc86-12d4f6e8d491"",""projectId"":""9076ac92-be42-43a2-9634-8b67c7fe93a7""}","https://test12345.live/?num_scrambled_semantic=8&num_scrambled_causal=4&num_scrambled_schematic=4&participantId=77D8BBD980704B8C82494AC3B8ECAF50&assignmentId=cc01f0a4-c006-44fb-bc86-12d4f6e8d491&projectId=9076ac92-be42-43a2-9634-8b67c7fe93a7","77D8BBD980704B8C82494AC3B8ECAF50-2025-05-22-19-16-00","","3486","","images/semantic_sequence/housework_semantic/housework_semantic_4.png","0","",""
"","","","","","image-button-response","103","784038","0.0-14.0-1.0-2.3","77D8BBD980704B8C82494AC3B8ECAF50","77D8BBD980704B8C82494AC3B8ECAF50","cc01f0a4-c006-44fb-bc86-12d4f6e8d491","9076ac92-be42-43a2-9634-8b67c7fe93a7","{""num_scrambled_semantic"":""8"",""num_scrambled_causal"":""4"",""num_scrambled_schematic"":""4"",""participantId"":""77D8BBD980704B8C82494AC3B8ECAF50"",""assignmentId"":""cc01f0a4-c006-44fb-bc86-12d4f6e8d491"",""projectId"":""9076ac92-be42-43a2-9634-8b67c7fe93a7""}","https://test12345.live/?num_scrambled_semantic=8&num_scrambled_causal=4&num_scrambled_schematic=4&participantId=77D8BBD980704B8C82494AC3B8ECAF50&assignmentId=cc01f0a4-c006-44fb-bc86-12d4f6e8d491&projectId=9076ac92-be42-43a2-9634-8b67c7fe93a7","77D8BBD980704B8C82494AC3B8ECAF50-2025-05-22-19-16-00","","null","","[]","null","",""
"","","","","","image-button-response","104","789088","0.0-14.0-1.0-0.4","77D8BBD980704B8C82494AC3B8ECAF50","77D8BBD980704B8C82494AC3B8ECAF50","cc01f0a4-c006-44fb-bc86-12d4f6e8d491","9076ac92-be42-43a2-9634-8b67c7fe93a7","{""num_scrambled_semantic"":""8"",""num_scrambled_causal"":""4"",""num_scrambled_schematic"":""4"",""participantId"":""77D8BBD980704B8C82494AC3B8ECAF50"",""assignmentId"":""cc01f0a4-c006-44fb-bc86-12d4f6e8d491"",""projectId"":""9076ac92-be42-43a2-9634-8b67c7fe93a7""}","https://test12345.live/?num_scrambled_semantic=8&num_scrambled_causal=4&num_scrambled_schematic=4&participantId=77D8BBD980704B8C82494AC3B8ECAF50&assignmentId=cc01f0a4-c006-44fb-bc86-12d4f6e8d491&projectId=9076ac92-be42-43a2-9634-8b67c7fe93a7","77D8BBD980704B8C82494AC3B8ECAF50-2025-05-22-19-16-00","","null","","images/semantic_sequence/housework_semantic/housework_semantic_ten.png","null","",""
"","","","","","image-button-response","105","793198","0.0-14.0-1.0-1.4","77D8BBD980704B8C82494AC3B8ECAF50","77D8BBD980704B8C82494AC3B8ECAF50","cc01f0a4-c006-44fb-bc86-12d4f6e8d491","9076ac92-be42-43a2-9634-8b67c7fe93a7","{""num_scrambled_semantic"":""8"",""num_scrambled_causal"":""4"",""num_scrambled_schematic"":""4"",""participantId"":""77D8BBD980704B8C82494AC3B8ECAF50"",""assignmentId"":""cc01f0a4-c006-44fb-bc86-12d4f6e8d491"",""projectId"":""9076ac92-be42-43a2-9634-8b67c7fe93a7""}","https://test12345.live/?num_scrambled_semantic=8&num_scrambled_causal=4&num_scrambled_schematic=4&participantId=77D8BBD980704B8C82494AC3B8ECAF50&assignmentId=cc01f0a4-c006-44fb-bc86-12d4f6e8d491&projectId=9076ac92-be42-43a2-9634-8b67c7fe93a7","77D8BBD980704B8C82494AC3B8ECAF50-2025-05-22-19-16-00","","null","","images/semantic_sequence/housework_semantic/housework_semantic_ten.png","null","",""
"","","","","","image-button-response","106","794999","0.0-14.0-1.0-2.4","77D8BBD980704B8C82494AC3B8ECAF50","77D8BBD980704B8C82494AC3B8ECAF50","cc01f0a4-c006-44fb-bc86-12d4f6e8d491","9076ac92-be42-43a2-9634-8b67c7fe93a7","{""num_scrambled_semantic"":""8"",""num_scrambled_causal"":""4"",""num_scrambled_schematic"":""4"",""participantId"":""77D8BBD980704B8C82494AC3B8ECAF50"",""assignmentId"":""cc01f0a4-c006-44fb-bc86-12d4f6e8d491"",""projectId"":""9076ac92-be42-43a2-9634-8b67c7fe93a7""}","https://test12345.live/?num_scrambled_semantic=8&num_scrambled_causal=4&num_scrambled_schematic=4&participantId=77D8BBD980704B8C82494AC3B8ECAF50&assignmentId=cc01f0a4-c006-44fb-bc86-12d4f6e8d491&projectId=9076ac92-be42-43a2-9634-8b67c7fe93a7","77D8BBD980704B8C82494AC3B8ECAF50-2025-05-22-19-16-00","","null","","[]","null","",""
"","","","","","image-button-response","107","800055","0.0-14.0-1.0-0.5","77D8BBD980704B8C82494AC3B8ECAF50","77D8BBD980704B8C82494AC3B8ECAF50","cc01f0a4-c006-44fb-bc86-12d4f6e8d491","9076ac92-be42-43a2-9634-8b67c7fe93a7","{""num_scrambled_semantic"":""8"",""num_scrambled_causal"":""4"",""num_scrambled_schematic"":""4"",""participantId"":""77D8BBD980704B8C82494AC3B8ECAF50"",""assignmentId"":""cc01f0a4-c006-44fb-bc86-12d4f6e8d491"",""projectId"":""9076ac92-be42-43a2-9634-8b67c7fe93a7""}","https://test12345.live/?num_scrambled_semantic=8&num_scrambled_causal=4&num_scrambled_schematic=4&participantId=77D8BBD980704B8C82494AC3B8ECAF50&assignmentId=cc01f0a4-c006-44fb-bc86-12d4f6e8d491&projectId=9076ac92-be42-43a2-9634-8b67c7fe93a7","77D8BBD980704B8C82494AC3B8ECAF50-2025-05-22-19-16-00","","null","","images/semantic_sequence/housework_semantic/housework_semantic_7.png","null","",""
"","","","","","image-button-response","108","803367","0.0-14.0-1.0-1.5","77D8BBD980704B8C82494AC3B8ECAF50","77D8BBD980704B8C82494AC3B8ECAF50","cc01f0a4-c006-44fb-bc86-12d4f6e8d491","9076ac92-be42-43a2-9634-8b67c7fe93a7","{""num_scrambled_semantic"":""8"",""num_scrambled_causal"":""4"",""num_scrambled_schematic"":""4"",""participantId"":""77D8BBD980704B8C82494AC3B8ECAF50"",""assignmentId"":""cc01f0a4-c006-44fb-bc86-12d4f6e8d491"",""projectId"":""9076ac92-be42-43a2-9634-8b67c7fe93a7""}","https://test12345.live/?num_scrambled_semantic=8&num_scrambled_causal=4&num_scrambled_schematic=4&participantId=77D8BBD980704B8C82494AC3B8ECAF50&assignmentId=cc01f0a4-c006-44fb-bc86-12d4f6e8d491&projectId=9076ac92-be42-43a2-9634-8b67c7fe93a7","77D8BBD980704B8C82494AC3B8ECAF50-2025-05-22-19-16-00","","3311","","images/semantic_sequence/housework_semantic/housework_semantic_7.png","0","",""
"","","","","","image-button-response","109","805200","0.0-14.0-1.0-2.5","77D8BBD980704B8C82494AC3B8ECAF50","77D8BBD980704B8C82494AC3B8ECAF50","cc01f0a4-c006-44fb-bc86-12d4f6e8d491","9076ac92-be42-43a2-9634-8b67c7fe93a7","{""num_scrambled_semantic"":""8"",""num_scrambled_causal"":""4"",""num_scrambled_schematic"":""4"",""participantId"":""77D8BBD980704B8C82494AC3B8ECAF50"",""assignmentId"":""cc01f0a4-c006-44fb-bc86-12d4f6e8d491"",""projectId"":""9076ac92-be42-43a2-9634-8b67c7fe93a7""}","https://test12345.live/?num_scrambled_semantic=8&num_scrambled_causal=4&num_scrambled_schematic=4&participantId=77D8BBD980704B8C82494AC3B8ECAF50&assignmentId=cc01f0a4-c006-44fb-bc86-12d4f6e8d491&projectId=9076ac92-be42-43a2-9634-8b67c7fe93a7","77D8BBD980704B8C82494AC3B8ECAF50-2025-05-22-19-16-00","","null","","[]","null","",""
"","","","","","image-button-response","110","809739","0.0-14.0-1.0-0.6","77D8BBD980704B8C82494AC3B8ECAF50","77D8BBD980704B8C82494AC3B8ECAF50","cc01f0a4-c006-44fb-bc86-12d4f6e8d491","9076ac92-be42-43a2-9634-8b67c7fe93a7","{""num_scrambled_semantic"":""8"",""num_scrambled_causal"":""4"",""num_scrambled_schematic"":""4"",""participantId"":""77D8BBD980704B8C82494AC3B8ECAF50"",""assignmentId"":""cc01f0a4-c006-44fb-bc86-12d4f6e8d491"",""projectId"":""9076ac92-be42-43a2-9634-8b67c7fe93a7""}","https://test12345.live/?num_scrambled_semantic=8&num_scrambled_causal=4&num_scrambled_schematic=4&participantId=77D8BBD980704B8C82494AC3B8ECAF50&assignmentId=cc01f0a4-c006-44fb-bc86-12d4f6e8d491&projectId=9076ac92-be42-43a2-9634-8b67c7fe93a7","77D8BBD980704B8C82494AC3B8ECAF50-2025-05-22-19-16-00","","null","","images/semantic_sequence/housework_semantic/housework_semantic_6.png","null","",""
"","","","","","image-button-response","111","810494","0.0-14.0-1.0-1.6","77D8BBD980704B8C82494AC3B8ECAF50","77D8BBD980704B8C82494AC3B8ECAF50","cc01f0a4-c006-44fb-bc86-12d4f6e8d491","9076ac92-be42-43a2-9634-8b67c7fe93a7","{""num_scrambled_semantic"":""8"",""num_scrambled_causal"":""4"",""num_scrambled_schematic"":""4"",""participantId"":""77D8BBD980704B8C82494AC3B8ECAF50"",""assignmentId"":""cc01f0a4-c006-44fb-bc86-12d4f6e8d491"",""projectId"":""9076ac92-be42-43a2-9634-8b67c7fe93a7""}","https://test12345.live/?num_scrambled_semantic=8&num_scrambled_causal=4&num_scrambled_schematic=4&participantId=77D8BBD980704B8C82494AC3B8ECAF50&assignmentId=cc01f0a4-c006-44fb-bc86-12d4f6e8d491&projectId=9076ac92-be42-43a2-9634-8b67c7fe93a7","77D8BBD980704B8C82494AC3B8ECAF50-2025-05-22-19-16-00","","753","","images/semantic_sequence/housework_semantic/housework_semantic_6.png","0","",""
"","","","","","image-button-response","112","812304","0.0-14.0-1.0-2.6","77D8BBD980704B8C82494AC3B8ECAF50","77D8BBD980704B8C82494AC3B8ECAF50","cc01f0a4-c006-44fb-bc86-12d4f6e8d491","9076ac92-be42-43a2-9634-8b67c7fe93a7","{""num_scrambled_semantic"":""8"",""num_scrambled_causal"":""4"",""num_scrambled_schematic"":""4"",""participantId"":""77D8BBD980704B8C82494AC3B8ECAF50"",""assignmentId"":""cc01f0a4-c006-44fb-bc86-12d4f6e8d491"",""projectId"":""9076ac92-be42-43a2-9634-8b67c7fe93a7""}","https://test12345.live/?num_scrambled_semantic=8&num_scrambled_causal=4&num_scrambled_schematic=4&participantId=77D8BBD980704B8C82494AC3B8ECAF50&assignmentId=cc01f0a4-c006-44fb-bc86-12d4f6e8d491&projectId=9076ac92-be42-43a2-9634-8b67c7fe93a7","77D8BBD980704B8C82494AC3B8ECAF50-2025-05-22-19-16-00","","null","","[]","null","",""
"","","","","","image-button-response","113","816905","0.0-14.0-1.0-0.7","77D8BBD980704B8C82494AC3B8ECAF50","77D8BBD980704B8C82494AC3B8ECAF50","cc01f0a4-c006-44fb-bc86-12d4f6e8d491","9076ac92-be42-43a2-9634-8b67c7fe93a7","{""num_scrambled_semantic"":""8"",""num_scrambled_causal"":""4"",""num_scrambled_schematic"":""4"",""participantId"":""77D8BBD980704B8C82494AC3B8ECAF50"",""assignmentId"":""cc01f0a4-c006-44fb-bc86-12d4f6e8d491"",""projectId"":""9076ac92-be42-43a2-9634-8b67c7fe93a7""}","https://test12345.live/?num_scrambled_semantic=8&num_scrambled_causal=4&num_scrambled_schematic=4&participantId=77D8BBD980704B8C82494AC3B8ECAF50&assignmentId=cc01f0a4-c006-44fb-bc86-12d4f6e8d491&projectId=9076ac92-be42-43a2-9634-8b67c7fe93a7","77D8BBD980704B8C82494AC3B8ECAF50-2025-05-22-19-16-00","","null","","images/semantic_sequence/housework_semantic/housework_semantic_3.png","null","",""
"","","","","","image-button-response","114","821008","0.0-14.0-1.0-1.7","77D8BBD980704B8C82494AC3B8ECAF50","77D8BBD980704B8C82494AC3B8ECAF50","cc01f0a4-c006-44fb-bc86-12d4f6e8d491","9076ac92-be42-43a2-9634-8b67c7fe93a7","{""num_scrambled_semantic"":""8"",""num_scrambled_causal"":""4"",""num_scrambled_schematic"":""4"",""participantId"":""77D8BBD980704B8C82494AC3B8ECAF50"",""assignmentId"":""cc01f0a4-c006-44fb-bc86-12d4f6e8d491"",""projectId"":""9076ac92-be42-43a2-9634-8b67c7fe93a7""}","https://test12345.live/?num_scrambled_semantic=8&num_scrambled_causal=4&num_scrambled_schematic=4&participantId=77D8BBD980704B8C82494AC3B8ECAF50&assignmentId=cc01f0a4-c006-44fb-bc86-12d4f6e8d491&projectId=9076ac92-be42-43a2-9634-8b67c7fe93a7","77D8BBD980704B8C82494AC3B8ECAF50-2025-05-22-19-16-00","","null","","images/semantic_sequence/housework_semantic/housework_semantic_3.png","null","",""
