"success","timeout","failed_images","failed_audio","failed_video","trial_type","trial_index","time_elapsed","internal_node_id","subject","subject_id","study_id","session_id","urlvar","current_url","audio_id","view_history","rt","device_id","stimulus","response","estimated_stimulus_onset","seq_name"
"true","false","[]","[]","[]","preload","0","14766","0.0-0.0","77EAAFE50DDB4B858F8BC3FF4BB9F7C7","77EAAFE50DDB4B858F8BC3FF4BB9F7C7","e7f54b54-ba25-4c29-a0f2-af5f8fd22409","9076ac92-be42-43a2-9634-8b67c7fe93a7","{""num_scrambled_semantic"":""8"",""num_scrambled_causal"":""4"",""num_scrambled_schematic"":""4"",""participantId"":""77EAAFE50DDB4B858F8BC3FF4BB9F7C7"",""assignmentId"":""e7f54b54-ba25-4c29-a0f2-af5f8fd22409"",""projectId"":""9076ac92-be42-43a2-9634-8b67c7fe93a7""}","https://test12345.live/?num_scrambled_semantic=8&num_scrambled_causal=4&num_scrambled_schematic=4&participantId=77EAAFE50DDB4B858F8BC3FF4BB9F7C7&assignmentId=e7f54b54-ba25-4c29-a0f2-af5f8fd22409&projectId=9076ac92-be42-43a2-9634-8b67c7fe93a7","77EAAFE50DDB4B858F8BC3FF4BB9F7C7-2025-05-22-20-12-15","","","","","","",""
"","","","","","instructions","1","36187","0.0-1.0","77EAAFE50DDB4B858F8BC3FF4BB9F7C7","77EAAFE50DDB4B858F8BC3FF4BB9F7C7","e7f54b54-ba25-4c29-a0f2-af5f8fd22409","9076ac92-be42-43a2-9634-8b67c7fe93a7","{""num_scrambled_semantic"":""8"",""num_scrambled_causal"":""4"",""num_scrambled_schematic"":""4"",""participantId"":""77EAAFE50DDB4B858F8BC3FF4BB9F7C7"",""assignmentId"":""e7f54b54-ba25-4c29-a0f2-af5f8fd22409"",""projectId"":""9076ac92-be42-43a2-9634-8b67c7fe93a7""}","https://test12345.live/?num_scrambled_semantic=8&num_scrambled_causal=4&num_scrambled_schematic=4&participantId=77EAAFE50DDB4B858F8BC3FF4BB9F7C7&assignmentId=e7f54b54-ba25-4c29-a0f2-af5f8fd22409&projectId=9076ac92-be42-43a2-9634-8b67c7fe93a7","77EAAFE50DDB4B858F8BC3FF4BB9F7C7-2025-05-22-20-12-15","[{""page_index"":0,""viewing_time"":21417}]","21417","","","","",""
"","","","","","instructions","2","96483","0.0-2.0","77EAAFE50DDB4B858F8BC3FF4BB9F7C7","77EAAFE50DDB4B858F8BC3FF4BB9F7C7","e7f54b54-ba25-4c29-a0f2-af5f8fd22409","9076ac92-be42-43a2-9634-8b67c7fe93a7","{""num_scrambled_semantic"":""8"",""num_scrambled_causal"":""4"",""num_scrambled_schematic"":""4"",""participantId"":""77EAAFE50DDB4B858F8BC3FF4BB9F7C7"",""assignmentId"":""e7f54b54-ba25-4c29-a0f2-af5f8fd22409"",""projectId"":""9076ac92-be42-43a2-9634-8b67c7fe93a7""}","https://test12345.live/?num_scrambled_semantic=8&num_scrambled_causal=4&num_scrambled_schematic=4&participantId=77EAAFE50DDB4B858F8BC3FF4BB9F7C7&assignmentId=e7f54b54-ba25-4c29-a0f2-af5f8fd22409&projectId=9076ac92-be42-43a2-9634-8b67c7fe93a7","77EAAFE50DDB4B858F8BC3FF4BB9F7C7-2025-05-22-20-12-15","[{""page_index"":0,""viewing_time"":60295}]","60296","","","","",""
"true","","","","","fullscreen","3","99526","0.0-3.0","77EAAFE50DDB4B858F8BC3FF4BB9F7C7","77EAAFE50DDB4B858F8BC3FF4BB9F7C7","e7f54b54-ba25-4c29-a0f2-af5f8fd22409","9076ac92-be42-43a2-9634-8b67c7fe93a7","{""num_scrambled_semantic"":""8"",""num_scrambled_causal"":""4"",""num_scrambled_schematic"":""4"",""participantId"":""77EAAFE50DDB4B858F8BC3FF4BB9F7C7"",""assignmentId"":""e7f54b54-ba25-4c29-a0f2-af5f8fd22409"",""projectId"":""9076ac92-be42-43a2-9634-8b67c7fe93a7""}","https://test12345.live/?num_scrambled_semantic=8&num_scrambled_causal=4&num_scrambled_schematic=4&participantId=77EAAFE50DDB4B858F8BC3FF4BB9F7C7&assignmentId=e7f54b54-ba25-4c29-a0f2-af5f8fd22409&projectId=9076ac92-be42-43a2-9634-8b67c7fe93a7","77EAAFE50DDB4B858F8BC3FF4BB9F7C7-2025-05-22-20-12-15","","2039","","","","",""
"","","","","","initialize-microphone","4","105544","0.0-4.0-0.0","77EAAFE50DDB4B858F8BC3FF4BB9F7C7","77EAAFE50DDB4B858F8BC3FF4BB9F7C7","e7f54b54-ba25-4c29-a0f2-af5f8fd22409","9076ac92-be42-43a2-9634-8b67c7fe93a7","{""num_scrambled_semantic"":""8"",""num_scrambled_causal"":""4"",""num_scrambled_schematic"":""4"",""participantId"":""77EAAFE50DDB4B858F8BC3FF4BB9F7C7"",""assignmentId"":""e7f54b54-ba25-4c29-a0f2-af5f8fd22409"",""projectId"":""9076ac92-be42-43a2-9634-8b67c7fe93a7""}","https://test12345.live/?num_scrambled_semantic=8&num_scrambled_causal=4&num_scrambled_schematic=4&participantId=77EAAFE50DDB4B858F8BC3FF4BB9F7C7&assignmentId=e7f54b54-ba25-4c29-a0f2-af5f8fd22409&projectId=9076ac92-be42-43a2-9634-8b67c7fe93a7","77EAAFE50DDB4B858F8BC3FF4BB9F7C7-2025-05-22-20-12-15","","","46da827da34bba3416be94ce57d8952f958f0df86370d4c76e51e869cbfdbdc0","","","",""
"","","","","","html-audio-response","5","130947","0.0-4.0-1.0","77EAAFE50DDB4B858F8BC3FF4BB9F7C7","77EAAFE50DDB4B858F8BC3FF4BB9F7C7","e7f54b54-ba25-4c29-a0f2-af5f8fd22409","9076ac92-be42-43a2-9634-8b67c7fe93a7","{""num_scrambled_semantic"":""8"",""num_scrambled_causal"":""4"",""num_scrambled_schematic"":""4"",""participantId"":""77EAAFE50DDB4B858F8BC3FF4BB9F7C7"",""assignmentId"":""e7f54b54-ba25-4c29-a0f2-af5f8fd22409"",""projectId"":""9076ac92-be42-43a2-9634-8b67c7fe93a7""}","https://test12345.live/?num_scrambled_semantic=8&num_scrambled_causal=4&num_scrambled_schematic=4&participantId=77EAAFE50DDB4B858F8BC3FF4BB9F7C7&assignmentId=e7f54b54-ba25-4c29-a0f2-af5f8fd22409&projectId=9076ac92-be42-43a2-9634-8b67c7fe93a7","77EAAFE50DDB4B858F8BC3FF4BB9F7C7-2025-05-22-20-12-15","","15522","","<span style=""color: red; font-size: 24px""> NOW RECORDING</span>
        <p>Please test Microphone</p>","","3",""
"","","","","","html-button-response","6","132294","0.0-4.0-2.0","77EAAFE50DDB4B858F8BC3FF4BB9F7C7","77EAAFE50DDB4B858F8BC3FF4BB9F7C7","e7f54b54-ba25-4c29-a0f2-af5f8fd22409","9076ac92-be42-43a2-9634-8b67c7fe93a7","{""num_scrambled_semantic"":""8"",""num_scrambled_causal"":""4"",""num_scrambled_schematic"":""4"",""participantId"":""77EAAFE50DDB4B858F8BC3FF4BB9F7C7"",""assignmentId"":""e7f54b54-ba25-4c29-a0f2-af5f8fd22409"",""projectId"":""9076ac92-be42-43a2-9634-8b67c7fe93a7""}","https://test12345.live/?num_scrambled_semantic=8&num_scrambled_causal=4&num_scrambled_schematic=4&participantId=77EAAFE50DDB4B858F8BC3FF4BB9F7C7&assignmentId=e7f54b54-ba25-4c29-a0f2-af5f8fd22409&projectId=9076ac92-be42-43a2-9634-8b67c7fe93a7","77EAAFE50DDB4B858F8BC3FF4BB9F7C7-2025-05-22-20-12-15","","1346","","<p style=""font-size:48px; color:red;"">Is Microphone OK?</p>","1","",""
"","","","","","instructions","7","147255","0.0-5.0","77EAAFE50DDB4B858F8BC3FF4BB9F7C7","77EAAFE50DDB4B858F8BC3FF4BB9F7C7","e7f54b54-ba25-4c29-a0f2-af5f8fd22409","9076ac92-be42-43a2-9634-8b67c7fe93a7","{""num_scrambled_semantic"":""8"",""num_scrambled_causal"":""4"",""num_scrambled_schematic"":""4"",""participantId"":""77EAAFE50DDB4B858F8BC3FF4BB9F7C7"",""assignmentId"":""e7f54b54-ba25-4c29-a0f2-af5f8fd22409"",""projectId"":""9076ac92-be42-43a2-9634-8b67c7fe93a7""}","https://test12345.live/?num_scrambled_semantic=8&num_scrambled_causal=4&num_scrambled_schematic=4&participantId=77EAAFE50DDB4B858F8BC3FF4BB9F7C7&assignmentId=e7f54b54-ba25-4c29-a0f2-af5f8fd22409&projectId=9076ac92-be42-43a2-9634-8b67c7fe93a7","77EAAFE50DDB4B858F8BC3FF4BB9F7C7-2025-05-22-20-12-15","[{""page_index"":0,""viewing_time"":6975},{""page_index"":1,""viewing_time"":7985}]","14961","","","","",""
"","","","","","image-button-response","8","153257","0.0-6.0-0.0","77EAAFE50DDB4B858F8BC3FF4BB9F7C7","77EAAFE50DDB4B858F8BC3FF4BB9F7C7","e7f54b54-ba25-4c29-a0f2-af5f8fd22409","9076ac92-be42-43a2-9634-8b67c7fe93a7","{""num_scrambled_semantic"":""8"",""num_scrambled_causal"":""4"",""num_scrambled_schematic"":""4"",""participantId"":""77EAAFE50DDB4B858F8BC3FF4BB9F7C7"",""assignmentId"":""e7f54b54-ba25-4c29-a0f2-af5f8fd22409"",""projectId"":""9076ac92-be42-43a2-9634-8b67c7fe93a7""}","https://test12345.live/?num_scrambled_semantic=8&num_scrambled_causal=4&num_scrambled_schematic=4&participantId=77EAAFE50DDB4B858F8BC3FF4BB9F7C7&assignmentId=e7f54b54-ba25-4c29-a0f2-af5f8fd22409&projectId=9076ac92-be42-43a2-9634-8b67c7fe93a7","77EAAFE50DDB4B858F8BC3FF4BB9F7C7-2025-05-22-20-12-15","","null","","images/instructions/movie_0.png","null","",""
"","","","","","image-button-response","9","157758","0.0-6.0-1.0-0.0","77EAAFE50DDB4B858F8BC3FF4BB9F7C7","77EAAFE50DDB4B858F8BC3FF4BB9F7C7","e7f54b54-ba25-4c29-a0f2-af5f8fd22409","9076ac92-be42-43a2-9634-8b67c7fe93a7","{""num_scrambled_semantic"":""8"",""num_scrambled_causal"":""4"",""num_scrambled_schematic"":""4"",""participantId"":""77EAAFE50DDB4B858F8BC3FF4BB9F7C7"",""assignmentId"":""e7f54b54-ba25-4c29-a0f2-af5f8fd22409"",""projectId"":""9076ac92-be42-43a2-9634-8b67c7fe93a7""}","https://test12345.live/?num_scrambled_semantic=8&num_scrambled_causal=4&num_scrambled_schematic=4&participantId=77EAAFE50DDB4B858F8BC3FF4BB9F7C7&assignmentId=e7f54b54-ba25-4c29-a0f2-af5f8fd22409&projectId=9076ac92-be42-43a2-9634-8b67c7fe93a7","77EAAFE50DDB4B858F8BC3FF4BB9F7C7-2025-05-22-20-12-15","","null","","images/instructions/movie_1.png","null","",""
"","","","","","image-button-response","10","160589","0.0-6.0-1.0-1.0","77EAAFE50DDB4B858F8BC3FF4BB9F7C7","77EAAFE50DDB4B858F8BC3FF4BB9F7C7","e7f54b54-ba25-4c29-a0f2-af5f8fd22409","9076ac92-be42-43a2-9634-8b67c7fe93a7","{""num_scrambled_semantic"":""8"",""num_scrambled_causal"":""4"",""num_scrambled_schematic"":""4"",""participantId"":""77EAAFE50DDB4B858F8BC3FF4BB9F7C7"",""assignmentId"":""e7f54b54-ba25-4c29-a0f2-af5f8fd22409"",""projectId"":""9076ac92-be42-43a2-9634-8b67c7fe93a7""}","https://test12345.live/?num_scrambled_semantic=8&num_scrambled_causal=4&num_scrambled_schematic=4&participantId=77EAAFE50DDB4B858F8BC3FF4BB9F7C7&assignmentId=e7f54b54-ba25-4c29-a0f2-af5f8fd22409&projectId=9076ac92-be42-43a2-9634-8b67c7fe93a7","77EAAFE50DDB4B858F8BC3FF4BB9F7C7-2025-05-22-20-12-15","","2831","","images/instructions/movie_1.png","0","",""
"","","","","","image-button-response","11","162394","0.0-6.0-1.0-2.0","77EAAFE50DDB4B858F8BC3FF4BB9F7C7","77EAAFE50DDB4B858F8BC3FF4BB9F7C7","e7f54b54-ba25-4c29-a0f2-af5f8fd22409","9076ac92-be42-43a2-9634-8b67c7fe93a7","{""num_scrambled_semantic"":""8"",""num_scrambled_causal"":""4"",""num_scrambled_schematic"":""4"",""participantId"":""77EAAFE50DDB4B858F8BC3FF4BB9F7C7"",""assignmentId"":""e7f54b54-ba25-4c29-a0f2-af5f8fd22409"",""projectId"":""9076ac92-be42-43a2-9634-8b67c7fe93a7""}","https://test12345.live/?num_scrambled_semantic=8&num_scrambled_causal=4&num_scrambled_schematic=4&participantId=77EAAFE50DDB4B858F8BC3FF4BB9F7C7&assignmentId=e7f54b54-ba25-4c29-a0f2-af5f8fd22409&projectId=9076ac92-be42-43a2-9634-8b67c7fe93a7","77EAAFE50DDB4B858F8BC3FF4BB9F7C7-2025-05-22-20-12-15","","null","","[]","null","",""
"","","","","","image-button-response","12","166896","0.0-6.0-1.0-0.1","77EAAFE50DDB4B858F8BC3FF4BB9F7C7","77EAAFE50DDB4B858F8BC3FF4BB9F7C7","e7f54b54-ba25-4c29-a0f2-af5f8fd22409","9076ac92-be42-43a2-9634-8b67c7fe93a7","{""num_scrambled_semantic"":""8"",""num_scrambled_causal"":""4"",""num_scrambled_schematic"":""4"",""participantId"":""77EAAFE50DDB4B858F8BC3FF4BB9F7C7"",""assignmentId"":""e7f54b54-ba25-4c29-a0f2-af5f8fd22409"",""projectId"":""9076ac92-be42-43a2-9634-8b67c7fe93a7""}","https://test12345.live/?num_scrambled_semantic=8&num_scrambled_causal=4&num_scrambled_schematic=4&participantId=77EAAFE50DDB4B858F8BC3FF4BB9F7C7&assignmentId=e7f54b54-ba25-4c29-a0f2-af5f8fd22409&projectId=9076ac92-be42-43a2-9634-8b67c7fe93a7","77EAAFE50DDB4B858F8BC3FF4BB9F7C7-2025-05-22-20-12-15","","null","","images/instructions/movie_2.png","null","",""
"","","","","","image-button-response","13","170193","0.0-6.0-1.0-1.1","77EAAFE50DDB4B858F8BC3FF4BB9F7C7","77EAAFE50DDB4B858F8BC3FF4BB9F7C7","e7f54b54-ba25-4c29-a0f2-af5f8fd22409","9076ac92-be42-43a2-9634-8b67c7fe93a7","{""num_scrambled_semantic"":""8"",""num_scrambled_causal"":""4"",""num_scrambled_schematic"":""4"",""participantId"":""77EAAFE50DDB4B858F8BC3FF4BB9F7C7"",""assignmentId"":""e7f54b54-ba25-4c29-a0f2-af5f8fd22409"",""projectId"":""9076ac92-be42-43a2-9634-8b67c7fe93a7""}","https://test12345.live/?num_scrambled_semantic=8&num_scrambled_causal=4&num_scrambled_schematic=4&participantId=77EAAFE50DDB4B858F8BC3FF4BB9F7C7&assignmentId=e7f54b54-ba25-4c29-a0f2-af5f8fd22409&projectId=9076ac92-be42-43a2-9634-8b67c7fe93a7","77EAAFE50DDB4B858F8BC3FF4BB9F7C7-2025-05-22-20-12-15","","3296","","images/instructions/movie_2.png","1","",""
"","","","","","image-button-response","14","171993","0.0-6.0-1.0-2.1","77EAAFE50DDB4B858F8BC3FF4BB9F7C7","77EAAFE50DDB4B858F8BC3FF4BB9F7C7","e7f54b54-ba25-4c29-a0f2-af5f8fd22409","9076ac92-be42-43a2-9634-8b67c7fe93a7","{""num_scrambled_semantic"":""8"",""num_scrambled_causal"":""4"",""num_scrambled_schematic"":""4"",""participantId"":""77EAAFE50DDB4B858F8BC3FF4BB9F7C7"",""assignmentId"":""e7f54b54-ba25-4c29-a0f2-af5f8fd22409"",""projectId"":""9076ac92-be42-43a2-9634-8b67c7fe93a7""}","https://test12345.live/?num_scrambled_semantic=8&num_scrambled_causal=4&num_scrambled_schematic=4&participantId=77EAAFE50DDB4B858F8BC3FF4BB9F7C7&assignmentId=e7f54b54-ba25-4c29-a0f2-af5f8fd22409&projectId=9076ac92-be42-43a2-9634-8b67c7fe93a7","77EAAFE50DDB4B858F8BC3FF4BB9F7C7-2025-05-22-20-12-15","","null","","[]","null","",""
"","","","","","image-button-response","15","176497","0.0-6.0-1.0-0.2","77EAAFE50DDB4B858F8BC3FF4BB9F7C7","77EAAFE50DDB4B858F8BC3FF4BB9F7C7","e7f54b54-ba25-4c29-a0f2-af5f8fd22409","9076ac92-be42-43a2-9634-8b67c7fe93a7","{""num_scrambled_semantic"":""8"",""num_scrambled_causal"":""4"",""num_scrambled_schematic"":""4"",""participantId"":""77EAAFE50DDB4B858F8BC3FF4BB9F7C7"",""assignmentId"":""e7f54b54-ba25-4c29-a0f2-af5f8fd22409"",""projectId"":""9076ac92-be42-43a2-9634-8b67c7fe93a7""}","https://test12345.live/?num_scrambled_semantic=8&num_scrambled_causal=4&num_scrambled_schematic=4&participantId=77EAAFE50DDB4B858F8BC3FF4BB9F7C7&assignmentId=e7f54b54-ba25-4c29-a0f2-af5f8fd22409&projectId=9076ac92-be42-43a2-9634-8b67c7fe93a7","77EAAFE50DDB4B858F8BC3FF4BB9F7C7-2025-05-22-20-12-15","","null","","images/instructions/movie_3.png","null","",""
"","","","","","image-button-response","16","177766","0.0-6.0-1.0-1.2","77EAAFE50DDB4B858F8BC3FF4BB9F7C7","77EAAFE50DDB4B858F8BC3FF4BB9F7C7","e7f54b54-ba25-4c29-a0f2-af5f8fd22409","9076ac92-be42-43a2-9634-8b67c7fe93a7","{""num_scrambled_semantic"":""8"",""num_scrambled_causal"":""4"",""num_scrambled_schematic"":""4"",""participantId"":""77EAAFE50DDB4B858F8BC3FF4BB9F7C7"",""assignmentId"":""e7f54b54-ba25-4c29-a0f2-af5f8fd22409"",""projectId"":""9076ac92-be42-43a2-9634-8b67c7fe93a7""}","https://test12345.live/?num_scrambled_semantic=8&num_scrambled_causal=4&num_scrambled_schematic=4&participantId=77EAAFE50DDB4B858F8BC3FF4BB9F7C7&assignmentId=e7f54b54-ba25-4c29-a0f2-af5f8fd22409&projectId=9076ac92-be42-43a2-9634-8b67c7fe93a7","77EAAFE50DDB4B858F8BC3FF4BB9F7C7-2025-05-22-20-12-15","","1268","","images/instructions/movie_3.png","0","",""
"","","","","","image-button-response","17","179569","0.0-6.0-1.0-2.2","77EAAFE50DDB4B858F8BC3FF4BB9F7C7","77EAAFE50DDB4B858F8BC3FF4BB9F7C7","e7f54b54-ba25-4c29-a0f2-af5f8fd22409","9076ac92-be42-43a2-9634-8b67c7fe93a7","{""num_scrambled_semantic"":""8"",""num_scrambled_causal"":""4"",""num_scrambled_schematic"":""4"",""participantId"":""77EAAFE50DDB4B858F8BC3FF4BB9F7C7"",""assignmentId"":""e7f54b54-ba25-4c29-a0f2-af5f8fd22409"",""projectId"":""9076ac92-be42-43a2-9634-8b67c7fe93a7""}","https://test12345.live/?num_scrambled_semantic=8&num_scrambled_causal=4&num_scrambled_schematic=4&participantId=77EAAFE50DDB4B858F8BC3FF4BB9F7C7&assignmentId=e7f54b54-ba25-4c29-a0f2-af5f8fd22409&projectId=9076ac92-be42-43a2-9634-8b67c7fe93a7","77EAAFE50DDB4B858F8BC3FF4BB9F7C7-2025-05-22-20-12-15","","null","","[]","null","",""
"","","","","","image-button-response","18","184071","0.0-6.0-1.0-0.3","77EAAFE50DDB4B858F8BC3FF4BB9F7C7","77EAAFE50DDB4B858F8BC3FF4BB9F7C7","e7f54b54-ba25-4c29-a0f2-af5f8fd22409","9076ac92-be42-43a2-9634-8b67c7fe93a7","{""num_scrambled_semantic"":""8"",""num_scrambled_causal"":""4"",""num_scrambled_schematic"":""4"",""participantId"":""77EAAFE50DDB4B858F8BC3FF4BB9F7C7"",""assignmentId"":""e7f54b54-ba25-4c29-a0f2-af5f8fd22409"",""projectId"":""9076ac92-be42-43a2-9634-8b67c7fe93a7""}","https://test12345.live/?num_scrambled_semantic=8&num_scrambled_causal=4&num_scrambled_schematic=4&participantId=77EAAFE50DDB4B858F8BC3FF4BB9F7C7&assignmentId=e7f54b54-ba25-4c29-a0f2-af5f8fd22409&projectId=9076ac92-be42-43a2-9634-8b67c7fe93a7","77EAAFE50DDB4B858F8BC3FF4BB9F7C7-2025-05-22-20-12-15","","null","","images/instructions/movie_4.png","null","",""
"","","","","","image-button-response","19","185439","0.0-6.0-1.0-1.3","77EAAFE50DDB4B858F8BC3FF4BB9F7C7","77EAAFE50DDB4B858F8BC3FF4BB9F7C7","e7f54b54-ba25-4c29-a0f2-af5f8fd22409","9076ac92-be42-43a2-9634-8b67c7fe93a7","{""num_scrambled_semantic"":""8"",""num_scrambled_causal"":""4"",""num_scrambled_schematic"":""4"",""participantId"":""77EAAFE50DDB4B858F8BC3FF4BB9F7C7"",""assignmentId"":""e7f54b54-ba25-4c29-a0f2-af5f8fd22409"",""projectId"":""9076ac92-be42-43a2-9634-8b67c7fe93a7""}","https://test12345.live/?num_scrambled_semantic=8&num_scrambled_causal=4&num_scrambled_schematic=4&participantId=77EAAFE50DDB4B858F8BC3FF4BB9F7C7&assignmentId=e7f54b54-ba25-4c29-a0f2-af5f8fd22409&projectId=9076ac92-be42-43a2-9634-8b67c7fe93a7","77EAAFE50DDB4B858F8BC3FF4BB9F7C7-2025-05-22-20-12-15","","1368","","images/instructions/movie_4.png","0","",""
"","","","","","image-button-response","20","187243","0.0-6.0-1.0-2.3","77EAAFE50DDB4B858F8BC3FF4BB9F7C7","77EAAFE50DDB4B858F8BC3FF4BB9F7C7","e7f54b54-ba25-4c29-a0f2-af5f8fd22409","9076ac92-be42-43a2-9634-8b67c7fe93a7","{""num_scrambled_semantic"":""8"",""num_scrambled_causal"":""4"",""num_scrambled_schematic"":""4"",""participantId"":""77EAAFE50DDB4B858F8BC3FF4BB9F7C7"",""assignmentId"":""e7f54b54-ba25-4c29-a0f2-af5f8fd22409"",""projectId"":""9076ac92-be42-43a2-9634-8b67c7fe93a7""}","https://test12345.live/?num_scrambled_semantic=8&num_scrambled_causal=4&num_scrambled_schematic=4&participantId=77EAAFE50DDB4B858F8BC3FF4BB9F7C7&assignmentId=e7f54b54-ba25-4c29-a0f2-af5f8fd22409&projectId=9076ac92-be42-43a2-9634-8b67c7fe93a7","77EAAFE50DDB4B858F8BC3FF4BB9F7C7-2025-05-22-20-12-15","","null","","[]","null","",""
"","","","","","instructions","21","201251","0.0-7.0","77EAAFE50DDB4B858F8BC3FF4BB9F7C7","77EAAFE50DDB4B858F8BC3FF4BB9F7C7","e7f54b54-ba25-4c29-a0f2-af5f8fd22409","9076ac92-be42-43a2-9634-8b67c7fe93a7","{""num_scrambled_semantic"":""8"",""num_scrambled_causal"":""4"",""num_scrambled_schematic"":""4"",""participantId"":""77EAAFE50DDB4B858F8BC3FF4BB9F7C7"",""assignmentId"":""e7f54b54-ba25-4c29-a0f2-af5f8fd22409"",""projectId"":""9076ac92-be42-43a2-9634-8b67c7fe93a7""}","https://test12345.live/?num_scrambled_semantic=8&num_scrambled_causal=4&num_scrambled_schematic=4&participantId=77EAAFE50DDB4B858F8BC3FF4BB9F7C7&assignmentId=e7f54b54-ba25-4c29-a0f2-af5f8fd22409&projectId=9076ac92-be42-43a2-9634-8b67c7fe93a7","77EAAFE50DDB4B858F8BC3FF4BB9F7C7-2025-05-22-20-12-15","[{""page_index"":0,""viewing_time"":12794},{""page_index"":1,""viewing_time"":1213}]","14008","","","","",""
"","","","","","html-audio-response","22","234213","0.0-8.0","77EAAFE50DDB4B858F8BC3FF4BB9F7C7","77EAAFE50DDB4B858F8BC3FF4BB9F7C7","e7f54b54-ba25-4c29-a0f2-af5f8fd22409","9076ac92-be42-43a2-9634-8b67c7fe93a7","{""num_scrambled_semantic"":""8"",""num_scrambled_causal"":""4"",""num_scrambled_schematic"":""4"",""participantId"":""77EAAFE50DDB4B858F8BC3FF4BB9F7C7"",""assignmentId"":""e7f54b54-ba25-4c29-a0f2-af5f8fd22409"",""projectId"":""9076ac92-be42-43a2-9634-8b67c7fe93a7""}","https://test12345.live/?num_scrambled_semantic=8&num_scrambled_causal=4&num_scrambled_schematic=4&participantId=77EAAFE50DDB4B858F8BC3FF4BB9F7C7&assignmentId=e7f54b54-ba25-4c29-a0f2-af5f8fd22409&projectId=9076ac92-be42-43a2-9634-8b67c7fe93a7","77EAAFE50DDB4B858F8BC3FF4BB9F7C7-2025-05-22-20-12-15","","19939","","[""<span style=\""color: red; font-size: 24px\""> NOW RECORDING</span><p>Please say out loud all the images you saw in the exact order you saw them. Try to recall as many images as you can, but remember: getting the order right is more important than the number of images you recall.</p>""]","","1",""
"","","","","","instructions","23","235733","0.0-9.0","77EAAFE50DDB4B858F8BC3FF4BB9F7C7","77EAAFE50DDB4B858F8BC3FF4BB9F7C7","e7f54b54-ba25-4c29-a0f2-af5f8fd22409","9076ac92-be42-43a2-9634-8b67c7fe93a7","{""num_scrambled_semantic"":""8"",""num_scrambled_causal"":""4"",""num_scrambled_schematic"":""4"",""participantId"":""77EAAFE50DDB4B858F8BC3FF4BB9F7C7"",""assignmentId"":""e7f54b54-ba25-4c29-a0f2-af5f8fd22409"",""projectId"":""9076ac92-be42-43a2-9634-8b67c7fe93a7""}","https://test12345.live/?num_scrambled_semantic=8&num_scrambled_causal=4&num_scrambled_schematic=4&participantId=77EAAFE50DDB4B858F8BC3FF4BB9F7C7&assignmentId=e7f54b54-ba25-4c29-a0f2-af5f8fd22409&projectId=9076ac92-be42-43a2-9634-8b67c7fe93a7","77EAAFE50DDB4B858F8BC3FF4BB9F7C7-2025-05-22-20-12-15","[{""page_index"":0,""viewing_time"":1517}]","1517","","","","",""
"","","","","","image-button-response","24","241734","0.0-10.0-0.0","77EAAFE50DDB4B858F8BC3FF4BB9F7C7","77EAAFE50DDB4B858F8BC3FF4BB9F7C7","e7f54b54-ba25-4c29-a0f2-af5f8fd22409","9076ac92-be42-43a2-9634-8b67c7fe93a7","{""num_scrambled_semantic"":""8"",""num_scrambled_causal"":""4"",""num_scrambled_schematic"":""4"",""participantId"":""77EAAFE50DDB4B858F8BC3FF4BB9F7C7"",""assignmentId"":""e7f54b54-ba25-4c29-a0f2-af5f8fd22409"",""projectId"":""9076ac92-be42-43a2-9634-8b67c7fe93a7""}","https://test12345.live/?num_scrambled_semantic=8&num_scrambled_causal=4&num_scrambled_schematic=4&participantId=77EAAFE50DDB4B858F8BC3FF4BB9F7C7&assignmentId=e7f54b54-ba25-4c29-a0f2-af5f8fd22409&projectId=9076ac92-be42-43a2-9634-8b67c7fe93a7","77EAAFE50DDB4B858F8BC3FF4BB9F7C7-2025-05-22-20-12-15","","null","","images/causal_sequence/museum_causal/museum_causal_0.png","null","",""
"","","","","","image-button-response","25","246236","0.0-10.0-1.0-0.0","77EAAFE50DDB4B858F8BC3FF4BB9F7C7","77EAAFE50DDB4B858F8BC3FF4BB9F7C7","e7f54b54-ba25-4c29-a0f2-af5f8fd22409","9076ac92-be42-43a2-9634-8b67c7fe93a7","{""num_scrambled_semantic"":""8"",""num_scrambled_causal"":""4"",""num_scrambled_schematic"":""4"",""participantId"":""77EAAFE50DDB4B858F8BC3FF4BB9F7C7"",""assignmentId"":""e7f54b54-ba25-4c29-a0f2-af5f8fd22409"",""projectId"":""9076ac92-be42-43a2-9634-8b67c7fe93a7""}","https://test12345.live/?num_scrambled_semantic=8&num_scrambled_causal=4&num_scrambled_schematic=4&participantId=77EAAFE50DDB4B858F8BC3FF4BB9F7C7&assignmentId=e7f54b54-ba25-4c29-a0f2-af5f8fd22409&projectId=9076ac92-be42-43a2-9634-8b67c7fe93a7","77EAAFE50DDB4B858F8BC3FF4BB9F7C7-2025-05-22-20-12-15","","null","","images/causal_sequence/museum_causal/museum_causal_5.png","null","",""
"","","","","","image-button-response","26","248647","0.0-10.0-1.0-1.0","77EAAFE50DDB4B858F8BC3FF4BB9F7C7","77EAAFE50DDB4B858F8BC3FF4BB9F7C7","e7f54b54-ba25-4c29-a0f2-af5f8fd22409","9076ac92-be42-43a2-9634-8b67c7fe93a7","{""num_scrambled_semantic"":""8"",""num_scrambled_causal"":""4"",""num_scrambled_schematic"":""4"",""participantId"":""77EAAFE50DDB4B858F8BC3FF4BB9F7C7"",""assignmentId"":""e7f54b54-ba25-4c29-a0f2-af5f8fd22409"",""projectId"":""9076ac92-be42-43a2-9634-8b67c7fe93a7""}","https://test12345.live/?num_scrambled_semantic=8&num_scrambled_causal=4&num_scrambled_schematic=4&participantId=77EAAFE50DDB4B858F8BC3FF4BB9F7C7&assignmentId=e7f54b54-ba25-4c29-a0f2-af5f8fd22409&projectId=9076ac92-be42-43a2-9634-8b67c7fe93a7","77EAAFE50DDB4B858F8BC3FF4BB9F7C7-2025-05-22-20-12-15","","2410","","images/causal_sequence/museum_causal/museum_causal_5.png","0","",""
"","","","","","image-button-response","27","250451","0.0-10.0-1.0-2.0","77EAAFE50DDB4B858F8BC3FF4BB9F7C7","77EAAFE50DDB4B858F8BC3FF4BB9F7C7","e7f54b54-ba25-4c29-a0f2-af5f8fd22409","9076ac92-be42-43a2-9634-8b67c7fe93a7","{""num_scrambled_semantic"":""8"",""num_scrambled_causal"":""4"",""num_scrambled_schematic"":""4"",""participantId"":""77EAAFE50DDB4B858F8BC3FF4BB9F7C7"",""assignmentId"":""e7f54b54-ba25-4c29-a0f2-af5f8fd22409"",""projectId"":""9076ac92-be42-43a2-9634-8b67c7fe93a7""}","https://test12345.live/?num_scrambled_semantic=8&num_scrambled_causal=4&num_scrambled_schematic=4&participantId=77EAAFE50DDB4B858F8BC3FF4BB9F7C7&assignmentId=e7f54b54-ba25-4c29-a0f2-af5f8fd22409&projectId=9076ac92-be42-43a2-9634-8b67c7fe93a7","77EAAFE50DDB4B858F8BC3FF4BB9F7C7-2025-05-22-20-12-15","","null","","[]","null","",""
"","","","","","image-button-response","28","254952","0.0-10.0-1.0-0.1","77EAAFE50DDB4B858F8BC3FF4BB9F7C7","77EAAFE50DDB4B858F8BC3FF4BB9F7C7","e7f54b54-ba25-4c29-a0f2-af5f8fd22409","9076ac92-be42-43a2-9634-8b67c7fe93a7","{""num_scrambled_semantic"":""8"",""num_scrambled_causal"":""4"",""num_scrambled_schematic"":""4"",""participantId"":""77EAAFE50DDB4B858F8BC3FF4BB9F7C7"",""assignmentId"":""e7f54b54-ba25-4c29-a0f2-af5f8fd22409"",""projectId"":""9076ac92-be42-43a2-9634-8b67c7fe93a7""}","https://test12345.live/?num_scrambled_semantic=8&num_scrambled_causal=4&num_scrambled_schematic=4&participantId=77EAAFE50DDB4B858F8BC3FF4BB9F7C7&assignmentId=e7f54b54-ba25-4c29-a0f2-af5f8fd22409&projectId=9076ac92-be42-43a2-9634-8b67c7fe93a7","77EAAFE50DDB4B858F8BC3FF4BB9F7C7-2025-05-22-20-12-15","","null","","images/causal_sequence/museum_causal/museum_causal_ten.png","null","",""
"","","","","","image-button-response","29","257273","0.0-10.0-1.0-1.1","77EAAFE50DDB4B858F8BC3FF4BB9F7C7","77EAAFE50DDB4B858F8BC3FF4BB9F7C7","e7f54b54-ba25-4c29-a0f2-af5f8fd22409","9076ac92-be42-43a2-9634-8b67c7fe93a7","{""num_scrambled_semantic"":""8"",""num_scrambled_causal"":""4"",""num_scrambled_schematic"":""4"",""participantId"":""77EAAFE50DDB4B858F8BC3FF4BB9F7C7"",""assignmentId"":""e7f54b54-ba25-4c29-a0f2-af5f8fd22409"",""projectId"":""9076ac92-be42-43a2-9634-8b67c7fe93a7""}","https://test12345.live/?num_scrambled_semantic=8&num_scrambled_causal=4&num_scrambled_schematic=4&participantId=77EAAFE50DDB4B858F8BC3FF4BB9F7C7&assignmentId=e7f54b54-ba25-4c29-a0f2-af5f8fd22409&projectId=9076ac92-be42-43a2-9634-8b67c7fe93a7","77EAAFE50DDB4B858F8BC3FF4BB9F7C7-2025-05-22-20-12-15","","2321","","images/causal_sequence/museum_causal/museum_causal_ten.png","0","",""
"","","","","","image-button-response","30","259075","0.0-10.0-1.0-2.1","77EAAFE50DDB4B858F8BC3FF4BB9F7C7","77EAAFE50DDB4B858F8BC3FF4BB9F7C7","e7f54b54-ba25-4c29-a0f2-af5f8fd22409","9076ac92-be42-43a2-9634-8b67c7fe93a7","{""num_scrambled_semantic"":""8"",""num_scrambled_causal"":""4"",""num_scrambled_schematic"":""4"",""participantId"":""77EAAFE50DDB4B858F8BC3FF4BB9F7C7"",""assignmentId"":""e7f54b54-ba25-4c29-a0f2-af5f8fd22409"",""projectId"":""9076ac92-be42-43a2-9634-8b67c7fe93a7""}","https://test12345.live/?num_scrambled_semantic=8&num_scrambled_causal=4&num_scrambled_schematic=4&participantId=77EAAFE50DDB4B858F8BC3FF4BB9F7C7&assignmentId=e7f54b54-ba25-4c29-a0f2-af5f8fd22409&projectId=9076ac92-be42-43a2-9634-8b67c7fe93a7","77EAAFE50DDB4B858F8BC3FF4BB9F7C7-2025-05-22-20-12-15","","null","","[]","null","",""
"","","","","","image-button-response","31","263576","0.0-10.0-1.0-0.2","77EAAFE50DDB4B858F8BC3FF4BB9F7C7","77EAAFE50DDB4B858F8BC3FF4BB9F7C7","e7f54b54-ba25-4c29-a0f2-af5f8fd22409","9076ac92-be42-43a2-9634-8b67c7fe93a7","{""num_scrambled_semantic"":""8"",""num_scrambled_causal"":""4"",""num_scrambled_schematic"":""4"",""participantId"":""77EAAFE50DDB4B858F8BC3FF4BB9F7C7"",""assignmentId"":""e7f54b54-ba25-4c29-a0f2-af5f8fd22409"",""projectId"":""9076ac92-be42-43a2-9634-8b67c7fe93a7""}","https://test12345.live/?num_scrambled_semantic=8&num_scrambled_causal=4&num_scrambled_schematic=4&participantId=77EAAFE50DDB4B858F8BC3FF4BB9F7C7&assignmentId=e7f54b54-ba25-4c29-a0f2-af5f8fd22409&projectId=9076ac92-be42-43a2-9634-8b67c7fe93a7","77EAAFE50DDB4B858F8BC3FF4BB9F7C7-2025-05-22-20-12-15","","null","","images/causal_sequence/museum_causal/museum_causal_6.png","null","",""
"","","","","","image-button-response","32","267577","0.0-10.0-1.0-1.2","77EAAFE50DDB4B858F8BC3FF4BB9F7C7","77EAAFE50DDB4B858F8BC3FF4BB9F7C7","e7f54b54-ba25-4c29-a0f2-af5f8fd22409","9076ac92-be42-43a2-9634-8b67c7fe93a7","{""num_scrambled_semantic"":""8"",""num_scrambled_causal"":""4"",""num_scrambled_schematic"":""4"",""participantId"":""77EAAFE50DDB4B858F8BC3FF4BB9F7C7"",""assignmentId"":""e7f54b54-ba25-4c29-a0f2-af5f8fd22409"",""projectId"":""9076ac92-be42-43a2-9634-8b67c7fe93a7""}","https://test12345.live/?num_scrambled_semantic=8&num_scrambled_causal=4&num_scrambled_schematic=4&participantId=77EAAFE50DDB4B858F8BC3FF4BB9F7C7&assignmentId=e7f54b54-ba25-4c29-a0f2-af5f8fd22409&projectId=9076ac92-be42-43a2-9634-8b67c7fe93a7","77EAAFE50DDB4B858F8BC3FF4BB9F7C7-2025-05-22-20-12-15","","null","","images/causal_sequence/museum_causal/museum_causal_6.png","null","",""
"","","","","","image-button-response","33","269378","0.0-10.0-1.0-2.2","77EAAFE50DDB4B858F8BC3FF4BB9F7C7","77EAAFE50DDB4B858F8BC3FF4BB9F7C7","e7f54b54-ba25-4c29-a0f2-af5f8fd22409","9076ac92-be42-43a2-9634-8b67c7fe93a7","{""num_scrambled_semantic"":""8"",""num_scrambled_causal"":""4"",""num_scrambled_schematic"":""4"",""participantId"":""77EAAFE50DDB4B858F8BC3FF4BB9F7C7"",""assignmentId"":""e7f54b54-ba25-4c29-a0f2-af5f8fd22409"",""projectId"":""9076ac92-be42-43a2-9634-8b67c7fe93a7""}","https://test12345.live/?num_scrambled_semantic=8&num_scrambled_causal=4&num_scrambled_schematic=4&participantId=77EAAFE50DDB4B858F8BC3FF4BB9F7C7&assignmentId=e7f54b54-ba25-4c29-a0f2-af5f8fd22409&projectId=9076ac92-be42-43a2-9634-8b67c7fe93a7","77EAAFE50DDB4B858F8BC3FF4BB9F7C7-2025-05-22-20-12-15","","null","","[]","null","",""
"","","","","","image-button-response","34","273881","0.0-10.0-1.0-0.3","77EAAFE50DDB4B858F8BC3FF4BB9F7C7","77EAAFE50DDB4B858F8BC3FF4BB9F7C7","e7f54b54-ba25-4c29-a0f2-af5f8fd22409","9076ac92-be42-43a2-9634-8b67c7fe93a7","{""num_scrambled_semantic"":""8"",""num_scrambled_causal"":""4"",""num_scrambled_schematic"":""4"",""participantId"":""77EAAFE50DDB4B858F8BC3FF4BB9F7C7"",""assignmentId"":""e7f54b54-ba25-4c29-a0f2-af5f8fd22409"",""projectId"":""9076ac92-be42-43a2-9634-8b67c7fe93a7""}","https://test12345.live/?num_scrambled_semantic=8&num_scrambled_causal=4&num_scrambled_schematic=4&participantId=77EAAFE50DDB4B858F8BC3FF4BB9F7C7&assignmentId=e7f54b54-ba25-4c29-a0f2-af5f8fd22409&projectId=9076ac92-be42-43a2-9634-8b67c7fe93a7","77EAAFE50DDB4B858F8BC3FF4BB9F7C7-2025-05-22-20-12-15","","null","","images/causal_sequence/museum_causal/museum_causal_4.png","null","",""
"","","","","","image-button-response","35","275575","0.0-10.0-1.0-1.3","77EAAFE50DDB4B858F8BC3FF4BB9F7C7","77EAAFE50DDB4B858F8BC3FF4BB9F7C7","e7f54b54-ba25-4c29-a0f2-af5f8fd22409","9076ac92-be42-43a2-9634-8b67c7fe93a7","{""num_scrambled_semantic"":""8"",""num_scrambled_causal"":""4"",""num_scrambled_schematic"":""4"",""participantId"":""77EAAFE50DDB4B858F8BC3FF4BB9F7C7"",""assignmentId"":""e7f54b54-ba25-4c29-a0f2-af5f8fd22409"",""projectId"":""9076ac92-be42-43a2-9634-8b67c7fe93a7""}","https://test12345.live/?num_scrambled_semantic=8&num_scrambled_causal=4&num_scrambled_schematic=4&participantId=77EAAFE50DDB4B858F8BC3FF4BB9F7C7&assignmentId=e7f54b54-ba25-4c29-a0f2-af5f8fd22409&projectId=9076ac92-be42-43a2-9634-8b67c7fe93a7","77EAAFE50DDB4B858F8BC3FF4BB9F7C7-2025-05-22-20-12-15","","1693","","images/causal_sequence/museum_causal/museum_causal_4.png","1","",""
"","","","","","image-button-response","36","277375","0.0-10.0-1.0-2.3","77EAAFE50DDB4B858F8BC3FF4BB9F7C7","77EAAFE50DDB4B858F8BC3FF4BB9F7C7","e7f54b54-ba25-4c29-a0f2-af5f8fd22409","9076ac92-be42-43a2-9634-8b67c7fe93a7","{""num_scrambled_semantic"":""8"",""num_scrambled_causal"":""4"",""num_scrambled_schematic"":""4"",""participantId"":""77EAAFE50DDB4B858F8BC3FF4BB9F7C7"",""assignmentId"":""e7f54b54-ba25-4c29-a0f2-af5f8fd22409"",""projectId"":""9076ac92-be42-43a2-9634-8b67c7fe93a7""}","https://test12345.live/?num_scrambled_semantic=8&num_scrambled_causal=4&num_scrambled_schematic=4&participantId=77EAAFE50DDB4B858F8BC3FF4BB9F7C7&assignmentId=e7f54b54-ba25-4c29-a0f2-af5f8fd22409&projectId=9076ac92-be42-43a2-9634-8b67c7fe93a7","77EAAFE50DDB4B858F8BC3FF4BB9F7C7-2025-05-22-20-12-15","","null","","[]","null","",""
"","","","","","image-button-response","37","281877","0.0-10.0-1.0-0.4","77EAAFE50DDB4B858F8BC3FF4BB9F7C7","77EAAFE50DDB4B858F8BC3FF4BB9F7C7","e7f54b54-ba25-4c29-a0f2-af5f8fd22409","9076ac92-be42-43a2-9634-8b67c7fe93a7","{""num_scrambled_semantic"":""8"",""num_scrambled_causal"":""4"",""num_scrambled_schematic"":""4"",""participantId"":""77EAAFE50DDB4B858F8BC3FF4BB9F7C7"",""assignmentId"":""e7f54b54-ba25-4c29-a0f2-af5f8fd22409"",""projectId"":""9076ac92-be42-43a2-9634-8b67c7fe93a7""}","https://test12345.live/?num_scrambled_semantic=8&num_scrambled_causal=4&num_scrambled_schematic=4&participantId=77EAAFE50DDB4B858F8BC3FF4BB9F7C7&assignmentId=e7f54b54-ba25-4c29-a0f2-af5f8fd22409&projectId=9076ac92-be42-43a2-9634-8b67c7fe93a7","77EAAFE50DDB4B858F8BC3FF4BB9F7C7-2025-05-22-20-12-15","","null","","images/causal_sequence/museum_causal/museum_causal_3.png","null","",""
"","","","","","image-button-response","38","283558","0.0-10.0-1.0-1.4","77EAAFE50DDB4B858F8BC3FF4BB9F7C7","77EAAFE50DDB4B858F8BC3FF4BB9F7C7","e7f54b54-ba25-4c29-a0f2-af5f8fd22409","9076ac92-be42-43a2-9634-8b67c7fe93a7","{""num_scrambled_semantic"":""8"",""num_scrambled_causal"":""4"",""num_scrambled_schematic"":""4"",""participantId"":""77EAAFE50DDB4B858F8BC3FF4BB9F7C7"",""assignmentId"":""e7f54b54-ba25-4c29-a0f2-af5f8fd22409"",""projectId"":""9076ac92-be42-43a2-9634-8b67c7fe93a7""}","https://test12345.live/?num_scrambled_semantic=8&num_scrambled_causal=4&num_scrambled_schematic=4&participantId=77EAAFE50DDB4B858F8BC3FF4BB9F7C7&assignmentId=e7f54b54-ba25-4c29-a0f2-af5f8fd22409&projectId=9076ac92-be42-43a2-9634-8b67c7fe93a7","77EAAFE50DDB4B858F8BC3FF4BB9F7C7-2025-05-22-20-12-15","","1680","","images/causal_sequence/museum_causal/museum_causal_3.png","0","",""
"","","","","","image-button-response","39","285359","0.0-10.0-1.0-2.4","77EAAFE50DDB4B858F8BC3FF4BB9F7C7","77EAAFE50DDB4B858F8BC3FF4BB9F7C7","e7f54b54-ba25-4c29-a0f2-af5f8fd22409","9076ac92-be42-43a2-9634-8b67c7fe93a7","{""num_scrambled_semantic"":""8"",""num_scrambled_causal"":""4"",""num_scrambled_schematic"":""4"",""participantId"":""77EAAFE50DDB4B858F8BC3FF4BB9F7C7"",""assignmentId"":""e7f54b54-ba25-4c29-a0f2-af5f8fd22409"",""projectId"":""9076ac92-be42-43a2-9634-8b67c7fe93a7""}","https://test12345.live/?num_scrambled_semantic=8&num_scrambled_causal=4&num_scrambled_schematic=4&participantId=77EAAFE50DDB4B858F8BC3FF4BB9F7C7&assignmentId=e7f54b54-ba25-4c29-a0f2-af5f8fd22409&projectId=9076ac92-be42-43a2-9634-8b67c7fe93a7","77EAAFE50DDB4B858F8BC3FF4BB9F7C7-2025-05-22-20-12-15","","null","","[]","null","",""
"","","","","","image-button-response","40","289861","0.0-10.0-1.0-0.5","77EAAFE50DDB4B858F8BC3FF4BB9F7C7","77EAAFE50DDB4B858F8BC3FF4BB9F7C7","e7f54b54-ba25-4c29-a0f2-af5f8fd22409","9076ac92-be42-43a2-9634-8b67c7fe93a7","{""num_scrambled_semantic"":""8"",""num_scrambled_causal"":""4"",""num_scrambled_schematic"":""4"",""participantId"":""77EAAFE50DDB4B858F8BC3FF4BB9F7C7"",""assignmentId"":""e7f54b54-ba25-4c29-a0f2-af5f8fd22409"",""projectId"":""9076ac92-be42-43a2-9634-8b67c7fe93a7""}","https://test12345.live/?num_scrambled_semantic=8&num_scrambled_causal=4&num_scrambled_schematic=4&participantId=77EAAFE50DDB4B858F8BC3FF4BB9F7C7&assignmentId=e7f54b54-ba25-4c29-a0f2-af5f8fd22409&projectId=9076ac92-be42-43a2-9634-8b67c7fe93a7","77EAAFE50DDB4B858F8BC3FF4BB9F7C7-2025-05-22-20-12-15","","null","","images/causal_sequence/museum_causal/museum_causal_1.png","null","",""
"","","","","","image-button-response","41","291396","0.0-10.0-1.0-1.5","77EAAFE50DDB4B858F8BC3FF4BB9F7C7","77EAAFE50DDB4B858F8BC3FF4BB9F7C7","e7f54b54-ba25-4c29-a0f2-af5f8fd22409","9076ac92-be42-43a2-9634-8b67c7fe93a7","{""num_scrambled_semantic"":""8"",""num_scrambled_causal"":""4"",""num_scrambled_schematic"":""4"",""participantId"":""77EAAFE50DDB4B858F8BC3FF4BB9F7C7"",""assignmentId"":""e7f54b54-ba25-4c29-a0f2-af5f8fd22409"",""projectId"":""9076ac92-be42-43a2-9634-8b67c7fe93a7""}","https://test12345.live/?num_scrambled_semantic=8&num_scrambled_causal=4&num_scrambled_schematic=4&participantId=77EAAFE50DDB4B858F8BC3FF4BB9F7C7&assignmentId=e7f54b54-ba25-4c29-a0f2-af5f8fd22409&projectId=9076ac92-be42-43a2-9634-8b67c7fe93a7","77EAAFE50DDB4B858F8BC3FF4BB9F7C7-2025-05-22-20-12-15","","1534","","images/causal_sequence/museum_causal/museum_causal_1.png","0","",""
"","","","","","image-button-response","42","293197","0.0-10.0-1.0-2.5","77EAAFE50DDB4B858F8BC3FF4BB9F7C7","77EAAFE50DDB4B858F8BC3FF4BB9F7C7","e7f54b54-ba25-4c29-a0f2-af5f8fd22409","9076ac92-be42-43a2-9634-8b67c7fe93a7","{""num_scrambled_semantic"":""8"",""num_scrambled_causal"":""4"",""num_scrambled_schematic"":""4"",""participantId"":""77EAAFE50DDB4B858F8BC3FF4BB9F7C7"",""assignmentId"":""e7f54b54-ba25-4c29-a0f2-af5f8fd22409"",""projectId"":""9076ac92-be42-43a2-9634-8b67c7fe93a7""}","https://test12345.live/?num_scrambled_semantic=8&num_scrambled_causal=4&num_scrambled_schematic=4&participantId=77EAAFE50DDB4B858F8BC3FF4BB9F7C7&assignmentId=e7f54b54-ba25-4c29-a0f2-af5f8fd22409&projectId=9076ac92-be42-43a2-9634-8b67c7fe93a7","77EAAFE50DDB4B858F8BC3FF4BB9F7C7-2025-05-22-20-12-15","","null","","[]","null","",""
"","","","","","image-button-response","43","297698","0.0-10.0-1.0-0.6","77EAAFE50DDB4B858F8BC3FF4BB9F7C7","77EAAFE50DDB4B858F8BC3FF4BB9F7C7","e7f54b54-ba25-4c29-a0f2-af5f8fd22409","9076ac92-be42-43a2-9634-8b67c7fe93a7","{""num_scrambled_semantic"":""8"",""num_scrambled_causal"":""4"",""num_scrambled_schematic"":""4"",""participantId"":""77EAAFE50DDB4B858F8BC3FF4BB9F7C7"",""assignmentId"":""e7f54b54-ba25-4c29-a0f2-af5f8fd22409"",""projectId"":""9076ac92-be42-43a2-9634-8b67c7fe93a7""}","https://test12345.live/?num_scrambled_semantic=8&num_scrambled_causal=4&num_scrambled_schematic=4&participantId=77EAAFE50DDB4B858F8BC3FF4BB9F7C7&assignmentId=e7f54b54-ba25-4c29-a0f2-af5f8fd22409&projectId=9076ac92-be42-43a2-9634-8b67c7fe93a7","77EAAFE50DDB4B858F8BC3FF4BB9F7C7-2025-05-22-20-12-15","","null","","images/causal_sequence/museum_causal/museum_causal_8.png","null","",""
"","","","","","image-button-response","44","300061","0.0-10.0-1.0-1.6","77EAAFE50DDB4B858F8BC3FF4BB9F7C7","77EAAFE50DDB4B858F8BC3FF4BB9F7C7","e7f54b54-ba25-4c29-a0f2-af5f8fd22409","9076ac92-be42-43a2-9634-8b67c7fe93a7","{""num_scrambled_semantic"":""8"",""num_scrambled_causal"":""4"",""num_scrambled_schematic"":""4"",""participantId"":""77EAAFE50DDB4B858F8BC3FF4BB9F7C7"",""assignmentId"":""e7f54b54-ba25-4c29-a0f2-af5f8fd22409"",""projectId"":""9076ac92-be42-43a2-9634-8b67c7fe93a7""}","https://test12345.live/?num_scrambled_semantic=8&num_scrambled_causal=4&num_scrambled_schematic=4&participantId=77EAAFE50DDB4B858F8BC3FF4BB9F7C7&assignmentId=e7f54b54-ba25-4c29-a0f2-af5f8fd22409&projectId=9076ac92-be42-43a2-9634-8b67c7fe93a7","77EAAFE50DDB4B858F8BC3FF4BB9F7C7-2025-05-22-20-12-15","","2363","","images/causal_sequence/museum_causal/museum_causal_8.png","0","",""
"","","","","","image-button-response","45","301862","0.0-10.0-1.0-2.6","77EAAFE50DDB4B858F8BC3FF4BB9F7C7","77EAAFE50DDB4B858F8BC3FF4BB9F7C7","e7f54b54-ba25-4c29-a0f2-af5f8fd22409","9076ac92-be42-43a2-9634-8b67c7fe93a7","{""num_scrambled_semantic"":""8"",""num_scrambled_causal"":""4"",""num_scrambled_schematic"":""4"",""participantId"":""77EAAFE50DDB4B858F8BC3FF4BB9F7C7"",""assignmentId"":""e7f54b54-ba25-4c29-a0f2-af5f8fd22409"",""projectId"":""9076ac92-be42-43a2-9634-8b67c7fe93a7""}","https://test12345.live/?num_scrambled_semantic=8&num_scrambled_causal=4&num_scrambled_schematic=4&participantId=77EAAFE50DDB4B858F8BC3FF4BB9F7C7&assignmentId=e7f54b54-ba25-4c29-a0f2-af5f8fd22409&projectId=9076ac92-be42-43a2-9634-8b67c7fe93a7","77EAAFE50DDB4B858F8BC3FF4BB9F7C7-2025-05-22-20-12-15","","null","","[]","null","",""
"","","","","","image-button-response","46","306364","0.0-10.0-1.0-0.7","77EAAFE50DDB4B858F8BC3FF4BB9F7C7","77EAAFE50DDB4B858F8BC3FF4BB9F7C7","e7f54b54-ba25-4c29-a0f2-af5f8fd22409","9076ac92-be42-43a2-9634-8b67c7fe93a7","{""num_scrambled_semantic"":""8"",""num_scrambled_causal"":""4"",""num_scrambled_schematic"":""4"",""participantId"":""77EAAFE50DDB4B858F8BC3FF4BB9F7C7"",""assignmentId"":""e7f54b54-ba25-4c29-a0f2-af5f8fd22409"",""projectId"":""9076ac92-be42-43a2-9634-8b67c7fe93a7""}","https://test12345.live/?num_scrambled_semantic=8&num_scrambled_causal=4&num_scrambled_schematic=4&participantId=77EAAFE50DDB4B858F8BC3FF4BB9F7C7&assignmentId=e7f54b54-ba25-4c29-a0f2-af5f8fd22409&projectId=9076ac92-be42-43a2-9634-8b67c7fe93a7","77EAAFE50DDB4B858F8BC3FF4BB9F7C7-2025-05-22-20-12-15","","null","","images/causal_sequence/museum_causal/museum_causal_9.png","null","",""
"","","","","","image-button-response","47","308162","0.0-10.0-1.0-1.7","77EAAFE50DDB4B858F8BC3FF4BB9F7C7","77EAAFE50DDB4B858F8BC3FF4BB9F7C7","e7f54b54-ba25-4c29-a0f2-af5f8fd22409","9076ac92-be42-43a2-9634-8b67c7fe93a7","{""num_scrambled_semantic"":""8"",""num_scrambled_causal"":""4"",""num_scrambled_schematic"":""4"",""participantId"":""77EAAFE50DDB4B858F8BC3FF4BB9F7C7"",""assignmentId"":""e7f54b54-ba25-4c29-a0f2-af5f8fd22409"",""projectId"":""9076ac92-be42-43a2-9634-8b67c7fe93a7""}","https://test12345.live/?num_scrambled_semantic=8&num_scrambled_causal=4&num_scrambled_schematic=4&participantId=77EAAFE50DDB4B858F8BC3FF4BB9F7C7&assignmentId=e7f54b54-ba25-4c29-a0f2-af5f8fd22409&projectId=9076ac92-be42-43a2-9634-8b67c7fe93a7","77EAAFE50DDB4B858F8BC3FF4BB9F7C7-2025-05-22-20-12-15","","1798","","images/causal_sequence/museum_causal/museum_causal_9.png","1","",""
"","","","","","image-button-response","48","309964","0.0-10.0-1.0-2.7","77EAAFE50DDB4B858F8BC3FF4BB9F7C7","77EAAFE50DDB4B858F8BC3FF4BB9F7C7","e7f54b54-ba25-4c29-a0f2-af5f8fd22409","9076ac92-be42-43a2-9634-8b67c7fe93a7","{""num_scrambled_semantic"":""8"",""num_scrambled_causal"":""4"",""num_scrambled_schematic"":""4"",""participantId"":""77EAAFE50DDB4B858F8BC3FF4BB9F7C7"",""assignmentId"":""e7f54b54-ba25-4c29-a0f2-af5f8fd22409"",""projectId"":""9076ac92-be42-43a2-9634-8b67c7fe93a7""}","https://test12345.live/?num_scrambled_semantic=8&num_scrambled_causal=4&num_scrambled_schematic=4&participantId=77EAAFE50DDB4B858F8BC3FF4BB9F7C7&assignmentId=e7f54b54-ba25-4c29-a0f2-af5f8fd22409&projectId=9076ac92-be42-43a2-9634-8b67c7fe93a7","77EAAFE50DDB4B858F8BC3FF4BB9F7C7-2025-05-22-20-12-15","","null","","[]","null","",""
"","","","","","image-button-response","49","314465","0.0-10.0-1.0-0.8","77EAAFE50DDB4B858F8BC3FF4BB9F7C7","77EAAFE50DDB4B858F8BC3FF4BB9F7C7","e7f54b54-ba25-4c29-a0f2-af5f8fd22409","9076ac92-be42-43a2-9634-8b67c7fe93a7","{""num_scrambled_semantic"":""8"",""num_scrambled_causal"":""4"",""num_scrambled_schematic"":""4"",""participantId"":""77EAAFE50DDB4B858F8BC3FF4BB9F7C7"",""assignmentId"":""e7f54b54-ba25-4c29-a0f2-af5f8fd22409"",""projectId"":""9076ac92-be42-43a2-9634-8b67c7fe93a7""}","https://test12345.live/?num_scrambled_semantic=8&num_scrambled_causal=4&num_scrambled_schematic=4&participantId=77EAAFE50DDB4B858F8BC3FF4BB9F7C7&assignmentId=e7f54b54-ba25-4c29-a0f2-af5f8fd22409&projectId=9076ac92-be42-43a2-9634-8b67c7fe93a7","77EAAFE50DDB4B858F8BC3FF4BB9F7C7-2025-05-22-20-12-15","","null","","images/causal_sequence/museum_causal/museum_causal_2.png","null","",""
"","","","","","image-button-response","50","315880","0.0-10.0-1.0-1.8","77EAAFE50DDB4B858F8BC3FF4BB9F7C7","77EAAFE50DDB4B858F8BC3FF4BB9F7C7","e7f54b54-ba25-4c29-a0f2-af5f8fd22409","9076ac92-be42-43a2-9634-8b67c7fe93a7","{""num_scrambled_semantic"":""8"",""num_scrambled_causal"":""4"",""num_scrambled_schematic"":""4"",""participantId"":""77EAAFE50DDB4B858F8BC3FF4BB9F7C7"",""assignmentId"":""e7f54b54-ba25-4c29-a0f2-af5f8fd22409"",""projectId"":""9076ac92-be42-43a2-9634-8b67c7fe93a7""}","https://test12345.live/?num_scrambled_semantic=8&num_scrambled_causal=4&num_scrambled_schematic=4&participantId=77EAAFE50DDB4B858F8BC3FF4BB9F7C7&assignmentId=e7f54b54-ba25-4c29-a0f2-af5f8fd22409&projectId=9076ac92-be42-43a2-9634-8b67c7fe93a7","77EAAFE50DDB4B858F8BC3FF4BB9F7C7-2025-05-22-20-12-15","","1414","","images/causal_sequence/museum_causal/museum_causal_2.png","0","",""
"","","","","","image-button-response","51","317682","0.0-10.0-1.0-2.8","77EAAFE50DDB4B858F8BC3FF4BB9F7C7","77EAAFE50DDB4B858F8BC3FF4BB9F7C7","e7f54b54-ba25-4c29-a0f2-af5f8fd22409","9076ac92-be42-43a2-9634-8b67c7fe93a7","{""num_scrambled_semantic"":""8"",""num_scrambled_causal"":""4"",""num_scrambled_schematic"":""4"",""participantId"":""77EAAFE50DDB4B858F8BC3FF4BB9F7C7"",""assignmentId"":""e7f54b54-ba25-4c29-a0f2-af5f8fd22409"",""projectId"":""9076ac92-be42-43a2-9634-8b67c7fe93a7""}","https://test12345.live/?num_scrambled_semantic=8&num_scrambled_causal=4&num_scrambled_schematic=4&participantId=77EAAFE50DDB4B858F8BC3FF4BB9F7C7&assignmentId=e7f54b54-ba25-4c29-a0f2-af5f8fd22409&projectId=9076ac92-be42-43a2-9634-8b67c7fe93a7","77EAAFE50DDB4B858F8BC3FF4BB9F7C7-2025-05-22-20-12-15","","null","","[]","null","",""
"","","","","","image-button-response","52","322185","0.0-10.0-1.0-0.9","77EAAFE50DDB4B858F8BC3FF4BB9F7C7","77EAAFE50DDB4B858F8BC3FF4BB9F7C7","e7f54b54-ba25-4c29-a0f2-af5f8fd22409","9076ac92-be42-43a2-9634-8b67c7fe93a7","{""num_scrambled_semantic"":""8"",""num_scrambled_causal"":""4"",""num_scrambled_schematic"":""4"",""participantId"":""77EAAFE50DDB4B858F8BC3FF4BB9F7C7"",""assignmentId"":""e7f54b54-ba25-4c29-a0f2-af5f8fd22409"",""projectId"":""9076ac92-be42-43a2-9634-8b67c7fe93a7""}","https://test12345.live/?num_scrambled_semantic=8&num_scrambled_causal=4&num_scrambled_schematic=4&participantId=77EAAFE50DDB4B858F8BC3FF4BB9F7C7&assignmentId=e7f54b54-ba25-4c29-a0f2-af5f8fd22409&projectId=9076ac92-be42-43a2-9634-8b67c7fe93a7","77EAAFE50DDB4B858F8BC3FF4BB9F7C7-2025-05-22-20-12-15","","null","","images/causal_sequence/museum_causal/museum_causal_7.png","null","",""
"","","","","","image-button-response","53","323617","0.0-10.0-1.0-1.9","77EAAFE50DDB4B858F8BC3FF4BB9F7C7","77EAAFE50DDB4B858F8BC3FF4BB9F7C7","e7f54b54-ba25-4c29-a0f2-af5f8fd22409","9076ac92-be42-43a2-9634-8b67c7fe93a7","{""num_scrambled_semantic"":""8"",""num_scrambled_causal"":""4"",""num_scrambled_schematic"":""4"",""participantId"":""77EAAFE50DDB4B858F8BC3FF4BB9F7C7"",""assignmentId"":""e7f54b54-ba25-4c29-a0f2-af5f8fd22409"",""projectId"":""9076ac92-be42-43a2-9634-8b67c7fe93a7""}","https://test12345.live/?num_scrambled_semantic=8&num_scrambled_causal=4&num_scrambled_schematic=4&participantId=77EAAFE50DDB4B858F8BC3FF4BB9F7C7&assignmentId=e7f54b54-ba25-4c29-a0f2-af5f8fd22409&projectId=9076ac92-be42-43a2-9634-8b67c7fe93a7","77EAAFE50DDB4B858F8BC3FF4BB9F7C7-2025-05-22-20-12-15","","1431","","images/causal_sequence/museum_causal/museum_causal_7.png","1","",""
"","","","","","image-button-response","54","325418","0.0-10.0-1.0-2.9","77EAAFE50DDB4B858F8BC3FF4BB9F7C7","77EAAFE50DDB4B858F8BC3FF4BB9F7C7","e7f54b54-ba25-4c29-a0f2-af5f8fd22409","9076ac92-be42-43a2-9634-8b67c7fe93a7","{""num_scrambled_semantic"":""8"",""num_scrambled_causal"":""4"",""num_scrambled_schematic"":""4"",""participantId"":""77EAAFE50DDB4B858F8BC3FF4BB9F7C7"",""assignmentId"":""e7f54b54-ba25-4c29-a0f2-af5f8fd22409"",""projectId"":""9076ac92-be42-43a2-9634-8b67c7fe93a7""}","https://test12345.live/?num_scrambled_semantic=8&num_scrambled_causal=4&num_scrambled_schematic=4&participantId=77EAAFE50DDB4B858F8BC3FF4BB9F7C7&assignmentId=e7f54b54-ba25-4c29-a0f2-af5f8fd22409&projectId=9076ac92-be42-43a2-9634-8b67c7fe93a7","77EAAFE50DDB4B858F8BC3FF4BB9F7C7-2025-05-22-20-12-15","","null","","[]","null","",""
"","","","","","html-audio-response","55","377354","0.0-11.0","77EAAFE50DDB4B858F8BC3FF4BB9F7C7","77EAAFE50DDB4B858F8BC3FF4BB9F7C7","e7f54b54-ba25-4c29-a0f2-af5f8fd22409","9076ac92-be42-43a2-9634-8b67c7fe93a7","{""num_scrambled_semantic"":""8"",""num_scrambled_causal"":""4"",""num_scrambled_schematic"":""4"",""participantId"":""77EAAFE50DDB4B858F8BC3FF4BB9F7C7"",""assignmentId"":""e7f54b54-ba25-4c29-a0f2-af5f8fd22409"",""projectId"":""9076ac92-be42-43a2-9634-8b67c7fe93a7""}","https://test12345.live/?num_scrambled_semantic=8&num_scrambled_causal=4&num_scrambled_schematic=4&participantId=77EAAFE50DDB4B858F8BC3FF4BB9F7C7&assignmentId=e7f54b54-ba25-4c29-a0f2-af5f8fd22409&projectId=9076ac92-be42-43a2-9634-8b67c7fe93a7","77EAAFE50DDB4B858F8BC3FF4BB9F7C7-2025-05-22-20-12-15","","50421","","[""<span style=\""color: red; font-size: 24px\""> NOW RECORDING</span><p>Please say out loud all the images you saw, in the exact order you saw them. Try to recall as many images as you can, but remember: getting the order right is more important than the number of images you recall.</p>""]","","5","museum_causal"
"","","","","","image-button-response","56","383362","0.0-12.0-0.0","77EAAFE50DDB4B858F8BC3FF4BB9F7C7","77EAAFE50DDB4B858F8BC3FF4BB9F7C7","e7f54b54-ba25-4c29-a0f2-af5f8fd22409","9076ac92-be42-43a2-9634-8b67c7fe93a7","{""num_scrambled_semantic"":""8"",""num_scrambled_causal"":""4"",""num_scrambled_schematic"":""4"",""participantId"":""77EAAFE50DDB4B858F8BC3FF4BB9F7C7"",""assignmentId"":""e7f54b54-ba25-4c29-a0f2-af5f8fd22409"",""projectId"":""9076ac92-be42-43a2-9634-8b67c7fe93a7""}","https://test12345.live/?num_scrambled_semantic=8&num_scrambled_causal=4&num_scrambled_schematic=4&participantId=77EAAFE50DDB4B858F8BC3FF4BB9F7C7&assignmentId=e7f54b54-ba25-4c29-a0f2-af5f8fd22409&projectId=9076ac92-be42-43a2-9634-8b67c7fe93a7","77EAAFE50DDB4B858F8BC3FF4BB9F7C7-2025-05-22-20-12-15","","null","","images/semantic_sequence/cat_care_semantic/cat_care_semantic_0.png","null","",""
"","","","","","image-button-response","57","387863","0.0-12.0-1.0-0.0","77EAAFE50DDB4B858F8BC3FF4BB9F7C7","77EAAFE50DDB4B858F8BC3FF4BB9F7C7","e7f54b54-ba25-4c29-a0f2-af5f8fd22409","9076ac92-be42-43a2-9634-8b67c7fe93a7","{""num_scrambled_semantic"":""8"",""num_scrambled_causal"":""4"",""num_scrambled_schematic"":""4"",""participantId"":""77EAAFE50DDB4B858F8BC3FF4BB9F7C7"",""assignmentId"":""e7f54b54-ba25-4c29-a0f2-af5f8fd22409"",""projectId"":""9076ac92-be42-43a2-9634-8b67c7fe93a7""}","https://test12345.live/?num_scrambled_semantic=8&num_scrambled_causal=4&num_scrambled_schematic=4&participantId=77EAAFE50DDB4B858F8BC3FF4BB9F7C7&assignmentId=e7f54b54-ba25-4c29-a0f2-af5f8fd22409&projectId=9076ac92-be42-43a2-9634-8b67c7fe93a7","77EAAFE50DDB4B858F8BC3FF4BB9F7C7-2025-05-22-20-12-15","","null","","images/semantic_sequence/cat_care_semantic/cat_care_semantic_8.png","null","",""
"","","","","","image-button-response","58","389889","0.0-12.0-1.0-1.0","77EAAFE50DDB4B858F8BC3FF4BB9F7C7","77EAAFE50DDB4B858F8BC3FF4BB9F7C7","e7f54b54-ba25-4c29-a0f2-af5f8fd22409","9076ac92-be42-43a2-9634-8b67c7fe93a7","{""num_scrambled_semantic"":""8"",""num_scrambled_causal"":""4"",""num_scrambled_schematic"":""4"",""participantId"":""77EAAFE50DDB4B858F8BC3FF4BB9F7C7"",""assignmentId"":""e7f54b54-ba25-4c29-a0f2-af5f8fd22409"",""projectId"":""9076ac92-be42-43a2-9634-8b67c7fe93a7""}","https://test12345.live/?num_scrambled_semantic=8&num_scrambled_causal=4&num_scrambled_schematic=4&participantId=77EAAFE50DDB4B858F8BC3FF4BB9F7C7&assignmentId=e7f54b54-ba25-4c29-a0f2-af5f8fd22409&projectId=9076ac92-be42-43a2-9634-8b67c7fe93a7","77EAAFE50DDB4B858F8BC3FF4BB9F7C7-2025-05-22-20-12-15","","2024","","images/semantic_sequence/cat_care_semantic/cat_care_semantic_8.png","0","",""
"","","","","","image-button-response","59","391689","0.0-12.0-1.0-2.0","77EAAFE50DDB4B858F8BC3FF4BB9F7C7","77EAAFE50DDB4B858F8BC3FF4BB9F7C7","e7f54b54-ba25-4c29-a0f2-af5f8fd22409","9076ac92-be42-43a2-9634-8b67c7fe93a7","{""num_scrambled_semantic"":""8"",""num_scrambled_causal"":""4"",""num_scrambled_schematic"":""4"",""participantId"":""77EAAFE50DDB4B858F8BC3FF4BB9F7C7"",""assignmentId"":""e7f54b54-ba25-4c29-a0f2-af5f8fd22409"",""projectId"":""9076ac92-be42-43a2-9634-8b67c7fe93a7""}","https://test12345.live/?num_scrambled_semantic=8&num_scrambled_causal=4&num_scrambled_schematic=4&participantId=77EAAFE50DDB4B858F8BC3FF4BB9F7C7&assignmentId=e7f54b54-ba25-4c29-a0f2-af5f8fd22409&projectId=9076ac92-be42-43a2-9634-8b67c7fe93a7","77EAAFE50DDB4B858F8BC3FF4BB9F7C7-2025-05-22-20-12-15","","null","","[]","null","",""
"","","","","","image-button-response","60","396192","0.0-12.0-1.0-0.1","77EAAFE50DDB4B858F8BC3FF4BB9F7C7","77EAAFE50DDB4B858F8BC3FF4BB9F7C7","e7f54b54-ba25-4c29-a0f2-af5f8fd22409","9076ac92-be42-43a2-9634-8b67c7fe93a7","{""num_scrambled_semantic"":""8"",""num_scrambled_causal"":""4"",""num_scrambled_schematic"":""4"",""participantId"":""77EAAFE50DDB4B858F8BC3FF4BB9F7C7"",""assignmentId"":""e7f54b54-ba25-4c29-a0f2-af5f8fd22409"",""projectId"":""9076ac92-be42-43a2-9634-8b67c7fe93a7""}","https://test12345.live/?num_scrambled_semantic=8&num_scrambled_causal=4&num_scrambled_schematic=4&participantId=77EAAFE50DDB4B858F8BC3FF4BB9F7C7&assignmentId=e7f54b54-ba25-4c29-a0f2-af5f8fd22409&projectId=9076ac92-be42-43a2-9634-8b67c7fe93a7","77EAAFE50DDB4B858F8BC3FF4BB9F7C7-2025-05-22-20-12-15","","null","","images/semantic_sequence/cat_care_semantic/cat_care_semantic_3.png","null","",""
"","","","","","image-button-response","61","396810","0.0-12.0-1.0-1.1","77EAAFE50DDB4B858F8BC3FF4BB9F7C7","77EAAFE50DDB4B858F8BC3FF4BB9F7C7","e7f54b54-ba25-4c29-a0f2-af5f8fd22409","9076ac92-be42-43a2-9634-8b67c7fe93a7","{""num_scrambled_semantic"":""8"",""num_scrambled_causal"":""4"",""num_scrambled_schematic"":""4"",""participantId"":""77EAAFE50DDB4B858F8BC3FF4BB9F7C7"",""assignmentId"":""e7f54b54-ba25-4c29-a0f2-af5f8fd22409"",""projectId"":""9076ac92-be42-43a2-9634-8b67c7fe93a7""}","https://test12345.live/?num_scrambled_semantic=8&num_scrambled_causal=4&num_scrambled_schematic=4&participantId=77EAAFE50DDB4B858F8BC3FF4BB9F7C7&assignmentId=e7f54b54-ba25-4c29-a0f2-af5f8fd22409&projectId=9076ac92-be42-43a2-9634-8b67c7fe93a7","77EAAFE50DDB4B858F8BC3FF4BB9F7C7-2025-05-22-20-12-15","","618","","images/semantic_sequence/cat_care_semantic/cat_care_semantic_3.png","0","",""
"","","","","","image-button-response","62","398611","0.0-12.0-1.0-2.1","77EAAFE50DDB4B858F8BC3FF4BB9F7C7","77EAAFE50DDB4B858F8BC3FF4BB9F7C7","e7f54b54-ba25-4c29-a0f2-af5f8fd22409","9076ac92-be42-43a2-9634-8b67c7fe93a7","{""num_scrambled_semantic"":""8"",""num_scrambled_causal"":""4"",""num_scrambled_schematic"":""4"",""participantId"":""77EAAFE50DDB4B858F8BC3FF4BB9F7C7"",""assignmentId"":""e7f54b54-ba25-4c29-a0f2-af5f8fd22409"",""projectId"":""9076ac92-be42-43a2-9634-8b67c7fe93a7""}","https://test12345.live/?num_scrambled_semantic=8&num_scrambled_causal=4&num_scrambled_schematic=4&participantId=77EAAFE50DDB4B858F8BC3FF4BB9F7C7&assignmentId=e7f54b54-ba25-4c29-a0f2-af5f8fd22409&projectId=9076ac92-be42-43a2-9634-8b67c7fe93a7","77EAAFE50DDB4B858F8BC3FF4BB9F7C7-2025-05-22-20-12-15","","null","","[]","null","",""
"","","","","","image-button-response","63","403112","0.0-12.0-1.0-0.2","77EAAFE50DDB4B858F8BC3FF4BB9F7C7","77EAAFE50DDB4B858F8BC3FF4BB9F7C7","e7f54b54-ba25-4c29-a0f2-af5f8fd22409","9076ac92-be42-43a2-9634-8b67c7fe93a7","{""num_scrambled_semantic"":""8"",""num_scrambled_causal"":""4"",""num_scrambled_schematic"":""4"",""participantId"":""77EAAFE50DDB4B858F8BC3FF4BB9F7C7"",""assignmentId"":""e7f54b54-ba25-4c29-a0f2-af5f8fd22409"",""projectId"":""9076ac92-be42-43a2-9634-8b67c7fe93a7""}","https://test12345.live/?num_scrambled_semantic=8&num_scrambled_causal=4&num_scrambled_schematic=4&participantId=77EAAFE50DDB4B858F8BC3FF4BB9F7C7&assignmentId=e7f54b54-ba25-4c29-a0f2-af5f8fd22409&projectId=9076ac92-be42-43a2-9634-8b67c7fe93a7","77EAAFE50DDB4B858F8BC3FF4BB9F7C7-2025-05-22-20-12-15","","null","","images/semantic_sequence/cat_care_semantic/cat_care_semantic_6.png","null","",""
"","","","","","image-button-response","64","404069","0.0-12.0-1.0-1.2","77EAAFE50DDB4B858F8BC3FF4BB9F7C7","77EAAFE50DDB4B858F8BC3FF4BB9F7C7","e7f54b54-ba25-4c29-a0f2-af5f8fd22409","9076ac92-be42-43a2-9634-8b67c7fe93a7","{""num_scrambled_semantic"":""8"",""num_scrambled_causal"":""4"",""num_scrambled_schematic"":""4"",""participantId"":""77EAAFE50DDB4B858F8BC3FF4BB9F7C7"",""assignmentId"":""e7f54b54-ba25-4c29-a0f2-af5f8fd22409"",""projectId"":""9076ac92-be42-43a2-9634-8b67c7fe93a7""}","https://test12345.live/?num_scrambled_semantic=8&num_scrambled_causal=4&num_scrambled_schematic=4&participantId=77EAAFE50DDB4B858F8BC3FF4BB9F7C7&assignmentId=e7f54b54-ba25-4c29-a0f2-af5f8fd22409&projectId=9076ac92-be42-43a2-9634-8b67c7fe93a7","77EAAFE50DDB4B858F8BC3FF4BB9F7C7-2025-05-22-20-12-15","","956","","images/semantic_sequence/cat_care_semantic/cat_care_semantic_6.png","0","",""
"","","","","","image-button-response","65","405871","0.0-12.0-1.0-2.2","77EAAFE50DDB4B858F8BC3FF4BB9F7C7","77EAAFE50DDB4B858F8BC3FF4BB9F7C7","e7f54b54-ba25-4c29-a0f2-af5f8fd22409","9076ac92-be42-43a2-9634-8b67c7fe93a7","{""num_scrambled_semantic"":""8"",""num_scrambled_causal"":""4"",""num_scrambled_schematic"":""4"",""participantId"":""77EAAFE50DDB4B858F8BC3FF4BB9F7C7"",""assignmentId"":""e7f54b54-ba25-4c29-a0f2-af5f8fd22409"",""projectId"":""9076ac92-be42-43a2-9634-8b67c7fe93a7""}","https://test12345.live/?num_scrambled_semantic=8&num_scrambled_causal=4&num_scrambled_schematic=4&participantId=77EAAFE50DDB4B858F8BC3FF4BB9F7C7&assignmentId=e7f54b54-ba25-4c29-a0f2-af5f8fd22409&projectId=9076ac92-be42-43a2-9634-8b67c7fe93a7","77EAAFE50DDB4B858F8BC3FF4BB9F7C7-2025-05-22-20-12-15","","null","","[]","null","",""
"","","","","","image-button-response","66","410373","0.0-12.0-1.0-0.3","77EAAFE50DDB4B858F8BC3FF4BB9F7C7","77EAAFE50DDB4B858F8BC3FF4BB9F7C7","e7f54b54-ba25-4c29-a0f2-af5f8fd22409","9076ac92-be42-43a2-9634-8b67c7fe93a7","{""num_scrambled_semantic"":""8"",""num_scrambled_causal"":""4"",""num_scrambled_schematic"":""4"",""participantId"":""77EAAFE50DDB4B858F8BC3FF4BB9F7C7"",""assignmentId"":""e7f54b54-ba25-4c29-a0f2-af5f8fd22409"",""projectId"":""9076ac92-be42-43a2-9634-8b67c7fe93a7""}","https://test12345.live/?num_scrambled_semantic=8&num_scrambled_causal=4&num_scrambled_schematic=4&participantId=77EAAFE50DDB4B858F8BC3FF4BB9F7C7&assignmentId=e7f54b54-ba25-4c29-a0f2-af5f8fd22409&projectId=9076ac92-be42-43a2-9634-8b67c7fe93a7","77EAAFE50DDB4B858F8BC3FF4BB9F7C7-2025-05-22-20-12-15","","null","","images/semantic_sequence/cat_care_semantic/cat_care_semantic_ten.png","null","",""
"","","","","","image-button-response","67","411976","0.0-12.0-1.0-1.3","77EAAFE50DDB4B858F8BC3FF4BB9F7C7","77EAAFE50DDB4B858F8BC3FF4BB9F7C7","e7f54b54-ba25-4c29-a0f2-af5f8fd22409","9076ac92-be42-43a2-9634-8b67c7fe93a7","{""num_scrambled_semantic"":""8"",""num_scrambled_causal"":""4"",""num_scrambled_schematic"":""4"",""participantId"":""77EAAFE50DDB4B858F8BC3FF4BB9F7C7"",""assignmentId"":""e7f54b54-ba25-4c29-a0f2-af5f8fd22409"",""projectId"":""9076ac92-be42-43a2-9634-8b67c7fe93a7""}","https://test12345.live/?num_scrambled_semantic=8&num_scrambled_causal=4&num_scrambled_schematic=4&participantId=77EAAFE50DDB4B858F8BC3FF4BB9F7C7&assignmentId=e7f54b54-ba25-4c29-a0f2-af5f8fd22409&projectId=9076ac92-be42-43a2-9634-8b67c7fe93a7","77EAAFE50DDB4B858F8BC3FF4BB9F7C7-2025-05-22-20-12-15","","1602","","images/semantic_sequence/cat_care_semantic/cat_care_semantic_ten.png","1","",""
"","","","","","image-button-response","68","413777","0.0-12.0-1.0-2.3","77EAAFE50DDB4B858F8BC3FF4BB9F7C7","77EAAFE50DDB4B858F8BC3FF4BB9F7C7","e7f54b54-ba25-4c29-a0f2-af5f8fd22409","9076ac92-be42-43a2-9634-8b67c7fe93a7","{""num_scrambled_semantic"":""8"",""num_scrambled_causal"":""4"",""num_scrambled_schematic"":""4"",""participantId"":""77EAAFE50DDB4B858F8BC3FF4BB9F7C7"",""assignmentId"":""e7f54b54-ba25-4c29-a0f2-af5f8fd22409"",""projectId"":""9076ac92-be42-43a2-9634-8b67c7fe93a7""}","https://test12345.live/?num_scrambled_semantic=8&num_scrambled_causal=4&num_scrambled_schematic=4&participantId=77EAAFE50DDB4B858F8BC3FF4BB9F7C7&assignmentId=e7f54b54-ba25-4c29-a0f2-af5f8fd22409&projectId=9076ac92-be42-43a2-9634-8b67c7fe93a7","77EAAFE50DDB4B858F8BC3FF4BB9F7C7-2025-05-22-20-12-15","","null","","[]","null","",""
"","","","","","image-button-response","69","418278","0.0-12.0-1.0-0.4","77EAAFE50DDB4B858F8BC3FF4BB9F7C7","77EAAFE50DDB4B858F8BC3FF4BB9F7C7","e7f54b54-ba25-4c29-a0f2-af5f8fd22409","9076ac92-be42-43a2-9634-8b67c7fe93a7","{""num_scrambled_semantic"":""8"",""num_scrambled_causal"":""4"",""num_scrambled_schematic"":""4"",""participantId"":""77EAAFE50DDB4B858F8BC3FF4BB9F7C7"",""assignmentId"":""e7f54b54-ba25-4c29-a0f2-af5f8fd22409"",""projectId"":""9076ac92-be42-43a2-9634-8b67c7fe93a7""}","https://test12345.live/?num_scrambled_semantic=8&num_scrambled_causal=4&num_scrambled_schematic=4&participantId=77EAAFE50DDB4B858F8BC3FF4BB9F7C7&assignmentId=e7f54b54-ba25-4c29-a0f2-af5f8fd22409&projectId=9076ac92-be42-43a2-9634-8b67c7fe93a7","77EAAFE50DDB4B858F8BC3FF4BB9F7C7-2025-05-22-20-12-15","","null","","images/semantic_sequence/cat_care_semantic/cat_care_semantic_7.png","null","",""
"","","","","","image-button-response","70","419447","0.0-12.0-1.0-1.4","77EAAFE50DDB4B858F8BC3FF4BB9F7C7","77EAAFE50DDB4B858F8BC3FF4BB9F7C7","e7f54b54-ba25-4c29-a0f2-af5f8fd22409","9076ac92-be42-43a2-9634-8b67c7fe93a7","{""num_scrambled_semantic"":""8"",""num_scrambled_causal"":""4"",""num_scrambled_schematic"":""4"",""participantId"":""77EAAFE50DDB4B858F8BC3FF4BB9F7C7"",""assignmentId"":""e7f54b54-ba25-4c29-a0f2-af5f8fd22409"",""projectId"":""9076ac92-be42-43a2-9634-8b67c7fe93a7""}","https://test12345.live/?num_scrambled_semantic=8&num_scrambled_causal=4&num_scrambled_schematic=4&participantId=77EAAFE50DDB4B858F8BC3FF4BB9F7C7&assignmentId=e7f54b54-ba25-4c29-a0f2-af5f8fd22409&projectId=9076ac92-be42-43a2-9634-8b67c7fe93a7","77EAAFE50DDB4B858F8BC3FF4BB9F7C7-2025-05-22-20-12-15","","1169","","images/semantic_sequence/cat_care_semantic/cat_care_semantic_7.png","0","",""
"","","","","","image-button-response","71","421248","0.0-12.0-1.0-2.4","77EAAFE50DDB4B858F8BC3FF4BB9F7C7","77EAAFE50DDB4B858F8BC3FF4BB9F7C7","e7f54b54-ba25-4c29-a0f2-af5f8fd22409","9076ac92-be42-43a2-9634-8b67c7fe93a7","{""num_scrambled_semantic"":""8"",""num_scrambled_causal"":""4"",""num_scrambled_schematic"":""4"",""participantId"":""77EAAFE50DDB4B858F8BC3FF4BB9F7C7"",""assignmentId"":""e7f54b54-ba25-4c29-a0f2-af5f8fd22409"",""projectId"":""9076ac92-be42-43a2-9634-8b67c7fe93a7""}","https://test12345.live/?num_scrambled_semantic=8&num_scrambled_causal=4&num_scrambled_schematic=4&participantId=77EAAFE50DDB4B858F8BC3FF4BB9F7C7&assignmentId=e7f54b54-ba25-4c29-a0f2-af5f8fd22409&projectId=9076ac92-be42-43a2-9634-8b67c7fe93a7","77EAAFE50DDB4B858F8BC3FF4BB9F7C7-2025-05-22-20-12-15","","null","","[]","null","",""
"","","","","","image-button-response","72","425751","0.0-12.0-1.0-0.5","77EAAFE50DDB4B858F8BC3FF4BB9F7C7","77EAAFE50DDB4B858F8BC3FF4BB9F7C7","e7f54b54-ba25-4c29-a0f2-af5f8fd22409","9076ac92-be42-43a2-9634-8b67c7fe93a7","{""num_scrambled_semantic"":""8"",""num_scrambled_causal"":""4"",""num_scrambled_schematic"":""4"",""participantId"":""77EAAFE50DDB4B858F8BC3FF4BB9F7C7"",""assignmentId"":""e7f54b54-ba25-4c29-a0f2-af5f8fd22409"",""projectId"":""9076ac92-be42-43a2-9634-8b67c7fe93a7""}","https://test12345.live/?num_scrambled_semantic=8&num_scrambled_causal=4&num_scrambled_schematic=4&participantId=77EAAFE50DDB4B858F8BC3FF4BB9F7C7&assignmentId=e7f54b54-ba25-4c29-a0f2-af5f8fd22409&projectId=9076ac92-be42-43a2-9634-8b67c7fe93a7","77EAAFE50DDB4B858F8BC3FF4BB9F7C7-2025-05-22-20-12-15","","null","","images/semantic_sequence/cat_care_semantic/cat_care_semantic_9.png","null","",""
"","","","","","image-button-response","73","426779","0.0-12.0-1.0-1.5","77EAAFE50DDB4B858F8BC3FF4BB9F7C7","77EAAFE50DDB4B858F8BC3FF4BB9F7C7","e7f54b54-ba25-4c29-a0f2-af5f8fd22409","9076ac92-be42-43a2-9634-8b67c7fe93a7","{""num_scrambled_semantic"":""8"",""num_scrambled_causal"":""4"",""num_scrambled_schematic"":""4"",""participantId"":""77EAAFE50DDB4B858F8BC3FF4BB9F7C7"",""assignmentId"":""e7f54b54-ba25-4c29-a0f2-af5f8fd22409"",""projectId"":""9076ac92-be42-43a2-9634-8b67c7fe93a7""}","https://test12345.live/?num_scrambled_semantic=8&num_scrambled_causal=4&num_scrambled_schematic=4&participantId=77EAAFE50DDB4B858F8BC3FF4BB9F7C7&assignmentId=e7f54b54-ba25-4c29-a0f2-af5f8fd22409&projectId=9076ac92-be42-43a2-9634-8b67c7fe93a7","77EAAFE50DDB4B858F8BC3FF4BB9F7C7-2025-05-22-20-12-15","","1028","","images/semantic_sequence/cat_care_semantic/cat_care_semantic_9.png","0","",""
"","","","","","image-button-response","74","428580","0.0-12.0-1.0-2.5","77EAAFE50DDB4B858F8BC3FF4BB9F7C7","77EAAFE50DDB4B858F8BC3FF4BB9F7C7","e7f54b54-ba25-4c29-a0f2-af5f8fd22409","9076ac92-be42-43a2-9634-8b67c7fe93a7","{""num_scrambled_semantic"":""8"",""num_scrambled_causal"":""4"",""num_scrambled_schematic"":""4"",""participantId"":""77EAAFE50DDB4B858F8BC3FF4BB9F7C7"",""assignmentId"":""e7f54b54-ba25-4c29-a0f2-af5f8fd22409"",""projectId"":""9076ac92-be42-43a2-9634-8b67c7fe93a7""}","https://test12345.live/?num_scrambled_semantic=8&num_scrambled_causal=4&num_scrambled_schematic=4&participantId=77EAAFE50DDB4B858F8BC3FF4BB9F7C7&assignmentId=e7f54b54-ba25-4c29-a0f2-af5f8fd22409&projectId=9076ac92-be42-43a2-9634-8b67c7fe93a7","77EAAFE50DDB4B858F8BC3FF4BB9F7C7-2025-05-22-20-12-15","","null","","[]","null","",""
"","","","","","image-button-response","75","433082","0.0-12.0-1.0-0.6","77EAAFE50DDB4B858F8BC3FF4BB9F7C7","77EAAFE50DDB4B858F8BC3FF4BB9F7C7","e7f54b54-ba25-4c29-a0f2-af5f8fd22409","9076ac92-be42-43a2-9634-8b67c7fe93a7","{""num_scrambled_semantic"":""8"",""num_scrambled_causal"":""4"",""num_scrambled_schematic"":""4"",""participantId"":""77EAAFE50DDB4B858F8BC3FF4BB9F7C7"",""assignmentId"":""e7f54b54-ba25-4c29-a0f2-af5f8fd22409"",""projectId"":""9076ac92-be42-43a2-9634-8b67c7fe93a7""}","https://test12345.live/?num_scrambled_semantic=8&num_scrambled_causal=4&num_scrambled_schematic=4&participantId=77EAAFE50DDB4B858F8BC3FF4BB9F7C7&assignmentId=e7f54b54-ba25-4c29-a0f2-af5f8fd22409&projectId=9076ac92-be42-43a2-9634-8b67c7fe93a7","77EAAFE50DDB4B858F8BC3FF4BB9F7C7-2025-05-22-20-12-15","","null","","images/semantic_sequence/cat_care_semantic/cat_care_semantic_4.png","null","",""
"","","","","","image-button-response","76","433586","0.0-12.0-1.0-1.6","77EAAFE50DDB4B858F8BC3FF4BB9F7C7","77EAAFE50DDB4B858F8BC3FF4BB9F7C7","e7f54b54-ba25-4c29-a0f2-af5f8fd22409","9076ac92-be42-43a2-9634-8b67c7fe93a7","{""num_scrambled_semantic"":""8"",""num_scrambled_causal"":""4"",""num_scrambled_schematic"":""4"",""participantId"":""77EAAFE50DDB4B858F8BC3FF4BB9F7C7"",""assignmentId"":""e7f54b54-ba25-4c29-a0f2-af5f8fd22409"",""projectId"":""9076ac92-be42-43a2-9634-8b67c7fe93a7""}","https://test12345.live/?num_scrambled_semantic=8&num_scrambled_causal=4&num_scrambled_schematic=4&participantId=77EAAFE50DDB4B858F8BC3FF4BB9F7C7&assignmentId=e7f54b54-ba25-4c29-a0f2-af5f8fd22409&projectId=9076ac92-be42-43a2-9634-8b67c7fe93a7","77EAAFE50DDB4B858F8BC3FF4BB9F7C7-2025-05-22-20-12-15","","504","","images/semantic_sequence/cat_care_semantic/cat_care_semantic_4.png","0","",""
"","","","","","image-button-response","77","435388","0.0-12.0-1.0-2.6","77EAAFE50DDB4B858F8BC3FF4BB9F7C7","77EAAFE50DDB4B858F8BC3FF4BB9F7C7","e7f54b54-ba25-4c29-a0f2-af5f8fd22409","9076ac92-be42-43a2-9634-8b67c7fe93a7","{""num_scrambled_semantic"":""8"",""num_scrambled_causal"":""4"",""num_scrambled_schematic"":""4"",""participantId"":""77EAAFE50DDB4B858F8BC3FF4BB9F7C7"",""assignmentId"":""e7f54b54-ba25-4c29-a0f2-af5f8fd22409"",""projectId"":""9076ac92-be42-43a2-9634-8b67c7fe93a7""}","https://test12345.live/?num_scrambled_semantic=8&num_scrambled_causal=4&num_scrambled_schematic=4&participantId=77EAAFE50DDB4B858F8BC3FF4BB9F7C7&assignmentId=e7f54b54-ba25-4c29-a0f2-af5f8fd22409&projectId=9076ac92-be42-43a2-9634-8b67c7fe93a7","77EAAFE50DDB4B858F8BC3FF4BB9F7C7-2025-05-22-20-12-15","","null","","[]","null","",""
"","","","","","image-button-response","78","439891","0.0-12.0-1.0-0.7","77EAAFE50DDB4B858F8BC3FF4BB9F7C7","77EAAFE50DDB4B858F8BC3FF4BB9F7C7","e7f54b54-ba25-4c29-a0f2-af5f8fd22409","9076ac92-be42-43a2-9634-8b67c7fe93a7","{""num_scrambled_semantic"":""8"",""num_scrambled_causal"":""4"",""num_scrambled_schematic"":""4"",""participantId"":""77EAAFE50DDB4B858F8BC3FF4BB9F7C7"",""assignmentId"":""e7f54b54-ba25-4c29-a0f2-af5f8fd22409"",""projectId"":""9076ac92-be42-43a2-9634-8b67c7fe93a7""}","https://test12345.live/?num_scrambled_semantic=8&num_scrambled_causal=4&num_scrambled_schematic=4&participantId=77EAAFE50DDB4B858F8BC3FF4BB9F7C7&assignmentId=e7f54b54-ba25-4c29-a0f2-af5f8fd22409&projectId=9076ac92-be42-43a2-9634-8b67c7fe93a7","77EAAFE50DDB4B858F8BC3FF4BB9F7C7-2025-05-22-20-12-15","","null","","images/semantic_sequence/cat_care_semantic/cat_care_semantic_2.png","null","",""
"","","","","","image-button-response","79","440953","0.0-12.0-1.0-1.7","77EAAFE50DDB4B858F8BC3FF4BB9F7C7","77EAAFE50DDB4B858F8BC3FF4BB9F7C7","e7f54b54-ba25-4c29-a0f2-af5f8fd22409","9076ac92-be42-43a2-9634-8b67c7fe93a7","{""num_scrambled_semantic"":""8"",""num_scrambled_causal"":""4"",""num_scrambled_schematic"":""4"",""participantId"":""77EAAFE50DDB4B858F8BC3FF4BB9F7C7"",""assignmentId"":""e7f54b54-ba25-4c29-a0f2-af5f8fd22409"",""projectId"":""9076ac92-be42-43a2-9634-8b67c7fe93a7""}","https://test12345.live/?num_scrambled_semantic=8&num_scrambled_causal=4&num_scrambled_schematic=4&participantId=77EAAFE50DDB4B858F8BC3FF4BB9F7C7&assignmentId=e7f54b54-ba25-4c29-a0f2-af5f8fd22409&projectId=9076ac92-be42-43a2-9634-8b67c7fe93a7","77EAAFE50DDB4B858F8BC3FF4BB9F7C7-2025-05-22-20-12-15","","1061","","images/semantic_sequence/cat_care_semantic/cat_care_semantic_2.png","0","",""
"","","","","","image-button-response","80","442754","0.0-12.0-1.0-2.7","77EAAFE50DDB4B858F8BC3FF4BB9F7C7","77EAAFE50DDB4B858F8BC3FF4BB9F7C7","e7f54b54-ba25-4c29-a0f2-af5f8fd22409","9076ac92-be42-43a2-9634-8b67c7fe93a7","{""num_scrambled_semantic"":""8"",""num_scrambled_causal"":""4"",""num_scrambled_schematic"":""4"",""participantId"":""77EAAFE50DDB4B858F8BC3FF4BB9F7C7"",""assignmentId"":""e7f54b54-ba25-4c29-a0f2-af5f8fd22409"",""projectId"":""9076ac92-be42-43a2-9634-8b67c7fe93a7""}","https://test12345.live/?num_scrambled_semantic=8&num_scrambled_causal=4&num_scrambled_schematic=4&participantId=77EAAFE50DDB4B858F8BC3FF4BB9F7C7&assignmentId=e7f54b54-ba25-4c29-a0f2-af5f8fd22409&projectId=9076ac92-be42-43a2-9634-8b67c7fe93a7","77EAAFE50DDB4B858F8BC3FF4BB9F7C7-2025-05-22-20-12-15","","null","","[]","null","",""
"","","","","","image-button-response","81","447256","0.0-12.0-1.0-0.8","77EAAFE50DDB4B858F8BC3FF4BB9F7C7","77EAAFE50DDB4B858F8BC3FF4BB9F7C7","e7f54b54-ba25-4c29-a0f2-af5f8fd22409","9076ac92-be42-43a2-9634-8b67c7fe93a7","{""num_scrambled_semantic"":""8"",""num_scrambled_causal"":""4"",""num_scrambled_schematic"":""4"",""participantId"":""77EAAFE50DDB4B858F8BC3FF4BB9F7C7"",""assignmentId"":""e7f54b54-ba25-4c29-a0f2-af5f8fd22409"",""projectId"":""9076ac92-be42-43a2-9634-8b67c7fe93a7""}","https://test12345.live/?num_scrambled_semantic=8&num_scrambled_causal=4&num_scrambled_schematic=4&participantId=77EAAFE50DDB4B858F8BC3FF4BB9F7C7&assignmentId=e7f54b54-ba25-4c29-a0f2-af5f8fd22409&projectId=9076ac92-be42-43a2-9634-8b67c7fe93a7","77EAAFE50DDB4B858F8BC3FF4BB9F7C7-2025-05-22-20-12-15","","null","","images/semantic_sequence/cat_care_semantic/cat_care_semantic_1.png","null","",""
"","","","","","image-button-response","82","449560","0.0-12.0-1.0-1.8","77EAAFE50DDB4B858F8BC3FF4BB9F7C7","77EAAFE50DDB4B858F8BC3FF4BB9F7C7","e7f54b54-ba25-4c29-a0f2-af5f8fd22409","9076ac92-be42-43a2-9634-8b67c7fe93a7","{""num_scrambled_semantic"":""8"",""num_scrambled_causal"":""4"",""num_scrambled_schematic"":""4"",""participantId"":""77EAAFE50DDB4B858F8BC3FF4BB9F7C7"",""assignmentId"":""e7f54b54-ba25-4c29-a0f2-af5f8fd22409"",""projectId"":""9076ac92-be42-43a2-9634-8b67c7fe93a7""}","https://test12345.live/?num_scrambled_semantic=8&num_scrambled_causal=4&num_scrambled_schematic=4&participantId=77EAAFE50DDB4B858F8BC3FF4BB9F7C7&assignmentId=e7f54b54-ba25-4c29-a0f2-af5f8fd22409&projectId=9076ac92-be42-43a2-9634-8b67c7fe93a7","77EAAFE50DDB4B858F8BC3FF4BB9F7C7-2025-05-22-20-12-15","","2303","","images/semantic_sequence/cat_care_semantic/cat_care_semantic_1.png","0","",""
"","","","","","image-button-response","83","451361","0.0-12.0-1.0-2.8","77EAAFE50DDB4B858F8BC3FF4BB9F7C7","77EAAFE50DDB4B858F8BC3FF4BB9F7C7","e7f54b54-ba25-4c29-a0f2-af5f8fd22409","9076ac92-be42-43a2-9634-8b67c7fe93a7","{""num_scrambled_semantic"":""8"",""num_scrambled_causal"":""4"",""num_scrambled_schematic"":""4"",""participantId"":""77EAAFE50DDB4B858F8BC3FF4BB9F7C7"",""assignmentId"":""e7f54b54-ba25-4c29-a0f2-af5f8fd22409"",""projectId"":""9076ac92-be42-43a2-9634-8b67c7fe93a7""}","https://test12345.live/?num_scrambled_semantic=8&num_scrambled_causal=4&num_scrambled_schematic=4&participantId=77EAAFE50DDB4B858F8BC3FF4BB9F7C7&assignmentId=e7f54b54-ba25-4c29-a0f2-af5f8fd22409&projectId=9076ac92-be42-43a2-9634-8b67c7fe93a7","77EAAFE50DDB4B858F8BC3FF4BB9F7C7-2025-05-22-20-12-15","","null","","[]","null","",""
"","","","","","image-button-response","84","455864","0.0-12.0-1.0-0.9","77EAAFE50DDB4B858F8BC3FF4BB9F7C7","77EAAFE50DDB4B858F8BC3FF4BB9F7C7","e7f54b54-ba25-4c29-a0f2-af5f8fd22409","9076ac92-be42-43a2-9634-8b67c7fe93a7","{""num_scrambled_semantic"":""8"",""num_scrambled_causal"":""4"",""num_scrambled_schematic"":""4"",""participantId"":""77EAAFE50DDB4B858F8BC3FF4BB9F7C7"",""assignmentId"":""e7f54b54-ba25-4c29-a0f2-af5f8fd22409"",""projectId"":""9076ac92-be42-43a2-9634-8b67c7fe93a7""}","https://test12345.live/?num_scrambled_semantic=8&num_scrambled_causal=4&num_scrambled_schematic=4&participantId=77EAAFE50DDB4B858F8BC3FF4BB9F7C7&assignmentId=e7f54b54-ba25-4c29-a0f2-af5f8fd22409&projectId=9076ac92-be42-43a2-9634-8b67c7fe93a7","77EAAFE50DDB4B858F8BC3FF4BB9F7C7-2025-05-22-20-12-15","","null","","images/semantic_sequence/cat_care_semantic/cat_care_semantic_5.png","null","",""
"","","","","","image-button-response","85","457149","0.0-12.0-1.0-1.9","77EAAFE50DDB4B858F8BC3FF4BB9F7C7","77EAAFE50DDB4B858F8BC3FF4BB9F7C7","e7f54b54-ba25-4c29-a0f2-af5f8fd22409","9076ac92-be42-43a2-9634-8b67c7fe93a7","{""num_scrambled_semantic"":""8"",""num_scrambled_causal"":""4"",""num_scrambled_schematic"":""4"",""participantId"":""77EAAFE50DDB4B858F8BC3FF4BB9F7C7"",""assignmentId"":""e7f54b54-ba25-4c29-a0f2-af5f8fd22409"",""projectId"":""9076ac92-be42-43a2-9634-8b67c7fe93a7""}","https://test12345.live/?num_scrambled_semantic=8&num_scrambled_causal=4&num_scrambled_schematic=4&participantId=77EAAFE50DDB4B858F8BC3FF4BB9F7C7&assignmentId=e7f54b54-ba25-4c29-a0f2-af5f8fd22409&projectId=9076ac92-be42-43a2-9634-8b67c7fe93a7","77EAAFE50DDB4B858F8BC3FF4BB9F7C7-2025-05-22-20-12-15","","1285","","images/semantic_sequence/cat_care_semantic/cat_care_semantic_5.png","0","",""
"","","","","","image-button-response","86","458951","0.0-12.0-1.0-2.9","77EAAFE50DDB4B858F8BC3FF4BB9F7C7","77EAAFE50DDB4B858F8BC3FF4BB9F7C7","e7f54b54-ba25-4c29-a0f2-af5f8fd22409","9076ac92-be42-43a2-9634-8b67c7fe93a7","{""num_scrambled_semantic"":""8"",""num_scrambled_causal"":""4"",""num_scrambled_schematic"":""4"",""participantId"":""77EAAFE50DDB4B858F8BC3FF4BB9F7C7"",""assignmentId"":""e7f54b54-ba25-4c29-a0f2-af5f8fd22409"",""projectId"":""9076ac92-be42-43a2-9634-8b67c7fe93a7""}","https://test12345.live/?num_scrambled_semantic=8&num_scrambled_causal=4&num_scrambled_schematic=4&participantId=77EAAFE50DDB4B858F8BC3FF4BB9F7C7&assignmentId=e7f54b54-ba25-4c29-a0f2-af5f8fd22409&projectId=9076ac92-be42-43a2-9634-8b67c7fe93a7","77EAAFE50DDB4B858F8BC3FF4BB9F7C7-2025-05-22-20-12-15","","null","","[]","null","",""
"","","","","","html-audio-response","87","493858","0.0-13.0","77EAAFE50DDB4B858F8BC3FF4BB9F7C7","77EAAFE50DDB4B858F8BC3FF4BB9F7C7","e7f54b54-ba25-4c29-a0f2-af5f8fd22409","9076ac92-be42-43a2-9634-8b67c7fe93a7","{""num_scrambled_semantic"":""8"",""num_scrambled_causal"":""4"",""num_scrambled_schematic"":""4"",""participantId"":""77EAAFE50DDB4B858F8BC3FF4BB9F7C7"",""assignmentId"":""e7f54b54-ba25-4c29-a0f2-af5f8fd22409"",""projectId"":""9076ac92-be42-43a2-9634-8b67c7fe93a7""}","https://test12345.live/?num_scrambled_semantic=8&num_scrambled_causal=4&num_scrambled_schematic=4&participantId=77EAAFE50DDB4B858F8BC3FF4BB9F7C7&assignmentId=e7f54b54-ba25-4c29-a0f2-af5f8fd22409&projectId=9076ac92-be42-43a2-9634-8b67c7fe93a7","77EAAFE50DDB4B858F8BC3FF4BB9F7C7-2025-05-22-20-12-15","","29453","","[""<span style=\""color: red; font-size: 24px\""> NOW RECORDING</span><p>Please say out loud all the images you saw, in the exact order you saw them. Try to recall as many images as you can, but remember: getting the order right is more important than the number of images you recall.</p>""]","","1","cat_care_semantic"
"","","","","","image-button-response","88","499863","0.0-14.0-0.0","77EAAFE50DDB4B858F8BC3FF4BB9F7C7","77EAAFE50DDB4B858F8BC3FF4BB9F7C7","e7f54b54-ba25-4c29-a0f2-af5f8fd22409","9076ac92-be42-43a2-9634-8b67c7fe93a7","{""num_scrambled_semantic"":""8"",""num_scrambled_causal"":""4"",""num_scrambled_schematic"":""4"",""participantId"":""77EAAFE50DDB4B858F8BC3FF4BB9F7C7"",""assignmentId"":""e7f54b54-ba25-4c29-a0f2-af5f8fd22409"",""projectId"":""9076ac92-be42-43a2-9634-8b67c7fe93a7""}","https://test12345.live/?num_scrambled_semantic=8&num_scrambled_causal=4&num_scrambled_schematic=4&participantId=77EAAFE50DDB4B858F8BC3FF4BB9F7C7&assignmentId=e7f54b54-ba25-4c29-a0f2-af5f8fd22409&projectId=9076ac92-be42-43a2-9634-8b67c7fe93a7","77EAAFE50DDB4B858F8BC3FF4BB9F7C7-2025-05-22-20-12-15","","null","","images/semantic_sequence/exploring_nature_semantic/exploring_nature_semantic_0.png","null","",""
"","","","","","image-button-response","89","504366","0.0-14.0-1.0-0.0","77EAAFE50DDB4B858F8BC3FF4BB9F7C7","77EAAFE50DDB4B858F8BC3FF4BB9F7C7","e7f54b54-ba25-4c29-a0f2-af5f8fd22409","9076ac92-be42-43a2-9634-8b67c7fe93a7","{""num_scrambled_semantic"":""8"",""num_scrambled_causal"":""4"",""num_scrambled_schematic"":""4"",""participantId"":""77EAAFE50DDB4B858F8BC3FF4BB9F7C7"",""assignmentId"":""e7f54b54-ba25-4c29-a0f2-af5f8fd22409"",""projectId"":""9076ac92-be42-43a2-9634-8b67c7fe93a7""}","https://test12345.live/?num_scrambled_semantic=8&num_scrambled_causal=4&num_scrambled_schematic=4&participantId=77EAAFE50DDB4B858F8BC3FF4BB9F7C7&assignmentId=e7f54b54-ba25-4c29-a0f2-af5f8fd22409&projectId=9076ac92-be42-43a2-9634-8b67c7fe93a7","77EAAFE50DDB4B858F8BC3FF4BB9F7C7-2025-05-22-20-12-15","","null","","images/semantic_sequence/exploring_nature_semantic/exploring_nature_semantic_1.png","null","",""
"","","","","","image-button-response","90","506111","0.0-14.0-1.0-1.0","77EAAFE50DDB4B858F8BC3FF4BB9F7C7","77EAAFE50DDB4B858F8BC3FF4BB9F7C7","e7f54b54-ba25-4c29-a0f2-af5f8fd22409","9076ac92-be42-43a2-9634-8b67c7fe93a7","{""num_scrambled_semantic"":""8"",""num_scrambled_causal"":""4"",""num_scrambled_schematic"":""4"",""participantId"":""77EAAFE50DDB4B858F8BC3FF4BB9F7C7"",""assignmentId"":""e7f54b54-ba25-4c29-a0f2-af5f8fd22409"",""projectId"":""9076ac92-be42-43a2-9634-8b67c7fe93a7""}","https://test12345.live/?num_scrambled_semantic=8&num_scrambled_causal=4&num_scrambled_schematic=4&participantId=77EAAFE50DDB4B858F8BC3FF4BB9F7C7&assignmentId=e7f54b54-ba25-4c29-a0f2-af5f8fd22409&projectId=9076ac92-be42-43a2-9634-8b67c7fe93a7","77EAAFE50DDB4B858F8BC3FF4BB9F7C7-2025-05-22-20-12-15","","1745","","images/semantic_sequence/exploring_nature_semantic/exploring_nature_semantic_1.png","0","",""
"","","","","","image-button-response","91","507913","0.0-14.0-1.0-2.0","77EAAFE50DDB4B858F8BC3FF4BB9F7C7","77EAAFE50DDB4B858F8BC3FF4BB9F7C7","e7f54b54-ba25-4c29-a0f2-af5f8fd22409","9076ac92-be42-43a2-9634-8b67c7fe93a7","{""num_scrambled_semantic"":""8"",""num_scrambled_causal"":""4"",""num_scrambled_schematic"":""4"",""participantId"":""77EAAFE50DDB4B858F8BC3FF4BB9F7C7"",""assignmentId"":""e7f54b54-ba25-4c29-a0f2-af5f8fd22409"",""projectId"":""9076ac92-be42-43a2-9634-8b67c7fe93a7""}","https://test12345.live/?num_scrambled_semantic=8&num_scrambled_causal=4&num_scrambled_schematic=4&participantId=77EAAFE50DDB4B858F8BC3FF4BB9F7C7&assignmentId=e7f54b54-ba25-4c29-a0f2-af5f8fd22409&projectId=9076ac92-be42-43a2-9634-8b67c7fe93a7","77EAAFE50DDB4B858F8BC3FF4BB9F7C7-2025-05-22-20-12-15","","null","","[]","null","",""
"","","","","","image-button-response","92","512415","0.0-14.0-1.0-0.1","77EAAFE50DDB4B858F8BC3FF4BB9F7C7","77EAAFE50DDB4B858F8BC3FF4BB9F7C7","e7f54b54-ba25-4c29-a0f2-af5f8fd22409","9076ac92-be42-43a2-9634-8b67c7fe93a7","{""num_scrambled_semantic"":""8"",""num_scrambled_causal"":""4"",""num_scrambled_schematic"":""4"",""participantId"":""77EAAFE50DDB4B858F8BC3FF4BB9F7C7"",""assignmentId"":""e7f54b54-ba25-4c29-a0f2-af5f8fd22409"",""projectId"":""9076ac92-be42-43a2-9634-8b67c7fe93a7""}","https://test12345.live/?num_scrambled_semantic=8&num_scrambled_causal=4&num_scrambled_schematic=4&participantId=77EAAFE50DDB4B858F8BC3FF4BB9F7C7&assignmentId=e7f54b54-ba25-4c29-a0f2-af5f8fd22409&projectId=9076ac92-be42-43a2-9634-8b67c7fe93a7","77EAAFE50DDB4B858F8BC3FF4BB9F7C7-2025-05-22-20-12-15","","null","","images/semantic_sequence/exploring_nature_semantic/exploring_nature_semantic_2.png","null","",""
"","","","","","image-button-response","93","513048","0.0-14.0-1.0-1.1","77EAAFE50DDB4B858F8BC3FF4BB9F7C7","77EAAFE50DDB4B858F8BC3FF4BB9F7C7","e7f54b54-ba25-4c29-a0f2-af5f8fd22409","9076ac92-be42-43a2-9634-8b67c7fe93a7","{""num_scrambled_semantic"":""8"",""num_scrambled_causal"":""4"",""num_scrambled_schematic"":""4"",""participantId"":""77EAAFE50DDB4B858F8BC3FF4BB9F7C7"",""assignmentId"":""e7f54b54-ba25-4c29-a0f2-af5f8fd22409"",""projectId"":""9076ac92-be42-43a2-9634-8b67c7fe93a7""}","https://test12345.live/?num_scrambled_semantic=8&num_scrambled_causal=4&num_scrambled_schematic=4&participantId=77EAAFE50DDB4B858F8BC3FF4BB9F7C7&assignmentId=e7f54b54-ba25-4c29-a0f2-af5f8fd22409&projectId=9076ac92-be42-43a2-9634-8b67c7fe93a7","77EAAFE50DDB4B858F8BC3FF4BB9F7C7-2025-05-22-20-12-15","","633","","images/semantic_sequence/exploring_nature_semantic/exploring_nature_semantic_2.png","0","",""
"","","","","","image-button-response","94","514850","0.0-14.0-1.0-2.1","77EAAFE50DDB4B858F8BC3FF4BB9F7C7","77EAAFE50DDB4B858F8BC3FF4BB9F7C7","e7f54b54-ba25-4c29-a0f2-af5f8fd22409","9076ac92-be42-43a2-9634-8b67c7fe93a7","{""num_scrambled_semantic"":""8"",""num_scrambled_causal"":""4"",""num_scrambled_schematic"":""4"",""participantId"":""77EAAFE50DDB4B858F8BC3FF4BB9F7C7"",""assignmentId"":""e7f54b54-ba25-4c29-a0f2-af5f8fd22409"",""projectId"":""9076ac92-be42-43a2-9634-8b67c7fe93a7""}","https://test12345.live/?num_scrambled_semantic=8&num_scrambled_causal=4&num_scrambled_schematic=4&participantId=77EAAFE50DDB4B858F8BC3FF4BB9F7C7&assignmentId=e7f54b54-ba25-4c29-a0f2-af5f8fd22409&projectId=9076ac92-be42-43a2-9634-8b67c7fe93a7","77EAAFE50DDB4B858F8BC3FF4BB9F7C7-2025-05-22-20-12-15","","null","","[]","null","",""
"","","","","","image-button-response","95","519352","0.0-14.0-1.0-0.2","77EAAFE50DDB4B858F8BC3FF4BB9F7C7","77EAAFE50DDB4B858F8BC3FF4BB9F7C7","e7f54b54-ba25-4c29-a0f2-af5f8fd22409","9076ac92-be42-43a2-9634-8b67c7fe93a7","{""num_scrambled_semantic"":""8"",""num_scrambled_causal"":""4"",""num_scrambled_schematic"":""4"",""participantId"":""77EAAFE50DDB4B858F8BC3FF4BB9F7C7"",""assignmentId"":""e7f54b54-ba25-4c29-a0f2-af5f8fd22409"",""projectId"":""9076ac92-be42-43a2-9634-8b67c7fe93a7""}","https://test12345.live/?num_scrambled_semantic=8&num_scrambled_causal=4&num_scrambled_schematic=4&participantId=77EAAFE50DDB4B858F8BC3FF4BB9F7C7&assignmentId=e7f54b54-ba25-4c29-a0f2-af5f8fd22409&projectId=9076ac92-be42-43a2-9634-8b67c7fe93a7","77EAAFE50DDB4B858F8BC3FF4BB9F7C7-2025-05-22-20-12-15","","null","","images/semantic_sequence/exploring_nature_semantic/exploring_nature_semantic_3.png","null","",""
"","","","","","image-button-response","96","519839","0.0-14.0-1.0-1.2","77EAAFE50DDB4B858F8BC3FF4BB9F7C7","77EAAFE50DDB4B858F8BC3FF4BB9F7C7","e7f54b54-ba25-4c29-a0f2-af5f8fd22409","9076ac92-be42-43a2-9634-8b67c7fe93a7","{""num_scrambled_semantic"":""8"",""num_scrambled_causal"":""4"",""num_scrambled_schematic"":""4"",""participantId"":""77EAAFE50DDB4B858F8BC3FF4BB9F7C7"",""assignmentId"":""e7f54b54-ba25-4c29-a0f2-af5f8fd22409"",""projectId"":""9076ac92-be42-43a2-9634-8b67c7fe93a7""}","https://test12345.live/?num_scrambled_semantic=8&num_scrambled_causal=4&num_scrambled_schematic=4&participantId=77EAAFE50DDB4B858F8BC3FF4BB9F7C7&assignmentId=e7f54b54-ba25-4c29-a0f2-af5f8fd22409&projectId=9076ac92-be42-43a2-9634-8b67c7fe93a7","77EAAFE50DDB4B858F8BC3FF4BB9F7C7-2025-05-22-20-12-15","","487","","images/semantic_sequence/exploring_nature_semantic/exploring_nature_semantic_3.png","0","",""
"","","","","","image-button-response","97","521644","0.0-14.0-1.0-2.2","77EAAFE50DDB4B858F8BC3FF4BB9F7C7","77EAAFE50DDB4B858F8BC3FF4BB9F7C7","e7f54b54-ba25-4c29-a0f2-af5f8fd22409","9076ac92-be42-43a2-9634-8b67c7fe93a7","{""num_scrambled_semantic"":""8"",""num_scrambled_causal"":""4"",""num_scrambled_schematic"":""4"",""participantId"":""77EAAFE50DDB4B858F8BC3FF4BB9F7C7"",""assignmentId"":""e7f54b54-ba25-4c29-a0f2-af5f8fd22409"",""projectId"":""9076ac92-be42-43a2-9634-8b67c7fe93a7""}","https://test12345.live/?num_scrambled_semantic=8&num_scrambled_causal=4&num_scrambled_schematic=4&participantId=77EAAFE50DDB4B858F8BC3FF4BB9F7C7&assignmentId=e7f54b54-ba25-4c29-a0f2-af5f8fd22409&projectId=9076ac92-be42-43a2-9634-8b67c7fe93a7","77EAAFE50DDB4B858F8BC3FF4BB9F7C7-2025-05-22-20-12-15","","null","","[]","null","",""
"","","","","","image-button-response","98","526147","0.0-14.0-1.0-0.3","77EAAFE50DDB4B858F8BC3FF4BB9F7C7","77EAAFE50DDB4B858F8BC3FF4BB9F7C7","e7f54b54-ba25-4c29-a0f2-af5f8fd22409","9076ac92-be42-43a2-9634-8b67c7fe93a7","{""num_scrambled_semantic"":""8"",""num_scrambled_causal"":""4"",""num_scrambled_schematic"":""4"",""participantId"":""77EAAFE50DDB4B858F8BC3FF4BB9F7C7"",""assignmentId"":""e7f54b54-ba25-4c29-a0f2-af5f8fd22409"",""projectId"":""9076ac92-be42-43a2-9634-8b67c7fe93a7""}","https://test12345.live/?num_scrambled_semantic=8&num_scrambled_causal=4&num_scrambled_schematic=4&participantId=77EAAFE50DDB4B858F8BC3FF4BB9F7C7&assignmentId=e7f54b54-ba25-4c29-a0f2-af5f8fd22409&projectId=9076ac92-be42-43a2-9634-8b67c7fe93a7","77EAAFE50DDB4B858F8BC3FF4BB9F7C7-2025-05-22-20-12-15","","null","","images/semantic_sequence/exploring_nature_semantic/exploring_nature_semantic_4.png","null","",""
"","","","","","image-button-response","99","527050","0.0-14.0-1.0-1.3","77EAAFE50DDB4B858F8BC3FF4BB9F7C7","77EAAFE50DDB4B858F8BC3FF4BB9F7C7","e7f54b54-ba25-4c29-a0f2-af5f8fd22409","9076ac92-be42-43a2-9634-8b67c7fe93a7","{""num_scrambled_semantic"":""8"",""num_scrambled_causal"":""4"",""num_scrambled_schematic"":""4"",""participantId"":""77EAAFE50DDB4B858F8BC3FF4BB9F7C7"",""assignmentId"":""e7f54b54-ba25-4c29-a0f2-af5f8fd22409"",""projectId"":""9076ac92-be42-43a2-9634-8b67c7fe93a7""}","https://test12345.live/?num_scrambled_semantic=8&num_scrambled_causal=4&num_scrambled_schematic=4&participantId=77EAAFE50DDB4B858F8BC3FF4BB9F7C7&assignmentId=e7f54b54-ba25-4c29-a0f2-af5f8fd22409&projectId=9076ac92-be42-43a2-9634-8b67c7fe93a7","77EAAFE50DDB4B858F8BC3FF4BB9F7C7-2025-05-22-20-12-15","","903","","images/semantic_sequence/exploring_nature_semantic/exploring_nature_semantic_4.png","0","",""
"","","","","","image-button-response","100","528854","0.0-14.0-1.0-2.3","77EAAFE50DDB4B858F8BC3FF4BB9F7C7","77EAAFE50DDB4B858F8BC3FF4BB9F7C7","e7f54b54-ba25-4c29-a0f2-af5f8fd22409","9076ac92-be42-43a2-9634-8b67c7fe93a7","{""num_scrambled_semantic"":""8"",""num_scrambled_causal"":""4"",""num_scrambled_schematic"":""4"",""participantId"":""77EAAFE50DDB4B858F8BC3FF4BB9F7C7"",""assignmentId"":""e7f54b54-ba25-4c29-a0f2-af5f8fd22409"",""projectId"":""9076ac92-be42-43a2-9634-8b67c7fe93a7""}","https://test12345.live/?num_scrambled_semantic=8&num_scrambled_causal=4&num_scrambled_schematic=4&participantId=77EAAFE50DDB4B858F8BC3FF4BB9F7C7&assignmentId=e7f54b54-ba25-4c29-a0f2-af5f8fd22409&projectId=9076ac92-be42-43a2-9634-8b67c7fe93a7","77EAAFE50DDB4B858F8BC3FF4BB9F7C7-2025-05-22-20-12-15","","null","","[]","null","",""
"","","","","","image-button-response","101","533359","0.0-14.0-1.0-0.4","77EAAFE50DDB4B858F8BC3FF4BB9F7C7","77EAAFE50DDB4B858F8BC3FF4BB9F7C7","e7f54b54-ba25-4c29-a0f2-af5f8fd22409","9076ac92-be42-43a2-9634-8b67c7fe93a7","{""num_scrambled_semantic"":""8"",""num_scrambled_causal"":""4"",""num_scrambled_schematic"":""4"",""participantId"":""77EAAFE50DDB4B858F8BC3FF4BB9F7C7"",""assignmentId"":""e7f54b54-ba25-4c29-a0f2-af5f8fd22409"",""projectId"":""9076ac92-be42-43a2-9634-8b67c7fe93a7""}","https://test12345.live/?num_scrambled_semantic=8&num_scrambled_causal=4&num_scrambled_schematic=4&participantId=77EAAFE50DDB4B858F8BC3FF4BB9F7C7&assignmentId=e7f54b54-ba25-4c29-a0f2-af5f8fd22409&projectId=9076ac92-be42-43a2-9634-8b67c7fe93a7","77EAAFE50DDB4B858F8BC3FF4BB9F7C7-2025-05-22-20-12-15","","null","","images/semantic_sequence/exploring_nature_semantic/exploring_nature_semantic_5.png","null","",""
"","","","","","image-button-response","102","534506","0.0-14.0-1.0-1.4","77EAAFE50DDB4B858F8BC3FF4BB9F7C7","77EAAFE50DDB4B858F8BC3FF4BB9F7C7","e7f54b54-ba25-4c29-a0f2-af5f8fd22409","9076ac92-be42-43a2-9634-8b67c7fe93a7","{""num_scrambled_semantic"":""8"",""num_scrambled_causal"":""4"",""num_scrambled_schematic"":""4"",""participantId"":""77EAAFE50DDB4B858F8BC3FF4BB9F7C7"",""assignmentId"":""e7f54b54-ba25-4c29-a0f2-af5f8fd22409"",""projectId"":""9076ac92-be42-43a2-9634-8b67c7fe93a7""}","https://test12345.live/?num_scrambled_semantic=8&num_scrambled_causal=4&num_scrambled_schematic=4&participantId=77EAAFE50DDB4B858F8BC3FF4BB9F7C7&assignmentId=e7f54b54-ba25-4c29-a0f2-af5f8fd22409&projectId=9076ac92-be42-43a2-9634-8b67c7fe93a7","77EAAFE50DDB4B858F8BC3FF4BB9F7C7-2025-05-22-20-12-15","","1146","","images/semantic_sequence/exploring_nature_semantic/exploring_nature_semantic_5.png","0","",""
"","","","","","image-button-response","103","536311","0.0-14.0-1.0-2.4","77EAAFE50DDB4B858F8BC3FF4BB9F7C7","77EAAFE50DDB4B858F8BC3FF4BB9F7C7","e7f54b54-ba25-4c29-a0f2-af5f8fd22409","9076ac92-be42-43a2-9634-8b67c7fe93a7","{""num_scrambled_semantic"":""8"",""num_scrambled_causal"":""4"",""num_scrambled_schematic"":""4"",""participantId"":""77EAAFE50DDB4B858F8BC3FF4BB9F7C7"",""assignmentId"":""e7f54b54-ba25-4c29-a0f2-af5f8fd22409"",""projectId"":""9076ac92-be42-43a2-9634-8b67c7fe93a7""}","https://test12345.live/?num_scrambled_semantic=8&num_scrambled_causal=4&num_scrambled_schematic=4&participantId=77EAAFE50DDB4B858F8BC3FF4BB9F7C7&assignmentId=e7f54b54-ba25-4c29-a0f2-af5f8fd22409&projectId=9076ac92-be42-43a2-9634-8b67c7fe93a7","77EAAFE50DDB4B858F8BC3FF4BB9F7C7-2025-05-22-20-12-15","","null","","[]","null","",""
"","","","","","image-button-response","104","540814","0.0-14.0-1.0-0.5","77EAAFE50DDB4B858F8BC3FF4BB9F7C7","77EAAFE50DDB4B858F8BC3FF4BB9F7C7","e7f54b54-ba25-4c29-a0f2-af5f8fd22409","9076ac92-be42-43a2-9634-8b67c7fe93a7","{""num_scrambled_semantic"":""8"",""num_scrambled_causal"":""4"",""num_scrambled_schematic"":""4"",""participantId"":""77EAAFE50DDB4B858F8BC3FF4BB9F7C7"",""assignmentId"":""e7f54b54-ba25-4c29-a0f2-af5f8fd22409"",""projectId"":""9076ac92-be42-43a2-9634-8b67c7fe93a7""}","https://test12345.live/?num_scrambled_semantic=8&num_scrambled_causal=4&num_scrambled_schematic=4&participantId=77EAAFE50DDB4B858F8BC3FF4BB9F7C7&assignmentId=e7f54b54-ba25-4c29-a0f2-af5f8fd22409&projectId=9076ac92-be42-43a2-9634-8b67c7fe93a7","77EAAFE50DDB4B858F8BC3FF4BB9F7C7-2025-05-22-20-12-15","","null","","images/semantic_sequence/exploring_nature_semantic/exploring_nature_semantic_6.png","null","",""
"","","","","","image-button-response","105","541700","0.0-14.0-1.0-1.5","77EAAFE50DDB4B858F8BC3FF4BB9F7C7","77EAAFE50DDB4B858F8BC3FF4BB9F7C7","e7f54b54-ba25-4c29-a0f2-af5f8fd22409","9076ac92-be42-43a2-9634-8b67c7fe93a7","{""num_scrambled_semantic"":""8"",""num_scrambled_causal"":""4"",""num_scrambled_schematic"":""4"",""participantId"":""77EAAFE50DDB4B858F8BC3FF4BB9F7C7"",""assignmentId"":""e7f54b54-ba25-4c29-a0f2-af5f8fd22409"",""projectId"":""9076ac92-be42-43a2-9634-8b67c7fe93a7""}","https://test12345.live/?num_scrambled_semantic=8&num_scrambled_causal=4&num_scrambled_schematic=4&participantId=77EAAFE50DDB4B858F8BC3FF4BB9F7C7&assignmentId=e7f54b54-ba25-4c29-a0f2-af5f8fd22409&projectId=9076ac92-be42-43a2-9634-8b67c7fe93a7","77EAAFE50DDB4B858F8BC3FF4BB9F7C7-2025-05-22-20-12-15","","886","","images/semantic_sequence/exploring_nature_semantic/exploring_nature_semantic_6.png","0","",""
"","","","","","image-button-response","106","543501","0.0-14.0-1.0-2.5","77EAAFE50DDB4B858F8BC3FF4BB9F7C7","77EAAFE50DDB4B858F8BC3FF4BB9F7C7","e7f54b54-ba25-4c29-a0f2-af5f8fd22409","9076ac92-be42-43a2-9634-8b67c7fe93a7","{""num_scrambled_semantic"":""8"",""num_scrambled_causal"":""4"",""num_scrambled_schematic"":""4"",""participantId"":""77EAAFE50DDB4B858F8BC3FF4BB9F7C7"",""assignmentId"":""e7f54b54-ba25-4c29-a0f2-af5f8fd22409"",""projectId"":""9076ac92-be42-43a2-9634-8b67c7fe93a7""}","https://test12345.live/?num_scrambled_semantic=8&num_scrambled_causal=4&num_scrambled_schematic=4&participantId=77EAAFE50DDB4B858F8BC3FF4BB9F7C7&assignmentId=e7f54b54-ba25-4c29-a0f2-af5f8fd22409&projectId=9076ac92-be42-43a2-9634-8b67c7fe93a7","77EAAFE50DDB4B858F8BC3FF4BB9F7C7-2025-05-22-20-12-15","","null","","[]","null","",""
"","","","","","image-button-response","107","548002","0.0-14.0-1.0-0.6","77EAAFE50DDB4B858F8BC3FF4BB9F7C7","77EAAFE50DDB4B858F8BC3FF4BB9F7C7","e7f54b54-ba25-4c29-a0f2-af5f8fd22409","9076ac92-be42-43a2-9634-8b67c7fe93a7","{""num_scrambled_semantic"":""8"",""num_scrambled_causal"":""4"",""num_scrambled_schematic"":""4"",""participantId"":""77EAAFE50DDB4B858F8BC3FF4BB9F7C7"",""assignmentId"":""e7f54b54-ba25-4c29-a0f2-af5f8fd22409"",""projectId"":""9076ac92-be42-43a2-9634-8b67c7fe93a7""}","https://test12345.live/?num_scrambled_semantic=8&num_scrambled_causal=4&num_scrambled_schematic=4&participantId=77EAAFE50DDB4B858F8BC3FF4BB9F7C7&assignmentId=e7f54b54-ba25-4c29-a0f2-af5f8fd22409&projectId=9076ac92-be42-43a2-9634-8b67c7fe93a7","77EAAFE50DDB4B858F8BC3FF4BB9F7C7-2025-05-22-20-12-15","","null","","images/semantic_sequence/exploring_nature_semantic/exploring_nature_semantic_7.png","null","",""
"","","","","","image-button-response","108","549828","0.0-14.0-1.0-1.6","77EAAFE50DDB4B858F8BC3FF4BB9F7C7","77EAAFE50DDB4B858F8BC3FF4BB9F7C7","e7f54b54-ba25-4c29-a0f2-af5f8fd22409","9076ac92-be42-43a2-9634-8b67c7fe93a7","{""num_scrambled_semantic"":""8"",""num_scrambled_causal"":""4"",""num_scrambled_schematic"":""4"",""participantId"":""77EAAFE50DDB4B858F8BC3FF4BB9F7C7"",""assignmentId"":""e7f54b54-ba25-4c29-a0f2-af5f8fd22409"",""projectId"":""9076ac92-be42-43a2-9634-8b67c7fe93a7""}","https://test12345.live/?num_scrambled_semantic=8&num_scrambled_causal=4&num_scrambled_schematic=4&participantId=77EAAFE50DDB4B858F8BC3FF4BB9F7C7&assignmentId=e7f54b54-ba25-4c29-a0f2-af5f8fd22409&projectId=9076ac92-be42-43a2-9634-8b67c7fe93a7","77EAAFE50DDB4B858F8BC3FF4BB9F7C7-2025-05-22-20-12-15","","1826","","images/semantic_sequence/exploring_nature_semantic/exploring_nature_semantic_7.png","0","",""
"","","","","","image-button-response","109","551630","0.0-14.0-1.0-2.6","77EAAFE50DDB4B858F8BC3FF4BB9F7C7","77EAAFE50DDB4B858F8BC3FF4BB9F7C7","e7f54b54-ba25-4c29-a0f2-af5f8fd22409","9076ac92-be42-43a2-9634-8b67c7fe93a7","{""num_scrambled_semantic"":""8"",""num_scrambled_causal"":""4"",""num_scrambled_schematic"":""4"",""participantId"":""77EAAFE50DDB4B858F8BC3FF4BB9F7C7"",""assignmentId"":""e7f54b54-ba25-4c29-a0f2-af5f8fd22409"",""projectId"":""9076ac92-be42-43a2-9634-8b67c7fe93a7""}","https://test12345.live/?num_scrambled_semantic=8&num_scrambled_causal=4&num_scrambled_schematic=4&participantId=77EAAFE50DDB4B858F8BC3FF4BB9F7C7&assignmentId=e7f54b54-ba25-4c29-a0f2-af5f8fd22409&projectId=9076ac92-be42-43a2-9634-8b67c7fe93a7","77EAAFE50DDB4B858F8BC3FF4BB9F7C7-2025-05-22-20-12-15","","null","","[]","null","",""
"","","","","","image-button-response","110","556132","0.0-14.0-1.0-0.7","77EAAFE50DDB4B858F8BC3FF4BB9F7C7","77EAAFE50DDB4B858F8BC3FF4BB9F7C7","e7f54b54-ba25-4c29-a0f2-af5f8fd22409","9076ac92-be42-43a2-9634-8b67c7fe93a7","{""num_scrambled_semantic"":""8"",""num_scrambled_causal"":""4"",""num_scrambled_schematic"":""4"",""participantId"":""77EAAFE50DDB4B858F8BC3FF4BB9F7C7"",""assignmentId"":""e7f54b54-ba25-4c29-a0f2-af5f8fd22409"",""projectId"":""9076ac92-be42-43a2-9634-8b67c7fe93a7""}","https://test12345.live/?num_scrambled_semantic=8&num_scrambled_causal=4&num_scrambled_schematic=4&participantId=77EAAFE50DDB4B858F8BC3FF4BB9F7C7&assignmentId=e7f54b54-ba25-4c29-a0f2-af5f8fd22409&projectId=9076ac92-be42-43a2-9634-8b67c7fe93a7","77EAAFE50DDB4B858F8BC3FF4BB9F7C7-2025-05-22-20-12-15","","null","","images/semantic_sequence/exploring_nature_semantic/exploring_nature_semantic_8.png","null","",""
"","","","","","image-button-response","111","557633","0.0-14.0-1.0-1.7","77EAAFE50DDB4B858F8BC3FF4BB9F7C7","77EAAFE50DDB4B858F8BC3FF4BB9F7C7","e7f54b54-ba25-4c29-a0f2-af5f8fd22409","9076ac92-be42-43a2-9634-8b67c7fe93a7","{""num_scrambled_semantic"":""8"",""num_scrambled_causal"":""4"",""num_scrambled_schematic"":""4"",""participantId"":""77EAAFE50DDB4B858F8BC3FF4BB9F7C7"",""assignmentId"":""e7f54b54-ba25-4c29-a0f2-af5f8fd22409"",""projectId"":""9076ac92-be42-43a2-9634-8b67c7fe93a7""}","https://test12345.live/?num_scrambled_semantic=8&num_scrambled_causal=4&num_scrambled_schematic=4&participantId=77EAAFE50DDB4B858F8BC3FF4BB9F7C7&assignmentId=e7f54b54-ba25-4c29-a0f2-af5f8fd22409&projectId=9076ac92-be42-43a2-9634-8b67c7fe93a7","77EAAFE50DDB4B858F8BC3FF4BB9F7C7-2025-05-22-20-12-15","","1500","","images/semantic_sequence/exploring_nature_semantic/exploring_nature_semantic_8.png","0","",""
"","","","","","image-button-response","112","559439","0.0-14.0-1.0-2.7","77EAAFE50DDB4B858F8BC3FF4BB9F7C7","77EAAFE50DDB4B858F8BC3FF4BB9F7C7","e7f54b54-ba25-4c29-a0f2-af5f8fd22409","9076ac92-be42-43a2-9634-8b67c7fe93a7","{""num_scrambled_semantic"":""8"",""num_scrambled_causal"":""4"",""num_scrambled_schematic"":""4"",""participantId"":""77EAAFE50DDB4B858F8BC3FF4BB9F7C7"",""assignmentId"":""e7f54b54-ba25-4c29-a0f2-af5f8fd22409"",""projectId"":""9076ac92-be42-43a2-9634-8b67c7fe93a7""}","https://test12345.live/?num_scrambled_semantic=8&num_scrambled_causal=4&num_scrambled_schematic=4&participantId=77EAAFE50DDB4B858F8BC3FF4BB9F7C7&assignmentId=e7f54b54-ba25-4c29-a0f2-af5f8fd22409&projectId=9076ac92-be42-43a2-9634-8b67c7fe93a7","77EAAFE50DDB4B858F8BC3FF4BB9F7C7-2025-05-22-20-12-15","","null","","[]","null","",""
"","","","","","image-button-response","113","563940","0.0-14.0-1.0-0.8","77EAAFE50DDB4B858F8BC3FF4BB9F7C7","77EAAFE50DDB4B858F8BC3FF4BB9F7C7","e7f54b54-ba25-4c29-a0f2-af5f8fd22409","9076ac92-be42-43a2-9634-8b67c7fe93a7","{""num_scrambled_semantic"":""8"",""num_scrambled_causal"":""4"",""num_scrambled_schematic"":""4"",""participantId"":""77EAAFE50DDB4B858F8BC3FF4BB9F7C7"",""assignmentId"":""e7f54b54-ba25-4c29-a0f2-af5f8fd22409"",""projectId"":""9076ac92-be42-43a2-9634-8b67c7fe93a7""}","https://test12345.live/?num_scrambled_semantic=8&num_scrambled_causal=4&num_scrambled_schematic=4&participantId=77EAAFE50DDB4B858F8BC3FF4BB9F7C7&assignmentId=e7f54b54-ba25-4c29-a0f2-af5f8fd22409&projectId=9076ac92-be42-43a2-9634-8b67c7fe93a7","77EAAFE50DDB4B858F8BC3FF4BB9F7C7-2025-05-22-20-12-15","","null","","images/semantic_sequence/exploring_nature_semantic/exploring_nature_semantic_9.png","null","",""
