"success","timeout","failed_images","failed_audio","failed_video","trial_type","trial_index","time_elapsed","internal_node_id","subject","subject_id","study_id","session_id","urlvar","current_url","audio_id","view_history","rt","device_id","stimulus","response","estimated_stimulus_onset","seq_name"
"true","false","[]","[]","[]","preload","0","2685","0.0-0.0","79D31F59DA52464CA72D9D2C41156385","79D31F59DA52464CA72D9D2C41156385","b0de1555-d2be-4e6c-b389-7cac0daa9b8b","a9f3d40c-5730-405c-b25e-1034c4c56f3f","{""num_scrambled_semantic"":""8"",""num_scrambled_causal"":""4"",""num_scrambled_schematic"":""4"",""participantId"":""79D31F59DA52464CA72D9D2C41156385"",""assignmentId"":""b0de1555-d2be-4e6c-b389-7cac0daa9b8b"",""projectId"":""a9f3d40c-5730-405c-b25e-1034c4c56f3f""}","https://test12345.live/?num_scrambled_semantic=8&num_scrambled_causal=4&num_scrambled_schematic=4&participantId=79D31F59DA52464CA72D9D2C41156385&assignmentId=b0de1555-d2be-4e6c-b389-7cac0daa9b8b&projectId=a9f3d40c-5730-405c-b25e-1034c4c56f3f","79D31F59DA52464CA72D9D2C41156385-2025-08-07-19-02-10","","","","","","",""
"","","","","","instructions","1","19691","0.0-1.0","79D31F59DA52464CA72D9D2C41156385","79D31F59DA52464CA72D9D2C41156385","b0de1555-d2be-4e6c-b389-7cac0daa9b8b","a9f3d40c-5730-405c-b25e-1034c4c56f3f","{""num_scrambled_semantic"":""8"",""num_scrambled_causal"":""4"",""num_scrambled_schematic"":""4"",""participantId"":""79D31F59DA52464CA72D9D2C41156385"",""assignmentId"":""b0de1555-d2be-4e6c-b389-7cac0daa9b8b"",""projectId"":""a9f3d40c-5730-405c-b25e-1034c4c56f3f""}","https://test12345.live/?num_scrambled_semantic=8&num_scrambled_causal=4&num_scrambled_schematic=4&participantId=79D31F59DA52464CA72D9D2C41156385&assignmentId=b0de1555-d2be-4e6c-b389-7cac0daa9b8b&projectId=a9f3d40c-5730-405c-b25e-1034c4c56f3f","79D31F59DA52464CA72D9D2C41156385-2025-08-07-19-02-10","[{""page_index"":0,""viewing_time"":17005}]","17006","","","","",""
"","","","","","instructions","2","25783","0.0-2.0","79D31F59DA52464CA72D9D2C41156385","79D31F59DA52464CA72D9D2C41156385","b0de1555-d2be-4e6c-b389-7cac0daa9b8b","a9f3d40c-5730-405c-b25e-1034c4c56f3f","{""num_scrambled_semantic"":""8"",""num_scrambled_causal"":""4"",""num_scrambled_schematic"":""4"",""participantId"":""79D31F59DA52464CA72D9D2C41156385"",""assignmentId"":""b0de1555-d2be-4e6c-b389-7cac0daa9b8b"",""projectId"":""a9f3d40c-5730-405c-b25e-1034c4c56f3f""}","https://test12345.live/?num_scrambled_semantic=8&num_scrambled_causal=4&num_scrambled_schematic=4&participantId=79D31F59DA52464CA72D9D2C41156385&assignmentId=b0de1555-d2be-4e6c-b389-7cac0daa9b8b&projectId=a9f3d40c-5730-405c-b25e-1034c4c56f3f","79D31F59DA52464CA72D9D2C41156385-2025-08-07-19-02-10","[{""page_index"":0,""viewing_time"":6091}]","6091","","","","",""
"true","","","","","fullscreen","3","28291","0.0-3.0","79D31F59DA52464CA72D9D2C41156385","79D31F59DA52464CA72D9D2C41156385","b0de1555-d2be-4e6c-b389-7cac0daa9b8b","a9f3d40c-5730-405c-b25e-1034c4c56f3f","{""num_scrambled_semantic"":""8"",""num_scrambled_causal"":""4"",""num_scrambled_schematic"":""4"",""participantId"":""79D31F59DA52464CA72D9D2C41156385"",""assignmentId"":""b0de1555-d2be-4e6c-b389-7cac0daa9b8b"",""projectId"":""a9f3d40c-5730-405c-b25e-1034c4c56f3f""}","https://test12345.live/?num_scrambled_semantic=8&num_scrambled_causal=4&num_scrambled_schematic=4&participantId=79D31F59DA52464CA72D9D2C41156385&assignmentId=b0de1555-d2be-4e6c-b389-7cac0daa9b8b&projectId=a9f3d40c-5730-405c-b25e-1034c4c56f3f","79D31F59DA52464CA72D9D2C41156385-2025-08-07-19-02-10","","1506","","","","",""
"","","","","","initialize-microphone","4","38471","0.0-4.0-0.0","79D31F59DA52464CA72D9D2C41156385","79D31F59DA52464CA72D9D2C41156385","b0de1555-d2be-4e6c-b389-7cac0daa9b8b","a9f3d40c-5730-405c-b25e-1034c4c56f3f","{""num_scrambled_semantic"":""8"",""num_scrambled_causal"":""4"",""num_scrambled_schematic"":""4"",""participantId"":""79D31F59DA52464CA72D9D2C41156385"",""assignmentId"":""b0de1555-d2be-4e6c-b389-7cac0daa9b8b"",""projectId"":""a9f3d40c-5730-405c-b25e-1034c4c56f3f""}","https://test12345.live/?num_scrambled_semantic=8&num_scrambled_causal=4&num_scrambled_schematic=4&participantId=79D31F59DA52464CA72D9D2C41156385&assignmentId=b0de1555-d2be-4e6c-b389-7cac0daa9b8b&projectId=a9f3d40c-5730-405c-b25e-1034c4c56f3f","79D31F59DA52464CA72D9D2C41156385-2025-08-07-19-02-10","","","32306e5d037d7202ab8fa5a2405fdf24dd6f88fb126e1ac48dd323f7f89799f2","","","",""
"","","","","","html-audio-response","5","53473","0.0-4.0-1.0","79D31F59DA52464CA72D9D2C41156385","79D31F59DA52464CA72D9D2C41156385","b0de1555-d2be-4e6c-b389-7cac0daa9b8b","a9f3d40c-5730-405c-b25e-1034c4c56f3f","{""num_scrambled_semantic"":""8"",""num_scrambled_causal"":""4"",""num_scrambled_schematic"":""4"",""participantId"":""79D31F59DA52464CA72D9D2C41156385"",""assignmentId"":""b0de1555-d2be-4e6c-b389-7cac0daa9b8b"",""projectId"":""a9f3d40c-5730-405c-b25e-1034c4c56f3f""}","https://test12345.live/?num_scrambled_semantic=8&num_scrambled_causal=4&num_scrambled_schematic=4&participantId=79D31F59DA52464CA72D9D2C41156385&assignmentId=b0de1555-d2be-4e6c-b389-7cac0daa9b8b&projectId=a9f3d40c-5730-405c-b25e-1034c4c56f3f","79D31F59DA52464CA72D9D2C41156385-2025-08-07-19-02-10","","7375","","<span style=""color: red; font-size: 24px""> NOW RECORDING</span>
        <p>Please test Microphone</p>","","3",""
"","","","","","html-button-response","6","55242","0.0-4.0-2.0","79D31F59DA52464CA72D9D2C41156385","79D31F59DA52464CA72D9D2C41156385","b0de1555-d2be-4e6c-b389-7cac0daa9b8b","a9f3d40c-5730-405c-b25e-1034c4c56f3f","{""num_scrambled_semantic"":""8"",""num_scrambled_causal"":""4"",""num_scrambled_schematic"":""4"",""participantId"":""79D31F59DA52464CA72D9D2C41156385"",""assignmentId"":""b0de1555-d2be-4e6c-b389-7cac0daa9b8b"",""projectId"":""a9f3d40c-5730-405c-b25e-1034c4c56f3f""}","https://test12345.live/?num_scrambled_semantic=8&num_scrambled_causal=4&num_scrambled_schematic=4&participantId=79D31F59DA52464CA72D9D2C41156385&assignmentId=b0de1555-d2be-4e6c-b389-7cac0daa9b8b&projectId=a9f3d40c-5730-405c-b25e-1034c4c56f3f","79D31F59DA52464CA72D9D2C41156385-2025-08-07-19-02-10","","1768","","<p style=""font-size:48px; color:red;"">Is Microphone OK?</p>","1","",""
"","","","","","instructions","7","77099","0.0-5.0","79D31F59DA52464CA72D9D2C41156385","79D31F59DA52464CA72D9D2C41156385","b0de1555-d2be-4e6c-b389-7cac0daa9b8b","a9f3d40c-5730-405c-b25e-1034c4c56f3f","{""num_scrambled_semantic"":""8"",""num_scrambled_causal"":""4"",""num_scrambled_schematic"":""4"",""participantId"":""79D31F59DA52464CA72D9D2C41156385"",""assignmentId"":""b0de1555-d2be-4e6c-b389-7cac0daa9b8b"",""projectId"":""a9f3d40c-5730-405c-b25e-1034c4c56f3f""}","https://test12345.live/?num_scrambled_semantic=8&num_scrambled_causal=4&num_scrambled_schematic=4&participantId=79D31F59DA52464CA72D9D2C41156385&assignmentId=b0de1555-d2be-4e6c-b389-7cac0daa9b8b&projectId=a9f3d40c-5730-405c-b25e-1034c4c56f3f","79D31F59DA52464CA72D9D2C41156385-2025-08-07-19-02-10","[{""page_index"":0,""viewing_time"":10369},{""page_index"":1,""viewing_time"":11488}]","21856","","","","",""
"","","","","","image-button-response","8","83105","0.0-6.0-0.0","79D31F59DA52464CA72D9D2C41156385","79D31F59DA52464CA72D9D2C41156385","b0de1555-d2be-4e6c-b389-7cac0daa9b8b","a9f3d40c-5730-405c-b25e-1034c4c56f3f","{""num_scrambled_semantic"":""8"",""num_scrambled_causal"":""4"",""num_scrambled_schematic"":""4"",""participantId"":""79D31F59DA52464CA72D9D2C41156385"",""assignmentId"":""b0de1555-d2be-4e6c-b389-7cac0daa9b8b"",""projectId"":""a9f3d40c-5730-405c-b25e-1034c4c56f3f""}","https://test12345.live/?num_scrambled_semantic=8&num_scrambled_causal=4&num_scrambled_schematic=4&participantId=79D31F59DA52464CA72D9D2C41156385&assignmentId=b0de1555-d2be-4e6c-b389-7cac0daa9b8b&projectId=a9f3d40c-5730-405c-b25e-1034c4c56f3f","79D31F59DA52464CA72D9D2C41156385-2025-08-07-19-02-10","","null","","images/instructions/movie_0.png","null","",""
"","","","","","image-button-response","9","87617","0.0-6.0-1.0-0.0","79D31F59DA52464CA72D9D2C41156385","79D31F59DA52464CA72D9D2C41156385","b0de1555-d2be-4e6c-b389-7cac0daa9b8b","a9f3d40c-5730-405c-b25e-1034c4c56f3f","{""num_scrambled_semantic"":""8"",""num_scrambled_causal"":""4"",""num_scrambled_schematic"":""4"",""participantId"":""79D31F59DA52464CA72D9D2C41156385"",""assignmentId"":""b0de1555-d2be-4e6c-b389-7cac0daa9b8b"",""projectId"":""a9f3d40c-5730-405c-b25e-1034c4c56f3f""}","https://test12345.live/?num_scrambled_semantic=8&num_scrambled_causal=4&num_scrambled_schematic=4&participantId=79D31F59DA52464CA72D9D2C41156385&assignmentId=b0de1555-d2be-4e6c-b389-7cac0daa9b8b&projectId=a9f3d40c-5730-405c-b25e-1034c4c56f3f","79D31F59DA52464CA72D9D2C41156385-2025-08-07-19-02-10","","null","","images/instructions/movie_1.png","null","",""
"","","","","","image-button-response","10","91149","0.0-6.0-1.0-1.0","79D31F59DA52464CA72D9D2C41156385","79D31F59DA52464CA72D9D2C41156385","b0de1555-d2be-4e6c-b389-7cac0daa9b8b","a9f3d40c-5730-405c-b25e-1034c4c56f3f","{""num_scrambled_semantic"":""8"",""num_scrambled_causal"":""4"",""num_scrambled_schematic"":""4"",""participantId"":""79D31F59DA52464CA72D9D2C41156385"",""assignmentId"":""b0de1555-d2be-4e6c-b389-7cac0daa9b8b"",""projectId"":""a9f3d40c-5730-405c-b25e-1034c4c56f3f""}","https://test12345.live/?num_scrambled_semantic=8&num_scrambled_causal=4&num_scrambled_schematic=4&participantId=79D31F59DA52464CA72D9D2C41156385&assignmentId=b0de1555-d2be-4e6c-b389-7cac0daa9b8b&projectId=a9f3d40c-5730-405c-b25e-1034c4c56f3f","79D31F59DA52464CA72D9D2C41156385-2025-08-07-19-02-10","","3531","","images/instructions/movie_1.png","0","",""
"","","","","","image-button-response","11","92960","0.0-6.0-1.0-2.0","79D31F59DA52464CA72D9D2C41156385","79D31F59DA52464CA72D9D2C41156385","b0de1555-d2be-4e6c-b389-7cac0daa9b8b","a9f3d40c-5730-405c-b25e-1034c4c56f3f","{""num_scrambled_semantic"":""8"",""num_scrambled_causal"":""4"",""num_scrambled_schematic"":""4"",""participantId"":""79D31F59DA52464CA72D9D2C41156385"",""assignmentId"":""b0de1555-d2be-4e6c-b389-7cac0daa9b8b"",""projectId"":""a9f3d40c-5730-405c-b25e-1034c4c56f3f""}","https://test12345.live/?num_scrambled_semantic=8&num_scrambled_causal=4&num_scrambled_schematic=4&participantId=79D31F59DA52464CA72D9D2C41156385&assignmentId=b0de1555-d2be-4e6c-b389-7cac0daa9b8b&projectId=a9f3d40c-5730-405c-b25e-1034c4c56f3f","79D31F59DA52464CA72D9D2C41156385-2025-08-07-19-02-10","","null","","[]","null","",""
"","","","","","image-button-response","12","97463","0.0-6.0-1.0-0.1","79D31F59DA52464CA72D9D2C41156385","79D31F59DA52464CA72D9D2C41156385","b0de1555-d2be-4e6c-b389-7cac0daa9b8b","a9f3d40c-5730-405c-b25e-1034c4c56f3f","{""num_scrambled_semantic"":""8"",""num_scrambled_causal"":""4"",""num_scrambled_schematic"":""4"",""participantId"":""79D31F59DA52464CA72D9D2C41156385"",""assignmentId"":""b0de1555-d2be-4e6c-b389-7cac0daa9b8b"",""projectId"":""a9f3d40c-5730-405c-b25e-1034c4c56f3f""}","https://test12345.live/?num_scrambled_semantic=8&num_scrambled_causal=4&num_scrambled_schematic=4&participantId=79D31F59DA52464CA72D9D2C41156385&assignmentId=b0de1555-d2be-4e6c-b389-7cac0daa9b8b&projectId=a9f3d40c-5730-405c-b25e-1034c4c56f3f","79D31F59DA52464CA72D9D2C41156385-2025-08-07-19-02-10","","null","","images/instructions/movie_2.png","null","",""
"","","","","","image-button-response","13","100330","0.0-6.0-1.0-1.1","79D31F59DA52464CA72D9D2C41156385","79D31F59DA52464CA72D9D2C41156385","b0de1555-d2be-4e6c-b389-7cac0daa9b8b","a9f3d40c-5730-405c-b25e-1034c4c56f3f","{""num_scrambled_semantic"":""8"",""num_scrambled_causal"":""4"",""num_scrambled_schematic"":""4"",""participantId"":""79D31F59DA52464CA72D9D2C41156385"",""assignmentId"":""b0de1555-d2be-4e6c-b389-7cac0daa9b8b"",""projectId"":""a9f3d40c-5730-405c-b25e-1034c4c56f3f""}","https://test12345.live/?num_scrambled_semantic=8&num_scrambled_causal=4&num_scrambled_schematic=4&participantId=79D31F59DA52464CA72D9D2C41156385&assignmentId=b0de1555-d2be-4e6c-b389-7cac0daa9b8b&projectId=a9f3d40c-5730-405c-b25e-1034c4c56f3f","79D31F59DA52464CA72D9D2C41156385-2025-08-07-19-02-10","","2867","","images/instructions/movie_2.png","0","",""
"","","","","","image-button-response","14","102136","0.0-6.0-1.0-2.1","79D31F59DA52464CA72D9D2C41156385","79D31F59DA52464CA72D9D2C41156385","b0de1555-d2be-4e6c-b389-7cac0daa9b8b","a9f3d40c-5730-405c-b25e-1034c4c56f3f","{""num_scrambled_semantic"":""8"",""num_scrambled_causal"":""4"",""num_scrambled_schematic"":""4"",""participantId"":""79D31F59DA52464CA72D9D2C41156385"",""assignmentId"":""b0de1555-d2be-4e6c-b389-7cac0daa9b8b"",""projectId"":""a9f3d40c-5730-405c-b25e-1034c4c56f3f""}","https://test12345.live/?num_scrambled_semantic=8&num_scrambled_causal=4&num_scrambled_schematic=4&participantId=79D31F59DA52464CA72D9D2C41156385&assignmentId=b0de1555-d2be-4e6c-b389-7cac0daa9b8b&projectId=a9f3d40c-5730-405c-b25e-1034c4c56f3f","79D31F59DA52464CA72D9D2C41156385-2025-08-07-19-02-10","","null","","[]","null","",""
"","","","","","image-button-response","15","106637","0.0-6.0-1.0-0.2","79D31F59DA52464CA72D9D2C41156385","79D31F59DA52464CA72D9D2C41156385","b0de1555-d2be-4e6c-b389-7cac0daa9b8b","a9f3d40c-5730-405c-b25e-1034c4c56f3f","{""num_scrambled_semantic"":""8"",""num_scrambled_causal"":""4"",""num_scrambled_schematic"":""4"",""participantId"":""79D31F59DA52464CA72D9D2C41156385"",""assignmentId"":""b0de1555-d2be-4e6c-b389-7cac0daa9b8b"",""projectId"":""a9f3d40c-5730-405c-b25e-1034c4c56f3f""}","https://test12345.live/?num_scrambled_semantic=8&num_scrambled_causal=4&num_scrambled_schematic=4&participantId=79D31F59DA52464CA72D9D2C41156385&assignmentId=b0de1555-d2be-4e6c-b389-7cac0daa9b8b&projectId=a9f3d40c-5730-405c-b25e-1034c4c56f3f","79D31F59DA52464CA72D9D2C41156385-2025-08-07-19-02-10","","null","","images/instructions/movie_3.png","null","",""
"","","","","","image-button-response","16","107874","0.0-6.0-1.0-1.2","79D31F59DA52464CA72D9D2C41156385","79D31F59DA52464CA72D9D2C41156385","b0de1555-d2be-4e6c-b389-7cac0daa9b8b","a9f3d40c-5730-405c-b25e-1034c4c56f3f","{""num_scrambled_semantic"":""8"",""num_scrambled_causal"":""4"",""num_scrambled_schematic"":""4"",""participantId"":""79D31F59DA52464CA72D9D2C41156385"",""assignmentId"":""b0de1555-d2be-4e6c-b389-7cac0daa9b8b"",""projectId"":""a9f3d40c-5730-405c-b25e-1034c4c56f3f""}","https://test12345.live/?num_scrambled_semantic=8&num_scrambled_causal=4&num_scrambled_schematic=4&participantId=79D31F59DA52464CA72D9D2C41156385&assignmentId=b0de1555-d2be-4e6c-b389-7cac0daa9b8b&projectId=a9f3d40c-5730-405c-b25e-1034c4c56f3f","79D31F59DA52464CA72D9D2C41156385-2025-08-07-19-02-10","","1235","","images/instructions/movie_3.png","0","",""
"","","","","","image-button-response","17","109683","0.0-6.0-1.0-2.2","79D31F59DA52464CA72D9D2C41156385","79D31F59DA52464CA72D9D2C41156385","b0de1555-d2be-4e6c-b389-7cac0daa9b8b","a9f3d40c-5730-405c-b25e-1034c4c56f3f","{""num_scrambled_semantic"":""8"",""num_scrambled_causal"":""4"",""num_scrambled_schematic"":""4"",""participantId"":""79D31F59DA52464CA72D9D2C41156385"",""assignmentId"":""b0de1555-d2be-4e6c-b389-7cac0daa9b8b"",""projectId"":""a9f3d40c-5730-405c-b25e-1034c4c56f3f""}","https://test12345.live/?num_scrambled_semantic=8&num_scrambled_causal=4&num_scrambled_schematic=4&participantId=79D31F59DA52464CA72D9D2C41156385&assignmentId=b0de1555-d2be-4e6c-b389-7cac0daa9b8b&projectId=a9f3d40c-5730-405c-b25e-1034c4c56f3f","79D31F59DA52464CA72D9D2C41156385-2025-08-07-19-02-10","","null","","[]","null","",""
"","","","","","image-button-response","18","114194","0.0-6.0-1.0-0.3","79D31F59DA52464CA72D9D2C41156385","79D31F59DA52464CA72D9D2C41156385","b0de1555-d2be-4e6c-b389-7cac0daa9b8b","a9f3d40c-5730-405c-b25e-1034c4c56f3f","{""num_scrambled_semantic"":""8"",""num_scrambled_causal"":""4"",""num_scrambled_schematic"":""4"",""participantId"":""79D31F59DA52464CA72D9D2C41156385"",""assignmentId"":""b0de1555-d2be-4e6c-b389-7cac0daa9b8b"",""projectId"":""a9f3d40c-5730-405c-b25e-1034c4c56f3f""}","https://test12345.live/?num_scrambled_semantic=8&num_scrambled_causal=4&num_scrambled_schematic=4&participantId=79D31F59DA52464CA72D9D2C41156385&assignmentId=b0de1555-d2be-4e6c-b389-7cac0daa9b8b&projectId=a9f3d40c-5730-405c-b25e-1034c4c56f3f","79D31F59DA52464CA72D9D2C41156385-2025-08-07-19-02-10","","null","","images/instructions/movie_4.png","null","",""
"","","","","","image-button-response","19","116584","0.0-6.0-1.0-1.3","79D31F59DA52464CA72D9D2C41156385","79D31F59DA52464CA72D9D2C41156385","b0de1555-d2be-4e6c-b389-7cac0daa9b8b","a9f3d40c-5730-405c-b25e-1034c4c56f3f","{""num_scrambled_semantic"":""8"",""num_scrambled_causal"":""4"",""num_scrambled_schematic"":""4"",""participantId"":""79D31F59DA52464CA72D9D2C41156385"",""assignmentId"":""b0de1555-d2be-4e6c-b389-7cac0daa9b8b"",""projectId"":""a9f3d40c-5730-405c-b25e-1034c4c56f3f""}","https://test12345.live/?num_scrambled_semantic=8&num_scrambled_causal=4&num_scrambled_schematic=4&participantId=79D31F59DA52464CA72D9D2C41156385&assignmentId=b0de1555-d2be-4e6c-b389-7cac0daa9b8b&projectId=a9f3d40c-5730-405c-b25e-1034c4c56f3f","79D31F59DA52464CA72D9D2C41156385-2025-08-07-19-02-10","","2390","","images/instructions/movie_4.png","0","",""
"","","","","","image-button-response","20","118400","0.0-6.0-1.0-2.3","79D31F59DA52464CA72D9D2C41156385","79D31F59DA52464CA72D9D2C41156385","b0de1555-d2be-4e6c-b389-7cac0daa9b8b","a9f3d40c-5730-405c-b25e-1034c4c56f3f","{""num_scrambled_semantic"":""8"",""num_scrambled_causal"":""4"",""num_scrambled_schematic"":""4"",""participantId"":""79D31F59DA52464CA72D9D2C41156385"",""assignmentId"":""b0de1555-d2be-4e6c-b389-7cac0daa9b8b"",""projectId"":""a9f3d40c-5730-405c-b25e-1034c4c56f3f""}","https://test12345.live/?num_scrambled_semantic=8&num_scrambled_causal=4&num_scrambled_schematic=4&participantId=79D31F59DA52464CA72D9D2C41156385&assignmentId=b0de1555-d2be-4e6c-b389-7cac0daa9b8b&projectId=a9f3d40c-5730-405c-b25e-1034c4c56f3f","79D31F59DA52464CA72D9D2C41156385-2025-08-07-19-02-10","","null","","[]","null","",""
"","","","","","instructions","21","127543","0.0-7.0","79D31F59DA52464CA72D9D2C41156385","79D31F59DA52464CA72D9D2C41156385","b0de1555-d2be-4e6c-b389-7cac0daa9b8b","a9f3d40c-5730-405c-b25e-1034c4c56f3f","{""num_scrambled_semantic"":""8"",""num_scrambled_causal"":""4"",""num_scrambled_schematic"":""4"",""participantId"":""79D31F59DA52464CA72D9D2C41156385"",""assignmentId"":""b0de1555-d2be-4e6c-b389-7cac0daa9b8b"",""projectId"":""a9f3d40c-5730-405c-b25e-1034c4c56f3f""}","https://test12345.live/?num_scrambled_semantic=8&num_scrambled_causal=4&num_scrambled_schematic=4&participantId=79D31F59DA52464CA72D9D2C41156385&assignmentId=b0de1555-d2be-4e6c-b389-7cac0daa9b8b&projectId=a9f3d40c-5730-405c-b25e-1034c4c56f3f","79D31F59DA52464CA72D9D2C41156385-2025-08-07-19-02-10","[{""page_index"":0,""viewing_time"":7489},{""page_index"":1,""viewing_time"":1654}]","9143","","","","",""
"","","","","","html-audio-response","22","162149","0.0-8.0","79D31F59DA52464CA72D9D2C41156385","79D31F59DA52464CA72D9D2C41156385","b0de1555-d2be-4e6c-b389-7cac0daa9b8b","a9f3d40c-5730-405c-b25e-1034c4c56f3f","{""num_scrambled_semantic"":""8"",""num_scrambled_causal"":""4"",""num_scrambled_schematic"":""4"",""participantId"":""79D31F59DA52464CA72D9D2C41156385"",""assignmentId"":""b0de1555-d2be-4e6c-b389-7cac0daa9b8b"",""projectId"":""a9f3d40c-5730-405c-b25e-1034c4c56f3f""}","https://test12345.live/?num_scrambled_semantic=8&num_scrambled_causal=4&num_scrambled_schematic=4&participantId=79D31F59DA52464CA72D9D2C41156385&assignmentId=b0de1555-d2be-4e6c-b389-7cac0daa9b8b&projectId=a9f3d40c-5730-405c-b25e-1034c4c56f3f","79D31F59DA52464CA72D9D2C41156385-2025-08-07-19-02-10","","15483","","[""<span style=\""color: red; font-size: 24px\""> NOW RECORDING</span><p>Please say out loud all the images you saw, as many as you can remember. The images can be said in any order.</p>""]","","1",""
"","","","","","instructions","23","163534","0.0-9.0","79D31F59DA52464CA72D9D2C41156385","79D31F59DA52464CA72D9D2C41156385","b0de1555-d2be-4e6c-b389-7cac0daa9b8b","a9f3d40c-5730-405c-b25e-1034c4c56f3f","{""num_scrambled_semantic"":""8"",""num_scrambled_causal"":""4"",""num_scrambled_schematic"":""4"",""participantId"":""79D31F59DA52464CA72D9D2C41156385"",""assignmentId"":""b0de1555-d2be-4e6c-b389-7cac0daa9b8b"",""projectId"":""a9f3d40c-5730-405c-b25e-1034c4c56f3f""}","https://test12345.live/?num_scrambled_semantic=8&num_scrambled_causal=4&num_scrambled_schematic=4&participantId=79D31F59DA52464CA72D9D2C41156385&assignmentId=b0de1555-d2be-4e6c-b389-7cac0daa9b8b&projectId=a9f3d40c-5730-405c-b25e-1034c4c56f3f","79D31F59DA52464CA72D9D2C41156385-2025-08-07-19-02-10","[{""page_index"":0,""viewing_time"":1383}]","1383","","","","",""
"","","","","","image-button-response","24","169540","0.0-10.0-0.0","79D31F59DA52464CA72D9D2C41156385","79D31F59DA52464CA72D9D2C41156385","b0de1555-d2be-4e6c-b389-7cac0daa9b8b","a9f3d40c-5730-405c-b25e-1034c4c56f3f","{""num_scrambled_semantic"":""8"",""num_scrambled_causal"":""4"",""num_scrambled_schematic"":""4"",""participantId"":""79D31F59DA52464CA72D9D2C41156385"",""assignmentId"":""b0de1555-d2be-4e6c-b389-7cac0daa9b8b"",""projectId"":""a9f3d40c-5730-405c-b25e-1034c4c56f3f""}","https://test12345.live/?num_scrambled_semantic=8&num_scrambled_causal=4&num_scrambled_schematic=4&participantId=79D31F59DA52464CA72D9D2C41156385&assignmentId=b0de1555-d2be-4e6c-b389-7cac0daa9b8b&projectId=a9f3d40c-5730-405c-b25e-1034c4c56f3f","79D31F59DA52464CA72D9D2C41156385-2025-08-07-19-02-10","","null","","images/causal_sequence/package_causal/package_causal_0.png","null","",""
"","","","","","image-button-response","25","174042","0.0-10.0-1.0-0.0","79D31F59DA52464CA72D9D2C41156385","79D31F59DA52464CA72D9D2C41156385","b0de1555-d2be-4e6c-b389-7cac0daa9b8b","a9f3d40c-5730-405c-b25e-1034c4c56f3f","{""num_scrambled_semantic"":""8"",""num_scrambled_causal"":""4"",""num_scrambled_schematic"":""4"",""participantId"":""79D31F59DA52464CA72D9D2C41156385"",""assignmentId"":""b0de1555-d2be-4e6c-b389-7cac0daa9b8b"",""projectId"":""a9f3d40c-5730-405c-b25e-1034c4c56f3f""}","https://test12345.live/?num_scrambled_semantic=8&num_scrambled_causal=4&num_scrambled_schematic=4&participantId=79D31F59DA52464CA72D9D2C41156385&assignmentId=b0de1555-d2be-4e6c-b389-7cac0daa9b8b&projectId=a9f3d40c-5730-405c-b25e-1034c4c56f3f","79D31F59DA52464CA72D9D2C41156385-2025-08-07-19-02-10","","null","","images/causal_sequence/package_causal/package_causal_1.png","null","",""
"","","","","","image-button-response","26","176677","0.0-10.0-1.0-1.0","79D31F59DA52464CA72D9D2C41156385","79D31F59DA52464CA72D9D2C41156385","b0de1555-d2be-4e6c-b389-7cac0daa9b8b","a9f3d40c-5730-405c-b25e-1034c4c56f3f","{""num_scrambled_semantic"":""8"",""num_scrambled_causal"":""4"",""num_scrambled_schematic"":""4"",""participantId"":""79D31F59DA52464CA72D9D2C41156385"",""assignmentId"":""b0de1555-d2be-4e6c-b389-7cac0daa9b8b"",""projectId"":""a9f3d40c-5730-405c-b25e-1034c4c56f3f""}","https://test12345.live/?num_scrambled_semantic=8&num_scrambled_causal=4&num_scrambled_schematic=4&participantId=79D31F59DA52464CA72D9D2C41156385&assignmentId=b0de1555-d2be-4e6c-b389-7cac0daa9b8b&projectId=a9f3d40c-5730-405c-b25e-1034c4c56f3f","79D31F59DA52464CA72D9D2C41156385-2025-08-07-19-02-10","","2635","","images/causal_sequence/package_causal/package_causal_1.png","0","",""
"","","","","","image-button-response","27","178478","0.0-10.0-1.0-2.0","79D31F59DA52464CA72D9D2C41156385","79D31F59DA52464CA72D9D2C41156385","b0de1555-d2be-4e6c-b389-7cac0daa9b8b","a9f3d40c-5730-405c-b25e-1034c4c56f3f","{""num_scrambled_semantic"":""8"",""num_scrambled_causal"":""4"",""num_scrambled_schematic"":""4"",""participantId"":""79D31F59DA52464CA72D9D2C41156385"",""assignmentId"":""b0de1555-d2be-4e6c-b389-7cac0daa9b8b"",""projectId"":""a9f3d40c-5730-405c-b25e-1034c4c56f3f""}","https://test12345.live/?num_scrambled_semantic=8&num_scrambled_causal=4&num_scrambled_schematic=4&participantId=79D31F59DA52464CA72D9D2C41156385&assignmentId=b0de1555-d2be-4e6c-b389-7cac0daa9b8b&projectId=a9f3d40c-5730-405c-b25e-1034c4c56f3f","79D31F59DA52464CA72D9D2C41156385-2025-08-07-19-02-10","","null","","[]","null","",""
"","","","","","image-button-response","28","182979","0.0-10.0-1.0-0.1","79D31F59DA52464CA72D9D2C41156385","79D31F59DA52464CA72D9D2C41156385","b0de1555-d2be-4e6c-b389-7cac0daa9b8b","a9f3d40c-5730-405c-b25e-1034c4c56f3f","{""num_scrambled_semantic"":""8"",""num_scrambled_causal"":""4"",""num_scrambled_schematic"":""4"",""participantId"":""79D31F59DA52464CA72D9D2C41156385"",""assignmentId"":""b0de1555-d2be-4e6c-b389-7cac0daa9b8b"",""projectId"":""a9f3d40c-5730-405c-b25e-1034c4c56f3f""}","https://test12345.live/?num_scrambled_semantic=8&num_scrambled_causal=4&num_scrambled_schematic=4&participantId=79D31F59DA52464CA72D9D2C41156385&assignmentId=b0de1555-d2be-4e6c-b389-7cac0daa9b8b&projectId=a9f3d40c-5730-405c-b25e-1034c4c56f3f","79D31F59DA52464CA72D9D2C41156385-2025-08-07-19-02-10","","null","","images/causal_sequence/package_causal/package_causal_2.png","null","",""
"","","","","","image-button-response","29","183840","0.0-10.0-1.0-1.1","79D31F59DA52464CA72D9D2C41156385","79D31F59DA52464CA72D9D2C41156385","b0de1555-d2be-4e6c-b389-7cac0daa9b8b","a9f3d40c-5730-405c-b25e-1034c4c56f3f","{""num_scrambled_semantic"":""8"",""num_scrambled_causal"":""4"",""num_scrambled_schematic"":""4"",""participantId"":""79D31F59DA52464CA72D9D2C41156385"",""assignmentId"":""b0de1555-d2be-4e6c-b389-7cac0daa9b8b"",""projectId"":""a9f3d40c-5730-405c-b25e-1034c4c56f3f""}","https://test12345.live/?num_scrambled_semantic=8&num_scrambled_causal=4&num_scrambled_schematic=4&participantId=79D31F59DA52464CA72D9D2C41156385&assignmentId=b0de1555-d2be-4e6c-b389-7cac0daa9b8b&projectId=a9f3d40c-5730-405c-b25e-1034c4c56f3f","79D31F59DA52464CA72D9D2C41156385-2025-08-07-19-02-10","","860","","images/causal_sequence/package_causal/package_causal_2.png","0","",""
"","","","","","image-button-response","30","185645","0.0-10.0-1.0-2.1","79D31F59DA52464CA72D9D2C41156385","79D31F59DA52464CA72D9D2C41156385","b0de1555-d2be-4e6c-b389-7cac0daa9b8b","a9f3d40c-5730-405c-b25e-1034c4c56f3f","{""num_scrambled_semantic"":""8"",""num_scrambled_causal"":""4"",""num_scrambled_schematic"":""4"",""participantId"":""79D31F59DA52464CA72D9D2C41156385"",""assignmentId"":""b0de1555-d2be-4e6c-b389-7cac0daa9b8b"",""projectId"":""a9f3d40c-5730-405c-b25e-1034c4c56f3f""}","https://test12345.live/?num_scrambled_semantic=8&num_scrambled_causal=4&num_scrambled_schematic=4&participantId=79D31F59DA52464CA72D9D2C41156385&assignmentId=b0de1555-d2be-4e6c-b389-7cac0daa9b8b&projectId=a9f3d40c-5730-405c-b25e-1034c4c56f3f","79D31F59DA52464CA72D9D2C41156385-2025-08-07-19-02-10","","null","","[]","null","",""
"","","","","","image-button-response","31","190151","0.0-10.0-1.0-0.2","79D31F59DA52464CA72D9D2C41156385","79D31F59DA52464CA72D9D2C41156385","b0de1555-d2be-4e6c-b389-7cac0daa9b8b","a9f3d40c-5730-405c-b25e-1034c4c56f3f","{""num_scrambled_semantic"":""8"",""num_scrambled_causal"":""4"",""num_scrambled_schematic"":""4"",""participantId"":""79D31F59DA52464CA72D9D2C41156385"",""assignmentId"":""b0de1555-d2be-4e6c-b389-7cac0daa9b8b"",""projectId"":""a9f3d40c-5730-405c-b25e-1034c4c56f3f""}","https://test12345.live/?num_scrambled_semantic=8&num_scrambled_causal=4&num_scrambled_schematic=4&participantId=79D31F59DA52464CA72D9D2C41156385&assignmentId=b0de1555-d2be-4e6c-b389-7cac0daa9b8b&projectId=a9f3d40c-5730-405c-b25e-1034c4c56f3f","79D31F59DA52464CA72D9D2C41156385-2025-08-07-19-02-10","","null","","images/causal_sequence/package_causal/package_causal_3.png","null","",""
"","","","","","image-button-response","32","192399","0.0-10.0-1.0-1.2","79D31F59DA52464CA72D9D2C41156385","79D31F59DA52464CA72D9D2C41156385","b0de1555-d2be-4e6c-b389-7cac0daa9b8b","a9f3d40c-5730-405c-b25e-1034c4c56f3f","{""num_scrambled_semantic"":""8"",""num_scrambled_causal"":""4"",""num_scrambled_schematic"":""4"",""participantId"":""79D31F59DA52464CA72D9D2C41156385"",""assignmentId"":""b0de1555-d2be-4e6c-b389-7cac0daa9b8b"",""projectId"":""a9f3d40c-5730-405c-b25e-1034c4c56f3f""}","https://test12345.live/?num_scrambled_semantic=8&num_scrambled_causal=4&num_scrambled_schematic=4&participantId=79D31F59DA52464CA72D9D2C41156385&assignmentId=b0de1555-d2be-4e6c-b389-7cac0daa9b8b&projectId=a9f3d40c-5730-405c-b25e-1034c4c56f3f","79D31F59DA52464CA72D9D2C41156385-2025-08-07-19-02-10","","2247","","images/causal_sequence/package_causal/package_causal_3.png","0","",""
"","","","","","image-button-response","33","194200","0.0-10.0-1.0-2.2","79D31F59DA52464CA72D9D2C41156385","79D31F59DA52464CA72D9D2C41156385","b0de1555-d2be-4e6c-b389-7cac0daa9b8b","a9f3d40c-5730-405c-b25e-1034c4c56f3f","{""num_scrambled_semantic"":""8"",""num_scrambled_causal"":""4"",""num_scrambled_schematic"":""4"",""participantId"":""79D31F59DA52464CA72D9D2C41156385"",""assignmentId"":""b0de1555-d2be-4e6c-b389-7cac0daa9b8b"",""projectId"":""a9f3d40c-5730-405c-b25e-1034c4c56f3f""}","https://test12345.live/?num_scrambled_semantic=8&num_scrambled_causal=4&num_scrambled_schematic=4&participantId=79D31F59DA52464CA72D9D2C41156385&assignmentId=b0de1555-d2be-4e6c-b389-7cac0daa9b8b&projectId=a9f3d40c-5730-405c-b25e-1034c4c56f3f","79D31F59DA52464CA72D9D2C41156385-2025-08-07-19-02-10","","null","","[]","null","",""
"","","","","","image-button-response","34","198712","0.0-10.0-1.0-0.3","79D31F59DA52464CA72D9D2C41156385","79D31F59DA52464CA72D9D2C41156385","b0de1555-d2be-4e6c-b389-7cac0daa9b8b","a9f3d40c-5730-405c-b25e-1034c4c56f3f","{""num_scrambled_semantic"":""8"",""num_scrambled_causal"":""4"",""num_scrambled_schematic"":""4"",""participantId"":""79D31F59DA52464CA72D9D2C41156385"",""assignmentId"":""b0de1555-d2be-4e6c-b389-7cac0daa9b8b"",""projectId"":""a9f3d40c-5730-405c-b25e-1034c4c56f3f""}","https://test12345.live/?num_scrambled_semantic=8&num_scrambled_causal=4&num_scrambled_schematic=4&participantId=79D31F59DA52464CA72D9D2C41156385&assignmentId=b0de1555-d2be-4e6c-b389-7cac0daa9b8b&projectId=a9f3d40c-5730-405c-b25e-1034c4c56f3f","79D31F59DA52464CA72D9D2C41156385-2025-08-07-19-02-10","","null","","images/causal_sequence/package_causal/package_causal_4.png","null","",""
"","","","","","image-button-response","35","199813","0.0-10.0-1.0-1.3","79D31F59DA52464CA72D9D2C41156385","79D31F59DA52464CA72D9D2C41156385","b0de1555-d2be-4e6c-b389-7cac0daa9b8b","a9f3d40c-5730-405c-b25e-1034c4c56f3f","{""num_scrambled_semantic"":""8"",""num_scrambled_causal"":""4"",""num_scrambled_schematic"":""4"",""participantId"":""79D31F59DA52464CA72D9D2C41156385"",""assignmentId"":""b0de1555-d2be-4e6c-b389-7cac0daa9b8b"",""projectId"":""a9f3d40c-5730-405c-b25e-1034c4c56f3f""}","https://test12345.live/?num_scrambled_semantic=8&num_scrambled_causal=4&num_scrambled_schematic=4&participantId=79D31F59DA52464CA72D9D2C41156385&assignmentId=b0de1555-d2be-4e6c-b389-7cac0daa9b8b&projectId=a9f3d40c-5730-405c-b25e-1034c4c56f3f","79D31F59DA52464CA72D9D2C41156385-2025-08-07-19-02-10","","1100","","images/causal_sequence/package_causal/package_causal_4.png","0","",""
"","","","","","image-button-response","36","201622","0.0-10.0-1.0-2.3","79D31F59DA52464CA72D9D2C41156385","79D31F59DA52464CA72D9D2C41156385","b0de1555-d2be-4e6c-b389-7cac0daa9b8b","a9f3d40c-5730-405c-b25e-1034c4c56f3f","{""num_scrambled_semantic"":""8"",""num_scrambled_causal"":""4"",""num_scrambled_schematic"":""4"",""participantId"":""79D31F59DA52464CA72D9D2C41156385"",""assignmentId"":""b0de1555-d2be-4e6c-b389-7cac0daa9b8b"",""projectId"":""a9f3d40c-5730-405c-b25e-1034c4c56f3f""}","https://test12345.live/?num_scrambled_semantic=8&num_scrambled_causal=4&num_scrambled_schematic=4&participantId=79D31F59DA52464CA72D9D2C41156385&assignmentId=b0de1555-d2be-4e6c-b389-7cac0daa9b8b&projectId=a9f3d40c-5730-405c-b25e-1034c4c56f3f","79D31F59DA52464CA72D9D2C41156385-2025-08-07-19-02-10","","null","","[]","null","",""
"","","","","","image-button-response","37","206137","0.0-10.0-1.0-0.4","79D31F59DA52464CA72D9D2C41156385","79D31F59DA52464CA72D9D2C41156385","b0de1555-d2be-4e6c-b389-7cac0daa9b8b","a9f3d40c-5730-405c-b25e-1034c4c56f3f","{""num_scrambled_semantic"":""8"",""num_scrambled_causal"":""4"",""num_scrambled_schematic"":""4"",""participantId"":""79D31F59DA52464CA72D9D2C41156385"",""assignmentId"":""b0de1555-d2be-4e6c-b389-7cac0daa9b8b"",""projectId"":""a9f3d40c-5730-405c-b25e-1034c4c56f3f""}","https://test12345.live/?num_scrambled_semantic=8&num_scrambled_causal=4&num_scrambled_schematic=4&participantId=79D31F59DA52464CA72D9D2C41156385&assignmentId=b0de1555-d2be-4e6c-b389-7cac0daa9b8b&projectId=a9f3d40c-5730-405c-b25e-1034c4c56f3f","79D31F59DA52464CA72D9D2C41156385-2025-08-07-19-02-10","","null","","images/causal_sequence/package_causal/package_causal_5.png","null","",""
"","","","","","image-button-response","38","207520","0.0-10.0-1.0-1.4","79D31F59DA52464CA72D9D2C41156385","79D31F59DA52464CA72D9D2C41156385","b0de1555-d2be-4e6c-b389-7cac0daa9b8b","a9f3d40c-5730-405c-b25e-1034c4c56f3f","{""num_scrambled_semantic"":""8"",""num_scrambled_causal"":""4"",""num_scrambled_schematic"":""4"",""participantId"":""79D31F59DA52464CA72D9D2C41156385"",""assignmentId"":""b0de1555-d2be-4e6c-b389-7cac0daa9b8b"",""projectId"":""a9f3d40c-5730-405c-b25e-1034c4c56f3f""}","https://test12345.live/?num_scrambled_semantic=8&num_scrambled_causal=4&num_scrambled_schematic=4&participantId=79D31F59DA52464CA72D9D2C41156385&assignmentId=b0de1555-d2be-4e6c-b389-7cac0daa9b8b&projectId=a9f3d40c-5730-405c-b25e-1034c4c56f3f","79D31F59DA52464CA72D9D2C41156385-2025-08-07-19-02-10","","1382","","images/causal_sequence/package_causal/package_causal_5.png","0","",""
"","","","","","image-button-response","39","209324","0.0-10.0-1.0-2.4","79D31F59DA52464CA72D9D2C41156385","79D31F59DA52464CA72D9D2C41156385","b0de1555-d2be-4e6c-b389-7cac0daa9b8b","a9f3d40c-5730-405c-b25e-1034c4c56f3f","{""num_scrambled_semantic"":""8"",""num_scrambled_causal"":""4"",""num_scrambled_schematic"":""4"",""participantId"":""79D31F59DA52464CA72D9D2C41156385"",""assignmentId"":""b0de1555-d2be-4e6c-b389-7cac0daa9b8b"",""projectId"":""a9f3d40c-5730-405c-b25e-1034c4c56f3f""}","https://test12345.live/?num_scrambled_semantic=8&num_scrambled_causal=4&num_scrambled_schematic=4&participantId=79D31F59DA52464CA72D9D2C41156385&assignmentId=b0de1555-d2be-4e6c-b389-7cac0daa9b8b&projectId=a9f3d40c-5730-405c-b25e-1034c4c56f3f","79D31F59DA52464CA72D9D2C41156385-2025-08-07-19-02-10","","null","","[]","null","",""
"","","","","","image-button-response","40","213825","0.0-10.0-1.0-0.5","79D31F59DA52464CA72D9D2C41156385","79D31F59DA52464CA72D9D2C41156385","b0de1555-d2be-4e6c-b389-7cac0daa9b8b","a9f3d40c-5730-405c-b25e-1034c4c56f3f","{""num_scrambled_semantic"":""8"",""num_scrambled_causal"":""4"",""num_scrambled_schematic"":""4"",""participantId"":""79D31F59DA52464CA72D9D2C41156385"",""assignmentId"":""b0de1555-d2be-4e6c-b389-7cac0daa9b8b"",""projectId"":""a9f3d40c-5730-405c-b25e-1034c4c56f3f""}","https://test12345.live/?num_scrambled_semantic=8&num_scrambled_causal=4&num_scrambled_schematic=4&participantId=79D31F59DA52464CA72D9D2C41156385&assignmentId=b0de1555-d2be-4e6c-b389-7cac0daa9b8b&projectId=a9f3d40c-5730-405c-b25e-1034c4c56f3f","79D31F59DA52464CA72D9D2C41156385-2025-08-07-19-02-10","","null","","images/causal_sequence/package_causal/package_causal_6.png","null","",""
"","","","","","image-button-response","41","215272","0.0-10.0-1.0-1.5","79D31F59DA52464CA72D9D2C41156385","79D31F59DA52464CA72D9D2C41156385","b0de1555-d2be-4e6c-b389-7cac0daa9b8b","a9f3d40c-5730-405c-b25e-1034c4c56f3f","{""num_scrambled_semantic"":""8"",""num_scrambled_causal"":""4"",""num_scrambled_schematic"":""4"",""participantId"":""79D31F59DA52464CA72D9D2C41156385"",""assignmentId"":""b0de1555-d2be-4e6c-b389-7cac0daa9b8b"",""projectId"":""a9f3d40c-5730-405c-b25e-1034c4c56f3f""}","https://test12345.live/?num_scrambled_semantic=8&num_scrambled_causal=4&num_scrambled_schematic=4&participantId=79D31F59DA52464CA72D9D2C41156385&assignmentId=b0de1555-d2be-4e6c-b389-7cac0daa9b8b&projectId=a9f3d40c-5730-405c-b25e-1034c4c56f3f","79D31F59DA52464CA72D9D2C41156385-2025-08-07-19-02-10","","1446","","images/causal_sequence/package_causal/package_causal_6.png","0","",""
"","","","","","image-button-response","42","217087","0.0-10.0-1.0-2.5","79D31F59DA52464CA72D9D2C41156385","79D31F59DA52464CA72D9D2C41156385","b0de1555-d2be-4e6c-b389-7cac0daa9b8b","a9f3d40c-5730-405c-b25e-1034c4c56f3f","{""num_scrambled_semantic"":""8"",""num_scrambled_causal"":""4"",""num_scrambled_schematic"":""4"",""participantId"":""79D31F59DA52464CA72D9D2C41156385"",""assignmentId"":""b0de1555-d2be-4e6c-b389-7cac0daa9b8b"",""projectId"":""a9f3d40c-5730-405c-b25e-1034c4c56f3f""}","https://test12345.live/?num_scrambled_semantic=8&num_scrambled_causal=4&num_scrambled_schematic=4&participantId=79D31F59DA52464CA72D9D2C41156385&assignmentId=b0de1555-d2be-4e6c-b389-7cac0daa9b8b&projectId=a9f3d40c-5730-405c-b25e-1034c4c56f3f","79D31F59DA52464CA72D9D2C41156385-2025-08-07-19-02-10","","null","","[]","null","",""
"","","","","","image-button-response","43","221594","0.0-10.0-1.0-0.6","79D31F59DA52464CA72D9D2C41156385","79D31F59DA52464CA72D9D2C41156385","b0de1555-d2be-4e6c-b389-7cac0daa9b8b","a9f3d40c-5730-405c-b25e-1034c4c56f3f","{""num_scrambled_semantic"":""8"",""num_scrambled_causal"":""4"",""num_scrambled_schematic"":""4"",""participantId"":""79D31F59DA52464CA72D9D2C41156385"",""assignmentId"":""b0de1555-d2be-4e6c-b389-7cac0daa9b8b"",""projectId"":""a9f3d40c-5730-405c-b25e-1034c4c56f3f""}","https://test12345.live/?num_scrambled_semantic=8&num_scrambled_causal=4&num_scrambled_schematic=4&participantId=79D31F59DA52464CA72D9D2C41156385&assignmentId=b0de1555-d2be-4e6c-b389-7cac0daa9b8b&projectId=a9f3d40c-5730-405c-b25e-1034c4c56f3f","79D31F59DA52464CA72D9D2C41156385-2025-08-07-19-02-10","","null","","images/causal_sequence/package_causal/package_causal_7.png","null","",""
"","","","","","image-button-response","44","223281","0.0-10.0-1.0-1.6","79D31F59DA52464CA72D9D2C41156385","79D31F59DA52464CA72D9D2C41156385","b0de1555-d2be-4e6c-b389-7cac0daa9b8b","a9f3d40c-5730-405c-b25e-1034c4c56f3f","{""num_scrambled_semantic"":""8"",""num_scrambled_causal"":""4"",""num_scrambled_schematic"":""4"",""participantId"":""79D31F59DA52464CA72D9D2C41156385"",""assignmentId"":""b0de1555-d2be-4e6c-b389-7cac0daa9b8b"",""projectId"":""a9f3d40c-5730-405c-b25e-1034c4c56f3f""}","https://test12345.live/?num_scrambled_semantic=8&num_scrambled_causal=4&num_scrambled_schematic=4&participantId=79D31F59DA52464CA72D9D2C41156385&assignmentId=b0de1555-d2be-4e6c-b389-7cac0daa9b8b&projectId=a9f3d40c-5730-405c-b25e-1034c4c56f3f","79D31F59DA52464CA72D9D2C41156385-2025-08-07-19-02-10","","1686","","images/causal_sequence/package_causal/package_causal_7.png","0","",""
"","","","","","image-button-response","45","225082","0.0-10.0-1.0-2.6","79D31F59DA52464CA72D9D2C41156385","79D31F59DA52464CA72D9D2C41156385","b0de1555-d2be-4e6c-b389-7cac0daa9b8b","a9f3d40c-5730-405c-b25e-1034c4c56f3f","{""num_scrambled_semantic"":""8"",""num_scrambled_causal"":""4"",""num_scrambled_schematic"":""4"",""participantId"":""79D31F59DA52464CA72D9D2C41156385"",""assignmentId"":""b0de1555-d2be-4e6c-b389-7cac0daa9b8b"",""projectId"":""a9f3d40c-5730-405c-b25e-1034c4c56f3f""}","https://test12345.live/?num_scrambled_semantic=8&num_scrambled_causal=4&num_scrambled_schematic=4&participantId=79D31F59DA52464CA72D9D2C41156385&assignmentId=b0de1555-d2be-4e6c-b389-7cac0daa9b8b&projectId=a9f3d40c-5730-405c-b25e-1034c4c56f3f","79D31F59DA52464CA72D9D2C41156385-2025-08-07-19-02-10","","null","","[]","null","",""
"","","","","","image-button-response","46","229593","0.0-10.0-1.0-0.7","79D31F59DA52464CA72D9D2C41156385","79D31F59DA52464CA72D9D2C41156385","b0de1555-d2be-4e6c-b389-7cac0daa9b8b","a9f3d40c-5730-405c-b25e-1034c4c56f3f","{""num_scrambled_semantic"":""8"",""num_scrambled_causal"":""4"",""num_scrambled_schematic"":""4"",""participantId"":""79D31F59DA52464CA72D9D2C41156385"",""assignmentId"":""b0de1555-d2be-4e6c-b389-7cac0daa9b8b"",""projectId"":""a9f3d40c-5730-405c-b25e-1034c4c56f3f""}","https://test12345.live/?num_scrambled_semantic=8&num_scrambled_causal=4&num_scrambled_schematic=4&participantId=79D31F59DA52464CA72D9D2C41156385&assignmentId=b0de1555-d2be-4e6c-b389-7cac0daa9b8b&projectId=a9f3d40c-5730-405c-b25e-1034c4c56f3f","79D31F59DA52464CA72D9D2C41156385-2025-08-07-19-02-10","","null","","images/causal_sequence/package_causal/package_causal_8.png","null","",""
"","","","","","image-button-response","47","231523","0.0-10.0-1.0-1.7","79D31F59DA52464CA72D9D2C41156385","79D31F59DA52464CA72D9D2C41156385","b0de1555-d2be-4e6c-b389-7cac0daa9b8b","a9f3d40c-5730-405c-b25e-1034c4c56f3f","{""num_scrambled_semantic"":""8"",""num_scrambled_causal"":""4"",""num_scrambled_schematic"":""4"",""participantId"":""79D31F59DA52464CA72D9D2C41156385"",""assignmentId"":""b0de1555-d2be-4e6c-b389-7cac0daa9b8b"",""projectId"":""a9f3d40c-5730-405c-b25e-1034c4c56f3f""}","https://test12345.live/?num_scrambled_semantic=8&num_scrambled_causal=4&num_scrambled_schematic=4&participantId=79D31F59DA52464CA72D9D2C41156385&assignmentId=b0de1555-d2be-4e6c-b389-7cac0daa9b8b&projectId=a9f3d40c-5730-405c-b25e-1034c4c56f3f","79D31F59DA52464CA72D9D2C41156385-2025-08-07-19-02-10","","1929","","images/causal_sequence/package_causal/package_causal_8.png","0","",""
"","","","","","image-button-response","48","233338","0.0-10.0-1.0-2.7","79D31F59DA52464CA72D9D2C41156385","79D31F59DA52464CA72D9D2C41156385","b0de1555-d2be-4e6c-b389-7cac0daa9b8b","a9f3d40c-5730-405c-b25e-1034c4c56f3f","{""num_scrambled_semantic"":""8"",""num_scrambled_causal"":""4"",""num_scrambled_schematic"":""4"",""participantId"":""79D31F59DA52464CA72D9D2C41156385"",""assignmentId"":""b0de1555-d2be-4e6c-b389-7cac0daa9b8b"",""projectId"":""a9f3d40c-5730-405c-b25e-1034c4c56f3f""}","https://test12345.live/?num_scrambled_semantic=8&num_scrambled_causal=4&num_scrambled_schematic=4&participantId=79D31F59DA52464CA72D9D2C41156385&assignmentId=b0de1555-d2be-4e6c-b389-7cac0daa9b8b&projectId=a9f3d40c-5730-405c-b25e-1034c4c56f3f","79D31F59DA52464CA72D9D2C41156385-2025-08-07-19-02-10","","null","","[]","null","",""
"","","","","","image-button-response","49","237842","0.0-10.0-1.0-0.8","79D31F59DA52464CA72D9D2C41156385","79D31F59DA52464CA72D9D2C41156385","b0de1555-d2be-4e6c-b389-7cac0daa9b8b","a9f3d40c-5730-405c-b25e-1034c4c56f3f","{""num_scrambled_semantic"":""8"",""num_scrambled_causal"":""4"",""num_scrambled_schematic"":""4"",""participantId"":""79D31F59DA52464CA72D9D2C41156385"",""assignmentId"":""b0de1555-d2be-4e6c-b389-7cac0daa9b8b"",""projectId"":""a9f3d40c-5730-405c-b25e-1034c4c56f3f""}","https://test12345.live/?num_scrambled_semantic=8&num_scrambled_causal=4&num_scrambled_schematic=4&participantId=79D31F59DA52464CA72D9D2C41156385&assignmentId=b0de1555-d2be-4e6c-b389-7cac0daa9b8b&projectId=a9f3d40c-5730-405c-b25e-1034c4c56f3f","79D31F59DA52464CA72D9D2C41156385-2025-08-07-19-02-10","","null","","images/causal_sequence/package_causal/package_causal_9.png","null","",""
"","","","","","image-button-response","50","238825","0.0-10.0-1.0-1.8","79D31F59DA52464CA72D9D2C41156385","79D31F59DA52464CA72D9D2C41156385","b0de1555-d2be-4e6c-b389-7cac0daa9b8b","a9f3d40c-5730-405c-b25e-1034c4c56f3f","{""num_scrambled_semantic"":""8"",""num_scrambled_causal"":""4"",""num_scrambled_schematic"":""4"",""participantId"":""79D31F59DA52464CA72D9D2C41156385"",""assignmentId"":""b0de1555-d2be-4e6c-b389-7cac0daa9b8b"",""projectId"":""a9f3d40c-5730-405c-b25e-1034c4c56f3f""}","https://test12345.live/?num_scrambled_semantic=8&num_scrambled_causal=4&num_scrambled_schematic=4&participantId=79D31F59DA52464CA72D9D2C41156385&assignmentId=b0de1555-d2be-4e6c-b389-7cac0daa9b8b&projectId=a9f3d40c-5730-405c-b25e-1034c4c56f3f","79D31F59DA52464CA72D9D2C41156385-2025-08-07-19-02-10","","982","","images/causal_sequence/package_causal/package_causal_9.png","0","",""
"","","","","","image-button-response","51","240639","0.0-10.0-1.0-2.8","79D31F59DA52464CA72D9D2C41156385","79D31F59DA52464CA72D9D2C41156385","b0de1555-d2be-4e6c-b389-7cac0daa9b8b","a9f3d40c-5730-405c-b25e-1034c4c56f3f","{""num_scrambled_semantic"":""8"",""num_scrambled_causal"":""4"",""num_scrambled_schematic"":""4"",""participantId"":""79D31F59DA52464CA72D9D2C41156385"",""assignmentId"":""b0de1555-d2be-4e6c-b389-7cac0daa9b8b"",""projectId"":""a9f3d40c-5730-405c-b25e-1034c4c56f3f""}","https://test12345.live/?num_scrambled_semantic=8&num_scrambled_causal=4&num_scrambled_schematic=4&participantId=79D31F59DA52464CA72D9D2C41156385&assignmentId=b0de1555-d2be-4e6c-b389-7cac0daa9b8b&projectId=a9f3d40c-5730-405c-b25e-1034c4c56f3f","79D31F59DA52464CA72D9D2C41156385-2025-08-07-19-02-10","","null","","[]","null","",""
"","","","","","image-button-response","52","245151","0.0-10.0-1.0-0.9","79D31F59DA52464CA72D9D2C41156385","79D31F59DA52464CA72D9D2C41156385","b0de1555-d2be-4e6c-b389-7cac0daa9b8b","a9f3d40c-5730-405c-b25e-1034c4c56f3f","{""num_scrambled_semantic"":""8"",""num_scrambled_causal"":""4"",""num_scrambled_schematic"":""4"",""participantId"":""79D31F59DA52464CA72D9D2C41156385"",""assignmentId"":""b0de1555-d2be-4e6c-b389-7cac0daa9b8b"",""projectId"":""a9f3d40c-5730-405c-b25e-1034c4c56f3f""}","https://test12345.live/?num_scrambled_semantic=8&num_scrambled_causal=4&num_scrambled_schematic=4&participantId=79D31F59DA52464CA72D9D2C41156385&assignmentId=b0de1555-d2be-4e6c-b389-7cac0daa9b8b&projectId=a9f3d40c-5730-405c-b25e-1034c4c56f3f","79D31F59DA52464CA72D9D2C41156385-2025-08-07-19-02-10","","null","","images/causal_sequence/package_causal/package_causal_ten.png","null","",""
"","","","","","image-button-response","53","245790","0.0-10.0-1.0-1.9","79D31F59DA52464CA72D9D2C41156385","79D31F59DA52464CA72D9D2C41156385","b0de1555-d2be-4e6c-b389-7cac0daa9b8b","a9f3d40c-5730-405c-b25e-1034c4c56f3f","{""num_scrambled_semantic"":""8"",""num_scrambled_causal"":""4"",""num_scrambled_schematic"":""4"",""participantId"":""79D31F59DA52464CA72D9D2C41156385"",""assignmentId"":""b0de1555-d2be-4e6c-b389-7cac0daa9b8b"",""projectId"":""a9f3d40c-5730-405c-b25e-1034c4c56f3f""}","https://test12345.live/?num_scrambled_semantic=8&num_scrambled_causal=4&num_scrambled_schematic=4&participantId=79D31F59DA52464CA72D9D2C41156385&assignmentId=b0de1555-d2be-4e6c-b389-7cac0daa9b8b&projectId=a9f3d40c-5730-405c-b25e-1034c4c56f3f","79D31F59DA52464CA72D9D2C41156385-2025-08-07-19-02-10","","638","","images/causal_sequence/package_causal/package_causal_ten.png","0","",""
"","","","","","image-button-response","54","247602","0.0-10.0-1.0-2.9","79D31F59DA52464CA72D9D2C41156385","79D31F59DA52464CA72D9D2C41156385","b0de1555-d2be-4e6c-b389-7cac0daa9b8b","a9f3d40c-5730-405c-b25e-1034c4c56f3f","{""num_scrambled_semantic"":""8"",""num_scrambled_causal"":""4"",""num_scrambled_schematic"":""4"",""participantId"":""79D31F59DA52464CA72D9D2C41156385"",""assignmentId"":""b0de1555-d2be-4e6c-b389-7cac0daa9b8b"",""projectId"":""a9f3d40c-5730-405c-b25e-1034c4c56f3f""}","https://test12345.live/?num_scrambled_semantic=8&num_scrambled_causal=4&num_scrambled_schematic=4&participantId=79D31F59DA52464CA72D9D2C41156385&assignmentId=b0de1555-d2be-4e6c-b389-7cac0daa9b8b&projectId=a9f3d40c-5730-405c-b25e-1034c4c56f3f","79D31F59DA52464CA72D9D2C41156385-2025-08-07-19-02-10","","null","","[]","null","",""
"","","","","","html-audio-response","55","298900","0.0-11.0","79D31F59DA52464CA72D9D2C41156385","79D31F59DA52464CA72D9D2C41156385","b0de1555-d2be-4e6c-b389-7cac0daa9b8b","a9f3d40c-5730-405c-b25e-1034c4c56f3f","{""num_scrambled_semantic"":""8"",""num_scrambled_causal"":""4"",""num_scrambled_schematic"":""4"",""participantId"":""79D31F59DA52464CA72D9D2C41156385"",""assignmentId"":""b0de1555-d2be-4e6c-b389-7cac0daa9b8b"",""projectId"":""a9f3d40c-5730-405c-b25e-1034c4c56f3f""}","https://test12345.live/?num_scrambled_semantic=8&num_scrambled_causal=4&num_scrambled_schematic=4&participantId=79D31F59DA52464CA72D9D2C41156385&assignmentId=b0de1555-d2be-4e6c-b389-7cac0daa9b8b&projectId=a9f3d40c-5730-405c-b25e-1034c4c56f3f","79D31F59DA52464CA72D9D2C41156385-2025-08-07-19-02-10","","45055","","[""<span style=\""color: red; font-size: 24px\""> NOW RECORDING</span><p>Please say out loud all the images you saw, as many as you can remember. The images can be said in any order.</p>""]","","4","package_causal"
"","","","","","image-button-response","56","304916","0.0-12.0-0.0","79D31F59DA52464CA72D9D2C41156385","79D31F59DA52464CA72D9D2C41156385","b0de1555-d2be-4e6c-b389-7cac0daa9b8b","a9f3d40c-5730-405c-b25e-1034c4c56f3f","{""num_scrambled_semantic"":""8"",""num_scrambled_causal"":""4"",""num_scrambled_schematic"":""4"",""participantId"":""79D31F59DA52464CA72D9D2C41156385"",""assignmentId"":""b0de1555-d2be-4e6c-b389-7cac0daa9b8b"",""projectId"":""a9f3d40c-5730-405c-b25e-1034c4c56f3f""}","https://test12345.live/?num_scrambled_semantic=8&num_scrambled_causal=4&num_scrambled_schematic=4&participantId=79D31F59DA52464CA72D9D2C41156385&assignmentId=b0de1555-d2be-4e6c-b389-7cac0daa9b8b&projectId=a9f3d40c-5730-405c-b25e-1034c4c56f3f","79D31F59DA52464CA72D9D2C41156385-2025-08-07-19-02-10","","null","","images/causal_sequence/the_performance_causal/the_performance_causal_0.png","null","",""
"","","","","","image-button-response","57","309417","0.0-12.0-1.0-0.0","79D31F59DA52464CA72D9D2C41156385","79D31F59DA52464CA72D9D2C41156385","b0de1555-d2be-4e6c-b389-7cac0daa9b8b","a9f3d40c-5730-405c-b25e-1034c4c56f3f","{""num_scrambled_semantic"":""8"",""num_scrambled_causal"":""4"",""num_scrambled_schematic"":""4"",""participantId"":""79D31F59DA52464CA72D9D2C41156385"",""assignmentId"":""b0de1555-d2be-4e6c-b389-7cac0daa9b8b"",""projectId"":""a9f3d40c-5730-405c-b25e-1034c4c56f3f""}","https://test12345.live/?num_scrambled_semantic=8&num_scrambled_causal=4&num_scrambled_schematic=4&participantId=79D31F59DA52464CA72D9D2C41156385&assignmentId=b0de1555-d2be-4e6c-b389-7cac0daa9b8b&projectId=a9f3d40c-5730-405c-b25e-1034c4c56f3f","79D31F59DA52464CA72D9D2C41156385-2025-08-07-19-02-10","","null","","images/causal_sequence/the_performance_causal/the_performance_causal_1.png","null","",""
"","","","","","image-button-response","58","310505","0.0-12.0-1.0-1.0","79D31F59DA52464CA72D9D2C41156385","79D31F59DA52464CA72D9D2C41156385","b0de1555-d2be-4e6c-b389-7cac0daa9b8b","a9f3d40c-5730-405c-b25e-1034c4c56f3f","{""num_scrambled_semantic"":""8"",""num_scrambled_causal"":""4"",""num_scrambled_schematic"":""4"",""participantId"":""79D31F59DA52464CA72D9D2C41156385"",""assignmentId"":""b0de1555-d2be-4e6c-b389-7cac0daa9b8b"",""projectId"":""a9f3d40c-5730-405c-b25e-1034c4c56f3f""}","https://test12345.live/?num_scrambled_semantic=8&num_scrambled_causal=4&num_scrambled_schematic=4&participantId=79D31F59DA52464CA72D9D2C41156385&assignmentId=b0de1555-d2be-4e6c-b389-7cac0daa9b8b&projectId=a9f3d40c-5730-405c-b25e-1034c4c56f3f","79D31F59DA52464CA72D9D2C41156385-2025-08-07-19-02-10","","1087","","images/causal_sequence/the_performance_causal/the_performance_causal_1.png","0","",""
"","","","","","image-button-response","59","312307","0.0-12.0-1.0-2.0","79D31F59DA52464CA72D9D2C41156385","79D31F59DA52464CA72D9D2C41156385","b0de1555-d2be-4e6c-b389-7cac0daa9b8b","a9f3d40c-5730-405c-b25e-1034c4c56f3f","{""num_scrambled_semantic"":""8"",""num_scrambled_causal"":""4"",""num_scrambled_schematic"":""4"",""participantId"":""79D31F59DA52464CA72D9D2C41156385"",""assignmentId"":""b0de1555-d2be-4e6c-b389-7cac0daa9b8b"",""projectId"":""a9f3d40c-5730-405c-b25e-1034c4c56f3f""}","https://test12345.live/?num_scrambled_semantic=8&num_scrambled_causal=4&num_scrambled_schematic=4&participantId=79D31F59DA52464CA72D9D2C41156385&assignmentId=b0de1555-d2be-4e6c-b389-7cac0daa9b8b&projectId=a9f3d40c-5730-405c-b25e-1034c4c56f3f","79D31F59DA52464CA72D9D2C41156385-2025-08-07-19-02-10","","null","","[]","null","",""
"","","","","","image-button-response","60","316815","0.0-12.0-1.0-0.1","79D31F59DA52464CA72D9D2C41156385","79D31F59DA52464CA72D9D2C41156385","b0de1555-d2be-4e6c-b389-7cac0daa9b8b","a9f3d40c-5730-405c-b25e-1034c4c56f3f","{""num_scrambled_semantic"":""8"",""num_scrambled_causal"":""4"",""num_scrambled_schematic"":""4"",""participantId"":""79D31F59DA52464CA72D9D2C41156385"",""assignmentId"":""b0de1555-d2be-4e6c-b389-7cac0daa9b8b"",""projectId"":""a9f3d40c-5730-405c-b25e-1034c4c56f3f""}","https://test12345.live/?num_scrambled_semantic=8&num_scrambled_causal=4&num_scrambled_schematic=4&participantId=79D31F59DA52464CA72D9D2C41156385&assignmentId=b0de1555-d2be-4e6c-b389-7cac0daa9b8b&projectId=a9f3d40c-5730-405c-b25e-1034c4c56f3f","79D31F59DA52464CA72D9D2C41156385-2025-08-07-19-02-10","","null","","images/causal_sequence/the_performance_causal/the_performance_causal_9.png","null","",""
"","","","","","image-button-response","61","318145","0.0-12.0-1.0-1.1","79D31F59DA52464CA72D9D2C41156385","79D31F59DA52464CA72D9D2C41156385","b0de1555-d2be-4e6c-b389-7cac0daa9b8b","a9f3d40c-5730-405c-b25e-1034c4c56f3f","{""num_scrambled_semantic"":""8"",""num_scrambled_causal"":""4"",""num_scrambled_schematic"":""4"",""participantId"":""79D31F59DA52464CA72D9D2C41156385"",""assignmentId"":""b0de1555-d2be-4e6c-b389-7cac0daa9b8b"",""projectId"":""a9f3d40c-5730-405c-b25e-1034c4c56f3f""}","https://test12345.live/?num_scrambled_semantic=8&num_scrambled_causal=4&num_scrambled_schematic=4&participantId=79D31F59DA52464CA72D9D2C41156385&assignmentId=b0de1555-d2be-4e6c-b389-7cac0daa9b8b&projectId=a9f3d40c-5730-405c-b25e-1034c4c56f3f","79D31F59DA52464CA72D9D2C41156385-2025-08-07-19-02-10","","1330","","images/causal_sequence/the_performance_causal/the_performance_causal_9.png","0","",""
"","","","","","image-button-response","62","319947","0.0-12.0-1.0-2.1","79D31F59DA52464CA72D9D2C41156385","79D31F59DA52464CA72D9D2C41156385","b0de1555-d2be-4e6c-b389-7cac0daa9b8b","a9f3d40c-5730-405c-b25e-1034c4c56f3f","{""num_scrambled_semantic"":""8"",""num_scrambled_causal"":""4"",""num_scrambled_schematic"":""4"",""participantId"":""79D31F59DA52464CA72D9D2C41156385"",""assignmentId"":""b0de1555-d2be-4e6c-b389-7cac0daa9b8b"",""projectId"":""a9f3d40c-5730-405c-b25e-1034c4c56f3f""}","https://test12345.live/?num_scrambled_semantic=8&num_scrambled_causal=4&num_scrambled_schematic=4&participantId=79D31F59DA52464CA72D9D2C41156385&assignmentId=b0de1555-d2be-4e6c-b389-7cac0daa9b8b&projectId=a9f3d40c-5730-405c-b25e-1034c4c56f3f","79D31F59DA52464CA72D9D2C41156385-2025-08-07-19-02-10","","null","","[]","null","",""
"","","","","","image-button-response","63","324447","0.0-12.0-1.0-0.2","79D31F59DA52464CA72D9D2C41156385","79D31F59DA52464CA72D9D2C41156385","b0de1555-d2be-4e6c-b389-7cac0daa9b8b","a9f3d40c-5730-405c-b25e-1034c4c56f3f","{""num_scrambled_semantic"":""8"",""num_scrambled_causal"":""4"",""num_scrambled_schematic"":""4"",""participantId"":""79D31F59DA52464CA72D9D2C41156385"",""assignmentId"":""b0de1555-d2be-4e6c-b389-7cac0daa9b8b"",""projectId"":""a9f3d40c-5730-405c-b25e-1034c4c56f3f""}","https://test12345.live/?num_scrambled_semantic=8&num_scrambled_causal=4&num_scrambled_schematic=4&participantId=79D31F59DA52464CA72D9D2C41156385&assignmentId=b0de1555-d2be-4e6c-b389-7cac0daa9b8b&projectId=a9f3d40c-5730-405c-b25e-1034c4c56f3f","79D31F59DA52464CA72D9D2C41156385-2025-08-07-19-02-10","","null","","images/causal_sequence/the_performance_causal/the_performance_causal_5.png","null","",""
"","","","","","image-button-response","64","325300","0.0-12.0-1.0-1.2","79D31F59DA52464CA72D9D2C41156385","79D31F59DA52464CA72D9D2C41156385","b0de1555-d2be-4e6c-b389-7cac0daa9b8b","a9f3d40c-5730-405c-b25e-1034c4c56f3f","{""num_scrambled_semantic"":""8"",""num_scrambled_causal"":""4"",""num_scrambled_schematic"":""4"",""participantId"":""79D31F59DA52464CA72D9D2C41156385"",""assignmentId"":""b0de1555-d2be-4e6c-b389-7cac0daa9b8b"",""projectId"":""a9f3d40c-5730-405c-b25e-1034c4c56f3f""}","https://test12345.live/?num_scrambled_semantic=8&num_scrambled_causal=4&num_scrambled_schematic=4&participantId=79D31F59DA52464CA72D9D2C41156385&assignmentId=b0de1555-d2be-4e6c-b389-7cac0daa9b8b&projectId=a9f3d40c-5730-405c-b25e-1034c4c56f3f","79D31F59DA52464CA72D9D2C41156385-2025-08-07-19-02-10","","852","","images/causal_sequence/the_performance_causal/the_performance_causal_5.png","0","",""
"","","","","","image-button-response","65","327114","0.0-12.0-1.0-2.2","79D31F59DA52464CA72D9D2C41156385","79D31F59DA52464CA72D9D2C41156385","b0de1555-d2be-4e6c-b389-7cac0daa9b8b","a9f3d40c-5730-405c-b25e-1034c4c56f3f","{""num_scrambled_semantic"":""8"",""num_scrambled_causal"":""4"",""num_scrambled_schematic"":""4"",""participantId"":""79D31F59DA52464CA72D9D2C41156385"",""assignmentId"":""b0de1555-d2be-4e6c-b389-7cac0daa9b8b"",""projectId"":""a9f3d40c-5730-405c-b25e-1034c4c56f3f""}","https://test12345.live/?num_scrambled_semantic=8&num_scrambled_causal=4&num_scrambled_schematic=4&participantId=79D31F59DA52464CA72D9D2C41156385&assignmentId=b0de1555-d2be-4e6c-b389-7cac0daa9b8b&projectId=a9f3d40c-5730-405c-b25e-1034c4c56f3f","79D31F59DA52464CA72D9D2C41156385-2025-08-07-19-02-10","","null","","[]","null","",""
"","","","","","image-button-response","66","331622","0.0-12.0-1.0-0.3","79D31F59DA52464CA72D9D2C41156385","79D31F59DA52464CA72D9D2C41156385","b0de1555-d2be-4e6c-b389-7cac0daa9b8b","a9f3d40c-5730-405c-b25e-1034c4c56f3f","{""num_scrambled_semantic"":""8"",""num_scrambled_causal"":""4"",""num_scrambled_schematic"":""4"",""participantId"":""79D31F59DA52464CA72D9D2C41156385"",""assignmentId"":""b0de1555-d2be-4e6c-b389-7cac0daa9b8b"",""projectId"":""a9f3d40c-5730-405c-b25e-1034c4c56f3f""}","https://test12345.live/?num_scrambled_semantic=8&num_scrambled_causal=4&num_scrambled_schematic=4&participantId=79D31F59DA52464CA72D9D2C41156385&assignmentId=b0de1555-d2be-4e6c-b389-7cac0daa9b8b&projectId=a9f3d40c-5730-405c-b25e-1034c4c56f3f","79D31F59DA52464CA72D9D2C41156385-2025-08-07-19-02-10","","null","","images/causal_sequence/the_performance_causal/the_performance_causal_7.png","null","",""
"","","","","","image-button-response","67","333150","0.0-12.0-1.0-1.3","79D31F59DA52464CA72D9D2C41156385","79D31F59DA52464CA72D9D2C41156385","b0de1555-d2be-4e6c-b389-7cac0daa9b8b","a9f3d40c-5730-405c-b25e-1034c4c56f3f","{""num_scrambled_semantic"":""8"",""num_scrambled_causal"":""4"",""num_scrambled_schematic"":""4"",""participantId"":""79D31F59DA52464CA72D9D2C41156385"",""assignmentId"":""b0de1555-d2be-4e6c-b389-7cac0daa9b8b"",""projectId"":""a9f3d40c-5730-405c-b25e-1034c4c56f3f""}","https://test12345.live/?num_scrambled_semantic=8&num_scrambled_causal=4&num_scrambled_schematic=4&participantId=79D31F59DA52464CA72D9D2C41156385&assignmentId=b0de1555-d2be-4e6c-b389-7cac0daa9b8b&projectId=a9f3d40c-5730-405c-b25e-1034c4c56f3f","79D31F59DA52464CA72D9D2C41156385-2025-08-07-19-02-10","","1528","","images/causal_sequence/the_performance_causal/the_performance_causal_7.png","0","",""
"","","","","","image-button-response","68","334962","0.0-12.0-1.0-2.3","79D31F59DA52464CA72D9D2C41156385","79D31F59DA52464CA72D9D2C41156385","b0de1555-d2be-4e6c-b389-7cac0daa9b8b","a9f3d40c-5730-405c-b25e-1034c4c56f3f","{""num_scrambled_semantic"":""8"",""num_scrambled_causal"":""4"",""num_scrambled_schematic"":""4"",""participantId"":""79D31F59DA52464CA72D9D2C41156385"",""assignmentId"":""b0de1555-d2be-4e6c-b389-7cac0daa9b8b"",""projectId"":""a9f3d40c-5730-405c-b25e-1034c4c56f3f""}","https://test12345.live/?num_scrambled_semantic=8&num_scrambled_causal=4&num_scrambled_schematic=4&participantId=79D31F59DA52464CA72D9D2C41156385&assignmentId=b0de1555-d2be-4e6c-b389-7cac0daa9b8b&projectId=a9f3d40c-5730-405c-b25e-1034c4c56f3f","79D31F59DA52464CA72D9D2C41156385-2025-08-07-19-02-10","","null","","[]","null","",""
"","","","","","image-button-response","69","339470","0.0-12.0-1.0-0.4","79D31F59DA52464CA72D9D2C41156385","79D31F59DA52464CA72D9D2C41156385","b0de1555-d2be-4e6c-b389-7cac0daa9b8b","a9f3d40c-5730-405c-b25e-1034c4c56f3f","{""num_scrambled_semantic"":""8"",""num_scrambled_causal"":""4"",""num_scrambled_schematic"":""4"",""participantId"":""79D31F59DA52464CA72D9D2C41156385"",""assignmentId"":""b0de1555-d2be-4e6c-b389-7cac0daa9b8b"",""projectId"":""a9f3d40c-5730-405c-b25e-1034c4c56f3f""}","https://test12345.live/?num_scrambled_semantic=8&num_scrambled_causal=4&num_scrambled_schematic=4&participantId=79D31F59DA52464CA72D9D2C41156385&assignmentId=b0de1555-d2be-4e6c-b389-7cac0daa9b8b&projectId=a9f3d40c-5730-405c-b25e-1034c4c56f3f","79D31F59DA52464CA72D9D2C41156385-2025-08-07-19-02-10","","null","","images/causal_sequence/the_performance_causal/the_performance_causal_4.png","null","",""
"","","","","","image-button-response","70","340585","0.0-12.0-1.0-1.4","79D31F59DA52464CA72D9D2C41156385","79D31F59DA52464CA72D9D2C41156385","b0de1555-d2be-4e6c-b389-7cac0daa9b8b","a9f3d40c-5730-405c-b25e-1034c4c56f3f","{""num_scrambled_semantic"":""8"",""num_scrambled_causal"":""4"",""num_scrambled_schematic"":""4"",""participantId"":""79D31F59DA52464CA72D9D2C41156385"",""assignmentId"":""b0de1555-d2be-4e6c-b389-7cac0daa9b8b"",""projectId"":""a9f3d40c-5730-405c-b25e-1034c4c56f3f""}","https://test12345.live/?num_scrambled_semantic=8&num_scrambled_causal=4&num_scrambled_schematic=4&participantId=79D31F59DA52464CA72D9D2C41156385&assignmentId=b0de1555-d2be-4e6c-b389-7cac0daa9b8b&projectId=a9f3d40c-5730-405c-b25e-1034c4c56f3f","79D31F59DA52464CA72D9D2C41156385-2025-08-07-19-02-10","","1115","","images/causal_sequence/the_performance_causal/the_performance_causal_4.png","0","",""
"","","","","","image-button-response","71","342389","0.0-12.0-1.0-2.4","79D31F59DA52464CA72D9D2C41156385","79D31F59DA52464CA72D9D2C41156385","b0de1555-d2be-4e6c-b389-7cac0daa9b8b","a9f3d40c-5730-405c-b25e-1034c4c56f3f","{""num_scrambled_semantic"":""8"",""num_scrambled_causal"":""4"",""num_scrambled_schematic"":""4"",""participantId"":""79D31F59DA52464CA72D9D2C41156385"",""assignmentId"":""b0de1555-d2be-4e6c-b389-7cac0daa9b8b"",""projectId"":""a9f3d40c-5730-405c-b25e-1034c4c56f3f""}","https://test12345.live/?num_scrambled_semantic=8&num_scrambled_causal=4&num_scrambled_schematic=4&participantId=79D31F59DA52464CA72D9D2C41156385&assignmentId=b0de1555-d2be-4e6c-b389-7cac0daa9b8b&projectId=a9f3d40c-5730-405c-b25e-1034c4c56f3f","79D31F59DA52464CA72D9D2C41156385-2025-08-07-19-02-10","","null","","[]","null","",""
"","","","","","image-button-response","72","346903","0.0-12.0-1.0-0.5","79D31F59DA52464CA72D9D2C41156385","79D31F59DA52464CA72D9D2C41156385","b0de1555-d2be-4e6c-b389-7cac0daa9b8b","a9f3d40c-5730-405c-b25e-1034c4c56f3f","{""num_scrambled_semantic"":""8"",""num_scrambled_causal"":""4"",""num_scrambled_schematic"":""4"",""participantId"":""79D31F59DA52464CA72D9D2C41156385"",""assignmentId"":""b0de1555-d2be-4e6c-b389-7cac0daa9b8b"",""projectId"":""a9f3d40c-5730-405c-b25e-1034c4c56f3f""}","https://test12345.live/?num_scrambled_semantic=8&num_scrambled_causal=4&num_scrambled_schematic=4&participantId=79D31F59DA52464CA72D9D2C41156385&assignmentId=b0de1555-d2be-4e6c-b389-7cac0daa9b8b&projectId=a9f3d40c-5730-405c-b25e-1034c4c56f3f","79D31F59DA52464CA72D9D2C41156385-2025-08-07-19-02-10","","null","","images/causal_sequence/the_performance_causal/the_performance_causal_3.png","null","",""
"","","","","","image-button-response","73","347681","0.0-12.0-1.0-1.5","79D31F59DA52464CA72D9D2C41156385","79D31F59DA52464CA72D9D2C41156385","b0de1555-d2be-4e6c-b389-7cac0daa9b8b","a9f3d40c-5730-405c-b25e-1034c4c56f3f","{""num_scrambled_semantic"":""8"",""num_scrambled_causal"":""4"",""num_scrambled_schematic"":""4"",""participantId"":""79D31F59DA52464CA72D9D2C41156385"",""assignmentId"":""b0de1555-d2be-4e6c-b389-7cac0daa9b8b"",""projectId"":""a9f3d40c-5730-405c-b25e-1034c4c56f3f""}","https://test12345.live/?num_scrambled_semantic=8&num_scrambled_causal=4&num_scrambled_schematic=4&participantId=79D31F59DA52464CA72D9D2C41156385&assignmentId=b0de1555-d2be-4e6c-b389-7cac0daa9b8b&projectId=a9f3d40c-5730-405c-b25e-1034c4c56f3f","79D31F59DA52464CA72D9D2C41156385-2025-08-07-19-02-10","","778","","images/causal_sequence/the_performance_causal/the_performance_causal_3.png","0","",""
"","","","","","image-button-response","74","349486","0.0-12.0-1.0-2.5","79D31F59DA52464CA72D9D2C41156385","79D31F59DA52464CA72D9D2C41156385","b0de1555-d2be-4e6c-b389-7cac0daa9b8b","a9f3d40c-5730-405c-b25e-1034c4c56f3f","{""num_scrambled_semantic"":""8"",""num_scrambled_causal"":""4"",""num_scrambled_schematic"":""4"",""participantId"":""79D31F59DA52464CA72D9D2C41156385"",""assignmentId"":""b0de1555-d2be-4e6c-b389-7cac0daa9b8b"",""projectId"":""a9f3d40c-5730-405c-b25e-1034c4c56f3f""}","https://test12345.live/?num_scrambled_semantic=8&num_scrambled_causal=4&num_scrambled_schematic=4&participantId=79D31F59DA52464CA72D9D2C41156385&assignmentId=b0de1555-d2be-4e6c-b389-7cac0daa9b8b&projectId=a9f3d40c-5730-405c-b25e-1034c4c56f3f","79D31F59DA52464CA72D9D2C41156385-2025-08-07-19-02-10","","null","","[]","null","",""
"","","","","","image-button-response","75","353990","0.0-12.0-1.0-0.6","79D31F59DA52464CA72D9D2C41156385","79D31F59DA52464CA72D9D2C41156385","b0de1555-d2be-4e6c-b389-7cac0daa9b8b","a9f3d40c-5730-405c-b25e-1034c4c56f3f","{""num_scrambled_semantic"":""8"",""num_scrambled_causal"":""4"",""num_scrambled_schematic"":""4"",""participantId"":""79D31F59DA52464CA72D9D2C41156385"",""assignmentId"":""b0de1555-d2be-4e6c-b389-7cac0daa9b8b"",""projectId"":""a9f3d40c-5730-405c-b25e-1034c4c56f3f""}","https://test12345.live/?num_scrambled_semantic=8&num_scrambled_causal=4&num_scrambled_schematic=4&participantId=79D31F59DA52464CA72D9D2C41156385&assignmentId=b0de1555-d2be-4e6c-b389-7cac0daa9b8b&projectId=a9f3d40c-5730-405c-b25e-1034c4c56f3f","79D31F59DA52464CA72D9D2C41156385-2025-08-07-19-02-10","","null","","images/causal_sequence/the_performance_causal/the_performance_causal_6.png","null","",""
"","","","","","image-button-response","76","356134","0.0-12.0-1.0-1.6","79D31F59DA52464CA72D9D2C41156385","79D31F59DA52464CA72D9D2C41156385","b0de1555-d2be-4e6c-b389-7cac0daa9b8b","a9f3d40c-5730-405c-b25e-1034c4c56f3f","{""num_scrambled_semantic"":""8"",""num_scrambled_causal"":""4"",""num_scrambled_schematic"":""4"",""participantId"":""79D31F59DA52464CA72D9D2C41156385"",""assignmentId"":""b0de1555-d2be-4e6c-b389-7cac0daa9b8b"",""projectId"":""a9f3d40c-5730-405c-b25e-1034c4c56f3f""}","https://test12345.live/?num_scrambled_semantic=8&num_scrambled_causal=4&num_scrambled_schematic=4&participantId=79D31F59DA52464CA72D9D2C41156385&assignmentId=b0de1555-d2be-4e6c-b389-7cac0daa9b8b&projectId=a9f3d40c-5730-405c-b25e-1034c4c56f3f","79D31F59DA52464CA72D9D2C41156385-2025-08-07-19-02-10","","2144","","images/causal_sequence/the_performance_causal/the_performance_causal_6.png","0","",""
"","","","","","image-button-response","77","357938","0.0-12.0-1.0-2.6","79D31F59DA52464CA72D9D2C41156385","79D31F59DA52464CA72D9D2C41156385","b0de1555-d2be-4e6c-b389-7cac0daa9b8b","a9f3d40c-5730-405c-b25e-1034c4c56f3f","{""num_scrambled_semantic"":""8"",""num_scrambled_causal"":""4"",""num_scrambled_schematic"":""4"",""participantId"":""79D31F59DA52464CA72D9D2C41156385"",""assignmentId"":""b0de1555-d2be-4e6c-b389-7cac0daa9b8b"",""projectId"":""a9f3d40c-5730-405c-b25e-1034c4c56f3f""}","https://test12345.live/?num_scrambled_semantic=8&num_scrambled_causal=4&num_scrambled_schematic=4&participantId=79D31F59DA52464CA72D9D2C41156385&assignmentId=b0de1555-d2be-4e6c-b389-7cac0daa9b8b&projectId=a9f3d40c-5730-405c-b25e-1034c4c56f3f","79D31F59DA52464CA72D9D2C41156385-2025-08-07-19-02-10","","null","","[]","null","",""
"","","","","","image-button-response","78","362443","0.0-12.0-1.0-0.7","79D31F59DA52464CA72D9D2C41156385","79D31F59DA52464CA72D9D2C41156385","b0de1555-d2be-4e6c-b389-7cac0daa9b8b","a9f3d40c-5730-405c-b25e-1034c4c56f3f","{""num_scrambled_semantic"":""8"",""num_scrambled_causal"":""4"",""num_scrambled_schematic"":""4"",""participantId"":""79D31F59DA52464CA72D9D2C41156385"",""assignmentId"":""b0de1555-d2be-4e6c-b389-7cac0daa9b8b"",""projectId"":""a9f3d40c-5730-405c-b25e-1034c4c56f3f""}","https://test12345.live/?num_scrambled_semantic=8&num_scrambled_causal=4&num_scrambled_schematic=4&participantId=79D31F59DA52464CA72D9D2C41156385&assignmentId=b0de1555-d2be-4e6c-b389-7cac0daa9b8b&projectId=a9f3d40c-5730-405c-b25e-1034c4c56f3f","79D31F59DA52464CA72D9D2C41156385-2025-08-07-19-02-10","","null","","images/causal_sequence/the_performance_causal/the_performance_causal_9 (2).png","null","",""
"","","","","","image-button-response","79","363377","0.0-12.0-1.0-1.7","79D31F59DA52464CA72D9D2C41156385","79D31F59DA52464CA72D9D2C41156385","b0de1555-d2be-4e6c-b389-7cac0daa9b8b","a9f3d40c-5730-405c-b25e-1034c4c56f3f","{""num_scrambled_semantic"":""8"",""num_scrambled_causal"":""4"",""num_scrambled_schematic"":""4"",""participantId"":""79D31F59DA52464CA72D9D2C41156385"",""assignmentId"":""b0de1555-d2be-4e6c-b389-7cac0daa9b8b"",""projectId"":""a9f3d40c-5730-405c-b25e-1034c4c56f3f""}","https://test12345.live/?num_scrambled_semantic=8&num_scrambled_causal=4&num_scrambled_schematic=4&participantId=79D31F59DA52464CA72D9D2C41156385&assignmentId=b0de1555-d2be-4e6c-b389-7cac0daa9b8b&projectId=a9f3d40c-5730-405c-b25e-1034c4c56f3f","79D31F59DA52464CA72D9D2C41156385-2025-08-07-19-02-10","","933","","images/causal_sequence/the_performance_causal/the_performance_causal_9 (2).png","0","",""
"","","","","","image-button-response","80","365186","0.0-12.0-1.0-2.7","79D31F59DA52464CA72D9D2C41156385","79D31F59DA52464CA72D9D2C41156385","b0de1555-d2be-4e6c-b389-7cac0daa9b8b","a9f3d40c-5730-405c-b25e-1034c4c56f3f","{""num_scrambled_semantic"":""8"",""num_scrambled_causal"":""4"",""num_scrambled_schematic"":""4"",""participantId"":""79D31F59DA52464CA72D9D2C41156385"",""assignmentId"":""b0de1555-d2be-4e6c-b389-7cac0daa9b8b"",""projectId"":""a9f3d40c-5730-405c-b25e-1034c4c56f3f""}","https://test12345.live/?num_scrambled_semantic=8&num_scrambled_causal=4&num_scrambled_schematic=4&participantId=79D31F59DA52464CA72D9D2C41156385&assignmentId=b0de1555-d2be-4e6c-b389-7cac0daa9b8b&projectId=a9f3d40c-5730-405c-b25e-1034c4c56f3f","79D31F59DA52464CA72D9D2C41156385-2025-08-07-19-02-10","","null","","[]","null","",""
"","","","","","image-button-response","81","369688","0.0-12.0-1.0-0.8","79D31F59DA52464CA72D9D2C41156385","79D31F59DA52464CA72D9D2C41156385","b0de1555-d2be-4e6c-b389-7cac0daa9b8b","a9f3d40c-5730-405c-b25e-1034c4c56f3f","{""num_scrambled_semantic"":""8"",""num_scrambled_causal"":""4"",""num_scrambled_schematic"":""4"",""participantId"":""79D31F59DA52464CA72D9D2C41156385"",""assignmentId"":""b0de1555-d2be-4e6c-b389-7cac0daa9b8b"",""projectId"":""a9f3d40c-5730-405c-b25e-1034c4c56f3f""}","https://test12345.live/?num_scrambled_semantic=8&num_scrambled_causal=4&num_scrambled_schematic=4&participantId=79D31F59DA52464CA72D9D2C41156385&assignmentId=b0de1555-d2be-4e6c-b389-7cac0daa9b8b&projectId=a9f3d40c-5730-405c-b25e-1034c4c56f3f","79D31F59DA52464CA72D9D2C41156385-2025-08-07-19-02-10","","null","","images/causal_sequence/the_performance_causal/the_performance_causal_8.png","null","",""
"","","","","","image-button-response","82","370582","0.0-12.0-1.0-1.8","79D31F59DA52464CA72D9D2C41156385","79D31F59DA52464CA72D9D2C41156385","b0de1555-d2be-4e6c-b389-7cac0daa9b8b","a9f3d40c-5730-405c-b25e-1034c4c56f3f","{""num_scrambled_semantic"":""8"",""num_scrambled_causal"":""4"",""num_scrambled_schematic"":""4"",""participantId"":""79D31F59DA52464CA72D9D2C41156385"",""assignmentId"":""b0de1555-d2be-4e6c-b389-7cac0daa9b8b"",""projectId"":""a9f3d40c-5730-405c-b25e-1034c4c56f3f""}","https://test12345.live/?num_scrambled_semantic=8&num_scrambled_causal=4&num_scrambled_schematic=4&participantId=79D31F59DA52464CA72D9D2C41156385&assignmentId=b0de1555-d2be-4e6c-b389-7cac0daa9b8b&projectId=a9f3d40c-5730-405c-b25e-1034c4c56f3f","79D31F59DA52464CA72D9D2C41156385-2025-08-07-19-02-10","","893","","images/causal_sequence/the_performance_causal/the_performance_causal_8.png","0","",""
"","","","","","image-button-response","83","372393","0.0-12.0-1.0-2.8","79D31F59DA52464CA72D9D2C41156385","79D31F59DA52464CA72D9D2C41156385","b0de1555-d2be-4e6c-b389-7cac0daa9b8b","a9f3d40c-5730-405c-b25e-1034c4c56f3f","{""num_scrambled_semantic"":""8"",""num_scrambled_causal"":""4"",""num_scrambled_schematic"":""4"",""participantId"":""79D31F59DA52464CA72D9D2C41156385"",""assignmentId"":""b0de1555-d2be-4e6c-b389-7cac0daa9b8b"",""projectId"":""a9f3d40c-5730-405c-b25e-1034c4c56f3f""}","https://test12345.live/?num_scrambled_semantic=8&num_scrambled_causal=4&num_scrambled_schematic=4&participantId=79D31F59DA52464CA72D9D2C41156385&assignmentId=b0de1555-d2be-4e6c-b389-7cac0daa9b8b&projectId=a9f3d40c-5730-405c-b25e-1034c4c56f3f","79D31F59DA52464CA72D9D2C41156385-2025-08-07-19-02-10","","null","","[]","null","",""
"","","","","","image-button-response","84","376894","0.0-12.0-1.0-0.9","79D31F59DA52464CA72D9D2C41156385","79D31F59DA52464CA72D9D2C41156385","b0de1555-d2be-4e6c-b389-7cac0daa9b8b","a9f3d40c-5730-405c-b25e-1034c4c56f3f","{""num_scrambled_semantic"":""8"",""num_scrambled_causal"":""4"",""num_scrambled_schematic"":""4"",""participantId"":""79D31F59DA52464CA72D9D2C41156385"",""assignmentId"":""b0de1555-d2be-4e6c-b389-7cac0daa9b8b"",""projectId"":""a9f3d40c-5730-405c-b25e-1034c4c56f3f""}","https://test12345.live/?num_scrambled_semantic=8&num_scrambled_causal=4&num_scrambled_schematic=4&participantId=79D31F59DA52464CA72D9D2C41156385&assignmentId=b0de1555-d2be-4e6c-b389-7cac0daa9b8b&projectId=a9f3d40c-5730-405c-b25e-1034c4c56f3f","79D31F59DA52464CA72D9D2C41156385-2025-08-07-19-02-10","","null","","images/causal_sequence/the_performance_causal/the_performance_causal_2.png","null","",""
"","","","","","image-button-response","85","377787","0.0-12.0-1.0-1.9","79D31F59DA52464CA72D9D2C41156385","79D31F59DA52464CA72D9D2C41156385","b0de1555-d2be-4e6c-b389-7cac0daa9b8b","a9f3d40c-5730-405c-b25e-1034c4c56f3f","{""num_scrambled_semantic"":""8"",""num_scrambled_causal"":""4"",""num_scrambled_schematic"":""4"",""participantId"":""79D31F59DA52464CA72D9D2C41156385"",""assignmentId"":""b0de1555-d2be-4e6c-b389-7cac0daa9b8b"",""projectId"":""a9f3d40c-5730-405c-b25e-1034c4c56f3f""}","https://test12345.live/?num_scrambled_semantic=8&num_scrambled_causal=4&num_scrambled_schematic=4&participantId=79D31F59DA52464CA72D9D2C41156385&assignmentId=b0de1555-d2be-4e6c-b389-7cac0daa9b8b&projectId=a9f3d40c-5730-405c-b25e-1034c4c56f3f","79D31F59DA52464CA72D9D2C41156385-2025-08-07-19-02-10","","893","","images/causal_sequence/the_performance_causal/the_performance_causal_2.png","0","",""
"","","","","","image-button-response","86","379587","0.0-12.0-1.0-2.9","79D31F59DA52464CA72D9D2C41156385","79D31F59DA52464CA72D9D2C41156385","b0de1555-d2be-4e6c-b389-7cac0daa9b8b","a9f3d40c-5730-405c-b25e-1034c4c56f3f","{""num_scrambled_semantic"":""8"",""num_scrambled_causal"":""4"",""num_scrambled_schematic"":""4"",""participantId"":""79D31F59DA52464CA72D9D2C41156385"",""assignmentId"":""b0de1555-d2be-4e6c-b389-7cac0daa9b8b"",""projectId"":""a9f3d40c-5730-405c-b25e-1034c4c56f3f""}","https://test12345.live/?num_scrambled_semantic=8&num_scrambled_causal=4&num_scrambled_schematic=4&participantId=79D31F59DA52464CA72D9D2C41156385&assignmentId=b0de1555-d2be-4e6c-b389-7cac0daa9b8b&projectId=a9f3d40c-5730-405c-b25e-1034c4c56f3f","79D31F59DA52464CA72D9D2C41156385-2025-08-07-19-02-10","","null","","[]","null","",""
"","","","","","html-audio-response","87","418061","0.0-13.0","79D31F59DA52464CA72D9D2C41156385","79D31F59DA52464CA72D9D2C41156385","b0de1555-d2be-4e6c-b389-7cac0daa9b8b","a9f3d40c-5730-405c-b25e-1034c4c56f3f","{""num_scrambled_semantic"":""8"",""num_scrambled_causal"":""4"",""num_scrambled_schematic"":""4"",""participantId"":""79D31F59DA52464CA72D9D2C41156385"",""assignmentId"":""b0de1555-d2be-4e6c-b389-7cac0daa9b8b"",""projectId"":""a9f3d40c-5730-405c-b25e-1034c4c56f3f""}","https://test12345.live/?num_scrambled_semantic=8&num_scrambled_causal=4&num_scrambled_schematic=4&participantId=79D31F59DA52464CA72D9D2C41156385&assignmentId=b0de1555-d2be-4e6c-b389-7cac0daa9b8b&projectId=a9f3d40c-5730-405c-b25e-1034c4c56f3f","79D31F59DA52464CA72D9D2C41156385-2025-08-07-19-02-10","","36798","","[""<span style=\""color: red; font-size: 24px\""> NOW RECORDING</span><p>Please say out loud all the images you saw, as many as you can remember. The images can be said in any order.</p>""]","","6","the_performance_causal"
"","","","","","image-button-response","88","424408","0.0-14.0-0.0","79D31F59DA52464CA72D9D2C41156385","79D31F59DA52464CA72D9D2C41156385","b0de1555-d2be-4e6c-b389-7cac0daa9b8b","a9f3d40c-5730-405c-b25e-1034c4c56f3f","{""num_scrambled_semantic"":""8"",""num_scrambled_causal"":""4"",""num_scrambled_schematic"":""4"",""participantId"":""79D31F59DA52464CA72D9D2C41156385"",""assignmentId"":""b0de1555-d2be-4e6c-b389-7cac0daa9b8b"",""projectId"":""a9f3d40c-5730-405c-b25e-1034c4c56f3f""}","https://test12345.live/?num_scrambled_semantic=8&num_scrambled_causal=4&num_scrambled_schematic=4&participantId=79D31F59DA52464CA72D9D2C41156385&assignmentId=b0de1555-d2be-4e6c-b389-7cac0daa9b8b&projectId=a9f3d40c-5730-405c-b25e-1034c4c56f3f","79D31F59DA52464CA72D9D2C41156385-2025-08-07-19-02-10","","null","","images/causal_sequence/dog_causal/dog_causal_0.png","null","",""
"","","","","","image-button-response","89","428923","0.0-14.0-1.0-0.0","79D31F59DA52464CA72D9D2C41156385","79D31F59DA52464CA72D9D2C41156385","b0de1555-d2be-4e6c-b389-7cac0daa9b8b","a9f3d40c-5730-405c-b25e-1034c4c56f3f","{""num_scrambled_semantic"":""8"",""num_scrambled_causal"":""4"",""num_scrambled_schematic"":""4"",""participantId"":""79D31F59DA52464CA72D9D2C41156385"",""assignmentId"":""b0de1555-d2be-4e6c-b389-7cac0daa9b8b"",""projectId"":""a9f3d40c-5730-405c-b25e-1034c4c56f3f""}","https://test12345.live/?num_scrambled_semantic=8&num_scrambled_causal=4&num_scrambled_schematic=4&participantId=79D31F59DA52464CA72D9D2C41156385&assignmentId=b0de1555-d2be-4e6c-b389-7cac0daa9b8b&projectId=a9f3d40c-5730-405c-b25e-1034c4c56f3f","79D31F59DA52464CA72D9D2C41156385-2025-08-07-19-02-10","","null","","images/causal_sequence/dog_causal/dog_causal_1.png","null","",""
"","","","","","image-button-response","90","432933","0.0-14.0-1.0-1.0","79D31F59DA52464CA72D9D2C41156385","79D31F59DA52464CA72D9D2C41156385","b0de1555-d2be-4e6c-b389-7cac0daa9b8b","a9f3d40c-5730-405c-b25e-1034c4c56f3f","{""num_scrambled_semantic"":""8"",""num_scrambled_causal"":""4"",""num_scrambled_schematic"":""4"",""participantId"":""79D31F59DA52464CA72D9D2C41156385"",""assignmentId"":""b0de1555-d2be-4e6c-b389-7cac0daa9b8b"",""projectId"":""a9f3d40c-5730-405c-b25e-1034c4c56f3f""}","https://test12345.live/?num_scrambled_semantic=8&num_scrambled_causal=4&num_scrambled_schematic=4&participantId=79D31F59DA52464CA72D9D2C41156385&assignmentId=b0de1555-d2be-4e6c-b389-7cac0daa9b8b&projectId=a9f3d40c-5730-405c-b25e-1034c4c56f3f","79D31F59DA52464CA72D9D2C41156385-2025-08-07-19-02-10","","null","","images/causal_sequence/dog_causal/dog_causal_1.png","null","",""
"","","","","","image-button-response","91","434749","0.0-14.0-1.0-2.0","79D31F59DA52464CA72D9D2C41156385","79D31F59DA52464CA72D9D2C41156385","b0de1555-d2be-4e6c-b389-7cac0daa9b8b","a9f3d40c-5730-405c-b25e-1034c4c56f3f","{""num_scrambled_semantic"":""8"",""num_scrambled_causal"":""4"",""num_scrambled_schematic"":""4"",""participantId"":""79D31F59DA52464CA72D9D2C41156385"",""assignmentId"":""b0de1555-d2be-4e6c-b389-7cac0daa9b8b"",""projectId"":""a9f3d40c-5730-405c-b25e-1034c4c56f3f""}","https://test12345.live/?num_scrambled_semantic=8&num_scrambled_causal=4&num_scrambled_schematic=4&participantId=79D31F59DA52464CA72D9D2C41156385&assignmentId=b0de1555-d2be-4e6c-b389-7cac0daa9b8b&projectId=a9f3d40c-5730-405c-b25e-1034c4c56f3f","79D31F59DA52464CA72D9D2C41156385-2025-08-07-19-02-10","","null","","[]","null","",""
"","","","","","image-button-response","92","439257","0.0-14.0-1.0-0.1","79D31F59DA52464CA72D9D2C41156385","79D31F59DA52464CA72D9D2C41156385","b0de1555-d2be-4e6c-b389-7cac0daa9b8b","a9f3d40c-5730-405c-b25e-1034c4c56f3f","{""num_scrambled_semantic"":""8"",""num_scrambled_causal"":""4"",""num_scrambled_schematic"":""4"",""participantId"":""79D31F59DA52464CA72D9D2C41156385"",""assignmentId"":""b0de1555-d2be-4e6c-b389-7cac0daa9b8b"",""projectId"":""a9f3d40c-5730-405c-b25e-1034c4c56f3f""}","https://test12345.live/?num_scrambled_semantic=8&num_scrambled_causal=4&num_scrambled_schematic=4&participantId=79D31F59DA52464CA72D9D2C41156385&assignmentId=b0de1555-d2be-4e6c-b389-7cac0daa9b8b&projectId=a9f3d40c-5730-405c-b25e-1034c4c56f3f","79D31F59DA52464CA72D9D2C41156385-2025-08-07-19-02-10","","null","","images/causal_sequence/dog_causal/dog_causal_8.png","null","",""
"","","","","","image-button-response","93","440197","0.0-14.0-1.0-1.1","79D31F59DA52464CA72D9D2C41156385","79D31F59DA52464CA72D9D2C41156385","b0de1555-d2be-4e6c-b389-7cac0daa9b8b","a9f3d40c-5730-405c-b25e-1034c4c56f3f","{""num_scrambled_semantic"":""8"",""num_scrambled_causal"":""4"",""num_scrambled_schematic"":""4"",""participantId"":""79D31F59DA52464CA72D9D2C41156385"",""assignmentId"":""b0de1555-d2be-4e6c-b389-7cac0daa9b8b"",""projectId"":""a9f3d40c-5730-405c-b25e-1034c4c56f3f""}","https://test12345.live/?num_scrambled_semantic=8&num_scrambled_causal=4&num_scrambled_schematic=4&participantId=79D31F59DA52464CA72D9D2C41156385&assignmentId=b0de1555-d2be-4e6c-b389-7cac0daa9b8b&projectId=a9f3d40c-5730-405c-b25e-1034c4c56f3f","79D31F59DA52464CA72D9D2C41156385-2025-08-07-19-02-10","","940","","images/causal_sequence/dog_causal/dog_causal_8.png","0","",""
"","","","","","image-button-response","94","442000","0.0-14.0-1.0-2.1","79D31F59DA52464CA72D9D2C41156385","79D31F59DA52464CA72D9D2C41156385","b0de1555-d2be-4e6c-b389-7cac0daa9b8b","a9f3d40c-5730-405c-b25e-1034c4c56f3f","{""num_scrambled_semantic"":""8"",""num_scrambled_causal"":""4"",""num_scrambled_schematic"":""4"",""participantId"":""79D31F59DA52464CA72D9D2C41156385"",""assignmentId"":""b0de1555-d2be-4e6c-b389-7cac0daa9b8b"",""projectId"":""a9f3d40c-5730-405c-b25e-1034c4c56f3f""}","https://test12345.live/?num_scrambled_semantic=8&num_scrambled_causal=4&num_scrambled_schematic=4&participantId=79D31F59DA52464CA72D9D2C41156385&assignmentId=b0de1555-d2be-4e6c-b389-7cac0daa9b8b&projectId=a9f3d40c-5730-405c-b25e-1034c4c56f3f","79D31F59DA52464CA72D9D2C41156385-2025-08-07-19-02-10","","null","","[]","null","",""
"","","","","","image-button-response","95","446512","0.0-14.0-1.0-0.2","79D31F59DA52464CA72D9D2C41156385","79D31F59DA52464CA72D9D2C41156385","b0de1555-d2be-4e6c-b389-7cac0daa9b8b","a9f3d40c-5730-405c-b25e-1034c4c56f3f","{""num_scrambled_semantic"":""8"",""num_scrambled_causal"":""4"",""num_scrambled_schematic"":""4"",""participantId"":""79D31F59DA52464CA72D9D2C41156385"",""assignmentId"":""b0de1555-d2be-4e6c-b389-7cac0daa9b8b"",""projectId"":""a9f3d40c-5730-405c-b25e-1034c4c56f3f""}","https://test12345.live/?num_scrambled_semantic=8&num_scrambled_causal=4&num_scrambled_schematic=4&participantId=79D31F59DA52464CA72D9D2C41156385&assignmentId=b0de1555-d2be-4e6c-b389-7cac0daa9b8b&projectId=a9f3d40c-5730-405c-b25e-1034c4c56f3f","79D31F59DA52464CA72D9D2C41156385-2025-08-07-19-02-10","","null","","images/causal_sequence/dog_causal/dog_causal_6.png","null","",""
"","","","","","image-button-response","96","447354","0.0-14.0-1.0-1.2","79D31F59DA52464CA72D9D2C41156385","79D31F59DA52464CA72D9D2C41156385","b0de1555-d2be-4e6c-b389-7cac0daa9b8b","a9f3d40c-5730-405c-b25e-1034c4c56f3f","{""num_scrambled_semantic"":""8"",""num_scrambled_causal"":""4"",""num_scrambled_schematic"":""4"",""participantId"":""79D31F59DA52464CA72D9D2C41156385"",""assignmentId"":""b0de1555-d2be-4e6c-b389-7cac0daa9b8b"",""projectId"":""a9f3d40c-5730-405c-b25e-1034c4c56f3f""}","https://test12345.live/?num_scrambled_semantic=8&num_scrambled_causal=4&num_scrambled_schematic=4&participantId=79D31F59DA52464CA72D9D2C41156385&assignmentId=b0de1555-d2be-4e6c-b389-7cac0daa9b8b&projectId=a9f3d40c-5730-405c-b25e-1034c4c56f3f","79D31F59DA52464CA72D9D2C41156385-2025-08-07-19-02-10","","841","","images/causal_sequence/dog_causal/dog_causal_6.png","0","",""
"","","","","","image-button-response","97","449160","0.0-14.0-1.0-2.2","79D31F59DA52464CA72D9D2C41156385","79D31F59DA52464CA72D9D2C41156385","b0de1555-d2be-4e6c-b389-7cac0daa9b8b","a9f3d40c-5730-405c-b25e-1034c4c56f3f","{""num_scrambled_semantic"":""8"",""num_scrambled_causal"":""4"",""num_scrambled_schematic"":""4"",""participantId"":""79D31F59DA52464CA72D9D2C41156385"",""assignmentId"":""b0de1555-d2be-4e6c-b389-7cac0daa9b8b"",""projectId"":""a9f3d40c-5730-405c-b25e-1034c4c56f3f""}","https://test12345.live/?num_scrambled_semantic=8&num_scrambled_causal=4&num_scrambled_schematic=4&participantId=79D31F59DA52464CA72D9D2C41156385&assignmentId=b0de1555-d2be-4e6c-b389-7cac0daa9b8b&projectId=a9f3d40c-5730-405c-b25e-1034c4c56f3f","79D31F59DA52464CA72D9D2C41156385-2025-08-07-19-02-10","","null","","[]","null","",""
"","","","","","image-button-response","98","453661","0.0-14.0-1.0-0.3","79D31F59DA52464CA72D9D2C41156385","79D31F59DA52464CA72D9D2C41156385","b0de1555-d2be-4e6c-b389-7cac0daa9b8b","a9f3d40c-5730-405c-b25e-1034c4c56f3f","{""num_scrambled_semantic"":""8"",""num_scrambled_causal"":""4"",""num_scrambled_schematic"":""4"",""participantId"":""79D31F59DA52464CA72D9D2C41156385"",""assignmentId"":""b0de1555-d2be-4e6c-b389-7cac0daa9b8b"",""projectId"":""a9f3d40c-5730-405c-b25e-1034c4c56f3f""}","https://test12345.live/?num_scrambled_semantic=8&num_scrambled_causal=4&num_scrambled_schematic=4&participantId=79D31F59DA52464CA72D9D2C41156385&assignmentId=b0de1555-d2be-4e6c-b389-7cac0daa9b8b&projectId=a9f3d40c-5730-405c-b25e-1034c4c56f3f","79D31F59DA52464CA72D9D2C41156385-2025-08-07-19-02-10","","null","","images/causal_sequence/dog_causal/dog_causal_3.png","null","",""
"","","","","","image-button-response","99","454963","0.0-14.0-1.0-1.3","79D31F59DA52464CA72D9D2C41156385","79D31F59DA52464CA72D9D2C41156385","b0de1555-d2be-4e6c-b389-7cac0daa9b8b","a9f3d40c-5730-405c-b25e-1034c4c56f3f","{""num_scrambled_semantic"":""8"",""num_scrambled_causal"":""4"",""num_scrambled_schematic"":""4"",""participantId"":""79D31F59DA52464CA72D9D2C41156385"",""assignmentId"":""b0de1555-d2be-4e6c-b389-7cac0daa9b8b"",""projectId"":""a9f3d40c-5730-405c-b25e-1034c4c56f3f""}","https://test12345.live/?num_scrambled_semantic=8&num_scrambled_causal=4&num_scrambled_schematic=4&participantId=79D31F59DA52464CA72D9D2C41156385&assignmentId=b0de1555-d2be-4e6c-b389-7cac0daa9b8b&projectId=a9f3d40c-5730-405c-b25e-1034c4c56f3f","79D31F59DA52464CA72D9D2C41156385-2025-08-07-19-02-10","","1301","","images/causal_sequence/dog_causal/dog_causal_3.png","0","",""
"","","","","","image-button-response","100","456767","0.0-14.0-1.0-2.3","79D31F59DA52464CA72D9D2C41156385","79D31F59DA52464CA72D9D2C41156385","b0de1555-d2be-4e6c-b389-7cac0daa9b8b","a9f3d40c-5730-405c-b25e-1034c4c56f3f","{""num_scrambled_semantic"":""8"",""num_scrambled_causal"":""4"",""num_scrambled_schematic"":""4"",""participantId"":""79D31F59DA52464CA72D9D2C41156385"",""assignmentId"":""b0de1555-d2be-4e6c-b389-7cac0daa9b8b"",""projectId"":""a9f3d40c-5730-405c-b25e-1034c4c56f3f""}","https://test12345.live/?num_scrambled_semantic=8&num_scrambled_causal=4&num_scrambled_schematic=4&participantId=79D31F59DA52464CA72D9D2C41156385&assignmentId=b0de1555-d2be-4e6c-b389-7cac0daa9b8b&projectId=a9f3d40c-5730-405c-b25e-1034c4c56f3f","79D31F59DA52464CA72D9D2C41156385-2025-08-07-19-02-10","","null","","[]","null","",""
"","","","","","image-button-response","101","461269","0.0-14.0-1.0-0.4","79D31F59DA52464CA72D9D2C41156385","79D31F59DA52464CA72D9D2C41156385","b0de1555-d2be-4e6c-b389-7cac0daa9b8b","a9f3d40c-5730-405c-b25e-1034c4c56f3f","{""num_scrambled_semantic"":""8"",""num_scrambled_causal"":""4"",""num_scrambled_schematic"":""4"",""participantId"":""79D31F59DA52464CA72D9D2C41156385"",""assignmentId"":""b0de1555-d2be-4e6c-b389-7cac0daa9b8b"",""projectId"":""a9f3d40c-5730-405c-b25e-1034c4c56f3f""}","https://test12345.live/?num_scrambled_semantic=8&num_scrambled_causal=4&num_scrambled_schematic=4&participantId=79D31F59DA52464CA72D9D2C41156385&assignmentId=b0de1555-d2be-4e6c-b389-7cac0daa9b8b&projectId=a9f3d40c-5730-405c-b25e-1034c4c56f3f","79D31F59DA52464CA72D9D2C41156385-2025-08-07-19-02-10","","null","","images/causal_sequence/dog_causal/dog_causal_ten.png","null","",""
"","","","","","image-button-response","102","461956","0.0-14.0-1.0-1.4","79D31F59DA52464CA72D9D2C41156385","79D31F59DA52464CA72D9D2C41156385","b0de1555-d2be-4e6c-b389-7cac0daa9b8b","a9f3d40c-5730-405c-b25e-1034c4c56f3f","{""num_scrambled_semantic"":""8"",""num_scrambled_causal"":""4"",""num_scrambled_schematic"":""4"",""participantId"":""79D31F59DA52464CA72D9D2C41156385"",""assignmentId"":""b0de1555-d2be-4e6c-b389-7cac0daa9b8b"",""projectId"":""a9f3d40c-5730-405c-b25e-1034c4c56f3f""}","https://test12345.live/?num_scrambled_semantic=8&num_scrambled_causal=4&num_scrambled_schematic=4&participantId=79D31F59DA52464CA72D9D2C41156385&assignmentId=b0de1555-d2be-4e6c-b389-7cac0daa9b8b&projectId=a9f3d40c-5730-405c-b25e-1034c4c56f3f","79D31F59DA52464CA72D9D2C41156385-2025-08-07-19-02-10","","686","","images/causal_sequence/dog_causal/dog_causal_ten.png","0","",""
"","","","","","image-button-response","103","463759","0.0-14.0-1.0-2.4","79D31F59DA52464CA72D9D2C41156385","79D31F59DA52464CA72D9D2C41156385","b0de1555-d2be-4e6c-b389-7cac0daa9b8b","a9f3d40c-5730-405c-b25e-1034c4c56f3f","{""num_scrambled_semantic"":""8"",""num_scrambled_causal"":""4"",""num_scrambled_schematic"":""4"",""participantId"":""79D31F59DA52464CA72D9D2C41156385"",""assignmentId"":""b0de1555-d2be-4e6c-b389-7cac0daa9b8b"",""projectId"":""a9f3d40c-5730-405c-b25e-1034c4c56f3f""}","https://test12345.live/?num_scrambled_semantic=8&num_scrambled_causal=4&num_scrambled_schematic=4&participantId=79D31F59DA52464CA72D9D2C41156385&assignmentId=b0de1555-d2be-4e6c-b389-7cac0daa9b8b&projectId=a9f3d40c-5730-405c-b25e-1034c4c56f3f","79D31F59DA52464CA72D9D2C41156385-2025-08-07-19-02-10","","null","","[]","null","",""
"","","","","","image-button-response","104","468261","0.0-14.0-1.0-0.5","79D31F59DA52464CA72D9D2C41156385","79D31F59DA52464CA72D9D2C41156385","b0de1555-d2be-4e6c-b389-7cac0daa9b8b","a9f3d40c-5730-405c-b25e-1034c4c56f3f","{""num_scrambled_semantic"":""8"",""num_scrambled_causal"":""4"",""num_scrambled_schematic"":""4"",""participantId"":""79D31F59DA52464CA72D9D2C41156385"",""assignmentId"":""b0de1555-d2be-4e6c-b389-7cac0daa9b8b"",""projectId"":""a9f3d40c-5730-405c-b25e-1034c4c56f3f""}","https://test12345.live/?num_scrambled_semantic=8&num_scrambled_causal=4&num_scrambled_schematic=4&participantId=79D31F59DA52464CA72D9D2C41156385&assignmentId=b0de1555-d2be-4e6c-b389-7cac0daa9b8b&projectId=a9f3d40c-5730-405c-b25e-1034c4c56f3f","79D31F59DA52464CA72D9D2C41156385-2025-08-07-19-02-10","","null","","images/causal_sequence/dog_causal/dog_causal_5.png","null","",""
"","","","","","image-button-response","105","469050","0.0-14.0-1.0-1.5","79D31F59DA52464CA72D9D2C41156385","79D31F59DA52464CA72D9D2C41156385","b0de1555-d2be-4e6c-b389-7cac0daa9b8b","a9f3d40c-5730-405c-b25e-1034c4c56f3f","{""num_scrambled_semantic"":""8"",""num_scrambled_causal"":""4"",""num_scrambled_schematic"":""4"",""participantId"":""79D31F59DA52464CA72D9D2C41156385"",""assignmentId"":""b0de1555-d2be-4e6c-b389-7cac0daa9b8b"",""projectId"":""a9f3d40c-5730-405c-b25e-1034c4c56f3f""}","https://test12345.live/?num_scrambled_semantic=8&num_scrambled_causal=4&num_scrambled_schematic=4&participantId=79D31F59DA52464CA72D9D2C41156385&assignmentId=b0de1555-d2be-4e6c-b389-7cac0daa9b8b&projectId=a9f3d40c-5730-405c-b25e-1034c4c56f3f","79D31F59DA52464CA72D9D2C41156385-2025-08-07-19-02-10","","788","","images/causal_sequence/dog_causal/dog_causal_5.png","0","",""
"","","","","","image-button-response","106","470863","0.0-14.0-1.0-2.5","79D31F59DA52464CA72D9D2C41156385","79D31F59DA52464CA72D9D2C41156385","b0de1555-d2be-4e6c-b389-7cac0daa9b8b","a9f3d40c-5730-405c-b25e-1034c4c56f3f","{""num_scrambled_semantic"":""8"",""num_scrambled_causal"":""4"",""num_scrambled_schematic"":""4"",""participantId"":""79D31F59DA52464CA72D9D2C41156385"",""assignmentId"":""b0de1555-d2be-4e6c-b389-7cac0daa9b8b"",""projectId"":""a9f3d40c-5730-405c-b25e-1034c4c56f3f""}","https://test12345.live/?num_scrambled_semantic=8&num_scrambled_causal=4&num_scrambled_schematic=4&participantId=79D31F59DA52464CA72D9D2C41156385&assignmentId=b0de1555-d2be-4e6c-b389-7cac0daa9b8b&projectId=a9f3d40c-5730-405c-b25e-1034c4c56f3f","79D31F59DA52464CA72D9D2C41156385-2025-08-07-19-02-10","","null","","[]","null","",""
"","","","","","image-button-response","107","475375","0.0-14.0-1.0-0.6","79D31F59DA52464CA72D9D2C41156385","79D31F59DA52464CA72D9D2C41156385","b0de1555-d2be-4e6c-b389-7cac0daa9b8b","a9f3d40c-5730-405c-b25e-1034c4c56f3f","{""num_scrambled_semantic"":""8"",""num_scrambled_causal"":""4"",""num_scrambled_schematic"":""4"",""participantId"":""79D31F59DA52464CA72D9D2C41156385"",""assignmentId"":""b0de1555-d2be-4e6c-b389-7cac0daa9b8b"",""projectId"":""a9f3d40c-5730-405c-b25e-1034c4c56f3f""}","https://test12345.live/?num_scrambled_semantic=8&num_scrambled_causal=4&num_scrambled_schematic=4&participantId=79D31F59DA52464CA72D9D2C41156385&assignmentId=b0de1555-d2be-4e6c-b389-7cac0daa9b8b&projectId=a9f3d40c-5730-405c-b25e-1034c4c56f3f","79D31F59DA52464CA72D9D2C41156385-2025-08-07-19-02-10","","null","","images/causal_sequence/dog_causal/dog_causal_7.png","null","",""
"","","","","","image-button-response","108","476228","0.0-14.0-1.0-1.6","79D31F59DA52464CA72D9D2C41156385","79D31F59DA52464CA72D9D2C41156385","b0de1555-d2be-4e6c-b389-7cac0daa9b8b","a9f3d40c-5730-405c-b25e-1034c4c56f3f","{""num_scrambled_semantic"":""8"",""num_scrambled_causal"":""4"",""num_scrambled_schematic"":""4"",""participantId"":""79D31F59DA52464CA72D9D2C41156385"",""assignmentId"":""b0de1555-d2be-4e6c-b389-7cac0daa9b8b"",""projectId"":""a9f3d40c-5730-405c-b25e-1034c4c56f3f""}","https://test12345.live/?num_scrambled_semantic=8&num_scrambled_causal=4&num_scrambled_schematic=4&participantId=79D31F59DA52464CA72D9D2C41156385&assignmentId=b0de1555-d2be-4e6c-b389-7cac0daa9b8b&projectId=a9f3d40c-5730-405c-b25e-1034c4c56f3f","79D31F59DA52464CA72D9D2C41156385-2025-08-07-19-02-10","","852","","images/causal_sequence/dog_causal/dog_causal_7.png","0","",""
"","","","","","image-button-response","109","478030","0.0-14.0-1.0-2.6","79D31F59DA52464CA72D9D2C41156385","79D31F59DA52464CA72D9D2C41156385","b0de1555-d2be-4e6c-b389-7cac0daa9b8b","a9f3d40c-5730-405c-b25e-1034c4c56f3f","{""num_scrambled_semantic"":""8"",""num_scrambled_causal"":""4"",""num_scrambled_schematic"":""4"",""participantId"":""79D31F59DA52464CA72D9D2C41156385"",""assignmentId"":""b0de1555-d2be-4e6c-b389-7cac0daa9b8b"",""projectId"":""a9f3d40c-5730-405c-b25e-1034c4c56f3f""}","https://test12345.live/?num_scrambled_semantic=8&num_scrambled_causal=4&num_scrambled_schematic=4&participantId=79D31F59DA52464CA72D9D2C41156385&assignmentId=b0de1555-d2be-4e6c-b389-7cac0daa9b8b&projectId=a9f3d40c-5730-405c-b25e-1034c4c56f3f","79D31F59DA52464CA72D9D2C41156385-2025-08-07-19-02-10","","null","","[]","null","",""
"","","","","","image-button-response","110","482533","0.0-14.0-1.0-0.7","79D31F59DA52464CA72D9D2C41156385","79D31F59DA52464CA72D9D2C41156385","b0de1555-d2be-4e6c-b389-7cac0daa9b8b","a9f3d40c-5730-405c-b25e-1034c4c56f3f","{""num_scrambled_semantic"":""8"",""num_scrambled_causal"":""4"",""num_scrambled_schematic"":""4"",""participantId"":""79D31F59DA52464CA72D9D2C41156385"",""assignmentId"":""b0de1555-d2be-4e6c-b389-7cac0daa9b8b"",""projectId"":""a9f3d40c-5730-405c-b25e-1034c4c56f3f""}","https://test12345.live/?num_scrambled_semantic=8&num_scrambled_causal=4&num_scrambled_schematic=4&participantId=79D31F59DA52464CA72D9D2C41156385&assignmentId=b0de1555-d2be-4e6c-b389-7cac0daa9b8b&projectId=a9f3d40c-5730-405c-b25e-1034c4c56f3f","79D31F59DA52464CA72D9D2C41156385-2025-08-07-19-02-10","","null","","images/causal_sequence/dog_causal/dog_causal_4.png","null","",""
"","","","","","image-button-response","111","483711","0.0-14.0-1.0-1.7","79D31F59DA52464CA72D9D2C41156385","79D31F59DA52464CA72D9D2C41156385","b0de1555-d2be-4e6c-b389-7cac0daa9b8b","a9f3d40c-5730-405c-b25e-1034c4c56f3f","{""num_scrambled_semantic"":""8"",""num_scrambled_causal"":""4"",""num_scrambled_schematic"":""4"",""participantId"":""79D31F59DA52464CA72D9D2C41156385"",""assignmentId"":""b0de1555-d2be-4e6c-b389-7cac0daa9b8b"",""projectId"":""a9f3d40c-5730-405c-b25e-1034c4c56f3f""}","https://test12345.live/?num_scrambled_semantic=8&num_scrambled_causal=4&num_scrambled_schematic=4&participantId=79D31F59DA52464CA72D9D2C41156385&assignmentId=b0de1555-d2be-4e6c-b389-7cac0daa9b8b&projectId=a9f3d40c-5730-405c-b25e-1034c4c56f3f","79D31F59DA52464CA72D9D2C41156385-2025-08-07-19-02-10","","1177","","images/causal_sequence/dog_causal/dog_causal_4.png","0","",""
"","","","","","image-button-response","112","485513","0.0-14.0-1.0-2.7","79D31F59DA52464CA72D9D2C41156385","79D31F59DA52464CA72D9D2C41156385","b0de1555-d2be-4e6c-b389-7cac0daa9b8b","a9f3d40c-5730-405c-b25e-1034c4c56f3f","{""num_scrambled_semantic"":""8"",""num_scrambled_causal"":""4"",""num_scrambled_schematic"":""4"",""participantId"":""79D31F59DA52464CA72D9D2C41156385"",""assignmentId"":""b0de1555-d2be-4e6c-b389-7cac0daa9b8b"",""projectId"":""a9f3d40c-5730-405c-b25e-1034c4c56f3f""}","https://test12345.live/?num_scrambled_semantic=8&num_scrambled_causal=4&num_scrambled_schematic=4&participantId=79D31F59DA52464CA72D9D2C41156385&assignmentId=b0de1555-d2be-4e6c-b389-7cac0daa9b8b&projectId=a9f3d40c-5730-405c-b25e-1034c4c56f3f","79D31F59DA52464CA72D9D2C41156385-2025-08-07-19-02-10","","null","","[]","null","",""
"","","","","","image-button-response","113","490014","0.0-14.0-1.0-0.8","79D31F59DA52464CA72D9D2C41156385","79D31F59DA52464CA72D9D2C41156385","b0de1555-d2be-4e6c-b389-7cac0daa9b8b","a9f3d40c-5730-405c-b25e-1034c4c56f3f","{""num_scrambled_semantic"":""8"",""num_scrambled_causal"":""4"",""num_scrambled_schematic"":""4"",""participantId"":""79D31F59DA52464CA72D9D2C41156385"",""assignmentId"":""b0de1555-d2be-4e6c-b389-7cac0daa9b8b"",""projectId"":""a9f3d40c-5730-405c-b25e-1034c4c56f3f""}","https://test12345.live/?num_scrambled_semantic=8&num_scrambled_causal=4&num_scrambled_schematic=4&participantId=79D31F59DA52464CA72D9D2C41156385&assignmentId=b0de1555-d2be-4e6c-b389-7cac0daa9b8b&projectId=a9f3d40c-5730-405c-b25e-1034c4c56f3f","79D31F59DA52464CA72D9D2C41156385-2025-08-07-19-02-10","","null","","images/causal_sequence/dog_causal/dog_causal_9.png","null","",""
"","","","","","image-button-response","114","490947","0.0-14.0-1.0-1.8","79D31F59DA52464CA72D9D2C41156385","79D31F59DA52464CA72D9D2C41156385","b0de1555-d2be-4e6c-b389-7cac0daa9b8b","a9f3d40c-5730-405c-b25e-1034c4c56f3f","{""num_scrambled_semantic"":""8"",""num_scrambled_causal"":""4"",""num_scrambled_schematic"":""4"",""participantId"":""79D31F59DA52464CA72D9D2C41156385"",""assignmentId"":""b0de1555-d2be-4e6c-b389-7cac0daa9b8b"",""projectId"":""a9f3d40c-5730-405c-b25e-1034c4c56f3f""}","https://test12345.live/?num_scrambled_semantic=8&num_scrambled_causal=4&num_scrambled_schematic=4&participantId=79D31F59DA52464CA72D9D2C41156385&assignmentId=b0de1555-d2be-4e6c-b389-7cac0daa9b8b&projectId=a9f3d40c-5730-405c-b25e-1034c4c56f3f","79D31F59DA52464CA72D9D2C41156385-2025-08-07-19-02-10","","932","","images/causal_sequence/dog_causal/dog_causal_9.png","0","",""
