"success","timeout","failed_images","failed_audio","failed_video","trial_type","trial_index","time_elapsed","internal_node_id","subject","subject_id","study_id","session_id","urlvar","current_url","audio_id","view_history","rt","device_id","stimulus","response","estimated_stimulus_onset","seq_name"
"true","false","[]","[]","[]","preload","0","2741","0.0-0.0","7A2FD3C07D83434E8933F2F44369452E","7A2FD3C07D83434E8933F2F44369452E","0198be2b-8911-71bf-ab63-c315e7e28f10","0198be1d-574a-752e-ae53-1d263a30e856","{""num_scrambled_semantic"":""8"",""num_scrambled_causal"":""4"",""num_scrambled_schematic"":""4"",""participantId"":""7A2FD3C07D83434E8933F2F44369452E"",""assignmentId"":""0198be2b-8911-71bf-ab63-c315e7e28f10"",""projectId"":""0198be1d-574a-752e-ae53-1d263a30e856""}","https://test12345.live/?num_scrambled_semantic=8&num_scrambled_causal=4&num_scrambled_schematic=4&participantId=7A2FD3C07D83434E8933F2F44369452E&assignmentId=0198be2b-8911-71bf-ab63-c315e7e28f10&projectId=0198be1d-574a-752e-ae53-1d263a30e856","7A2FD3C07D83434E8933F2F44369452E-2025-08-18-18-04-52","","","","","","",""
"","","","","","instructions","1","722969","0.0-1.0","7A2FD3C07D83434E8933F2F44369452E","7A2FD3C07D83434E8933F2F44369452E","0198be2b-8911-71bf-ab63-c315e7e28f10","0198be1d-574a-752e-ae53-1d263a30e856","{""num_scrambled_semantic"":""8"",""num_scrambled_causal"":""4"",""num_scrambled_schematic"":""4"",""participantId"":""7A2FD3C07D83434E8933F2F44369452E"",""assignmentId"":""0198be2b-8911-71bf-ab63-c315e7e28f10"",""projectId"":""0198be1d-574a-752e-ae53-1d263a30e856""}","https://test12345.live/?num_scrambled_semantic=8&num_scrambled_causal=4&num_scrambled_schematic=4&participantId=7A2FD3C07D83434E8933F2F44369452E&assignmentId=0198be2b-8911-71bf-ab63-c315e7e28f10&projectId=0198be1d-574a-752e-ae53-1d263a30e856","7A2FD3C07D83434E8933F2F44369452E-2025-08-18-18-04-52","[{""page_index"":0,""viewing_time"":720227}]","720227","","","","",""
"","","","","","instructions","2","820517","0.0-2.0","7A2FD3C07D83434E8933F2F44369452E","7A2FD3C07D83434E8933F2F44369452E","0198be2b-8911-71bf-ab63-c315e7e28f10","0198be1d-574a-752e-ae53-1d263a30e856","{""num_scrambled_semantic"":""8"",""num_scrambled_causal"":""4"",""num_scrambled_schematic"":""4"",""participantId"":""7A2FD3C07D83434E8933F2F44369452E"",""assignmentId"":""0198be2b-8911-71bf-ab63-c315e7e28f10"",""projectId"":""0198be1d-574a-752e-ae53-1d263a30e856""}","https://test12345.live/?num_scrambled_semantic=8&num_scrambled_causal=4&num_scrambled_schematic=4&participantId=7A2FD3C07D83434E8933F2F44369452E&assignmentId=0198be2b-8911-71bf-ab63-c315e7e28f10&projectId=0198be1d-574a-752e-ae53-1d263a30e856","7A2FD3C07D83434E8933F2F44369452E-2025-08-18-18-04-52","[{""page_index"":0,""viewing_time"":97547}]","97548","","","","",""
"true","","","","","fullscreen","3","828249","0.0-3.0","7A2FD3C07D83434E8933F2F44369452E","7A2FD3C07D83434E8933F2F44369452E","0198be2b-8911-71bf-ab63-c315e7e28f10","0198be1d-574a-752e-ae53-1d263a30e856","{""num_scrambled_semantic"":""8"",""num_scrambled_causal"":""4"",""num_scrambled_schematic"":""4"",""participantId"":""7A2FD3C07D83434E8933F2F44369452E"",""assignmentId"":""0198be2b-8911-71bf-ab63-c315e7e28f10"",""projectId"":""0198be1d-574a-752e-ae53-1d263a30e856""}","https://test12345.live/?num_scrambled_semantic=8&num_scrambled_causal=4&num_scrambled_schematic=4&participantId=7A2FD3C07D83434E8933F2F44369452E&assignmentId=0198be2b-8911-71bf-ab63-c315e7e28f10&projectId=0198be1d-574a-752e-ae53-1d263a30e856","7A2FD3C07D83434E8933F2F44369452E-2025-08-18-18-04-52","","6717","","","","",""
"","","","","","initialize-microphone","4","839099","0.0-4.0-0.0","7A2FD3C07D83434E8933F2F44369452E","7A2FD3C07D83434E8933F2F44369452E","0198be2b-8911-71bf-ab63-c315e7e28f10","0198be1d-574a-752e-ae53-1d263a30e856","{""num_scrambled_semantic"":""8"",""num_scrambled_causal"":""4"",""num_scrambled_schematic"":""4"",""participantId"":""7A2FD3C07D83434E8933F2F44369452E"",""assignmentId"":""0198be2b-8911-71bf-ab63-c315e7e28f10"",""projectId"":""0198be1d-574a-752e-ae53-1d263a30e856""}","https://test12345.live/?num_scrambled_semantic=8&num_scrambled_causal=4&num_scrambled_schematic=4&participantId=7A2FD3C07D83434E8933F2F44369452E&assignmentId=0198be2b-8911-71bf-ab63-c315e7e28f10&projectId=0198be1d-574a-752e-ae53-1d263a30e856","7A2FD3C07D83434E8933F2F44369452E-2025-08-18-18-04-52","","","fa88b3ae816f8674ebe2de26d6ac07dd325128c84051942ec4d1eeefbfe645f1","","","",""
"","","","","","html-audio-response","5","866884","0.0-4.0-1.0","7A2FD3C07D83434E8933F2F44369452E","7A2FD3C07D83434E8933F2F44369452E","0198be2b-8911-71bf-ab63-c315e7e28f10","0198be1d-574a-752e-ae53-1d263a30e856","{""num_scrambled_semantic"":""8"",""num_scrambled_causal"":""4"",""num_scrambled_schematic"":""4"",""participantId"":""7A2FD3C07D83434E8933F2F44369452E"",""assignmentId"":""0198be2b-8911-71bf-ab63-c315e7e28f10"",""projectId"":""0198be1d-574a-752e-ae53-1d263a30e856""}","https://test12345.live/?num_scrambled_semantic=8&num_scrambled_causal=4&num_scrambled_schematic=4&participantId=7A2FD3C07D83434E8933F2F44369452E&assignmentId=0198be2b-8911-71bf-ab63-c315e7e28f10&projectId=0198be1d-574a-752e-ae53-1d263a30e856","7A2FD3C07D83434E8933F2F44369452E-2025-08-18-18-04-52","","14309","","<span style=""color: red; font-size: 24px""> NOW RECORDING</span>
        <p>Please test Microphone</p>","","8",""
"","","","","","html-button-response","6","869679","0.0-4.0-2.0","7A2FD3C07D83434E8933F2F44369452E","7A2FD3C07D83434E8933F2F44369452E","0198be2b-8911-71bf-ab63-c315e7e28f10","0198be1d-574a-752e-ae53-1d263a30e856","{""num_scrambled_semantic"":""8"",""num_scrambled_causal"":""4"",""num_scrambled_schematic"":""4"",""participantId"":""7A2FD3C07D83434E8933F2F44369452E"",""assignmentId"":""0198be2b-8911-71bf-ab63-c315e7e28f10"",""projectId"":""0198be1d-574a-752e-ae53-1d263a30e856""}","https://test12345.live/?num_scrambled_semantic=8&num_scrambled_causal=4&num_scrambled_schematic=4&participantId=7A2FD3C07D83434E8933F2F44369452E&assignmentId=0198be2b-8911-71bf-ab63-c315e7e28f10&projectId=0198be1d-574a-752e-ae53-1d263a30e856","7A2FD3C07D83434E8933F2F44369452E-2025-08-18-18-04-52","","2793","","<p style=""font-size:48px; color:red;"">Is Microphone OK?</p>","1","",""
"","","","","","instructions","7","892947","0.0-5.0","7A2FD3C07D83434E8933F2F44369452E","7A2FD3C07D83434E8933F2F44369452E","0198be2b-8911-71bf-ab63-c315e7e28f10","0198be1d-574a-752e-ae53-1d263a30e856","{""num_scrambled_semantic"":""8"",""num_scrambled_causal"":""4"",""num_scrambled_schematic"":""4"",""participantId"":""7A2FD3C07D83434E8933F2F44369452E"",""assignmentId"":""0198be2b-8911-71bf-ab63-c315e7e28f10"",""projectId"":""0198be1d-574a-752e-ae53-1d263a30e856""}","https://test12345.live/?num_scrambled_semantic=8&num_scrambled_causal=4&num_scrambled_schematic=4&participantId=7A2FD3C07D83434E8933F2F44369452E&assignmentId=0198be2b-8911-71bf-ab63-c315e7e28f10&projectId=0198be1d-574a-752e-ae53-1d263a30e856","7A2FD3C07D83434E8933F2F44369452E-2025-08-18-18-04-52","[{""page_index"":0,""viewing_time"":6129},{""page_index"":1,""viewing_time"":17139}]","23268","","","","",""
"","","","","","image-button-response","8","898957","0.0-6.0-0.0","7A2FD3C07D83434E8933F2F44369452E","7A2FD3C07D83434E8933F2F44369452E","0198be2b-8911-71bf-ab63-c315e7e28f10","0198be1d-574a-752e-ae53-1d263a30e856","{""num_scrambled_semantic"":""8"",""num_scrambled_causal"":""4"",""num_scrambled_schematic"":""4"",""participantId"":""7A2FD3C07D83434E8933F2F44369452E"",""assignmentId"":""0198be2b-8911-71bf-ab63-c315e7e28f10"",""projectId"":""0198be1d-574a-752e-ae53-1d263a30e856""}","https://test12345.live/?num_scrambled_semantic=8&num_scrambled_causal=4&num_scrambled_schematic=4&participantId=7A2FD3C07D83434E8933F2F44369452E&assignmentId=0198be2b-8911-71bf-ab63-c315e7e28f10&projectId=0198be1d-574a-752e-ae53-1d263a30e856","7A2FD3C07D83434E8933F2F44369452E-2025-08-18-18-04-52","","null","","images/instructions/movie_0.png","null","",""
"","","","","","image-button-response","9","903461","0.0-6.0-1.0-0.0","7A2FD3C07D83434E8933F2F44369452E","7A2FD3C07D83434E8933F2F44369452E","0198be2b-8911-71bf-ab63-c315e7e28f10","0198be1d-574a-752e-ae53-1d263a30e856","{""num_scrambled_semantic"":""8"",""num_scrambled_causal"":""4"",""num_scrambled_schematic"":""4"",""participantId"":""7A2FD3C07D83434E8933F2F44369452E"",""assignmentId"":""0198be2b-8911-71bf-ab63-c315e7e28f10"",""projectId"":""0198be1d-574a-752e-ae53-1d263a30e856""}","https://test12345.live/?num_scrambled_semantic=8&num_scrambled_causal=4&num_scrambled_schematic=4&participantId=7A2FD3C07D83434E8933F2F44369452E&assignmentId=0198be2b-8911-71bf-ab63-c315e7e28f10&projectId=0198be1d-574a-752e-ae53-1d263a30e856","7A2FD3C07D83434E8933F2F44369452E-2025-08-18-18-04-52","","null","","images/instructions/movie_1.png","null","",""
"","","","","","image-button-response","10","907465","0.0-6.0-1.0-1.0","7A2FD3C07D83434E8933F2F44369452E","7A2FD3C07D83434E8933F2F44369452E","0198be2b-8911-71bf-ab63-c315e7e28f10","0198be1d-574a-752e-ae53-1d263a30e856","{""num_scrambled_semantic"":""8"",""num_scrambled_causal"":""4"",""num_scrambled_schematic"":""4"",""participantId"":""7A2FD3C07D83434E8933F2F44369452E"",""assignmentId"":""0198be2b-8911-71bf-ab63-c315e7e28f10"",""projectId"":""0198be1d-574a-752e-ae53-1d263a30e856""}","https://test12345.live/?num_scrambled_semantic=8&num_scrambled_causal=4&num_scrambled_schematic=4&participantId=7A2FD3C07D83434E8933F2F44369452E&assignmentId=0198be2b-8911-71bf-ab63-c315e7e28f10&projectId=0198be1d-574a-752e-ae53-1d263a30e856","7A2FD3C07D83434E8933F2F44369452E-2025-08-18-18-04-52","","null","","images/instructions/movie_1.png","null","",""
"","","","","","image-button-response","11","918268","0.0-6.0-1.0-2.0","7A2FD3C07D83434E8933F2F44369452E","7A2FD3C07D83434E8933F2F44369452E","0198be2b-8911-71bf-ab63-c315e7e28f10","0198be1d-574a-752e-ae53-1d263a30e856","{""num_scrambled_semantic"":""8"",""num_scrambled_causal"":""4"",""num_scrambled_schematic"":""4"",""participantId"":""7A2FD3C07D83434E8933F2F44369452E"",""assignmentId"":""0198be2b-8911-71bf-ab63-c315e7e28f10"",""projectId"":""0198be1d-574a-752e-ae53-1d263a30e856""}","https://test12345.live/?num_scrambled_semantic=8&num_scrambled_causal=4&num_scrambled_schematic=4&participantId=7A2FD3C07D83434E8933F2F44369452E&assignmentId=0198be2b-8911-71bf-ab63-c315e7e28f10&projectId=0198be1d-574a-752e-ae53-1d263a30e856","7A2FD3C07D83434E8933F2F44369452E-2025-08-18-18-04-52","","null","","[]","null","",""
"","","","","","image-button-response","12","922772","0.0-6.0-1.0-0.1","7A2FD3C07D83434E8933F2F44369452E","7A2FD3C07D83434E8933F2F44369452E","0198be2b-8911-71bf-ab63-c315e7e28f10","0198be1d-574a-752e-ae53-1d263a30e856","{""num_scrambled_semantic"":""8"",""num_scrambled_causal"":""4"",""num_scrambled_schematic"":""4"",""participantId"":""7A2FD3C07D83434E8933F2F44369452E"",""assignmentId"":""0198be2b-8911-71bf-ab63-c315e7e28f10"",""projectId"":""0198be1d-574a-752e-ae53-1d263a30e856""}","https://test12345.live/?num_scrambled_semantic=8&num_scrambled_causal=4&num_scrambled_schematic=4&participantId=7A2FD3C07D83434E8933F2F44369452E&assignmentId=0198be2b-8911-71bf-ab63-c315e7e28f10&projectId=0198be1d-574a-752e-ae53-1d263a30e856","7A2FD3C07D83434E8933F2F44369452E-2025-08-18-18-04-52","","null","","images/instructions/movie_2.png","null","",""
"","","","","","image-button-response","13","925558","0.0-6.0-1.0-1.1","7A2FD3C07D83434E8933F2F44369452E","7A2FD3C07D83434E8933F2F44369452E","0198be2b-8911-71bf-ab63-c315e7e28f10","0198be1d-574a-752e-ae53-1d263a30e856","{""num_scrambled_semantic"":""8"",""num_scrambled_causal"":""4"",""num_scrambled_schematic"":""4"",""participantId"":""7A2FD3C07D83434E8933F2F44369452E"",""assignmentId"":""0198be2b-8911-71bf-ab63-c315e7e28f10"",""projectId"":""0198be1d-574a-752e-ae53-1d263a30e856""}","https://test12345.live/?num_scrambled_semantic=8&num_scrambled_causal=4&num_scrambled_schematic=4&participantId=7A2FD3C07D83434E8933F2F44369452E&assignmentId=0198be2b-8911-71bf-ab63-c315e7e28f10&projectId=0198be1d-574a-752e-ae53-1d263a30e856","7A2FD3C07D83434E8933F2F44369452E-2025-08-18-18-04-52","","2785","","images/instructions/movie_2.png","1","",""
"","","","","","image-button-response","14","936368","0.0-6.0-1.0-2.1","7A2FD3C07D83434E8933F2F44369452E","7A2FD3C07D83434E8933F2F44369452E","0198be2b-8911-71bf-ab63-c315e7e28f10","0198be1d-574a-752e-ae53-1d263a30e856","{""num_scrambled_semantic"":""8"",""num_scrambled_causal"":""4"",""num_scrambled_schematic"":""4"",""participantId"":""7A2FD3C07D83434E8933F2F44369452E"",""assignmentId"":""0198be2b-8911-71bf-ab63-c315e7e28f10"",""projectId"":""0198be1d-574a-752e-ae53-1d263a30e856""}","https://test12345.live/?num_scrambled_semantic=8&num_scrambled_causal=4&num_scrambled_schematic=4&participantId=7A2FD3C07D83434E8933F2F44369452E&assignmentId=0198be2b-8911-71bf-ab63-c315e7e28f10&projectId=0198be1d-574a-752e-ae53-1d263a30e856","7A2FD3C07D83434E8933F2F44369452E-2025-08-18-18-04-52","","null","","[]","null","",""
"","","","","","image-button-response","15","940870","0.0-6.0-1.0-0.2","7A2FD3C07D83434E8933F2F44369452E","7A2FD3C07D83434E8933F2F44369452E","0198be2b-8911-71bf-ab63-c315e7e28f10","0198be1d-574a-752e-ae53-1d263a30e856","{""num_scrambled_semantic"":""8"",""num_scrambled_causal"":""4"",""num_scrambled_schematic"":""4"",""participantId"":""7A2FD3C07D83434E8933F2F44369452E"",""assignmentId"":""0198be2b-8911-71bf-ab63-c315e7e28f10"",""projectId"":""0198be1d-574a-752e-ae53-1d263a30e856""}","https://test12345.live/?num_scrambled_semantic=8&num_scrambled_causal=4&num_scrambled_schematic=4&participantId=7A2FD3C07D83434E8933F2F44369452E&assignmentId=0198be2b-8911-71bf-ab63-c315e7e28f10&projectId=0198be1d-574a-752e-ae53-1d263a30e856","7A2FD3C07D83434E8933F2F44369452E-2025-08-18-18-04-52","","null","","images/instructions/movie_3.png","null","",""
"","","","","","image-button-response","16","942452","0.0-6.0-1.0-1.2","7A2FD3C07D83434E8933F2F44369452E","7A2FD3C07D83434E8933F2F44369452E","0198be2b-8911-71bf-ab63-c315e7e28f10","0198be1d-574a-752e-ae53-1d263a30e856","{""num_scrambled_semantic"":""8"",""num_scrambled_causal"":""4"",""num_scrambled_schematic"":""4"",""participantId"":""7A2FD3C07D83434E8933F2F44369452E"",""assignmentId"":""0198be2b-8911-71bf-ab63-c315e7e28f10"",""projectId"":""0198be1d-574a-752e-ae53-1d263a30e856""}","https://test12345.live/?num_scrambled_semantic=8&num_scrambled_causal=4&num_scrambled_schematic=4&participantId=7A2FD3C07D83434E8933F2F44369452E&assignmentId=0198be2b-8911-71bf-ab63-c315e7e28f10&projectId=0198be1d-574a-752e-ae53-1d263a30e856","7A2FD3C07D83434E8933F2F44369452E-2025-08-18-18-04-52","","1580","","images/instructions/movie_3.png","0","",""
"","","","","","image-button-response","17","953260","0.0-6.0-1.0-2.2","7A2FD3C07D83434E8933F2F44369452E","7A2FD3C07D83434E8933F2F44369452E","0198be2b-8911-71bf-ab63-c315e7e28f10","0198be1d-574a-752e-ae53-1d263a30e856","{""num_scrambled_semantic"":""8"",""num_scrambled_causal"":""4"",""num_scrambled_schematic"":""4"",""participantId"":""7A2FD3C07D83434E8933F2F44369452E"",""assignmentId"":""0198be2b-8911-71bf-ab63-c315e7e28f10"",""projectId"":""0198be1d-574a-752e-ae53-1d263a30e856""}","https://test12345.live/?num_scrambled_semantic=8&num_scrambled_causal=4&num_scrambled_schematic=4&participantId=7A2FD3C07D83434E8933F2F44369452E&assignmentId=0198be2b-8911-71bf-ab63-c315e7e28f10&projectId=0198be1d-574a-752e-ae53-1d263a30e856","7A2FD3C07D83434E8933F2F44369452E-2025-08-18-18-04-52","","null","","[]","null","",""
"","","","","","image-button-response","18","957769","0.0-6.0-1.0-0.3","7A2FD3C07D83434E8933F2F44369452E","7A2FD3C07D83434E8933F2F44369452E","0198be2b-8911-71bf-ab63-c315e7e28f10","0198be1d-574a-752e-ae53-1d263a30e856","{""num_scrambled_semantic"":""8"",""num_scrambled_causal"":""4"",""num_scrambled_schematic"":""4"",""participantId"":""7A2FD3C07D83434E8933F2F44369452E"",""assignmentId"":""0198be2b-8911-71bf-ab63-c315e7e28f10"",""projectId"":""0198be1d-574a-752e-ae53-1d263a30e856""}","https://test12345.live/?num_scrambled_semantic=8&num_scrambled_causal=4&num_scrambled_schematic=4&participantId=7A2FD3C07D83434E8933F2F44369452E&assignmentId=0198be2b-8911-71bf-ab63-c315e7e28f10&projectId=0198be1d-574a-752e-ae53-1d263a30e856","7A2FD3C07D83434E8933F2F44369452E-2025-08-18-18-04-52","","null","","images/instructions/movie_4.png","null","",""
"","","","","","image-button-response","19","959459","0.0-6.0-1.0-1.3","7A2FD3C07D83434E8933F2F44369452E","7A2FD3C07D83434E8933F2F44369452E","0198be2b-8911-71bf-ab63-c315e7e28f10","0198be1d-574a-752e-ae53-1d263a30e856","{""num_scrambled_semantic"":""8"",""num_scrambled_causal"":""4"",""num_scrambled_schematic"":""4"",""participantId"":""7A2FD3C07D83434E8933F2F44369452E"",""assignmentId"":""0198be2b-8911-71bf-ab63-c315e7e28f10"",""projectId"":""0198be1d-574a-752e-ae53-1d263a30e856""}","https://test12345.live/?num_scrambled_semantic=8&num_scrambled_causal=4&num_scrambled_schematic=4&participantId=7A2FD3C07D83434E8933F2F44369452E&assignmentId=0198be2b-8911-71bf-ab63-c315e7e28f10&projectId=0198be1d-574a-752e-ae53-1d263a30e856","7A2FD3C07D83434E8933F2F44369452E-2025-08-18-18-04-52","","1689","","images/instructions/movie_4.png","0","",""
"","","","","","image-button-response","20","970262","0.0-6.0-1.0-2.3","7A2FD3C07D83434E8933F2F44369452E","7A2FD3C07D83434E8933F2F44369452E","0198be2b-8911-71bf-ab63-c315e7e28f10","0198be1d-574a-752e-ae53-1d263a30e856","{""num_scrambled_semantic"":""8"",""num_scrambled_causal"":""4"",""num_scrambled_schematic"":""4"",""participantId"":""7A2FD3C07D83434E8933F2F44369452E"",""assignmentId"":""0198be2b-8911-71bf-ab63-c315e7e28f10"",""projectId"":""0198be1d-574a-752e-ae53-1d263a30e856""}","https://test12345.live/?num_scrambled_semantic=8&num_scrambled_causal=4&num_scrambled_schematic=4&participantId=7A2FD3C07D83434E8933F2F44369452E&assignmentId=0198be2b-8911-71bf-ab63-c315e7e28f10&projectId=0198be1d-574a-752e-ae53-1d263a30e856","7A2FD3C07D83434E8933F2F44369452E-2025-08-18-18-04-52","","null","","[]","null","",""
"","","","","","instructions","21","1001778","0.0-7.0","7A2FD3C07D83434E8933F2F44369452E","7A2FD3C07D83434E8933F2F44369452E","0198be2b-8911-71bf-ab63-c315e7e28f10","0198be1d-574a-752e-ae53-1d263a30e856","{""num_scrambled_semantic"":""8"",""num_scrambled_causal"":""4"",""num_scrambled_schematic"":""4"",""participantId"":""7A2FD3C07D83434E8933F2F44369452E"",""assignmentId"":""0198be2b-8911-71bf-ab63-c315e7e28f10"",""projectId"":""0198be1d-574a-752e-ae53-1d263a30e856""}","https://test12345.live/?num_scrambled_semantic=8&num_scrambled_causal=4&num_scrambled_schematic=4&participantId=7A2FD3C07D83434E8933F2F44369452E&assignmentId=0198be2b-8911-71bf-ab63-c315e7e28f10&projectId=0198be1d-574a-752e-ae53-1d263a30e856","7A2FD3C07D83434E8933F2F44369452E-2025-08-18-18-04-52","[{""page_index"":0,""viewing_time"":30004},{""page_index"":1,""viewing_time"":1511}]","31516","","","","",""
"","","","","","html-audio-response","22","1053393","0.0-8.0","7A2FD3C07D83434E8933F2F44369452E","7A2FD3C07D83434E8933F2F44369452E","0198be2b-8911-71bf-ab63-c315e7e28f10","0198be1d-574a-752e-ae53-1d263a30e856","{""num_scrambled_semantic"":""8"",""num_scrambled_causal"":""4"",""num_scrambled_schematic"":""4"",""participantId"":""7A2FD3C07D83434E8933F2F44369452E"",""assignmentId"":""0198be2b-8911-71bf-ab63-c315e7e28f10"",""projectId"":""0198be1d-574a-752e-ae53-1d263a30e856""}","https://test12345.live/?num_scrambled_semantic=8&num_scrambled_causal=4&num_scrambled_schematic=4&participantId=7A2FD3C07D83434E8933F2F44369452E&assignmentId=0198be2b-8911-71bf-ab63-c315e7e28f10&projectId=0198be1d-574a-752e-ae53-1d263a30e856","7A2FD3C07D83434E8933F2F44369452E-2025-08-18-18-04-52","","24502","","[""<span style=\""color: red; font-size: 24px\""> NOW RECORDING</span><p>Please say out loud all the images you saw in the exact order you saw them. Try to recall as many images as you can, but remember: getting the order right is more important than the number of images you recall.</p>""]","","2",""
"","","","","","instructions","23","1056402","0.0-9.0","7A2FD3C07D83434E8933F2F44369452E","7A2FD3C07D83434E8933F2F44369452E","0198be2b-8911-71bf-ab63-c315e7e28f10","0198be1d-574a-752e-ae53-1d263a30e856","{""num_scrambled_semantic"":""8"",""num_scrambled_causal"":""4"",""num_scrambled_schematic"":""4"",""participantId"":""7A2FD3C07D83434E8933F2F44369452E"",""assignmentId"":""0198be2b-8911-71bf-ab63-c315e7e28f10"",""projectId"":""0198be1d-574a-752e-ae53-1d263a30e856""}","https://test12345.live/?num_scrambled_semantic=8&num_scrambled_causal=4&num_scrambled_schematic=4&participantId=7A2FD3C07D83434E8933F2F44369452E&assignmentId=0198be2b-8911-71bf-ab63-c315e7e28f10&projectId=0198be1d-574a-752e-ae53-1d263a30e856","7A2FD3C07D83434E8933F2F44369452E-2025-08-18-18-04-52","[{""page_index"":0,""viewing_time"":3000}]","3000","","","","",""
"","","","","","image-button-response","24","1062420","0.0-10.0-0.0","7A2FD3C07D83434E8933F2F44369452E","7A2FD3C07D83434E8933F2F44369452E","0198be2b-8911-71bf-ab63-c315e7e28f10","0198be1d-574a-752e-ae53-1d263a30e856","{""num_scrambled_semantic"":""8"",""num_scrambled_causal"":""4"",""num_scrambled_schematic"":""4"",""participantId"":""7A2FD3C07D83434E8933F2F44369452E"",""assignmentId"":""0198be2b-8911-71bf-ab63-c315e7e28f10"",""projectId"":""0198be1d-574a-752e-ae53-1d263a30e856""}","https://test12345.live/?num_scrambled_semantic=8&num_scrambled_causal=4&num_scrambled_schematic=4&participantId=7A2FD3C07D83434E8933F2F44369452E&assignmentId=0198be2b-8911-71bf-ab63-c315e7e28f10&projectId=0198be1d-574a-752e-ae53-1d263a30e856","7A2FD3C07D83434E8933F2F44369452E-2025-08-18-18-04-52","","null","","images/semantic_sequence/redecorating_semantic/redecorating_semantic_0.png","null","",""
"","","","","","image-button-response","25","1066936","0.0-10.0-1.0-0.0","7A2FD3C07D83434E8933F2F44369452E","7A2FD3C07D83434E8933F2F44369452E","0198be2b-8911-71bf-ab63-c315e7e28f10","0198be1d-574a-752e-ae53-1d263a30e856","{""num_scrambled_semantic"":""8"",""num_scrambled_causal"":""4"",""num_scrambled_schematic"":""4"",""participantId"":""7A2FD3C07D83434E8933F2F44369452E"",""assignmentId"":""0198be2b-8911-71bf-ab63-c315e7e28f10"",""projectId"":""0198be1d-574a-752e-ae53-1d263a30e856""}","https://test12345.live/?num_scrambled_semantic=8&num_scrambled_causal=4&num_scrambled_schematic=4&participantId=7A2FD3C07D83434E8933F2F44369452E&assignmentId=0198be2b-8911-71bf-ab63-c315e7e28f10&projectId=0198be1d-574a-752e-ae53-1d263a30e856","7A2FD3C07D83434E8933F2F44369452E-2025-08-18-18-04-52","","null","","images/semantic_sequence/redecorating_semantic/redecorating_semantic_ten.png","null","",""
"","","","","","image-button-response","26","1069473","0.0-10.0-1.0-1.0","7A2FD3C07D83434E8933F2F44369452E","7A2FD3C07D83434E8933F2F44369452E","0198be2b-8911-71bf-ab63-c315e7e28f10","0198be1d-574a-752e-ae53-1d263a30e856","{""num_scrambled_semantic"":""8"",""num_scrambled_causal"":""4"",""num_scrambled_schematic"":""4"",""participantId"":""7A2FD3C07D83434E8933F2F44369452E"",""assignmentId"":""0198be2b-8911-71bf-ab63-c315e7e28f10"",""projectId"":""0198be1d-574a-752e-ae53-1d263a30e856""}","https://test12345.live/?num_scrambled_semantic=8&num_scrambled_causal=4&num_scrambled_schematic=4&participantId=7A2FD3C07D83434E8933F2F44369452E&assignmentId=0198be2b-8911-71bf-ab63-c315e7e28f10&projectId=0198be1d-574a-752e-ae53-1d263a30e856","7A2FD3C07D83434E8933F2F44369452E-2025-08-18-18-04-52","","2536","","images/semantic_sequence/redecorating_semantic/redecorating_semantic_ten.png","0","",""
"","","","","","image-button-response","27","1080286","0.0-10.0-1.0-2.0","7A2FD3C07D83434E8933F2F44369452E","7A2FD3C07D83434E8933F2F44369452E","0198be2b-8911-71bf-ab63-c315e7e28f10","0198be1d-574a-752e-ae53-1d263a30e856","{""num_scrambled_semantic"":""8"",""num_scrambled_causal"":""4"",""num_scrambled_schematic"":""4"",""participantId"":""7A2FD3C07D83434E8933F2F44369452E"",""assignmentId"":""0198be2b-8911-71bf-ab63-c315e7e28f10"",""projectId"":""0198be1d-574a-752e-ae53-1d263a30e856""}","https://test12345.live/?num_scrambled_semantic=8&num_scrambled_causal=4&num_scrambled_schematic=4&participantId=7A2FD3C07D83434E8933F2F44369452E&assignmentId=0198be2b-8911-71bf-ab63-c315e7e28f10&projectId=0198be1d-574a-752e-ae53-1d263a30e856","7A2FD3C07D83434E8933F2F44369452E-2025-08-18-18-04-52","","null","","[]","null","",""
"","","","","","image-button-response","28","1084789","0.0-10.0-1.0-0.1","7A2FD3C07D83434E8933F2F44369452E","7A2FD3C07D83434E8933F2F44369452E","0198be2b-8911-71bf-ab63-c315e7e28f10","0198be1d-574a-752e-ae53-1d263a30e856","{""num_scrambled_semantic"":""8"",""num_scrambled_causal"":""4"",""num_scrambled_schematic"":""4"",""participantId"":""7A2FD3C07D83434E8933F2F44369452E"",""assignmentId"":""0198be2b-8911-71bf-ab63-c315e7e28f10"",""projectId"":""0198be1d-574a-752e-ae53-1d263a30e856""}","https://test12345.live/?num_scrambled_semantic=8&num_scrambled_causal=4&num_scrambled_schematic=4&participantId=7A2FD3C07D83434E8933F2F44369452E&assignmentId=0198be2b-8911-71bf-ab63-c315e7e28f10&projectId=0198be1d-574a-752e-ae53-1d263a30e856","7A2FD3C07D83434E8933F2F44369452E-2025-08-18-18-04-52","","null","","images/semantic_sequence/redecorating_semantic/redecorating_semantic_6.png","null","",""
"","","","","","image-button-response","29","1086563","0.0-10.0-1.0-1.1","7A2FD3C07D83434E8933F2F44369452E","7A2FD3C07D83434E8933F2F44369452E","0198be2b-8911-71bf-ab63-c315e7e28f10","0198be1d-574a-752e-ae53-1d263a30e856","{""num_scrambled_semantic"":""8"",""num_scrambled_causal"":""4"",""num_scrambled_schematic"":""4"",""participantId"":""7A2FD3C07D83434E8933F2F44369452E"",""assignmentId"":""0198be2b-8911-71bf-ab63-c315e7e28f10"",""projectId"":""0198be1d-574a-752e-ae53-1d263a30e856""}","https://test12345.live/?num_scrambled_semantic=8&num_scrambled_causal=4&num_scrambled_schematic=4&participantId=7A2FD3C07D83434E8933F2F44369452E&assignmentId=0198be2b-8911-71bf-ab63-c315e7e28f10&projectId=0198be1d-574a-752e-ae53-1d263a30e856","7A2FD3C07D83434E8933F2F44369452E-2025-08-18-18-04-52","","1772","","images/semantic_sequence/redecorating_semantic/redecorating_semantic_6.png","0","",""
"","","","","","image-button-response","30","1097378","0.0-10.0-1.0-2.1","7A2FD3C07D83434E8933F2F44369452E","7A2FD3C07D83434E8933F2F44369452E","0198be2b-8911-71bf-ab63-c315e7e28f10","0198be1d-574a-752e-ae53-1d263a30e856","{""num_scrambled_semantic"":""8"",""num_scrambled_causal"":""4"",""num_scrambled_schematic"":""4"",""participantId"":""7A2FD3C07D83434E8933F2F44369452E"",""assignmentId"":""0198be2b-8911-71bf-ab63-c315e7e28f10"",""projectId"":""0198be1d-574a-752e-ae53-1d263a30e856""}","https://test12345.live/?num_scrambled_semantic=8&num_scrambled_causal=4&num_scrambled_schematic=4&participantId=7A2FD3C07D83434E8933F2F44369452E&assignmentId=0198be2b-8911-71bf-ab63-c315e7e28f10&projectId=0198be1d-574a-752e-ae53-1d263a30e856","7A2FD3C07D83434E8933F2F44369452E-2025-08-18-18-04-52","","null","","[]","null","",""
"","","","","","image-button-response","31","1101896","0.0-10.0-1.0-0.2","7A2FD3C07D83434E8933F2F44369452E","7A2FD3C07D83434E8933F2F44369452E","0198be2b-8911-71bf-ab63-c315e7e28f10","0198be1d-574a-752e-ae53-1d263a30e856","{""num_scrambled_semantic"":""8"",""num_scrambled_causal"":""4"",""num_scrambled_schematic"":""4"",""participantId"":""7A2FD3C07D83434E8933F2F44369452E"",""assignmentId"":""0198be2b-8911-71bf-ab63-c315e7e28f10"",""projectId"":""0198be1d-574a-752e-ae53-1d263a30e856""}","https://test12345.live/?num_scrambled_semantic=8&num_scrambled_causal=4&num_scrambled_schematic=4&participantId=7A2FD3C07D83434E8933F2F44369452E&assignmentId=0198be2b-8911-71bf-ab63-c315e7e28f10&projectId=0198be1d-574a-752e-ae53-1d263a30e856","7A2FD3C07D83434E8933F2F44369452E-2025-08-18-18-04-52","","null","","images/semantic_sequence/redecorating_semantic/redecorating_semantic_7.png","null","",""
"","","","","","image-button-response","32","1104183","0.0-10.0-1.0-1.2","7A2FD3C07D83434E8933F2F44369452E","7A2FD3C07D83434E8933F2F44369452E","0198be2b-8911-71bf-ab63-c315e7e28f10","0198be1d-574a-752e-ae53-1d263a30e856","{""num_scrambled_semantic"":""8"",""num_scrambled_causal"":""4"",""num_scrambled_schematic"":""4"",""participantId"":""7A2FD3C07D83434E8933F2F44369452E"",""assignmentId"":""0198be2b-8911-71bf-ab63-c315e7e28f10"",""projectId"":""0198be1d-574a-752e-ae53-1d263a30e856""}","https://test12345.live/?num_scrambled_semantic=8&num_scrambled_causal=4&num_scrambled_schematic=4&participantId=7A2FD3C07D83434E8933F2F44369452E&assignmentId=0198be2b-8911-71bf-ab63-c315e7e28f10&projectId=0198be1d-574a-752e-ae53-1d263a30e856","7A2FD3C07D83434E8933F2F44369452E-2025-08-18-18-04-52","","2284","","images/semantic_sequence/redecorating_semantic/redecorating_semantic_7.png","0","",""
"","","","","","image-button-response","33","1114985","0.0-10.0-1.0-2.2","7A2FD3C07D83434E8933F2F44369452E","7A2FD3C07D83434E8933F2F44369452E","0198be2b-8911-71bf-ab63-c315e7e28f10","0198be1d-574a-752e-ae53-1d263a30e856","{""num_scrambled_semantic"":""8"",""num_scrambled_causal"":""4"",""num_scrambled_schematic"":""4"",""participantId"":""7A2FD3C07D83434E8933F2F44369452E"",""assignmentId"":""0198be2b-8911-71bf-ab63-c315e7e28f10"",""projectId"":""0198be1d-574a-752e-ae53-1d263a30e856""}","https://test12345.live/?num_scrambled_semantic=8&num_scrambled_causal=4&num_scrambled_schematic=4&participantId=7A2FD3C07D83434E8933F2F44369452E&assignmentId=0198be2b-8911-71bf-ab63-c315e7e28f10&projectId=0198be1d-574a-752e-ae53-1d263a30e856","7A2FD3C07D83434E8933F2F44369452E-2025-08-18-18-04-52","","null","","[]","null","",""
"","","","","","image-button-response","34","1119493","0.0-10.0-1.0-0.3","7A2FD3C07D83434E8933F2F44369452E","7A2FD3C07D83434E8933F2F44369452E","0198be2b-8911-71bf-ab63-c315e7e28f10","0198be1d-574a-752e-ae53-1d263a30e856","{""num_scrambled_semantic"":""8"",""num_scrambled_causal"":""4"",""num_scrambled_schematic"":""4"",""participantId"":""7A2FD3C07D83434E8933F2F44369452E"",""assignmentId"":""0198be2b-8911-71bf-ab63-c315e7e28f10"",""projectId"":""0198be1d-574a-752e-ae53-1d263a30e856""}","https://test12345.live/?num_scrambled_semantic=8&num_scrambled_causal=4&num_scrambled_schematic=4&participantId=7A2FD3C07D83434E8933F2F44369452E&assignmentId=0198be2b-8911-71bf-ab63-c315e7e28f10&projectId=0198be1d-574a-752e-ae53-1d263a30e856","7A2FD3C07D83434E8933F2F44369452E-2025-08-18-18-04-52","","null","","images/semantic_sequence/redecorating_semantic/redecorating_semantic_4.png","null","",""
"","","","","","image-button-response","35","1121443","0.0-10.0-1.0-1.3","7A2FD3C07D83434E8933F2F44369452E","7A2FD3C07D83434E8933F2F44369452E","0198be2b-8911-71bf-ab63-c315e7e28f10","0198be1d-574a-752e-ae53-1d263a30e856","{""num_scrambled_semantic"":""8"",""num_scrambled_causal"":""4"",""num_scrambled_schematic"":""4"",""participantId"":""7A2FD3C07D83434E8933F2F44369452E"",""assignmentId"":""0198be2b-8911-71bf-ab63-c315e7e28f10"",""projectId"":""0198be1d-574a-752e-ae53-1d263a30e856""}","https://test12345.live/?num_scrambled_semantic=8&num_scrambled_causal=4&num_scrambled_schematic=4&participantId=7A2FD3C07D83434E8933F2F44369452E&assignmentId=0198be2b-8911-71bf-ab63-c315e7e28f10&projectId=0198be1d-574a-752e-ae53-1d263a30e856","7A2FD3C07D83434E8933F2F44369452E-2025-08-18-18-04-52","","1949","","images/semantic_sequence/redecorating_semantic/redecorating_semantic_4.png","0","",""
"","","","","","image-button-response","36","1132246","0.0-10.0-1.0-2.3","7A2FD3C07D83434E8933F2F44369452E","7A2FD3C07D83434E8933F2F44369452E","0198be2b-8911-71bf-ab63-c315e7e28f10","0198be1d-574a-752e-ae53-1d263a30e856","{""num_scrambled_semantic"":""8"",""num_scrambled_causal"":""4"",""num_scrambled_schematic"":""4"",""participantId"":""7A2FD3C07D83434E8933F2F44369452E"",""assignmentId"":""0198be2b-8911-71bf-ab63-c315e7e28f10"",""projectId"":""0198be1d-574a-752e-ae53-1d263a30e856""}","https://test12345.live/?num_scrambled_semantic=8&num_scrambled_causal=4&num_scrambled_schematic=4&participantId=7A2FD3C07D83434E8933F2F44369452E&assignmentId=0198be2b-8911-71bf-ab63-c315e7e28f10&projectId=0198be1d-574a-752e-ae53-1d263a30e856","7A2FD3C07D83434E8933F2F44369452E-2025-08-18-18-04-52","","null","","[]","null","",""
"","","","","","image-button-response","37","1136755","0.0-10.0-1.0-0.4","7A2FD3C07D83434E8933F2F44369452E","7A2FD3C07D83434E8933F2F44369452E","0198be2b-8911-71bf-ab63-c315e7e28f10","0198be1d-574a-752e-ae53-1d263a30e856","{""num_scrambled_semantic"":""8"",""num_scrambled_causal"":""4"",""num_scrambled_schematic"":""4"",""participantId"":""7A2FD3C07D83434E8933F2F44369452E"",""assignmentId"":""0198be2b-8911-71bf-ab63-c315e7e28f10"",""projectId"":""0198be1d-574a-752e-ae53-1d263a30e856""}","https://test12345.live/?num_scrambled_semantic=8&num_scrambled_causal=4&num_scrambled_schematic=4&participantId=7A2FD3C07D83434E8933F2F44369452E&assignmentId=0198be2b-8911-71bf-ab63-c315e7e28f10&projectId=0198be1d-574a-752e-ae53-1d263a30e856","7A2FD3C07D83434E8933F2F44369452E-2025-08-18-18-04-52","","null","","images/semantic_sequence/redecorating_semantic/redecorating_semantic_1.png","null","",""
"","","","","","image-button-response","38","1138296","0.0-10.0-1.0-1.4","7A2FD3C07D83434E8933F2F44369452E","7A2FD3C07D83434E8933F2F44369452E","0198be2b-8911-71bf-ab63-c315e7e28f10","0198be1d-574a-752e-ae53-1d263a30e856","{""num_scrambled_semantic"":""8"",""num_scrambled_causal"":""4"",""num_scrambled_schematic"":""4"",""participantId"":""7A2FD3C07D83434E8933F2F44369452E"",""assignmentId"":""0198be2b-8911-71bf-ab63-c315e7e28f10"",""projectId"":""0198be1d-574a-752e-ae53-1d263a30e856""}","https://test12345.live/?num_scrambled_semantic=8&num_scrambled_causal=4&num_scrambled_schematic=4&participantId=7A2FD3C07D83434E8933F2F44369452E&assignmentId=0198be2b-8911-71bf-ab63-c315e7e28f10&projectId=0198be1d-574a-752e-ae53-1d263a30e856","7A2FD3C07D83434E8933F2F44369452E-2025-08-18-18-04-52","","1539","","images/semantic_sequence/redecorating_semantic/redecorating_semantic_1.png","0","",""
"","","","","","image-button-response","39","1149103","0.0-10.0-1.0-2.4","7A2FD3C07D83434E8933F2F44369452E","7A2FD3C07D83434E8933F2F44369452E","0198be2b-8911-71bf-ab63-c315e7e28f10","0198be1d-574a-752e-ae53-1d263a30e856","{""num_scrambled_semantic"":""8"",""num_scrambled_causal"":""4"",""num_scrambled_schematic"":""4"",""participantId"":""7A2FD3C07D83434E8933F2F44369452E"",""assignmentId"":""0198be2b-8911-71bf-ab63-c315e7e28f10"",""projectId"":""0198be1d-574a-752e-ae53-1d263a30e856""}","https://test12345.live/?num_scrambled_semantic=8&num_scrambled_causal=4&num_scrambled_schematic=4&participantId=7A2FD3C07D83434E8933F2F44369452E&assignmentId=0198be2b-8911-71bf-ab63-c315e7e28f10&projectId=0198be1d-574a-752e-ae53-1d263a30e856","7A2FD3C07D83434E8933F2F44369452E-2025-08-18-18-04-52","","null","","[]","null","",""
"","","","","","image-button-response","40","1153605","0.0-10.0-1.0-0.5","7A2FD3C07D83434E8933F2F44369452E","7A2FD3C07D83434E8933F2F44369452E","0198be2b-8911-71bf-ab63-c315e7e28f10","0198be1d-574a-752e-ae53-1d263a30e856","{""num_scrambled_semantic"":""8"",""num_scrambled_causal"":""4"",""num_scrambled_schematic"":""4"",""participantId"":""7A2FD3C07D83434E8933F2F44369452E"",""assignmentId"":""0198be2b-8911-71bf-ab63-c315e7e28f10"",""projectId"":""0198be1d-574a-752e-ae53-1d263a30e856""}","https://test12345.live/?num_scrambled_semantic=8&num_scrambled_causal=4&num_scrambled_schematic=4&participantId=7A2FD3C07D83434E8933F2F44369452E&assignmentId=0198be2b-8911-71bf-ab63-c315e7e28f10&projectId=0198be1d-574a-752e-ae53-1d263a30e856","7A2FD3C07D83434E8933F2F44369452E-2025-08-18-18-04-52","","null","","images/semantic_sequence/redecorating_semantic/redecorating_semantic_9.png","null","",""
"","","","","","image-button-response","41","1155162","0.0-10.0-1.0-1.5","7A2FD3C07D83434E8933F2F44369452E","7A2FD3C07D83434E8933F2F44369452E","0198be2b-8911-71bf-ab63-c315e7e28f10","0198be1d-574a-752e-ae53-1d263a30e856","{""num_scrambled_semantic"":""8"",""num_scrambled_causal"":""4"",""num_scrambled_schematic"":""4"",""participantId"":""7A2FD3C07D83434E8933F2F44369452E"",""assignmentId"":""0198be2b-8911-71bf-ab63-c315e7e28f10"",""projectId"":""0198be1d-574a-752e-ae53-1d263a30e856""}","https://test12345.live/?num_scrambled_semantic=8&num_scrambled_causal=4&num_scrambled_schematic=4&participantId=7A2FD3C07D83434E8933F2F44369452E&assignmentId=0198be2b-8911-71bf-ab63-c315e7e28f10&projectId=0198be1d-574a-752e-ae53-1d263a30e856","7A2FD3C07D83434E8933F2F44369452E-2025-08-18-18-04-52","","1556","","images/semantic_sequence/redecorating_semantic/redecorating_semantic_9.png","0","",""
"","","","","","image-button-response","42","1165969","0.0-10.0-1.0-2.5","7A2FD3C07D83434E8933F2F44369452E","7A2FD3C07D83434E8933F2F44369452E","0198be2b-8911-71bf-ab63-c315e7e28f10","0198be1d-574a-752e-ae53-1d263a30e856","{""num_scrambled_semantic"":""8"",""num_scrambled_causal"":""4"",""num_scrambled_schematic"":""4"",""participantId"":""7A2FD3C07D83434E8933F2F44369452E"",""assignmentId"":""0198be2b-8911-71bf-ab63-c315e7e28f10"",""projectId"":""0198be1d-574a-752e-ae53-1d263a30e856""}","https://test12345.live/?num_scrambled_semantic=8&num_scrambled_causal=4&num_scrambled_schematic=4&participantId=7A2FD3C07D83434E8933F2F44369452E&assignmentId=0198be2b-8911-71bf-ab63-c315e7e28f10&projectId=0198be1d-574a-752e-ae53-1d263a30e856","7A2FD3C07D83434E8933F2F44369452E-2025-08-18-18-04-52","","null","","[]","null","",""
"","","","","","image-button-response","43","1170476","0.0-10.0-1.0-0.6","7A2FD3C07D83434E8933F2F44369452E","7A2FD3C07D83434E8933F2F44369452E","0198be2b-8911-71bf-ab63-c315e7e28f10","0198be1d-574a-752e-ae53-1d263a30e856","{""num_scrambled_semantic"":""8"",""num_scrambled_causal"":""4"",""num_scrambled_schematic"":""4"",""participantId"":""7A2FD3C07D83434E8933F2F44369452E"",""assignmentId"":""0198be2b-8911-71bf-ab63-c315e7e28f10"",""projectId"":""0198be1d-574a-752e-ae53-1d263a30e856""}","https://test12345.live/?num_scrambled_semantic=8&num_scrambled_causal=4&num_scrambled_schematic=4&participantId=7A2FD3C07D83434E8933F2F44369452E&assignmentId=0198be2b-8911-71bf-ab63-c315e7e28f10&projectId=0198be1d-574a-752e-ae53-1d263a30e856","7A2FD3C07D83434E8933F2F44369452E-2025-08-18-18-04-52","","null","","images/semantic_sequence/redecorating_semantic/redecorating_semantic_5.png","null","",""
"","","","","","image-button-response","44","1172217","0.0-10.0-1.0-1.6","7A2FD3C07D83434E8933F2F44369452E","7A2FD3C07D83434E8933F2F44369452E","0198be2b-8911-71bf-ab63-c315e7e28f10","0198be1d-574a-752e-ae53-1d263a30e856","{""num_scrambled_semantic"":""8"",""num_scrambled_causal"":""4"",""num_scrambled_schematic"":""4"",""participantId"":""7A2FD3C07D83434E8933F2F44369452E"",""assignmentId"":""0198be2b-8911-71bf-ab63-c315e7e28f10"",""projectId"":""0198be1d-574a-752e-ae53-1d263a30e856""}","https://test12345.live/?num_scrambled_semantic=8&num_scrambled_causal=4&num_scrambled_schematic=4&participantId=7A2FD3C07D83434E8933F2F44369452E&assignmentId=0198be2b-8911-71bf-ab63-c315e7e28f10&projectId=0198be1d-574a-752e-ae53-1d263a30e856","7A2FD3C07D83434E8933F2F44369452E-2025-08-18-18-04-52","","1737","","images/semantic_sequence/redecorating_semantic/redecorating_semantic_5.png","0","",""
"","","","","","image-button-response","45","1183027","0.0-10.0-1.0-2.6","7A2FD3C07D83434E8933F2F44369452E","7A2FD3C07D83434E8933F2F44369452E","0198be2b-8911-71bf-ab63-c315e7e28f10","0198be1d-574a-752e-ae53-1d263a30e856","{""num_scrambled_semantic"":""8"",""num_scrambled_causal"":""4"",""num_scrambled_schematic"":""4"",""participantId"":""7A2FD3C07D83434E8933F2F44369452E"",""assignmentId"":""0198be2b-8911-71bf-ab63-c315e7e28f10"",""projectId"":""0198be1d-574a-752e-ae53-1d263a30e856""}","https://test12345.live/?num_scrambled_semantic=8&num_scrambled_causal=4&num_scrambled_schematic=4&participantId=7A2FD3C07D83434E8933F2F44369452E&assignmentId=0198be2b-8911-71bf-ab63-c315e7e28f10&projectId=0198be1d-574a-752e-ae53-1d263a30e856","7A2FD3C07D83434E8933F2F44369452E-2025-08-18-18-04-52","","null","","[]","null","",""
"","","","","","image-button-response","46","1187537","0.0-10.0-1.0-0.7","7A2FD3C07D83434E8933F2F44369452E","7A2FD3C07D83434E8933F2F44369452E","0198be2b-8911-71bf-ab63-c315e7e28f10","0198be1d-574a-752e-ae53-1d263a30e856","{""num_scrambled_semantic"":""8"",""num_scrambled_causal"":""4"",""num_scrambled_schematic"":""4"",""participantId"":""7A2FD3C07D83434E8933F2F44369452E"",""assignmentId"":""0198be2b-8911-71bf-ab63-c315e7e28f10"",""projectId"":""0198be1d-574a-752e-ae53-1d263a30e856""}","https://test12345.live/?num_scrambled_semantic=8&num_scrambled_causal=4&num_scrambled_schematic=4&participantId=7A2FD3C07D83434E8933F2F44369452E&assignmentId=0198be2b-8911-71bf-ab63-c315e7e28f10&projectId=0198be1d-574a-752e-ae53-1d263a30e856","7A2FD3C07D83434E8933F2F44369452E-2025-08-18-18-04-52","","null","","images/semantic_sequence/redecorating_semantic/redecorating_semantic_2.png","null","",""
"","","","","","image-button-response","47","1189267","0.0-10.0-1.0-1.7","7A2FD3C07D83434E8933F2F44369452E","7A2FD3C07D83434E8933F2F44369452E","0198be2b-8911-71bf-ab63-c315e7e28f10","0198be1d-574a-752e-ae53-1d263a30e856","{""num_scrambled_semantic"":""8"",""num_scrambled_causal"":""4"",""num_scrambled_schematic"":""4"",""participantId"":""7A2FD3C07D83434E8933F2F44369452E"",""assignmentId"":""0198be2b-8911-71bf-ab63-c315e7e28f10"",""projectId"":""0198be1d-574a-752e-ae53-1d263a30e856""}","https://test12345.live/?num_scrambled_semantic=8&num_scrambled_causal=4&num_scrambled_schematic=4&participantId=7A2FD3C07D83434E8933F2F44369452E&assignmentId=0198be2b-8911-71bf-ab63-c315e7e28f10&projectId=0198be1d-574a-752e-ae53-1d263a30e856","7A2FD3C07D83434E8933F2F44369452E-2025-08-18-18-04-52","","1729","","images/semantic_sequence/redecorating_semantic/redecorating_semantic_2.png","0","",""
"","","","","","image-button-response","48","1200080","0.0-10.0-1.0-2.7","7A2FD3C07D83434E8933F2F44369452E","7A2FD3C07D83434E8933F2F44369452E","0198be2b-8911-71bf-ab63-c315e7e28f10","0198be1d-574a-752e-ae53-1d263a30e856","{""num_scrambled_semantic"":""8"",""num_scrambled_causal"":""4"",""num_scrambled_schematic"":""4"",""participantId"":""7A2FD3C07D83434E8933F2F44369452E"",""assignmentId"":""0198be2b-8911-71bf-ab63-c315e7e28f10"",""projectId"":""0198be1d-574a-752e-ae53-1d263a30e856""}","https://test12345.live/?num_scrambled_semantic=8&num_scrambled_causal=4&num_scrambled_schematic=4&participantId=7A2FD3C07D83434E8933F2F44369452E&assignmentId=0198be2b-8911-71bf-ab63-c315e7e28f10&projectId=0198be1d-574a-752e-ae53-1d263a30e856","7A2FD3C07D83434E8933F2F44369452E-2025-08-18-18-04-52","","null","","[]","null","",""
"","","","","","image-button-response","49","1204595","0.0-10.0-1.0-0.8","7A2FD3C07D83434E8933F2F44369452E","7A2FD3C07D83434E8933F2F44369452E","0198be2b-8911-71bf-ab63-c315e7e28f10","0198be1d-574a-752e-ae53-1d263a30e856","{""num_scrambled_semantic"":""8"",""num_scrambled_causal"":""4"",""num_scrambled_schematic"":""4"",""participantId"":""7A2FD3C07D83434E8933F2F44369452E"",""assignmentId"":""0198be2b-8911-71bf-ab63-c315e7e28f10"",""projectId"":""0198be1d-574a-752e-ae53-1d263a30e856""}","https://test12345.live/?num_scrambled_semantic=8&num_scrambled_causal=4&num_scrambled_schematic=4&participantId=7A2FD3C07D83434E8933F2F44369452E&assignmentId=0198be2b-8911-71bf-ab63-c315e7e28f10&projectId=0198be1d-574a-752e-ae53-1d263a30e856","7A2FD3C07D83434E8933F2F44369452E-2025-08-18-18-04-52","","null","","images/semantic_sequence/redecorating_semantic/redecorating_semantic_8.png","null","",""
"","","","","","image-button-response","50","1205958","0.0-10.0-1.0-1.8","7A2FD3C07D83434E8933F2F44369452E","7A2FD3C07D83434E8933F2F44369452E","0198be2b-8911-71bf-ab63-c315e7e28f10","0198be1d-574a-752e-ae53-1d263a30e856","{""num_scrambled_semantic"":""8"",""num_scrambled_causal"":""4"",""num_scrambled_schematic"":""4"",""participantId"":""7A2FD3C07D83434E8933F2F44369452E"",""assignmentId"":""0198be2b-8911-71bf-ab63-c315e7e28f10"",""projectId"":""0198be1d-574a-752e-ae53-1d263a30e856""}","https://test12345.live/?num_scrambled_semantic=8&num_scrambled_causal=4&num_scrambled_schematic=4&participantId=7A2FD3C07D83434E8933F2F44369452E&assignmentId=0198be2b-8911-71bf-ab63-c315e7e28f10&projectId=0198be1d-574a-752e-ae53-1d263a30e856","7A2FD3C07D83434E8933F2F44369452E-2025-08-18-18-04-52","","1362","","images/semantic_sequence/redecorating_semantic/redecorating_semantic_8.png","0","",""
"","","","","","image-button-response","51","1216776","0.0-10.0-1.0-2.8","7A2FD3C07D83434E8933F2F44369452E","7A2FD3C07D83434E8933F2F44369452E","0198be2b-8911-71bf-ab63-c315e7e28f10","0198be1d-574a-752e-ae53-1d263a30e856","{""num_scrambled_semantic"":""8"",""num_scrambled_causal"":""4"",""num_scrambled_schematic"":""4"",""participantId"":""7A2FD3C07D83434E8933F2F44369452E"",""assignmentId"":""0198be2b-8911-71bf-ab63-c315e7e28f10"",""projectId"":""0198be1d-574a-752e-ae53-1d263a30e856""}","https://test12345.live/?num_scrambled_semantic=8&num_scrambled_causal=4&num_scrambled_schematic=4&participantId=7A2FD3C07D83434E8933F2F44369452E&assignmentId=0198be2b-8911-71bf-ab63-c315e7e28f10&projectId=0198be1d-574a-752e-ae53-1d263a30e856","7A2FD3C07D83434E8933F2F44369452E-2025-08-18-18-04-52","","null","","[]","null","",""
"","","","","","image-button-response","52","1221284","0.0-10.0-1.0-0.9","7A2FD3C07D83434E8933F2F44369452E","7A2FD3C07D83434E8933F2F44369452E","0198be2b-8911-71bf-ab63-c315e7e28f10","0198be1d-574a-752e-ae53-1d263a30e856","{""num_scrambled_semantic"":""8"",""num_scrambled_causal"":""4"",""num_scrambled_schematic"":""4"",""participantId"":""7A2FD3C07D83434E8933F2F44369452E"",""assignmentId"":""0198be2b-8911-71bf-ab63-c315e7e28f10"",""projectId"":""0198be1d-574a-752e-ae53-1d263a30e856""}","https://test12345.live/?num_scrambled_semantic=8&num_scrambled_causal=4&num_scrambled_schematic=4&participantId=7A2FD3C07D83434E8933F2F44369452E&assignmentId=0198be2b-8911-71bf-ab63-c315e7e28f10&projectId=0198be1d-574a-752e-ae53-1d263a30e856","7A2FD3C07D83434E8933F2F44369452E-2025-08-18-18-04-52","","null","","images/semantic_sequence/redecorating_semantic/redecorating_semantic_3.png","null","",""
"","","","","","image-button-response","53","1223289","0.0-10.0-1.0-1.9","7A2FD3C07D83434E8933F2F44369452E","7A2FD3C07D83434E8933F2F44369452E","0198be2b-8911-71bf-ab63-c315e7e28f10","0198be1d-574a-752e-ae53-1d263a30e856","{""num_scrambled_semantic"":""8"",""num_scrambled_causal"":""4"",""num_scrambled_schematic"":""4"",""participantId"":""7A2FD3C07D83434E8933F2F44369452E"",""assignmentId"":""0198be2b-8911-71bf-ab63-c315e7e28f10"",""projectId"":""0198be1d-574a-752e-ae53-1d263a30e856""}","https://test12345.live/?num_scrambled_semantic=8&num_scrambled_causal=4&num_scrambled_schematic=4&participantId=7A2FD3C07D83434E8933F2F44369452E&assignmentId=0198be2b-8911-71bf-ab63-c315e7e28f10&projectId=0198be1d-574a-752e-ae53-1d263a30e856","7A2FD3C07D83434E8933F2F44369452E-2025-08-18-18-04-52","","2002","","images/semantic_sequence/redecorating_semantic/redecorating_semantic_3.png","0","",""
"","","","","","image-button-response","54","1234104","0.0-10.0-1.0-2.9","7A2FD3C07D83434E8933F2F44369452E","7A2FD3C07D83434E8933F2F44369452E","0198be2b-8911-71bf-ab63-c315e7e28f10","0198be1d-574a-752e-ae53-1d263a30e856","{""num_scrambled_semantic"":""8"",""num_scrambled_causal"":""4"",""num_scrambled_schematic"":""4"",""participantId"":""7A2FD3C07D83434E8933F2F44369452E"",""assignmentId"":""0198be2b-8911-71bf-ab63-c315e7e28f10"",""projectId"":""0198be1d-574a-752e-ae53-1d263a30e856""}","https://test12345.live/?num_scrambled_semantic=8&num_scrambled_causal=4&num_scrambled_schematic=4&participantId=7A2FD3C07D83434E8933F2F44369452E&assignmentId=0198be2b-8911-71bf-ab63-c315e7e28f10&projectId=0198be1d-574a-752e-ae53-1d263a30e856","7A2FD3C07D83434E8933F2F44369452E-2025-08-18-18-04-52","","null","","[]","null","",""
"","","","","","html-audio-response","55","1326089","0.0-11.0","7A2FD3C07D83434E8933F2F44369452E","7A2FD3C07D83434E8933F2F44369452E","0198be2b-8911-71bf-ab63-c315e7e28f10","0198be1d-574a-752e-ae53-1d263a30e856","{""num_scrambled_semantic"":""8"",""num_scrambled_causal"":""4"",""num_scrambled_schematic"":""4"",""participantId"":""7A2FD3C07D83434E8933F2F44369452E"",""assignmentId"":""0198be2b-8911-71bf-ab63-c315e7e28f10"",""projectId"":""0198be1d-574a-752e-ae53-1d263a30e856""}","https://test12345.live/?num_scrambled_semantic=8&num_scrambled_causal=4&num_scrambled_schematic=4&participantId=7A2FD3C07D83434E8933F2F44369452E&assignmentId=0198be2b-8911-71bf-ab63-c315e7e28f10&projectId=0198be1d-574a-752e-ae53-1d263a30e856","7A2FD3C07D83434E8933F2F44369452E-2025-08-18-18-04-52","","null","","[""<span style=\""color: red; font-size: 24px\""> NOW RECORDING</span><p>Please say out loud all the images you saw, in the exact order you saw them. Try to recall as many images as you can, but remember: getting the order right is more important than the number of images you recall.</p>""]","","2","redecorating_semantic"
"","","","","","image-button-response","56","1332107","0.0-12.0-0.0","7A2FD3C07D83434E8933F2F44369452E","7A2FD3C07D83434E8933F2F44369452E","0198be2b-8911-71bf-ab63-c315e7e28f10","0198be1d-574a-752e-ae53-1d263a30e856","{""num_scrambled_semantic"":""8"",""num_scrambled_causal"":""4"",""num_scrambled_schematic"":""4"",""participantId"":""7A2FD3C07D83434E8933F2F44369452E"",""assignmentId"":""0198be2b-8911-71bf-ab63-c315e7e28f10"",""projectId"":""0198be1d-574a-752e-ae53-1d263a30e856""}","https://test12345.live/?num_scrambled_semantic=8&num_scrambled_causal=4&num_scrambled_schematic=4&participantId=7A2FD3C07D83434E8933F2F44369452E&assignmentId=0198be2b-8911-71bf-ab63-c315e7e28f10&projectId=0198be1d-574a-752e-ae53-1d263a30e856","7A2FD3C07D83434E8933F2F44369452E-2025-08-18-18-04-52","","null","","images/semantic_sequence/physical_activity_semantic/physical_activity_semantic_0.png","null","",""
"","","","","","image-button-response","57","1336622","0.0-12.0-1.0-0.0","7A2FD3C07D83434E8933F2F44369452E","7A2FD3C07D83434E8933F2F44369452E","0198be2b-8911-71bf-ab63-c315e7e28f10","0198be1d-574a-752e-ae53-1d263a30e856","{""num_scrambled_semantic"":""8"",""num_scrambled_causal"":""4"",""num_scrambled_schematic"":""4"",""participantId"":""7A2FD3C07D83434E8933F2F44369452E"",""assignmentId"":""0198be2b-8911-71bf-ab63-c315e7e28f10"",""projectId"":""0198be1d-574a-752e-ae53-1d263a30e856""}","https://test12345.live/?num_scrambled_semantic=8&num_scrambled_causal=4&num_scrambled_schematic=4&participantId=7A2FD3C07D83434E8933F2F44369452E&assignmentId=0198be2b-8911-71bf-ab63-c315e7e28f10&projectId=0198be1d-574a-752e-ae53-1d263a30e856","7A2FD3C07D83434E8933F2F44369452E-2025-08-18-18-04-52","","null","","images/semantic_sequence/physical_activity_semantic/physical_activity_semantic_7.png","null","",""
"","","","","","image-button-response","58","1338793","0.0-12.0-1.0-1.0","7A2FD3C07D83434E8933F2F44369452E","7A2FD3C07D83434E8933F2F44369452E","0198be2b-8911-71bf-ab63-c315e7e28f10","0198be1d-574a-752e-ae53-1d263a30e856","{""num_scrambled_semantic"":""8"",""num_scrambled_causal"":""4"",""num_scrambled_schematic"":""4"",""participantId"":""7A2FD3C07D83434E8933F2F44369452E"",""assignmentId"":""0198be2b-8911-71bf-ab63-c315e7e28f10"",""projectId"":""0198be1d-574a-752e-ae53-1d263a30e856""}","https://test12345.live/?num_scrambled_semantic=8&num_scrambled_causal=4&num_scrambled_schematic=4&participantId=7A2FD3C07D83434E8933F2F44369452E&assignmentId=0198be2b-8911-71bf-ab63-c315e7e28f10&projectId=0198be1d-574a-752e-ae53-1d263a30e856","7A2FD3C07D83434E8933F2F44369452E-2025-08-18-18-04-52","","2169","","images/semantic_sequence/physical_activity_semantic/physical_activity_semantic_7.png","0","",""
"","","","","","image-button-response","59","1349596","0.0-12.0-1.0-2.0","7A2FD3C07D83434E8933F2F44369452E","7A2FD3C07D83434E8933F2F44369452E","0198be2b-8911-71bf-ab63-c315e7e28f10","0198be1d-574a-752e-ae53-1d263a30e856","{""num_scrambled_semantic"":""8"",""num_scrambled_causal"":""4"",""num_scrambled_schematic"":""4"",""participantId"":""7A2FD3C07D83434E8933F2F44369452E"",""assignmentId"":""0198be2b-8911-71bf-ab63-c315e7e28f10"",""projectId"":""0198be1d-574a-752e-ae53-1d263a30e856""}","https://test12345.live/?num_scrambled_semantic=8&num_scrambled_causal=4&num_scrambled_schematic=4&participantId=7A2FD3C07D83434E8933F2F44369452E&assignmentId=0198be2b-8911-71bf-ab63-c315e7e28f10&projectId=0198be1d-574a-752e-ae53-1d263a30e856","7A2FD3C07D83434E8933F2F44369452E-2025-08-18-18-04-52","","null","","[]","null","",""
"","","","","","image-button-response","60","1354104","0.0-12.0-1.0-0.1","7A2FD3C07D83434E8933F2F44369452E","7A2FD3C07D83434E8933F2F44369452E","0198be2b-8911-71bf-ab63-c315e7e28f10","0198be1d-574a-752e-ae53-1d263a30e856","{""num_scrambled_semantic"":""8"",""num_scrambled_causal"":""4"",""num_scrambled_schematic"":""4"",""participantId"":""7A2FD3C07D83434E8933F2F44369452E"",""assignmentId"":""0198be2b-8911-71bf-ab63-c315e7e28f10"",""projectId"":""0198be1d-574a-752e-ae53-1d263a30e856""}","https://test12345.live/?num_scrambled_semantic=8&num_scrambled_causal=4&num_scrambled_schematic=4&participantId=7A2FD3C07D83434E8933F2F44369452E&assignmentId=0198be2b-8911-71bf-ab63-c315e7e28f10&projectId=0198be1d-574a-752e-ae53-1d263a30e856","7A2FD3C07D83434E8933F2F44369452E-2025-08-18-18-04-52","","null","","images/semantic_sequence/physical_activity_semantic/physical_activity_semantic_2.png","null","",""
"","","","","","image-button-response","61","1355953","0.0-12.0-1.0-1.1","7A2FD3C07D83434E8933F2F44369452E","7A2FD3C07D83434E8933F2F44369452E","0198be2b-8911-71bf-ab63-c315e7e28f10","0198be1d-574a-752e-ae53-1d263a30e856","{""num_scrambled_semantic"":""8"",""num_scrambled_causal"":""4"",""num_scrambled_schematic"":""4"",""participantId"":""7A2FD3C07D83434E8933F2F44369452E"",""assignmentId"":""0198be2b-8911-71bf-ab63-c315e7e28f10"",""projectId"":""0198be1d-574a-752e-ae53-1d263a30e856""}","https://test12345.live/?num_scrambled_semantic=8&num_scrambled_causal=4&num_scrambled_schematic=4&participantId=7A2FD3C07D83434E8933F2F44369452E&assignmentId=0198be2b-8911-71bf-ab63-c315e7e28f10&projectId=0198be1d-574a-752e-ae53-1d263a30e856","7A2FD3C07D83434E8933F2F44369452E-2025-08-18-18-04-52","","1846","","images/semantic_sequence/physical_activity_semantic/physical_activity_semantic_2.png","0","",""
"","","","","","image-button-response","62","1366769","0.0-12.0-1.0-2.1","7A2FD3C07D83434E8933F2F44369452E","7A2FD3C07D83434E8933F2F44369452E","0198be2b-8911-71bf-ab63-c315e7e28f10","0198be1d-574a-752e-ae53-1d263a30e856","{""num_scrambled_semantic"":""8"",""num_scrambled_causal"":""4"",""num_scrambled_schematic"":""4"",""participantId"":""7A2FD3C07D83434E8933F2F44369452E"",""assignmentId"":""0198be2b-8911-71bf-ab63-c315e7e28f10"",""projectId"":""0198be1d-574a-752e-ae53-1d263a30e856""}","https://test12345.live/?num_scrambled_semantic=8&num_scrambled_causal=4&num_scrambled_schematic=4&participantId=7A2FD3C07D83434E8933F2F44369452E&assignmentId=0198be2b-8911-71bf-ab63-c315e7e28f10&projectId=0198be1d-574a-752e-ae53-1d263a30e856","7A2FD3C07D83434E8933F2F44369452E-2025-08-18-18-04-52","","null","","[]","null","",""
"","","","","","image-button-response","63","1371284","0.0-12.0-1.0-0.2","7A2FD3C07D83434E8933F2F44369452E","7A2FD3C07D83434E8933F2F44369452E","0198be2b-8911-71bf-ab63-c315e7e28f10","0198be1d-574a-752e-ae53-1d263a30e856","{""num_scrambled_semantic"":""8"",""num_scrambled_causal"":""4"",""num_scrambled_schematic"":""4"",""participantId"":""7A2FD3C07D83434E8933F2F44369452E"",""assignmentId"":""0198be2b-8911-71bf-ab63-c315e7e28f10"",""projectId"":""0198be1d-574a-752e-ae53-1d263a30e856""}","https://test12345.live/?num_scrambled_semantic=8&num_scrambled_causal=4&num_scrambled_schematic=4&participantId=7A2FD3C07D83434E8933F2F44369452E&assignmentId=0198be2b-8911-71bf-ab63-c315e7e28f10&projectId=0198be1d-574a-752e-ae53-1d263a30e856","7A2FD3C07D83434E8933F2F44369452E-2025-08-18-18-04-52","","null","","images/semantic_sequence/physical_activity_semantic/physical_activity_semantic_9.png","null","",""
"","","","","","image-button-response","64","1372924","0.0-12.0-1.0-1.2","7A2FD3C07D83434E8933F2F44369452E","7A2FD3C07D83434E8933F2F44369452E","0198be2b-8911-71bf-ab63-c315e7e28f10","0198be1d-574a-752e-ae53-1d263a30e856","{""num_scrambled_semantic"":""8"",""num_scrambled_causal"":""4"",""num_scrambled_schematic"":""4"",""participantId"":""7A2FD3C07D83434E8933F2F44369452E"",""assignmentId"":""0198be2b-8911-71bf-ab63-c315e7e28f10"",""projectId"":""0198be1d-574a-752e-ae53-1d263a30e856""}","https://test12345.live/?num_scrambled_semantic=8&num_scrambled_causal=4&num_scrambled_schematic=4&participantId=7A2FD3C07D83434E8933F2F44369452E&assignmentId=0198be2b-8911-71bf-ab63-c315e7e28f10&projectId=0198be1d-574a-752e-ae53-1d263a30e856","7A2FD3C07D83434E8933F2F44369452E-2025-08-18-18-04-52","","1639","","images/semantic_sequence/physical_activity_semantic/physical_activity_semantic_9.png","0","",""
"","","","","","image-button-response","65","1383732","0.0-12.0-1.0-2.2","7A2FD3C07D83434E8933F2F44369452E","7A2FD3C07D83434E8933F2F44369452E","0198be2b-8911-71bf-ab63-c315e7e28f10","0198be1d-574a-752e-ae53-1d263a30e856","{""num_scrambled_semantic"":""8"",""num_scrambled_causal"":""4"",""num_scrambled_schematic"":""4"",""participantId"":""7A2FD3C07D83434E8933F2F44369452E"",""assignmentId"":""0198be2b-8911-71bf-ab63-c315e7e28f10"",""projectId"":""0198be1d-574a-752e-ae53-1d263a30e856""}","https://test12345.live/?num_scrambled_semantic=8&num_scrambled_causal=4&num_scrambled_schematic=4&participantId=7A2FD3C07D83434E8933F2F44369452E&assignmentId=0198be2b-8911-71bf-ab63-c315e7e28f10&projectId=0198be1d-574a-752e-ae53-1d263a30e856","7A2FD3C07D83434E8933F2F44369452E-2025-08-18-18-04-52","","null","","[]","null","",""
"","","","","","image-button-response","66","1388248","0.0-12.0-1.0-0.3","7A2FD3C07D83434E8933F2F44369452E","7A2FD3C07D83434E8933F2F44369452E","0198be2b-8911-71bf-ab63-c315e7e28f10","0198be1d-574a-752e-ae53-1d263a30e856","{""num_scrambled_semantic"":""8"",""num_scrambled_causal"":""4"",""num_scrambled_schematic"":""4"",""participantId"":""7A2FD3C07D83434E8933F2F44369452E"",""assignmentId"":""0198be2b-8911-71bf-ab63-c315e7e28f10"",""projectId"":""0198be1d-574a-752e-ae53-1d263a30e856""}","https://test12345.live/?num_scrambled_semantic=8&num_scrambled_causal=4&num_scrambled_schematic=4&participantId=7A2FD3C07D83434E8933F2F44369452E&assignmentId=0198be2b-8911-71bf-ab63-c315e7e28f10&projectId=0198be1d-574a-752e-ae53-1d263a30e856","7A2FD3C07D83434E8933F2F44369452E-2025-08-18-18-04-52","","null","","images/semantic_sequence/physical_activity_semantic/physical_activity_semantic_5.png","null","",""
"","","","","","image-button-response","67","1389802","0.0-12.0-1.0-1.3","7A2FD3C07D83434E8933F2F44369452E","7A2FD3C07D83434E8933F2F44369452E","0198be2b-8911-71bf-ab63-c315e7e28f10","0198be1d-574a-752e-ae53-1d263a30e856","{""num_scrambled_semantic"":""8"",""num_scrambled_causal"":""4"",""num_scrambled_schematic"":""4"",""participantId"":""7A2FD3C07D83434E8933F2F44369452E"",""assignmentId"":""0198be2b-8911-71bf-ab63-c315e7e28f10"",""projectId"":""0198be1d-574a-752e-ae53-1d263a30e856""}","https://test12345.live/?num_scrambled_semantic=8&num_scrambled_causal=4&num_scrambled_schematic=4&participantId=7A2FD3C07D83434E8933F2F44369452E&assignmentId=0198be2b-8911-71bf-ab63-c315e7e28f10&projectId=0198be1d-574a-752e-ae53-1d263a30e856","7A2FD3C07D83434E8933F2F44369452E-2025-08-18-18-04-52","","1552","","images/semantic_sequence/physical_activity_semantic/physical_activity_semantic_5.png","0","",""
"","","","","","image-button-response","68","1400618","0.0-12.0-1.0-2.3","7A2FD3C07D83434E8933F2F44369452E","7A2FD3C07D83434E8933F2F44369452E","0198be2b-8911-71bf-ab63-c315e7e28f10","0198be1d-574a-752e-ae53-1d263a30e856","{""num_scrambled_semantic"":""8"",""num_scrambled_causal"":""4"",""num_scrambled_schematic"":""4"",""participantId"":""7A2FD3C07D83434E8933F2F44369452E"",""assignmentId"":""0198be2b-8911-71bf-ab63-c315e7e28f10"",""projectId"":""0198be1d-574a-752e-ae53-1d263a30e856""}","https://test12345.live/?num_scrambled_semantic=8&num_scrambled_causal=4&num_scrambled_schematic=4&participantId=7A2FD3C07D83434E8933F2F44369452E&assignmentId=0198be2b-8911-71bf-ab63-c315e7e28f10&projectId=0198be1d-574a-752e-ae53-1d263a30e856","7A2FD3C07D83434E8933F2F44369452E-2025-08-18-18-04-52","","null","","[]","null","",""
"","","","","","image-button-response","69","1405132","0.0-12.0-1.0-0.4","7A2FD3C07D83434E8933F2F44369452E","7A2FD3C07D83434E8933F2F44369452E","0198be2b-8911-71bf-ab63-c315e7e28f10","0198be1d-574a-752e-ae53-1d263a30e856","{""num_scrambled_semantic"":""8"",""num_scrambled_causal"":""4"",""num_scrambled_schematic"":""4"",""participantId"":""7A2FD3C07D83434E8933F2F44369452E"",""assignmentId"":""0198be2b-8911-71bf-ab63-c315e7e28f10"",""projectId"":""0198be1d-574a-752e-ae53-1d263a30e856""}","https://test12345.live/?num_scrambled_semantic=8&num_scrambled_causal=4&num_scrambled_schematic=4&participantId=7A2FD3C07D83434E8933F2F44369452E&assignmentId=0198be2b-8911-71bf-ab63-c315e7e28f10&projectId=0198be1d-574a-752e-ae53-1d263a30e856","7A2FD3C07D83434E8933F2F44369452E-2025-08-18-18-04-52","","null","","images/semantic_sequence/physical_activity_semantic/physical_activity_semantic_4.png","null","",""
"","","","","","image-button-response","70","1407168","0.0-12.0-1.0-1.4","7A2FD3C07D83434E8933F2F44369452E","7A2FD3C07D83434E8933F2F44369452E","0198be2b-8911-71bf-ab63-c315e7e28f10","0198be1d-574a-752e-ae53-1d263a30e856","{""num_scrambled_semantic"":""8"",""num_scrambled_causal"":""4"",""num_scrambled_schematic"":""4"",""participantId"":""7A2FD3C07D83434E8933F2F44369452E"",""assignmentId"":""0198be2b-8911-71bf-ab63-c315e7e28f10"",""projectId"":""0198be1d-574a-752e-ae53-1d263a30e856""}","https://test12345.live/?num_scrambled_semantic=8&num_scrambled_causal=4&num_scrambled_schematic=4&participantId=7A2FD3C07D83434E8933F2F44369452E&assignmentId=0198be2b-8911-71bf-ab63-c315e7e28f10&projectId=0198be1d-574a-752e-ae53-1d263a30e856","7A2FD3C07D83434E8933F2F44369452E-2025-08-18-18-04-52","","2036","","images/semantic_sequence/physical_activity_semantic/physical_activity_semantic_4.png","0","",""
"","","","","","image-button-response","71","1417974","0.0-12.0-1.0-2.4","7A2FD3C07D83434E8933F2F44369452E","7A2FD3C07D83434E8933F2F44369452E","0198be2b-8911-71bf-ab63-c315e7e28f10","0198be1d-574a-752e-ae53-1d263a30e856","{""num_scrambled_semantic"":""8"",""num_scrambled_causal"":""4"",""num_scrambled_schematic"":""4"",""participantId"":""7A2FD3C07D83434E8933F2F44369452E"",""assignmentId"":""0198be2b-8911-71bf-ab63-c315e7e28f10"",""projectId"":""0198be1d-574a-752e-ae53-1d263a30e856""}","https://test12345.live/?num_scrambled_semantic=8&num_scrambled_causal=4&num_scrambled_schematic=4&participantId=7A2FD3C07D83434E8933F2F44369452E&assignmentId=0198be2b-8911-71bf-ab63-c315e7e28f10&projectId=0198be1d-574a-752e-ae53-1d263a30e856","7A2FD3C07D83434E8933F2F44369452E-2025-08-18-18-04-52","","null","","[]","null","",""
"","","","","","image-button-response","72","1422490","0.0-12.0-1.0-0.5","7A2FD3C07D83434E8933F2F44369452E","7A2FD3C07D83434E8933F2F44369452E","0198be2b-8911-71bf-ab63-c315e7e28f10","0198be1d-574a-752e-ae53-1d263a30e856","{""num_scrambled_semantic"":""8"",""num_scrambled_causal"":""4"",""num_scrambled_schematic"":""4"",""participantId"":""7A2FD3C07D83434E8933F2F44369452E"",""assignmentId"":""0198be2b-8911-71bf-ab63-c315e7e28f10"",""projectId"":""0198be1d-574a-752e-ae53-1d263a30e856""}","https://test12345.live/?num_scrambled_semantic=8&num_scrambled_causal=4&num_scrambled_schematic=4&participantId=7A2FD3C07D83434E8933F2F44369452E&assignmentId=0198be2b-8911-71bf-ab63-c315e7e28f10&projectId=0198be1d-574a-752e-ae53-1d263a30e856","7A2FD3C07D83434E8933F2F44369452E-2025-08-18-18-04-52","","null","","images/semantic_sequence/physical_activity_semantic/physical_activity_semantic_3.png","null","",""
"","","","","","image-button-response","73","1425200","0.0-12.0-1.0-1.5","7A2FD3C07D83434E8933F2F44369452E","7A2FD3C07D83434E8933F2F44369452E","0198be2b-8911-71bf-ab63-c315e7e28f10","0198be1d-574a-752e-ae53-1d263a30e856","{""num_scrambled_semantic"":""8"",""num_scrambled_causal"":""4"",""num_scrambled_schematic"":""4"",""participantId"":""7A2FD3C07D83434E8933F2F44369452E"",""assignmentId"":""0198be2b-8911-71bf-ab63-c315e7e28f10"",""projectId"":""0198be1d-574a-752e-ae53-1d263a30e856""}","https://test12345.live/?num_scrambled_semantic=8&num_scrambled_causal=4&num_scrambled_schematic=4&participantId=7A2FD3C07D83434E8933F2F44369452E&assignmentId=0198be2b-8911-71bf-ab63-c315e7e28f10&projectId=0198be1d-574a-752e-ae53-1d263a30e856","7A2FD3C07D83434E8933F2F44369452E-2025-08-18-18-04-52","","2708","","images/semantic_sequence/physical_activity_semantic/physical_activity_semantic_3.png","0","",""
"","","","","","image-button-response","74","1436013","0.0-12.0-1.0-2.5","7A2FD3C07D83434E8933F2F44369452E","7A2FD3C07D83434E8933F2F44369452E","0198be2b-8911-71bf-ab63-c315e7e28f10","0198be1d-574a-752e-ae53-1d263a30e856","{""num_scrambled_semantic"":""8"",""num_scrambled_causal"":""4"",""num_scrambled_schematic"":""4"",""participantId"":""7A2FD3C07D83434E8933F2F44369452E"",""assignmentId"":""0198be2b-8911-71bf-ab63-c315e7e28f10"",""projectId"":""0198be1d-574a-752e-ae53-1d263a30e856""}","https://test12345.live/?num_scrambled_semantic=8&num_scrambled_causal=4&num_scrambled_schematic=4&participantId=7A2FD3C07D83434E8933F2F44369452E&assignmentId=0198be2b-8911-71bf-ab63-c315e7e28f10&projectId=0198be1d-574a-752e-ae53-1d263a30e856","7A2FD3C07D83434E8933F2F44369452E-2025-08-18-18-04-52","","null","","[]","null","",""
"","","","","","image-button-response","75","1440528","0.0-12.0-1.0-0.6","7A2FD3C07D83434E8933F2F44369452E","7A2FD3C07D83434E8933F2F44369452E","0198be2b-8911-71bf-ab63-c315e7e28f10","0198be1d-574a-752e-ae53-1d263a30e856","{""num_scrambled_semantic"":""8"",""num_scrambled_causal"":""4"",""num_scrambled_schematic"":""4"",""participantId"":""7A2FD3C07D83434E8933F2F44369452E"",""assignmentId"":""0198be2b-8911-71bf-ab63-c315e7e28f10"",""projectId"":""0198be1d-574a-752e-ae53-1d263a30e856""}","https://test12345.live/?num_scrambled_semantic=8&num_scrambled_causal=4&num_scrambled_schematic=4&participantId=7A2FD3C07D83434E8933F2F44369452E&assignmentId=0198be2b-8911-71bf-ab63-c315e7e28f10&projectId=0198be1d-574a-752e-ae53-1d263a30e856","7A2FD3C07D83434E8933F2F44369452E-2025-08-18-18-04-52","","null","","images/semantic_sequence/physical_activity_semantic/physical_activity_semantic_1.png","null","",""
"","","","","","image-button-response","76","1442890","0.0-12.0-1.0-1.6","7A2FD3C07D83434E8933F2F44369452E","7A2FD3C07D83434E8933F2F44369452E","0198be2b-8911-71bf-ab63-c315e7e28f10","0198be1d-574a-752e-ae53-1d263a30e856","{""num_scrambled_semantic"":""8"",""num_scrambled_causal"":""4"",""num_scrambled_schematic"":""4"",""participantId"":""7A2FD3C07D83434E8933F2F44369452E"",""assignmentId"":""0198be2b-8911-71bf-ab63-c315e7e28f10"",""projectId"":""0198be1d-574a-752e-ae53-1d263a30e856""}","https://test12345.live/?num_scrambled_semantic=8&num_scrambled_causal=4&num_scrambled_schematic=4&participantId=7A2FD3C07D83434E8933F2F44369452E&assignmentId=0198be2b-8911-71bf-ab63-c315e7e28f10&projectId=0198be1d-574a-752e-ae53-1d263a30e856","7A2FD3C07D83434E8933F2F44369452E-2025-08-18-18-04-52","","2360","","images/semantic_sequence/physical_activity_semantic/physical_activity_semantic_1.png","0","",""
"","","","","","image-button-response","77","1453703","0.0-12.0-1.0-2.6","7A2FD3C07D83434E8933F2F44369452E","7A2FD3C07D83434E8933F2F44369452E","0198be2b-8911-71bf-ab63-c315e7e28f10","0198be1d-574a-752e-ae53-1d263a30e856","{""num_scrambled_semantic"":""8"",""num_scrambled_causal"":""4"",""num_scrambled_schematic"":""4"",""participantId"":""7A2FD3C07D83434E8933F2F44369452E"",""assignmentId"":""0198be2b-8911-71bf-ab63-c315e7e28f10"",""projectId"":""0198be1d-574a-752e-ae53-1d263a30e856""}","https://test12345.live/?num_scrambled_semantic=8&num_scrambled_causal=4&num_scrambled_schematic=4&participantId=7A2FD3C07D83434E8933F2F44369452E&assignmentId=0198be2b-8911-71bf-ab63-c315e7e28f10&projectId=0198be1d-574a-752e-ae53-1d263a30e856","7A2FD3C07D83434E8933F2F44369452E-2025-08-18-18-04-52","","null","","[]","null","",""
"","","","","","image-button-response","78","1458207","0.0-12.0-1.0-0.7","7A2FD3C07D83434E8933F2F44369452E","7A2FD3C07D83434E8933F2F44369452E","0198be2b-8911-71bf-ab63-c315e7e28f10","0198be1d-574a-752e-ae53-1d263a30e856","{""num_scrambled_semantic"":""8"",""num_scrambled_causal"":""4"",""num_scrambled_schematic"":""4"",""participantId"":""7A2FD3C07D83434E8933F2F44369452E"",""assignmentId"":""0198be2b-8911-71bf-ab63-c315e7e28f10"",""projectId"":""0198be1d-574a-752e-ae53-1d263a30e856""}","https://test12345.live/?num_scrambled_semantic=8&num_scrambled_causal=4&num_scrambled_schematic=4&participantId=7A2FD3C07D83434E8933F2F44369452E&assignmentId=0198be2b-8911-71bf-ab63-c315e7e28f10&projectId=0198be1d-574a-752e-ae53-1d263a30e856","7A2FD3C07D83434E8933F2F44369452E-2025-08-18-18-04-52","","null","","images/semantic_sequence/physical_activity_semantic/physical_activity_semantic_8.png","null","",""
"","","","","","image-button-response","79","1461224","0.0-12.0-1.0-1.7","7A2FD3C07D83434E8933F2F44369452E","7A2FD3C07D83434E8933F2F44369452E","0198be2b-8911-71bf-ab63-c315e7e28f10","0198be1d-574a-752e-ae53-1d263a30e856","{""num_scrambled_semantic"":""8"",""num_scrambled_causal"":""4"",""num_scrambled_schematic"":""4"",""participantId"":""7A2FD3C07D83434E8933F2F44369452E"",""assignmentId"":""0198be2b-8911-71bf-ab63-c315e7e28f10"",""projectId"":""0198be1d-574a-752e-ae53-1d263a30e856""}","https://test12345.live/?num_scrambled_semantic=8&num_scrambled_causal=4&num_scrambled_schematic=4&participantId=7A2FD3C07D83434E8933F2F44369452E&assignmentId=0198be2b-8911-71bf-ab63-c315e7e28f10&projectId=0198be1d-574a-752e-ae53-1d263a30e856","7A2FD3C07D83434E8933F2F44369452E-2025-08-18-18-04-52","","3015","","images/semantic_sequence/physical_activity_semantic/physical_activity_semantic_8.png","0","",""
"","","","","","image-button-response","80","1472033","0.0-12.0-1.0-2.7","7A2FD3C07D83434E8933F2F44369452E","7A2FD3C07D83434E8933F2F44369452E","0198be2b-8911-71bf-ab63-c315e7e28f10","0198be1d-574a-752e-ae53-1d263a30e856","{""num_scrambled_semantic"":""8"",""num_scrambled_causal"":""4"",""num_scrambled_schematic"":""4"",""participantId"":""7A2FD3C07D83434E8933F2F44369452E"",""assignmentId"":""0198be2b-8911-71bf-ab63-c315e7e28f10"",""projectId"":""0198be1d-574a-752e-ae53-1d263a30e856""}","https://test12345.live/?num_scrambled_semantic=8&num_scrambled_causal=4&num_scrambled_schematic=4&participantId=7A2FD3C07D83434E8933F2F44369452E&assignmentId=0198be2b-8911-71bf-ab63-c315e7e28f10&projectId=0198be1d-574a-752e-ae53-1d263a30e856","7A2FD3C07D83434E8933F2F44369452E-2025-08-18-18-04-52","","null","","[]","null","",""
"","","","","","image-button-response","81","1476547","0.0-12.0-1.0-0.8","7A2FD3C07D83434E8933F2F44369452E","7A2FD3C07D83434E8933F2F44369452E","0198be2b-8911-71bf-ab63-c315e7e28f10","0198be1d-574a-752e-ae53-1d263a30e856","{""num_scrambled_semantic"":""8"",""num_scrambled_causal"":""4"",""num_scrambled_schematic"":""4"",""participantId"":""7A2FD3C07D83434E8933F2F44369452E"",""assignmentId"":""0198be2b-8911-71bf-ab63-c315e7e28f10"",""projectId"":""0198be1d-574a-752e-ae53-1d263a30e856""}","https://test12345.live/?num_scrambled_semantic=8&num_scrambled_causal=4&num_scrambled_schematic=4&participantId=7A2FD3C07D83434E8933F2F44369452E&assignmentId=0198be2b-8911-71bf-ab63-c315e7e28f10&projectId=0198be1d-574a-752e-ae53-1d263a30e856","7A2FD3C07D83434E8933F2F44369452E-2025-08-18-18-04-52","","null","","images/semantic_sequence/physical_activity_semantic/physical_activity_semantic_ten.png","null","",""
"","","","","","image-button-response","82","1478544","0.0-12.0-1.0-1.8","7A2FD3C07D83434E8933F2F44369452E","7A2FD3C07D83434E8933F2F44369452E","0198be2b-8911-71bf-ab63-c315e7e28f10","0198be1d-574a-752e-ae53-1d263a30e856","{""num_scrambled_semantic"":""8"",""num_scrambled_causal"":""4"",""num_scrambled_schematic"":""4"",""participantId"":""7A2FD3C07D83434E8933F2F44369452E"",""assignmentId"":""0198be2b-8911-71bf-ab63-c315e7e28f10"",""projectId"":""0198be1d-574a-752e-ae53-1d263a30e856""}","https://test12345.live/?num_scrambled_semantic=8&num_scrambled_causal=4&num_scrambled_schematic=4&participantId=7A2FD3C07D83434E8933F2F44369452E&assignmentId=0198be2b-8911-71bf-ab63-c315e7e28f10&projectId=0198be1d-574a-752e-ae53-1d263a30e856","7A2FD3C07D83434E8933F2F44369452E-2025-08-18-18-04-52","","1996","","images/semantic_sequence/physical_activity_semantic/physical_activity_semantic_ten.png","0","",""
"","","","","","image-button-response","83","1489354","0.0-12.0-1.0-2.8","7A2FD3C07D83434E8933F2F44369452E","7A2FD3C07D83434E8933F2F44369452E","0198be2b-8911-71bf-ab63-c315e7e28f10","0198be1d-574a-752e-ae53-1d263a30e856","{""num_scrambled_semantic"":""8"",""num_scrambled_causal"":""4"",""num_scrambled_schematic"":""4"",""participantId"":""7A2FD3C07D83434E8933F2F44369452E"",""assignmentId"":""0198be2b-8911-71bf-ab63-c315e7e28f10"",""projectId"":""0198be1d-574a-752e-ae53-1d263a30e856""}","https://test12345.live/?num_scrambled_semantic=8&num_scrambled_causal=4&num_scrambled_schematic=4&participantId=7A2FD3C07D83434E8933F2F44369452E&assignmentId=0198be2b-8911-71bf-ab63-c315e7e28f10&projectId=0198be1d-574a-752e-ae53-1d263a30e856","7A2FD3C07D83434E8933F2F44369452E-2025-08-18-18-04-52","","null","","[]","null","",""
"","","","","","image-button-response","84","1493866","0.0-12.0-1.0-0.9","7A2FD3C07D83434E8933F2F44369452E","7A2FD3C07D83434E8933F2F44369452E","0198be2b-8911-71bf-ab63-c315e7e28f10","0198be1d-574a-752e-ae53-1d263a30e856","{""num_scrambled_semantic"":""8"",""num_scrambled_causal"":""4"",""num_scrambled_schematic"":""4"",""participantId"":""7A2FD3C07D83434E8933F2F44369452E"",""assignmentId"":""0198be2b-8911-71bf-ab63-c315e7e28f10"",""projectId"":""0198be1d-574a-752e-ae53-1d263a30e856""}","https://test12345.live/?num_scrambled_semantic=8&num_scrambled_causal=4&num_scrambled_schematic=4&participantId=7A2FD3C07D83434E8933F2F44369452E&assignmentId=0198be2b-8911-71bf-ab63-c315e7e28f10&projectId=0198be1d-574a-752e-ae53-1d263a30e856","7A2FD3C07D83434E8933F2F44369452E-2025-08-18-18-04-52","","null","","images/semantic_sequence/physical_activity_semantic/physical_activity_semantic_6.png","null","",""
"","","","","","image-button-response","85","1497467","0.0-12.0-1.0-1.9","7A2FD3C07D83434E8933F2F44369452E","7A2FD3C07D83434E8933F2F44369452E","0198be2b-8911-71bf-ab63-c315e7e28f10","0198be1d-574a-752e-ae53-1d263a30e856","{""num_scrambled_semantic"":""8"",""num_scrambled_causal"":""4"",""num_scrambled_schematic"":""4"",""participantId"":""7A2FD3C07D83434E8933F2F44369452E"",""assignmentId"":""0198be2b-8911-71bf-ab63-c315e7e28f10"",""projectId"":""0198be1d-574a-752e-ae53-1d263a30e856""}","https://test12345.live/?num_scrambled_semantic=8&num_scrambled_causal=4&num_scrambled_schematic=4&participantId=7A2FD3C07D83434E8933F2F44369452E&assignmentId=0198be2b-8911-71bf-ab63-c315e7e28f10&projectId=0198be1d-574a-752e-ae53-1d263a30e856","7A2FD3C07D83434E8933F2F44369452E-2025-08-18-18-04-52","","3600","","images/semantic_sequence/physical_activity_semantic/physical_activity_semantic_6.png","0","",""
"","","","","","image-button-response","86","1508283","0.0-12.0-1.0-2.9","7A2FD3C07D83434E8933F2F44369452E","7A2FD3C07D83434E8933F2F44369452E","0198be2b-8911-71bf-ab63-c315e7e28f10","0198be1d-574a-752e-ae53-1d263a30e856","{""num_scrambled_semantic"":""8"",""num_scrambled_causal"":""4"",""num_scrambled_schematic"":""4"",""participantId"":""7A2FD3C07D83434E8933F2F44369452E"",""assignmentId"":""0198be2b-8911-71bf-ab63-c315e7e28f10"",""projectId"":""0198be1d-574a-752e-ae53-1d263a30e856""}","https://test12345.live/?num_scrambled_semantic=8&num_scrambled_causal=4&num_scrambled_schematic=4&participantId=7A2FD3C07D83434E8933F2F44369452E&assignmentId=0198be2b-8911-71bf-ab63-c315e7e28f10&projectId=0198be1d-574a-752e-ae53-1d263a30e856","7A2FD3C07D83434E8933F2F44369452E-2025-08-18-18-04-52","","null","","[]","null","",""
"","","","","","html-audio-response","87","1595450","0.0-13.0","7A2FD3C07D83434E8933F2F44369452E","7A2FD3C07D83434E8933F2F44369452E","0198be2b-8911-71bf-ab63-c315e7e28f10","0198be1d-574a-752e-ae53-1d263a30e856","{""num_scrambled_semantic"":""8"",""num_scrambled_causal"":""4"",""num_scrambled_schematic"":""4"",""participantId"":""7A2FD3C07D83434E8933F2F44369452E"",""assignmentId"":""0198be2b-8911-71bf-ab63-c315e7e28f10"",""projectId"":""0198be1d-574a-752e-ae53-1d263a30e856""}","https://test12345.live/?num_scrambled_semantic=8&num_scrambled_causal=4&num_scrambled_schematic=4&participantId=7A2FD3C07D83434E8933F2F44369452E&assignmentId=0198be2b-8911-71bf-ab63-c315e7e28f10&projectId=0198be1d-574a-752e-ae53-1d263a30e856","7A2FD3C07D83434E8933F2F44369452E-2025-08-18-18-04-52","","null","","[""<span style=\""color: red; font-size: 24px\""> NOW RECORDING</span><p>Please say out loud all the images you saw, in the exact order you saw them. Try to recall as many images as you can, but remember: getting the order right is more important than the number of images you recall.</p>""]","","1","physical_activity_semantic"
"","","","","","image-button-response","88","1601472","0.0-14.0-0.0","7A2FD3C07D83434E8933F2F44369452E","7A2FD3C07D83434E8933F2F44369452E","0198be2b-8911-71bf-ab63-c315e7e28f10","0198be1d-574a-752e-ae53-1d263a30e856","{""num_scrambled_semantic"":""8"",""num_scrambled_causal"":""4"",""num_scrambled_schematic"":""4"",""participantId"":""7A2FD3C07D83434E8933F2F44369452E"",""assignmentId"":""0198be2b-8911-71bf-ab63-c315e7e28f10"",""projectId"":""0198be1d-574a-752e-ae53-1d263a30e856""}","https://test12345.live/?num_scrambled_semantic=8&num_scrambled_causal=4&num_scrambled_schematic=4&participantId=7A2FD3C07D83434E8933F2F44369452E&assignmentId=0198be2b-8911-71bf-ab63-c315e7e28f10&projectId=0198be1d-574a-752e-ae53-1d263a30e856","7A2FD3C07D83434E8933F2F44369452E-2025-08-18-18-04-52","","null","","images/causal_sequence/coin_causal/coin_causal_0.png","null","",""
"","","","","","image-button-response","89","1605980","0.0-14.0-1.0-0.0","7A2FD3C07D83434E8933F2F44369452E","7A2FD3C07D83434E8933F2F44369452E","0198be2b-8911-71bf-ab63-c315e7e28f10","0198be1d-574a-752e-ae53-1d263a30e856","{""num_scrambled_semantic"":""8"",""num_scrambled_causal"":""4"",""num_scrambled_schematic"":""4"",""participantId"":""7A2FD3C07D83434E8933F2F44369452E"",""assignmentId"":""0198be2b-8911-71bf-ab63-c315e7e28f10"",""projectId"":""0198be1d-574a-752e-ae53-1d263a30e856""}","https://test12345.live/?num_scrambled_semantic=8&num_scrambled_causal=4&num_scrambled_schematic=4&participantId=7A2FD3C07D83434E8933F2F44369452E&assignmentId=0198be2b-8911-71bf-ab63-c315e7e28f10&projectId=0198be1d-574a-752e-ae53-1d263a30e856","7A2FD3C07D83434E8933F2F44369452E-2025-08-18-18-04-52","","null","","images/causal_sequence/coin_causal/coin_causal_8.png","null","",""
"","","","","","image-button-response","90","1608489","0.0-14.0-1.0-1.0","7A2FD3C07D83434E8933F2F44369452E","7A2FD3C07D83434E8933F2F44369452E","0198be2b-8911-71bf-ab63-c315e7e28f10","0198be1d-574a-752e-ae53-1d263a30e856","{""num_scrambled_semantic"":""8"",""num_scrambled_causal"":""4"",""num_scrambled_schematic"":""4"",""participantId"":""7A2FD3C07D83434E8933F2F44369452E"",""assignmentId"":""0198be2b-8911-71bf-ab63-c315e7e28f10"",""projectId"":""0198be1d-574a-752e-ae53-1d263a30e856""}","https://test12345.live/?num_scrambled_semantic=8&num_scrambled_causal=4&num_scrambled_schematic=4&participantId=7A2FD3C07D83434E8933F2F44369452E&assignmentId=0198be2b-8911-71bf-ab63-c315e7e28f10&projectId=0198be1d-574a-752e-ae53-1d263a30e856","7A2FD3C07D83434E8933F2F44369452E-2025-08-18-18-04-52","","2507","","images/causal_sequence/coin_causal/coin_causal_8.png","0","",""
"","","","","","image-button-response","91","1619299","0.0-14.0-1.0-2.0","7A2FD3C07D83434E8933F2F44369452E","7A2FD3C07D83434E8933F2F44369452E","0198be2b-8911-71bf-ab63-c315e7e28f10","0198be1d-574a-752e-ae53-1d263a30e856","{""num_scrambled_semantic"":""8"",""num_scrambled_causal"":""4"",""num_scrambled_schematic"":""4"",""participantId"":""7A2FD3C07D83434E8933F2F44369452E"",""assignmentId"":""0198be2b-8911-71bf-ab63-c315e7e28f10"",""projectId"":""0198be1d-574a-752e-ae53-1d263a30e856""}","https://test12345.live/?num_scrambled_semantic=8&num_scrambled_causal=4&num_scrambled_schematic=4&participantId=7A2FD3C07D83434E8933F2F44369452E&assignmentId=0198be2b-8911-71bf-ab63-c315e7e28f10&projectId=0198be1d-574a-752e-ae53-1d263a30e856","7A2FD3C07D83434E8933F2F44369452E-2025-08-18-18-04-52","","null","","[]","null","",""
"","","","","","image-button-response","92","1623811","0.0-14.0-1.0-0.1","7A2FD3C07D83434E8933F2F44369452E","7A2FD3C07D83434E8933F2F44369452E","0198be2b-8911-71bf-ab63-c315e7e28f10","0198be1d-574a-752e-ae53-1d263a30e856","{""num_scrambled_semantic"":""8"",""num_scrambled_causal"":""4"",""num_scrambled_schematic"":""4"",""participantId"":""7A2FD3C07D83434E8933F2F44369452E"",""assignmentId"":""0198be2b-8911-71bf-ab63-c315e7e28f10"",""projectId"":""0198be1d-574a-752e-ae53-1d263a30e856""}","https://test12345.live/?num_scrambled_semantic=8&num_scrambled_causal=4&num_scrambled_schematic=4&participantId=7A2FD3C07D83434E8933F2F44369452E&assignmentId=0198be2b-8911-71bf-ab63-c315e7e28f10&projectId=0198be1d-574a-752e-ae53-1d263a30e856","7A2FD3C07D83434E8933F2F44369452E-2025-08-18-18-04-52","","null","","images/causal_sequence/coin_causal/coin_causal_2.png","null","",""
"","","","","","image-button-response","93","1626365","0.0-14.0-1.0-1.1","7A2FD3C07D83434E8933F2F44369452E","7A2FD3C07D83434E8933F2F44369452E","0198be2b-8911-71bf-ab63-c315e7e28f10","0198be1d-574a-752e-ae53-1d263a30e856","{""num_scrambled_semantic"":""8"",""num_scrambled_causal"":""4"",""num_scrambled_schematic"":""4"",""participantId"":""7A2FD3C07D83434E8933F2F44369452E"",""assignmentId"":""0198be2b-8911-71bf-ab63-c315e7e28f10"",""projectId"":""0198be1d-574a-752e-ae53-1d263a30e856""}","https://test12345.live/?num_scrambled_semantic=8&num_scrambled_causal=4&num_scrambled_schematic=4&participantId=7A2FD3C07D83434E8933F2F44369452E&assignmentId=0198be2b-8911-71bf-ab63-c315e7e28f10&projectId=0198be1d-574a-752e-ae53-1d263a30e856","7A2FD3C07D83434E8933F2F44369452E-2025-08-18-18-04-52","","2552","","images/causal_sequence/coin_causal/coin_causal_2.png","0","",""
"","","","","","image-button-response","94","1637178","0.0-14.0-1.0-2.1","7A2FD3C07D83434E8933F2F44369452E","7A2FD3C07D83434E8933F2F44369452E","0198be2b-8911-71bf-ab63-c315e7e28f10","0198be1d-574a-752e-ae53-1d263a30e856","{""num_scrambled_semantic"":""8"",""num_scrambled_causal"":""4"",""num_scrambled_schematic"":""4"",""participantId"":""7A2FD3C07D83434E8933F2F44369452E"",""assignmentId"":""0198be2b-8911-71bf-ab63-c315e7e28f10"",""projectId"":""0198be1d-574a-752e-ae53-1d263a30e856""}","https://test12345.live/?num_scrambled_semantic=8&num_scrambled_causal=4&num_scrambled_schematic=4&participantId=7A2FD3C07D83434E8933F2F44369452E&assignmentId=0198be2b-8911-71bf-ab63-c315e7e28f10&projectId=0198be1d-574a-752e-ae53-1d263a30e856","7A2FD3C07D83434E8933F2F44369452E-2025-08-18-18-04-52","","null","","[]","null","",""
"","","","","","image-button-response","95","1641692","0.0-14.0-1.0-0.2","7A2FD3C07D83434E8933F2F44369452E","7A2FD3C07D83434E8933F2F44369452E","0198be2b-8911-71bf-ab63-c315e7e28f10","0198be1d-574a-752e-ae53-1d263a30e856","{""num_scrambled_semantic"":""8"",""num_scrambled_causal"":""4"",""num_scrambled_schematic"":""4"",""participantId"":""7A2FD3C07D83434E8933F2F44369452E"",""assignmentId"":""0198be2b-8911-71bf-ab63-c315e7e28f10"",""projectId"":""0198be1d-574a-752e-ae53-1d263a30e856""}","https://test12345.live/?num_scrambled_semantic=8&num_scrambled_causal=4&num_scrambled_schematic=4&participantId=7A2FD3C07D83434E8933F2F44369452E&assignmentId=0198be2b-8911-71bf-ab63-c315e7e28f10&projectId=0198be1d-574a-752e-ae53-1d263a30e856","7A2FD3C07D83434E8933F2F44369452E-2025-08-18-18-04-52","","null","","images/causal_sequence/coin_causal/coin_causal_1.png","null","",""
"","","","","","image-button-response","96","1643844","0.0-14.0-1.0-1.2","7A2FD3C07D83434E8933F2F44369452E","7A2FD3C07D83434E8933F2F44369452E","0198be2b-8911-71bf-ab63-c315e7e28f10","0198be1d-574a-752e-ae53-1d263a30e856","{""num_scrambled_semantic"":""8"",""num_scrambled_causal"":""4"",""num_scrambled_schematic"":""4"",""participantId"":""7A2FD3C07D83434E8933F2F44369452E"",""assignmentId"":""0198be2b-8911-71bf-ab63-c315e7e28f10"",""projectId"":""0198be1d-574a-752e-ae53-1d263a30e856""}","https://test12345.live/?num_scrambled_semantic=8&num_scrambled_causal=4&num_scrambled_schematic=4&participantId=7A2FD3C07D83434E8933F2F44369452E&assignmentId=0198be2b-8911-71bf-ab63-c315e7e28f10&projectId=0198be1d-574a-752e-ae53-1d263a30e856","7A2FD3C07D83434E8933F2F44369452E-2025-08-18-18-04-52","","2151","","images/causal_sequence/coin_causal/coin_causal_1.png","0","",""
"","","","","","image-button-response","97","1654653","0.0-14.0-1.0-2.2","7A2FD3C07D83434E8933F2F44369452E","7A2FD3C07D83434E8933F2F44369452E","0198be2b-8911-71bf-ab63-c315e7e28f10","0198be1d-574a-752e-ae53-1d263a30e856","{""num_scrambled_semantic"":""8"",""num_scrambled_causal"":""4"",""num_scrambled_schematic"":""4"",""participantId"":""7A2FD3C07D83434E8933F2F44369452E"",""assignmentId"":""0198be2b-8911-71bf-ab63-c315e7e28f10"",""projectId"":""0198be1d-574a-752e-ae53-1d263a30e856""}","https://test12345.live/?num_scrambled_semantic=8&num_scrambled_causal=4&num_scrambled_schematic=4&participantId=7A2FD3C07D83434E8933F2F44369452E&assignmentId=0198be2b-8911-71bf-ab63-c315e7e28f10&projectId=0198be1d-574a-752e-ae53-1d263a30e856","7A2FD3C07D83434E8933F2F44369452E-2025-08-18-18-04-52","","null","","[]","null","",""
"","","","","","image-button-response","98","1659158","0.0-14.0-1.0-0.3","7A2FD3C07D83434E8933F2F44369452E","7A2FD3C07D83434E8933F2F44369452E","0198be2b-8911-71bf-ab63-c315e7e28f10","0198be1d-574a-752e-ae53-1d263a30e856","{""num_scrambled_semantic"":""8"",""num_scrambled_causal"":""4"",""num_scrambled_schematic"":""4"",""participantId"":""7A2FD3C07D83434E8933F2F44369452E"",""assignmentId"":""0198be2b-8911-71bf-ab63-c315e7e28f10"",""projectId"":""0198be1d-574a-752e-ae53-1d263a30e856""}","https://test12345.live/?num_scrambled_semantic=8&num_scrambled_causal=4&num_scrambled_schematic=4&participantId=7A2FD3C07D83434E8933F2F44369452E&assignmentId=0198be2b-8911-71bf-ab63-c315e7e28f10&projectId=0198be1d-574a-752e-ae53-1d263a30e856","7A2FD3C07D83434E8933F2F44369452E-2025-08-18-18-04-52","","null","","images/causal_sequence/coin_causal/coin_causal_6.png","null","",""
"","","","","","image-button-response","99","1661390","0.0-14.0-1.0-1.3","7A2FD3C07D83434E8933F2F44369452E","7A2FD3C07D83434E8933F2F44369452E","0198be2b-8911-71bf-ab63-c315e7e28f10","0198be1d-574a-752e-ae53-1d263a30e856","{""num_scrambled_semantic"":""8"",""num_scrambled_causal"":""4"",""num_scrambled_schematic"":""4"",""participantId"":""7A2FD3C07D83434E8933F2F44369452E"",""assignmentId"":""0198be2b-8911-71bf-ab63-c315e7e28f10"",""projectId"":""0198be1d-574a-752e-ae53-1d263a30e856""}","https://test12345.live/?num_scrambled_semantic=8&num_scrambled_causal=4&num_scrambled_schematic=4&participantId=7A2FD3C07D83434E8933F2F44369452E&assignmentId=0198be2b-8911-71bf-ab63-c315e7e28f10&projectId=0198be1d-574a-752e-ae53-1d263a30e856","7A2FD3C07D83434E8933F2F44369452E-2025-08-18-18-04-52","","2231","","images/causal_sequence/coin_causal/coin_causal_6.png","0","",""
"","","","","","image-button-response","100","1672198","0.0-14.0-1.0-2.3","7A2FD3C07D83434E8933F2F44369452E","7A2FD3C07D83434E8933F2F44369452E","0198be2b-8911-71bf-ab63-c315e7e28f10","0198be1d-574a-752e-ae53-1d263a30e856","{""num_scrambled_semantic"":""8"",""num_scrambled_causal"":""4"",""num_scrambled_schematic"":""4"",""participantId"":""7A2FD3C07D83434E8933F2F44369452E"",""assignmentId"":""0198be2b-8911-71bf-ab63-c315e7e28f10"",""projectId"":""0198be1d-574a-752e-ae53-1d263a30e856""}","https://test12345.live/?num_scrambled_semantic=8&num_scrambled_causal=4&num_scrambled_schematic=4&participantId=7A2FD3C07D83434E8933F2F44369452E&assignmentId=0198be2b-8911-71bf-ab63-c315e7e28f10&projectId=0198be1d-574a-752e-ae53-1d263a30e856","7A2FD3C07D83434E8933F2F44369452E-2025-08-18-18-04-52","","null","","[]","null","",""
"","","","","","image-button-response","101","1676702","0.0-14.0-1.0-0.4","7A2FD3C07D83434E8933F2F44369452E","7A2FD3C07D83434E8933F2F44369452E","0198be2b-8911-71bf-ab63-c315e7e28f10","0198be1d-574a-752e-ae53-1d263a30e856","{""num_scrambled_semantic"":""8"",""num_scrambled_causal"":""4"",""num_scrambled_schematic"":""4"",""participantId"":""7A2FD3C07D83434E8933F2F44369452E"",""assignmentId"":""0198be2b-8911-71bf-ab63-c315e7e28f10"",""projectId"":""0198be1d-574a-752e-ae53-1d263a30e856""}","https://test12345.live/?num_scrambled_semantic=8&num_scrambled_causal=4&num_scrambled_schematic=4&participantId=7A2FD3C07D83434E8933F2F44369452E&assignmentId=0198be2b-8911-71bf-ab63-c315e7e28f10&projectId=0198be1d-574a-752e-ae53-1d263a30e856","7A2FD3C07D83434E8933F2F44369452E-2025-08-18-18-04-52","","null","","images/causal_sequence/coin_causal/coin_causal_ten.png","null","",""
"","","","","","image-button-response","102","1680706","0.0-14.0-1.0-1.4","7A2FD3C07D83434E8933F2F44369452E","7A2FD3C07D83434E8933F2F44369452E","0198be2b-8911-71bf-ab63-c315e7e28f10","0198be1d-574a-752e-ae53-1d263a30e856","{""num_scrambled_semantic"":""8"",""num_scrambled_causal"":""4"",""num_scrambled_schematic"":""4"",""participantId"":""7A2FD3C07D83434E8933F2F44369452E"",""assignmentId"":""0198be2b-8911-71bf-ab63-c315e7e28f10"",""projectId"":""0198be1d-574a-752e-ae53-1d263a30e856""}","https://test12345.live/?num_scrambled_semantic=8&num_scrambled_causal=4&num_scrambled_schematic=4&participantId=7A2FD3C07D83434E8933F2F44369452E&assignmentId=0198be2b-8911-71bf-ab63-c315e7e28f10&projectId=0198be1d-574a-752e-ae53-1d263a30e856","7A2FD3C07D83434E8933F2F44369452E-2025-08-18-18-04-52","","null","","images/causal_sequence/coin_causal/coin_causal_ten.png","null","",""
"","","","","","image-button-response","103","1691515","0.0-14.0-1.0-2.4","7A2FD3C07D83434E8933F2F44369452E","7A2FD3C07D83434E8933F2F44369452E","0198be2b-8911-71bf-ab63-c315e7e28f10","0198be1d-574a-752e-ae53-1d263a30e856","{""num_scrambled_semantic"":""8"",""num_scrambled_causal"":""4"",""num_scrambled_schematic"":""4"",""participantId"":""7A2FD3C07D83434E8933F2F44369452E"",""assignmentId"":""0198be2b-8911-71bf-ab63-c315e7e28f10"",""projectId"":""0198be1d-574a-752e-ae53-1d263a30e856""}","https://test12345.live/?num_scrambled_semantic=8&num_scrambled_causal=4&num_scrambled_schematic=4&participantId=7A2FD3C07D83434E8933F2F44369452E&assignmentId=0198be2b-8911-71bf-ab63-c315e7e28f10&projectId=0198be1d-574a-752e-ae53-1d263a30e856","7A2FD3C07D83434E8933F2F44369452E-2025-08-18-18-04-52","","null","","[]","null","",""
"","","","","","image-button-response","104","1696024","0.0-14.0-1.0-0.5","7A2FD3C07D83434E8933F2F44369452E","7A2FD3C07D83434E8933F2F44369452E","0198be2b-8911-71bf-ab63-c315e7e28f10","0198be1d-574a-752e-ae53-1d263a30e856","{""num_scrambled_semantic"":""8"",""num_scrambled_causal"":""4"",""num_scrambled_schematic"":""4"",""participantId"":""7A2FD3C07D83434E8933F2F44369452E"",""assignmentId"":""0198be2b-8911-71bf-ab63-c315e7e28f10"",""projectId"":""0198be1d-574a-752e-ae53-1d263a30e856""}","https://test12345.live/?num_scrambled_semantic=8&num_scrambled_causal=4&num_scrambled_schematic=4&participantId=7A2FD3C07D83434E8933F2F44369452E&assignmentId=0198be2b-8911-71bf-ab63-c315e7e28f10&projectId=0198be1d-574a-752e-ae53-1d263a30e856","7A2FD3C07D83434E8933F2F44369452E-2025-08-18-18-04-52","","null","","images/causal_sequence/coin_causal/coin_causal_3.png","null","",""
"","","","","","image-button-response","105","1698165","0.0-14.0-1.0-1.5","7A2FD3C07D83434E8933F2F44369452E","7A2FD3C07D83434E8933F2F44369452E","0198be2b-8911-71bf-ab63-c315e7e28f10","0198be1d-574a-752e-ae53-1d263a30e856","{""num_scrambled_semantic"":""8"",""num_scrambled_causal"":""4"",""num_scrambled_schematic"":""4"",""participantId"":""7A2FD3C07D83434E8933F2F44369452E"",""assignmentId"":""0198be2b-8911-71bf-ab63-c315e7e28f10"",""projectId"":""0198be1d-574a-752e-ae53-1d263a30e856""}","https://test12345.live/?num_scrambled_semantic=8&num_scrambled_causal=4&num_scrambled_schematic=4&participantId=7A2FD3C07D83434E8933F2F44369452E&assignmentId=0198be2b-8911-71bf-ab63-c315e7e28f10&projectId=0198be1d-574a-752e-ae53-1d263a30e856","7A2FD3C07D83434E8933F2F44369452E-2025-08-18-18-04-52","","2139","","images/causal_sequence/coin_causal/coin_causal_3.png","0","",""
"","","","","","image-button-response","106","1708967","0.0-14.0-1.0-2.5","7A2FD3C07D83434E8933F2F44369452E","7A2FD3C07D83434E8933F2F44369452E","0198be2b-8911-71bf-ab63-c315e7e28f10","0198be1d-574a-752e-ae53-1d263a30e856","{""num_scrambled_semantic"":""8"",""num_scrambled_causal"":""4"",""num_scrambled_schematic"":""4"",""participantId"":""7A2FD3C07D83434E8933F2F44369452E"",""assignmentId"":""0198be2b-8911-71bf-ab63-c315e7e28f10"",""projectId"":""0198be1d-574a-752e-ae53-1d263a30e856""}","https://test12345.live/?num_scrambled_semantic=8&num_scrambled_causal=4&num_scrambled_schematic=4&participantId=7A2FD3C07D83434E8933F2F44369452E&assignmentId=0198be2b-8911-71bf-ab63-c315e7e28f10&projectId=0198be1d-574a-752e-ae53-1d263a30e856","7A2FD3C07D83434E8933F2F44369452E-2025-08-18-18-04-52","","null","","[]","null","",""
"","","","","","image-button-response","107","1713472","0.0-14.0-1.0-0.6","7A2FD3C07D83434E8933F2F44369452E","7A2FD3C07D83434E8933F2F44369452E","0198be2b-8911-71bf-ab63-c315e7e28f10","0198be1d-574a-752e-ae53-1d263a30e856","{""num_scrambled_semantic"":""8"",""num_scrambled_causal"":""4"",""num_scrambled_schematic"":""4"",""participantId"":""7A2FD3C07D83434E8933F2F44369452E"",""assignmentId"":""0198be2b-8911-71bf-ab63-c315e7e28f10"",""projectId"":""0198be1d-574a-752e-ae53-1d263a30e856""}","https://test12345.live/?num_scrambled_semantic=8&num_scrambled_causal=4&num_scrambled_schematic=4&participantId=7A2FD3C07D83434E8933F2F44369452E&assignmentId=0198be2b-8911-71bf-ab63-c315e7e28f10&projectId=0198be1d-574a-752e-ae53-1d263a30e856","7A2FD3C07D83434E8933F2F44369452E-2025-08-18-18-04-52","","null","","images/causal_sequence/coin_causal/coin_causal_4.png","null","",""
"","","","","","image-button-response","108","1717189","0.0-14.0-1.0-1.6","7A2FD3C07D83434E8933F2F44369452E","7A2FD3C07D83434E8933F2F44369452E","0198be2b-8911-71bf-ab63-c315e7e28f10","0198be1d-574a-752e-ae53-1d263a30e856","{""num_scrambled_semantic"":""8"",""num_scrambled_causal"":""4"",""num_scrambled_schematic"":""4"",""participantId"":""7A2FD3C07D83434E8933F2F44369452E"",""assignmentId"":""0198be2b-8911-71bf-ab63-c315e7e28f10"",""projectId"":""0198be1d-574a-752e-ae53-1d263a30e856""}","https://test12345.live/?num_scrambled_semantic=8&num_scrambled_causal=4&num_scrambled_schematic=4&participantId=7A2FD3C07D83434E8933F2F44369452E&assignmentId=0198be2b-8911-71bf-ab63-c315e7e28f10&projectId=0198be1d-574a-752e-ae53-1d263a30e856","7A2FD3C07D83434E8933F2F44369452E-2025-08-18-18-04-52","","3716","","images/causal_sequence/coin_causal/coin_causal_4.png","0","",""
"","","","","","image-button-response","109","1727994","0.0-14.0-1.0-2.6","7A2FD3C07D83434E8933F2F44369452E","7A2FD3C07D83434E8933F2F44369452E","0198be2b-8911-71bf-ab63-c315e7e28f10","0198be1d-574a-752e-ae53-1d263a30e856","{""num_scrambled_semantic"":""8"",""num_scrambled_causal"":""4"",""num_scrambled_schematic"":""4"",""participantId"":""7A2FD3C07D83434E8933F2F44369452E"",""assignmentId"":""0198be2b-8911-71bf-ab63-c315e7e28f10"",""projectId"":""0198be1d-574a-752e-ae53-1d263a30e856""}","https://test12345.live/?num_scrambled_semantic=8&num_scrambled_causal=4&num_scrambled_schematic=4&participantId=7A2FD3C07D83434E8933F2F44369452E&assignmentId=0198be2b-8911-71bf-ab63-c315e7e28f10&projectId=0198be1d-574a-752e-ae53-1d263a30e856","7A2FD3C07D83434E8933F2F44369452E-2025-08-18-18-04-52","","null","","[]","null","",""
"","","","","","image-button-response","110","1732503","0.0-14.0-1.0-0.7","7A2FD3C07D83434E8933F2F44369452E","7A2FD3C07D83434E8933F2F44369452E","0198be2b-8911-71bf-ab63-c315e7e28f10","0198be1d-574a-752e-ae53-1d263a30e856","{""num_scrambled_semantic"":""8"",""num_scrambled_causal"":""4"",""num_scrambled_schematic"":""4"",""participantId"":""7A2FD3C07D83434E8933F2F44369452E"",""assignmentId"":""0198be2b-8911-71bf-ab63-c315e7e28f10"",""projectId"":""0198be1d-574a-752e-ae53-1d263a30e856""}","https://test12345.live/?num_scrambled_semantic=8&num_scrambled_causal=4&num_scrambled_schematic=4&participantId=7A2FD3C07D83434E8933F2F44369452E&assignmentId=0198be2b-8911-71bf-ab63-c315e7e28f10&projectId=0198be1d-574a-752e-ae53-1d263a30e856","7A2FD3C07D83434E8933F2F44369452E-2025-08-18-18-04-52","","null","","images/causal_sequence/coin_causal/coin_causal_9.png","null","",""
"","","","","","image-button-response","111","1734718","0.0-14.0-1.0-1.7","7A2FD3C07D83434E8933F2F44369452E","7A2FD3C07D83434E8933F2F44369452E","0198be2b-8911-71bf-ab63-c315e7e28f10","0198be1d-574a-752e-ae53-1d263a30e856","{""num_scrambled_semantic"":""8"",""num_scrambled_causal"":""4"",""num_scrambled_schematic"":""4"",""participantId"":""7A2FD3C07D83434E8933F2F44369452E"",""assignmentId"":""0198be2b-8911-71bf-ab63-c315e7e28f10"",""projectId"":""0198be1d-574a-752e-ae53-1d263a30e856""}","https://test12345.live/?num_scrambled_semantic=8&num_scrambled_causal=4&num_scrambled_schematic=4&participantId=7A2FD3C07D83434E8933F2F44369452E&assignmentId=0198be2b-8911-71bf-ab63-c315e7e28f10&projectId=0198be1d-574a-752e-ae53-1d263a30e856","7A2FD3C07D83434E8933F2F44369452E-2025-08-18-18-04-52","","2214","","images/causal_sequence/coin_causal/coin_causal_9.png","0","",""
"","","","","","image-button-response","112","1745525","0.0-14.0-1.0-2.7","7A2FD3C07D83434E8933F2F44369452E","7A2FD3C07D83434E8933F2F44369452E","0198be2b-8911-71bf-ab63-c315e7e28f10","0198be1d-574a-752e-ae53-1d263a30e856","{""num_scrambled_semantic"":""8"",""num_scrambled_causal"":""4"",""num_scrambled_schematic"":""4"",""participantId"":""7A2FD3C07D83434E8933F2F44369452E"",""assignmentId"":""0198be2b-8911-71bf-ab63-c315e7e28f10"",""projectId"":""0198be1d-574a-752e-ae53-1d263a30e856""}","https://test12345.live/?num_scrambled_semantic=8&num_scrambled_causal=4&num_scrambled_schematic=4&participantId=7A2FD3C07D83434E8933F2F44369452E&assignmentId=0198be2b-8911-71bf-ab63-c315e7e28f10&projectId=0198be1d-574a-752e-ae53-1d263a30e856","7A2FD3C07D83434E8933F2F44369452E-2025-08-18-18-04-52","","null","","[]","null","",""
"","","","","","image-button-response","113","1750026","0.0-14.0-1.0-0.8","7A2FD3C07D83434E8933F2F44369452E","7A2FD3C07D83434E8933F2F44369452E","0198be2b-8911-71bf-ab63-c315e7e28f10","0198be1d-574a-752e-ae53-1d263a30e856","{""num_scrambled_semantic"":""8"",""num_scrambled_causal"":""4"",""num_scrambled_schematic"":""4"",""participantId"":""7A2FD3C07D83434E8933F2F44369452E"",""assignmentId"":""0198be2b-8911-71bf-ab63-c315e7e28f10"",""projectId"":""0198be1d-574a-752e-ae53-1d263a30e856""}","https://test12345.live/?num_scrambled_semantic=8&num_scrambled_causal=4&num_scrambled_schematic=4&participantId=7A2FD3C07D83434E8933F2F44369452E&assignmentId=0198be2b-8911-71bf-ab63-c315e7e28f10&projectId=0198be1d-574a-752e-ae53-1d263a30e856","7A2FD3C07D83434E8933F2F44369452E-2025-08-18-18-04-52","","null","","images/causal_sequence/coin_causal/coin_causal_7.png","null","",""
