"success","timeout","failed_images","failed_audio","failed_video","trial_type","trial_index","time_elapsed","internal_node_id","subject","subject_id","study_id","session_id","urlvar","current_url","audio_id","view_history","rt","device_id","stimulus","response","estimated_stimulus_onset","seq_name"
"true","false","[]","[]","[]","preload","0","5974","0.0-0.0","7A2FD3C07D83434E8933F2F44369452E","7A2FD3C07D83434E8933F2F44369452E","4b28ab2d-ffb0-4eaa-9119-81585b93f95b","5e631737-0fa4-44a6-b227-7ba1d7345015","{""num_scrambled_semantic"":""8"",""num_scrambled_causal"":""4"",""num_scrambled_schematic"":""4"",""participantId"":""7A2FD3C07D83434E8933F2F44369452E"",""assignmentId"":""4b28ab2d-ffb0-4eaa-9119-81585b93f95b"",""projectId"":""5e631737-0fa4-44a6-b227-7ba1d7345015""}","https://test12345.live/?num_scrambled_semantic=8&num_scrambled_causal=4&num_scrambled_schematic=4&participantId=7A2FD3C07D83434E8933F2F44369452E&assignmentId=4b28ab2d-ffb0-4eaa-9119-81585b93f95b&projectId=5e631737-0fa4-44a6-b227-7ba1d7345015","7A2FD3C07D83434E8933F2F44369452E-2025-05-27-18-58-04","","","","","","",""
"","","","","","instructions","1","669532","0.0-1.0","7A2FD3C07D83434E8933F2F44369452E","7A2FD3C07D83434E8933F2F44369452E","4b28ab2d-ffb0-4eaa-9119-81585b93f95b","5e631737-0fa4-44a6-b227-7ba1d7345015","{""num_scrambled_semantic"":""8"",""num_scrambled_causal"":""4"",""num_scrambled_schematic"":""4"",""participantId"":""7A2FD3C07D83434E8933F2F44369452E"",""assignmentId"":""4b28ab2d-ffb0-4eaa-9119-81585b93f95b"",""projectId"":""5e631737-0fa4-44a6-b227-7ba1d7345015""}","https://test12345.live/?num_scrambled_semantic=8&num_scrambled_causal=4&num_scrambled_schematic=4&participantId=7A2FD3C07D83434E8933F2F44369452E&assignmentId=4b28ab2d-ffb0-4eaa-9119-81585b93f95b&projectId=5e631737-0fa4-44a6-b227-7ba1d7345015","7A2FD3C07D83434E8933F2F44369452E-2025-05-27-18-58-04","[{""page_index"":0,""viewing_time"":663558}]","663558","","","","",""
"","","","","","instructions","2","709144","0.0-2.0","7A2FD3C07D83434E8933F2F44369452E","7A2FD3C07D83434E8933F2F44369452E","4b28ab2d-ffb0-4eaa-9119-81585b93f95b","5e631737-0fa4-44a6-b227-7ba1d7345015","{""num_scrambled_semantic"":""8"",""num_scrambled_causal"":""4"",""num_scrambled_schematic"":""4"",""participantId"":""7A2FD3C07D83434E8933F2F44369452E"",""assignmentId"":""4b28ab2d-ffb0-4eaa-9119-81585b93f95b"",""projectId"":""5e631737-0fa4-44a6-b227-7ba1d7345015""}","https://test12345.live/?num_scrambled_semantic=8&num_scrambled_causal=4&num_scrambled_schematic=4&participantId=7A2FD3C07D83434E8933F2F44369452E&assignmentId=4b28ab2d-ffb0-4eaa-9119-81585b93f95b&projectId=5e631737-0fa4-44a6-b227-7ba1d7345015","7A2FD3C07D83434E8933F2F44369452E-2025-05-27-18-58-04","[{""page_index"":0,""viewing_time"":39610}]","39610","","","","",""
"true","","","","","fullscreen","3","714609","0.0-3.0","7A2FD3C07D83434E8933F2F44369452E","7A2FD3C07D83434E8933F2F44369452E","4b28ab2d-ffb0-4eaa-9119-81585b93f95b","5e631737-0fa4-44a6-b227-7ba1d7345015","{""num_scrambled_semantic"":""8"",""num_scrambled_causal"":""4"",""num_scrambled_schematic"":""4"",""participantId"":""7A2FD3C07D83434E8933F2F44369452E"",""assignmentId"":""4b28ab2d-ffb0-4eaa-9119-81585b93f95b"",""projectId"":""5e631737-0fa4-44a6-b227-7ba1d7345015""}","https://test12345.live/?num_scrambled_semantic=8&num_scrambled_causal=4&num_scrambled_schematic=4&participantId=7A2FD3C07D83434E8933F2F44369452E&assignmentId=4b28ab2d-ffb0-4eaa-9119-81585b93f95b&projectId=5e631737-0fa4-44a6-b227-7ba1d7345015","7A2FD3C07D83434E8933F2F44369452E-2025-05-27-18-58-04","","4461","","","","",""
"","","","","","initialize-microphone","4","728187","0.0-4.0-0.0","7A2FD3C07D83434E8933F2F44369452E","7A2FD3C07D83434E8933F2F44369452E","4b28ab2d-ffb0-4eaa-9119-81585b93f95b","5e631737-0fa4-44a6-b227-7ba1d7345015","{""num_scrambled_semantic"":""8"",""num_scrambled_causal"":""4"",""num_scrambled_schematic"":""4"",""participantId"":""7A2FD3C07D83434E8933F2F44369452E"",""assignmentId"":""4b28ab2d-ffb0-4eaa-9119-81585b93f95b"",""projectId"":""5e631737-0fa4-44a6-b227-7ba1d7345015""}","https://test12345.live/?num_scrambled_semantic=8&num_scrambled_causal=4&num_scrambled_schematic=4&participantId=7A2FD3C07D83434E8933F2F44369452E&assignmentId=4b28ab2d-ffb0-4eaa-9119-81585b93f95b&projectId=5e631737-0fa4-44a6-b227-7ba1d7345015","7A2FD3C07D83434E8933F2F44369452E-2025-05-27-18-58-04","","","MqCg9fbViIGc04RgT5jcf6jpDDb6fWRShn3CwsQEMlE=","","","",""
"","","","","","html-audio-response","5","800075","0.0-4.0-1.0","7A2FD3C07D83434E8933F2F44369452E","7A2FD3C07D83434E8933F2F44369452E","4b28ab2d-ffb0-4eaa-9119-81585b93f95b","5e631737-0fa4-44a6-b227-7ba1d7345015","{""num_scrambled_semantic"":""8"",""num_scrambled_causal"":""4"",""num_scrambled_schematic"":""4"",""participantId"":""7A2FD3C07D83434E8933F2F44369452E"",""assignmentId"":""4b28ab2d-ffb0-4eaa-9119-81585b93f95b"",""projectId"":""5e631737-0fa4-44a6-b227-7ba1d7345015""}","https://test12345.live/?num_scrambled_semantic=8&num_scrambled_causal=4&num_scrambled_schematic=4&participantId=7A2FD3C07D83434E8933F2F44369452E&assignmentId=4b28ab2d-ffb0-4eaa-9119-81585b93f95b&projectId=5e631737-0fa4-44a6-b227-7ba1d7345015","7A2FD3C07D83434E8933F2F44369452E-2025-05-27-18-58-04","","null","","<span style=""color: red; font-size: 24px""> NOW RECORDING</span>
        <p>Please test Microphone</p>","","0",""
"","","","","","html-button-response","6","802422","0.0-4.0-2.0","7A2FD3C07D83434E8933F2F44369452E","7A2FD3C07D83434E8933F2F44369452E","4b28ab2d-ffb0-4eaa-9119-81585b93f95b","5e631737-0fa4-44a6-b227-7ba1d7345015","{""num_scrambled_semantic"":""8"",""num_scrambled_causal"":""4"",""num_scrambled_schematic"":""4"",""participantId"":""7A2FD3C07D83434E8933F2F44369452E"",""assignmentId"":""4b28ab2d-ffb0-4eaa-9119-81585b93f95b"",""projectId"":""5e631737-0fa4-44a6-b227-7ba1d7345015""}","https://test12345.live/?num_scrambled_semantic=8&num_scrambled_causal=4&num_scrambled_schematic=4&participantId=7A2FD3C07D83434E8933F2F44369452E&assignmentId=4b28ab2d-ffb0-4eaa-9119-81585b93f95b&projectId=5e631737-0fa4-44a6-b227-7ba1d7345015","7A2FD3C07D83434E8933F2F44369452E-2025-05-27-18-58-04","","2344","","<p style=""font-size:48px; color:red;"">Is Microphone OK?</p>","1","",""
"","","","","","instructions","7","835424","0.0-5.0","7A2FD3C07D83434E8933F2F44369452E","7A2FD3C07D83434E8933F2F44369452E","4b28ab2d-ffb0-4eaa-9119-81585b93f95b","5e631737-0fa4-44a6-b227-7ba1d7345015","{""num_scrambled_semantic"":""8"",""num_scrambled_causal"":""4"",""num_scrambled_schematic"":""4"",""participantId"":""7A2FD3C07D83434E8933F2F44369452E"",""assignmentId"":""4b28ab2d-ffb0-4eaa-9119-81585b93f95b"",""projectId"":""5e631737-0fa4-44a6-b227-7ba1d7345015""}","https://test12345.live/?num_scrambled_semantic=8&num_scrambled_causal=4&num_scrambled_schematic=4&participantId=7A2FD3C07D83434E8933F2F44369452E&assignmentId=4b28ab2d-ffb0-4eaa-9119-81585b93f95b&projectId=5e631737-0fa4-44a6-b227-7ba1d7345015","7A2FD3C07D83434E8933F2F44369452E-2025-05-27-18-58-04","[{""page_index"":0,""viewing_time"":9126},{""page_index"":1,""viewing_time"":23876}]","33002","","","","",""
"","","","","","image-button-response","8","841956","0.0-6.0-0.0","7A2FD3C07D83434E8933F2F44369452E","7A2FD3C07D83434E8933F2F44369452E","4b28ab2d-ffb0-4eaa-9119-81585b93f95b","5e631737-0fa4-44a6-b227-7ba1d7345015","{""num_scrambled_semantic"":""8"",""num_scrambled_causal"":""4"",""num_scrambled_schematic"":""4"",""participantId"":""7A2FD3C07D83434E8933F2F44369452E"",""assignmentId"":""4b28ab2d-ffb0-4eaa-9119-81585b93f95b"",""projectId"":""5e631737-0fa4-44a6-b227-7ba1d7345015""}","https://test12345.live/?num_scrambled_semantic=8&num_scrambled_causal=4&num_scrambled_schematic=4&participantId=7A2FD3C07D83434E8933F2F44369452E&assignmentId=4b28ab2d-ffb0-4eaa-9119-81585b93f95b&projectId=5e631737-0fa4-44a6-b227-7ba1d7345015","7A2FD3C07D83434E8933F2F44369452E-2025-05-27-18-58-04","","null","","images/instructions/movie_0.png","null","",""
"","","","","","image-button-response","9","846496","0.0-6.0-1.0-0.0","7A2FD3C07D83434E8933F2F44369452E","7A2FD3C07D83434E8933F2F44369452E","4b28ab2d-ffb0-4eaa-9119-81585b93f95b","5e631737-0fa4-44a6-b227-7ba1d7345015","{""num_scrambled_semantic"":""8"",""num_scrambled_causal"":""4"",""num_scrambled_schematic"":""4"",""participantId"":""7A2FD3C07D83434E8933F2F44369452E"",""assignmentId"":""4b28ab2d-ffb0-4eaa-9119-81585b93f95b"",""projectId"":""5e631737-0fa4-44a6-b227-7ba1d7345015""}","https://test12345.live/?num_scrambled_semantic=8&num_scrambled_causal=4&num_scrambled_schematic=4&participantId=7A2FD3C07D83434E8933F2F44369452E&assignmentId=4b28ab2d-ffb0-4eaa-9119-81585b93f95b&projectId=5e631737-0fa4-44a6-b227-7ba1d7345015","7A2FD3C07D83434E8933F2F44369452E-2025-05-27-18-58-04","","null","","images/instructions/movie_1.png","null","",""
"","","","","","image-button-response","10","849939","0.0-6.0-1.0-1.0","7A2FD3C07D83434E8933F2F44369452E","7A2FD3C07D83434E8933F2F44369452E","4b28ab2d-ffb0-4eaa-9119-81585b93f95b","5e631737-0fa4-44a6-b227-7ba1d7345015","{""num_scrambled_semantic"":""8"",""num_scrambled_causal"":""4"",""num_scrambled_schematic"":""4"",""participantId"":""7A2FD3C07D83434E8933F2F44369452E"",""assignmentId"":""4b28ab2d-ffb0-4eaa-9119-81585b93f95b"",""projectId"":""5e631737-0fa4-44a6-b227-7ba1d7345015""}","https://test12345.live/?num_scrambled_semantic=8&num_scrambled_causal=4&num_scrambled_schematic=4&participantId=7A2FD3C07D83434E8933F2F44369452E&assignmentId=4b28ab2d-ffb0-4eaa-9119-81585b93f95b&projectId=5e631737-0fa4-44a6-b227-7ba1d7345015","7A2FD3C07D83434E8933F2F44369452E-2025-05-27-18-58-04","","3441","","images/instructions/movie_1.png","0","",""
"","","","","","image-button-response","11","851749","0.0-6.0-1.0-2.0","7A2FD3C07D83434E8933F2F44369452E","7A2FD3C07D83434E8933F2F44369452E","4b28ab2d-ffb0-4eaa-9119-81585b93f95b","5e631737-0fa4-44a6-b227-7ba1d7345015","{""num_scrambled_semantic"":""8"",""num_scrambled_causal"":""4"",""num_scrambled_schematic"":""4"",""participantId"":""7A2FD3C07D83434E8933F2F44369452E"",""assignmentId"":""4b28ab2d-ffb0-4eaa-9119-81585b93f95b"",""projectId"":""5e631737-0fa4-44a6-b227-7ba1d7345015""}","https://test12345.live/?num_scrambled_semantic=8&num_scrambled_causal=4&num_scrambled_schematic=4&participantId=7A2FD3C07D83434E8933F2F44369452E&assignmentId=4b28ab2d-ffb0-4eaa-9119-81585b93f95b&projectId=5e631737-0fa4-44a6-b227-7ba1d7345015","7A2FD3C07D83434E8933F2F44369452E-2025-05-27-18-58-04","","null","","[]","null","",""
"","","","","","image-button-response","12","856275","0.0-6.0-1.0-0.1","7A2FD3C07D83434E8933F2F44369452E","7A2FD3C07D83434E8933F2F44369452E","4b28ab2d-ffb0-4eaa-9119-81585b93f95b","5e631737-0fa4-44a6-b227-7ba1d7345015","{""num_scrambled_semantic"":""8"",""num_scrambled_causal"":""4"",""num_scrambled_schematic"":""4"",""participantId"":""7A2FD3C07D83434E8933F2F44369452E"",""assignmentId"":""4b28ab2d-ffb0-4eaa-9119-81585b93f95b"",""projectId"":""5e631737-0fa4-44a6-b227-7ba1d7345015""}","https://test12345.live/?num_scrambled_semantic=8&num_scrambled_causal=4&num_scrambled_schematic=4&participantId=7A2FD3C07D83434E8933F2F44369452E&assignmentId=4b28ab2d-ffb0-4eaa-9119-81585b93f95b&projectId=5e631737-0fa4-44a6-b227-7ba1d7345015","7A2FD3C07D83434E8933F2F44369452E-2025-05-27-18-58-04","","null","","images/instructions/movie_2.png","null","",""
"","","","","","image-button-response","13","860345","0.0-6.0-1.0-1.1","7A2FD3C07D83434E8933F2F44369452E","7A2FD3C07D83434E8933F2F44369452E","4b28ab2d-ffb0-4eaa-9119-81585b93f95b","5e631737-0fa4-44a6-b227-7ba1d7345015","{""num_scrambled_semantic"":""8"",""num_scrambled_causal"":""4"",""num_scrambled_schematic"":""4"",""participantId"":""7A2FD3C07D83434E8933F2F44369452E"",""assignmentId"":""4b28ab2d-ffb0-4eaa-9119-81585b93f95b"",""projectId"":""5e631737-0fa4-44a6-b227-7ba1d7345015""}","https://test12345.live/?num_scrambled_semantic=8&num_scrambled_causal=4&num_scrambled_schematic=4&participantId=7A2FD3C07D83434E8933F2F44369452E&assignmentId=4b28ab2d-ffb0-4eaa-9119-81585b93f95b&projectId=5e631737-0fa4-44a6-b227-7ba1d7345015","7A2FD3C07D83434E8933F2F44369452E-2025-05-27-18-58-04","","null","","images/instructions/movie_2.png","null","",""
"","","","","","image-button-response","14","862151","0.0-6.0-1.0-2.1","7A2FD3C07D83434E8933F2F44369452E","7A2FD3C07D83434E8933F2F44369452E","4b28ab2d-ffb0-4eaa-9119-81585b93f95b","5e631737-0fa4-44a6-b227-7ba1d7345015","{""num_scrambled_semantic"":""8"",""num_scrambled_causal"":""4"",""num_scrambled_schematic"":""4"",""participantId"":""7A2FD3C07D83434E8933F2F44369452E"",""assignmentId"":""4b28ab2d-ffb0-4eaa-9119-81585b93f95b"",""projectId"":""5e631737-0fa4-44a6-b227-7ba1d7345015""}","https://test12345.live/?num_scrambled_semantic=8&num_scrambled_causal=4&num_scrambled_schematic=4&participantId=7A2FD3C07D83434E8933F2F44369452E&assignmentId=4b28ab2d-ffb0-4eaa-9119-81585b93f95b&projectId=5e631737-0fa4-44a6-b227-7ba1d7345015","7A2FD3C07D83434E8933F2F44369452E-2025-05-27-18-58-04","","null","","[]","null","",""
"","","","","","image-button-response","15","866712","0.0-6.0-1.0-0.2","7A2FD3C07D83434E8933F2F44369452E","7A2FD3C07D83434E8933F2F44369452E","4b28ab2d-ffb0-4eaa-9119-81585b93f95b","5e631737-0fa4-44a6-b227-7ba1d7345015","{""num_scrambled_semantic"":""8"",""num_scrambled_causal"":""4"",""num_scrambled_schematic"":""4"",""participantId"":""7A2FD3C07D83434E8933F2F44369452E"",""assignmentId"":""4b28ab2d-ffb0-4eaa-9119-81585b93f95b"",""projectId"":""5e631737-0fa4-44a6-b227-7ba1d7345015""}","https://test12345.live/?num_scrambled_semantic=8&num_scrambled_causal=4&num_scrambled_schematic=4&participantId=7A2FD3C07D83434E8933F2F44369452E&assignmentId=4b28ab2d-ffb0-4eaa-9119-81585b93f95b&projectId=5e631737-0fa4-44a6-b227-7ba1d7345015","7A2FD3C07D83434E8933F2F44369452E-2025-05-27-18-58-04","","null","","images/instructions/movie_3.png","null","",""
"","","","","","image-button-response","16","868582","0.0-6.0-1.0-1.2","7A2FD3C07D83434E8933F2F44369452E","7A2FD3C07D83434E8933F2F44369452E","4b28ab2d-ffb0-4eaa-9119-81585b93f95b","5e631737-0fa4-44a6-b227-7ba1d7345015","{""num_scrambled_semantic"":""8"",""num_scrambled_causal"":""4"",""num_scrambled_schematic"":""4"",""participantId"":""7A2FD3C07D83434E8933F2F44369452E"",""assignmentId"":""4b28ab2d-ffb0-4eaa-9119-81585b93f95b"",""projectId"":""5e631737-0fa4-44a6-b227-7ba1d7345015""}","https://test12345.live/?num_scrambled_semantic=8&num_scrambled_causal=4&num_scrambled_schematic=4&participantId=7A2FD3C07D83434E8933F2F44369452E&assignmentId=4b28ab2d-ffb0-4eaa-9119-81585b93f95b&projectId=5e631737-0fa4-44a6-b227-7ba1d7345015","7A2FD3C07D83434E8933F2F44369452E-2025-05-27-18-58-04","","1868","","images/instructions/movie_3.png","0","",""
"","","","","","image-button-response","17","870520","0.0-6.0-1.0-2.2","7A2FD3C07D83434E8933F2F44369452E","7A2FD3C07D83434E8933F2F44369452E","4b28ab2d-ffb0-4eaa-9119-81585b93f95b","5e631737-0fa4-44a6-b227-7ba1d7345015","{""num_scrambled_semantic"":""8"",""num_scrambled_causal"":""4"",""num_scrambled_schematic"":""4"",""participantId"":""7A2FD3C07D83434E8933F2F44369452E"",""assignmentId"":""4b28ab2d-ffb0-4eaa-9119-81585b93f95b"",""projectId"":""5e631737-0fa4-44a6-b227-7ba1d7345015""}","https://test12345.live/?num_scrambled_semantic=8&num_scrambled_causal=4&num_scrambled_schematic=4&participantId=7A2FD3C07D83434E8933F2F44369452E&assignmentId=4b28ab2d-ffb0-4eaa-9119-81585b93f95b&projectId=5e631737-0fa4-44a6-b227-7ba1d7345015","7A2FD3C07D83434E8933F2F44369452E-2025-05-27-18-58-04","","null","","[]","null","",""
"","","","","","image-button-response","18","875064","0.0-6.0-1.0-0.3","7A2FD3C07D83434E8933F2F44369452E","7A2FD3C07D83434E8933F2F44369452E","4b28ab2d-ffb0-4eaa-9119-81585b93f95b","5e631737-0fa4-44a6-b227-7ba1d7345015","{""num_scrambled_semantic"":""8"",""num_scrambled_causal"":""4"",""num_scrambled_schematic"":""4"",""participantId"":""7A2FD3C07D83434E8933F2F44369452E"",""assignmentId"":""4b28ab2d-ffb0-4eaa-9119-81585b93f95b"",""projectId"":""5e631737-0fa4-44a6-b227-7ba1d7345015""}","https://test12345.live/?num_scrambled_semantic=8&num_scrambled_causal=4&num_scrambled_schematic=4&participantId=7A2FD3C07D83434E8933F2F44369452E&assignmentId=4b28ab2d-ffb0-4eaa-9119-81585b93f95b&projectId=5e631737-0fa4-44a6-b227-7ba1d7345015","7A2FD3C07D83434E8933F2F44369452E-2025-05-27-18-58-04","","null","","images/instructions/movie_4.png","null","",""
"","","","","","image-button-response","19","876341","0.0-6.0-1.0-1.3","7A2FD3C07D83434E8933F2F44369452E","7A2FD3C07D83434E8933F2F44369452E","4b28ab2d-ffb0-4eaa-9119-81585b93f95b","5e631737-0fa4-44a6-b227-7ba1d7345015","{""num_scrambled_semantic"":""8"",""num_scrambled_causal"":""4"",""num_scrambled_schematic"":""4"",""participantId"":""7A2FD3C07D83434E8933F2F44369452E"",""assignmentId"":""4b28ab2d-ffb0-4eaa-9119-81585b93f95b"",""projectId"":""5e631737-0fa4-44a6-b227-7ba1d7345015""}","https://test12345.live/?num_scrambled_semantic=8&num_scrambled_causal=4&num_scrambled_schematic=4&participantId=7A2FD3C07D83434E8933F2F44369452E&assignmentId=4b28ab2d-ffb0-4eaa-9119-81585b93f95b&projectId=5e631737-0fa4-44a6-b227-7ba1d7345015","7A2FD3C07D83434E8933F2F44369452E-2025-05-27-18-58-04","","1276","","images/instructions/movie_4.png","0","",""
"","","","","","image-button-response","20","878152","0.0-6.0-1.0-2.3","7A2FD3C07D83434E8933F2F44369452E","7A2FD3C07D83434E8933F2F44369452E","4b28ab2d-ffb0-4eaa-9119-81585b93f95b","5e631737-0fa4-44a6-b227-7ba1d7345015","{""num_scrambled_semantic"":""8"",""num_scrambled_causal"":""4"",""num_scrambled_schematic"":""4"",""participantId"":""7A2FD3C07D83434E8933F2F44369452E"",""assignmentId"":""4b28ab2d-ffb0-4eaa-9119-81585b93f95b"",""projectId"":""5e631737-0fa4-44a6-b227-7ba1d7345015""}","https://test12345.live/?num_scrambled_semantic=8&num_scrambled_causal=4&num_scrambled_schematic=4&participantId=7A2FD3C07D83434E8933F2F44369452E&assignmentId=4b28ab2d-ffb0-4eaa-9119-81585b93f95b&projectId=5e631737-0fa4-44a6-b227-7ba1d7345015","7A2FD3C07D83434E8933F2F44369452E-2025-05-27-18-58-04","","null","","[]","null","",""
"","","","","","instructions","21","903923","0.0-7.0","7A2FD3C07D83434E8933F2F44369452E","7A2FD3C07D83434E8933F2F44369452E","4b28ab2d-ffb0-4eaa-9119-81585b93f95b","5e631737-0fa4-44a6-b227-7ba1d7345015","{""num_scrambled_semantic"":""8"",""num_scrambled_causal"":""4"",""num_scrambled_schematic"":""4"",""participantId"":""7A2FD3C07D83434E8933F2F44369452E"",""assignmentId"":""4b28ab2d-ffb0-4eaa-9119-81585b93f95b"",""projectId"":""5e631737-0fa4-44a6-b227-7ba1d7345015""}","https://test12345.live/?num_scrambled_semantic=8&num_scrambled_causal=4&num_scrambled_schematic=4&participantId=7A2FD3C07D83434E8933F2F44369452E&assignmentId=4b28ab2d-ffb0-4eaa-9119-81585b93f95b&projectId=5e631737-0fa4-44a6-b227-7ba1d7345015","7A2FD3C07D83434E8933F2F44369452E-2025-05-27-18-58-04","[{""page_index"":0,""viewing_time"":24371},{""page_index"":1,""viewing_time"":1398}]","25769","","","","",""
"","","","","","html-audio-response","22","1001641","0.0-8.0","7A2FD3C07D83434E8933F2F44369452E","7A2FD3C07D83434E8933F2F44369452E","4b28ab2d-ffb0-4eaa-9119-81585b93f95b","5e631737-0fa4-44a6-b227-7ba1d7345015","{""num_scrambled_semantic"":""8"",""num_scrambled_causal"":""4"",""num_scrambled_schematic"":""4"",""participantId"":""7A2FD3C07D83434E8933F2F44369452E"",""assignmentId"":""4b28ab2d-ffb0-4eaa-9119-81585b93f95b"",""projectId"":""5e631737-0fa4-44a6-b227-7ba1d7345015""}","https://test12345.live/?num_scrambled_semantic=8&num_scrambled_causal=4&num_scrambled_schematic=4&participantId=7A2FD3C07D83434E8933F2F44369452E&assignmentId=4b28ab2d-ffb0-4eaa-9119-81585b93f95b&projectId=5e631737-0fa4-44a6-b227-7ba1d7345015","7A2FD3C07D83434E8933F2F44369452E-2025-05-27-18-58-04","","null","","[""<span style=\""color: red; font-size: 24px\""> NOW RECORDING</span><p>Please say out loud all the images you saw in the exact order you saw them. Try to recall as many images as you can, but remember: getting the order right is more important than the number of images you recall.</p>""]","","1",""
"","","","","","instructions","23","1009601","0.0-9.0","7A2FD3C07D83434E8933F2F44369452E","7A2FD3C07D83434E8933F2F44369452E","4b28ab2d-ffb0-4eaa-9119-81585b93f95b","5e631737-0fa4-44a6-b227-7ba1d7345015","{""num_scrambled_semantic"":""8"",""num_scrambled_causal"":""4"",""num_scrambled_schematic"":""4"",""participantId"":""7A2FD3C07D83434E8933F2F44369452E"",""assignmentId"":""4b28ab2d-ffb0-4eaa-9119-81585b93f95b"",""projectId"":""5e631737-0fa4-44a6-b227-7ba1d7345015""}","https://test12345.live/?num_scrambled_semantic=8&num_scrambled_causal=4&num_scrambled_schematic=4&participantId=7A2FD3C07D83434E8933F2F44369452E&assignmentId=4b28ab2d-ffb0-4eaa-9119-81585b93f95b&projectId=5e631737-0fa4-44a6-b227-7ba1d7345015","7A2FD3C07D83434E8933F2F44369452E-2025-05-27-18-58-04","[{""page_index"":0,""viewing_time"":7949}]","7950","","","","",""
"","","","","","image-button-response","24","1015627","0.0-10.0-0.0","7A2FD3C07D83434E8933F2F44369452E","7A2FD3C07D83434E8933F2F44369452E","4b28ab2d-ffb0-4eaa-9119-81585b93f95b","5e631737-0fa4-44a6-b227-7ba1d7345015","{""num_scrambled_semantic"":""8"",""num_scrambled_causal"":""4"",""num_scrambled_schematic"":""4"",""participantId"":""7A2FD3C07D83434E8933F2F44369452E"",""assignmentId"":""4b28ab2d-ffb0-4eaa-9119-81585b93f95b"",""projectId"":""5e631737-0fa4-44a6-b227-7ba1d7345015""}","https://test12345.live/?num_scrambled_semantic=8&num_scrambled_causal=4&num_scrambled_schematic=4&participantId=7A2FD3C07D83434E8933F2F44369452E&assignmentId=4b28ab2d-ffb0-4eaa-9119-81585b93f95b&projectId=5e631737-0fa4-44a6-b227-7ba1d7345015","7A2FD3C07D83434E8933F2F44369452E-2025-05-27-18-58-04","","null","","images/semantic_sequence/using_technology_semantic/using_technology_semantic_0.png","null","",""
"","","","","","image-button-response","25","1020640","0.0-10.0-1.0-0.0","7A2FD3C07D83434E8933F2F44369452E","7A2FD3C07D83434E8933F2F44369452E","4b28ab2d-ffb0-4eaa-9119-81585b93f95b","5e631737-0fa4-44a6-b227-7ba1d7345015","{""num_scrambled_semantic"":""8"",""num_scrambled_causal"":""4"",""num_scrambled_schematic"":""4"",""participantId"":""7A2FD3C07D83434E8933F2F44369452E"",""assignmentId"":""4b28ab2d-ffb0-4eaa-9119-81585b93f95b"",""projectId"":""5e631737-0fa4-44a6-b227-7ba1d7345015""}","https://test12345.live/?num_scrambled_semantic=8&num_scrambled_causal=4&num_scrambled_schematic=4&participantId=7A2FD3C07D83434E8933F2F44369452E&assignmentId=4b28ab2d-ffb0-4eaa-9119-81585b93f95b&projectId=5e631737-0fa4-44a6-b227-7ba1d7345015","7A2FD3C07D83434E8933F2F44369452E-2025-05-27-18-58-04","","null","","images/semantic_sequence/using_technology_semantic/using_technology_semantic_6.png","null","",""
"","","","","","image-button-response","26","1022296","0.0-10.0-1.0-1.0","7A2FD3C07D83434E8933F2F44369452E","7A2FD3C07D83434E8933F2F44369452E","4b28ab2d-ffb0-4eaa-9119-81585b93f95b","5e631737-0fa4-44a6-b227-7ba1d7345015","{""num_scrambled_semantic"":""8"",""num_scrambled_causal"":""4"",""num_scrambled_schematic"":""4"",""participantId"":""7A2FD3C07D83434E8933F2F44369452E"",""assignmentId"":""4b28ab2d-ffb0-4eaa-9119-81585b93f95b"",""projectId"":""5e631737-0fa4-44a6-b227-7ba1d7345015""}","https://test12345.live/?num_scrambled_semantic=8&num_scrambled_causal=4&num_scrambled_schematic=4&participantId=7A2FD3C07D83434E8933F2F44369452E&assignmentId=4b28ab2d-ffb0-4eaa-9119-81585b93f95b&projectId=5e631737-0fa4-44a6-b227-7ba1d7345015","7A2FD3C07D83434E8933F2F44369452E-2025-05-27-18-58-04","","1655","","images/semantic_sequence/using_technology_semantic/using_technology_semantic_6.png","0","",""
"","","","","","image-button-response","27","1024310","0.0-10.0-1.0-2.0","7A2FD3C07D83434E8933F2F44369452E","7A2FD3C07D83434E8933F2F44369452E","4b28ab2d-ffb0-4eaa-9119-81585b93f95b","5e631737-0fa4-44a6-b227-7ba1d7345015","{""num_scrambled_semantic"":""8"",""num_scrambled_causal"":""4"",""num_scrambled_schematic"":""4"",""participantId"":""7A2FD3C07D83434E8933F2F44369452E"",""assignmentId"":""4b28ab2d-ffb0-4eaa-9119-81585b93f95b"",""projectId"":""5e631737-0fa4-44a6-b227-7ba1d7345015""}","https://test12345.live/?num_scrambled_semantic=8&num_scrambled_causal=4&num_scrambled_schematic=4&participantId=7A2FD3C07D83434E8933F2F44369452E&assignmentId=4b28ab2d-ffb0-4eaa-9119-81585b93f95b&projectId=5e631737-0fa4-44a6-b227-7ba1d7345015","7A2FD3C07D83434E8933F2F44369452E-2025-05-27-18-58-04","","null","","[]","null","",""
"","","","","","image-button-response","28","1028852","0.0-10.0-1.0-0.1","7A2FD3C07D83434E8933F2F44369452E","7A2FD3C07D83434E8933F2F44369452E","4b28ab2d-ffb0-4eaa-9119-81585b93f95b","5e631737-0fa4-44a6-b227-7ba1d7345015","{""num_scrambled_semantic"":""8"",""num_scrambled_causal"":""4"",""num_scrambled_schematic"":""4"",""participantId"":""7A2FD3C07D83434E8933F2F44369452E"",""assignmentId"":""4b28ab2d-ffb0-4eaa-9119-81585b93f95b"",""projectId"":""5e631737-0fa4-44a6-b227-7ba1d7345015""}","https://test12345.live/?num_scrambled_semantic=8&num_scrambled_causal=4&num_scrambled_schematic=4&participantId=7A2FD3C07D83434E8933F2F44369452E&assignmentId=4b28ab2d-ffb0-4eaa-9119-81585b93f95b&projectId=5e631737-0fa4-44a6-b227-7ba1d7345015","7A2FD3C07D83434E8933F2F44369452E-2025-05-27-18-58-04","","null","","images/semantic_sequence/using_technology_semantic/using_technology_semantic_8.png","null","",""
"","","","","","image-button-response","29","1030461","0.0-10.0-1.0-1.1","7A2FD3C07D83434E8933F2F44369452E","7A2FD3C07D83434E8933F2F44369452E","4b28ab2d-ffb0-4eaa-9119-81585b93f95b","5e631737-0fa4-44a6-b227-7ba1d7345015","{""num_scrambled_semantic"":""8"",""num_scrambled_causal"":""4"",""num_scrambled_schematic"":""4"",""participantId"":""7A2FD3C07D83434E8933F2F44369452E"",""assignmentId"":""4b28ab2d-ffb0-4eaa-9119-81585b93f95b"",""projectId"":""5e631737-0fa4-44a6-b227-7ba1d7345015""}","https://test12345.live/?num_scrambled_semantic=8&num_scrambled_causal=4&num_scrambled_schematic=4&participantId=7A2FD3C07D83434E8933F2F44369452E&assignmentId=4b28ab2d-ffb0-4eaa-9119-81585b93f95b&projectId=5e631737-0fa4-44a6-b227-7ba1d7345015","7A2FD3C07D83434E8933F2F44369452E-2025-05-27-18-58-04","","1608","","images/semantic_sequence/using_technology_semantic/using_technology_semantic_8.png","0","",""
"","","","","","image-button-response","30","1032466","0.0-10.0-1.0-2.1","7A2FD3C07D83434E8933F2F44369452E","7A2FD3C07D83434E8933F2F44369452E","4b28ab2d-ffb0-4eaa-9119-81585b93f95b","5e631737-0fa4-44a6-b227-7ba1d7345015","{""num_scrambled_semantic"":""8"",""num_scrambled_causal"":""4"",""num_scrambled_schematic"":""4"",""participantId"":""7A2FD3C07D83434E8933F2F44369452E"",""assignmentId"":""4b28ab2d-ffb0-4eaa-9119-81585b93f95b"",""projectId"":""5e631737-0fa4-44a6-b227-7ba1d7345015""}","https://test12345.live/?num_scrambled_semantic=8&num_scrambled_causal=4&num_scrambled_schematic=4&participantId=7A2FD3C07D83434E8933F2F44369452E&assignmentId=4b28ab2d-ffb0-4eaa-9119-81585b93f95b&projectId=5e631737-0fa4-44a6-b227-7ba1d7345015","7A2FD3C07D83434E8933F2F44369452E-2025-05-27-18-58-04","","null","","[]","null","",""
"","","","","","image-button-response","31","1036992","0.0-10.0-1.0-0.2","7A2FD3C07D83434E8933F2F44369452E","7A2FD3C07D83434E8933F2F44369452E","4b28ab2d-ffb0-4eaa-9119-81585b93f95b","5e631737-0fa4-44a6-b227-7ba1d7345015","{""num_scrambled_semantic"":""8"",""num_scrambled_causal"":""4"",""num_scrambled_schematic"":""4"",""participantId"":""7A2FD3C07D83434E8933F2F44369452E"",""assignmentId"":""4b28ab2d-ffb0-4eaa-9119-81585b93f95b"",""projectId"":""5e631737-0fa4-44a6-b227-7ba1d7345015""}","https://test12345.live/?num_scrambled_semantic=8&num_scrambled_causal=4&num_scrambled_schematic=4&participantId=7A2FD3C07D83434E8933F2F44369452E&assignmentId=4b28ab2d-ffb0-4eaa-9119-81585b93f95b&projectId=5e631737-0fa4-44a6-b227-7ba1d7345015","7A2FD3C07D83434E8933F2F44369452E-2025-05-27-18-58-04","","null","","images/semantic_sequence/using_technology_semantic/using_technology_semantic_ten.png","null","",""
"","","","","","image-button-response","32","1038325","0.0-10.0-1.0-1.2","7A2FD3C07D83434E8933F2F44369452E","7A2FD3C07D83434E8933F2F44369452E","4b28ab2d-ffb0-4eaa-9119-81585b93f95b","5e631737-0fa4-44a6-b227-7ba1d7345015","{""num_scrambled_semantic"":""8"",""num_scrambled_causal"":""4"",""num_scrambled_schematic"":""4"",""participantId"":""7A2FD3C07D83434E8933F2F44369452E"",""assignmentId"":""4b28ab2d-ffb0-4eaa-9119-81585b93f95b"",""projectId"":""5e631737-0fa4-44a6-b227-7ba1d7345015""}","https://test12345.live/?num_scrambled_semantic=8&num_scrambled_causal=4&num_scrambled_schematic=4&participantId=7A2FD3C07D83434E8933F2F44369452E&assignmentId=4b28ab2d-ffb0-4eaa-9119-81585b93f95b&projectId=5e631737-0fa4-44a6-b227-7ba1d7345015","7A2FD3C07D83434E8933F2F44369452E-2025-05-27-18-58-04","","1333","","images/semantic_sequence/using_technology_semantic/using_technology_semantic_ten.png","0","",""
"","","","","","image-button-response","33","1040338","0.0-10.0-1.0-2.2","7A2FD3C07D83434E8933F2F44369452E","7A2FD3C07D83434E8933F2F44369452E","4b28ab2d-ffb0-4eaa-9119-81585b93f95b","5e631737-0fa4-44a6-b227-7ba1d7345015","{""num_scrambled_semantic"":""8"",""num_scrambled_causal"":""4"",""num_scrambled_schematic"":""4"",""participantId"":""7A2FD3C07D83434E8933F2F44369452E"",""assignmentId"":""4b28ab2d-ffb0-4eaa-9119-81585b93f95b"",""projectId"":""5e631737-0fa4-44a6-b227-7ba1d7345015""}","https://test12345.live/?num_scrambled_semantic=8&num_scrambled_causal=4&num_scrambled_schematic=4&participantId=7A2FD3C07D83434E8933F2F44369452E&assignmentId=4b28ab2d-ffb0-4eaa-9119-81585b93f95b&projectId=5e631737-0fa4-44a6-b227-7ba1d7345015","7A2FD3C07D83434E8933F2F44369452E-2025-05-27-18-58-04","","null","","[]","null","",""
"","","","","","image-button-response","34","1044883","0.0-10.0-1.0-0.3","7A2FD3C07D83434E8933F2F44369452E","7A2FD3C07D83434E8933F2F44369452E","4b28ab2d-ffb0-4eaa-9119-81585b93f95b","5e631737-0fa4-44a6-b227-7ba1d7345015","{""num_scrambled_semantic"":""8"",""num_scrambled_causal"":""4"",""num_scrambled_schematic"":""4"",""participantId"":""7A2FD3C07D83434E8933F2F44369452E"",""assignmentId"":""4b28ab2d-ffb0-4eaa-9119-81585b93f95b"",""projectId"":""5e631737-0fa4-44a6-b227-7ba1d7345015""}","https://test12345.live/?num_scrambled_semantic=8&num_scrambled_causal=4&num_scrambled_schematic=4&participantId=7A2FD3C07D83434E8933F2F44369452E&assignmentId=4b28ab2d-ffb0-4eaa-9119-81585b93f95b&projectId=5e631737-0fa4-44a6-b227-7ba1d7345015","7A2FD3C07D83434E8933F2F44369452E-2025-05-27-18-58-04","","null","","images/semantic_sequence/using_technology_semantic/using_technology_semantic_7.png","null","",""
"","","","","","image-button-response","35","1046200","0.0-10.0-1.0-1.3","7A2FD3C07D83434E8933F2F44369452E","7A2FD3C07D83434E8933F2F44369452E","4b28ab2d-ffb0-4eaa-9119-81585b93f95b","5e631737-0fa4-44a6-b227-7ba1d7345015","{""num_scrambled_semantic"":""8"",""num_scrambled_causal"":""4"",""num_scrambled_schematic"":""4"",""participantId"":""7A2FD3C07D83434E8933F2F44369452E"",""assignmentId"":""4b28ab2d-ffb0-4eaa-9119-81585b93f95b"",""projectId"":""5e631737-0fa4-44a6-b227-7ba1d7345015""}","https://test12345.live/?num_scrambled_semantic=8&num_scrambled_causal=4&num_scrambled_schematic=4&participantId=7A2FD3C07D83434E8933F2F44369452E&assignmentId=4b28ab2d-ffb0-4eaa-9119-81585b93f95b&projectId=5e631737-0fa4-44a6-b227-7ba1d7345015","7A2FD3C07D83434E8933F2F44369452E-2025-05-27-18-58-04","","1315","","images/semantic_sequence/using_technology_semantic/using_technology_semantic_7.png","0","",""
"","","","","","image-button-response","36","1048111","0.0-10.0-1.0-2.3","7A2FD3C07D83434E8933F2F44369452E","7A2FD3C07D83434E8933F2F44369452E","4b28ab2d-ffb0-4eaa-9119-81585b93f95b","5e631737-0fa4-44a6-b227-7ba1d7345015","{""num_scrambled_semantic"":""8"",""num_scrambled_causal"":""4"",""num_scrambled_schematic"":""4"",""participantId"":""7A2FD3C07D83434E8933F2F44369452E"",""assignmentId"":""4b28ab2d-ffb0-4eaa-9119-81585b93f95b"",""projectId"":""5e631737-0fa4-44a6-b227-7ba1d7345015""}","https://test12345.live/?num_scrambled_semantic=8&num_scrambled_causal=4&num_scrambled_schematic=4&participantId=7A2FD3C07D83434E8933F2F44369452E&assignmentId=4b28ab2d-ffb0-4eaa-9119-81585b93f95b&projectId=5e631737-0fa4-44a6-b227-7ba1d7345015","7A2FD3C07D83434E8933F2F44369452E-2025-05-27-18-58-04","","null","","[]","null","",""
"","","","","","image-button-response","37","1052805","0.0-10.0-1.0-0.4","7A2FD3C07D83434E8933F2F44369452E","7A2FD3C07D83434E8933F2F44369452E","4b28ab2d-ffb0-4eaa-9119-81585b93f95b","5e631737-0fa4-44a6-b227-7ba1d7345015","{""num_scrambled_semantic"":""8"",""num_scrambled_causal"":""4"",""num_scrambled_schematic"":""4"",""participantId"":""7A2FD3C07D83434E8933F2F44369452E"",""assignmentId"":""4b28ab2d-ffb0-4eaa-9119-81585b93f95b"",""projectId"":""5e631737-0fa4-44a6-b227-7ba1d7345015""}","https://test12345.live/?num_scrambled_semantic=8&num_scrambled_causal=4&num_scrambled_schematic=4&participantId=7A2FD3C07D83434E8933F2F44369452E&assignmentId=4b28ab2d-ffb0-4eaa-9119-81585b93f95b&projectId=5e631737-0fa4-44a6-b227-7ba1d7345015","7A2FD3C07D83434E8933F2F44369452E-2025-05-27-18-58-04","","null","","images/semantic_sequence/using_technology_semantic/using_technology_semantic_9.png","null","",""
"","","","","","image-button-response","38","1054270","0.0-10.0-1.0-1.4","7A2FD3C07D83434E8933F2F44369452E","7A2FD3C07D83434E8933F2F44369452E","4b28ab2d-ffb0-4eaa-9119-81585b93f95b","5e631737-0fa4-44a6-b227-7ba1d7345015","{""num_scrambled_semantic"":""8"",""num_scrambled_causal"":""4"",""num_scrambled_schematic"":""4"",""participantId"":""7A2FD3C07D83434E8933F2F44369452E"",""assignmentId"":""4b28ab2d-ffb0-4eaa-9119-81585b93f95b"",""projectId"":""5e631737-0fa4-44a6-b227-7ba1d7345015""}","https://test12345.live/?num_scrambled_semantic=8&num_scrambled_causal=4&num_scrambled_schematic=4&participantId=7A2FD3C07D83434E8933F2F44369452E&assignmentId=4b28ab2d-ffb0-4eaa-9119-81585b93f95b&projectId=5e631737-0fa4-44a6-b227-7ba1d7345015","7A2FD3C07D83434E8933F2F44369452E-2025-05-27-18-58-04","","1463","","images/semantic_sequence/using_technology_semantic/using_technology_semantic_9.png","0","",""
"","","","","","image-button-response","39","1056284","0.0-10.0-1.0-2.4","7A2FD3C07D83434E8933F2F44369452E","7A2FD3C07D83434E8933F2F44369452E","4b28ab2d-ffb0-4eaa-9119-81585b93f95b","5e631737-0fa4-44a6-b227-7ba1d7345015","{""num_scrambled_semantic"":""8"",""num_scrambled_causal"":""4"",""num_scrambled_schematic"":""4"",""participantId"":""7A2FD3C07D83434E8933F2F44369452E"",""assignmentId"":""4b28ab2d-ffb0-4eaa-9119-81585b93f95b"",""projectId"":""5e631737-0fa4-44a6-b227-7ba1d7345015""}","https://test12345.live/?num_scrambled_semantic=8&num_scrambled_causal=4&num_scrambled_schematic=4&participantId=7A2FD3C07D83434E8933F2F44369452E&assignmentId=4b28ab2d-ffb0-4eaa-9119-81585b93f95b&projectId=5e631737-0fa4-44a6-b227-7ba1d7345015","7A2FD3C07D83434E8933F2F44369452E-2025-05-27-18-58-04","","null","","[]","null","",""
"","","","","","image-button-response","40","1061336","0.0-10.0-1.0-0.5","7A2FD3C07D83434E8933F2F44369452E","7A2FD3C07D83434E8933F2F44369452E","4b28ab2d-ffb0-4eaa-9119-81585b93f95b","5e631737-0fa4-44a6-b227-7ba1d7345015","{""num_scrambled_semantic"":""8"",""num_scrambled_causal"":""4"",""num_scrambled_schematic"":""4"",""participantId"":""7A2FD3C07D83434E8933F2F44369452E"",""assignmentId"":""4b28ab2d-ffb0-4eaa-9119-81585b93f95b"",""projectId"":""5e631737-0fa4-44a6-b227-7ba1d7345015""}","https://test12345.live/?num_scrambled_semantic=8&num_scrambled_causal=4&num_scrambled_schematic=4&participantId=7A2FD3C07D83434E8933F2F44369452E&assignmentId=4b28ab2d-ffb0-4eaa-9119-81585b93f95b&projectId=5e631737-0fa4-44a6-b227-7ba1d7345015","7A2FD3C07D83434E8933F2F44369452E-2025-05-27-18-58-04","","null","","images/semantic_sequence/using_technology_semantic/using_technology_semantic_1.png","null","",""
"","","","","","image-button-response","41","1063428","0.0-10.0-1.0-1.5","7A2FD3C07D83434E8933F2F44369452E","7A2FD3C07D83434E8933F2F44369452E","4b28ab2d-ffb0-4eaa-9119-81585b93f95b","5e631737-0fa4-44a6-b227-7ba1d7345015","{""num_scrambled_semantic"":""8"",""num_scrambled_causal"":""4"",""num_scrambled_schematic"":""4"",""participantId"":""7A2FD3C07D83434E8933F2F44369452E"",""assignmentId"":""4b28ab2d-ffb0-4eaa-9119-81585b93f95b"",""projectId"":""5e631737-0fa4-44a6-b227-7ba1d7345015""}","https://test12345.live/?num_scrambled_semantic=8&num_scrambled_causal=4&num_scrambled_schematic=4&participantId=7A2FD3C07D83434E8933F2F44369452E&assignmentId=4b28ab2d-ffb0-4eaa-9119-81585b93f95b&projectId=5e631737-0fa4-44a6-b227-7ba1d7345015","7A2FD3C07D83434E8933F2F44369452E-2025-05-27-18-58-04","","2090","","images/semantic_sequence/using_technology_semantic/using_technology_semantic_1.png","0","",""
"","","","","","image-button-response","42","1065354","0.0-10.0-1.0-2.5","7A2FD3C07D83434E8933F2F44369452E","7A2FD3C07D83434E8933F2F44369452E","4b28ab2d-ffb0-4eaa-9119-81585b93f95b","5e631737-0fa4-44a6-b227-7ba1d7345015","{""num_scrambled_semantic"":""8"",""num_scrambled_causal"":""4"",""num_scrambled_schematic"":""4"",""participantId"":""7A2FD3C07D83434E8933F2F44369452E"",""assignmentId"":""4b28ab2d-ffb0-4eaa-9119-81585b93f95b"",""projectId"":""5e631737-0fa4-44a6-b227-7ba1d7345015""}","https://test12345.live/?num_scrambled_semantic=8&num_scrambled_causal=4&num_scrambled_schematic=4&participantId=7A2FD3C07D83434E8933F2F44369452E&assignmentId=4b28ab2d-ffb0-4eaa-9119-81585b93f95b&projectId=5e631737-0fa4-44a6-b227-7ba1d7345015","7A2FD3C07D83434E8933F2F44369452E-2025-05-27-18-58-04","","null","","[]","null","",""
"","","","","","image-button-response","43","1069879","0.0-10.0-1.0-0.6","7A2FD3C07D83434E8933F2F44369452E","7A2FD3C07D83434E8933F2F44369452E","4b28ab2d-ffb0-4eaa-9119-81585b93f95b","5e631737-0fa4-44a6-b227-7ba1d7345015","{""num_scrambled_semantic"":""8"",""num_scrambled_causal"":""4"",""num_scrambled_schematic"":""4"",""participantId"":""7A2FD3C07D83434E8933F2F44369452E"",""assignmentId"":""4b28ab2d-ffb0-4eaa-9119-81585b93f95b"",""projectId"":""5e631737-0fa4-44a6-b227-7ba1d7345015""}","https://test12345.live/?num_scrambled_semantic=8&num_scrambled_causal=4&num_scrambled_schematic=4&participantId=7A2FD3C07D83434E8933F2F44369452E&assignmentId=4b28ab2d-ffb0-4eaa-9119-81585b93f95b&projectId=5e631737-0fa4-44a6-b227-7ba1d7345015","7A2FD3C07D83434E8933F2F44369452E-2025-05-27-18-58-04","","null","","images/semantic_sequence/using_technology_semantic/using_technology_semantic_2.png","null","",""
"","","","","","image-button-response","44","1071077","0.0-10.0-1.0-1.6","7A2FD3C07D83434E8933F2F44369452E","7A2FD3C07D83434E8933F2F44369452E","4b28ab2d-ffb0-4eaa-9119-81585b93f95b","5e631737-0fa4-44a6-b227-7ba1d7345015","{""num_scrambled_semantic"":""8"",""num_scrambled_causal"":""4"",""num_scrambled_schematic"":""4"",""participantId"":""7A2FD3C07D83434E8933F2F44369452E"",""assignmentId"":""4b28ab2d-ffb0-4eaa-9119-81585b93f95b"",""projectId"":""5e631737-0fa4-44a6-b227-7ba1d7345015""}","https://test12345.live/?num_scrambled_semantic=8&num_scrambled_causal=4&num_scrambled_schematic=4&participantId=7A2FD3C07D83434E8933F2F44369452E&assignmentId=4b28ab2d-ffb0-4eaa-9119-81585b93f95b&projectId=5e631737-0fa4-44a6-b227-7ba1d7345015","7A2FD3C07D83434E8933F2F44369452E-2025-05-27-18-58-04","","1196","","images/semantic_sequence/using_technology_semantic/using_technology_semantic_2.png","0","",""
"","","","","","image-button-response","45","1072886","0.0-10.0-1.0-2.6","7A2FD3C07D83434E8933F2F44369452E","7A2FD3C07D83434E8933F2F44369452E","4b28ab2d-ffb0-4eaa-9119-81585b93f95b","5e631737-0fa4-44a6-b227-7ba1d7345015","{""num_scrambled_semantic"":""8"",""num_scrambled_causal"":""4"",""num_scrambled_schematic"":""4"",""participantId"":""7A2FD3C07D83434E8933F2F44369452E"",""assignmentId"":""4b28ab2d-ffb0-4eaa-9119-81585b93f95b"",""projectId"":""5e631737-0fa4-44a6-b227-7ba1d7345015""}","https://test12345.live/?num_scrambled_semantic=8&num_scrambled_causal=4&num_scrambled_schematic=4&participantId=7A2FD3C07D83434E8933F2F44369452E&assignmentId=4b28ab2d-ffb0-4eaa-9119-81585b93f95b&projectId=5e631737-0fa4-44a6-b227-7ba1d7345015","7A2FD3C07D83434E8933F2F44369452E-2025-05-27-18-58-04","","null","","[]","null","",""
"","","","","","image-button-response","46","1077709","0.0-10.0-1.0-0.7","7A2FD3C07D83434E8933F2F44369452E","7A2FD3C07D83434E8933F2F44369452E","4b28ab2d-ffb0-4eaa-9119-81585b93f95b","5e631737-0fa4-44a6-b227-7ba1d7345015","{""num_scrambled_semantic"":""8"",""num_scrambled_causal"":""4"",""num_scrambled_schematic"":""4"",""participantId"":""7A2FD3C07D83434E8933F2F44369452E"",""assignmentId"":""4b28ab2d-ffb0-4eaa-9119-81585b93f95b"",""projectId"":""5e631737-0fa4-44a6-b227-7ba1d7345015""}","https://test12345.live/?num_scrambled_semantic=8&num_scrambled_causal=4&num_scrambled_schematic=4&participantId=7A2FD3C07D83434E8933F2F44369452E&assignmentId=4b28ab2d-ffb0-4eaa-9119-81585b93f95b&projectId=5e631737-0fa4-44a6-b227-7ba1d7345015","7A2FD3C07D83434E8933F2F44369452E-2025-05-27-18-58-04","","null","","images/semantic_sequence/using_technology_semantic/using_technology_semantic_4.png","null","",""
"","","","","","image-button-response","47","1079046","0.0-10.0-1.0-1.7","7A2FD3C07D83434E8933F2F44369452E","7A2FD3C07D83434E8933F2F44369452E","4b28ab2d-ffb0-4eaa-9119-81585b93f95b","5e631737-0fa4-44a6-b227-7ba1d7345015","{""num_scrambled_semantic"":""8"",""num_scrambled_causal"":""4"",""num_scrambled_schematic"":""4"",""participantId"":""7A2FD3C07D83434E8933F2F44369452E"",""assignmentId"":""4b28ab2d-ffb0-4eaa-9119-81585b93f95b"",""projectId"":""5e631737-0fa4-44a6-b227-7ba1d7345015""}","https://test12345.live/?num_scrambled_semantic=8&num_scrambled_causal=4&num_scrambled_schematic=4&participantId=7A2FD3C07D83434E8933F2F44369452E&assignmentId=4b28ab2d-ffb0-4eaa-9119-81585b93f95b&projectId=5e631737-0fa4-44a6-b227-7ba1d7345015","7A2FD3C07D83434E8933F2F44369452E-2025-05-27-18-58-04","","1337","","images/semantic_sequence/using_technology_semantic/using_technology_semantic_4.png","0","",""
"","","","","","image-button-response","48","1080851","0.0-10.0-1.0-2.7","7A2FD3C07D83434E8933F2F44369452E","7A2FD3C07D83434E8933F2F44369452E","4b28ab2d-ffb0-4eaa-9119-81585b93f95b","5e631737-0fa4-44a6-b227-7ba1d7345015","{""num_scrambled_semantic"":""8"",""num_scrambled_causal"":""4"",""num_scrambled_schematic"":""4"",""participantId"":""7A2FD3C07D83434E8933F2F44369452E"",""assignmentId"":""4b28ab2d-ffb0-4eaa-9119-81585b93f95b"",""projectId"":""5e631737-0fa4-44a6-b227-7ba1d7345015""}","https://test12345.live/?num_scrambled_semantic=8&num_scrambled_causal=4&num_scrambled_schematic=4&participantId=7A2FD3C07D83434E8933F2F44369452E&assignmentId=4b28ab2d-ffb0-4eaa-9119-81585b93f95b&projectId=5e631737-0fa4-44a6-b227-7ba1d7345015","7A2FD3C07D83434E8933F2F44369452E-2025-05-27-18-58-04","","null","","[]","null","",""
"","","","","","image-button-response","49","1085396","0.0-10.0-1.0-0.8","7A2FD3C07D83434E8933F2F44369452E","7A2FD3C07D83434E8933F2F44369452E","4b28ab2d-ffb0-4eaa-9119-81585b93f95b","5e631737-0fa4-44a6-b227-7ba1d7345015","{""num_scrambled_semantic"":""8"",""num_scrambled_causal"":""4"",""num_scrambled_schematic"":""4"",""participantId"":""7A2FD3C07D83434E8933F2F44369452E"",""assignmentId"":""4b28ab2d-ffb0-4eaa-9119-81585b93f95b"",""projectId"":""5e631737-0fa4-44a6-b227-7ba1d7345015""}","https://test12345.live/?num_scrambled_semantic=8&num_scrambled_causal=4&num_scrambled_schematic=4&participantId=7A2FD3C07D83434E8933F2F44369452E&assignmentId=4b28ab2d-ffb0-4eaa-9119-81585b93f95b&projectId=5e631737-0fa4-44a6-b227-7ba1d7345015","7A2FD3C07D83434E8933F2F44369452E-2025-05-27-18-58-04","","null","","images/semantic_sequence/using_technology_semantic/using_technology_semantic_5.png","null","",""
"","","","","","image-button-response","50","1087275","0.0-10.0-1.0-1.8","7A2FD3C07D83434E8933F2F44369452E","7A2FD3C07D83434E8933F2F44369452E","4b28ab2d-ffb0-4eaa-9119-81585b93f95b","5e631737-0fa4-44a6-b227-7ba1d7345015","{""num_scrambled_semantic"":""8"",""num_scrambled_causal"":""4"",""num_scrambled_schematic"":""4"",""participantId"":""7A2FD3C07D83434E8933F2F44369452E"",""assignmentId"":""4b28ab2d-ffb0-4eaa-9119-81585b93f95b"",""projectId"":""5e631737-0fa4-44a6-b227-7ba1d7345015""}","https://test12345.live/?num_scrambled_semantic=8&num_scrambled_causal=4&num_scrambled_schematic=4&participantId=7A2FD3C07D83434E8933F2F44369452E&assignmentId=4b28ab2d-ffb0-4eaa-9119-81585b93f95b&projectId=5e631737-0fa4-44a6-b227-7ba1d7345015","7A2FD3C07D83434E8933F2F44369452E-2025-05-27-18-58-04","","1875","","images/semantic_sequence/using_technology_semantic/using_technology_semantic_5.png","0","",""
"","","","","","image-button-response","51","1089302","0.0-10.0-1.0-2.8","7A2FD3C07D83434E8933F2F44369452E","7A2FD3C07D83434E8933F2F44369452E","4b28ab2d-ffb0-4eaa-9119-81585b93f95b","5e631737-0fa4-44a6-b227-7ba1d7345015","{""num_scrambled_semantic"":""8"",""num_scrambled_causal"":""4"",""num_scrambled_schematic"":""4"",""participantId"":""7A2FD3C07D83434E8933F2F44369452E"",""assignmentId"":""4b28ab2d-ffb0-4eaa-9119-81585b93f95b"",""projectId"":""5e631737-0fa4-44a6-b227-7ba1d7345015""}","https://test12345.live/?num_scrambled_semantic=8&num_scrambled_causal=4&num_scrambled_schematic=4&participantId=7A2FD3C07D83434E8933F2F44369452E&assignmentId=4b28ab2d-ffb0-4eaa-9119-81585b93f95b&projectId=5e631737-0fa4-44a6-b227-7ba1d7345015","7A2FD3C07D83434E8933F2F44369452E-2025-05-27-18-58-04","","null","","[]","null","",""
"","","","","","image-button-response","52","1093829","0.0-10.0-1.0-0.9","7A2FD3C07D83434E8933F2F44369452E","7A2FD3C07D83434E8933F2F44369452E","4b28ab2d-ffb0-4eaa-9119-81585b93f95b","5e631737-0fa4-44a6-b227-7ba1d7345015","{""num_scrambled_semantic"":""8"",""num_scrambled_causal"":""4"",""num_scrambled_schematic"":""4"",""participantId"":""7A2FD3C07D83434E8933F2F44369452E"",""assignmentId"":""4b28ab2d-ffb0-4eaa-9119-81585b93f95b"",""projectId"":""5e631737-0fa4-44a6-b227-7ba1d7345015""}","https://test12345.live/?num_scrambled_semantic=8&num_scrambled_causal=4&num_scrambled_schematic=4&participantId=7A2FD3C07D83434E8933F2F44369452E&assignmentId=4b28ab2d-ffb0-4eaa-9119-81585b93f95b&projectId=5e631737-0fa4-44a6-b227-7ba1d7345015","7A2FD3C07D83434E8933F2F44369452E-2025-05-27-18-58-04","","null","","images/semantic_sequence/using_technology_semantic/using_technology_semantic_3.png","null","",""
"","","","","","image-button-response","53","1095835","0.0-10.0-1.0-1.9","7A2FD3C07D83434E8933F2F44369452E","7A2FD3C07D83434E8933F2F44369452E","4b28ab2d-ffb0-4eaa-9119-81585b93f95b","5e631737-0fa4-44a6-b227-7ba1d7345015","{""num_scrambled_semantic"":""8"",""num_scrambled_causal"":""4"",""num_scrambled_schematic"":""4"",""participantId"":""7A2FD3C07D83434E8933F2F44369452E"",""assignmentId"":""4b28ab2d-ffb0-4eaa-9119-81585b93f95b"",""projectId"":""5e631737-0fa4-44a6-b227-7ba1d7345015""}","https://test12345.live/?num_scrambled_semantic=8&num_scrambled_causal=4&num_scrambled_schematic=4&participantId=7A2FD3C07D83434E8933F2F44369452E&assignmentId=4b28ab2d-ffb0-4eaa-9119-81585b93f95b&projectId=5e631737-0fa4-44a6-b227-7ba1d7345015","7A2FD3C07D83434E8933F2F44369452E-2025-05-27-18-58-04","","2003","","images/semantic_sequence/using_technology_semantic/using_technology_semantic_3.png","0","",""
"","","","","","image-button-response","54","1097869","0.0-10.0-1.0-2.9","7A2FD3C07D83434E8933F2F44369452E","7A2FD3C07D83434E8933F2F44369452E","4b28ab2d-ffb0-4eaa-9119-81585b93f95b","5e631737-0fa4-44a6-b227-7ba1d7345015","{""num_scrambled_semantic"":""8"",""num_scrambled_causal"":""4"",""num_scrambled_schematic"":""4"",""participantId"":""7A2FD3C07D83434E8933F2F44369452E"",""assignmentId"":""4b28ab2d-ffb0-4eaa-9119-81585b93f95b"",""projectId"":""5e631737-0fa4-44a6-b227-7ba1d7345015""}","https://test12345.live/?num_scrambled_semantic=8&num_scrambled_causal=4&num_scrambled_schematic=4&participantId=7A2FD3C07D83434E8933F2F44369452E&assignmentId=4b28ab2d-ffb0-4eaa-9119-81585b93f95b&projectId=5e631737-0fa4-44a6-b227-7ba1d7345015","7A2FD3C07D83434E8933F2F44369452E-2025-05-27-18-58-04","","null","","[]","null","",""
"","","","","","html-audio-response","55","1170915","0.0-11.0","7A2FD3C07D83434E8933F2F44369452E","7A2FD3C07D83434E8933F2F44369452E","4b28ab2d-ffb0-4eaa-9119-81585b93f95b","5e631737-0fa4-44a6-b227-7ba1d7345015","{""num_scrambled_semantic"":""8"",""num_scrambled_causal"":""4"",""num_scrambled_schematic"":""4"",""participantId"":""7A2FD3C07D83434E8933F2F44369452E"",""assignmentId"":""4b28ab2d-ffb0-4eaa-9119-81585b93f95b"",""projectId"":""5e631737-0fa4-44a6-b227-7ba1d7345015""}","https://test12345.live/?num_scrambled_semantic=8&num_scrambled_causal=4&num_scrambled_schematic=4&participantId=7A2FD3C07D83434E8933F2F44369452E&assignmentId=4b28ab2d-ffb0-4eaa-9119-81585b93f95b&projectId=5e631737-0fa4-44a6-b227-7ba1d7345015","7A2FD3C07D83434E8933F2F44369452E-2025-05-27-18-58-04","","null","","[""<span style=\""color: red; font-size: 24px\""> NOW RECORDING</span><p>Please say out loud all the images you saw, in the exact order you saw them. Try to recall as many images as you can, but remember: getting the order right is more important than the number of images you recall.</p>""]","","0","using_technology_semantic"
"","","","","","image-button-response","56","1176956","0.0-12.0-0.0","7A2FD3C07D83434E8933F2F44369452E","7A2FD3C07D83434E8933F2F44369452E","4b28ab2d-ffb0-4eaa-9119-81585b93f95b","5e631737-0fa4-44a6-b227-7ba1d7345015","{""num_scrambled_semantic"":""8"",""num_scrambled_causal"":""4"",""num_scrambled_schematic"":""4"",""participantId"":""7A2FD3C07D83434E8933F2F44369452E"",""assignmentId"":""4b28ab2d-ffb0-4eaa-9119-81585b93f95b"",""projectId"":""5e631737-0fa4-44a6-b227-7ba1d7345015""}","https://test12345.live/?num_scrambled_semantic=8&num_scrambled_causal=4&num_scrambled_schematic=4&participantId=7A2FD3C07D83434E8933F2F44369452E&assignmentId=4b28ab2d-ffb0-4eaa-9119-81585b93f95b&projectId=5e631737-0fa4-44a6-b227-7ba1d7345015","7A2FD3C07D83434E8933F2F44369452E-2025-05-27-18-58-04","","null","","images/semantic_sequence/self_care_activities_semantic/self_care_activities_semantic_0.png","null","",""
"","","","","","image-button-response","57","1181645","0.0-12.0-1.0-0.0","7A2FD3C07D83434E8933F2F44369452E","7A2FD3C07D83434E8933F2F44369452E","4b28ab2d-ffb0-4eaa-9119-81585b93f95b","5e631737-0fa4-44a6-b227-7ba1d7345015","{""num_scrambled_semantic"":""8"",""num_scrambled_causal"":""4"",""num_scrambled_schematic"":""4"",""participantId"":""7A2FD3C07D83434E8933F2F44369452E"",""assignmentId"":""4b28ab2d-ffb0-4eaa-9119-81585b93f95b"",""projectId"":""5e631737-0fa4-44a6-b227-7ba1d7345015""}","https://test12345.live/?num_scrambled_semantic=8&num_scrambled_causal=4&num_scrambled_schematic=4&participantId=7A2FD3C07D83434E8933F2F44369452E&assignmentId=4b28ab2d-ffb0-4eaa-9119-81585b93f95b&projectId=5e631737-0fa4-44a6-b227-7ba1d7345015","7A2FD3C07D83434E8933F2F44369452E-2025-05-27-18-58-04","","null","","images/semantic_sequence/self_care_activities_semantic/self_care_activities_semantic_7.png","null","",""
"","","","","","image-button-response","58","1182750","0.0-12.0-1.0-1.0","7A2FD3C07D83434E8933F2F44369452E","7A2FD3C07D83434E8933F2F44369452E","4b28ab2d-ffb0-4eaa-9119-81585b93f95b","5e631737-0fa4-44a6-b227-7ba1d7345015","{""num_scrambled_semantic"":""8"",""num_scrambled_causal"":""4"",""num_scrambled_schematic"":""4"",""participantId"":""7A2FD3C07D83434E8933F2F44369452E"",""assignmentId"":""4b28ab2d-ffb0-4eaa-9119-81585b93f95b"",""projectId"":""5e631737-0fa4-44a6-b227-7ba1d7345015""}","https://test12345.live/?num_scrambled_semantic=8&num_scrambled_causal=4&num_scrambled_schematic=4&participantId=7A2FD3C07D83434E8933F2F44369452E&assignmentId=4b28ab2d-ffb0-4eaa-9119-81585b93f95b&projectId=5e631737-0fa4-44a6-b227-7ba1d7345015","7A2FD3C07D83434E8933F2F44369452E-2025-05-27-18-58-04","","1104","","images/semantic_sequence/self_care_activities_semantic/self_care_activities_semantic_7.png","0","",""
"","","","","","image-button-response","59","1184559","0.0-12.0-1.0-2.0","7A2FD3C07D83434E8933F2F44369452E","7A2FD3C07D83434E8933F2F44369452E","4b28ab2d-ffb0-4eaa-9119-81585b93f95b","5e631737-0fa4-44a6-b227-7ba1d7345015","{""num_scrambled_semantic"":""8"",""num_scrambled_causal"":""4"",""num_scrambled_schematic"":""4"",""participantId"":""7A2FD3C07D83434E8933F2F44369452E"",""assignmentId"":""4b28ab2d-ffb0-4eaa-9119-81585b93f95b"",""projectId"":""5e631737-0fa4-44a6-b227-7ba1d7345015""}","https://test12345.live/?num_scrambled_semantic=8&num_scrambled_causal=4&num_scrambled_schematic=4&participantId=7A2FD3C07D83434E8933F2F44369452E&assignmentId=4b28ab2d-ffb0-4eaa-9119-81585b93f95b&projectId=5e631737-0fa4-44a6-b227-7ba1d7345015","7A2FD3C07D83434E8933F2F44369452E-2025-05-27-18-58-04","","null","","[]","null","",""
"","","","","","image-button-response","60","1189571","0.0-12.0-1.0-0.1","7A2FD3C07D83434E8933F2F44369452E","7A2FD3C07D83434E8933F2F44369452E","4b28ab2d-ffb0-4eaa-9119-81585b93f95b","5e631737-0fa4-44a6-b227-7ba1d7345015","{""num_scrambled_semantic"":""8"",""num_scrambled_causal"":""4"",""num_scrambled_schematic"":""4"",""participantId"":""7A2FD3C07D83434E8933F2F44369452E"",""assignmentId"":""4b28ab2d-ffb0-4eaa-9119-81585b93f95b"",""projectId"":""5e631737-0fa4-44a6-b227-7ba1d7345015""}","https://test12345.live/?num_scrambled_semantic=8&num_scrambled_causal=4&num_scrambled_schematic=4&participantId=7A2FD3C07D83434E8933F2F44369452E&assignmentId=4b28ab2d-ffb0-4eaa-9119-81585b93f95b&projectId=5e631737-0fa4-44a6-b227-7ba1d7345015","7A2FD3C07D83434E8933F2F44369452E-2025-05-27-18-58-04","","null","","images/semantic_sequence/self_care_activities_semantic/self_care_activities_semantic_8.png","null","",""
"","","","","","image-button-response","61","1191228","0.0-12.0-1.0-1.1","7A2FD3C07D83434E8933F2F44369452E","7A2FD3C07D83434E8933F2F44369452E","4b28ab2d-ffb0-4eaa-9119-81585b93f95b","5e631737-0fa4-44a6-b227-7ba1d7345015","{""num_scrambled_semantic"":""8"",""num_scrambled_causal"":""4"",""num_scrambled_schematic"":""4"",""participantId"":""7A2FD3C07D83434E8933F2F44369452E"",""assignmentId"":""4b28ab2d-ffb0-4eaa-9119-81585b93f95b"",""projectId"":""5e631737-0fa4-44a6-b227-7ba1d7345015""}","https://test12345.live/?num_scrambled_semantic=8&num_scrambled_causal=4&num_scrambled_schematic=4&participantId=7A2FD3C07D83434E8933F2F44369452E&assignmentId=4b28ab2d-ffb0-4eaa-9119-81585b93f95b&projectId=5e631737-0fa4-44a6-b227-7ba1d7345015","7A2FD3C07D83434E8933F2F44369452E-2025-05-27-18-58-04","","1657","","images/semantic_sequence/self_care_activities_semantic/self_care_activities_semantic_8.png","0","",""
"","","","","","image-button-response","62","1193035","0.0-12.0-1.0-2.1","7A2FD3C07D83434E8933F2F44369452E","7A2FD3C07D83434E8933F2F44369452E","4b28ab2d-ffb0-4eaa-9119-81585b93f95b","5e631737-0fa4-44a6-b227-7ba1d7345015","{""num_scrambled_semantic"":""8"",""num_scrambled_causal"":""4"",""num_scrambled_schematic"":""4"",""participantId"":""7A2FD3C07D83434E8933F2F44369452E"",""assignmentId"":""4b28ab2d-ffb0-4eaa-9119-81585b93f95b"",""projectId"":""5e631737-0fa4-44a6-b227-7ba1d7345015""}","https://test12345.live/?num_scrambled_semantic=8&num_scrambled_causal=4&num_scrambled_schematic=4&participantId=7A2FD3C07D83434E8933F2F44369452E&assignmentId=4b28ab2d-ffb0-4eaa-9119-81585b93f95b&projectId=5e631737-0fa4-44a6-b227-7ba1d7345015","7A2FD3C07D83434E8933F2F44369452E-2025-05-27-18-58-04","","null","","[]","null","",""
"","","","","","image-button-response","63","1197734","0.0-12.0-1.0-0.2","7A2FD3C07D83434E8933F2F44369452E","7A2FD3C07D83434E8933F2F44369452E","4b28ab2d-ffb0-4eaa-9119-81585b93f95b","5e631737-0fa4-44a6-b227-7ba1d7345015","{""num_scrambled_semantic"":""8"",""num_scrambled_causal"":""4"",""num_scrambled_schematic"":""4"",""participantId"":""7A2FD3C07D83434E8933F2F44369452E"",""assignmentId"":""4b28ab2d-ffb0-4eaa-9119-81585b93f95b"",""projectId"":""5e631737-0fa4-44a6-b227-7ba1d7345015""}","https://test12345.live/?num_scrambled_semantic=8&num_scrambled_causal=4&num_scrambled_schematic=4&participantId=7A2FD3C07D83434E8933F2F44369452E&assignmentId=4b28ab2d-ffb0-4eaa-9119-81585b93f95b&projectId=5e631737-0fa4-44a6-b227-7ba1d7345015","7A2FD3C07D83434E8933F2F44369452E-2025-05-27-18-58-04","","null","","images/semantic_sequence/self_care_activities_semantic/self_care_activities_semantic_3.png","null","",""
"","","","","","image-button-response","64","1199068","0.0-12.0-1.0-1.2","7A2FD3C07D83434E8933F2F44369452E","7A2FD3C07D83434E8933F2F44369452E","4b28ab2d-ffb0-4eaa-9119-81585b93f95b","5e631737-0fa4-44a6-b227-7ba1d7345015","{""num_scrambled_semantic"":""8"",""num_scrambled_causal"":""4"",""num_scrambled_schematic"":""4"",""participantId"":""7A2FD3C07D83434E8933F2F44369452E"",""assignmentId"":""4b28ab2d-ffb0-4eaa-9119-81585b93f95b"",""projectId"":""5e631737-0fa4-44a6-b227-7ba1d7345015""}","https://test12345.live/?num_scrambled_semantic=8&num_scrambled_causal=4&num_scrambled_schematic=4&participantId=7A2FD3C07D83434E8933F2F44369452E&assignmentId=4b28ab2d-ffb0-4eaa-9119-81585b93f95b&projectId=5e631737-0fa4-44a6-b227-7ba1d7345015","7A2FD3C07D83434E8933F2F44369452E-2025-05-27-18-58-04","","1333","","images/semantic_sequence/self_care_activities_semantic/self_care_activities_semantic_3.png","0","",""
"","","","","","image-button-response","65","1201098","0.0-12.0-1.0-2.2","7A2FD3C07D83434E8933F2F44369452E","7A2FD3C07D83434E8933F2F44369452E","4b28ab2d-ffb0-4eaa-9119-81585b93f95b","5e631737-0fa4-44a6-b227-7ba1d7345015","{""num_scrambled_semantic"":""8"",""num_scrambled_causal"":""4"",""num_scrambled_schematic"":""4"",""participantId"":""7A2FD3C07D83434E8933F2F44369452E"",""assignmentId"":""4b28ab2d-ffb0-4eaa-9119-81585b93f95b"",""projectId"":""5e631737-0fa4-44a6-b227-7ba1d7345015""}","https://test12345.live/?num_scrambled_semantic=8&num_scrambled_causal=4&num_scrambled_schematic=4&participantId=7A2FD3C07D83434E8933F2F44369452E&assignmentId=4b28ab2d-ffb0-4eaa-9119-81585b93f95b&projectId=5e631737-0fa4-44a6-b227-7ba1d7345015","7A2FD3C07D83434E8933F2F44369452E-2025-05-27-18-58-04","","null","","[]","null","",""
"","","","","","image-button-response","66","1205798","0.0-12.0-1.0-0.3","7A2FD3C07D83434E8933F2F44369452E","7A2FD3C07D83434E8933F2F44369452E","4b28ab2d-ffb0-4eaa-9119-81585b93f95b","5e631737-0fa4-44a6-b227-7ba1d7345015","{""num_scrambled_semantic"":""8"",""num_scrambled_causal"":""4"",""num_scrambled_schematic"":""4"",""participantId"":""7A2FD3C07D83434E8933F2F44369452E"",""assignmentId"":""4b28ab2d-ffb0-4eaa-9119-81585b93f95b"",""projectId"":""5e631737-0fa4-44a6-b227-7ba1d7345015""}","https://test12345.live/?num_scrambled_semantic=8&num_scrambled_causal=4&num_scrambled_schematic=4&participantId=7A2FD3C07D83434E8933F2F44369452E&assignmentId=4b28ab2d-ffb0-4eaa-9119-81585b93f95b&projectId=5e631737-0fa4-44a6-b227-7ba1d7345015","7A2FD3C07D83434E8933F2F44369452E-2025-05-27-18-58-04","","null","","images/semantic_sequence/self_care_activities_semantic/self_care_activities_semantic_6.png","null","",""
"","","","","","image-button-response","67","1207397","0.0-12.0-1.0-1.3","7A2FD3C07D83434E8933F2F44369452E","7A2FD3C07D83434E8933F2F44369452E","4b28ab2d-ffb0-4eaa-9119-81585b93f95b","5e631737-0fa4-44a6-b227-7ba1d7345015","{""num_scrambled_semantic"":""8"",""num_scrambled_causal"":""4"",""num_scrambled_schematic"":""4"",""participantId"":""7A2FD3C07D83434E8933F2F44369452E"",""assignmentId"":""4b28ab2d-ffb0-4eaa-9119-81585b93f95b"",""projectId"":""5e631737-0fa4-44a6-b227-7ba1d7345015""}","https://test12345.live/?num_scrambled_semantic=8&num_scrambled_causal=4&num_scrambled_schematic=4&participantId=7A2FD3C07D83434E8933F2F44369452E&assignmentId=4b28ab2d-ffb0-4eaa-9119-81585b93f95b&projectId=5e631737-0fa4-44a6-b227-7ba1d7345015","7A2FD3C07D83434E8933F2F44369452E-2025-05-27-18-58-04","","1596","","images/semantic_sequence/self_care_activities_semantic/self_care_activities_semantic_6.png","1","",""
"","","","","","image-button-response","68","1209414","0.0-12.0-1.0-2.3","7A2FD3C07D83434E8933F2F44369452E","7A2FD3C07D83434E8933F2F44369452E","4b28ab2d-ffb0-4eaa-9119-81585b93f95b","5e631737-0fa4-44a6-b227-7ba1d7345015","{""num_scrambled_semantic"":""8"",""num_scrambled_causal"":""4"",""num_scrambled_schematic"":""4"",""participantId"":""7A2FD3C07D83434E8933F2F44369452E"",""assignmentId"":""4b28ab2d-ffb0-4eaa-9119-81585b93f95b"",""projectId"":""5e631737-0fa4-44a6-b227-7ba1d7345015""}","https://test12345.live/?num_scrambled_semantic=8&num_scrambled_causal=4&num_scrambled_schematic=4&participantId=7A2FD3C07D83434E8933F2F44369452E&assignmentId=4b28ab2d-ffb0-4eaa-9119-81585b93f95b&projectId=5e631737-0fa4-44a6-b227-7ba1d7345015","7A2FD3C07D83434E8933F2F44369452E-2025-05-27-18-58-04","","null","","[]","null","",""
"","","","","","image-button-response","69","1213946","0.0-12.0-1.0-0.4","7A2FD3C07D83434E8933F2F44369452E","7A2FD3C07D83434E8933F2F44369452E","4b28ab2d-ffb0-4eaa-9119-81585b93f95b","5e631737-0fa4-44a6-b227-7ba1d7345015","{""num_scrambled_semantic"":""8"",""num_scrambled_causal"":""4"",""num_scrambled_schematic"":""4"",""participantId"":""7A2FD3C07D83434E8933F2F44369452E"",""assignmentId"":""4b28ab2d-ffb0-4eaa-9119-81585b93f95b"",""projectId"":""5e631737-0fa4-44a6-b227-7ba1d7345015""}","https://test12345.live/?num_scrambled_semantic=8&num_scrambled_causal=4&num_scrambled_schematic=4&participantId=7A2FD3C07D83434E8933F2F44369452E&assignmentId=4b28ab2d-ffb0-4eaa-9119-81585b93f95b&projectId=5e631737-0fa4-44a6-b227-7ba1d7345015","7A2FD3C07D83434E8933F2F44369452E-2025-05-27-18-58-04","","null","","images/semantic_sequence/self_care_activities_semantic/self_care_activities_semantic_2.png","null","",""
"","","","","","image-button-response","70","1215888","0.0-12.0-1.0-1.4","7A2FD3C07D83434E8933F2F44369452E","7A2FD3C07D83434E8933F2F44369452E","4b28ab2d-ffb0-4eaa-9119-81585b93f95b","5e631737-0fa4-44a6-b227-7ba1d7345015","{""num_scrambled_semantic"":""8"",""num_scrambled_causal"":""4"",""num_scrambled_schematic"":""4"",""participantId"":""7A2FD3C07D83434E8933F2F44369452E"",""assignmentId"":""4b28ab2d-ffb0-4eaa-9119-81585b93f95b"",""projectId"":""5e631737-0fa4-44a6-b227-7ba1d7345015""}","https://test12345.live/?num_scrambled_semantic=8&num_scrambled_causal=4&num_scrambled_schematic=4&participantId=7A2FD3C07D83434E8933F2F44369452E&assignmentId=4b28ab2d-ffb0-4eaa-9119-81585b93f95b&projectId=5e631737-0fa4-44a6-b227-7ba1d7345015","7A2FD3C07D83434E8933F2F44369452E-2025-05-27-18-58-04","","1941","","images/semantic_sequence/self_care_activities_semantic/self_care_activities_semantic_2.png","0","",""
"","","","","","image-button-response","71","1217888","0.0-12.0-1.0-2.4","7A2FD3C07D83434E8933F2F44369452E","7A2FD3C07D83434E8933F2F44369452E","4b28ab2d-ffb0-4eaa-9119-81585b93f95b","5e631737-0fa4-44a6-b227-7ba1d7345015","{""num_scrambled_semantic"":""8"",""num_scrambled_causal"":""4"",""num_scrambled_schematic"":""4"",""participantId"":""7A2FD3C07D83434E8933F2F44369452E"",""assignmentId"":""4b28ab2d-ffb0-4eaa-9119-81585b93f95b"",""projectId"":""5e631737-0fa4-44a6-b227-7ba1d7345015""}","https://test12345.live/?num_scrambled_semantic=8&num_scrambled_causal=4&num_scrambled_schematic=4&participantId=7A2FD3C07D83434E8933F2F44369452E&assignmentId=4b28ab2d-ffb0-4eaa-9119-81585b93f95b&projectId=5e631737-0fa4-44a6-b227-7ba1d7345015","7A2FD3C07D83434E8933F2F44369452E-2025-05-27-18-58-04","","null","","[]","null","",""
"","","","","","image-button-response","72","1222564","0.0-12.0-1.0-0.5","7A2FD3C07D83434E8933F2F44369452E","7A2FD3C07D83434E8933F2F44369452E","4b28ab2d-ffb0-4eaa-9119-81585b93f95b","5e631737-0fa4-44a6-b227-7ba1d7345015","{""num_scrambled_semantic"":""8"",""num_scrambled_causal"":""4"",""num_scrambled_schematic"":""4"",""participantId"":""7A2FD3C07D83434E8933F2F44369452E"",""assignmentId"":""4b28ab2d-ffb0-4eaa-9119-81585b93f95b"",""projectId"":""5e631737-0fa4-44a6-b227-7ba1d7345015""}","https://test12345.live/?num_scrambled_semantic=8&num_scrambled_causal=4&num_scrambled_schematic=4&participantId=7A2FD3C07D83434E8933F2F44369452E&assignmentId=4b28ab2d-ffb0-4eaa-9119-81585b93f95b&projectId=5e631737-0fa4-44a6-b227-7ba1d7345015","7A2FD3C07D83434E8933F2F44369452E-2025-05-27-18-58-04","","null","","images/semantic_sequence/self_care_activities_semantic/self_care_activities_semantic_9.png","null","",""
"","","","","","image-button-response","73","1224063","0.0-12.0-1.0-1.5","7A2FD3C07D83434E8933F2F44369452E","7A2FD3C07D83434E8933F2F44369452E","4b28ab2d-ffb0-4eaa-9119-81585b93f95b","5e631737-0fa4-44a6-b227-7ba1d7345015","{""num_scrambled_semantic"":""8"",""num_scrambled_causal"":""4"",""num_scrambled_schematic"":""4"",""participantId"":""7A2FD3C07D83434E8933F2F44369452E"",""assignmentId"":""4b28ab2d-ffb0-4eaa-9119-81585b93f95b"",""projectId"":""5e631737-0fa4-44a6-b227-7ba1d7345015""}","https://test12345.live/?num_scrambled_semantic=8&num_scrambled_causal=4&num_scrambled_schematic=4&participantId=7A2FD3C07D83434E8933F2F44369452E&assignmentId=4b28ab2d-ffb0-4eaa-9119-81585b93f95b&projectId=5e631737-0fa4-44a6-b227-7ba1d7345015","7A2FD3C07D83434E8933F2F44369452E-2025-05-27-18-58-04","","1498","","images/semantic_sequence/self_care_activities_semantic/self_care_activities_semantic_9.png","0","",""
"","","","","","image-button-response","74","1226068","0.0-12.0-1.0-2.5","7A2FD3C07D83434E8933F2F44369452E","7A2FD3C07D83434E8933F2F44369452E","4b28ab2d-ffb0-4eaa-9119-81585b93f95b","5e631737-0fa4-44a6-b227-7ba1d7345015","{""num_scrambled_semantic"":""8"",""num_scrambled_causal"":""4"",""num_scrambled_schematic"":""4"",""participantId"":""7A2FD3C07D83434E8933F2F44369452E"",""assignmentId"":""4b28ab2d-ffb0-4eaa-9119-81585b93f95b"",""projectId"":""5e631737-0fa4-44a6-b227-7ba1d7345015""}","https://test12345.live/?num_scrambled_semantic=8&num_scrambled_causal=4&num_scrambled_schematic=4&participantId=7A2FD3C07D83434E8933F2F44369452E&assignmentId=4b28ab2d-ffb0-4eaa-9119-81585b93f95b&projectId=5e631737-0fa4-44a6-b227-7ba1d7345015","7A2FD3C07D83434E8933F2F44369452E-2025-05-27-18-58-04","","null","","[]","null","",""
"","","","","","image-button-response","75","1230600","0.0-12.0-1.0-0.6","7A2FD3C07D83434E8933F2F44369452E","7A2FD3C07D83434E8933F2F44369452E","4b28ab2d-ffb0-4eaa-9119-81585b93f95b","5e631737-0fa4-44a6-b227-7ba1d7345015","{""num_scrambled_semantic"":""8"",""num_scrambled_causal"":""4"",""num_scrambled_schematic"":""4"",""participantId"":""7A2FD3C07D83434E8933F2F44369452E"",""assignmentId"":""4b28ab2d-ffb0-4eaa-9119-81585b93f95b"",""projectId"":""5e631737-0fa4-44a6-b227-7ba1d7345015""}","https://test12345.live/?num_scrambled_semantic=8&num_scrambled_causal=4&num_scrambled_schematic=4&participantId=7A2FD3C07D83434E8933F2F44369452E&assignmentId=4b28ab2d-ffb0-4eaa-9119-81585b93f95b&projectId=5e631737-0fa4-44a6-b227-7ba1d7345015","7A2FD3C07D83434E8933F2F44369452E-2025-05-27-18-58-04","","null","","images/semantic_sequence/self_care_activities_semantic/self_care_activities_semantic_ten.png","null","",""
"","","","","","image-button-response","76","1231722","0.0-12.0-1.0-1.6","7A2FD3C07D83434E8933F2F44369452E","7A2FD3C07D83434E8933F2F44369452E","4b28ab2d-ffb0-4eaa-9119-81585b93f95b","5e631737-0fa4-44a6-b227-7ba1d7345015","{""num_scrambled_semantic"":""8"",""num_scrambled_causal"":""4"",""num_scrambled_schematic"":""4"",""participantId"":""7A2FD3C07D83434E8933F2F44369452E"",""assignmentId"":""4b28ab2d-ffb0-4eaa-9119-81585b93f95b"",""projectId"":""5e631737-0fa4-44a6-b227-7ba1d7345015""}","https://test12345.live/?num_scrambled_semantic=8&num_scrambled_causal=4&num_scrambled_schematic=4&participantId=7A2FD3C07D83434E8933F2F44369452E&assignmentId=4b28ab2d-ffb0-4eaa-9119-81585b93f95b&projectId=5e631737-0fa4-44a6-b227-7ba1d7345015","7A2FD3C07D83434E8933F2F44369452E-2025-05-27-18-58-04","","1122","","images/semantic_sequence/self_care_activities_semantic/self_care_activities_semantic_ten.png","0","",""
"","","","","","image-button-response","77","1233631","0.0-12.0-1.0-2.6","7A2FD3C07D83434E8933F2F44369452E","7A2FD3C07D83434E8933F2F44369452E","4b28ab2d-ffb0-4eaa-9119-81585b93f95b","5e631737-0fa4-44a6-b227-7ba1d7345015","{""num_scrambled_semantic"":""8"",""num_scrambled_causal"":""4"",""num_scrambled_schematic"":""4"",""participantId"":""7A2FD3C07D83434E8933F2F44369452E"",""assignmentId"":""4b28ab2d-ffb0-4eaa-9119-81585b93f95b"",""projectId"":""5e631737-0fa4-44a6-b227-7ba1d7345015""}","https://test12345.live/?num_scrambled_semantic=8&num_scrambled_causal=4&num_scrambled_schematic=4&participantId=7A2FD3C07D83434E8933F2F44369452E&assignmentId=4b28ab2d-ffb0-4eaa-9119-81585b93f95b&projectId=5e631737-0fa4-44a6-b227-7ba1d7345015","7A2FD3C07D83434E8933F2F44369452E-2025-05-27-18-58-04","","null","","[]","null","",""
"","","","","","image-button-response","78","1238644","0.0-12.0-1.0-0.7","7A2FD3C07D83434E8933F2F44369452E","7A2FD3C07D83434E8933F2F44369452E","4b28ab2d-ffb0-4eaa-9119-81585b93f95b","5e631737-0fa4-44a6-b227-7ba1d7345015","{""num_scrambled_semantic"":""8"",""num_scrambled_causal"":""4"",""num_scrambled_schematic"":""4"",""participantId"":""7A2FD3C07D83434E8933F2F44369452E"",""assignmentId"":""4b28ab2d-ffb0-4eaa-9119-81585b93f95b"",""projectId"":""5e631737-0fa4-44a6-b227-7ba1d7345015""}","https://test12345.live/?num_scrambled_semantic=8&num_scrambled_causal=4&num_scrambled_schematic=4&participantId=7A2FD3C07D83434E8933F2F44369452E&assignmentId=4b28ab2d-ffb0-4eaa-9119-81585b93f95b&projectId=5e631737-0fa4-44a6-b227-7ba1d7345015","7A2FD3C07D83434E8933F2F44369452E-2025-05-27-18-58-04","","null","","images/semantic_sequence/self_care_activities_semantic/self_care_activities_semantic_1.png","null","",""
"","","","","","image-button-response","79","1239821","0.0-12.0-1.0-1.7","7A2FD3C07D83434E8933F2F44369452E","7A2FD3C07D83434E8933F2F44369452E","4b28ab2d-ffb0-4eaa-9119-81585b93f95b","5e631737-0fa4-44a6-b227-7ba1d7345015","{""num_scrambled_semantic"":""8"",""num_scrambled_causal"":""4"",""num_scrambled_schematic"":""4"",""participantId"":""7A2FD3C07D83434E8933F2F44369452E"",""assignmentId"":""4b28ab2d-ffb0-4eaa-9119-81585b93f95b"",""projectId"":""5e631737-0fa4-44a6-b227-7ba1d7345015""}","https://test12345.live/?num_scrambled_semantic=8&num_scrambled_causal=4&num_scrambled_schematic=4&participantId=7A2FD3C07D83434E8933F2F44369452E&assignmentId=4b28ab2d-ffb0-4eaa-9119-81585b93f95b&projectId=5e631737-0fa4-44a6-b227-7ba1d7345015","7A2FD3C07D83434E8933F2F44369452E-2025-05-27-18-58-04","","1174","","images/semantic_sequence/self_care_activities_semantic/self_care_activities_semantic_1.png","0","",""
"","","","","","image-button-response","80","1241672","0.0-12.0-1.0-2.7","7A2FD3C07D83434E8933F2F44369452E","7A2FD3C07D83434E8933F2F44369452E","4b28ab2d-ffb0-4eaa-9119-81585b93f95b","5e631737-0fa4-44a6-b227-7ba1d7345015","{""num_scrambled_semantic"":""8"",""num_scrambled_causal"":""4"",""num_scrambled_schematic"":""4"",""participantId"":""7A2FD3C07D83434E8933F2F44369452E"",""assignmentId"":""4b28ab2d-ffb0-4eaa-9119-81585b93f95b"",""projectId"":""5e631737-0fa4-44a6-b227-7ba1d7345015""}","https://test12345.live/?num_scrambled_semantic=8&num_scrambled_causal=4&num_scrambled_schematic=4&participantId=7A2FD3C07D83434E8933F2F44369452E&assignmentId=4b28ab2d-ffb0-4eaa-9119-81585b93f95b&projectId=5e631737-0fa4-44a6-b227-7ba1d7345015","7A2FD3C07D83434E8933F2F44369452E-2025-05-27-18-58-04","","null","","[]","null","",""
"","","","","","image-button-response","81","1246707","0.0-12.0-1.0-0.8","7A2FD3C07D83434E8933F2F44369452E","7A2FD3C07D83434E8933F2F44369452E","4b28ab2d-ffb0-4eaa-9119-81585b93f95b","5e631737-0fa4-44a6-b227-7ba1d7345015","{""num_scrambled_semantic"":""8"",""num_scrambled_causal"":""4"",""num_scrambled_schematic"":""4"",""participantId"":""7A2FD3C07D83434E8933F2F44369452E"",""assignmentId"":""4b28ab2d-ffb0-4eaa-9119-81585b93f95b"",""projectId"":""5e631737-0fa4-44a6-b227-7ba1d7345015""}","https://test12345.live/?num_scrambled_semantic=8&num_scrambled_causal=4&num_scrambled_schematic=4&participantId=7A2FD3C07D83434E8933F2F44369452E&assignmentId=4b28ab2d-ffb0-4eaa-9119-81585b93f95b&projectId=5e631737-0fa4-44a6-b227-7ba1d7345015","7A2FD3C07D83434E8933F2F44369452E-2025-05-27-18-58-04","","null","","images/semantic_sequence/self_care_activities_semantic/self_care_activities_semantic_4.png","null","",""
"","","","","","image-button-response","82","1248087","0.0-12.0-1.0-1.8","7A2FD3C07D83434E8933F2F44369452E","7A2FD3C07D83434E8933F2F44369452E","4b28ab2d-ffb0-4eaa-9119-81585b93f95b","5e631737-0fa4-44a6-b227-7ba1d7345015","{""num_scrambled_semantic"":""8"",""num_scrambled_causal"":""4"",""num_scrambled_schematic"":""4"",""participantId"":""7A2FD3C07D83434E8933F2F44369452E"",""assignmentId"":""4b28ab2d-ffb0-4eaa-9119-81585b93f95b"",""projectId"":""5e631737-0fa4-44a6-b227-7ba1d7345015""}","https://test12345.live/?num_scrambled_semantic=8&num_scrambled_causal=4&num_scrambled_schematic=4&participantId=7A2FD3C07D83434E8933F2F44369452E&assignmentId=4b28ab2d-ffb0-4eaa-9119-81585b93f95b&projectId=5e631737-0fa4-44a6-b227-7ba1d7345015","7A2FD3C07D83434E8933F2F44369452E-2025-05-27-18-58-04","","1378","","images/semantic_sequence/self_care_activities_semantic/self_care_activities_semantic_4.png","0","",""
"","","","","","image-button-response","83","1250103","0.0-12.0-1.0-2.8","7A2FD3C07D83434E8933F2F44369452E","7A2FD3C07D83434E8933F2F44369452E","4b28ab2d-ffb0-4eaa-9119-81585b93f95b","5e631737-0fa4-44a6-b227-7ba1d7345015","{""num_scrambled_semantic"":""8"",""num_scrambled_causal"":""4"",""num_scrambled_schematic"":""4"",""participantId"":""7A2FD3C07D83434E8933F2F44369452E"",""assignmentId"":""4b28ab2d-ffb0-4eaa-9119-81585b93f95b"",""projectId"":""5e631737-0fa4-44a6-b227-7ba1d7345015""}","https://test12345.live/?num_scrambled_semantic=8&num_scrambled_causal=4&num_scrambled_schematic=4&participantId=7A2FD3C07D83434E8933F2F44369452E&assignmentId=4b28ab2d-ffb0-4eaa-9119-81585b93f95b&projectId=5e631737-0fa4-44a6-b227-7ba1d7345015","7A2FD3C07D83434E8933F2F44369452E-2025-05-27-18-58-04","","null","","[]","null","",""
"","","","","","image-button-response","84","1254740","0.0-12.0-1.0-0.9","7A2FD3C07D83434E8933F2F44369452E","7A2FD3C07D83434E8933F2F44369452E","4b28ab2d-ffb0-4eaa-9119-81585b93f95b","5e631737-0fa4-44a6-b227-7ba1d7345015","{""num_scrambled_semantic"":""8"",""num_scrambled_causal"":""4"",""num_scrambled_schematic"":""4"",""participantId"":""7A2FD3C07D83434E8933F2F44369452E"",""assignmentId"":""4b28ab2d-ffb0-4eaa-9119-81585b93f95b"",""projectId"":""5e631737-0fa4-44a6-b227-7ba1d7345015""}","https://test12345.live/?num_scrambled_semantic=8&num_scrambled_causal=4&num_scrambled_schematic=4&participantId=7A2FD3C07D83434E8933F2F44369452E&assignmentId=4b28ab2d-ffb0-4eaa-9119-81585b93f95b&projectId=5e631737-0fa4-44a6-b227-7ba1d7345015","7A2FD3C07D83434E8933F2F44369452E-2025-05-27-18-58-04","","null","","images/semantic_sequence/self_care_activities_semantic/self_care_activities_semantic_5.png","null","",""
"","","","","","image-button-response","85","1255529","0.0-12.0-1.0-1.9","7A2FD3C07D83434E8933F2F44369452E","7A2FD3C07D83434E8933F2F44369452E","4b28ab2d-ffb0-4eaa-9119-81585b93f95b","5e631737-0fa4-44a6-b227-7ba1d7345015","{""num_scrambled_semantic"":""8"",""num_scrambled_causal"":""4"",""num_scrambled_schematic"":""4"",""participantId"":""7A2FD3C07D83434E8933F2F44369452E"",""assignmentId"":""4b28ab2d-ffb0-4eaa-9119-81585b93f95b"",""projectId"":""5e631737-0fa4-44a6-b227-7ba1d7345015""}","https://test12345.live/?num_scrambled_semantic=8&num_scrambled_causal=4&num_scrambled_schematic=4&participantId=7A2FD3C07D83434E8933F2F44369452E&assignmentId=4b28ab2d-ffb0-4eaa-9119-81585b93f95b&projectId=5e631737-0fa4-44a6-b227-7ba1d7345015","7A2FD3C07D83434E8933F2F44369452E-2025-05-27-18-58-04","","788","","images/semantic_sequence/self_care_activities_semantic/self_care_activities_semantic_5.png","0","",""
"","","","","","image-button-response","86","1257542","0.0-12.0-1.0-2.9","7A2FD3C07D83434E8933F2F44369452E","7A2FD3C07D83434E8933F2F44369452E","4b28ab2d-ffb0-4eaa-9119-81585b93f95b","5e631737-0fa4-44a6-b227-7ba1d7345015","{""num_scrambled_semantic"":""8"",""num_scrambled_causal"":""4"",""num_scrambled_schematic"":""4"",""participantId"":""7A2FD3C07D83434E8933F2F44369452E"",""assignmentId"":""4b28ab2d-ffb0-4eaa-9119-81585b93f95b"",""projectId"":""5e631737-0fa4-44a6-b227-7ba1d7345015""}","https://test12345.live/?num_scrambled_semantic=8&num_scrambled_causal=4&num_scrambled_schematic=4&participantId=7A2FD3C07D83434E8933F2F44369452E&assignmentId=4b28ab2d-ffb0-4eaa-9119-81585b93f95b&projectId=5e631737-0fa4-44a6-b227-7ba1d7345015","7A2FD3C07D83434E8933F2F44369452E-2025-05-27-18-58-04","","null","","[]","null","",""
"","","","","","html-audio-response","87","1328207","0.0-13.0","7A2FD3C07D83434E8933F2F44369452E","7A2FD3C07D83434E8933F2F44369452E","4b28ab2d-ffb0-4eaa-9119-81585b93f95b","5e631737-0fa4-44a6-b227-7ba1d7345015","{""num_scrambled_semantic"":""8"",""num_scrambled_causal"":""4"",""num_scrambled_schematic"":""4"",""participantId"":""7A2FD3C07D83434E8933F2F44369452E"",""assignmentId"":""4b28ab2d-ffb0-4eaa-9119-81585b93f95b"",""projectId"":""5e631737-0fa4-44a6-b227-7ba1d7345015""}","https://test12345.live/?num_scrambled_semantic=8&num_scrambled_causal=4&num_scrambled_schematic=4&participantId=7A2FD3C07D83434E8933F2F44369452E&assignmentId=4b28ab2d-ffb0-4eaa-9119-81585b93f95b&projectId=5e631737-0fa4-44a6-b227-7ba1d7345015","7A2FD3C07D83434E8933F2F44369452E-2025-05-27-18-58-04","","null","","[""<span style=\""color: red; font-size: 24px\""> NOW RECORDING</span><p>Please say out loud all the images you saw, in the exact order you saw them. Try to recall as many images as you can, but remember: getting the order right is more important than the number of images you recall.</p>""]","","1","self_care_activities_semantic"
"","","","","","image-button-response","88","1334240","0.0-14.0-0.0","7A2FD3C07D83434E8933F2F44369452E","7A2FD3C07D83434E8933F2F44369452E","4b28ab2d-ffb0-4eaa-9119-81585b93f95b","5e631737-0fa4-44a6-b227-7ba1d7345015","{""num_scrambled_semantic"":""8"",""num_scrambled_causal"":""4"",""num_scrambled_schematic"":""4"",""participantId"":""7A2FD3C07D83434E8933F2F44369452E"",""assignmentId"":""4b28ab2d-ffb0-4eaa-9119-81585b93f95b"",""projectId"":""5e631737-0fa4-44a6-b227-7ba1d7345015""}","https://test12345.live/?num_scrambled_semantic=8&num_scrambled_causal=4&num_scrambled_schematic=4&participantId=7A2FD3C07D83434E8933F2F44369452E&assignmentId=4b28ab2d-ffb0-4eaa-9119-81585b93f95b&projectId=5e631737-0fa4-44a6-b227-7ba1d7345015","7A2FD3C07D83434E8933F2F44369452E-2025-05-27-18-58-04","","null","","images/semantic_sequence/creative_activities_semantic/creative_activities_semantic_0.png","null","",""
"","","","","","image-button-response","89","1338784","0.0-14.0-1.0-0.0","7A2FD3C07D83434E8933F2F44369452E","7A2FD3C07D83434E8933F2F44369452E","4b28ab2d-ffb0-4eaa-9119-81585b93f95b","5e631737-0fa4-44a6-b227-7ba1d7345015","{""num_scrambled_semantic"":""8"",""num_scrambled_causal"":""4"",""num_scrambled_schematic"":""4"",""participantId"":""7A2FD3C07D83434E8933F2F44369452E"",""assignmentId"":""4b28ab2d-ffb0-4eaa-9119-81585b93f95b"",""projectId"":""5e631737-0fa4-44a6-b227-7ba1d7345015""}","https://test12345.live/?num_scrambled_semantic=8&num_scrambled_causal=4&num_scrambled_schematic=4&participantId=7A2FD3C07D83434E8933F2F44369452E&assignmentId=4b28ab2d-ffb0-4eaa-9119-81585b93f95b&projectId=5e631737-0fa4-44a6-b227-7ba1d7345015","7A2FD3C07D83434E8933F2F44369452E-2025-05-27-18-58-04","","null","","images/semantic_sequence/creative_activities_semantic/creative_activities_semantic_1.png","null","",""
"","","","","","image-button-response","90","1340543","0.0-14.0-1.0-1.0","7A2FD3C07D83434E8933F2F44369452E","7A2FD3C07D83434E8933F2F44369452E","4b28ab2d-ffb0-4eaa-9119-81585b93f95b","5e631737-0fa4-44a6-b227-7ba1d7345015","{""num_scrambled_semantic"":""8"",""num_scrambled_causal"":""4"",""num_scrambled_schematic"":""4"",""participantId"":""7A2FD3C07D83434E8933F2F44369452E"",""assignmentId"":""4b28ab2d-ffb0-4eaa-9119-81585b93f95b"",""projectId"":""5e631737-0fa4-44a6-b227-7ba1d7345015""}","https://test12345.live/?num_scrambled_semantic=8&num_scrambled_causal=4&num_scrambled_schematic=4&participantId=7A2FD3C07D83434E8933F2F44369452E&assignmentId=4b28ab2d-ffb0-4eaa-9119-81585b93f95b&projectId=5e631737-0fa4-44a6-b227-7ba1d7345015","7A2FD3C07D83434E8933F2F44369452E-2025-05-27-18-58-04","","1759","","images/semantic_sequence/creative_activities_semantic/creative_activities_semantic_1.png","0","",""
"","","","","","image-button-response","91","1342565","0.0-14.0-1.0-2.0","7A2FD3C07D83434E8933F2F44369452E","7A2FD3C07D83434E8933F2F44369452E","4b28ab2d-ffb0-4eaa-9119-81585b93f95b","5e631737-0fa4-44a6-b227-7ba1d7345015","{""num_scrambled_semantic"":""8"",""num_scrambled_causal"":""4"",""num_scrambled_schematic"":""4"",""participantId"":""7A2FD3C07D83434E8933F2F44369452E"",""assignmentId"":""4b28ab2d-ffb0-4eaa-9119-81585b93f95b"",""projectId"":""5e631737-0fa4-44a6-b227-7ba1d7345015""}","https://test12345.live/?num_scrambled_semantic=8&num_scrambled_causal=4&num_scrambled_schematic=4&participantId=7A2FD3C07D83434E8933F2F44369452E&assignmentId=4b28ab2d-ffb0-4eaa-9119-81585b93f95b&projectId=5e631737-0fa4-44a6-b227-7ba1d7345015","7A2FD3C07D83434E8933F2F44369452E-2025-05-27-18-58-04","","null","","[]","null","",""
"","","","","","image-button-response","92","1347099","0.0-14.0-1.0-0.1","7A2FD3C07D83434E8933F2F44369452E","7A2FD3C07D83434E8933F2F44369452E","4b28ab2d-ffb0-4eaa-9119-81585b93f95b","5e631737-0fa4-44a6-b227-7ba1d7345015","{""num_scrambled_semantic"":""8"",""num_scrambled_causal"":""4"",""num_scrambled_schematic"":""4"",""participantId"":""7A2FD3C07D83434E8933F2F44369452E"",""assignmentId"":""4b28ab2d-ffb0-4eaa-9119-81585b93f95b"",""projectId"":""5e631737-0fa4-44a6-b227-7ba1d7345015""}","https://test12345.live/?num_scrambled_semantic=8&num_scrambled_causal=4&num_scrambled_schematic=4&participantId=7A2FD3C07D83434E8933F2F44369452E&assignmentId=4b28ab2d-ffb0-4eaa-9119-81585b93f95b&projectId=5e631737-0fa4-44a6-b227-7ba1d7345015","7A2FD3C07D83434E8933F2F44369452E-2025-05-27-18-58-04","","null","","images/semantic_sequence/creative_activities_semantic/creative_activities_semantic_2.png","null","",""
"","","","","","image-button-response","93","1348885","0.0-14.0-1.0-1.1","7A2FD3C07D83434E8933F2F44369452E","7A2FD3C07D83434E8933F2F44369452E","4b28ab2d-ffb0-4eaa-9119-81585b93f95b","5e631737-0fa4-44a6-b227-7ba1d7345015","{""num_scrambled_semantic"":""8"",""num_scrambled_causal"":""4"",""num_scrambled_schematic"":""4"",""participantId"":""7A2FD3C07D83434E8933F2F44369452E"",""assignmentId"":""4b28ab2d-ffb0-4eaa-9119-81585b93f95b"",""projectId"":""5e631737-0fa4-44a6-b227-7ba1d7345015""}","https://test12345.live/?num_scrambled_semantic=8&num_scrambled_causal=4&num_scrambled_schematic=4&participantId=7A2FD3C07D83434E8933F2F44369452E&assignmentId=4b28ab2d-ffb0-4eaa-9119-81585b93f95b&projectId=5e631737-0fa4-44a6-b227-7ba1d7345015","7A2FD3C07D83434E8933F2F44369452E-2025-05-27-18-58-04","","1784","","images/semantic_sequence/creative_activities_semantic/creative_activities_semantic_2.png","0","",""
"","","","","","image-button-response","94","1350788","0.0-14.0-1.0-2.1","7A2FD3C07D83434E8933F2F44369452E","7A2FD3C07D83434E8933F2F44369452E","4b28ab2d-ffb0-4eaa-9119-81585b93f95b","5e631737-0fa4-44a6-b227-7ba1d7345015","{""num_scrambled_semantic"":""8"",""num_scrambled_causal"":""4"",""num_scrambled_schematic"":""4"",""participantId"":""7A2FD3C07D83434E8933F2F44369452E"",""assignmentId"":""4b28ab2d-ffb0-4eaa-9119-81585b93f95b"",""projectId"":""5e631737-0fa4-44a6-b227-7ba1d7345015""}","https://test12345.live/?num_scrambled_semantic=8&num_scrambled_causal=4&num_scrambled_schematic=4&participantId=7A2FD3C07D83434E8933F2F44369452E&assignmentId=4b28ab2d-ffb0-4eaa-9119-81585b93f95b&projectId=5e631737-0fa4-44a6-b227-7ba1d7345015","7A2FD3C07D83434E8933F2F44369452E-2025-05-27-18-58-04","","null","","[]","null","",""
"","","","","","image-button-response","95","1355334","0.0-14.0-1.0-0.2","7A2FD3C07D83434E8933F2F44369452E","7A2FD3C07D83434E8933F2F44369452E","4b28ab2d-ffb0-4eaa-9119-81585b93f95b","5e631737-0fa4-44a6-b227-7ba1d7345015","{""num_scrambled_semantic"":""8"",""num_scrambled_causal"":""4"",""num_scrambled_schematic"":""4"",""participantId"":""7A2FD3C07D83434E8933F2F44369452E"",""assignmentId"":""4b28ab2d-ffb0-4eaa-9119-81585b93f95b"",""projectId"":""5e631737-0fa4-44a6-b227-7ba1d7345015""}","https://test12345.live/?num_scrambled_semantic=8&num_scrambled_causal=4&num_scrambled_schematic=4&participantId=7A2FD3C07D83434E8933F2F44369452E&assignmentId=4b28ab2d-ffb0-4eaa-9119-81585b93f95b&projectId=5e631737-0fa4-44a6-b227-7ba1d7345015","7A2FD3C07D83434E8933F2F44369452E-2025-05-27-18-58-04","","null","","images/semantic_sequence/creative_activities_semantic/creative_activities_semantic_3.png","null","",""
"","","","","","image-button-response","96","1356554","0.0-14.0-1.0-1.2","7A2FD3C07D83434E8933F2F44369452E","7A2FD3C07D83434E8933F2F44369452E","4b28ab2d-ffb0-4eaa-9119-81585b93f95b","5e631737-0fa4-44a6-b227-7ba1d7345015","{""num_scrambled_semantic"":""8"",""num_scrambled_causal"":""4"",""num_scrambled_schematic"":""4"",""participantId"":""7A2FD3C07D83434E8933F2F44369452E"",""assignmentId"":""4b28ab2d-ffb0-4eaa-9119-81585b93f95b"",""projectId"":""5e631737-0fa4-44a6-b227-7ba1d7345015""}","https://test12345.live/?num_scrambled_semantic=8&num_scrambled_causal=4&num_scrambled_schematic=4&participantId=7A2FD3C07D83434E8933F2F44369452E&assignmentId=4b28ab2d-ffb0-4eaa-9119-81585b93f95b&projectId=5e631737-0fa4-44a6-b227-7ba1d7345015","7A2FD3C07D83434E8933F2F44369452E-2025-05-27-18-58-04","","1220","","images/semantic_sequence/creative_activities_semantic/creative_activities_semantic_3.png","0","",""
"","","","","","image-button-response","97","1358361","0.0-14.0-1.0-2.2","7A2FD3C07D83434E8933F2F44369452E","7A2FD3C07D83434E8933F2F44369452E","4b28ab2d-ffb0-4eaa-9119-81585b93f95b","5e631737-0fa4-44a6-b227-7ba1d7345015","{""num_scrambled_semantic"":""8"",""num_scrambled_causal"":""4"",""num_scrambled_schematic"":""4"",""participantId"":""7A2FD3C07D83434E8933F2F44369452E"",""assignmentId"":""4b28ab2d-ffb0-4eaa-9119-81585b93f95b"",""projectId"":""5e631737-0fa4-44a6-b227-7ba1d7345015""}","https://test12345.live/?num_scrambled_semantic=8&num_scrambled_causal=4&num_scrambled_schematic=4&participantId=7A2FD3C07D83434E8933F2F44369452E&assignmentId=4b28ab2d-ffb0-4eaa-9119-81585b93f95b&projectId=5e631737-0fa4-44a6-b227-7ba1d7345015","7A2FD3C07D83434E8933F2F44369452E-2025-05-27-18-58-04","","null","","[]","null","",""
"","","","","","image-button-response","98","1362906","0.0-14.0-1.0-0.3","7A2FD3C07D83434E8933F2F44369452E","7A2FD3C07D83434E8933F2F44369452E","4b28ab2d-ffb0-4eaa-9119-81585b93f95b","5e631737-0fa4-44a6-b227-7ba1d7345015","{""num_scrambled_semantic"":""8"",""num_scrambled_causal"":""4"",""num_scrambled_schematic"":""4"",""participantId"":""7A2FD3C07D83434E8933F2F44369452E"",""assignmentId"":""4b28ab2d-ffb0-4eaa-9119-81585b93f95b"",""projectId"":""5e631737-0fa4-44a6-b227-7ba1d7345015""}","https://test12345.live/?num_scrambled_semantic=8&num_scrambled_causal=4&num_scrambled_schematic=4&participantId=7A2FD3C07D83434E8933F2F44369452E&assignmentId=4b28ab2d-ffb0-4eaa-9119-81585b93f95b&projectId=5e631737-0fa4-44a6-b227-7ba1d7345015","7A2FD3C07D83434E8933F2F44369452E-2025-05-27-18-58-04","","null","","images/semantic_sequence/creative_activities_semantic/creative_activities_semantic_4.png","null","",""
"","","","","","image-button-response","99","1363990","0.0-14.0-1.0-1.3","7A2FD3C07D83434E8933F2F44369452E","7A2FD3C07D83434E8933F2F44369452E","4b28ab2d-ffb0-4eaa-9119-81585b93f95b","5e631737-0fa4-44a6-b227-7ba1d7345015","{""num_scrambled_semantic"":""8"",""num_scrambled_causal"":""4"",""num_scrambled_schematic"":""4"",""participantId"":""7A2FD3C07D83434E8933F2F44369452E"",""assignmentId"":""4b28ab2d-ffb0-4eaa-9119-81585b93f95b"",""projectId"":""5e631737-0fa4-44a6-b227-7ba1d7345015""}","https://test12345.live/?num_scrambled_semantic=8&num_scrambled_causal=4&num_scrambled_schematic=4&participantId=7A2FD3C07D83434E8933F2F44369452E&assignmentId=4b28ab2d-ffb0-4eaa-9119-81585b93f95b&projectId=5e631737-0fa4-44a6-b227-7ba1d7345015","7A2FD3C07D83434E8933F2F44369452E-2025-05-27-18-58-04","","1081","","images/semantic_sequence/creative_activities_semantic/creative_activities_semantic_4.png","0","",""
"","","","","","image-button-response","100","1365993","0.0-14.0-1.0-2.3","7A2FD3C07D83434E8933F2F44369452E","7A2FD3C07D83434E8933F2F44369452E","4b28ab2d-ffb0-4eaa-9119-81585b93f95b","5e631737-0fa4-44a6-b227-7ba1d7345015","{""num_scrambled_semantic"":""8"",""num_scrambled_causal"":""4"",""num_scrambled_schematic"":""4"",""participantId"":""7A2FD3C07D83434E8933F2F44369452E"",""assignmentId"":""4b28ab2d-ffb0-4eaa-9119-81585b93f95b"",""projectId"":""5e631737-0fa4-44a6-b227-7ba1d7345015""}","https://test12345.live/?num_scrambled_semantic=8&num_scrambled_causal=4&num_scrambled_schematic=4&participantId=7A2FD3C07D83434E8933F2F44369452E&assignmentId=4b28ab2d-ffb0-4eaa-9119-81585b93f95b&projectId=5e631737-0fa4-44a6-b227-7ba1d7345015","7A2FD3C07D83434E8933F2F44369452E-2025-05-27-18-58-04","","null","","[]","null","",""
"","","","","","image-button-response","101","1370642","0.0-14.0-1.0-0.4","7A2FD3C07D83434E8933F2F44369452E","7A2FD3C07D83434E8933F2F44369452E","4b28ab2d-ffb0-4eaa-9119-81585b93f95b","5e631737-0fa4-44a6-b227-7ba1d7345015","{""num_scrambled_semantic"":""8"",""num_scrambled_causal"":""4"",""num_scrambled_schematic"":""4"",""participantId"":""7A2FD3C07D83434E8933F2F44369452E"",""assignmentId"":""4b28ab2d-ffb0-4eaa-9119-81585b93f95b"",""projectId"":""5e631737-0fa4-44a6-b227-7ba1d7345015""}","https://test12345.live/?num_scrambled_semantic=8&num_scrambled_causal=4&num_scrambled_schematic=4&participantId=7A2FD3C07D83434E8933F2F44369452E&assignmentId=4b28ab2d-ffb0-4eaa-9119-81585b93f95b&projectId=5e631737-0fa4-44a6-b227-7ba1d7345015","7A2FD3C07D83434E8933F2F44369452E-2025-05-27-18-58-04","","null","","images/semantic_sequence/creative_activities_semantic/creative_activities_semantic_5.png","null","",""
"","","","","","image-button-response","102","1371939","0.0-14.0-1.0-1.4","7A2FD3C07D83434E8933F2F44369452E","7A2FD3C07D83434E8933F2F44369452E","4b28ab2d-ffb0-4eaa-9119-81585b93f95b","5e631737-0fa4-44a6-b227-7ba1d7345015","{""num_scrambled_semantic"":""8"",""num_scrambled_causal"":""4"",""num_scrambled_schematic"":""4"",""participantId"":""7A2FD3C07D83434E8933F2F44369452E"",""assignmentId"":""4b28ab2d-ffb0-4eaa-9119-81585b93f95b"",""projectId"":""5e631737-0fa4-44a6-b227-7ba1d7345015""}","https://test12345.live/?num_scrambled_semantic=8&num_scrambled_causal=4&num_scrambled_schematic=4&participantId=7A2FD3C07D83434E8933F2F44369452E&assignmentId=4b28ab2d-ffb0-4eaa-9119-81585b93f95b&projectId=5e631737-0fa4-44a6-b227-7ba1d7345015","7A2FD3C07D83434E8933F2F44369452E-2025-05-27-18-58-04","","1294","","images/semantic_sequence/creative_activities_semantic/creative_activities_semantic_5.png","0","",""
"","","","","","image-button-response","103","1373743","0.0-14.0-1.0-2.4","7A2FD3C07D83434E8933F2F44369452E","7A2FD3C07D83434E8933F2F44369452E","4b28ab2d-ffb0-4eaa-9119-81585b93f95b","5e631737-0fa4-44a6-b227-7ba1d7345015","{""num_scrambled_semantic"":""8"",""num_scrambled_causal"":""4"",""num_scrambled_schematic"":""4"",""participantId"":""7A2FD3C07D83434E8933F2F44369452E"",""assignmentId"":""4b28ab2d-ffb0-4eaa-9119-81585b93f95b"",""projectId"":""5e631737-0fa4-44a6-b227-7ba1d7345015""}","https://test12345.live/?num_scrambled_semantic=8&num_scrambled_causal=4&num_scrambled_schematic=4&participantId=7A2FD3C07D83434E8933F2F44369452E&assignmentId=4b28ab2d-ffb0-4eaa-9119-81585b93f95b&projectId=5e631737-0fa4-44a6-b227-7ba1d7345015","7A2FD3C07D83434E8933F2F44369452E-2025-05-27-18-58-04","","null","","[]","null","",""
"","","","","","image-button-response","104","1378778","0.0-14.0-1.0-0.5","7A2FD3C07D83434E8933F2F44369452E","7A2FD3C07D83434E8933F2F44369452E","4b28ab2d-ffb0-4eaa-9119-81585b93f95b","5e631737-0fa4-44a6-b227-7ba1d7345015","{""num_scrambled_semantic"":""8"",""num_scrambled_causal"":""4"",""num_scrambled_schematic"":""4"",""participantId"":""7A2FD3C07D83434E8933F2F44369452E"",""assignmentId"":""4b28ab2d-ffb0-4eaa-9119-81585b93f95b"",""projectId"":""5e631737-0fa4-44a6-b227-7ba1d7345015""}","https://test12345.live/?num_scrambled_semantic=8&num_scrambled_causal=4&num_scrambled_schematic=4&participantId=7A2FD3C07D83434E8933F2F44369452E&assignmentId=4b28ab2d-ffb0-4eaa-9119-81585b93f95b&projectId=5e631737-0fa4-44a6-b227-7ba1d7345015","7A2FD3C07D83434E8933F2F44369452E-2025-05-27-18-58-04","","null","","images/semantic_sequence/creative_activities_semantic/creative_activities_semantic_6.png","null","",""
"","","","","","image-button-response","105","1380088","0.0-14.0-1.0-1.5","7A2FD3C07D83434E8933F2F44369452E","7A2FD3C07D83434E8933F2F44369452E","4b28ab2d-ffb0-4eaa-9119-81585b93f95b","5e631737-0fa4-44a6-b227-7ba1d7345015","{""num_scrambled_semantic"":""8"",""num_scrambled_causal"":""4"",""num_scrambled_schematic"":""4"",""participantId"":""7A2FD3C07D83434E8933F2F44369452E"",""assignmentId"":""4b28ab2d-ffb0-4eaa-9119-81585b93f95b"",""projectId"":""5e631737-0fa4-44a6-b227-7ba1d7345015""}","https://test12345.live/?num_scrambled_semantic=8&num_scrambled_causal=4&num_scrambled_schematic=4&participantId=7A2FD3C07D83434E8933F2F44369452E&assignmentId=4b28ab2d-ffb0-4eaa-9119-81585b93f95b&projectId=5e631737-0fa4-44a6-b227-7ba1d7345015","7A2FD3C07D83434E8933F2F44369452E-2025-05-27-18-58-04","","1309","","images/semantic_sequence/creative_activities_semantic/creative_activities_semantic_6.png","0","",""
"","","","","","image-button-response","106","1381895","0.0-14.0-1.0-2.5","7A2FD3C07D83434E8933F2F44369452E","7A2FD3C07D83434E8933F2F44369452E","4b28ab2d-ffb0-4eaa-9119-81585b93f95b","5e631737-0fa4-44a6-b227-7ba1d7345015","{""num_scrambled_semantic"":""8"",""num_scrambled_causal"":""4"",""num_scrambled_schematic"":""4"",""participantId"":""7A2FD3C07D83434E8933F2F44369452E"",""assignmentId"":""4b28ab2d-ffb0-4eaa-9119-81585b93f95b"",""projectId"":""5e631737-0fa4-44a6-b227-7ba1d7345015""}","https://test12345.live/?num_scrambled_semantic=8&num_scrambled_causal=4&num_scrambled_schematic=4&participantId=7A2FD3C07D83434E8933F2F44369452E&assignmentId=4b28ab2d-ffb0-4eaa-9119-81585b93f95b&projectId=5e631737-0fa4-44a6-b227-7ba1d7345015","7A2FD3C07D83434E8933F2F44369452E-2025-05-27-18-58-04","","null","","[]","null","",""
"","","","","","image-button-response","107","1386903","0.0-14.0-1.0-0.6","7A2FD3C07D83434E8933F2F44369452E","7A2FD3C07D83434E8933F2F44369452E","4b28ab2d-ffb0-4eaa-9119-81585b93f95b","5e631737-0fa4-44a6-b227-7ba1d7345015","{""num_scrambled_semantic"":""8"",""num_scrambled_causal"":""4"",""num_scrambled_schematic"":""4"",""participantId"":""7A2FD3C07D83434E8933F2F44369452E"",""assignmentId"":""4b28ab2d-ffb0-4eaa-9119-81585b93f95b"",""projectId"":""5e631737-0fa4-44a6-b227-7ba1d7345015""}","https://test12345.live/?num_scrambled_semantic=8&num_scrambled_causal=4&num_scrambled_schematic=4&participantId=7A2FD3C07D83434E8933F2F44369452E&assignmentId=4b28ab2d-ffb0-4eaa-9119-81585b93f95b&projectId=5e631737-0fa4-44a6-b227-7ba1d7345015","7A2FD3C07D83434E8933F2F44369452E-2025-05-27-18-58-04","","null","","images/semantic_sequence/creative_activities_semantic/creative_activities_semantic_7.png","null","",""
"","","","","","image-button-response","108","1388585","0.0-14.0-1.0-1.6","7A2FD3C07D83434E8933F2F44369452E","7A2FD3C07D83434E8933F2F44369452E","4b28ab2d-ffb0-4eaa-9119-81585b93f95b","5e631737-0fa4-44a6-b227-7ba1d7345015","{""num_scrambled_semantic"":""8"",""num_scrambled_causal"":""4"",""num_scrambled_schematic"":""4"",""participantId"":""7A2FD3C07D83434E8933F2F44369452E"",""assignmentId"":""4b28ab2d-ffb0-4eaa-9119-81585b93f95b"",""projectId"":""5e631737-0fa4-44a6-b227-7ba1d7345015""}","https://test12345.live/?num_scrambled_semantic=8&num_scrambled_causal=4&num_scrambled_schematic=4&participantId=7A2FD3C07D83434E8933F2F44369452E&assignmentId=4b28ab2d-ffb0-4eaa-9119-81585b93f95b&projectId=5e631737-0fa4-44a6-b227-7ba1d7345015","7A2FD3C07D83434E8933F2F44369452E-2025-05-27-18-58-04","","1682","","images/semantic_sequence/creative_activities_semantic/creative_activities_semantic_7.png","0","",""
"","","","","","image-button-response","109","1390597","0.0-14.0-1.0-2.6","7A2FD3C07D83434E8933F2F44369452E","7A2FD3C07D83434E8933F2F44369452E","4b28ab2d-ffb0-4eaa-9119-81585b93f95b","5e631737-0fa4-44a6-b227-7ba1d7345015","{""num_scrambled_semantic"":""8"",""num_scrambled_causal"":""4"",""num_scrambled_schematic"":""4"",""participantId"":""7A2FD3C07D83434E8933F2F44369452E"",""assignmentId"":""4b28ab2d-ffb0-4eaa-9119-81585b93f95b"",""projectId"":""5e631737-0fa4-44a6-b227-7ba1d7345015""}","https://test12345.live/?num_scrambled_semantic=8&num_scrambled_causal=4&num_scrambled_schematic=4&participantId=7A2FD3C07D83434E8933F2F44369452E&assignmentId=4b28ab2d-ffb0-4eaa-9119-81585b93f95b&projectId=5e631737-0fa4-44a6-b227-7ba1d7345015","7A2FD3C07D83434E8933F2F44369452E-2025-05-27-18-58-04","","null","","[]","null","",""
"","","","","","image-button-response","110","1395135","0.0-14.0-1.0-0.7","7A2FD3C07D83434E8933F2F44369452E","7A2FD3C07D83434E8933F2F44369452E","4b28ab2d-ffb0-4eaa-9119-81585b93f95b","5e631737-0fa4-44a6-b227-7ba1d7345015","{""num_scrambled_semantic"":""8"",""num_scrambled_causal"":""4"",""num_scrambled_schematic"":""4"",""participantId"":""7A2FD3C07D83434E8933F2F44369452E"",""assignmentId"":""4b28ab2d-ffb0-4eaa-9119-81585b93f95b"",""projectId"":""5e631737-0fa4-44a6-b227-7ba1d7345015""}","https://test12345.live/?num_scrambled_semantic=8&num_scrambled_causal=4&num_scrambled_schematic=4&participantId=7A2FD3C07D83434E8933F2F44369452E&assignmentId=4b28ab2d-ffb0-4eaa-9119-81585b93f95b&projectId=5e631737-0fa4-44a6-b227-7ba1d7345015","7A2FD3C07D83434E8933F2F44369452E-2025-05-27-18-58-04","","null","","images/semantic_sequence/creative_activities_semantic/creative_activities_semantic_8.png","null","",""
"","","","","","image-button-response","111","1396013","0.0-14.0-1.0-1.7","7A2FD3C07D83434E8933F2F44369452E","7A2FD3C07D83434E8933F2F44369452E","4b28ab2d-ffb0-4eaa-9119-81585b93f95b","5e631737-0fa4-44a6-b227-7ba1d7345015","{""num_scrambled_semantic"":""8"",""num_scrambled_causal"":""4"",""num_scrambled_schematic"":""4"",""participantId"":""7A2FD3C07D83434E8933F2F44369452E"",""assignmentId"":""4b28ab2d-ffb0-4eaa-9119-81585b93f95b"",""projectId"":""5e631737-0fa4-44a6-b227-7ba1d7345015""}","https://test12345.live/?num_scrambled_semantic=8&num_scrambled_causal=4&num_scrambled_schematic=4&participantId=7A2FD3C07D83434E8933F2F44369452E&assignmentId=4b28ab2d-ffb0-4eaa-9119-81585b93f95b&projectId=5e631737-0fa4-44a6-b227-7ba1d7345015","7A2FD3C07D83434E8933F2F44369452E-2025-05-27-18-58-04","","878","","images/semantic_sequence/creative_activities_semantic/creative_activities_semantic_8.png","0","",""
"","","","","","image-button-response","112","1398035","0.0-14.0-1.0-2.7","7A2FD3C07D83434E8933F2F44369452E","7A2FD3C07D83434E8933F2F44369452E","4b28ab2d-ffb0-4eaa-9119-81585b93f95b","5e631737-0fa4-44a6-b227-7ba1d7345015","{""num_scrambled_semantic"":""8"",""num_scrambled_causal"":""4"",""num_scrambled_schematic"":""4"",""participantId"":""7A2FD3C07D83434E8933F2F44369452E"",""assignmentId"":""4b28ab2d-ffb0-4eaa-9119-81585b93f95b"",""projectId"":""5e631737-0fa4-44a6-b227-7ba1d7345015""}","https://test12345.live/?num_scrambled_semantic=8&num_scrambled_causal=4&num_scrambled_schematic=4&participantId=7A2FD3C07D83434E8933F2F44369452E&assignmentId=4b28ab2d-ffb0-4eaa-9119-81585b93f95b&projectId=5e631737-0fa4-44a6-b227-7ba1d7345015","7A2FD3C07D83434E8933F2F44369452E-2025-05-27-18-58-04","","null","","[]","null","",""
