"success","timeout","failed_images","failed_audio","failed_video","trial_type","trial_index","time_elapsed","internal_node_id","subject","subject_id","study_id","session_id","urlvar","current_url","audio_id","view_history","rt","device_id","stimulus","response","estimated_stimulus_onset","seq_name"
"true","false","[]","[]","[]","preload","0","18003","0.0-0.0","7AA92B1CB5674A608F501EB531B7AA8E","7AA92B1CB5674A608F501EB531B7AA8E","2aa1e985-fd51-4f04-a958-fe0a748ff139","93d27ed9-06b1-4109-8acc-030e53ea77d1","{""num_scrambled_semantic"":""8"",""num_scrambled_causal"":""4"",""num_scrambled_schematic"":""4"",""participantId"":""7AA92B1CB5674A608F501EB531B7AA8E"",""assignmentId"":""2aa1e985-fd51-4f04-a958-fe0a748ff139"",""projectId"":""93d27ed9-06b1-4109-8acc-030e53ea77d1""}","https://test12345.live/?num_scrambled_semantic=8&num_scrambled_causal=4&num_scrambled_schematic=4&participantId=7AA92B1CB5674A608F501EB531B7AA8E&assignmentId=2aa1e985-fd51-4f04-a958-fe0a748ff139&projectId=93d27ed9-06b1-4109-8acc-030e53ea77d1","7AA92B1CB5674A608F501EB531B7AA8E-2025-05-14-15-41-20","","","","","","",""
"","","","","","instructions","1","333661","0.0-1.0","7AA92B1CB5674A608F501EB531B7AA8E","7AA92B1CB5674A608F501EB531B7AA8E","2aa1e985-fd51-4f04-a958-fe0a748ff139","93d27ed9-06b1-4109-8acc-030e53ea77d1","{""num_scrambled_semantic"":""8"",""num_scrambled_causal"":""4"",""num_scrambled_schematic"":""4"",""participantId"":""7AA92B1CB5674A608F501EB531B7AA8E"",""assignmentId"":""2aa1e985-fd51-4f04-a958-fe0a748ff139"",""projectId"":""93d27ed9-06b1-4109-8acc-030e53ea77d1""}","https://test12345.live/?num_scrambled_semantic=8&num_scrambled_causal=4&num_scrambled_schematic=4&participantId=7AA92B1CB5674A608F501EB531B7AA8E&assignmentId=2aa1e985-fd51-4f04-a958-fe0a748ff139&projectId=93d27ed9-06b1-4109-8acc-030e53ea77d1","7AA92B1CB5674A608F501EB531B7AA8E-2025-05-14-15-41-20","[{""page_index"":0,""viewing_time"":315658}]","315658","","","","",""
"","","","","","instructions","2","746326","0.0-2.0","7AA92B1CB5674A608F501EB531B7AA8E","7AA92B1CB5674A608F501EB531B7AA8E","2aa1e985-fd51-4f04-a958-fe0a748ff139","93d27ed9-06b1-4109-8acc-030e53ea77d1","{""num_scrambled_semantic"":""8"",""num_scrambled_causal"":""4"",""num_scrambled_schematic"":""4"",""participantId"":""7AA92B1CB5674A608F501EB531B7AA8E"",""assignmentId"":""2aa1e985-fd51-4f04-a958-fe0a748ff139"",""projectId"":""93d27ed9-06b1-4109-8acc-030e53ea77d1""}","https://test12345.live/?num_scrambled_semantic=8&num_scrambled_causal=4&num_scrambled_schematic=4&participantId=7AA92B1CB5674A608F501EB531B7AA8E&assignmentId=2aa1e985-fd51-4f04-a958-fe0a748ff139&projectId=93d27ed9-06b1-4109-8acc-030e53ea77d1","7AA92B1CB5674A608F501EB531B7AA8E-2025-05-14-15-41-20","[{""page_index"":0,""viewing_time"":412663}]","412664","","","","",""
"true","","","","","fullscreen","3","1134415","0.0-3.0","7AA92B1CB5674A608F501EB531B7AA8E","7AA92B1CB5674A608F501EB531B7AA8E","2aa1e985-fd51-4f04-a958-fe0a748ff139","93d27ed9-06b1-4109-8acc-030e53ea77d1","{""num_scrambled_semantic"":""8"",""num_scrambled_causal"":""4"",""num_scrambled_schematic"":""4"",""participantId"":""7AA92B1CB5674A608F501EB531B7AA8E"",""assignmentId"":""2aa1e985-fd51-4f04-a958-fe0a748ff139"",""projectId"":""93d27ed9-06b1-4109-8acc-030e53ea77d1""}","https://test12345.live/?num_scrambled_semantic=8&num_scrambled_causal=4&num_scrambled_schematic=4&participantId=7AA92B1CB5674A608F501EB531B7AA8E&assignmentId=2aa1e985-fd51-4f04-a958-fe0a748ff139&projectId=93d27ed9-06b1-4109-8acc-030e53ea77d1","7AA92B1CB5674A608F501EB531B7AA8E-2025-05-14-15-41-20","","387081","","","","",""
"","","","","","initialize-microphone","4","1142917","0.0-4.0-0.0","7AA92B1CB5674A608F501EB531B7AA8E","7AA92B1CB5674A608F501EB531B7AA8E","2aa1e985-fd51-4f04-a958-fe0a748ff139","93d27ed9-06b1-4109-8acc-030e53ea77d1","{""num_scrambled_semantic"":""8"",""num_scrambled_causal"":""4"",""num_scrambled_schematic"":""4"",""participantId"":""7AA92B1CB5674A608F501EB531B7AA8E"",""assignmentId"":""2aa1e985-fd51-4f04-a958-fe0a748ff139"",""projectId"":""93d27ed9-06b1-4109-8acc-030e53ea77d1""}","https://test12345.live/?num_scrambled_semantic=8&num_scrambled_causal=4&num_scrambled_schematic=4&participantId=7AA92B1CB5674A608F501EB531B7AA8E&assignmentId=2aa1e985-fd51-4f04-a958-fe0a748ff139&projectId=93d27ed9-06b1-4109-8acc-030e53ea77d1","7AA92B1CB5674A608F501EB531B7AA8E-2025-05-14-15-41-20","","","9ead6b3b1232dd555b9ee9d36d2ae8ae7a328e0aea0960a4d5ff7fb63803646a","","","",""
"","","","","","html-audio-response","5","1151523","0.0-4.0-1.0","7AA92B1CB5674A608F501EB531B7AA8E","7AA92B1CB5674A608F501EB531B7AA8E","2aa1e985-fd51-4f04-a958-fe0a748ff139","93d27ed9-06b1-4109-8acc-030e53ea77d1","{""num_scrambled_semantic"":""8"",""num_scrambled_causal"":""4"",""num_scrambled_schematic"":""4"",""participantId"":""7AA92B1CB5674A608F501EB531B7AA8E"",""assignmentId"":""2aa1e985-fd51-4f04-a958-fe0a748ff139"",""projectId"":""93d27ed9-06b1-4109-8acc-030e53ea77d1""}","https://test12345.live/?num_scrambled_semantic=8&num_scrambled_causal=4&num_scrambled_schematic=4&participantId=7AA92B1CB5674A608F501EB531B7AA8E&assignmentId=2aa1e985-fd51-4f04-a958-fe0a748ff139&projectId=93d27ed9-06b1-4109-8acc-030e53ea77d1","7AA92B1CB5674A608F501EB531B7AA8E-2025-05-14-15-41-20","","3081","","<span style=""color: red; font-size: 24px""> NOW RECORDING</span>
        <p>Please test Microphone</p>","","5",""
"","","","","","html-button-response","6","1152768","0.0-4.0-2.0","7AA92B1CB5674A608F501EB531B7AA8E","7AA92B1CB5674A608F501EB531B7AA8E","2aa1e985-fd51-4f04-a958-fe0a748ff139","93d27ed9-06b1-4109-8acc-030e53ea77d1","{""num_scrambled_semantic"":""8"",""num_scrambled_causal"":""4"",""num_scrambled_schematic"":""4"",""participantId"":""7AA92B1CB5674A608F501EB531B7AA8E"",""assignmentId"":""2aa1e985-fd51-4f04-a958-fe0a748ff139"",""projectId"":""93d27ed9-06b1-4109-8acc-030e53ea77d1""}","https://test12345.live/?num_scrambled_semantic=8&num_scrambled_causal=4&num_scrambled_schematic=4&participantId=7AA92B1CB5674A608F501EB531B7AA8E&assignmentId=2aa1e985-fd51-4f04-a958-fe0a748ff139&projectId=93d27ed9-06b1-4109-8acc-030e53ea77d1","7AA92B1CB5674A608F501EB531B7AA8E-2025-05-14-15-41-20","","1240","","<p style=""font-size:48px; color:red;"">Is Microphone OK?</p>","1","",""
"","","","","","instructions","7","1165827","0.0-5.0","7AA92B1CB5674A608F501EB531B7AA8E","7AA92B1CB5674A608F501EB531B7AA8E","2aa1e985-fd51-4f04-a958-fe0a748ff139","93d27ed9-06b1-4109-8acc-030e53ea77d1","{""num_scrambled_semantic"":""8"",""num_scrambled_causal"":""4"",""num_scrambled_schematic"":""4"",""participantId"":""7AA92B1CB5674A608F501EB531B7AA8E"",""assignmentId"":""2aa1e985-fd51-4f04-a958-fe0a748ff139"",""projectId"":""93d27ed9-06b1-4109-8acc-030e53ea77d1""}","https://test12345.live/?num_scrambled_semantic=8&num_scrambled_causal=4&num_scrambled_schematic=4&participantId=7AA92B1CB5674A608F501EB531B7AA8E&assignmentId=2aa1e985-fd51-4f04-a958-fe0a748ff139&projectId=93d27ed9-06b1-4109-8acc-030e53ea77d1","7AA92B1CB5674A608F501EB531B7AA8E-2025-05-14-15-41-20","[{""page_index"":0,""viewing_time"":4379},{""page_index"":1,""viewing_time"":8678}]","13057","","","","",""
"","","","","","image-button-response","8","1171838","0.0-6.0-0.0","7AA92B1CB5674A608F501EB531B7AA8E","7AA92B1CB5674A608F501EB531B7AA8E","2aa1e985-fd51-4f04-a958-fe0a748ff139","93d27ed9-06b1-4109-8acc-030e53ea77d1","{""num_scrambled_semantic"":""8"",""num_scrambled_causal"":""4"",""num_scrambled_schematic"":""4"",""participantId"":""7AA92B1CB5674A608F501EB531B7AA8E"",""assignmentId"":""2aa1e985-fd51-4f04-a958-fe0a748ff139"",""projectId"":""93d27ed9-06b1-4109-8acc-030e53ea77d1""}","https://test12345.live/?num_scrambled_semantic=8&num_scrambled_causal=4&num_scrambled_schematic=4&participantId=7AA92B1CB5674A608F501EB531B7AA8E&assignmentId=2aa1e985-fd51-4f04-a958-fe0a748ff139&projectId=93d27ed9-06b1-4109-8acc-030e53ea77d1","7AA92B1CB5674A608F501EB531B7AA8E-2025-05-14-15-41-20","","null","","images/instructions/movie_0.png","null","",""
"","","","","","image-button-response","9","1176346","0.0-6.0-1.0-0.0","7AA92B1CB5674A608F501EB531B7AA8E","7AA92B1CB5674A608F501EB531B7AA8E","2aa1e985-fd51-4f04-a958-fe0a748ff139","93d27ed9-06b1-4109-8acc-030e53ea77d1","{""num_scrambled_semantic"":""8"",""num_scrambled_causal"":""4"",""num_scrambled_schematic"":""4"",""participantId"":""7AA92B1CB5674A608F501EB531B7AA8E"",""assignmentId"":""2aa1e985-fd51-4f04-a958-fe0a748ff139"",""projectId"":""93d27ed9-06b1-4109-8acc-030e53ea77d1""}","https://test12345.live/?num_scrambled_semantic=8&num_scrambled_causal=4&num_scrambled_schematic=4&participantId=7AA92B1CB5674A608F501EB531B7AA8E&assignmentId=2aa1e985-fd51-4f04-a958-fe0a748ff139&projectId=93d27ed9-06b1-4109-8acc-030e53ea77d1","7AA92B1CB5674A608F501EB531B7AA8E-2025-05-14-15-41-20","","null","","images/instructions/movie_1.png","null","",""
"","","","","","image-button-response","10","1179010","0.0-6.0-1.0-1.0","7AA92B1CB5674A608F501EB531B7AA8E","7AA92B1CB5674A608F501EB531B7AA8E","2aa1e985-fd51-4f04-a958-fe0a748ff139","93d27ed9-06b1-4109-8acc-030e53ea77d1","{""num_scrambled_semantic"":""8"",""num_scrambled_causal"":""4"",""num_scrambled_schematic"":""4"",""participantId"":""7AA92B1CB5674A608F501EB531B7AA8E"",""assignmentId"":""2aa1e985-fd51-4f04-a958-fe0a748ff139"",""projectId"":""93d27ed9-06b1-4109-8acc-030e53ea77d1""}","https://test12345.live/?num_scrambled_semantic=8&num_scrambled_causal=4&num_scrambled_schematic=4&participantId=7AA92B1CB5674A608F501EB531B7AA8E&assignmentId=2aa1e985-fd51-4f04-a958-fe0a748ff139&projectId=93d27ed9-06b1-4109-8acc-030e53ea77d1","7AA92B1CB5674A608F501EB531B7AA8E-2025-05-14-15-41-20","","2663","","images/instructions/movie_1.png","0","",""
"","","","","","image-button-response","11","1180823","0.0-6.0-1.0-2.0","7AA92B1CB5674A608F501EB531B7AA8E","7AA92B1CB5674A608F501EB531B7AA8E","2aa1e985-fd51-4f04-a958-fe0a748ff139","93d27ed9-06b1-4109-8acc-030e53ea77d1","{""num_scrambled_semantic"":""8"",""num_scrambled_causal"":""4"",""num_scrambled_schematic"":""4"",""participantId"":""7AA92B1CB5674A608F501EB531B7AA8E"",""assignmentId"":""2aa1e985-fd51-4f04-a958-fe0a748ff139"",""projectId"":""93d27ed9-06b1-4109-8acc-030e53ea77d1""}","https://test12345.live/?num_scrambled_semantic=8&num_scrambled_causal=4&num_scrambled_schematic=4&participantId=7AA92B1CB5674A608F501EB531B7AA8E&assignmentId=2aa1e985-fd51-4f04-a958-fe0a748ff139&projectId=93d27ed9-06b1-4109-8acc-030e53ea77d1","7AA92B1CB5674A608F501EB531B7AA8E-2025-05-14-15-41-20","","null","","[]","null","",""
"","","","","","image-button-response","12","1185334","0.0-6.0-1.0-0.1","7AA92B1CB5674A608F501EB531B7AA8E","7AA92B1CB5674A608F501EB531B7AA8E","2aa1e985-fd51-4f04-a958-fe0a748ff139","93d27ed9-06b1-4109-8acc-030e53ea77d1","{""num_scrambled_semantic"":""8"",""num_scrambled_causal"":""4"",""num_scrambled_schematic"":""4"",""participantId"":""7AA92B1CB5674A608F501EB531B7AA8E"",""assignmentId"":""2aa1e985-fd51-4f04-a958-fe0a748ff139"",""projectId"":""93d27ed9-06b1-4109-8acc-030e53ea77d1""}","https://test12345.live/?num_scrambled_semantic=8&num_scrambled_causal=4&num_scrambled_schematic=4&participantId=7AA92B1CB5674A608F501EB531B7AA8E&assignmentId=2aa1e985-fd51-4f04-a958-fe0a748ff139&projectId=93d27ed9-06b1-4109-8acc-030e53ea77d1","7AA92B1CB5674A608F501EB531B7AA8E-2025-05-14-15-41-20","","null","","images/instructions/movie_2.png","null","",""
"","","","","","image-button-response","13","1187640","0.0-6.0-1.0-1.1","7AA92B1CB5674A608F501EB531B7AA8E","7AA92B1CB5674A608F501EB531B7AA8E","2aa1e985-fd51-4f04-a958-fe0a748ff139","93d27ed9-06b1-4109-8acc-030e53ea77d1","{""num_scrambled_semantic"":""8"",""num_scrambled_causal"":""4"",""num_scrambled_schematic"":""4"",""participantId"":""7AA92B1CB5674A608F501EB531B7AA8E"",""assignmentId"":""2aa1e985-fd51-4f04-a958-fe0a748ff139"",""projectId"":""93d27ed9-06b1-4109-8acc-030e53ea77d1""}","https://test12345.live/?num_scrambled_semantic=8&num_scrambled_causal=4&num_scrambled_schematic=4&participantId=7AA92B1CB5674A608F501EB531B7AA8E&assignmentId=2aa1e985-fd51-4f04-a958-fe0a748ff139&projectId=93d27ed9-06b1-4109-8acc-030e53ea77d1","7AA92B1CB5674A608F501EB531B7AA8E-2025-05-14-15-41-20","","2305","","images/instructions/movie_2.png","0","",""
"","","","","","image-button-response","14","1189447","0.0-6.0-1.0-2.1","7AA92B1CB5674A608F501EB531B7AA8E","7AA92B1CB5674A608F501EB531B7AA8E","2aa1e985-fd51-4f04-a958-fe0a748ff139","93d27ed9-06b1-4109-8acc-030e53ea77d1","{""num_scrambled_semantic"":""8"",""num_scrambled_causal"":""4"",""num_scrambled_schematic"":""4"",""participantId"":""7AA92B1CB5674A608F501EB531B7AA8E"",""assignmentId"":""2aa1e985-fd51-4f04-a958-fe0a748ff139"",""projectId"":""93d27ed9-06b1-4109-8acc-030e53ea77d1""}","https://test12345.live/?num_scrambled_semantic=8&num_scrambled_causal=4&num_scrambled_schematic=4&participantId=7AA92B1CB5674A608F501EB531B7AA8E&assignmentId=2aa1e985-fd51-4f04-a958-fe0a748ff139&projectId=93d27ed9-06b1-4109-8acc-030e53ea77d1","7AA92B1CB5674A608F501EB531B7AA8E-2025-05-14-15-41-20","","null","","[]","null","",""
"","","","","","image-button-response","15","1193957","0.0-6.0-1.0-0.2","7AA92B1CB5674A608F501EB531B7AA8E","7AA92B1CB5674A608F501EB531B7AA8E","2aa1e985-fd51-4f04-a958-fe0a748ff139","93d27ed9-06b1-4109-8acc-030e53ea77d1","{""num_scrambled_semantic"":""8"",""num_scrambled_causal"":""4"",""num_scrambled_schematic"":""4"",""participantId"":""7AA92B1CB5674A608F501EB531B7AA8E"",""assignmentId"":""2aa1e985-fd51-4f04-a958-fe0a748ff139"",""projectId"":""93d27ed9-06b1-4109-8acc-030e53ea77d1""}","https://test12345.live/?num_scrambled_semantic=8&num_scrambled_causal=4&num_scrambled_schematic=4&participantId=7AA92B1CB5674A608F501EB531B7AA8E&assignmentId=2aa1e985-fd51-4f04-a958-fe0a748ff139&projectId=93d27ed9-06b1-4109-8acc-030e53ea77d1","7AA92B1CB5674A608F501EB531B7AA8E-2025-05-14-15-41-20","","null","","images/instructions/movie_3.png","null","",""
"","","","","","image-button-response","16","1194661","0.0-6.0-1.0-1.2","7AA92B1CB5674A608F501EB531B7AA8E","7AA92B1CB5674A608F501EB531B7AA8E","2aa1e985-fd51-4f04-a958-fe0a748ff139","93d27ed9-06b1-4109-8acc-030e53ea77d1","{""num_scrambled_semantic"":""8"",""num_scrambled_causal"":""4"",""num_scrambled_schematic"":""4"",""participantId"":""7AA92B1CB5674A608F501EB531B7AA8E"",""assignmentId"":""2aa1e985-fd51-4f04-a958-fe0a748ff139"",""projectId"":""93d27ed9-06b1-4109-8acc-030e53ea77d1""}","https://test12345.live/?num_scrambled_semantic=8&num_scrambled_causal=4&num_scrambled_schematic=4&participantId=7AA92B1CB5674A608F501EB531B7AA8E&assignmentId=2aa1e985-fd51-4f04-a958-fe0a748ff139&projectId=93d27ed9-06b1-4109-8acc-030e53ea77d1","7AA92B1CB5674A608F501EB531B7AA8E-2025-05-14-15-41-20","","702","","images/instructions/movie_3.png","0","",""
"","","","","","image-button-response","17","1196478","0.0-6.0-1.0-2.2","7AA92B1CB5674A608F501EB531B7AA8E","7AA92B1CB5674A608F501EB531B7AA8E","2aa1e985-fd51-4f04-a958-fe0a748ff139","93d27ed9-06b1-4109-8acc-030e53ea77d1","{""num_scrambled_semantic"":""8"",""num_scrambled_causal"":""4"",""num_scrambled_schematic"":""4"",""participantId"":""7AA92B1CB5674A608F501EB531B7AA8E"",""assignmentId"":""2aa1e985-fd51-4f04-a958-fe0a748ff139"",""projectId"":""93d27ed9-06b1-4109-8acc-030e53ea77d1""}","https://test12345.live/?num_scrambled_semantic=8&num_scrambled_causal=4&num_scrambled_schematic=4&participantId=7AA92B1CB5674A608F501EB531B7AA8E&assignmentId=2aa1e985-fd51-4f04-a958-fe0a748ff139&projectId=93d27ed9-06b1-4109-8acc-030e53ea77d1","7AA92B1CB5674A608F501EB531B7AA8E-2025-05-14-15-41-20","","null","","[]","null","",""
"","","","","","image-button-response","18","1200982","0.0-6.0-1.0-0.3","7AA92B1CB5674A608F501EB531B7AA8E","7AA92B1CB5674A608F501EB531B7AA8E","2aa1e985-fd51-4f04-a958-fe0a748ff139","93d27ed9-06b1-4109-8acc-030e53ea77d1","{""num_scrambled_semantic"":""8"",""num_scrambled_causal"":""4"",""num_scrambled_schematic"":""4"",""participantId"":""7AA92B1CB5674A608F501EB531B7AA8E"",""assignmentId"":""2aa1e985-fd51-4f04-a958-fe0a748ff139"",""projectId"":""93d27ed9-06b1-4109-8acc-030e53ea77d1""}","https://test12345.live/?num_scrambled_semantic=8&num_scrambled_causal=4&num_scrambled_schematic=4&participantId=7AA92B1CB5674A608F501EB531B7AA8E&assignmentId=2aa1e985-fd51-4f04-a958-fe0a748ff139&projectId=93d27ed9-06b1-4109-8acc-030e53ea77d1","7AA92B1CB5674A608F501EB531B7AA8E-2025-05-14-15-41-20","","null","","images/instructions/movie_4.png","null","",""
"","","","","","image-button-response","19","1201539","0.0-6.0-1.0-1.3","7AA92B1CB5674A608F501EB531B7AA8E","7AA92B1CB5674A608F501EB531B7AA8E","2aa1e985-fd51-4f04-a958-fe0a748ff139","93d27ed9-06b1-4109-8acc-030e53ea77d1","{""num_scrambled_semantic"":""8"",""num_scrambled_causal"":""4"",""num_scrambled_schematic"":""4"",""participantId"":""7AA92B1CB5674A608F501EB531B7AA8E"",""assignmentId"":""2aa1e985-fd51-4f04-a958-fe0a748ff139"",""projectId"":""93d27ed9-06b1-4109-8acc-030e53ea77d1""}","https://test12345.live/?num_scrambled_semantic=8&num_scrambled_causal=4&num_scrambled_schematic=4&participantId=7AA92B1CB5674A608F501EB531B7AA8E&assignmentId=2aa1e985-fd51-4f04-a958-fe0a748ff139&projectId=93d27ed9-06b1-4109-8acc-030e53ea77d1","7AA92B1CB5674A608F501EB531B7AA8E-2025-05-14-15-41-20","","552","","images/instructions/movie_4.png","0","",""
"","","","","","image-button-response","20","1203353","0.0-6.0-1.0-2.3","7AA92B1CB5674A608F501EB531B7AA8E","7AA92B1CB5674A608F501EB531B7AA8E","2aa1e985-fd51-4f04-a958-fe0a748ff139","93d27ed9-06b1-4109-8acc-030e53ea77d1","{""num_scrambled_semantic"":""8"",""num_scrambled_causal"":""4"",""num_scrambled_schematic"":""4"",""participantId"":""7AA92B1CB5674A608F501EB531B7AA8E"",""assignmentId"":""2aa1e985-fd51-4f04-a958-fe0a748ff139"",""projectId"":""93d27ed9-06b1-4109-8acc-030e53ea77d1""}","https://test12345.live/?num_scrambled_semantic=8&num_scrambled_causal=4&num_scrambled_schematic=4&participantId=7AA92B1CB5674A608F501EB531B7AA8E&assignmentId=2aa1e985-fd51-4f04-a958-fe0a748ff139&projectId=93d27ed9-06b1-4109-8acc-030e53ea77d1","7AA92B1CB5674A608F501EB531B7AA8E-2025-05-14-15-41-20","","null","","[]","null","",""
"","","","","","instructions","21","1209788","0.0-7.0","7AA92B1CB5674A608F501EB531B7AA8E","7AA92B1CB5674A608F501EB531B7AA8E","2aa1e985-fd51-4f04-a958-fe0a748ff139","93d27ed9-06b1-4109-8acc-030e53ea77d1","{""num_scrambled_semantic"":""8"",""num_scrambled_causal"":""4"",""num_scrambled_schematic"":""4"",""participantId"":""7AA92B1CB5674A608F501EB531B7AA8E"",""assignmentId"":""2aa1e985-fd51-4f04-a958-fe0a748ff139"",""projectId"":""93d27ed9-06b1-4109-8acc-030e53ea77d1""}","https://test12345.live/?num_scrambled_semantic=8&num_scrambled_causal=4&num_scrambled_schematic=4&participantId=7AA92B1CB5674A608F501EB531B7AA8E&assignmentId=2aa1e985-fd51-4f04-a958-fe0a748ff139&projectId=93d27ed9-06b1-4109-8acc-030e53ea77d1","7AA92B1CB5674A608F501EB531B7AA8E-2025-05-14-15-41-20","[{""page_index"":0,""viewing_time"":4671},{""page_index"":1,""viewing_time"":1763}]","6435","","","","",""
"","","","","","html-audio-response","22","1242333","0.0-8.0","7AA92B1CB5674A608F501EB531B7AA8E","7AA92B1CB5674A608F501EB531B7AA8E","2aa1e985-fd51-4f04-a958-fe0a748ff139","93d27ed9-06b1-4109-8acc-030e53ea77d1","{""num_scrambled_semantic"":""8"",""num_scrambled_causal"":""4"",""num_scrambled_schematic"":""4"",""participantId"":""7AA92B1CB5674A608F501EB531B7AA8E"",""assignmentId"":""2aa1e985-fd51-4f04-a958-fe0a748ff139"",""projectId"":""93d27ed9-06b1-4109-8acc-030e53ea77d1""}","https://test12345.live/?num_scrambled_semantic=8&num_scrambled_causal=4&num_scrambled_schematic=4&participantId=7AA92B1CB5674A608F501EB531B7AA8E&assignmentId=2aa1e985-fd51-4f04-a958-fe0a748ff139&projectId=93d27ed9-06b1-4109-8acc-030e53ea77d1","7AA92B1CB5674A608F501EB531B7AA8E-2025-05-14-15-41-20","","3489","","[""<span style=\""color: red; font-size: 24px\""> NOW RECORDING</span><p>Please say out loud all the images you saw, as many as you can remember. The images can be said in any order.</p>""]","","3",""
"","","","","","instructions","23","1244529","0.0-9.0","7AA92B1CB5674A608F501EB531B7AA8E","7AA92B1CB5674A608F501EB531B7AA8E","2aa1e985-fd51-4f04-a958-fe0a748ff139","93d27ed9-06b1-4109-8acc-030e53ea77d1","{""num_scrambled_semantic"":""8"",""num_scrambled_causal"":""4"",""num_scrambled_schematic"":""4"",""participantId"":""7AA92B1CB5674A608F501EB531B7AA8E"",""assignmentId"":""2aa1e985-fd51-4f04-a958-fe0a748ff139"",""projectId"":""93d27ed9-06b1-4109-8acc-030e53ea77d1""}","https://test12345.live/?num_scrambled_semantic=8&num_scrambled_causal=4&num_scrambled_schematic=4&participantId=7AA92B1CB5674A608F501EB531B7AA8E&assignmentId=2aa1e985-fd51-4f04-a958-fe0a748ff139&projectId=93d27ed9-06b1-4109-8acc-030e53ea77d1","7AA92B1CB5674A608F501EB531B7AA8E-2025-05-14-15-41-20","[{""page_index"":0,""viewing_time"":2186}]","2187","","","","",""
"","","","","","image-button-response","24","1250538","0.0-10.0-0.0","7AA92B1CB5674A608F501EB531B7AA8E","7AA92B1CB5674A608F501EB531B7AA8E","2aa1e985-fd51-4f04-a958-fe0a748ff139","93d27ed9-06b1-4109-8acc-030e53ea77d1","{""num_scrambled_semantic"":""8"",""num_scrambled_causal"":""4"",""num_scrambled_schematic"":""4"",""participantId"":""7AA92B1CB5674A608F501EB531B7AA8E"",""assignmentId"":""2aa1e985-fd51-4f04-a958-fe0a748ff139"",""projectId"":""93d27ed9-06b1-4109-8acc-030e53ea77d1""}","https://test12345.live/?num_scrambled_semantic=8&num_scrambled_causal=4&num_scrambled_schematic=4&participantId=7AA92B1CB5674A608F501EB531B7AA8E&assignmentId=2aa1e985-fd51-4f04-a958-fe0a748ff139&projectId=93d27ed9-06b1-4109-8acc-030e53ea77d1","7AA92B1CB5674A608F501EB531B7AA8E-2025-05-14-15-41-20","","null","","images/semantic_sequence/maintaining_a_car_semantic/maintaining_a_car_semantic_0.png","null","",""
"","","","","","image-button-response","25","1255048","0.0-10.0-1.0-0.0","7AA92B1CB5674A608F501EB531B7AA8E","7AA92B1CB5674A608F501EB531B7AA8E","2aa1e985-fd51-4f04-a958-fe0a748ff139","93d27ed9-06b1-4109-8acc-030e53ea77d1","{""num_scrambled_semantic"":""8"",""num_scrambled_causal"":""4"",""num_scrambled_schematic"":""4"",""participantId"":""7AA92B1CB5674A608F501EB531B7AA8E"",""assignmentId"":""2aa1e985-fd51-4f04-a958-fe0a748ff139"",""projectId"":""93d27ed9-06b1-4109-8acc-030e53ea77d1""}","https://test12345.live/?num_scrambled_semantic=8&num_scrambled_causal=4&num_scrambled_schematic=4&participantId=7AA92B1CB5674A608F501EB531B7AA8E&assignmentId=2aa1e985-fd51-4f04-a958-fe0a748ff139&projectId=93d27ed9-06b1-4109-8acc-030e53ea77d1","7AA92B1CB5674A608F501EB531B7AA8E-2025-05-14-15-41-20","","null","","images/semantic_sequence/maintaining_a_car_semantic/maintaining_a_car_semantic_5.png","null","",""
"","","","","","image-button-response","26","1257608","0.0-10.0-1.0-1.0","7AA92B1CB5674A608F501EB531B7AA8E","7AA92B1CB5674A608F501EB531B7AA8E","2aa1e985-fd51-4f04-a958-fe0a748ff139","93d27ed9-06b1-4109-8acc-030e53ea77d1","{""num_scrambled_semantic"":""8"",""num_scrambled_causal"":""4"",""num_scrambled_schematic"":""4"",""participantId"":""7AA92B1CB5674A608F501EB531B7AA8E"",""assignmentId"":""2aa1e985-fd51-4f04-a958-fe0a748ff139"",""projectId"":""93d27ed9-06b1-4109-8acc-030e53ea77d1""}","https://test12345.live/?num_scrambled_semantic=8&num_scrambled_causal=4&num_scrambled_schematic=4&participantId=7AA92B1CB5674A608F501EB531B7AA8E&assignmentId=2aa1e985-fd51-4f04-a958-fe0a748ff139&projectId=93d27ed9-06b1-4109-8acc-030e53ea77d1","7AA92B1CB5674A608F501EB531B7AA8E-2025-05-14-15-41-20","","2559","","images/semantic_sequence/maintaining_a_car_semantic/maintaining_a_car_semantic_5.png","0","",""
"","","","","","image-button-response","27","1259418","0.0-10.0-1.0-2.0","7AA92B1CB5674A608F501EB531B7AA8E","7AA92B1CB5674A608F501EB531B7AA8E","2aa1e985-fd51-4f04-a958-fe0a748ff139","93d27ed9-06b1-4109-8acc-030e53ea77d1","{""num_scrambled_semantic"":""8"",""num_scrambled_causal"":""4"",""num_scrambled_schematic"":""4"",""participantId"":""7AA92B1CB5674A608F501EB531B7AA8E"",""assignmentId"":""2aa1e985-fd51-4f04-a958-fe0a748ff139"",""projectId"":""93d27ed9-06b1-4109-8acc-030e53ea77d1""}","https://test12345.live/?num_scrambled_semantic=8&num_scrambled_causal=4&num_scrambled_schematic=4&participantId=7AA92B1CB5674A608F501EB531B7AA8E&assignmentId=2aa1e985-fd51-4f04-a958-fe0a748ff139&projectId=93d27ed9-06b1-4109-8acc-030e53ea77d1","7AA92B1CB5674A608F501EB531B7AA8E-2025-05-14-15-41-20","","null","","[]","null","",""
"","","","","","image-button-response","28","1263932","0.0-10.0-1.0-0.1","7AA92B1CB5674A608F501EB531B7AA8E","7AA92B1CB5674A608F501EB531B7AA8E","2aa1e985-fd51-4f04-a958-fe0a748ff139","93d27ed9-06b1-4109-8acc-030e53ea77d1","{""num_scrambled_semantic"":""8"",""num_scrambled_causal"":""4"",""num_scrambled_schematic"":""4"",""participantId"":""7AA92B1CB5674A608F501EB531B7AA8E"",""assignmentId"":""2aa1e985-fd51-4f04-a958-fe0a748ff139"",""projectId"":""93d27ed9-06b1-4109-8acc-030e53ea77d1""}","https://test12345.live/?num_scrambled_semantic=8&num_scrambled_causal=4&num_scrambled_schematic=4&participantId=7AA92B1CB5674A608F501EB531B7AA8E&assignmentId=2aa1e985-fd51-4f04-a958-fe0a748ff139&projectId=93d27ed9-06b1-4109-8acc-030e53ea77d1","7AA92B1CB5674A608F501EB531B7AA8E-2025-05-14-15-41-20","","null","","images/semantic_sequence/maintaining_a_car_semantic/maintaining_a_car_semantic_7.png","null","",""
"","","","","","image-button-response","29","1264608","0.0-10.0-1.0-1.1","7AA92B1CB5674A608F501EB531B7AA8E","7AA92B1CB5674A608F501EB531B7AA8E","2aa1e985-fd51-4f04-a958-fe0a748ff139","93d27ed9-06b1-4109-8acc-030e53ea77d1","{""num_scrambled_semantic"":""8"",""num_scrambled_causal"":""4"",""num_scrambled_schematic"":""4"",""participantId"":""7AA92B1CB5674A608F501EB531B7AA8E"",""assignmentId"":""2aa1e985-fd51-4f04-a958-fe0a748ff139"",""projectId"":""93d27ed9-06b1-4109-8acc-030e53ea77d1""}","https://test12345.live/?num_scrambled_semantic=8&num_scrambled_causal=4&num_scrambled_schematic=4&participantId=7AA92B1CB5674A608F501EB531B7AA8E&assignmentId=2aa1e985-fd51-4f04-a958-fe0a748ff139&projectId=93d27ed9-06b1-4109-8acc-030e53ea77d1","7AA92B1CB5674A608F501EB531B7AA8E-2025-05-14-15-41-20","","674","","images/semantic_sequence/maintaining_a_car_semantic/maintaining_a_car_semantic_7.png","0","",""
"","","","","","image-button-response","30","1266414","0.0-10.0-1.0-2.1","7AA92B1CB5674A608F501EB531B7AA8E","7AA92B1CB5674A608F501EB531B7AA8E","2aa1e985-fd51-4f04-a958-fe0a748ff139","93d27ed9-06b1-4109-8acc-030e53ea77d1","{""num_scrambled_semantic"":""8"",""num_scrambled_causal"":""4"",""num_scrambled_schematic"":""4"",""participantId"":""7AA92B1CB5674A608F501EB531B7AA8E"",""assignmentId"":""2aa1e985-fd51-4f04-a958-fe0a748ff139"",""projectId"":""93d27ed9-06b1-4109-8acc-030e53ea77d1""}","https://test12345.live/?num_scrambled_semantic=8&num_scrambled_causal=4&num_scrambled_schematic=4&participantId=7AA92B1CB5674A608F501EB531B7AA8E&assignmentId=2aa1e985-fd51-4f04-a958-fe0a748ff139&projectId=93d27ed9-06b1-4109-8acc-030e53ea77d1","7AA92B1CB5674A608F501EB531B7AA8E-2025-05-14-15-41-20","","null","","[]","null","",""
"","","","","","image-button-response","31","1270916","0.0-10.0-1.0-0.2","7AA92B1CB5674A608F501EB531B7AA8E","7AA92B1CB5674A608F501EB531B7AA8E","2aa1e985-fd51-4f04-a958-fe0a748ff139","93d27ed9-06b1-4109-8acc-030e53ea77d1","{""num_scrambled_semantic"":""8"",""num_scrambled_causal"":""4"",""num_scrambled_schematic"":""4"",""participantId"":""7AA92B1CB5674A608F501EB531B7AA8E"",""assignmentId"":""2aa1e985-fd51-4f04-a958-fe0a748ff139"",""projectId"":""93d27ed9-06b1-4109-8acc-030e53ea77d1""}","https://test12345.live/?num_scrambled_semantic=8&num_scrambled_causal=4&num_scrambled_schematic=4&participantId=7AA92B1CB5674A608F501EB531B7AA8E&assignmentId=2aa1e985-fd51-4f04-a958-fe0a748ff139&projectId=93d27ed9-06b1-4109-8acc-030e53ea77d1","7AA92B1CB5674A608F501EB531B7AA8E-2025-05-14-15-41-20","","null","","images/semantic_sequence/maintaining_a_car_semantic/maintaining_a_car_semantic_1.png","null","",""
"","","","","","image-button-response","32","1271638","0.0-10.0-1.0-1.2","7AA92B1CB5674A608F501EB531B7AA8E","7AA92B1CB5674A608F501EB531B7AA8E","2aa1e985-fd51-4f04-a958-fe0a748ff139","93d27ed9-06b1-4109-8acc-030e53ea77d1","{""num_scrambled_semantic"":""8"",""num_scrambled_causal"":""4"",""num_scrambled_schematic"":""4"",""participantId"":""7AA92B1CB5674A608F501EB531B7AA8E"",""assignmentId"":""2aa1e985-fd51-4f04-a958-fe0a748ff139"",""projectId"":""93d27ed9-06b1-4109-8acc-030e53ea77d1""}","https://test12345.live/?num_scrambled_semantic=8&num_scrambled_causal=4&num_scrambled_schematic=4&participantId=7AA92B1CB5674A608F501EB531B7AA8E&assignmentId=2aa1e985-fd51-4f04-a958-fe0a748ff139&projectId=93d27ed9-06b1-4109-8acc-030e53ea77d1","7AA92B1CB5674A608F501EB531B7AA8E-2025-05-14-15-41-20","","721","","images/semantic_sequence/maintaining_a_car_semantic/maintaining_a_car_semantic_1.png","0","",""
"","","","","","image-button-response","33","1273447","0.0-10.0-1.0-2.2","7AA92B1CB5674A608F501EB531B7AA8E","7AA92B1CB5674A608F501EB531B7AA8E","2aa1e985-fd51-4f04-a958-fe0a748ff139","93d27ed9-06b1-4109-8acc-030e53ea77d1","{""num_scrambled_semantic"":""8"",""num_scrambled_causal"":""4"",""num_scrambled_schematic"":""4"",""participantId"":""7AA92B1CB5674A608F501EB531B7AA8E"",""assignmentId"":""2aa1e985-fd51-4f04-a958-fe0a748ff139"",""projectId"":""93d27ed9-06b1-4109-8acc-030e53ea77d1""}","https://test12345.live/?num_scrambled_semantic=8&num_scrambled_causal=4&num_scrambled_schematic=4&participantId=7AA92B1CB5674A608F501EB531B7AA8E&assignmentId=2aa1e985-fd51-4f04-a958-fe0a748ff139&projectId=93d27ed9-06b1-4109-8acc-030e53ea77d1","7AA92B1CB5674A608F501EB531B7AA8E-2025-05-14-15-41-20","","null","","[]","null","",""
"","","","","","image-button-response","34","1277963","0.0-10.0-1.0-0.3","7AA92B1CB5674A608F501EB531B7AA8E","7AA92B1CB5674A608F501EB531B7AA8E","2aa1e985-fd51-4f04-a958-fe0a748ff139","93d27ed9-06b1-4109-8acc-030e53ea77d1","{""num_scrambled_semantic"":""8"",""num_scrambled_causal"":""4"",""num_scrambled_schematic"":""4"",""participantId"":""7AA92B1CB5674A608F501EB531B7AA8E"",""assignmentId"":""2aa1e985-fd51-4f04-a958-fe0a748ff139"",""projectId"":""93d27ed9-06b1-4109-8acc-030e53ea77d1""}","https://test12345.live/?num_scrambled_semantic=8&num_scrambled_causal=4&num_scrambled_schematic=4&participantId=7AA92B1CB5674A608F501EB531B7AA8E&assignmentId=2aa1e985-fd51-4f04-a958-fe0a748ff139&projectId=93d27ed9-06b1-4109-8acc-030e53ea77d1","7AA92B1CB5674A608F501EB531B7AA8E-2025-05-14-15-41-20","","null","","images/semantic_sequence/maintaining_a_car_semantic/maintaining_a_car_semantic_ten.png","null","",""
"","","","","","image-button-response","35","1278697","0.0-10.0-1.0-1.3","7AA92B1CB5674A608F501EB531B7AA8E","7AA92B1CB5674A608F501EB531B7AA8E","2aa1e985-fd51-4f04-a958-fe0a748ff139","93d27ed9-06b1-4109-8acc-030e53ea77d1","{""num_scrambled_semantic"":""8"",""num_scrambled_causal"":""4"",""num_scrambled_schematic"":""4"",""participantId"":""7AA92B1CB5674A608F501EB531B7AA8E"",""assignmentId"":""2aa1e985-fd51-4f04-a958-fe0a748ff139"",""projectId"":""93d27ed9-06b1-4109-8acc-030e53ea77d1""}","https://test12345.live/?num_scrambled_semantic=8&num_scrambled_causal=4&num_scrambled_schematic=4&participantId=7AA92B1CB5674A608F501EB531B7AA8E&assignmentId=2aa1e985-fd51-4f04-a958-fe0a748ff139&projectId=93d27ed9-06b1-4109-8acc-030e53ea77d1","7AA92B1CB5674A608F501EB531B7AA8E-2025-05-14-15-41-20","","733","","images/semantic_sequence/maintaining_a_car_semantic/maintaining_a_car_semantic_ten.png","0","",""
"","","","","","image-button-response","36","1280512","0.0-10.0-1.0-2.3","7AA92B1CB5674A608F501EB531B7AA8E","7AA92B1CB5674A608F501EB531B7AA8E","2aa1e985-fd51-4f04-a958-fe0a748ff139","93d27ed9-06b1-4109-8acc-030e53ea77d1","{""num_scrambled_semantic"":""8"",""num_scrambled_causal"":""4"",""num_scrambled_schematic"":""4"",""participantId"":""7AA92B1CB5674A608F501EB531B7AA8E"",""assignmentId"":""2aa1e985-fd51-4f04-a958-fe0a748ff139"",""projectId"":""93d27ed9-06b1-4109-8acc-030e53ea77d1""}","https://test12345.live/?num_scrambled_semantic=8&num_scrambled_causal=4&num_scrambled_schematic=4&participantId=7AA92B1CB5674A608F501EB531B7AA8E&assignmentId=2aa1e985-fd51-4f04-a958-fe0a748ff139&projectId=93d27ed9-06b1-4109-8acc-030e53ea77d1","7AA92B1CB5674A608F501EB531B7AA8E-2025-05-14-15-41-20","","null","","[]","null","",""
"","","","","","image-button-response","37","1285019","0.0-10.0-1.0-0.4","7AA92B1CB5674A608F501EB531B7AA8E","7AA92B1CB5674A608F501EB531B7AA8E","2aa1e985-fd51-4f04-a958-fe0a748ff139","93d27ed9-06b1-4109-8acc-030e53ea77d1","{""num_scrambled_semantic"":""8"",""num_scrambled_causal"":""4"",""num_scrambled_schematic"":""4"",""participantId"":""7AA92B1CB5674A608F501EB531B7AA8E"",""assignmentId"":""2aa1e985-fd51-4f04-a958-fe0a748ff139"",""projectId"":""93d27ed9-06b1-4109-8acc-030e53ea77d1""}","https://test12345.live/?num_scrambled_semantic=8&num_scrambled_causal=4&num_scrambled_schematic=4&participantId=7AA92B1CB5674A608F501EB531B7AA8E&assignmentId=2aa1e985-fd51-4f04-a958-fe0a748ff139&projectId=93d27ed9-06b1-4109-8acc-030e53ea77d1","7AA92B1CB5674A608F501EB531B7AA8E-2025-05-14-15-41-20","","null","","images/semantic_sequence/maintaining_a_car_semantic/maintaining_a_car_semantic_3.png","null","",""
"","","","","","image-button-response","38","1285867","0.0-10.0-1.0-1.4","7AA92B1CB5674A608F501EB531B7AA8E","7AA92B1CB5674A608F501EB531B7AA8E","2aa1e985-fd51-4f04-a958-fe0a748ff139","93d27ed9-06b1-4109-8acc-030e53ea77d1","{""num_scrambled_semantic"":""8"",""num_scrambled_causal"":""4"",""num_scrambled_schematic"":""4"",""participantId"":""7AA92B1CB5674A608F501EB531B7AA8E"",""assignmentId"":""2aa1e985-fd51-4f04-a958-fe0a748ff139"",""projectId"":""93d27ed9-06b1-4109-8acc-030e53ea77d1""}","https://test12345.live/?num_scrambled_semantic=8&num_scrambled_causal=4&num_scrambled_schematic=4&participantId=7AA92B1CB5674A608F501EB531B7AA8E&assignmentId=2aa1e985-fd51-4f04-a958-fe0a748ff139&projectId=93d27ed9-06b1-4109-8acc-030e53ea77d1","7AA92B1CB5674A608F501EB531B7AA8E-2025-05-14-15-41-20","","846","","images/semantic_sequence/maintaining_a_car_semantic/maintaining_a_car_semantic_3.png","0","",""
"","","","","","image-button-response","39","1287676","0.0-10.0-1.0-2.4","7AA92B1CB5674A608F501EB531B7AA8E","7AA92B1CB5674A608F501EB531B7AA8E","2aa1e985-fd51-4f04-a958-fe0a748ff139","93d27ed9-06b1-4109-8acc-030e53ea77d1","{""num_scrambled_semantic"":""8"",""num_scrambled_causal"":""4"",""num_scrambled_schematic"":""4"",""participantId"":""7AA92B1CB5674A608F501EB531B7AA8E"",""assignmentId"":""2aa1e985-fd51-4f04-a958-fe0a748ff139"",""projectId"":""93d27ed9-06b1-4109-8acc-030e53ea77d1""}","https://test12345.live/?num_scrambled_semantic=8&num_scrambled_causal=4&num_scrambled_schematic=4&participantId=7AA92B1CB5674A608F501EB531B7AA8E&assignmentId=2aa1e985-fd51-4f04-a958-fe0a748ff139&projectId=93d27ed9-06b1-4109-8acc-030e53ea77d1","7AA92B1CB5674A608F501EB531B7AA8E-2025-05-14-15-41-20","","null","","[]","null","",""
"","","","","","image-button-response","40","1292182","0.0-10.0-1.0-0.5","7AA92B1CB5674A608F501EB531B7AA8E","7AA92B1CB5674A608F501EB531B7AA8E","2aa1e985-fd51-4f04-a958-fe0a748ff139","93d27ed9-06b1-4109-8acc-030e53ea77d1","{""num_scrambled_semantic"":""8"",""num_scrambled_causal"":""4"",""num_scrambled_schematic"":""4"",""participantId"":""7AA92B1CB5674A608F501EB531B7AA8E"",""assignmentId"":""2aa1e985-fd51-4f04-a958-fe0a748ff139"",""projectId"":""93d27ed9-06b1-4109-8acc-030e53ea77d1""}","https://test12345.live/?num_scrambled_semantic=8&num_scrambled_causal=4&num_scrambled_schematic=4&participantId=7AA92B1CB5674A608F501EB531B7AA8E&assignmentId=2aa1e985-fd51-4f04-a958-fe0a748ff139&projectId=93d27ed9-06b1-4109-8acc-030e53ea77d1","7AA92B1CB5674A608F501EB531B7AA8E-2025-05-14-15-41-20","","null","","images/semantic_sequence/maintaining_a_car_semantic/maintaining_a_car_semantic_8.png","null","",""
"","","","","","image-button-response","41","1292893","0.0-10.0-1.0-1.5","7AA92B1CB5674A608F501EB531B7AA8E","7AA92B1CB5674A608F501EB531B7AA8E","2aa1e985-fd51-4f04-a958-fe0a748ff139","93d27ed9-06b1-4109-8acc-030e53ea77d1","{""num_scrambled_semantic"":""8"",""num_scrambled_causal"":""4"",""num_scrambled_schematic"":""4"",""participantId"":""7AA92B1CB5674A608F501EB531B7AA8E"",""assignmentId"":""2aa1e985-fd51-4f04-a958-fe0a748ff139"",""projectId"":""93d27ed9-06b1-4109-8acc-030e53ea77d1""}","https://test12345.live/?num_scrambled_semantic=8&num_scrambled_causal=4&num_scrambled_schematic=4&participantId=7AA92B1CB5674A608F501EB531B7AA8E&assignmentId=2aa1e985-fd51-4f04-a958-fe0a748ff139&projectId=93d27ed9-06b1-4109-8acc-030e53ea77d1","7AA92B1CB5674A608F501EB531B7AA8E-2025-05-14-15-41-20","","709","","images/semantic_sequence/maintaining_a_car_semantic/maintaining_a_car_semantic_8.png","0","",""
"","","","","","image-button-response","42","1294696","0.0-10.0-1.0-2.5","7AA92B1CB5674A608F501EB531B7AA8E","7AA92B1CB5674A608F501EB531B7AA8E","2aa1e985-fd51-4f04-a958-fe0a748ff139","93d27ed9-06b1-4109-8acc-030e53ea77d1","{""num_scrambled_semantic"":""8"",""num_scrambled_causal"":""4"",""num_scrambled_schematic"":""4"",""participantId"":""7AA92B1CB5674A608F501EB531B7AA8E"",""assignmentId"":""2aa1e985-fd51-4f04-a958-fe0a748ff139"",""projectId"":""93d27ed9-06b1-4109-8acc-030e53ea77d1""}","https://test12345.live/?num_scrambled_semantic=8&num_scrambled_causal=4&num_scrambled_schematic=4&participantId=7AA92B1CB5674A608F501EB531B7AA8E&assignmentId=2aa1e985-fd51-4f04-a958-fe0a748ff139&projectId=93d27ed9-06b1-4109-8acc-030e53ea77d1","7AA92B1CB5674A608F501EB531B7AA8E-2025-05-14-15-41-20","","null","","[]","null","",""
"","","","","","image-button-response","43","1299202","0.0-10.0-1.0-0.6","7AA92B1CB5674A608F501EB531B7AA8E","7AA92B1CB5674A608F501EB531B7AA8E","2aa1e985-fd51-4f04-a958-fe0a748ff139","93d27ed9-06b1-4109-8acc-030e53ea77d1","{""num_scrambled_semantic"":""8"",""num_scrambled_causal"":""4"",""num_scrambled_schematic"":""4"",""participantId"":""7AA92B1CB5674A608F501EB531B7AA8E"",""assignmentId"":""2aa1e985-fd51-4f04-a958-fe0a748ff139"",""projectId"":""93d27ed9-06b1-4109-8acc-030e53ea77d1""}","https://test12345.live/?num_scrambled_semantic=8&num_scrambled_causal=4&num_scrambled_schematic=4&participantId=7AA92B1CB5674A608F501EB531B7AA8E&assignmentId=2aa1e985-fd51-4f04-a958-fe0a748ff139&projectId=93d27ed9-06b1-4109-8acc-030e53ea77d1","7AA92B1CB5674A608F501EB531B7AA8E-2025-05-14-15-41-20","","null","","images/semantic_sequence/maintaining_a_car_semantic/maintaining_a_car_semantic_9.png","null","",""
"","","","","","image-button-response","44","1300079","0.0-10.0-1.0-1.6","7AA92B1CB5674A608F501EB531B7AA8E","7AA92B1CB5674A608F501EB531B7AA8E","2aa1e985-fd51-4f04-a958-fe0a748ff139","93d27ed9-06b1-4109-8acc-030e53ea77d1","{""num_scrambled_semantic"":""8"",""num_scrambled_causal"":""4"",""num_scrambled_schematic"":""4"",""participantId"":""7AA92B1CB5674A608F501EB531B7AA8E"",""assignmentId"":""2aa1e985-fd51-4f04-a958-fe0a748ff139"",""projectId"":""93d27ed9-06b1-4109-8acc-030e53ea77d1""}","https://test12345.live/?num_scrambled_semantic=8&num_scrambled_causal=4&num_scrambled_schematic=4&participantId=7AA92B1CB5674A608F501EB531B7AA8E&assignmentId=2aa1e985-fd51-4f04-a958-fe0a748ff139&projectId=93d27ed9-06b1-4109-8acc-030e53ea77d1","7AA92B1CB5674A608F501EB531B7AA8E-2025-05-14-15-41-20","","876","","images/semantic_sequence/maintaining_a_car_semantic/maintaining_a_car_semantic_9.png","0","",""
"","","","","","image-button-response","45","1301886","0.0-10.0-1.0-2.6","7AA92B1CB5674A608F501EB531B7AA8E","7AA92B1CB5674A608F501EB531B7AA8E","2aa1e985-fd51-4f04-a958-fe0a748ff139","93d27ed9-06b1-4109-8acc-030e53ea77d1","{""num_scrambled_semantic"":""8"",""num_scrambled_causal"":""4"",""num_scrambled_schematic"":""4"",""participantId"":""7AA92B1CB5674A608F501EB531B7AA8E"",""assignmentId"":""2aa1e985-fd51-4f04-a958-fe0a748ff139"",""projectId"":""93d27ed9-06b1-4109-8acc-030e53ea77d1""}","https://test12345.live/?num_scrambled_semantic=8&num_scrambled_causal=4&num_scrambled_schematic=4&participantId=7AA92B1CB5674A608F501EB531B7AA8E&assignmentId=2aa1e985-fd51-4f04-a958-fe0a748ff139&projectId=93d27ed9-06b1-4109-8acc-030e53ea77d1","7AA92B1CB5674A608F501EB531B7AA8E-2025-05-14-15-41-20","","null","","[]","null","",""
"","","","","","image-button-response","46","1306394","0.0-10.0-1.0-0.7","7AA92B1CB5674A608F501EB531B7AA8E","7AA92B1CB5674A608F501EB531B7AA8E","2aa1e985-fd51-4f04-a958-fe0a748ff139","93d27ed9-06b1-4109-8acc-030e53ea77d1","{""num_scrambled_semantic"":""8"",""num_scrambled_causal"":""4"",""num_scrambled_schematic"":""4"",""participantId"":""7AA92B1CB5674A608F501EB531B7AA8E"",""assignmentId"":""2aa1e985-fd51-4f04-a958-fe0a748ff139"",""projectId"":""93d27ed9-06b1-4109-8acc-030e53ea77d1""}","https://test12345.live/?num_scrambled_semantic=8&num_scrambled_causal=4&num_scrambled_schematic=4&participantId=7AA92B1CB5674A608F501EB531B7AA8E&assignmentId=2aa1e985-fd51-4f04-a958-fe0a748ff139&projectId=93d27ed9-06b1-4109-8acc-030e53ea77d1","7AA92B1CB5674A608F501EB531B7AA8E-2025-05-14-15-41-20","","null","","images/semantic_sequence/maintaining_a_car_semantic/maintaining_a_car_semantic_2.png","null","",""
"","","","","","image-button-response","47","1307150","0.0-10.0-1.0-1.7","7AA92B1CB5674A608F501EB531B7AA8E","7AA92B1CB5674A608F501EB531B7AA8E","2aa1e985-fd51-4f04-a958-fe0a748ff139","93d27ed9-06b1-4109-8acc-030e53ea77d1","{""num_scrambled_semantic"":""8"",""num_scrambled_causal"":""4"",""num_scrambled_schematic"":""4"",""participantId"":""7AA92B1CB5674A608F501EB531B7AA8E"",""assignmentId"":""2aa1e985-fd51-4f04-a958-fe0a748ff139"",""projectId"":""93d27ed9-06b1-4109-8acc-030e53ea77d1""}","https://test12345.live/?num_scrambled_semantic=8&num_scrambled_causal=4&num_scrambled_schematic=4&participantId=7AA92B1CB5674A608F501EB531B7AA8E&assignmentId=2aa1e985-fd51-4f04-a958-fe0a748ff139&projectId=93d27ed9-06b1-4109-8acc-030e53ea77d1","7AA92B1CB5674A608F501EB531B7AA8E-2025-05-14-15-41-20","","755","","images/semantic_sequence/maintaining_a_car_semantic/maintaining_a_car_semantic_2.png","0","",""
"","","","","","image-button-response","48","1308963","0.0-10.0-1.0-2.7","7AA92B1CB5674A608F501EB531B7AA8E","7AA92B1CB5674A608F501EB531B7AA8E","2aa1e985-fd51-4f04-a958-fe0a748ff139","93d27ed9-06b1-4109-8acc-030e53ea77d1","{""num_scrambled_semantic"":""8"",""num_scrambled_causal"":""4"",""num_scrambled_schematic"":""4"",""participantId"":""7AA92B1CB5674A608F501EB531B7AA8E"",""assignmentId"":""2aa1e985-fd51-4f04-a958-fe0a748ff139"",""projectId"":""93d27ed9-06b1-4109-8acc-030e53ea77d1""}","https://test12345.live/?num_scrambled_semantic=8&num_scrambled_causal=4&num_scrambled_schematic=4&participantId=7AA92B1CB5674A608F501EB531B7AA8E&assignmentId=2aa1e985-fd51-4f04-a958-fe0a748ff139&projectId=93d27ed9-06b1-4109-8acc-030e53ea77d1","7AA92B1CB5674A608F501EB531B7AA8E-2025-05-14-15-41-20","","null","","[]","null","",""
"","","","","","image-button-response","49","1313467","0.0-10.0-1.0-0.8","7AA92B1CB5674A608F501EB531B7AA8E","7AA92B1CB5674A608F501EB531B7AA8E","2aa1e985-fd51-4f04-a958-fe0a748ff139","93d27ed9-06b1-4109-8acc-030e53ea77d1","{""num_scrambled_semantic"":""8"",""num_scrambled_causal"":""4"",""num_scrambled_schematic"":""4"",""participantId"":""7AA92B1CB5674A608F501EB531B7AA8E"",""assignmentId"":""2aa1e985-fd51-4f04-a958-fe0a748ff139"",""projectId"":""93d27ed9-06b1-4109-8acc-030e53ea77d1""}","https://test12345.live/?num_scrambled_semantic=8&num_scrambled_causal=4&num_scrambled_schematic=4&participantId=7AA92B1CB5674A608F501EB531B7AA8E&assignmentId=2aa1e985-fd51-4f04-a958-fe0a748ff139&projectId=93d27ed9-06b1-4109-8acc-030e53ea77d1","7AA92B1CB5674A608F501EB531B7AA8E-2025-05-14-15-41-20","","null","","images/semantic_sequence/maintaining_a_car_semantic/maintaining_a_car_semantic_6.png","null","",""
"","","","","","image-button-response","50","1313879","0.0-10.0-1.0-1.8","7AA92B1CB5674A608F501EB531B7AA8E","7AA92B1CB5674A608F501EB531B7AA8E","2aa1e985-fd51-4f04-a958-fe0a748ff139","93d27ed9-06b1-4109-8acc-030e53ea77d1","{""num_scrambled_semantic"":""8"",""num_scrambled_causal"":""4"",""num_scrambled_schematic"":""4"",""participantId"":""7AA92B1CB5674A608F501EB531B7AA8E"",""assignmentId"":""2aa1e985-fd51-4f04-a958-fe0a748ff139"",""projectId"":""93d27ed9-06b1-4109-8acc-030e53ea77d1""}","https://test12345.live/?num_scrambled_semantic=8&num_scrambled_causal=4&num_scrambled_schematic=4&participantId=7AA92B1CB5674A608F501EB531B7AA8E&assignmentId=2aa1e985-fd51-4f04-a958-fe0a748ff139&projectId=93d27ed9-06b1-4109-8acc-030e53ea77d1","7AA92B1CB5674A608F501EB531B7AA8E-2025-05-14-15-41-20","","410","","images/semantic_sequence/maintaining_a_car_semantic/maintaining_a_car_semantic_6.png","0","",""
"","","","","","image-button-response","51","1315684","0.0-10.0-1.0-2.8","7AA92B1CB5674A608F501EB531B7AA8E","7AA92B1CB5674A608F501EB531B7AA8E","2aa1e985-fd51-4f04-a958-fe0a748ff139","93d27ed9-06b1-4109-8acc-030e53ea77d1","{""num_scrambled_semantic"":""8"",""num_scrambled_causal"":""4"",""num_scrambled_schematic"":""4"",""participantId"":""7AA92B1CB5674A608F501EB531B7AA8E"",""assignmentId"":""2aa1e985-fd51-4f04-a958-fe0a748ff139"",""projectId"":""93d27ed9-06b1-4109-8acc-030e53ea77d1""}","https://test12345.live/?num_scrambled_semantic=8&num_scrambled_causal=4&num_scrambled_schematic=4&participantId=7AA92B1CB5674A608F501EB531B7AA8E&assignmentId=2aa1e985-fd51-4f04-a958-fe0a748ff139&projectId=93d27ed9-06b1-4109-8acc-030e53ea77d1","7AA92B1CB5674A608F501EB531B7AA8E-2025-05-14-15-41-20","","null","","[]","null","",""
"","","","","","image-button-response","52","1320197","0.0-10.0-1.0-0.9","7AA92B1CB5674A608F501EB531B7AA8E","7AA92B1CB5674A608F501EB531B7AA8E","2aa1e985-fd51-4f04-a958-fe0a748ff139","93d27ed9-06b1-4109-8acc-030e53ea77d1","{""num_scrambled_semantic"":""8"",""num_scrambled_causal"":""4"",""num_scrambled_schematic"":""4"",""participantId"":""7AA92B1CB5674A608F501EB531B7AA8E"",""assignmentId"":""2aa1e985-fd51-4f04-a958-fe0a748ff139"",""projectId"":""93d27ed9-06b1-4109-8acc-030e53ea77d1""}","https://test12345.live/?num_scrambled_semantic=8&num_scrambled_causal=4&num_scrambled_schematic=4&participantId=7AA92B1CB5674A608F501EB531B7AA8E&assignmentId=2aa1e985-fd51-4f04-a958-fe0a748ff139&projectId=93d27ed9-06b1-4109-8acc-030e53ea77d1","7AA92B1CB5674A608F501EB531B7AA8E-2025-05-14-15-41-20","","null","","images/semantic_sequence/maintaining_a_car_semantic/maintaining_a_car_semantic_4.png","null","",""
"","","","","","image-button-response","53","1320701","0.0-10.0-1.0-1.9","7AA92B1CB5674A608F501EB531B7AA8E","7AA92B1CB5674A608F501EB531B7AA8E","2aa1e985-fd51-4f04-a958-fe0a748ff139","93d27ed9-06b1-4109-8acc-030e53ea77d1","{""num_scrambled_semantic"":""8"",""num_scrambled_causal"":""4"",""num_scrambled_schematic"":""4"",""participantId"":""7AA92B1CB5674A608F501EB531B7AA8E"",""assignmentId"":""2aa1e985-fd51-4f04-a958-fe0a748ff139"",""projectId"":""93d27ed9-06b1-4109-8acc-030e53ea77d1""}","https://test12345.live/?num_scrambled_semantic=8&num_scrambled_causal=4&num_scrambled_schematic=4&participantId=7AA92B1CB5674A608F501EB531B7AA8E&assignmentId=2aa1e985-fd51-4f04-a958-fe0a748ff139&projectId=93d27ed9-06b1-4109-8acc-030e53ea77d1","7AA92B1CB5674A608F501EB531B7AA8E-2025-05-14-15-41-20","","503","","images/semantic_sequence/maintaining_a_car_semantic/maintaining_a_car_semantic_4.png","0","",""
"","","","","","image-button-response","54","1322516","0.0-10.0-1.0-2.9","7AA92B1CB5674A608F501EB531B7AA8E","7AA92B1CB5674A608F501EB531B7AA8E","2aa1e985-fd51-4f04-a958-fe0a748ff139","93d27ed9-06b1-4109-8acc-030e53ea77d1","{""num_scrambled_semantic"":""8"",""num_scrambled_causal"":""4"",""num_scrambled_schematic"":""4"",""participantId"":""7AA92B1CB5674A608F501EB531B7AA8E"",""assignmentId"":""2aa1e985-fd51-4f04-a958-fe0a748ff139"",""projectId"":""93d27ed9-06b1-4109-8acc-030e53ea77d1""}","https://test12345.live/?num_scrambled_semantic=8&num_scrambled_causal=4&num_scrambled_schematic=4&participantId=7AA92B1CB5674A608F501EB531B7AA8E&assignmentId=2aa1e985-fd51-4f04-a958-fe0a748ff139&projectId=93d27ed9-06b1-4109-8acc-030e53ea77d1","7AA92B1CB5674A608F501EB531B7AA8E-2025-05-14-15-41-20","","null","","[]","null","",""
"","","","","","html-audio-response","55","1363597","0.0-11.0","7AA92B1CB5674A608F501EB531B7AA8E","7AA92B1CB5674A608F501EB531B7AA8E","2aa1e985-fd51-4f04-a958-fe0a748ff139","93d27ed9-06b1-4109-8acc-030e53ea77d1","{""num_scrambled_semantic"":""8"",""num_scrambled_causal"":""4"",""num_scrambled_schematic"":""4"",""participantId"":""7AA92B1CB5674A608F501EB531B7AA8E"",""assignmentId"":""2aa1e985-fd51-4f04-a958-fe0a748ff139"",""projectId"":""93d27ed9-06b1-4109-8acc-030e53ea77d1""}","https://test12345.live/?num_scrambled_semantic=8&num_scrambled_causal=4&num_scrambled_schematic=4&participantId=7AA92B1CB5674A608F501EB531B7AA8E&assignmentId=2aa1e985-fd51-4f04-a958-fe0a748ff139&projectId=93d27ed9-06b1-4109-8acc-030e53ea77d1","7AA92B1CB5674A608F501EB531B7AA8E-2025-05-14-15-41-20","","29176","","[""<span style=\""color: red; font-size: 24px\""> NOW RECORDING</span><p>Please say out loud all the images you saw, as many as you can remember. The images can be said in any order.</p>""]","","1","maintaining_a_car_semantic"
"","","","","","image-button-response","56","1369622","0.0-12.0-0.0","7AA92B1CB5674A608F501EB531B7AA8E","7AA92B1CB5674A608F501EB531B7AA8E","2aa1e985-fd51-4f04-a958-fe0a748ff139","93d27ed9-06b1-4109-8acc-030e53ea77d1","{""num_scrambled_semantic"":""8"",""num_scrambled_causal"":""4"",""num_scrambled_schematic"":""4"",""participantId"":""7AA92B1CB5674A608F501EB531B7AA8E"",""assignmentId"":""2aa1e985-fd51-4f04-a958-fe0a748ff139"",""projectId"":""93d27ed9-06b1-4109-8acc-030e53ea77d1""}","https://test12345.live/?num_scrambled_semantic=8&num_scrambled_causal=4&num_scrambled_schematic=4&participantId=7AA92B1CB5674A608F501EB531B7AA8E&assignmentId=2aa1e985-fd51-4f04-a958-fe0a748ff139&projectId=93d27ed9-06b1-4109-8acc-030e53ea77d1","7AA92B1CB5674A608F501EB531B7AA8E-2025-05-14-15-41-20","","null","","images/causal_sequence/coin_causal/coin_causal_0.png","null","",""
"","","","","","image-button-response","57","1374135","0.0-12.0-1.0-0.0","7AA92B1CB5674A608F501EB531B7AA8E","7AA92B1CB5674A608F501EB531B7AA8E","2aa1e985-fd51-4f04-a958-fe0a748ff139","93d27ed9-06b1-4109-8acc-030e53ea77d1","{""num_scrambled_semantic"":""8"",""num_scrambled_causal"":""4"",""num_scrambled_schematic"":""4"",""participantId"":""7AA92B1CB5674A608F501EB531B7AA8E"",""assignmentId"":""2aa1e985-fd51-4f04-a958-fe0a748ff139"",""projectId"":""93d27ed9-06b1-4109-8acc-030e53ea77d1""}","https://test12345.live/?num_scrambled_semantic=8&num_scrambled_causal=4&num_scrambled_schematic=4&participantId=7AA92B1CB5674A608F501EB531B7AA8E&assignmentId=2aa1e985-fd51-4f04-a958-fe0a748ff139&projectId=93d27ed9-06b1-4109-8acc-030e53ea77d1","7AA92B1CB5674A608F501EB531B7AA8E-2025-05-14-15-41-20","","null","","images/causal_sequence/coin_causal/coin_causal_2.png","null","",""
"","","","","","image-button-response","58","1378137","0.0-12.0-1.0-1.0","7AA92B1CB5674A608F501EB531B7AA8E","7AA92B1CB5674A608F501EB531B7AA8E","2aa1e985-fd51-4f04-a958-fe0a748ff139","93d27ed9-06b1-4109-8acc-030e53ea77d1","{""num_scrambled_semantic"":""8"",""num_scrambled_causal"":""4"",""num_scrambled_schematic"":""4"",""participantId"":""7AA92B1CB5674A608F501EB531B7AA8E"",""assignmentId"":""2aa1e985-fd51-4f04-a958-fe0a748ff139"",""projectId"":""93d27ed9-06b1-4109-8acc-030e53ea77d1""}","https://test12345.live/?num_scrambled_semantic=8&num_scrambled_causal=4&num_scrambled_schematic=4&participantId=7AA92B1CB5674A608F501EB531B7AA8E&assignmentId=2aa1e985-fd51-4f04-a958-fe0a748ff139&projectId=93d27ed9-06b1-4109-8acc-030e53ea77d1","7AA92B1CB5674A608F501EB531B7AA8E-2025-05-14-15-41-20","","null","","images/causal_sequence/coin_causal/coin_causal_2.png","null","",""
"","","","","","image-button-response","59","1379945","0.0-12.0-1.0-2.0","7AA92B1CB5674A608F501EB531B7AA8E","7AA92B1CB5674A608F501EB531B7AA8E","2aa1e985-fd51-4f04-a958-fe0a748ff139","93d27ed9-06b1-4109-8acc-030e53ea77d1","{""num_scrambled_semantic"":""8"",""num_scrambled_causal"":""4"",""num_scrambled_schematic"":""4"",""participantId"":""7AA92B1CB5674A608F501EB531B7AA8E"",""assignmentId"":""2aa1e985-fd51-4f04-a958-fe0a748ff139"",""projectId"":""93d27ed9-06b1-4109-8acc-030e53ea77d1""}","https://test12345.live/?num_scrambled_semantic=8&num_scrambled_causal=4&num_scrambled_schematic=4&participantId=7AA92B1CB5674A608F501EB531B7AA8E&assignmentId=2aa1e985-fd51-4f04-a958-fe0a748ff139&projectId=93d27ed9-06b1-4109-8acc-030e53ea77d1","7AA92B1CB5674A608F501EB531B7AA8E-2025-05-14-15-41-20","","null","","[]","null","",""
"","","","","","image-button-response","60","1384461","0.0-12.0-1.0-0.1","7AA92B1CB5674A608F501EB531B7AA8E","7AA92B1CB5674A608F501EB531B7AA8E","2aa1e985-fd51-4f04-a958-fe0a748ff139","93d27ed9-06b1-4109-8acc-030e53ea77d1","{""num_scrambled_semantic"":""8"",""num_scrambled_causal"":""4"",""num_scrambled_schematic"":""4"",""participantId"":""7AA92B1CB5674A608F501EB531B7AA8E"",""assignmentId"":""2aa1e985-fd51-4f04-a958-fe0a748ff139"",""projectId"":""93d27ed9-06b1-4109-8acc-030e53ea77d1""}","https://test12345.live/?num_scrambled_semantic=8&num_scrambled_causal=4&num_scrambled_schematic=4&participantId=7AA92B1CB5674A608F501EB531B7AA8E&assignmentId=2aa1e985-fd51-4f04-a958-fe0a748ff139&projectId=93d27ed9-06b1-4109-8acc-030e53ea77d1","7AA92B1CB5674A608F501EB531B7AA8E-2025-05-14-15-41-20","","null","","images/causal_sequence/coin_causal/coin_causal_3.png","null","",""
"","","","","","image-button-response","61","1385482","0.0-12.0-1.0-1.1","7AA92B1CB5674A608F501EB531B7AA8E","7AA92B1CB5674A608F501EB531B7AA8E","2aa1e985-fd51-4f04-a958-fe0a748ff139","93d27ed9-06b1-4109-8acc-030e53ea77d1","{""num_scrambled_semantic"":""8"",""num_scrambled_causal"":""4"",""num_scrambled_schematic"":""4"",""participantId"":""7AA92B1CB5674A608F501EB531B7AA8E"",""assignmentId"":""2aa1e985-fd51-4f04-a958-fe0a748ff139"",""projectId"":""93d27ed9-06b1-4109-8acc-030e53ea77d1""}","https://test12345.live/?num_scrambled_semantic=8&num_scrambled_causal=4&num_scrambled_schematic=4&participantId=7AA92B1CB5674A608F501EB531B7AA8E&assignmentId=2aa1e985-fd51-4f04-a958-fe0a748ff139&projectId=93d27ed9-06b1-4109-8acc-030e53ea77d1","7AA92B1CB5674A608F501EB531B7AA8E-2025-05-14-15-41-20","","1019","","images/causal_sequence/coin_causal/coin_causal_3.png","0","",""
"","","","","","image-button-response","62","1387287","0.0-12.0-1.0-2.1","7AA92B1CB5674A608F501EB531B7AA8E","7AA92B1CB5674A608F501EB531B7AA8E","2aa1e985-fd51-4f04-a958-fe0a748ff139","93d27ed9-06b1-4109-8acc-030e53ea77d1","{""num_scrambled_semantic"":""8"",""num_scrambled_causal"":""4"",""num_scrambled_schematic"":""4"",""participantId"":""7AA92B1CB5674A608F501EB531B7AA8E"",""assignmentId"":""2aa1e985-fd51-4f04-a958-fe0a748ff139"",""projectId"":""93d27ed9-06b1-4109-8acc-030e53ea77d1""}","https://test12345.live/?num_scrambled_semantic=8&num_scrambled_causal=4&num_scrambled_schematic=4&participantId=7AA92B1CB5674A608F501EB531B7AA8E&assignmentId=2aa1e985-fd51-4f04-a958-fe0a748ff139&projectId=93d27ed9-06b1-4109-8acc-030e53ea77d1","7AA92B1CB5674A608F501EB531B7AA8E-2025-05-14-15-41-20","","null","","[]","null","",""
"","","","","","image-button-response","63","1391797","0.0-12.0-1.0-0.2","7AA92B1CB5674A608F501EB531B7AA8E","7AA92B1CB5674A608F501EB531B7AA8E","2aa1e985-fd51-4f04-a958-fe0a748ff139","93d27ed9-06b1-4109-8acc-030e53ea77d1","{""num_scrambled_semantic"":""8"",""num_scrambled_causal"":""4"",""num_scrambled_schematic"":""4"",""participantId"":""7AA92B1CB5674A608F501EB531B7AA8E"",""assignmentId"":""2aa1e985-fd51-4f04-a958-fe0a748ff139"",""projectId"":""93d27ed9-06b1-4109-8acc-030e53ea77d1""}","https://test12345.live/?num_scrambled_semantic=8&num_scrambled_causal=4&num_scrambled_schematic=4&participantId=7AA92B1CB5674A608F501EB531B7AA8E&assignmentId=2aa1e985-fd51-4f04-a958-fe0a748ff139&projectId=93d27ed9-06b1-4109-8acc-030e53ea77d1","7AA92B1CB5674A608F501EB531B7AA8E-2025-05-14-15-41-20","","null","","images/causal_sequence/coin_causal/coin_causal_5.png","null","",""
"","","","","","image-button-response","64","1392560","0.0-12.0-1.0-1.2","7AA92B1CB5674A608F501EB531B7AA8E","7AA92B1CB5674A608F501EB531B7AA8E","2aa1e985-fd51-4f04-a958-fe0a748ff139","93d27ed9-06b1-4109-8acc-030e53ea77d1","{""num_scrambled_semantic"":""8"",""num_scrambled_causal"":""4"",""num_scrambled_schematic"":""4"",""participantId"":""7AA92B1CB5674A608F501EB531B7AA8E"",""assignmentId"":""2aa1e985-fd51-4f04-a958-fe0a748ff139"",""projectId"":""93d27ed9-06b1-4109-8acc-030e53ea77d1""}","https://test12345.live/?num_scrambled_semantic=8&num_scrambled_causal=4&num_scrambled_schematic=4&participantId=7AA92B1CB5674A608F501EB531B7AA8E&assignmentId=2aa1e985-fd51-4f04-a958-fe0a748ff139&projectId=93d27ed9-06b1-4109-8acc-030e53ea77d1","7AA92B1CB5674A608F501EB531B7AA8E-2025-05-14-15-41-20","","761","","images/causal_sequence/coin_causal/coin_causal_5.png","0","",""
"","","","","","image-button-response","65","1394370","0.0-12.0-1.0-2.2","7AA92B1CB5674A608F501EB531B7AA8E","7AA92B1CB5674A608F501EB531B7AA8E","2aa1e985-fd51-4f04-a958-fe0a748ff139","93d27ed9-06b1-4109-8acc-030e53ea77d1","{""num_scrambled_semantic"":""8"",""num_scrambled_causal"":""4"",""num_scrambled_schematic"":""4"",""participantId"":""7AA92B1CB5674A608F501EB531B7AA8E"",""assignmentId"":""2aa1e985-fd51-4f04-a958-fe0a748ff139"",""projectId"":""93d27ed9-06b1-4109-8acc-030e53ea77d1""}","https://test12345.live/?num_scrambled_semantic=8&num_scrambled_causal=4&num_scrambled_schematic=4&participantId=7AA92B1CB5674A608F501EB531B7AA8E&assignmentId=2aa1e985-fd51-4f04-a958-fe0a748ff139&projectId=93d27ed9-06b1-4109-8acc-030e53ea77d1","7AA92B1CB5674A608F501EB531B7AA8E-2025-05-14-15-41-20","","null","","[]","null","",""
"","","","","","image-button-response","66","1398886","0.0-12.0-1.0-0.3","7AA92B1CB5674A608F501EB531B7AA8E","7AA92B1CB5674A608F501EB531B7AA8E","2aa1e985-fd51-4f04-a958-fe0a748ff139","93d27ed9-06b1-4109-8acc-030e53ea77d1","{""num_scrambled_semantic"":""8"",""num_scrambled_causal"":""4"",""num_scrambled_schematic"":""4"",""participantId"":""7AA92B1CB5674A608F501EB531B7AA8E"",""assignmentId"":""2aa1e985-fd51-4f04-a958-fe0a748ff139"",""projectId"":""93d27ed9-06b1-4109-8acc-030e53ea77d1""}","https://test12345.live/?num_scrambled_semantic=8&num_scrambled_causal=4&num_scrambled_schematic=4&participantId=7AA92B1CB5674A608F501EB531B7AA8E&assignmentId=2aa1e985-fd51-4f04-a958-fe0a748ff139&projectId=93d27ed9-06b1-4109-8acc-030e53ea77d1","7AA92B1CB5674A608F501EB531B7AA8E-2025-05-14-15-41-20","","null","","images/causal_sequence/coin_causal/coin_causal_9.png","null","",""
"","","","","","image-button-response","67","1399594","0.0-12.0-1.0-1.3","7AA92B1CB5674A608F501EB531B7AA8E","7AA92B1CB5674A608F501EB531B7AA8E","2aa1e985-fd51-4f04-a958-fe0a748ff139","93d27ed9-06b1-4109-8acc-030e53ea77d1","{""num_scrambled_semantic"":""8"",""num_scrambled_causal"":""4"",""num_scrambled_schematic"":""4"",""participantId"":""7AA92B1CB5674A608F501EB531B7AA8E"",""assignmentId"":""2aa1e985-fd51-4f04-a958-fe0a748ff139"",""projectId"":""93d27ed9-06b1-4109-8acc-030e53ea77d1""}","https://test12345.live/?num_scrambled_semantic=8&num_scrambled_causal=4&num_scrambled_schematic=4&participantId=7AA92B1CB5674A608F501EB531B7AA8E&assignmentId=2aa1e985-fd51-4f04-a958-fe0a748ff139&projectId=93d27ed9-06b1-4109-8acc-030e53ea77d1","7AA92B1CB5674A608F501EB531B7AA8E-2025-05-14-15-41-20","","707","","images/causal_sequence/coin_causal/coin_causal_9.png","0","",""
"","","","","","image-button-response","68","1401403","0.0-12.0-1.0-2.3","7AA92B1CB5674A608F501EB531B7AA8E","7AA92B1CB5674A608F501EB531B7AA8E","2aa1e985-fd51-4f04-a958-fe0a748ff139","93d27ed9-06b1-4109-8acc-030e53ea77d1","{""num_scrambled_semantic"":""8"",""num_scrambled_causal"":""4"",""num_scrambled_schematic"":""4"",""participantId"":""7AA92B1CB5674A608F501EB531B7AA8E"",""assignmentId"":""2aa1e985-fd51-4f04-a958-fe0a748ff139"",""projectId"":""93d27ed9-06b1-4109-8acc-030e53ea77d1""}","https://test12345.live/?num_scrambled_semantic=8&num_scrambled_causal=4&num_scrambled_schematic=4&participantId=7AA92B1CB5674A608F501EB531B7AA8E&assignmentId=2aa1e985-fd51-4f04-a958-fe0a748ff139&projectId=93d27ed9-06b1-4109-8acc-030e53ea77d1","7AA92B1CB5674A608F501EB531B7AA8E-2025-05-14-15-41-20","","null","","[]","null","",""
"","","","","","image-button-response","69","1405913","0.0-12.0-1.0-0.4","7AA92B1CB5674A608F501EB531B7AA8E","7AA92B1CB5674A608F501EB531B7AA8E","2aa1e985-fd51-4f04-a958-fe0a748ff139","93d27ed9-06b1-4109-8acc-030e53ea77d1","{""num_scrambled_semantic"":""8"",""num_scrambled_causal"":""4"",""num_scrambled_schematic"":""4"",""participantId"":""7AA92B1CB5674A608F501EB531B7AA8E"",""assignmentId"":""2aa1e985-fd51-4f04-a958-fe0a748ff139"",""projectId"":""93d27ed9-06b1-4109-8acc-030e53ea77d1""}","https://test12345.live/?num_scrambled_semantic=8&num_scrambled_causal=4&num_scrambled_schematic=4&participantId=7AA92B1CB5674A608F501EB531B7AA8E&assignmentId=2aa1e985-fd51-4f04-a958-fe0a748ff139&projectId=93d27ed9-06b1-4109-8acc-030e53ea77d1","7AA92B1CB5674A608F501EB531B7AA8E-2025-05-14-15-41-20","","null","","images/causal_sequence/coin_causal/coin_causal_6.png","null","",""
"","","","","","image-button-response","70","1406503","0.0-12.0-1.0-1.4","7AA92B1CB5674A608F501EB531B7AA8E","7AA92B1CB5674A608F501EB531B7AA8E","2aa1e985-fd51-4f04-a958-fe0a748ff139","93d27ed9-06b1-4109-8acc-030e53ea77d1","{""num_scrambled_semantic"":""8"",""num_scrambled_causal"":""4"",""num_scrambled_schematic"":""4"",""participantId"":""7AA92B1CB5674A608F501EB531B7AA8E"",""assignmentId"":""2aa1e985-fd51-4f04-a958-fe0a748ff139"",""projectId"":""93d27ed9-06b1-4109-8acc-030e53ea77d1""}","https://test12345.live/?num_scrambled_semantic=8&num_scrambled_causal=4&num_scrambled_schematic=4&participantId=7AA92B1CB5674A608F501EB531B7AA8E&assignmentId=2aa1e985-fd51-4f04-a958-fe0a748ff139&projectId=93d27ed9-06b1-4109-8acc-030e53ea77d1","7AA92B1CB5674A608F501EB531B7AA8E-2025-05-14-15-41-20","","589","","images/causal_sequence/coin_causal/coin_causal_6.png","0","",""
"","","","","","image-button-response","71","1408310","0.0-12.0-1.0-2.4","7AA92B1CB5674A608F501EB531B7AA8E","7AA92B1CB5674A608F501EB531B7AA8E","2aa1e985-fd51-4f04-a958-fe0a748ff139","93d27ed9-06b1-4109-8acc-030e53ea77d1","{""num_scrambled_semantic"":""8"",""num_scrambled_causal"":""4"",""num_scrambled_schematic"":""4"",""participantId"":""7AA92B1CB5674A608F501EB531B7AA8E"",""assignmentId"":""2aa1e985-fd51-4f04-a958-fe0a748ff139"",""projectId"":""93d27ed9-06b1-4109-8acc-030e53ea77d1""}","https://test12345.live/?num_scrambled_semantic=8&num_scrambled_causal=4&num_scrambled_schematic=4&participantId=7AA92B1CB5674A608F501EB531B7AA8E&assignmentId=2aa1e985-fd51-4f04-a958-fe0a748ff139&projectId=93d27ed9-06b1-4109-8acc-030e53ea77d1","7AA92B1CB5674A608F501EB531B7AA8E-2025-05-14-15-41-20","","null","","[]","null","",""
"","","","","","image-button-response","72","1412822","0.0-12.0-1.0-0.5","7AA92B1CB5674A608F501EB531B7AA8E","7AA92B1CB5674A608F501EB531B7AA8E","2aa1e985-fd51-4f04-a958-fe0a748ff139","93d27ed9-06b1-4109-8acc-030e53ea77d1","{""num_scrambled_semantic"":""8"",""num_scrambled_causal"":""4"",""num_scrambled_schematic"":""4"",""participantId"":""7AA92B1CB5674A608F501EB531B7AA8E"",""assignmentId"":""2aa1e985-fd51-4f04-a958-fe0a748ff139"",""projectId"":""93d27ed9-06b1-4109-8acc-030e53ea77d1""}","https://test12345.live/?num_scrambled_semantic=8&num_scrambled_causal=4&num_scrambled_schematic=4&participantId=7AA92B1CB5674A608F501EB531B7AA8E&assignmentId=2aa1e985-fd51-4f04-a958-fe0a748ff139&projectId=93d27ed9-06b1-4109-8acc-030e53ea77d1","7AA92B1CB5674A608F501EB531B7AA8E-2025-05-14-15-41-20","","null","","images/causal_sequence/coin_causal/coin_causal_1.png","null","",""
"","","","","","image-button-response","73","1413817","0.0-12.0-1.0-1.5","7AA92B1CB5674A608F501EB531B7AA8E","7AA92B1CB5674A608F501EB531B7AA8E","2aa1e985-fd51-4f04-a958-fe0a748ff139","93d27ed9-06b1-4109-8acc-030e53ea77d1","{""num_scrambled_semantic"":""8"",""num_scrambled_causal"":""4"",""num_scrambled_schematic"":""4"",""participantId"":""7AA92B1CB5674A608F501EB531B7AA8E"",""assignmentId"":""2aa1e985-fd51-4f04-a958-fe0a748ff139"",""projectId"":""93d27ed9-06b1-4109-8acc-030e53ea77d1""}","https://test12345.live/?num_scrambled_semantic=8&num_scrambled_causal=4&num_scrambled_schematic=4&participantId=7AA92B1CB5674A608F501EB531B7AA8E&assignmentId=2aa1e985-fd51-4f04-a958-fe0a748ff139&projectId=93d27ed9-06b1-4109-8acc-030e53ea77d1","7AA92B1CB5674A608F501EB531B7AA8E-2025-05-14-15-41-20","","994","","images/causal_sequence/coin_causal/coin_causal_1.png","0","",""
"","","","","","image-button-response","74","1415620","0.0-12.0-1.0-2.5","7AA92B1CB5674A608F501EB531B7AA8E","7AA92B1CB5674A608F501EB531B7AA8E","2aa1e985-fd51-4f04-a958-fe0a748ff139","93d27ed9-06b1-4109-8acc-030e53ea77d1","{""num_scrambled_semantic"":""8"",""num_scrambled_causal"":""4"",""num_scrambled_schematic"":""4"",""participantId"":""7AA92B1CB5674A608F501EB531B7AA8E"",""assignmentId"":""2aa1e985-fd51-4f04-a958-fe0a748ff139"",""projectId"":""93d27ed9-06b1-4109-8acc-030e53ea77d1""}","https://test12345.live/?num_scrambled_semantic=8&num_scrambled_causal=4&num_scrambled_schematic=4&participantId=7AA92B1CB5674A608F501EB531B7AA8E&assignmentId=2aa1e985-fd51-4f04-a958-fe0a748ff139&projectId=93d27ed9-06b1-4109-8acc-030e53ea77d1","7AA92B1CB5674A608F501EB531B7AA8E-2025-05-14-15-41-20","","null","","[]","null","",""
"","","","","","image-button-response","75","1420131","0.0-12.0-1.0-0.6","7AA92B1CB5674A608F501EB531B7AA8E","7AA92B1CB5674A608F501EB531B7AA8E","2aa1e985-fd51-4f04-a958-fe0a748ff139","93d27ed9-06b1-4109-8acc-030e53ea77d1","{""num_scrambled_semantic"":""8"",""num_scrambled_causal"":""4"",""num_scrambled_schematic"":""4"",""participantId"":""7AA92B1CB5674A608F501EB531B7AA8E"",""assignmentId"":""2aa1e985-fd51-4f04-a958-fe0a748ff139"",""projectId"":""93d27ed9-06b1-4109-8acc-030e53ea77d1""}","https://test12345.live/?num_scrambled_semantic=8&num_scrambled_causal=4&num_scrambled_schematic=4&participantId=7AA92B1CB5674A608F501EB531B7AA8E&assignmentId=2aa1e985-fd51-4f04-a958-fe0a748ff139&projectId=93d27ed9-06b1-4109-8acc-030e53ea77d1","7AA92B1CB5674A608F501EB531B7AA8E-2025-05-14-15-41-20","","null","","images/causal_sequence/coin_causal/coin_causal_4.png","null","",""
"","","","","","image-button-response","76","1420677","0.0-12.0-1.0-1.6","7AA92B1CB5674A608F501EB531B7AA8E","7AA92B1CB5674A608F501EB531B7AA8E","2aa1e985-fd51-4f04-a958-fe0a748ff139","93d27ed9-06b1-4109-8acc-030e53ea77d1","{""num_scrambled_semantic"":""8"",""num_scrambled_causal"":""4"",""num_scrambled_schematic"":""4"",""participantId"":""7AA92B1CB5674A608F501EB531B7AA8E"",""assignmentId"":""2aa1e985-fd51-4f04-a958-fe0a748ff139"",""projectId"":""93d27ed9-06b1-4109-8acc-030e53ea77d1""}","https://test12345.live/?num_scrambled_semantic=8&num_scrambled_causal=4&num_scrambled_schematic=4&participantId=7AA92B1CB5674A608F501EB531B7AA8E&assignmentId=2aa1e985-fd51-4f04-a958-fe0a748ff139&projectId=93d27ed9-06b1-4109-8acc-030e53ea77d1","7AA92B1CB5674A608F501EB531B7AA8E-2025-05-14-15-41-20","","541","","images/causal_sequence/coin_causal/coin_causal_4.png","0","",""
"","","","","","image-button-response","77","1422494","0.0-12.0-1.0-2.6","7AA92B1CB5674A608F501EB531B7AA8E","7AA92B1CB5674A608F501EB531B7AA8E","2aa1e985-fd51-4f04-a958-fe0a748ff139","93d27ed9-06b1-4109-8acc-030e53ea77d1","{""num_scrambled_semantic"":""8"",""num_scrambled_causal"":""4"",""num_scrambled_schematic"":""4"",""participantId"":""7AA92B1CB5674A608F501EB531B7AA8E"",""assignmentId"":""2aa1e985-fd51-4f04-a958-fe0a748ff139"",""projectId"":""93d27ed9-06b1-4109-8acc-030e53ea77d1""}","https://test12345.live/?num_scrambled_semantic=8&num_scrambled_causal=4&num_scrambled_schematic=4&participantId=7AA92B1CB5674A608F501EB531B7AA8E&assignmentId=2aa1e985-fd51-4f04-a958-fe0a748ff139&projectId=93d27ed9-06b1-4109-8acc-030e53ea77d1","7AA92B1CB5674A608F501EB531B7AA8E-2025-05-14-15-41-20","","null","","[]","null","",""
"","","","","","image-button-response","78","1426997","0.0-12.0-1.0-0.7","7AA92B1CB5674A608F501EB531B7AA8E","7AA92B1CB5674A608F501EB531B7AA8E","2aa1e985-fd51-4f04-a958-fe0a748ff139","93d27ed9-06b1-4109-8acc-030e53ea77d1","{""num_scrambled_semantic"":""8"",""num_scrambled_causal"":""4"",""num_scrambled_schematic"":""4"",""participantId"":""7AA92B1CB5674A608F501EB531B7AA8E"",""assignmentId"":""2aa1e985-fd51-4f04-a958-fe0a748ff139"",""projectId"":""93d27ed9-06b1-4109-8acc-030e53ea77d1""}","https://test12345.live/?num_scrambled_semantic=8&num_scrambled_causal=4&num_scrambled_schematic=4&participantId=7AA92B1CB5674A608F501EB531B7AA8E&assignmentId=2aa1e985-fd51-4f04-a958-fe0a748ff139&projectId=93d27ed9-06b1-4109-8acc-030e53ea77d1","7AA92B1CB5674A608F501EB531B7AA8E-2025-05-14-15-41-20","","null","","images/causal_sequence/coin_causal/coin_causal_8.png","null","",""
"","","","","","image-button-response","79","1427551","0.0-12.0-1.0-1.7","7AA92B1CB5674A608F501EB531B7AA8E","7AA92B1CB5674A608F501EB531B7AA8E","2aa1e985-fd51-4f04-a958-fe0a748ff139","93d27ed9-06b1-4109-8acc-030e53ea77d1","{""num_scrambled_semantic"":""8"",""num_scrambled_causal"":""4"",""num_scrambled_schematic"":""4"",""participantId"":""7AA92B1CB5674A608F501EB531B7AA8E"",""assignmentId"":""2aa1e985-fd51-4f04-a958-fe0a748ff139"",""projectId"":""93d27ed9-06b1-4109-8acc-030e53ea77d1""}","https://test12345.live/?num_scrambled_semantic=8&num_scrambled_causal=4&num_scrambled_schematic=4&participantId=7AA92B1CB5674A608F501EB531B7AA8E&assignmentId=2aa1e985-fd51-4f04-a958-fe0a748ff139&projectId=93d27ed9-06b1-4109-8acc-030e53ea77d1","7AA92B1CB5674A608F501EB531B7AA8E-2025-05-14-15-41-20","","553","","images/causal_sequence/coin_causal/coin_causal_8.png","0","",""
"","","","","","image-button-response","80","1429367","0.0-12.0-1.0-2.7","7AA92B1CB5674A608F501EB531B7AA8E","7AA92B1CB5674A608F501EB531B7AA8E","2aa1e985-fd51-4f04-a958-fe0a748ff139","93d27ed9-06b1-4109-8acc-030e53ea77d1","{""num_scrambled_semantic"":""8"",""num_scrambled_causal"":""4"",""num_scrambled_schematic"":""4"",""participantId"":""7AA92B1CB5674A608F501EB531B7AA8E"",""assignmentId"":""2aa1e985-fd51-4f04-a958-fe0a748ff139"",""projectId"":""93d27ed9-06b1-4109-8acc-030e53ea77d1""}","https://test12345.live/?num_scrambled_semantic=8&num_scrambled_causal=4&num_scrambled_schematic=4&participantId=7AA92B1CB5674A608F501EB531B7AA8E&assignmentId=2aa1e985-fd51-4f04-a958-fe0a748ff139&projectId=93d27ed9-06b1-4109-8acc-030e53ea77d1","7AA92B1CB5674A608F501EB531B7AA8E-2025-05-14-15-41-20","","null","","[]","null","",""
"","","","","","image-button-response","81","1433873","0.0-12.0-1.0-0.8","7AA92B1CB5674A608F501EB531B7AA8E","7AA92B1CB5674A608F501EB531B7AA8E","2aa1e985-fd51-4f04-a958-fe0a748ff139","93d27ed9-06b1-4109-8acc-030e53ea77d1","{""num_scrambled_semantic"":""8"",""num_scrambled_causal"":""4"",""num_scrambled_schematic"":""4"",""participantId"":""7AA92B1CB5674A608F501EB531B7AA8E"",""assignmentId"":""2aa1e985-fd51-4f04-a958-fe0a748ff139"",""projectId"":""93d27ed9-06b1-4109-8acc-030e53ea77d1""}","https://test12345.live/?num_scrambled_semantic=8&num_scrambled_causal=4&num_scrambled_schematic=4&participantId=7AA92B1CB5674A608F501EB531B7AA8E&assignmentId=2aa1e985-fd51-4f04-a958-fe0a748ff139&projectId=93d27ed9-06b1-4109-8acc-030e53ea77d1","7AA92B1CB5674A608F501EB531B7AA8E-2025-05-14-15-41-20","","null","","images/causal_sequence/coin_causal/coin_causal_7.png","null","",""
"","","","","","image-button-response","82","1434561","0.0-12.0-1.0-1.8","7AA92B1CB5674A608F501EB531B7AA8E","7AA92B1CB5674A608F501EB531B7AA8E","2aa1e985-fd51-4f04-a958-fe0a748ff139","93d27ed9-06b1-4109-8acc-030e53ea77d1","{""num_scrambled_semantic"":""8"",""num_scrambled_causal"":""4"",""num_scrambled_schematic"":""4"",""participantId"":""7AA92B1CB5674A608F501EB531B7AA8E"",""assignmentId"":""2aa1e985-fd51-4f04-a958-fe0a748ff139"",""projectId"":""93d27ed9-06b1-4109-8acc-030e53ea77d1""}","https://test12345.live/?num_scrambled_semantic=8&num_scrambled_causal=4&num_scrambled_schematic=4&participantId=7AA92B1CB5674A608F501EB531B7AA8E&assignmentId=2aa1e985-fd51-4f04-a958-fe0a748ff139&projectId=93d27ed9-06b1-4109-8acc-030e53ea77d1","7AA92B1CB5674A608F501EB531B7AA8E-2025-05-14-15-41-20","","687","","images/causal_sequence/coin_causal/coin_causal_7.png","1","",""
"","","","","","image-button-response","83","1436375","0.0-12.0-1.0-2.8","7AA92B1CB5674A608F501EB531B7AA8E","7AA92B1CB5674A608F501EB531B7AA8E","2aa1e985-fd51-4f04-a958-fe0a748ff139","93d27ed9-06b1-4109-8acc-030e53ea77d1","{""num_scrambled_semantic"":""8"",""num_scrambled_causal"":""4"",""num_scrambled_schematic"":""4"",""participantId"":""7AA92B1CB5674A608F501EB531B7AA8E"",""assignmentId"":""2aa1e985-fd51-4f04-a958-fe0a748ff139"",""projectId"":""93d27ed9-06b1-4109-8acc-030e53ea77d1""}","https://test12345.live/?num_scrambled_semantic=8&num_scrambled_causal=4&num_scrambled_schematic=4&participantId=7AA92B1CB5674A608F501EB531B7AA8E&assignmentId=2aa1e985-fd51-4f04-a958-fe0a748ff139&projectId=93d27ed9-06b1-4109-8acc-030e53ea77d1","7AA92B1CB5674A608F501EB531B7AA8E-2025-05-14-15-41-20","","null","","[]","null","",""
"","","","","","image-button-response","84","1440883","0.0-12.0-1.0-0.9","7AA92B1CB5674A608F501EB531B7AA8E","7AA92B1CB5674A608F501EB531B7AA8E","2aa1e985-fd51-4f04-a958-fe0a748ff139","93d27ed9-06b1-4109-8acc-030e53ea77d1","{""num_scrambled_semantic"":""8"",""num_scrambled_causal"":""4"",""num_scrambled_schematic"":""4"",""participantId"":""7AA92B1CB5674A608F501EB531B7AA8E"",""assignmentId"":""2aa1e985-fd51-4f04-a958-fe0a748ff139"",""projectId"":""93d27ed9-06b1-4109-8acc-030e53ea77d1""}","https://test12345.live/?num_scrambled_semantic=8&num_scrambled_causal=4&num_scrambled_schematic=4&participantId=7AA92B1CB5674A608F501EB531B7AA8E&assignmentId=2aa1e985-fd51-4f04-a958-fe0a748ff139&projectId=93d27ed9-06b1-4109-8acc-030e53ea77d1","7AA92B1CB5674A608F501EB531B7AA8E-2025-05-14-15-41-20","","null","","images/causal_sequence/coin_causal/coin_causal_ten.png","null","",""
"","","","","","image-button-response","85","1442264","0.0-12.0-1.0-1.9","7AA92B1CB5674A608F501EB531B7AA8E","7AA92B1CB5674A608F501EB531B7AA8E","2aa1e985-fd51-4f04-a958-fe0a748ff139","93d27ed9-06b1-4109-8acc-030e53ea77d1","{""num_scrambled_semantic"":""8"",""num_scrambled_causal"":""4"",""num_scrambled_schematic"":""4"",""participantId"":""7AA92B1CB5674A608F501EB531B7AA8E"",""assignmentId"":""2aa1e985-fd51-4f04-a958-fe0a748ff139"",""projectId"":""93d27ed9-06b1-4109-8acc-030e53ea77d1""}","https://test12345.live/?num_scrambled_semantic=8&num_scrambled_causal=4&num_scrambled_schematic=4&participantId=7AA92B1CB5674A608F501EB531B7AA8E&assignmentId=2aa1e985-fd51-4f04-a958-fe0a748ff139&projectId=93d27ed9-06b1-4109-8acc-030e53ea77d1","7AA92B1CB5674A608F501EB531B7AA8E-2025-05-14-15-41-20","","1380","","images/causal_sequence/coin_causal/coin_causal_ten.png","0","",""
"","","","","","image-button-response","86","1444079","0.0-12.0-1.0-2.9","7AA92B1CB5674A608F501EB531B7AA8E","7AA92B1CB5674A608F501EB531B7AA8E","2aa1e985-fd51-4f04-a958-fe0a748ff139","93d27ed9-06b1-4109-8acc-030e53ea77d1","{""num_scrambled_semantic"":""8"",""num_scrambled_causal"":""4"",""num_scrambled_schematic"":""4"",""participantId"":""7AA92B1CB5674A608F501EB531B7AA8E"",""assignmentId"":""2aa1e985-fd51-4f04-a958-fe0a748ff139"",""projectId"":""93d27ed9-06b1-4109-8acc-030e53ea77d1""}","https://test12345.live/?num_scrambled_semantic=8&num_scrambled_causal=4&num_scrambled_schematic=4&participantId=7AA92B1CB5674A608F501EB531B7AA8E&assignmentId=2aa1e985-fd51-4f04-a958-fe0a748ff139&projectId=93d27ed9-06b1-4109-8acc-030e53ea77d1","7AA92B1CB5674A608F501EB531B7AA8E-2025-05-14-15-41-20","","null","","[]","null","",""
"","","","","","html-audio-response","87","1478788","0.0-13.0","7AA92B1CB5674A608F501EB531B7AA8E","7AA92B1CB5674A608F501EB531B7AA8E","2aa1e985-fd51-4f04-a958-fe0a748ff139","93d27ed9-06b1-4109-8acc-030e53ea77d1","{""num_scrambled_semantic"":""8"",""num_scrambled_causal"":""4"",""num_scrambled_schematic"":""4"",""participantId"":""7AA92B1CB5674A608F501EB531B7AA8E"",""assignmentId"":""2aa1e985-fd51-4f04-a958-fe0a748ff139"",""projectId"":""93d27ed9-06b1-4109-8acc-030e53ea77d1""}","https://test12345.live/?num_scrambled_semantic=8&num_scrambled_causal=4&num_scrambled_schematic=4&participantId=7AA92B1CB5674A608F501EB531B7AA8E&assignmentId=2aa1e985-fd51-4f04-a958-fe0a748ff139&projectId=93d27ed9-06b1-4109-8acc-030e53ea77d1","7AA92B1CB5674A608F501EB531B7AA8E-2025-05-14-15-41-20","","33237","","[""<span style=\""color: red; font-size: 24px\""> NOW RECORDING</span><p>Please say out loud all the images you saw, as many as you can remember. The images can be said in any order.</p>""]","","1","coin_causal"
"","","","","","image-button-response","88","1484797","0.0-14.0-0.0","7AA92B1CB5674A608F501EB531B7AA8E","7AA92B1CB5674A608F501EB531B7AA8E","2aa1e985-fd51-4f04-a958-fe0a748ff139","93d27ed9-06b1-4109-8acc-030e53ea77d1","{""num_scrambled_semantic"":""8"",""num_scrambled_causal"":""4"",""num_scrambled_schematic"":""4"",""participantId"":""7AA92B1CB5674A608F501EB531B7AA8E"",""assignmentId"":""2aa1e985-fd51-4f04-a958-fe0a748ff139"",""projectId"":""93d27ed9-06b1-4109-8acc-030e53ea77d1""}","https://test12345.live/?num_scrambled_semantic=8&num_scrambled_causal=4&num_scrambled_schematic=4&participantId=7AA92B1CB5674A608F501EB531B7AA8E&assignmentId=2aa1e985-fd51-4f04-a958-fe0a748ff139&projectId=93d27ed9-06b1-4109-8acc-030e53ea77d1","7AA92B1CB5674A608F501EB531B7AA8E-2025-05-14-15-41-20","","null","","images/causal_sequence/package_causal/package_causal_0.png","null","",""
"","","","","","image-button-response","89","1489310","0.0-14.0-1.0-0.0","7AA92B1CB5674A608F501EB531B7AA8E","7AA92B1CB5674A608F501EB531B7AA8E","2aa1e985-fd51-4f04-a958-fe0a748ff139","93d27ed9-06b1-4109-8acc-030e53ea77d1","{""num_scrambled_semantic"":""8"",""num_scrambled_causal"":""4"",""num_scrambled_schematic"":""4"",""participantId"":""7AA92B1CB5674A608F501EB531B7AA8E"",""assignmentId"":""2aa1e985-fd51-4f04-a958-fe0a748ff139"",""projectId"":""93d27ed9-06b1-4109-8acc-030e53ea77d1""}","https://test12345.live/?num_scrambled_semantic=8&num_scrambled_causal=4&num_scrambled_schematic=4&participantId=7AA92B1CB5674A608F501EB531B7AA8E&assignmentId=2aa1e985-fd51-4f04-a958-fe0a748ff139&projectId=93d27ed9-06b1-4109-8acc-030e53ea77d1","7AA92B1CB5674A608F501EB531B7AA8E-2025-05-14-15-41-20","","null","","images/causal_sequence/package_causal/package_causal_5.png","null","",""
"","","","","","image-button-response","90","1489890","0.0-14.0-1.0-1.0","7AA92B1CB5674A608F501EB531B7AA8E","7AA92B1CB5674A608F501EB531B7AA8E","2aa1e985-fd51-4f04-a958-fe0a748ff139","93d27ed9-06b1-4109-8acc-030e53ea77d1","{""num_scrambled_semantic"":""8"",""num_scrambled_causal"":""4"",""num_scrambled_schematic"":""4"",""participantId"":""7AA92B1CB5674A608F501EB531B7AA8E"",""assignmentId"":""2aa1e985-fd51-4f04-a958-fe0a748ff139"",""projectId"":""93d27ed9-06b1-4109-8acc-030e53ea77d1""}","https://test12345.live/?num_scrambled_semantic=8&num_scrambled_causal=4&num_scrambled_schematic=4&participantId=7AA92B1CB5674A608F501EB531B7AA8E&assignmentId=2aa1e985-fd51-4f04-a958-fe0a748ff139&projectId=93d27ed9-06b1-4109-8acc-030e53ea77d1","7AA92B1CB5674A608F501EB531B7AA8E-2025-05-14-15-41-20","","579","","images/causal_sequence/package_causal/package_causal_5.png","0","",""
"","","","","","image-button-response","91","1491691","0.0-14.0-1.0-2.0","7AA92B1CB5674A608F501EB531B7AA8E","7AA92B1CB5674A608F501EB531B7AA8E","2aa1e985-fd51-4f04-a958-fe0a748ff139","93d27ed9-06b1-4109-8acc-030e53ea77d1","{""num_scrambled_semantic"":""8"",""num_scrambled_causal"":""4"",""num_scrambled_schematic"":""4"",""participantId"":""7AA92B1CB5674A608F501EB531B7AA8E"",""assignmentId"":""2aa1e985-fd51-4f04-a958-fe0a748ff139"",""projectId"":""93d27ed9-06b1-4109-8acc-030e53ea77d1""}","https://test12345.live/?num_scrambled_semantic=8&num_scrambled_causal=4&num_scrambled_schematic=4&participantId=7AA92B1CB5674A608F501EB531B7AA8E&assignmentId=2aa1e985-fd51-4f04-a958-fe0a748ff139&projectId=93d27ed9-06b1-4109-8acc-030e53ea77d1","7AA92B1CB5674A608F501EB531B7AA8E-2025-05-14-15-41-20","","null","","[]","null","",""
"","","","","","image-button-response","92","1496205","0.0-14.0-1.0-0.1","7AA92B1CB5674A608F501EB531B7AA8E","7AA92B1CB5674A608F501EB531B7AA8E","2aa1e985-fd51-4f04-a958-fe0a748ff139","93d27ed9-06b1-4109-8acc-030e53ea77d1","{""num_scrambled_semantic"":""8"",""num_scrambled_causal"":""4"",""num_scrambled_schematic"":""4"",""participantId"":""7AA92B1CB5674A608F501EB531B7AA8E"",""assignmentId"":""2aa1e985-fd51-4f04-a958-fe0a748ff139"",""projectId"":""93d27ed9-06b1-4109-8acc-030e53ea77d1""}","https://test12345.live/?num_scrambled_semantic=8&num_scrambled_causal=4&num_scrambled_schematic=4&participantId=7AA92B1CB5674A608F501EB531B7AA8E&assignmentId=2aa1e985-fd51-4f04-a958-fe0a748ff139&projectId=93d27ed9-06b1-4109-8acc-030e53ea77d1","7AA92B1CB5674A608F501EB531B7AA8E-2025-05-14-15-41-20","","null","","images/causal_sequence/package_causal/package_causal_1.png","null","",""
"","","","","","image-button-response","93","1497594","0.0-14.0-1.0-1.1","7AA92B1CB5674A608F501EB531B7AA8E","7AA92B1CB5674A608F501EB531B7AA8E","2aa1e985-fd51-4f04-a958-fe0a748ff139","93d27ed9-06b1-4109-8acc-030e53ea77d1","{""num_scrambled_semantic"":""8"",""num_scrambled_causal"":""4"",""num_scrambled_schematic"":""4"",""participantId"":""7AA92B1CB5674A608F501EB531B7AA8E"",""assignmentId"":""2aa1e985-fd51-4f04-a958-fe0a748ff139"",""projectId"":""93d27ed9-06b1-4109-8acc-030e53ea77d1""}","https://test12345.live/?num_scrambled_semantic=8&num_scrambled_causal=4&num_scrambled_schematic=4&participantId=7AA92B1CB5674A608F501EB531B7AA8E&assignmentId=2aa1e985-fd51-4f04-a958-fe0a748ff139&projectId=93d27ed9-06b1-4109-8acc-030e53ea77d1","7AA92B1CB5674A608F501EB531B7AA8E-2025-05-14-15-41-20","","1388","","images/causal_sequence/package_causal/package_causal_1.png","0","",""
"","","","","","image-button-response","94","1499402","0.0-14.0-1.0-2.1","7AA92B1CB5674A608F501EB531B7AA8E","7AA92B1CB5674A608F501EB531B7AA8E","2aa1e985-fd51-4f04-a958-fe0a748ff139","93d27ed9-06b1-4109-8acc-030e53ea77d1","{""num_scrambled_semantic"":""8"",""num_scrambled_causal"":""4"",""num_scrambled_schematic"":""4"",""participantId"":""7AA92B1CB5674A608F501EB531B7AA8E"",""assignmentId"":""2aa1e985-fd51-4f04-a958-fe0a748ff139"",""projectId"":""93d27ed9-06b1-4109-8acc-030e53ea77d1""}","https://test12345.live/?num_scrambled_semantic=8&num_scrambled_causal=4&num_scrambled_schematic=4&participantId=7AA92B1CB5674A608F501EB531B7AA8E&assignmentId=2aa1e985-fd51-4f04-a958-fe0a748ff139&projectId=93d27ed9-06b1-4109-8acc-030e53ea77d1","7AA92B1CB5674A608F501EB531B7AA8E-2025-05-14-15-41-20","","null","","[]","null","",""
"","","","","","image-button-response","95","1503906","0.0-14.0-1.0-0.2","7AA92B1CB5674A608F501EB531B7AA8E","7AA92B1CB5674A608F501EB531B7AA8E","2aa1e985-fd51-4f04-a958-fe0a748ff139","93d27ed9-06b1-4109-8acc-030e53ea77d1","{""num_scrambled_semantic"":""8"",""num_scrambled_causal"":""4"",""num_scrambled_schematic"":""4"",""participantId"":""7AA92B1CB5674A608F501EB531B7AA8E"",""assignmentId"":""2aa1e985-fd51-4f04-a958-fe0a748ff139"",""projectId"":""93d27ed9-06b1-4109-8acc-030e53ea77d1""}","https://test12345.live/?num_scrambled_semantic=8&num_scrambled_causal=4&num_scrambled_schematic=4&participantId=7AA92B1CB5674A608F501EB531B7AA8E&assignmentId=2aa1e985-fd51-4f04-a958-fe0a748ff139&projectId=93d27ed9-06b1-4109-8acc-030e53ea77d1","7AA92B1CB5674A608F501EB531B7AA8E-2025-05-14-15-41-20","","null","","images/causal_sequence/package_causal/package_causal_2.png","null","",""
"","","","","","image-button-response","96","1504739","0.0-14.0-1.0-1.2","7AA92B1CB5674A608F501EB531B7AA8E","7AA92B1CB5674A608F501EB531B7AA8E","2aa1e985-fd51-4f04-a958-fe0a748ff139","93d27ed9-06b1-4109-8acc-030e53ea77d1","{""num_scrambled_semantic"":""8"",""num_scrambled_causal"":""4"",""num_scrambled_schematic"":""4"",""participantId"":""7AA92B1CB5674A608F501EB531B7AA8E"",""assignmentId"":""2aa1e985-fd51-4f04-a958-fe0a748ff139"",""projectId"":""93d27ed9-06b1-4109-8acc-030e53ea77d1""}","https://test12345.live/?num_scrambled_semantic=8&num_scrambled_causal=4&num_scrambled_schematic=4&participantId=7AA92B1CB5674A608F501EB531B7AA8E&assignmentId=2aa1e985-fd51-4f04-a958-fe0a748ff139&projectId=93d27ed9-06b1-4109-8acc-030e53ea77d1","7AA92B1CB5674A608F501EB531B7AA8E-2025-05-14-15-41-20","","833","","images/causal_sequence/package_causal/package_causal_2.png","0","",""
"","","","","","image-button-response","97","1506541","0.0-14.0-1.0-2.2","7AA92B1CB5674A608F501EB531B7AA8E","7AA92B1CB5674A608F501EB531B7AA8E","2aa1e985-fd51-4f04-a958-fe0a748ff139","93d27ed9-06b1-4109-8acc-030e53ea77d1","{""num_scrambled_semantic"":""8"",""num_scrambled_causal"":""4"",""num_scrambled_schematic"":""4"",""participantId"":""7AA92B1CB5674A608F501EB531B7AA8E"",""assignmentId"":""2aa1e985-fd51-4f04-a958-fe0a748ff139"",""projectId"":""93d27ed9-06b1-4109-8acc-030e53ea77d1""}","https://test12345.live/?num_scrambled_semantic=8&num_scrambled_causal=4&num_scrambled_schematic=4&participantId=7AA92B1CB5674A608F501EB531B7AA8E&assignmentId=2aa1e985-fd51-4f04-a958-fe0a748ff139&projectId=93d27ed9-06b1-4109-8acc-030e53ea77d1","7AA92B1CB5674A608F501EB531B7AA8E-2025-05-14-15-41-20","","null","","[]","null","",""
"","","","","","image-button-response","98","1511057","0.0-14.0-1.0-0.3","7AA92B1CB5674A608F501EB531B7AA8E","7AA92B1CB5674A608F501EB531B7AA8E","2aa1e985-fd51-4f04-a958-fe0a748ff139","93d27ed9-06b1-4109-8acc-030e53ea77d1","{""num_scrambled_semantic"":""8"",""num_scrambled_causal"":""4"",""num_scrambled_schematic"":""4"",""participantId"":""7AA92B1CB5674A608F501EB531B7AA8E"",""assignmentId"":""2aa1e985-fd51-4f04-a958-fe0a748ff139"",""projectId"":""93d27ed9-06b1-4109-8acc-030e53ea77d1""}","https://test12345.live/?num_scrambled_semantic=8&num_scrambled_causal=4&num_scrambled_schematic=4&participantId=7AA92B1CB5674A608F501EB531B7AA8E&assignmentId=2aa1e985-fd51-4f04-a958-fe0a748ff139&projectId=93d27ed9-06b1-4109-8acc-030e53ea77d1","7AA92B1CB5674A608F501EB531B7AA8E-2025-05-14-15-41-20","","null","","images/causal_sequence/package_causal/package_causal_ten.png","null","",""
"","","","","","image-button-response","99","1511497","0.0-14.0-1.0-1.3","7AA92B1CB5674A608F501EB531B7AA8E","7AA92B1CB5674A608F501EB531B7AA8E","2aa1e985-fd51-4f04-a958-fe0a748ff139","93d27ed9-06b1-4109-8acc-030e53ea77d1","{""num_scrambled_semantic"":""8"",""num_scrambled_causal"":""4"",""num_scrambled_schematic"":""4"",""participantId"":""7AA92B1CB5674A608F501EB531B7AA8E"",""assignmentId"":""2aa1e985-fd51-4f04-a958-fe0a748ff139"",""projectId"":""93d27ed9-06b1-4109-8acc-030e53ea77d1""}","https://test12345.live/?num_scrambled_semantic=8&num_scrambled_causal=4&num_scrambled_schematic=4&participantId=7AA92B1CB5674A608F501EB531B7AA8E&assignmentId=2aa1e985-fd51-4f04-a958-fe0a748ff139&projectId=93d27ed9-06b1-4109-8acc-030e53ea77d1","7AA92B1CB5674A608F501EB531B7AA8E-2025-05-14-15-41-20","","439","","images/causal_sequence/package_causal/package_causal_ten.png","0","",""
"","","","","","image-button-response","100","1513309","0.0-14.0-1.0-2.3","7AA92B1CB5674A608F501EB531B7AA8E","7AA92B1CB5674A608F501EB531B7AA8E","2aa1e985-fd51-4f04-a958-fe0a748ff139","93d27ed9-06b1-4109-8acc-030e53ea77d1","{""num_scrambled_semantic"":""8"",""num_scrambled_causal"":""4"",""num_scrambled_schematic"":""4"",""participantId"":""7AA92B1CB5674A608F501EB531B7AA8E"",""assignmentId"":""2aa1e985-fd51-4f04-a958-fe0a748ff139"",""projectId"":""93d27ed9-06b1-4109-8acc-030e53ea77d1""}","https://test12345.live/?num_scrambled_semantic=8&num_scrambled_causal=4&num_scrambled_schematic=4&participantId=7AA92B1CB5674A608F501EB531B7AA8E&assignmentId=2aa1e985-fd51-4f04-a958-fe0a748ff139&projectId=93d27ed9-06b1-4109-8acc-030e53ea77d1","7AA92B1CB5674A608F501EB531B7AA8E-2025-05-14-15-41-20","","null","","[]","null","",""
"","","","","","image-button-response","101","1517824","0.0-14.0-1.0-0.4","7AA92B1CB5674A608F501EB531B7AA8E","7AA92B1CB5674A608F501EB531B7AA8E","2aa1e985-fd51-4f04-a958-fe0a748ff139","93d27ed9-06b1-4109-8acc-030e53ea77d1","{""num_scrambled_semantic"":""8"",""num_scrambled_causal"":""4"",""num_scrambled_schematic"":""4"",""participantId"":""7AA92B1CB5674A608F501EB531B7AA8E"",""assignmentId"":""2aa1e985-fd51-4f04-a958-fe0a748ff139"",""projectId"":""93d27ed9-06b1-4109-8acc-030e53ea77d1""}","https://test12345.live/?num_scrambled_semantic=8&num_scrambled_causal=4&num_scrambled_schematic=4&participantId=7AA92B1CB5674A608F501EB531B7AA8E&assignmentId=2aa1e985-fd51-4f04-a958-fe0a748ff139&projectId=93d27ed9-06b1-4109-8acc-030e53ea77d1","7AA92B1CB5674A608F501EB531B7AA8E-2025-05-14-15-41-20","","null","","images/causal_sequence/package_causal/package_causal_4.png","null","",""
"","","","","","image-button-response","102","1518684","0.0-14.0-1.0-1.4","7AA92B1CB5674A608F501EB531B7AA8E","7AA92B1CB5674A608F501EB531B7AA8E","2aa1e985-fd51-4f04-a958-fe0a748ff139","93d27ed9-06b1-4109-8acc-030e53ea77d1","{""num_scrambled_semantic"":""8"",""num_scrambled_causal"":""4"",""num_scrambled_schematic"":""4"",""participantId"":""7AA92B1CB5674A608F501EB531B7AA8E"",""assignmentId"":""2aa1e985-fd51-4f04-a958-fe0a748ff139"",""projectId"":""93d27ed9-06b1-4109-8acc-030e53ea77d1""}","https://test12345.live/?num_scrambled_semantic=8&num_scrambled_causal=4&num_scrambled_schematic=4&participantId=7AA92B1CB5674A608F501EB531B7AA8E&assignmentId=2aa1e985-fd51-4f04-a958-fe0a748ff139&projectId=93d27ed9-06b1-4109-8acc-030e53ea77d1","7AA92B1CB5674A608F501EB531B7AA8E-2025-05-14-15-41-20","","858","","images/causal_sequence/package_causal/package_causal_4.png","1","",""
"","","","","","image-button-response","103","1520496","0.0-14.0-1.0-2.4","7AA92B1CB5674A608F501EB531B7AA8E","7AA92B1CB5674A608F501EB531B7AA8E","2aa1e985-fd51-4f04-a958-fe0a748ff139","93d27ed9-06b1-4109-8acc-030e53ea77d1","{""num_scrambled_semantic"":""8"",""num_scrambled_causal"":""4"",""num_scrambled_schematic"":""4"",""participantId"":""7AA92B1CB5674A608F501EB531B7AA8E"",""assignmentId"":""2aa1e985-fd51-4f04-a958-fe0a748ff139"",""projectId"":""93d27ed9-06b1-4109-8acc-030e53ea77d1""}","https://test12345.live/?num_scrambled_semantic=8&num_scrambled_causal=4&num_scrambled_schematic=4&participantId=7AA92B1CB5674A608F501EB531B7AA8E&assignmentId=2aa1e985-fd51-4f04-a958-fe0a748ff139&projectId=93d27ed9-06b1-4109-8acc-030e53ea77d1","7AA92B1CB5674A608F501EB531B7AA8E-2025-05-14-15-41-20","","null","","[]","null","",""
"","","","","","image-button-response","104","1525002","0.0-14.0-1.0-0.5","7AA92B1CB5674A608F501EB531B7AA8E","7AA92B1CB5674A608F501EB531B7AA8E","2aa1e985-fd51-4f04-a958-fe0a748ff139","93d27ed9-06b1-4109-8acc-030e53ea77d1","{""num_scrambled_semantic"":""8"",""num_scrambled_causal"":""4"",""num_scrambled_schematic"":""4"",""participantId"":""7AA92B1CB5674A608F501EB531B7AA8E"",""assignmentId"":""2aa1e985-fd51-4f04-a958-fe0a748ff139"",""projectId"":""93d27ed9-06b1-4109-8acc-030e53ea77d1""}","https://test12345.live/?num_scrambled_semantic=8&num_scrambled_causal=4&num_scrambled_schematic=4&participantId=7AA92B1CB5674A608F501EB531B7AA8E&assignmentId=2aa1e985-fd51-4f04-a958-fe0a748ff139&projectId=93d27ed9-06b1-4109-8acc-030e53ea77d1","7AA92B1CB5674A608F501EB531B7AA8E-2025-05-14-15-41-20","","null","","images/causal_sequence/package_causal/package_causal_7.png","null","",""
"","","","","","image-button-response","105","1525688","0.0-14.0-1.0-1.5","7AA92B1CB5674A608F501EB531B7AA8E","7AA92B1CB5674A608F501EB531B7AA8E","2aa1e985-fd51-4f04-a958-fe0a748ff139","93d27ed9-06b1-4109-8acc-030e53ea77d1","{""num_scrambled_semantic"":""8"",""num_scrambled_causal"":""4"",""num_scrambled_schematic"":""4"",""participantId"":""7AA92B1CB5674A608F501EB531B7AA8E"",""assignmentId"":""2aa1e985-fd51-4f04-a958-fe0a748ff139"",""projectId"":""93d27ed9-06b1-4109-8acc-030e53ea77d1""}","https://test12345.live/?num_scrambled_semantic=8&num_scrambled_causal=4&num_scrambled_schematic=4&participantId=7AA92B1CB5674A608F501EB531B7AA8E&assignmentId=2aa1e985-fd51-4f04-a958-fe0a748ff139&projectId=93d27ed9-06b1-4109-8acc-030e53ea77d1","7AA92B1CB5674A608F501EB531B7AA8E-2025-05-14-15-41-20","","684","","images/causal_sequence/package_causal/package_causal_7.png","0","",""
"","","","","","image-button-response","106","1527495","0.0-14.0-1.0-2.5","7AA92B1CB5674A608F501EB531B7AA8E","7AA92B1CB5674A608F501EB531B7AA8E","2aa1e985-fd51-4f04-a958-fe0a748ff139","93d27ed9-06b1-4109-8acc-030e53ea77d1","{""num_scrambled_semantic"":""8"",""num_scrambled_causal"":""4"",""num_scrambled_schematic"":""4"",""participantId"":""7AA92B1CB5674A608F501EB531B7AA8E"",""assignmentId"":""2aa1e985-fd51-4f04-a958-fe0a748ff139"",""projectId"":""93d27ed9-06b1-4109-8acc-030e53ea77d1""}","https://test12345.live/?num_scrambled_semantic=8&num_scrambled_causal=4&num_scrambled_schematic=4&participantId=7AA92B1CB5674A608F501EB531B7AA8E&assignmentId=2aa1e985-fd51-4f04-a958-fe0a748ff139&projectId=93d27ed9-06b1-4109-8acc-030e53ea77d1","7AA92B1CB5674A608F501EB531B7AA8E-2025-05-14-15-41-20","","null","","[]","null","",""
"","","","","","image-button-response","107","1532010","0.0-14.0-1.0-0.6","7AA92B1CB5674A608F501EB531B7AA8E","7AA92B1CB5674A608F501EB531B7AA8E","2aa1e985-fd51-4f04-a958-fe0a748ff139","93d27ed9-06b1-4109-8acc-030e53ea77d1","{""num_scrambled_semantic"":""8"",""num_scrambled_causal"":""4"",""num_scrambled_schematic"":""4"",""participantId"":""7AA92B1CB5674A608F501EB531B7AA8E"",""assignmentId"":""2aa1e985-fd51-4f04-a958-fe0a748ff139"",""projectId"":""93d27ed9-06b1-4109-8acc-030e53ea77d1""}","https://test12345.live/?num_scrambled_semantic=8&num_scrambled_causal=4&num_scrambled_schematic=4&participantId=7AA92B1CB5674A608F501EB531B7AA8E&assignmentId=2aa1e985-fd51-4f04-a958-fe0a748ff139&projectId=93d27ed9-06b1-4109-8acc-030e53ea77d1","7AA92B1CB5674A608F501EB531B7AA8E-2025-05-14-15-41-20","","null","","images/causal_sequence/package_causal/package_causal_6.png","null","",""
"","","","","","image-button-response","108","1532652","0.0-14.0-1.0-1.6","7AA92B1CB5674A608F501EB531B7AA8E","7AA92B1CB5674A608F501EB531B7AA8E","2aa1e985-fd51-4f04-a958-fe0a748ff139","93d27ed9-06b1-4109-8acc-030e53ea77d1","{""num_scrambled_semantic"":""8"",""num_scrambled_causal"":""4"",""num_scrambled_schematic"":""4"",""participantId"":""7AA92B1CB5674A608F501EB531B7AA8E"",""assignmentId"":""2aa1e985-fd51-4f04-a958-fe0a748ff139"",""projectId"":""93d27ed9-06b1-4109-8acc-030e53ea77d1""}","https://test12345.live/?num_scrambled_semantic=8&num_scrambled_causal=4&num_scrambled_schematic=4&participantId=7AA92B1CB5674A608F501EB531B7AA8E&assignmentId=2aa1e985-fd51-4f04-a958-fe0a748ff139&projectId=93d27ed9-06b1-4109-8acc-030e53ea77d1","7AA92B1CB5674A608F501EB531B7AA8E-2025-05-14-15-41-20","","641","","images/causal_sequence/package_causal/package_causal_6.png","0","",""
"","","","","","image-button-response","109","1534466","0.0-14.0-1.0-2.6","7AA92B1CB5674A608F501EB531B7AA8E","7AA92B1CB5674A608F501EB531B7AA8E","2aa1e985-fd51-4f04-a958-fe0a748ff139","93d27ed9-06b1-4109-8acc-030e53ea77d1","{""num_scrambled_semantic"":""8"",""num_scrambled_causal"":""4"",""num_scrambled_schematic"":""4"",""participantId"":""7AA92B1CB5674A608F501EB531B7AA8E"",""assignmentId"":""2aa1e985-fd51-4f04-a958-fe0a748ff139"",""projectId"":""93d27ed9-06b1-4109-8acc-030e53ea77d1""}","https://test12345.live/?num_scrambled_semantic=8&num_scrambled_causal=4&num_scrambled_schematic=4&participantId=7AA92B1CB5674A608F501EB531B7AA8E&assignmentId=2aa1e985-fd51-4f04-a958-fe0a748ff139&projectId=93d27ed9-06b1-4109-8acc-030e53ea77d1","7AA92B1CB5674A608F501EB531B7AA8E-2025-05-14-15-41-20","","null","","[]","null","",""
"","","","","","image-button-response","110","1538977","0.0-14.0-1.0-0.7","7AA92B1CB5674A608F501EB531B7AA8E","7AA92B1CB5674A608F501EB531B7AA8E","2aa1e985-fd51-4f04-a958-fe0a748ff139","93d27ed9-06b1-4109-8acc-030e53ea77d1","{""num_scrambled_semantic"":""8"",""num_scrambled_causal"":""4"",""num_scrambled_schematic"":""4"",""participantId"":""7AA92B1CB5674A608F501EB531B7AA8E"",""assignmentId"":""2aa1e985-fd51-4f04-a958-fe0a748ff139"",""projectId"":""93d27ed9-06b1-4109-8acc-030e53ea77d1""}","https://test12345.live/?num_scrambled_semantic=8&num_scrambled_causal=4&num_scrambled_schematic=4&participantId=7AA92B1CB5674A608F501EB531B7AA8E&assignmentId=2aa1e985-fd51-4f04-a958-fe0a748ff139&projectId=93d27ed9-06b1-4109-8acc-030e53ea77d1","7AA92B1CB5674A608F501EB531B7AA8E-2025-05-14-15-41-20","","null","","images/causal_sequence/package_causal/package_causal_9.png","null","",""
"","","","","","image-button-response","111","1539329","0.0-14.0-1.0-1.7","7AA92B1CB5674A608F501EB531B7AA8E","7AA92B1CB5674A608F501EB531B7AA8E","2aa1e985-fd51-4f04-a958-fe0a748ff139","93d27ed9-06b1-4109-8acc-030e53ea77d1","{""num_scrambled_semantic"":""8"",""num_scrambled_causal"":""4"",""num_scrambled_schematic"":""4"",""participantId"":""7AA92B1CB5674A608F501EB531B7AA8E"",""assignmentId"":""2aa1e985-fd51-4f04-a958-fe0a748ff139"",""projectId"":""93d27ed9-06b1-4109-8acc-030e53ea77d1""}","https://test12345.live/?num_scrambled_semantic=8&num_scrambled_causal=4&num_scrambled_schematic=4&participantId=7AA92B1CB5674A608F501EB531B7AA8E&assignmentId=2aa1e985-fd51-4f04-a958-fe0a748ff139&projectId=93d27ed9-06b1-4109-8acc-030e53ea77d1","7AA92B1CB5674A608F501EB531B7AA8E-2025-05-14-15-41-20","","350","","images/causal_sequence/package_causal/package_causal_9.png","0","",""
"","","","","","image-button-response","112","1541137","0.0-14.0-1.0-2.7","7AA92B1CB5674A608F501EB531B7AA8E","7AA92B1CB5674A608F501EB531B7AA8E","2aa1e985-fd51-4f04-a958-fe0a748ff139","93d27ed9-06b1-4109-8acc-030e53ea77d1","{""num_scrambled_semantic"":""8"",""num_scrambled_causal"":""4"",""num_scrambled_schematic"":""4"",""participantId"":""7AA92B1CB5674A608F501EB531B7AA8E"",""assignmentId"":""2aa1e985-fd51-4f04-a958-fe0a748ff139"",""projectId"":""93d27ed9-06b1-4109-8acc-030e53ea77d1""}","https://test12345.live/?num_scrambled_semantic=8&num_scrambled_causal=4&num_scrambled_schematic=4&participantId=7AA92B1CB5674A608F501EB531B7AA8E&assignmentId=2aa1e985-fd51-4f04-a958-fe0a748ff139&projectId=93d27ed9-06b1-4109-8acc-030e53ea77d1","7AA92B1CB5674A608F501EB531B7AA8E-2025-05-14-15-41-20","","null","","[]","null","",""
"","","","","","image-button-response","113","1545649","0.0-14.0-1.0-0.8","7AA92B1CB5674A608F501EB531B7AA8E","7AA92B1CB5674A608F501EB531B7AA8E","2aa1e985-fd51-4f04-a958-fe0a748ff139","93d27ed9-06b1-4109-8acc-030e53ea77d1","{""num_scrambled_semantic"":""8"",""num_scrambled_causal"":""4"",""num_scrambled_schematic"":""4"",""participantId"":""7AA92B1CB5674A608F501EB531B7AA8E"",""assignmentId"":""2aa1e985-fd51-4f04-a958-fe0a748ff139"",""projectId"":""93d27ed9-06b1-4109-8acc-030e53ea77d1""}","https://test12345.live/?num_scrambled_semantic=8&num_scrambled_causal=4&num_scrambled_schematic=4&participantId=7AA92B1CB5674A608F501EB531B7AA8E&assignmentId=2aa1e985-fd51-4f04-a958-fe0a748ff139&projectId=93d27ed9-06b1-4109-8acc-030e53ea77d1","7AA92B1CB5674A608F501EB531B7AA8E-2025-05-14-15-41-20","","null","","images/causal_sequence/package_causal/package_causal_3.png","null","",""
"","","","","","image-button-response","114","1546073","0.0-14.0-1.0-1.8","7AA92B1CB5674A608F501EB531B7AA8E","7AA92B1CB5674A608F501EB531B7AA8E","2aa1e985-fd51-4f04-a958-fe0a748ff139","93d27ed9-06b1-4109-8acc-030e53ea77d1","{""num_scrambled_semantic"":""8"",""num_scrambled_causal"":""4"",""num_scrambled_schematic"":""4"",""participantId"":""7AA92B1CB5674A608F501EB531B7AA8E"",""assignmentId"":""2aa1e985-fd51-4f04-a958-fe0a748ff139"",""projectId"":""93d27ed9-06b1-4109-8acc-030e53ea77d1""}","https://test12345.live/?num_scrambled_semantic=8&num_scrambled_causal=4&num_scrambled_schematic=4&participantId=7AA92B1CB5674A608F501EB531B7AA8E&assignmentId=2aa1e985-fd51-4f04-a958-fe0a748ff139&projectId=93d27ed9-06b1-4109-8acc-030e53ea77d1","7AA92B1CB5674A608F501EB531B7AA8E-2025-05-14-15-41-20","","423","","images/causal_sequence/package_causal/package_causal_3.png","0","",""
