"success","timeout","failed_images","failed_audio","failed_video","trial_type","trial_index","time_elapsed","internal_node_id","subject","subject_id","study_id","session_id","urlvar","current_url","audio_id","view_history","rt","device_id","stimulus","response","estimated_stimulus_onset","seq_name"
"true","false","[]","[]","[]","preload","0","4033","0.0-0.0","7B752E4707DA4A4A86AB34D985529BFB","7B752E4707DA4A4A86AB34D985529BFB","0198bcc2-d28d-7844-ba2d-4dff4e3a9dc9","0198bbb8-fd11-701d-9147-68794ad37298","{""num_scrambled_semantic"":""8"",""num_scrambled_causal"":""4"",""num_scrambled_schematic"":""4"",""participantId"":""7B752E4707DA4A4A86AB34D985529BFB"",""assignmentId"":""0198bcc2-d28d-7844-ba2d-4dff4e3a9dc9"",""projectId"":""0198bbb8-fd11-701d-9147-68794ad37298""}","https://test12345.live/?num_scrambled_semantic=8&num_scrambled_causal=4&num_scrambled_schematic=4&participantId=7B752E4707DA4A4A86AB34D985529BFB&assignmentId=0198bcc2-d28d-7844-ba2d-4dff4e3a9dc9&projectId=0198bbb8-fd11-701d-9147-68794ad37298","7B752E4707DA4A4A86AB34D985529BFB-2025-08-18-11-10-02","","","","","","",""
"","","","","","instructions","1","22352","0.0-1.0","7B752E4707DA4A4A86AB34D985529BFB","7B752E4707DA4A4A86AB34D985529BFB","0198bcc2-d28d-7844-ba2d-4dff4e3a9dc9","0198bbb8-fd11-701d-9147-68794ad37298","{""num_scrambled_semantic"":""8"",""num_scrambled_causal"":""4"",""num_scrambled_schematic"":""4"",""participantId"":""7B752E4707DA4A4A86AB34D985529BFB"",""assignmentId"":""0198bcc2-d28d-7844-ba2d-4dff4e3a9dc9"",""projectId"":""0198bbb8-fd11-701d-9147-68794ad37298""}","https://test12345.live/?num_scrambled_semantic=8&num_scrambled_causal=4&num_scrambled_schematic=4&participantId=7B752E4707DA4A4A86AB34D985529BFB&assignmentId=0198bcc2-d28d-7844-ba2d-4dff4e3a9dc9&projectId=0198bbb8-fd11-701d-9147-68794ad37298","7B752E4707DA4A4A86AB34D985529BFB-2025-08-18-11-10-02","[{""page_index"":0,""viewing_time"":18318}]","18318","","","","",""
"","","","","","instructions","2","38156","0.0-2.0","7B752E4707DA4A4A86AB34D985529BFB","7B752E4707DA4A4A86AB34D985529BFB","0198bcc2-d28d-7844-ba2d-4dff4e3a9dc9","0198bbb8-fd11-701d-9147-68794ad37298","{""num_scrambled_semantic"":""8"",""num_scrambled_causal"":""4"",""num_scrambled_schematic"":""4"",""participantId"":""7B752E4707DA4A4A86AB34D985529BFB"",""assignmentId"":""0198bcc2-d28d-7844-ba2d-4dff4e3a9dc9"",""projectId"":""0198bbb8-fd11-701d-9147-68794ad37298""}","https://test12345.live/?num_scrambled_semantic=8&num_scrambled_causal=4&num_scrambled_schematic=4&participantId=7B752E4707DA4A4A86AB34D985529BFB&assignmentId=0198bcc2-d28d-7844-ba2d-4dff4e3a9dc9&projectId=0198bbb8-fd11-701d-9147-68794ad37298","7B752E4707DA4A4A86AB34D985529BFB-2025-08-18-11-10-02","[{""page_index"":0,""viewing_time"":15804}]","15804","","","","",""
"true","","","","","fullscreen","3","40706","0.0-3.0","7B752E4707DA4A4A86AB34D985529BFB","7B752E4707DA4A4A86AB34D985529BFB","0198bcc2-d28d-7844-ba2d-4dff4e3a9dc9","0198bbb8-fd11-701d-9147-68794ad37298","{""num_scrambled_semantic"":""8"",""num_scrambled_causal"":""4"",""num_scrambled_schematic"":""4"",""participantId"":""7B752E4707DA4A4A86AB34D985529BFB"",""assignmentId"":""0198bcc2-d28d-7844-ba2d-4dff4e3a9dc9"",""projectId"":""0198bbb8-fd11-701d-9147-68794ad37298""}","https://test12345.live/?num_scrambled_semantic=8&num_scrambled_causal=4&num_scrambled_schematic=4&participantId=7B752E4707DA4A4A86AB34D985529BFB&assignmentId=0198bcc2-d28d-7844-ba2d-4dff4e3a9dc9&projectId=0198bbb8-fd11-701d-9147-68794ad37298","7B752E4707DA4A4A86AB34D985529BFB-2025-08-18-11-10-02","","1545","","","","",""
"","","","","","initialize-microphone","4","49156","0.0-4.0-0.0","7B752E4707DA4A4A86AB34D985529BFB","7B752E4707DA4A4A86AB34D985529BFB","0198bcc2-d28d-7844-ba2d-4dff4e3a9dc9","0198bbb8-fd11-701d-9147-68794ad37298","{""num_scrambled_semantic"":""8"",""num_scrambled_causal"":""4"",""num_scrambled_schematic"":""4"",""participantId"":""7B752E4707DA4A4A86AB34D985529BFB"",""assignmentId"":""0198bcc2-d28d-7844-ba2d-4dff4e3a9dc9"",""projectId"":""0198bbb8-fd11-701d-9147-68794ad37298""}","https://test12345.live/?num_scrambled_semantic=8&num_scrambled_causal=4&num_scrambled_schematic=4&participantId=7B752E4707DA4A4A86AB34D985529BFB&assignmentId=0198bcc2-d28d-7844-ba2d-4dff4e3a9dc9&projectId=0198bbb8-fd11-701d-9147-68794ad37298","7B752E4707DA4A4A86AB34D985529BFB-2025-08-18-11-10-02","","","m+q764L3TVDSPCyo1jo3nt9LZO1of/BtrpDKUQsH7v0=","","","",""
"","","","","","html-audio-response","5","59972","0.0-4.0-1.0","7B752E4707DA4A4A86AB34D985529BFB","7B752E4707DA4A4A86AB34D985529BFB","0198bcc2-d28d-7844-ba2d-4dff4e3a9dc9","0198bbb8-fd11-701d-9147-68794ad37298","{""num_scrambled_semantic"":""8"",""num_scrambled_causal"":""4"",""num_scrambled_schematic"":""4"",""participantId"":""7B752E4707DA4A4A86AB34D985529BFB"",""assignmentId"":""0198bcc2-d28d-7844-ba2d-4dff4e3a9dc9"",""projectId"":""0198bbb8-fd11-701d-9147-68794ad37298""}","https://test12345.live/?num_scrambled_semantic=8&num_scrambled_causal=4&num_scrambled_schematic=4&participantId=7B752E4707DA4A4A86AB34D985529BFB&assignmentId=0198bcc2-d28d-7844-ba2d-4dff4e3a9dc9&projectId=0198bbb8-fd11-701d-9147-68794ad37298","7B752E4707DA4A4A86AB34D985529BFB-2025-08-18-11-10-02","","4013","","<span style=""color: red; font-size: 24px""> NOW RECORDING</span>
        <p>Please test Microphone</p>","","1",""
"","","","","","html-button-response","6","61813","0.0-4.0-2.0","7B752E4707DA4A4A86AB34D985529BFB","7B752E4707DA4A4A86AB34D985529BFB","0198bcc2-d28d-7844-ba2d-4dff4e3a9dc9","0198bbb8-fd11-701d-9147-68794ad37298","{""num_scrambled_semantic"":""8"",""num_scrambled_causal"":""4"",""num_scrambled_schematic"":""4"",""participantId"":""7B752E4707DA4A4A86AB34D985529BFB"",""assignmentId"":""0198bcc2-d28d-7844-ba2d-4dff4e3a9dc9"",""projectId"":""0198bbb8-fd11-701d-9147-68794ad37298""}","https://test12345.live/?num_scrambled_semantic=8&num_scrambled_causal=4&num_scrambled_schematic=4&participantId=7B752E4707DA4A4A86AB34D985529BFB&assignmentId=0198bcc2-d28d-7844-ba2d-4dff4e3a9dc9&projectId=0198bbb8-fd11-701d-9147-68794ad37298","7B752E4707DA4A4A86AB34D985529BFB-2025-08-18-11-10-02","","1841","","<p style=""font-size:48px; color:red;"">Is Microphone OK?</p>","1","",""
"","","","","","instructions","7","78833","0.0-5.0","7B752E4707DA4A4A86AB34D985529BFB","7B752E4707DA4A4A86AB34D985529BFB","0198bcc2-d28d-7844-ba2d-4dff4e3a9dc9","0198bbb8-fd11-701d-9147-68794ad37298","{""num_scrambled_semantic"":""8"",""num_scrambled_causal"":""4"",""num_scrambled_schematic"":""4"",""participantId"":""7B752E4707DA4A4A86AB34D985529BFB"",""assignmentId"":""0198bcc2-d28d-7844-ba2d-4dff4e3a9dc9"",""projectId"":""0198bbb8-fd11-701d-9147-68794ad37298""}","https://test12345.live/?num_scrambled_semantic=8&num_scrambled_causal=4&num_scrambled_schematic=4&participantId=7B752E4707DA4A4A86AB34D985529BFB&assignmentId=0198bcc2-d28d-7844-ba2d-4dff4e3a9dc9&projectId=0198bbb8-fd11-701d-9147-68794ad37298","7B752E4707DA4A4A86AB34D985529BFB-2025-08-18-11-10-02","[{""page_index"":0,""viewing_time"":7682},{""page_index"":1,""viewing_time"":9337}]","17019","","","","",""
"","","","","","image-button-response","8","84847","0.0-6.0-0.0","7B752E4707DA4A4A86AB34D985529BFB","7B752E4707DA4A4A86AB34D985529BFB","0198bcc2-d28d-7844-ba2d-4dff4e3a9dc9","0198bbb8-fd11-701d-9147-68794ad37298","{""num_scrambled_semantic"":""8"",""num_scrambled_causal"":""4"",""num_scrambled_schematic"":""4"",""participantId"":""7B752E4707DA4A4A86AB34D985529BFB"",""assignmentId"":""0198bcc2-d28d-7844-ba2d-4dff4e3a9dc9"",""projectId"":""0198bbb8-fd11-701d-9147-68794ad37298""}","https://test12345.live/?num_scrambled_semantic=8&num_scrambled_causal=4&num_scrambled_schematic=4&participantId=7B752E4707DA4A4A86AB34D985529BFB&assignmentId=0198bcc2-d28d-7844-ba2d-4dff4e3a9dc9&projectId=0198bbb8-fd11-701d-9147-68794ad37298","7B752E4707DA4A4A86AB34D985529BFB-2025-08-18-11-10-02","","null","","images/instructions/movie_0.png","null","",""
"","","","","","image-button-response","9","89417","0.0-6.0-1.0-0.0","7B752E4707DA4A4A86AB34D985529BFB","7B752E4707DA4A4A86AB34D985529BFB","0198bcc2-d28d-7844-ba2d-4dff4e3a9dc9","0198bbb8-fd11-701d-9147-68794ad37298","{""num_scrambled_semantic"":""8"",""num_scrambled_causal"":""4"",""num_scrambled_schematic"":""4"",""participantId"":""7B752E4707DA4A4A86AB34D985529BFB"",""assignmentId"":""0198bcc2-d28d-7844-ba2d-4dff4e3a9dc9"",""projectId"":""0198bbb8-fd11-701d-9147-68794ad37298""}","https://test12345.live/?num_scrambled_semantic=8&num_scrambled_causal=4&num_scrambled_schematic=4&participantId=7B752E4707DA4A4A86AB34D985529BFB&assignmentId=0198bcc2-d28d-7844-ba2d-4dff4e3a9dc9&projectId=0198bbb8-fd11-701d-9147-68794ad37298","7B752E4707DA4A4A86AB34D985529BFB-2025-08-18-11-10-02","","null","","images/instructions/movie_1.png","null","",""
"","","","","","image-button-response","10","92291","0.0-6.0-1.0-1.0","7B752E4707DA4A4A86AB34D985529BFB","7B752E4707DA4A4A86AB34D985529BFB","0198bcc2-d28d-7844-ba2d-4dff4e3a9dc9","0198bbb8-fd11-701d-9147-68794ad37298","{""num_scrambled_semantic"":""8"",""num_scrambled_causal"":""4"",""num_scrambled_schematic"":""4"",""participantId"":""7B752E4707DA4A4A86AB34D985529BFB"",""assignmentId"":""0198bcc2-d28d-7844-ba2d-4dff4e3a9dc9"",""projectId"":""0198bbb8-fd11-701d-9147-68794ad37298""}","https://test12345.live/?num_scrambled_semantic=8&num_scrambled_causal=4&num_scrambled_schematic=4&participantId=7B752E4707DA4A4A86AB34D985529BFB&assignmentId=0198bcc2-d28d-7844-ba2d-4dff4e3a9dc9&projectId=0198bbb8-fd11-701d-9147-68794ad37298","7B752E4707DA4A4A86AB34D985529BFB-2025-08-18-11-10-02","","2875","","images/instructions/movie_1.png","0","",""
"","","","","","image-button-response","11","103455","0.0-6.0-1.0-2.0","7B752E4707DA4A4A86AB34D985529BFB","7B752E4707DA4A4A86AB34D985529BFB","0198bcc2-d28d-7844-ba2d-4dff4e3a9dc9","0198bbb8-fd11-701d-9147-68794ad37298","{""num_scrambled_semantic"":""8"",""num_scrambled_causal"":""4"",""num_scrambled_schematic"":""4"",""participantId"":""7B752E4707DA4A4A86AB34D985529BFB"",""assignmentId"":""0198bcc2-d28d-7844-ba2d-4dff4e3a9dc9"",""projectId"":""0198bbb8-fd11-701d-9147-68794ad37298""}","https://test12345.live/?num_scrambled_semantic=8&num_scrambled_causal=4&num_scrambled_schematic=4&participantId=7B752E4707DA4A4A86AB34D985529BFB&assignmentId=0198bcc2-d28d-7844-ba2d-4dff4e3a9dc9&projectId=0198bbb8-fd11-701d-9147-68794ad37298","7B752E4707DA4A4A86AB34D985529BFB-2025-08-18-11-10-02","","null","","[]","null","",""
"","","","","","image-button-response","12","107980","0.0-6.0-1.0-0.1","7B752E4707DA4A4A86AB34D985529BFB","7B752E4707DA4A4A86AB34D985529BFB","0198bcc2-d28d-7844-ba2d-4dff4e3a9dc9","0198bbb8-fd11-701d-9147-68794ad37298","{""num_scrambled_semantic"":""8"",""num_scrambled_causal"":""4"",""num_scrambled_schematic"":""4"",""participantId"":""7B752E4707DA4A4A86AB34D985529BFB"",""assignmentId"":""0198bcc2-d28d-7844-ba2d-4dff4e3a9dc9"",""projectId"":""0198bbb8-fd11-701d-9147-68794ad37298""}","https://test12345.live/?num_scrambled_semantic=8&num_scrambled_causal=4&num_scrambled_schematic=4&participantId=7B752E4707DA4A4A86AB34D985529BFB&assignmentId=0198bcc2-d28d-7844-ba2d-4dff4e3a9dc9&projectId=0198bbb8-fd11-701d-9147-68794ad37298","7B752E4707DA4A4A86AB34D985529BFB-2025-08-18-11-10-02","","null","","images/instructions/movie_2.png","null","",""
"","","","","","image-button-response","13","112049","0.0-6.0-1.0-1.1","7B752E4707DA4A4A86AB34D985529BFB","7B752E4707DA4A4A86AB34D985529BFB","0198bcc2-d28d-7844-ba2d-4dff4e3a9dc9","0198bbb8-fd11-701d-9147-68794ad37298","{""num_scrambled_semantic"":""8"",""num_scrambled_causal"":""4"",""num_scrambled_schematic"":""4"",""participantId"":""7B752E4707DA4A4A86AB34D985529BFB"",""assignmentId"":""0198bcc2-d28d-7844-ba2d-4dff4e3a9dc9"",""projectId"":""0198bbb8-fd11-701d-9147-68794ad37298""}","https://test12345.live/?num_scrambled_semantic=8&num_scrambled_causal=4&num_scrambled_schematic=4&participantId=7B752E4707DA4A4A86AB34D985529BFB&assignmentId=0198bcc2-d28d-7844-ba2d-4dff4e3a9dc9&projectId=0198bbb8-fd11-701d-9147-68794ad37298","7B752E4707DA4A4A86AB34D985529BFB-2025-08-18-11-10-02","","null","","images/instructions/movie_2.png","null","",""
"","","","","","image-button-response","14","122967","0.0-6.0-1.0-2.1","7B752E4707DA4A4A86AB34D985529BFB","7B752E4707DA4A4A86AB34D985529BFB","0198bcc2-d28d-7844-ba2d-4dff4e3a9dc9","0198bbb8-fd11-701d-9147-68794ad37298","{""num_scrambled_semantic"":""8"",""num_scrambled_causal"":""4"",""num_scrambled_schematic"":""4"",""participantId"":""7B752E4707DA4A4A86AB34D985529BFB"",""assignmentId"":""0198bcc2-d28d-7844-ba2d-4dff4e3a9dc9"",""projectId"":""0198bbb8-fd11-701d-9147-68794ad37298""}","https://test12345.live/?num_scrambled_semantic=8&num_scrambled_causal=4&num_scrambled_schematic=4&participantId=7B752E4707DA4A4A86AB34D985529BFB&assignmentId=0198bcc2-d28d-7844-ba2d-4dff4e3a9dc9&projectId=0198bbb8-fd11-701d-9147-68794ad37298","7B752E4707DA4A4A86AB34D985529BFB-2025-08-18-11-10-02","","null","","[]","null","",""
"","","","","","image-button-response","15","127898","0.0-6.0-1.0-0.2","7B752E4707DA4A4A86AB34D985529BFB","7B752E4707DA4A4A86AB34D985529BFB","0198bcc2-d28d-7844-ba2d-4dff4e3a9dc9","0198bbb8-fd11-701d-9147-68794ad37298","{""num_scrambled_semantic"":""8"",""num_scrambled_causal"":""4"",""num_scrambled_schematic"":""4"",""participantId"":""7B752E4707DA4A4A86AB34D985529BFB"",""assignmentId"":""0198bcc2-d28d-7844-ba2d-4dff4e3a9dc9"",""projectId"":""0198bbb8-fd11-701d-9147-68794ad37298""}","https://test12345.live/?num_scrambled_semantic=8&num_scrambled_causal=4&num_scrambled_schematic=4&participantId=7B752E4707DA4A4A86AB34D985529BFB&assignmentId=0198bcc2-d28d-7844-ba2d-4dff4e3a9dc9&projectId=0198bbb8-fd11-701d-9147-68794ad37298","7B752E4707DA4A4A86AB34D985529BFB-2025-08-18-11-10-02","","null","","images/instructions/movie_3.png","null","",""
"","","","","","image-button-response","16","129221","0.0-6.0-1.0-1.2","7B752E4707DA4A4A86AB34D985529BFB","7B752E4707DA4A4A86AB34D985529BFB","0198bcc2-d28d-7844-ba2d-4dff4e3a9dc9","0198bbb8-fd11-701d-9147-68794ad37298","{""num_scrambled_semantic"":""8"",""num_scrambled_causal"":""4"",""num_scrambled_schematic"":""4"",""participantId"":""7B752E4707DA4A4A86AB34D985529BFB"",""assignmentId"":""0198bcc2-d28d-7844-ba2d-4dff4e3a9dc9"",""projectId"":""0198bbb8-fd11-701d-9147-68794ad37298""}","https://test12345.live/?num_scrambled_semantic=8&num_scrambled_causal=4&num_scrambled_schematic=4&participantId=7B752E4707DA4A4A86AB34D985529BFB&assignmentId=0198bcc2-d28d-7844-ba2d-4dff4e3a9dc9&projectId=0198bbb8-fd11-701d-9147-68794ad37298","7B752E4707DA4A4A86AB34D985529BFB-2025-08-18-11-10-02","","1323","","images/instructions/movie_3.png","0","",""
"","","","","","image-button-response","17","140025","0.0-6.0-1.0-2.2","7B752E4707DA4A4A86AB34D985529BFB","7B752E4707DA4A4A86AB34D985529BFB","0198bcc2-d28d-7844-ba2d-4dff4e3a9dc9","0198bbb8-fd11-701d-9147-68794ad37298","{""num_scrambled_semantic"":""8"",""num_scrambled_causal"":""4"",""num_scrambled_schematic"":""4"",""participantId"":""7B752E4707DA4A4A86AB34D985529BFB"",""assignmentId"":""0198bcc2-d28d-7844-ba2d-4dff4e3a9dc9"",""projectId"":""0198bbb8-fd11-701d-9147-68794ad37298""}","https://test12345.live/?num_scrambled_semantic=8&num_scrambled_causal=4&num_scrambled_schematic=4&participantId=7B752E4707DA4A4A86AB34D985529BFB&assignmentId=0198bcc2-d28d-7844-ba2d-4dff4e3a9dc9&projectId=0198bbb8-fd11-701d-9147-68794ad37298","7B752E4707DA4A4A86AB34D985529BFB-2025-08-18-11-10-02","","null","","[]","null","",""
"","","","","","image-button-response","18","144721","0.0-6.0-1.0-0.3","7B752E4707DA4A4A86AB34D985529BFB","7B752E4707DA4A4A86AB34D985529BFB","0198bcc2-d28d-7844-ba2d-4dff4e3a9dc9","0198bbb8-fd11-701d-9147-68794ad37298","{""num_scrambled_semantic"":""8"",""num_scrambled_causal"":""4"",""num_scrambled_schematic"":""4"",""participantId"":""7B752E4707DA4A4A86AB34D985529BFB"",""assignmentId"":""0198bcc2-d28d-7844-ba2d-4dff4e3a9dc9"",""projectId"":""0198bbb8-fd11-701d-9147-68794ad37298""}","https://test12345.live/?num_scrambled_semantic=8&num_scrambled_causal=4&num_scrambled_schematic=4&participantId=7B752E4707DA4A4A86AB34D985529BFB&assignmentId=0198bcc2-d28d-7844-ba2d-4dff4e3a9dc9&projectId=0198bbb8-fd11-701d-9147-68794ad37298","7B752E4707DA4A4A86AB34D985529BFB-2025-08-18-11-10-02","","null","","images/instructions/movie_4.png","null","",""
"","","","","","image-button-response","19","146441","0.0-6.0-1.0-1.3","7B752E4707DA4A4A86AB34D985529BFB","7B752E4707DA4A4A86AB34D985529BFB","0198bcc2-d28d-7844-ba2d-4dff4e3a9dc9","0198bbb8-fd11-701d-9147-68794ad37298","{""num_scrambled_semantic"":""8"",""num_scrambled_causal"":""4"",""num_scrambled_schematic"":""4"",""participantId"":""7B752E4707DA4A4A86AB34D985529BFB"",""assignmentId"":""0198bcc2-d28d-7844-ba2d-4dff4e3a9dc9"",""projectId"":""0198bbb8-fd11-701d-9147-68794ad37298""}","https://test12345.live/?num_scrambled_semantic=8&num_scrambled_causal=4&num_scrambled_schematic=4&participantId=7B752E4707DA4A4A86AB34D985529BFB&assignmentId=0198bcc2-d28d-7844-ba2d-4dff4e3a9dc9&projectId=0198bbb8-fd11-701d-9147-68794ad37298","7B752E4707DA4A4A86AB34D985529BFB-2025-08-18-11-10-02","","1719","","images/instructions/movie_4.png","0","",""
"","","","","","image-button-response","20","157979","0.0-6.0-1.0-2.3","7B752E4707DA4A4A86AB34D985529BFB","7B752E4707DA4A4A86AB34D985529BFB","0198bcc2-d28d-7844-ba2d-4dff4e3a9dc9","0198bbb8-fd11-701d-9147-68794ad37298","{""num_scrambled_semantic"":""8"",""num_scrambled_causal"":""4"",""num_scrambled_schematic"":""4"",""participantId"":""7B752E4707DA4A4A86AB34D985529BFB"",""assignmentId"":""0198bcc2-d28d-7844-ba2d-4dff4e3a9dc9"",""projectId"":""0198bbb8-fd11-701d-9147-68794ad37298""}","https://test12345.live/?num_scrambled_semantic=8&num_scrambled_causal=4&num_scrambled_schematic=4&participantId=7B752E4707DA4A4A86AB34D985529BFB&assignmentId=0198bcc2-d28d-7844-ba2d-4dff4e3a9dc9&projectId=0198bbb8-fd11-701d-9147-68794ad37298","7B752E4707DA4A4A86AB34D985529BFB-2025-08-18-11-10-02","","null","","[]","null","",""
"","","","","","instructions","21","165781","0.0-7.0","7B752E4707DA4A4A86AB34D985529BFB","7B752E4707DA4A4A86AB34D985529BFB","0198bcc2-d28d-7844-ba2d-4dff4e3a9dc9","0198bbb8-fd11-701d-9147-68794ad37298","{""num_scrambled_semantic"":""8"",""num_scrambled_causal"":""4"",""num_scrambled_schematic"":""4"",""participantId"":""7B752E4707DA4A4A86AB34D985529BFB"",""assignmentId"":""0198bcc2-d28d-7844-ba2d-4dff4e3a9dc9"",""projectId"":""0198bbb8-fd11-701d-9147-68794ad37298""}","https://test12345.live/?num_scrambled_semantic=8&num_scrambled_causal=4&num_scrambled_schematic=4&participantId=7B752E4707DA4A4A86AB34D985529BFB&assignmentId=0198bcc2-d28d-7844-ba2d-4dff4e3a9dc9&projectId=0198bbb8-fd11-701d-9147-68794ad37298","7B752E4707DA4A4A86AB34D985529BFB-2025-08-18-11-10-02","[{""page_index"":0,""viewing_time"":6661},{""page_index"":1,""viewing_time"":1140}]","7801","","","","",""
"","","","","","html-audio-response","22","191964","0.0-8.0","7B752E4707DA4A4A86AB34D985529BFB","7B752E4707DA4A4A86AB34D985529BFB","0198bcc2-d28d-7844-ba2d-4dff4e3a9dc9","0198bbb8-fd11-701d-9147-68794ad37298","{""num_scrambled_semantic"":""8"",""num_scrambled_causal"":""4"",""num_scrambled_schematic"":""4"",""participantId"":""7B752E4707DA4A4A86AB34D985529BFB"",""assignmentId"":""0198bcc2-d28d-7844-ba2d-4dff4e3a9dc9"",""projectId"":""0198bbb8-fd11-701d-9147-68794ad37298""}","https://test12345.live/?num_scrambled_semantic=8&num_scrambled_causal=4&num_scrambled_schematic=4&participantId=7B752E4707DA4A4A86AB34D985529BFB&assignmentId=0198bcc2-d28d-7844-ba2d-4dff4e3a9dc9&projectId=0198bbb8-fd11-701d-9147-68794ad37298","7B752E4707DA4A4A86AB34D985529BFB-2025-08-18-11-10-02","","17145","","[""<span style=\""color: red; font-size: 24px\""> NOW RECORDING</span><p>Please say out loud all the images you saw, as many as you can remember. The images can be said in any order.</p>""]","","1",""
"","","","","","instructions","23","195399","0.0-9.0","7B752E4707DA4A4A86AB34D985529BFB","7B752E4707DA4A4A86AB34D985529BFB","0198bcc2-d28d-7844-ba2d-4dff4e3a9dc9","0198bbb8-fd11-701d-9147-68794ad37298","{""num_scrambled_semantic"":""8"",""num_scrambled_causal"":""4"",""num_scrambled_schematic"":""4"",""participantId"":""7B752E4707DA4A4A86AB34D985529BFB"",""assignmentId"":""0198bcc2-d28d-7844-ba2d-4dff4e3a9dc9"",""projectId"":""0198bbb8-fd11-701d-9147-68794ad37298""}","https://test12345.live/?num_scrambled_semantic=8&num_scrambled_causal=4&num_scrambled_schematic=4&participantId=7B752E4707DA4A4A86AB34D985529BFB&assignmentId=0198bcc2-d28d-7844-ba2d-4dff4e3a9dc9&projectId=0198bbb8-fd11-701d-9147-68794ad37298","7B752E4707DA4A4A86AB34D985529BFB-2025-08-18-11-10-02","[{""page_index"":0,""viewing_time"":3433}]","3434","","","","",""
"","","","","","image-button-response","24","201420","0.0-10.0-0.0","7B752E4707DA4A4A86AB34D985529BFB","7B752E4707DA4A4A86AB34D985529BFB","0198bcc2-d28d-7844-ba2d-4dff4e3a9dc9","0198bbb8-fd11-701d-9147-68794ad37298","{""num_scrambled_semantic"":""8"",""num_scrambled_causal"":""4"",""num_scrambled_schematic"":""4"",""participantId"":""7B752E4707DA4A4A86AB34D985529BFB"",""assignmentId"":""0198bcc2-d28d-7844-ba2d-4dff4e3a9dc9"",""projectId"":""0198bbb8-fd11-701d-9147-68794ad37298""}","https://test12345.live/?num_scrambled_semantic=8&num_scrambled_causal=4&num_scrambled_schematic=4&participantId=7B752E4707DA4A4A86AB34D985529BFB&assignmentId=0198bcc2-d28d-7844-ba2d-4dff4e3a9dc9&projectId=0198bbb8-fd11-701d-9147-68794ad37298","7B752E4707DA4A4A86AB34D985529BFB-2025-08-18-11-10-02","","null","","images/causal_sequence/the_performance_causal/the_performance_causal_0.png","null","",""
"","","","","","image-button-response","25","205934","0.0-10.0-1.0-0.0","7B752E4707DA4A4A86AB34D985529BFB","7B752E4707DA4A4A86AB34D985529BFB","0198bcc2-d28d-7844-ba2d-4dff4e3a9dc9","0198bbb8-fd11-701d-9147-68794ad37298","{""num_scrambled_semantic"":""8"",""num_scrambled_causal"":""4"",""num_scrambled_schematic"":""4"",""participantId"":""7B752E4707DA4A4A86AB34D985529BFB"",""assignmentId"":""0198bcc2-d28d-7844-ba2d-4dff4e3a9dc9"",""projectId"":""0198bbb8-fd11-701d-9147-68794ad37298""}","https://test12345.live/?num_scrambled_semantic=8&num_scrambled_causal=4&num_scrambled_schematic=4&participantId=7B752E4707DA4A4A86AB34D985529BFB&assignmentId=0198bcc2-d28d-7844-ba2d-4dff4e3a9dc9&projectId=0198bbb8-fd11-701d-9147-68794ad37298","7B752E4707DA4A4A86AB34D985529BFB-2025-08-18-11-10-02","","null","","images/causal_sequence/the_performance_causal/the_performance_causal_8.png","null","",""
"","","","","","image-button-response","26","207143","0.0-10.0-1.0-1.0","7B752E4707DA4A4A86AB34D985529BFB","7B752E4707DA4A4A86AB34D985529BFB","0198bcc2-d28d-7844-ba2d-4dff4e3a9dc9","0198bbb8-fd11-701d-9147-68794ad37298","{""num_scrambled_semantic"":""8"",""num_scrambled_causal"":""4"",""num_scrambled_schematic"":""4"",""participantId"":""7B752E4707DA4A4A86AB34D985529BFB"",""assignmentId"":""0198bcc2-d28d-7844-ba2d-4dff4e3a9dc9"",""projectId"":""0198bbb8-fd11-701d-9147-68794ad37298""}","https://test12345.live/?num_scrambled_semantic=8&num_scrambled_causal=4&num_scrambled_schematic=4&participantId=7B752E4707DA4A4A86AB34D985529BFB&assignmentId=0198bcc2-d28d-7844-ba2d-4dff4e3a9dc9&projectId=0198bbb8-fd11-701d-9147-68794ad37298","7B752E4707DA4A4A86AB34D985529BFB-2025-08-18-11-10-02","","1209","","images/causal_sequence/the_performance_causal/the_performance_causal_8.png","0","",""
"","","","","","image-button-response","27","218676","0.0-10.0-1.0-2.0","7B752E4707DA4A4A86AB34D985529BFB","7B752E4707DA4A4A86AB34D985529BFB","0198bcc2-d28d-7844-ba2d-4dff4e3a9dc9","0198bbb8-fd11-701d-9147-68794ad37298","{""num_scrambled_semantic"":""8"",""num_scrambled_causal"":""4"",""num_scrambled_schematic"":""4"",""participantId"":""7B752E4707DA4A4A86AB34D985529BFB"",""assignmentId"":""0198bcc2-d28d-7844-ba2d-4dff4e3a9dc9"",""projectId"":""0198bbb8-fd11-701d-9147-68794ad37298""}","https://test12345.live/?num_scrambled_semantic=8&num_scrambled_causal=4&num_scrambled_schematic=4&participantId=7B752E4707DA4A4A86AB34D985529BFB&assignmentId=0198bcc2-d28d-7844-ba2d-4dff4e3a9dc9&projectId=0198bbb8-fd11-701d-9147-68794ad37298","7B752E4707DA4A4A86AB34D985529BFB-2025-08-18-11-10-02","","null","","[]","null","",""
"","","","","","image-button-response","28","223326","0.0-10.0-1.0-0.1","7B752E4707DA4A4A86AB34D985529BFB","7B752E4707DA4A4A86AB34D985529BFB","0198bcc2-d28d-7844-ba2d-4dff4e3a9dc9","0198bbb8-fd11-701d-9147-68794ad37298","{""num_scrambled_semantic"":""8"",""num_scrambled_causal"":""4"",""num_scrambled_schematic"":""4"",""participantId"":""7B752E4707DA4A4A86AB34D985529BFB"",""assignmentId"":""0198bcc2-d28d-7844-ba2d-4dff4e3a9dc9"",""projectId"":""0198bbb8-fd11-701d-9147-68794ad37298""}","https://test12345.live/?num_scrambled_semantic=8&num_scrambled_causal=4&num_scrambled_schematic=4&participantId=7B752E4707DA4A4A86AB34D985529BFB&assignmentId=0198bcc2-d28d-7844-ba2d-4dff4e3a9dc9&projectId=0198bbb8-fd11-701d-9147-68794ad37298","7B752E4707DA4A4A86AB34D985529BFB-2025-08-18-11-10-02","","null","","images/causal_sequence/the_performance_causal/the_performance_causal_1.png","null","",""
"","","","","","image-button-response","29","224645","0.0-10.0-1.0-1.1","7B752E4707DA4A4A86AB34D985529BFB","7B752E4707DA4A4A86AB34D985529BFB","0198bcc2-d28d-7844-ba2d-4dff4e3a9dc9","0198bbb8-fd11-701d-9147-68794ad37298","{""num_scrambled_semantic"":""8"",""num_scrambled_causal"":""4"",""num_scrambled_schematic"":""4"",""participantId"":""7B752E4707DA4A4A86AB34D985529BFB"",""assignmentId"":""0198bcc2-d28d-7844-ba2d-4dff4e3a9dc9"",""projectId"":""0198bbb8-fd11-701d-9147-68794ad37298""}","https://test12345.live/?num_scrambled_semantic=8&num_scrambled_causal=4&num_scrambled_schematic=4&participantId=7B752E4707DA4A4A86AB34D985529BFB&assignmentId=0198bcc2-d28d-7844-ba2d-4dff4e3a9dc9&projectId=0198bbb8-fd11-701d-9147-68794ad37298","7B752E4707DA4A4A86AB34D985529BFB-2025-08-18-11-10-02","","1319","","images/causal_sequence/the_performance_causal/the_performance_causal_1.png","0","",""
"","","","","","image-button-response","30","235520","0.0-10.0-1.0-2.1","7B752E4707DA4A4A86AB34D985529BFB","7B752E4707DA4A4A86AB34D985529BFB","0198bcc2-d28d-7844-ba2d-4dff4e3a9dc9","0198bbb8-fd11-701d-9147-68794ad37298","{""num_scrambled_semantic"":""8"",""num_scrambled_causal"":""4"",""num_scrambled_schematic"":""4"",""participantId"":""7B752E4707DA4A4A86AB34D985529BFB"",""assignmentId"":""0198bcc2-d28d-7844-ba2d-4dff4e3a9dc9"",""projectId"":""0198bbb8-fd11-701d-9147-68794ad37298""}","https://test12345.live/?num_scrambled_semantic=8&num_scrambled_causal=4&num_scrambled_schematic=4&participantId=7B752E4707DA4A4A86AB34D985529BFB&assignmentId=0198bcc2-d28d-7844-ba2d-4dff4e3a9dc9&projectId=0198bbb8-fd11-701d-9147-68794ad37298","7B752E4707DA4A4A86AB34D985529BFB-2025-08-18-11-10-02","","null","","[]","null","",""
"","","","","","image-button-response","31","240575","0.0-10.0-1.0-0.2","7B752E4707DA4A4A86AB34D985529BFB","7B752E4707DA4A4A86AB34D985529BFB","0198bcc2-d28d-7844-ba2d-4dff4e3a9dc9","0198bbb8-fd11-701d-9147-68794ad37298","{""num_scrambled_semantic"":""8"",""num_scrambled_causal"":""4"",""num_scrambled_schematic"":""4"",""participantId"":""7B752E4707DA4A4A86AB34D985529BFB"",""assignmentId"":""0198bcc2-d28d-7844-ba2d-4dff4e3a9dc9"",""projectId"":""0198bbb8-fd11-701d-9147-68794ad37298""}","https://test12345.live/?num_scrambled_semantic=8&num_scrambled_causal=4&num_scrambled_schematic=4&participantId=7B752E4707DA4A4A86AB34D985529BFB&assignmentId=0198bcc2-d28d-7844-ba2d-4dff4e3a9dc9&projectId=0198bbb8-fd11-701d-9147-68794ad37298","7B752E4707DA4A4A86AB34D985529BFB-2025-08-18-11-10-02","","null","","images/causal_sequence/the_performance_causal/the_performance_causal_ten.png","null","",""
"","","","","","image-button-response","32","242554","0.0-10.0-1.0-1.2","7B752E4707DA4A4A86AB34D985529BFB","7B752E4707DA4A4A86AB34D985529BFB","0198bcc2-d28d-7844-ba2d-4dff4e3a9dc9","0198bbb8-fd11-701d-9147-68794ad37298","{""num_scrambled_semantic"":""8"",""num_scrambled_causal"":""4"",""num_scrambled_schematic"":""4"",""participantId"":""7B752E4707DA4A4A86AB34D985529BFB"",""assignmentId"":""0198bcc2-d28d-7844-ba2d-4dff4e3a9dc9"",""projectId"":""0198bbb8-fd11-701d-9147-68794ad37298""}","https://test12345.live/?num_scrambled_semantic=8&num_scrambled_causal=4&num_scrambled_schematic=4&participantId=7B752E4707DA4A4A86AB34D985529BFB&assignmentId=0198bcc2-d28d-7844-ba2d-4dff4e3a9dc9&projectId=0198bbb8-fd11-701d-9147-68794ad37298","7B752E4707DA4A4A86AB34D985529BFB-2025-08-18-11-10-02","","1979","","images/causal_sequence/the_performance_causal/the_performance_causal_ten.png","0","",""
"","","","","","image-button-response","33","253540","0.0-10.0-1.0-2.2","7B752E4707DA4A4A86AB34D985529BFB","7B752E4707DA4A4A86AB34D985529BFB","0198bcc2-d28d-7844-ba2d-4dff4e3a9dc9","0198bbb8-fd11-701d-9147-68794ad37298","{""num_scrambled_semantic"":""8"",""num_scrambled_causal"":""4"",""num_scrambled_schematic"":""4"",""participantId"":""7B752E4707DA4A4A86AB34D985529BFB"",""assignmentId"":""0198bcc2-d28d-7844-ba2d-4dff4e3a9dc9"",""projectId"":""0198bbb8-fd11-701d-9147-68794ad37298""}","https://test12345.live/?num_scrambled_semantic=8&num_scrambled_causal=4&num_scrambled_schematic=4&participantId=7B752E4707DA4A4A86AB34D985529BFB&assignmentId=0198bcc2-d28d-7844-ba2d-4dff4e3a9dc9&projectId=0198bbb8-fd11-701d-9147-68794ad37298","7B752E4707DA4A4A86AB34D985529BFB-2025-08-18-11-10-02","","null","","[]","null","",""
"","","","","","image-button-response","34","258063","0.0-10.0-1.0-0.3","7B752E4707DA4A4A86AB34D985529BFB","7B752E4707DA4A4A86AB34D985529BFB","0198bcc2-d28d-7844-ba2d-4dff4e3a9dc9","0198bbb8-fd11-701d-9147-68794ad37298","{""num_scrambled_semantic"":""8"",""num_scrambled_causal"":""4"",""num_scrambled_schematic"":""4"",""participantId"":""7B752E4707DA4A4A86AB34D985529BFB"",""assignmentId"":""0198bcc2-d28d-7844-ba2d-4dff4e3a9dc9"",""projectId"":""0198bbb8-fd11-701d-9147-68794ad37298""}","https://test12345.live/?num_scrambled_semantic=8&num_scrambled_causal=4&num_scrambled_schematic=4&participantId=7B752E4707DA4A4A86AB34D985529BFB&assignmentId=0198bcc2-d28d-7844-ba2d-4dff4e3a9dc9&projectId=0198bbb8-fd11-701d-9147-68794ad37298","7B752E4707DA4A4A86AB34D985529BFB-2025-08-18-11-10-02","","null","","images/causal_sequence/the_performance_causal/the_performance_causal_6.png","null","",""
"","","","","","image-button-response","35","259199","0.0-10.0-1.0-1.3","7B752E4707DA4A4A86AB34D985529BFB","7B752E4707DA4A4A86AB34D985529BFB","0198bcc2-d28d-7844-ba2d-4dff4e3a9dc9","0198bbb8-fd11-701d-9147-68794ad37298","{""num_scrambled_semantic"":""8"",""num_scrambled_causal"":""4"",""num_scrambled_schematic"":""4"",""participantId"":""7B752E4707DA4A4A86AB34D985529BFB"",""assignmentId"":""0198bcc2-d28d-7844-ba2d-4dff4e3a9dc9"",""projectId"":""0198bbb8-fd11-701d-9147-68794ad37298""}","https://test12345.live/?num_scrambled_semantic=8&num_scrambled_causal=4&num_scrambled_schematic=4&participantId=7B752E4707DA4A4A86AB34D985529BFB&assignmentId=0198bcc2-d28d-7844-ba2d-4dff4e3a9dc9&projectId=0198bbb8-fd11-701d-9147-68794ad37298","7B752E4707DA4A4A86AB34D985529BFB-2025-08-18-11-10-02","","1137","","images/causal_sequence/the_performance_causal/the_performance_causal_6.png","0","",""
"","","","","","image-button-response","36","270004","0.0-10.0-1.0-2.3","7B752E4707DA4A4A86AB34D985529BFB","7B752E4707DA4A4A86AB34D985529BFB","0198bcc2-d28d-7844-ba2d-4dff4e3a9dc9","0198bbb8-fd11-701d-9147-68794ad37298","{""num_scrambled_semantic"":""8"",""num_scrambled_causal"":""4"",""num_scrambled_schematic"":""4"",""participantId"":""7B752E4707DA4A4A86AB34D985529BFB"",""assignmentId"":""0198bcc2-d28d-7844-ba2d-4dff4e3a9dc9"",""projectId"":""0198bbb8-fd11-701d-9147-68794ad37298""}","https://test12345.live/?num_scrambled_semantic=8&num_scrambled_causal=4&num_scrambled_schematic=4&participantId=7B752E4707DA4A4A86AB34D985529BFB&assignmentId=0198bcc2-d28d-7844-ba2d-4dff4e3a9dc9&projectId=0198bbb8-fd11-701d-9147-68794ad37298","7B752E4707DA4A4A86AB34D985529BFB-2025-08-18-11-10-02","","null","","[]","null","",""
"","","","","","image-button-response","37","274521","0.0-10.0-1.0-0.4","7B752E4707DA4A4A86AB34D985529BFB","7B752E4707DA4A4A86AB34D985529BFB","0198bcc2-d28d-7844-ba2d-4dff4e3a9dc9","0198bbb8-fd11-701d-9147-68794ad37298","{""num_scrambled_semantic"":""8"",""num_scrambled_causal"":""4"",""num_scrambled_schematic"":""4"",""participantId"":""7B752E4707DA4A4A86AB34D985529BFB"",""assignmentId"":""0198bcc2-d28d-7844-ba2d-4dff4e3a9dc9"",""projectId"":""0198bbb8-fd11-701d-9147-68794ad37298""}","https://test12345.live/?num_scrambled_semantic=8&num_scrambled_causal=4&num_scrambled_schematic=4&participantId=7B752E4707DA4A4A86AB34D985529BFB&assignmentId=0198bcc2-d28d-7844-ba2d-4dff4e3a9dc9&projectId=0198bbb8-fd11-701d-9147-68794ad37298","7B752E4707DA4A4A86AB34D985529BFB-2025-08-18-11-10-02","","null","","images/causal_sequence/the_performance_causal/the_performance_causal_9.png","null","",""
"","","","","","image-button-response","38","276079","0.0-10.0-1.0-1.4","7B752E4707DA4A4A86AB34D985529BFB","7B752E4707DA4A4A86AB34D985529BFB","0198bcc2-d28d-7844-ba2d-4dff4e3a9dc9","0198bbb8-fd11-701d-9147-68794ad37298","{""num_scrambled_semantic"":""8"",""num_scrambled_causal"":""4"",""num_scrambled_schematic"":""4"",""participantId"":""7B752E4707DA4A4A86AB34D985529BFB"",""assignmentId"":""0198bcc2-d28d-7844-ba2d-4dff4e3a9dc9"",""projectId"":""0198bbb8-fd11-701d-9147-68794ad37298""}","https://test12345.live/?num_scrambled_semantic=8&num_scrambled_causal=4&num_scrambled_schematic=4&participantId=7B752E4707DA4A4A86AB34D985529BFB&assignmentId=0198bcc2-d28d-7844-ba2d-4dff4e3a9dc9&projectId=0198bbb8-fd11-701d-9147-68794ad37298","7B752E4707DA4A4A86AB34D985529BFB-2025-08-18-11-10-02","","1558","","images/causal_sequence/the_performance_causal/the_performance_causal_9.png","0","",""
"","","","","","image-button-response","39","286998","0.0-10.0-1.0-2.4","7B752E4707DA4A4A86AB34D985529BFB","7B752E4707DA4A4A86AB34D985529BFB","0198bcc2-d28d-7844-ba2d-4dff4e3a9dc9","0198bbb8-fd11-701d-9147-68794ad37298","{""num_scrambled_semantic"":""8"",""num_scrambled_causal"":""4"",""num_scrambled_schematic"":""4"",""participantId"":""7B752E4707DA4A4A86AB34D985529BFB"",""assignmentId"":""0198bcc2-d28d-7844-ba2d-4dff4e3a9dc9"",""projectId"":""0198bbb8-fd11-701d-9147-68794ad37298""}","https://test12345.live/?num_scrambled_semantic=8&num_scrambled_causal=4&num_scrambled_schematic=4&participantId=7B752E4707DA4A4A86AB34D985529BFB&assignmentId=0198bcc2-d28d-7844-ba2d-4dff4e3a9dc9&projectId=0198bbb8-fd11-701d-9147-68794ad37298","7B752E4707DA4A4A86AB34D985529BFB-2025-08-18-11-10-02","","null","","[]","null","",""
"","","","","","image-button-response","40","291515","0.0-10.0-1.0-0.5","7B752E4707DA4A4A86AB34D985529BFB","7B752E4707DA4A4A86AB34D985529BFB","0198bcc2-d28d-7844-ba2d-4dff4e3a9dc9","0198bbb8-fd11-701d-9147-68794ad37298","{""num_scrambled_semantic"":""8"",""num_scrambled_causal"":""4"",""num_scrambled_schematic"":""4"",""participantId"":""7B752E4707DA4A4A86AB34D985529BFB"",""assignmentId"":""0198bcc2-d28d-7844-ba2d-4dff4e3a9dc9"",""projectId"":""0198bbb8-fd11-701d-9147-68794ad37298""}","https://test12345.live/?num_scrambled_semantic=8&num_scrambled_causal=4&num_scrambled_schematic=4&participantId=7B752E4707DA4A4A86AB34D985529BFB&assignmentId=0198bcc2-d28d-7844-ba2d-4dff4e3a9dc9&projectId=0198bbb8-fd11-701d-9147-68794ad37298","7B752E4707DA4A4A86AB34D985529BFB-2025-08-18-11-10-02","","null","","images/causal_sequence/the_performance_causal/the_performance_causal_4.png","null","",""
"","","","","","image-button-response","41","293486","0.0-10.0-1.0-1.5","7B752E4707DA4A4A86AB34D985529BFB","7B752E4707DA4A4A86AB34D985529BFB","0198bcc2-d28d-7844-ba2d-4dff4e3a9dc9","0198bbb8-fd11-701d-9147-68794ad37298","{""num_scrambled_semantic"":""8"",""num_scrambled_causal"":""4"",""num_scrambled_schematic"":""4"",""participantId"":""7B752E4707DA4A4A86AB34D985529BFB"",""assignmentId"":""0198bcc2-d28d-7844-ba2d-4dff4e3a9dc9"",""projectId"":""0198bbb8-fd11-701d-9147-68794ad37298""}","https://test12345.live/?num_scrambled_semantic=8&num_scrambled_causal=4&num_scrambled_schematic=4&participantId=7B752E4707DA4A4A86AB34D985529BFB&assignmentId=0198bcc2-d28d-7844-ba2d-4dff4e3a9dc9&projectId=0198bbb8-fd11-701d-9147-68794ad37298","7B752E4707DA4A4A86AB34D985529BFB-2025-08-18-11-10-02","","1971","","images/causal_sequence/the_performance_causal/the_performance_causal_4.png","0","",""
"","","","","","image-button-response","42","304511","0.0-10.0-1.0-2.5","7B752E4707DA4A4A86AB34D985529BFB","7B752E4707DA4A4A86AB34D985529BFB","0198bcc2-d28d-7844-ba2d-4dff4e3a9dc9","0198bbb8-fd11-701d-9147-68794ad37298","{""num_scrambled_semantic"":""8"",""num_scrambled_causal"":""4"",""num_scrambled_schematic"":""4"",""participantId"":""7B752E4707DA4A4A86AB34D985529BFB"",""assignmentId"":""0198bcc2-d28d-7844-ba2d-4dff4e3a9dc9"",""projectId"":""0198bbb8-fd11-701d-9147-68794ad37298""}","https://test12345.live/?num_scrambled_semantic=8&num_scrambled_causal=4&num_scrambled_schematic=4&participantId=7B752E4707DA4A4A86AB34D985529BFB&assignmentId=0198bcc2-d28d-7844-ba2d-4dff4e3a9dc9&projectId=0198bbb8-fd11-701d-9147-68794ad37298","7B752E4707DA4A4A86AB34D985529BFB-2025-08-18-11-10-02","","null","","[]","null","",""
"","","","","","image-button-response","43","309322","0.0-10.0-1.0-0.6","7B752E4707DA4A4A86AB34D985529BFB","7B752E4707DA4A4A86AB34D985529BFB","0198bcc2-d28d-7844-ba2d-4dff4e3a9dc9","0198bbb8-fd11-701d-9147-68794ad37298","{""num_scrambled_semantic"":""8"",""num_scrambled_causal"":""4"",""num_scrambled_schematic"":""4"",""participantId"":""7B752E4707DA4A4A86AB34D985529BFB"",""assignmentId"":""0198bcc2-d28d-7844-ba2d-4dff4e3a9dc9"",""projectId"":""0198bbb8-fd11-701d-9147-68794ad37298""}","https://test12345.live/?num_scrambled_semantic=8&num_scrambled_causal=4&num_scrambled_schematic=4&participantId=7B752E4707DA4A4A86AB34D985529BFB&assignmentId=0198bcc2-d28d-7844-ba2d-4dff4e3a9dc9&projectId=0198bbb8-fd11-701d-9147-68794ad37298","7B752E4707DA4A4A86AB34D985529BFB-2025-08-18-11-10-02","","null","","images/causal_sequence/the_performance_causal/the_performance_causal_3.png","null","",""
"","","","","","image-button-response","44","310458","0.0-10.0-1.0-1.6","7B752E4707DA4A4A86AB34D985529BFB","7B752E4707DA4A4A86AB34D985529BFB","0198bcc2-d28d-7844-ba2d-4dff4e3a9dc9","0198bbb8-fd11-701d-9147-68794ad37298","{""num_scrambled_semantic"":""8"",""num_scrambled_causal"":""4"",""num_scrambled_schematic"":""4"",""participantId"":""7B752E4707DA4A4A86AB34D985529BFB"",""assignmentId"":""0198bcc2-d28d-7844-ba2d-4dff4e3a9dc9"",""projectId"":""0198bbb8-fd11-701d-9147-68794ad37298""}","https://test12345.live/?num_scrambled_semantic=8&num_scrambled_causal=4&num_scrambled_schematic=4&participantId=7B752E4707DA4A4A86AB34D985529BFB&assignmentId=0198bcc2-d28d-7844-ba2d-4dff4e3a9dc9&projectId=0198bbb8-fd11-701d-9147-68794ad37298","7B752E4707DA4A4A86AB34D985529BFB-2025-08-18-11-10-02","","1136","","images/causal_sequence/the_performance_causal/the_performance_causal_3.png","0","",""
"","","","","","image-button-response","45","322135","0.0-10.0-1.0-2.6","7B752E4707DA4A4A86AB34D985529BFB","7B752E4707DA4A4A86AB34D985529BFB","0198bcc2-d28d-7844-ba2d-4dff4e3a9dc9","0198bbb8-fd11-701d-9147-68794ad37298","{""num_scrambled_semantic"":""8"",""num_scrambled_causal"":""4"",""num_scrambled_schematic"":""4"",""participantId"":""7B752E4707DA4A4A86AB34D985529BFB"",""assignmentId"":""0198bcc2-d28d-7844-ba2d-4dff4e3a9dc9"",""projectId"":""0198bbb8-fd11-701d-9147-68794ad37298""}","https://test12345.live/?num_scrambled_semantic=8&num_scrambled_causal=4&num_scrambled_schematic=4&participantId=7B752E4707DA4A4A86AB34D985529BFB&assignmentId=0198bcc2-d28d-7844-ba2d-4dff4e3a9dc9&projectId=0198bbb8-fd11-701d-9147-68794ad37298","7B752E4707DA4A4A86AB34D985529BFB-2025-08-18-11-10-02","","null","","[]","null","",""
"","","","","","image-button-response","46","327178","0.0-10.0-1.0-0.7","7B752E4707DA4A4A86AB34D985529BFB","7B752E4707DA4A4A86AB34D985529BFB","0198bcc2-d28d-7844-ba2d-4dff4e3a9dc9","0198bbb8-fd11-701d-9147-68794ad37298","{""num_scrambled_semantic"":""8"",""num_scrambled_causal"":""4"",""num_scrambled_schematic"":""4"",""participantId"":""7B752E4707DA4A4A86AB34D985529BFB"",""assignmentId"":""0198bcc2-d28d-7844-ba2d-4dff4e3a9dc9"",""projectId"":""0198bbb8-fd11-701d-9147-68794ad37298""}","https://test12345.live/?num_scrambled_semantic=8&num_scrambled_causal=4&num_scrambled_schematic=4&participantId=7B752E4707DA4A4A86AB34D985529BFB&assignmentId=0198bcc2-d28d-7844-ba2d-4dff4e3a9dc9&projectId=0198bbb8-fd11-701d-9147-68794ad37298","7B752E4707DA4A4A86AB34D985529BFB-2025-08-18-11-10-02","","null","","images/causal_sequence/the_performance_causal/the_performance_causal_5.png","null","",""
"","","","","","image-button-response","47","328729","0.0-10.0-1.0-1.7","7B752E4707DA4A4A86AB34D985529BFB","7B752E4707DA4A4A86AB34D985529BFB","0198bcc2-d28d-7844-ba2d-4dff4e3a9dc9","0198bbb8-fd11-701d-9147-68794ad37298","{""num_scrambled_semantic"":""8"",""num_scrambled_causal"":""4"",""num_scrambled_schematic"":""4"",""participantId"":""7B752E4707DA4A4A86AB34D985529BFB"",""assignmentId"":""0198bcc2-d28d-7844-ba2d-4dff4e3a9dc9"",""projectId"":""0198bbb8-fd11-701d-9147-68794ad37298""}","https://test12345.live/?num_scrambled_semantic=8&num_scrambled_causal=4&num_scrambled_schematic=4&participantId=7B752E4707DA4A4A86AB34D985529BFB&assignmentId=0198bcc2-d28d-7844-ba2d-4dff4e3a9dc9&projectId=0198bbb8-fd11-701d-9147-68794ad37298","7B752E4707DA4A4A86AB34D985529BFB-2025-08-18-11-10-02","","1552","","images/causal_sequence/the_performance_causal/the_performance_causal_5.png","0","",""
"","","","","","image-button-response","48","339659","0.0-10.0-1.0-2.7","7B752E4707DA4A4A86AB34D985529BFB","7B752E4707DA4A4A86AB34D985529BFB","0198bcc2-d28d-7844-ba2d-4dff4e3a9dc9","0198bbb8-fd11-701d-9147-68794ad37298","{""num_scrambled_semantic"":""8"",""num_scrambled_causal"":""4"",""num_scrambled_schematic"":""4"",""participantId"":""7B752E4707DA4A4A86AB34D985529BFB"",""assignmentId"":""0198bcc2-d28d-7844-ba2d-4dff4e3a9dc9"",""projectId"":""0198bbb8-fd11-701d-9147-68794ad37298""}","https://test12345.live/?num_scrambled_semantic=8&num_scrambled_causal=4&num_scrambled_schematic=4&participantId=7B752E4707DA4A4A86AB34D985529BFB&assignmentId=0198bcc2-d28d-7844-ba2d-4dff4e3a9dc9&projectId=0198bbb8-fd11-701d-9147-68794ad37298","7B752E4707DA4A4A86AB34D985529BFB-2025-08-18-11-10-02","","null","","[]","null","",""
"","","","","","image-button-response","49","344543","0.0-10.0-1.0-0.8","7B752E4707DA4A4A86AB34D985529BFB","7B752E4707DA4A4A86AB34D985529BFB","0198bcc2-d28d-7844-ba2d-4dff4e3a9dc9","0198bbb8-fd11-701d-9147-68794ad37298","{""num_scrambled_semantic"":""8"",""num_scrambled_causal"":""4"",""num_scrambled_schematic"":""4"",""participantId"":""7B752E4707DA4A4A86AB34D985529BFB"",""assignmentId"":""0198bcc2-d28d-7844-ba2d-4dff4e3a9dc9"",""projectId"":""0198bbb8-fd11-701d-9147-68794ad37298""}","https://test12345.live/?num_scrambled_semantic=8&num_scrambled_causal=4&num_scrambled_schematic=4&participantId=7B752E4707DA4A4A86AB34D985529BFB&assignmentId=0198bcc2-d28d-7844-ba2d-4dff4e3a9dc9&projectId=0198bbb8-fd11-701d-9147-68794ad37298","7B752E4707DA4A4A86AB34D985529BFB-2025-08-18-11-10-02","","null","","images/causal_sequence/the_performance_causal/the_performance_causal_7.png","null","",""
"","","","","","image-button-response","50","345727","0.0-10.0-1.0-1.8","7B752E4707DA4A4A86AB34D985529BFB","7B752E4707DA4A4A86AB34D985529BFB","0198bcc2-d28d-7844-ba2d-4dff4e3a9dc9","0198bbb8-fd11-701d-9147-68794ad37298","{""num_scrambled_semantic"":""8"",""num_scrambled_causal"":""4"",""num_scrambled_schematic"":""4"",""participantId"":""7B752E4707DA4A4A86AB34D985529BFB"",""assignmentId"":""0198bcc2-d28d-7844-ba2d-4dff4e3a9dc9"",""projectId"":""0198bbb8-fd11-701d-9147-68794ad37298""}","https://test12345.live/?num_scrambled_semantic=8&num_scrambled_causal=4&num_scrambled_schematic=4&participantId=7B752E4707DA4A4A86AB34D985529BFB&assignmentId=0198bcc2-d28d-7844-ba2d-4dff4e3a9dc9&projectId=0198bbb8-fd11-701d-9147-68794ad37298","7B752E4707DA4A4A86AB34D985529BFB-2025-08-18-11-10-02","","1183","","images/causal_sequence/the_performance_causal/the_performance_causal_7.png","0","",""
"","","","","","image-button-response","51","356775","0.0-10.0-1.0-2.8","7B752E4707DA4A4A86AB34D985529BFB","7B752E4707DA4A4A86AB34D985529BFB","0198bcc2-d28d-7844-ba2d-4dff4e3a9dc9","0198bbb8-fd11-701d-9147-68794ad37298","{""num_scrambled_semantic"":""8"",""num_scrambled_causal"":""4"",""num_scrambled_schematic"":""4"",""participantId"":""7B752E4707DA4A4A86AB34D985529BFB"",""assignmentId"":""0198bcc2-d28d-7844-ba2d-4dff4e3a9dc9"",""projectId"":""0198bbb8-fd11-701d-9147-68794ad37298""}","https://test12345.live/?num_scrambled_semantic=8&num_scrambled_causal=4&num_scrambled_schematic=4&participantId=7B752E4707DA4A4A86AB34D985529BFB&assignmentId=0198bcc2-d28d-7844-ba2d-4dff4e3a9dc9&projectId=0198bbb8-fd11-701d-9147-68794ad37298","7B752E4707DA4A4A86AB34D985529BFB-2025-08-18-11-10-02","","null","","[]","null","",""
"","","","","","image-button-response","52","361300","0.0-10.0-1.0-0.9","7B752E4707DA4A4A86AB34D985529BFB","7B752E4707DA4A4A86AB34D985529BFB","0198bcc2-d28d-7844-ba2d-4dff4e3a9dc9","0198bbb8-fd11-701d-9147-68794ad37298","{""num_scrambled_semantic"":""8"",""num_scrambled_causal"":""4"",""num_scrambled_schematic"":""4"",""participantId"":""7B752E4707DA4A4A86AB34D985529BFB"",""assignmentId"":""0198bcc2-d28d-7844-ba2d-4dff4e3a9dc9"",""projectId"":""0198bbb8-fd11-701d-9147-68794ad37298""}","https://test12345.live/?num_scrambled_semantic=8&num_scrambled_causal=4&num_scrambled_schematic=4&participantId=7B752E4707DA4A4A86AB34D985529BFB&assignmentId=0198bcc2-d28d-7844-ba2d-4dff4e3a9dc9&projectId=0198bbb8-fd11-701d-9147-68794ad37298","7B752E4707DA4A4A86AB34D985529BFB-2025-08-18-11-10-02","","null","","images/causal_sequence/the_performance_causal/the_performance_causal_2.png","null","",""
"","","","","","image-button-response","53","362513","0.0-10.0-1.0-1.9","7B752E4707DA4A4A86AB34D985529BFB","7B752E4707DA4A4A86AB34D985529BFB","0198bcc2-d28d-7844-ba2d-4dff4e3a9dc9","0198bbb8-fd11-701d-9147-68794ad37298","{""num_scrambled_semantic"":""8"",""num_scrambled_causal"":""4"",""num_scrambled_schematic"":""4"",""participantId"":""7B752E4707DA4A4A86AB34D985529BFB"",""assignmentId"":""0198bcc2-d28d-7844-ba2d-4dff4e3a9dc9"",""projectId"":""0198bbb8-fd11-701d-9147-68794ad37298""}","https://test12345.live/?num_scrambled_semantic=8&num_scrambled_causal=4&num_scrambled_schematic=4&participantId=7B752E4707DA4A4A86AB34D985529BFB&assignmentId=0198bcc2-d28d-7844-ba2d-4dff4e3a9dc9&projectId=0198bbb8-fd11-701d-9147-68794ad37298","7B752E4707DA4A4A86AB34D985529BFB-2025-08-18-11-10-02","","1213","","images/causal_sequence/the_performance_causal/the_performance_causal_2.png","0","",""
"","","","","","image-button-response","54","373713","0.0-10.0-1.0-2.9","7B752E4707DA4A4A86AB34D985529BFB","7B752E4707DA4A4A86AB34D985529BFB","0198bcc2-d28d-7844-ba2d-4dff4e3a9dc9","0198bbb8-fd11-701d-9147-68794ad37298","{""num_scrambled_semantic"":""8"",""num_scrambled_causal"":""4"",""num_scrambled_schematic"":""4"",""participantId"":""7B752E4707DA4A4A86AB34D985529BFB"",""assignmentId"":""0198bcc2-d28d-7844-ba2d-4dff4e3a9dc9"",""projectId"":""0198bbb8-fd11-701d-9147-68794ad37298""}","https://test12345.live/?num_scrambled_semantic=8&num_scrambled_causal=4&num_scrambled_schematic=4&participantId=7B752E4707DA4A4A86AB34D985529BFB&assignmentId=0198bcc2-d28d-7844-ba2d-4dff4e3a9dc9&projectId=0198bbb8-fd11-701d-9147-68794ad37298","7B752E4707DA4A4A86AB34D985529BFB-2025-08-18-11-10-02","","null","","[]","null","",""
"","","","","","html-audio-response","55","406210","0.0-11.0","7B752E4707DA4A4A86AB34D985529BFB","7B752E4707DA4A4A86AB34D985529BFB","0198bcc2-d28d-7844-ba2d-4dff4e3a9dc9","0198bbb8-fd11-701d-9147-68794ad37298","{""num_scrambled_semantic"":""8"",""num_scrambled_causal"":""4"",""num_scrambled_schematic"":""4"",""participantId"":""7B752E4707DA4A4A86AB34D985529BFB"",""assignmentId"":""0198bcc2-d28d-7844-ba2d-4dff4e3a9dc9"",""projectId"":""0198bbb8-fd11-701d-9147-68794ad37298""}","https://test12345.live/?num_scrambled_semantic=8&num_scrambled_causal=4&num_scrambled_schematic=4&participantId=7B752E4707DA4A4A86AB34D985529BFB&assignmentId=0198bcc2-d28d-7844-ba2d-4dff4e3a9dc9&projectId=0198bbb8-fd11-701d-9147-68794ad37298","7B752E4707DA4A4A86AB34D985529BFB-2025-08-18-11-10-02","","25358","","[""<span style=\""color: red; font-size: 24px\""> NOW RECORDING</span><p>Please say out loud all the images you saw, as many as you can remember. The images can be said in any order.</p>""]","","1","the_performance_causal"
"","","","","","image-button-response","56","412498","0.0-12.0-0.0","7B752E4707DA4A4A86AB34D985529BFB","7B752E4707DA4A4A86AB34D985529BFB","0198bcc2-d28d-7844-ba2d-4dff4e3a9dc9","0198bbb8-fd11-701d-9147-68794ad37298","{""num_scrambled_semantic"":""8"",""num_scrambled_causal"":""4"",""num_scrambled_schematic"":""4"",""participantId"":""7B752E4707DA4A4A86AB34D985529BFB"",""assignmentId"":""0198bcc2-d28d-7844-ba2d-4dff4e3a9dc9"",""projectId"":""0198bbb8-fd11-701d-9147-68794ad37298""}","https://test12345.live/?num_scrambled_semantic=8&num_scrambled_causal=4&num_scrambled_schematic=4&participantId=7B752E4707DA4A4A86AB34D985529BFB&assignmentId=0198bcc2-d28d-7844-ba2d-4dff4e3a9dc9&projectId=0198bbb8-fd11-701d-9147-68794ad37298","7B752E4707DA4A4A86AB34D985529BFB-2025-08-18-11-10-02","","null","","images/semantic_sequence/creative_activities_semantic/creative_activities_semantic_0.png","null","",""
"","","","","","image-button-response","57","417059","0.0-12.0-1.0-0.0","7B752E4707DA4A4A86AB34D985529BFB","7B752E4707DA4A4A86AB34D985529BFB","0198bcc2-d28d-7844-ba2d-4dff4e3a9dc9","0198bbb8-fd11-701d-9147-68794ad37298","{""num_scrambled_semantic"":""8"",""num_scrambled_causal"":""4"",""num_scrambled_schematic"":""4"",""participantId"":""7B752E4707DA4A4A86AB34D985529BFB"",""assignmentId"":""0198bcc2-d28d-7844-ba2d-4dff4e3a9dc9"",""projectId"":""0198bbb8-fd11-701d-9147-68794ad37298""}","https://test12345.live/?num_scrambled_semantic=8&num_scrambled_causal=4&num_scrambled_schematic=4&participantId=7B752E4707DA4A4A86AB34D985529BFB&assignmentId=0198bcc2-d28d-7844-ba2d-4dff4e3a9dc9&projectId=0198bbb8-fd11-701d-9147-68794ad37298","7B752E4707DA4A4A86AB34D985529BFB-2025-08-18-11-10-02","","null","","images/semantic_sequence/creative_activities_semantic/creative_activities_semantic_7.png","null","",""
"","","","","","image-button-response","58","418257","0.0-12.0-1.0-1.0","7B752E4707DA4A4A86AB34D985529BFB","7B752E4707DA4A4A86AB34D985529BFB","0198bcc2-d28d-7844-ba2d-4dff4e3a9dc9","0198bbb8-fd11-701d-9147-68794ad37298","{""num_scrambled_semantic"":""8"",""num_scrambled_causal"":""4"",""num_scrambled_schematic"":""4"",""participantId"":""7B752E4707DA4A4A86AB34D985529BFB"",""assignmentId"":""0198bcc2-d28d-7844-ba2d-4dff4e3a9dc9"",""projectId"":""0198bbb8-fd11-701d-9147-68794ad37298""}","https://test12345.live/?num_scrambled_semantic=8&num_scrambled_causal=4&num_scrambled_schematic=4&participantId=7B752E4707DA4A4A86AB34D985529BFB&assignmentId=0198bcc2-d28d-7844-ba2d-4dff4e3a9dc9&projectId=0198bbb8-fd11-701d-9147-68794ad37298","7B752E4707DA4A4A86AB34D985529BFB-2025-08-18-11-10-02","","1197","","images/semantic_sequence/creative_activities_semantic/creative_activities_semantic_7.png","0","",""
"","","","","","image-button-response","59","429382","0.0-12.0-1.0-2.0","7B752E4707DA4A4A86AB34D985529BFB","7B752E4707DA4A4A86AB34D985529BFB","0198bcc2-d28d-7844-ba2d-4dff4e3a9dc9","0198bbb8-fd11-701d-9147-68794ad37298","{""num_scrambled_semantic"":""8"",""num_scrambled_causal"":""4"",""num_scrambled_schematic"":""4"",""participantId"":""7B752E4707DA4A4A86AB34D985529BFB"",""assignmentId"":""0198bcc2-d28d-7844-ba2d-4dff4e3a9dc9"",""projectId"":""0198bbb8-fd11-701d-9147-68794ad37298""}","https://test12345.live/?num_scrambled_semantic=8&num_scrambled_causal=4&num_scrambled_schematic=4&participantId=7B752E4707DA4A4A86AB34D985529BFB&assignmentId=0198bcc2-d28d-7844-ba2d-4dff4e3a9dc9&projectId=0198bbb8-fd11-701d-9147-68794ad37298","7B752E4707DA4A4A86AB34D985529BFB-2025-08-18-11-10-02","","null","","[]","null","",""
"","","","","","image-button-response","60","433902","0.0-12.0-1.0-0.1","7B752E4707DA4A4A86AB34D985529BFB","7B752E4707DA4A4A86AB34D985529BFB","0198bcc2-d28d-7844-ba2d-4dff4e3a9dc9","0198bbb8-fd11-701d-9147-68794ad37298","{""num_scrambled_semantic"":""8"",""num_scrambled_causal"":""4"",""num_scrambled_schematic"":""4"",""participantId"":""7B752E4707DA4A4A86AB34D985529BFB"",""assignmentId"":""0198bcc2-d28d-7844-ba2d-4dff4e3a9dc9"",""projectId"":""0198bbb8-fd11-701d-9147-68794ad37298""}","https://test12345.live/?num_scrambled_semantic=8&num_scrambled_causal=4&num_scrambled_schematic=4&participantId=7B752E4707DA4A4A86AB34D985529BFB&assignmentId=0198bcc2-d28d-7844-ba2d-4dff4e3a9dc9&projectId=0198bbb8-fd11-701d-9147-68794ad37298","7B752E4707DA4A4A86AB34D985529BFB-2025-08-18-11-10-02","","null","","images/semantic_sequence/creative_activities_semantic/creative_activities_semantic_ten.png","null","",""
"","","","","","image-button-response","61","435852","0.0-12.0-1.0-1.1","7B752E4707DA4A4A86AB34D985529BFB","7B752E4707DA4A4A86AB34D985529BFB","0198bcc2-d28d-7844-ba2d-4dff4e3a9dc9","0198bbb8-fd11-701d-9147-68794ad37298","{""num_scrambled_semantic"":""8"",""num_scrambled_causal"":""4"",""num_scrambled_schematic"":""4"",""participantId"":""7B752E4707DA4A4A86AB34D985529BFB"",""assignmentId"":""0198bcc2-d28d-7844-ba2d-4dff4e3a9dc9"",""projectId"":""0198bbb8-fd11-701d-9147-68794ad37298""}","https://test12345.live/?num_scrambled_semantic=8&num_scrambled_causal=4&num_scrambled_schematic=4&participantId=7B752E4707DA4A4A86AB34D985529BFB&assignmentId=0198bcc2-d28d-7844-ba2d-4dff4e3a9dc9&projectId=0198bbb8-fd11-701d-9147-68794ad37298","7B752E4707DA4A4A86AB34D985529BFB-2025-08-18-11-10-02","","1950","","images/semantic_sequence/creative_activities_semantic/creative_activities_semantic_ten.png","0","",""
"","","","","","image-button-response","62","446723","0.0-12.0-1.0-2.1","7B752E4707DA4A4A86AB34D985529BFB","7B752E4707DA4A4A86AB34D985529BFB","0198bcc2-d28d-7844-ba2d-4dff4e3a9dc9","0198bbb8-fd11-701d-9147-68794ad37298","{""num_scrambled_semantic"":""8"",""num_scrambled_causal"":""4"",""num_scrambled_schematic"":""4"",""participantId"":""7B752E4707DA4A4A86AB34D985529BFB"",""assignmentId"":""0198bcc2-d28d-7844-ba2d-4dff4e3a9dc9"",""projectId"":""0198bbb8-fd11-701d-9147-68794ad37298""}","https://test12345.live/?num_scrambled_semantic=8&num_scrambled_causal=4&num_scrambled_schematic=4&participantId=7B752E4707DA4A4A86AB34D985529BFB&assignmentId=0198bcc2-d28d-7844-ba2d-4dff4e3a9dc9&projectId=0198bbb8-fd11-701d-9147-68794ad37298","7B752E4707DA4A4A86AB34D985529BFB-2025-08-18-11-10-02","","null","","[]","null","",""
"","","","","","image-button-response","63","451242","0.0-12.0-1.0-0.2","7B752E4707DA4A4A86AB34D985529BFB","7B752E4707DA4A4A86AB34D985529BFB","0198bcc2-d28d-7844-ba2d-4dff4e3a9dc9","0198bbb8-fd11-701d-9147-68794ad37298","{""num_scrambled_semantic"":""8"",""num_scrambled_causal"":""4"",""num_scrambled_schematic"":""4"",""participantId"":""7B752E4707DA4A4A86AB34D985529BFB"",""assignmentId"":""0198bcc2-d28d-7844-ba2d-4dff4e3a9dc9"",""projectId"":""0198bbb8-fd11-701d-9147-68794ad37298""}","https://test12345.live/?num_scrambled_semantic=8&num_scrambled_causal=4&num_scrambled_schematic=4&participantId=7B752E4707DA4A4A86AB34D985529BFB&assignmentId=0198bcc2-d28d-7844-ba2d-4dff4e3a9dc9&projectId=0198bbb8-fd11-701d-9147-68794ad37298","7B752E4707DA4A4A86AB34D985529BFB-2025-08-18-11-10-02","","null","","images/semantic_sequence/creative_activities_semantic/creative_activities_semantic_4.png","null","",""
"","","","","","image-button-response","64","452526","0.0-12.0-1.0-1.2","7B752E4707DA4A4A86AB34D985529BFB","7B752E4707DA4A4A86AB34D985529BFB","0198bcc2-d28d-7844-ba2d-4dff4e3a9dc9","0198bbb8-fd11-701d-9147-68794ad37298","{""num_scrambled_semantic"":""8"",""num_scrambled_causal"":""4"",""num_scrambled_schematic"":""4"",""participantId"":""7B752E4707DA4A4A86AB34D985529BFB"",""assignmentId"":""0198bcc2-d28d-7844-ba2d-4dff4e3a9dc9"",""projectId"":""0198bbb8-fd11-701d-9147-68794ad37298""}","https://test12345.live/?num_scrambled_semantic=8&num_scrambled_causal=4&num_scrambled_schematic=4&participantId=7B752E4707DA4A4A86AB34D985529BFB&assignmentId=0198bcc2-d28d-7844-ba2d-4dff4e3a9dc9&projectId=0198bbb8-fd11-701d-9147-68794ad37298","7B752E4707DA4A4A86AB34D985529BFB-2025-08-18-11-10-02","","1285","","images/semantic_sequence/creative_activities_semantic/creative_activities_semantic_4.png","0","",""
"","","","","","image-button-response","65","463340","0.0-12.0-1.0-2.2","7B752E4707DA4A4A86AB34D985529BFB","7B752E4707DA4A4A86AB34D985529BFB","0198bcc2-d28d-7844-ba2d-4dff4e3a9dc9","0198bbb8-fd11-701d-9147-68794ad37298","{""num_scrambled_semantic"":""8"",""num_scrambled_causal"":""4"",""num_scrambled_schematic"":""4"",""participantId"":""7B752E4707DA4A4A86AB34D985529BFB"",""assignmentId"":""0198bcc2-d28d-7844-ba2d-4dff4e3a9dc9"",""projectId"":""0198bbb8-fd11-701d-9147-68794ad37298""}","https://test12345.live/?num_scrambled_semantic=8&num_scrambled_causal=4&num_scrambled_schematic=4&participantId=7B752E4707DA4A4A86AB34D985529BFB&assignmentId=0198bcc2-d28d-7844-ba2d-4dff4e3a9dc9&projectId=0198bbb8-fd11-701d-9147-68794ad37298","7B752E4707DA4A4A86AB34D985529BFB-2025-08-18-11-10-02","","null","","[]","null","",""
"","","","","","image-button-response","66","467854","0.0-12.0-1.0-0.3","7B752E4707DA4A4A86AB34D985529BFB","7B752E4707DA4A4A86AB34D985529BFB","0198bcc2-d28d-7844-ba2d-4dff4e3a9dc9","0198bbb8-fd11-701d-9147-68794ad37298","{""num_scrambled_semantic"":""8"",""num_scrambled_causal"":""4"",""num_scrambled_schematic"":""4"",""participantId"":""7B752E4707DA4A4A86AB34D985529BFB"",""assignmentId"":""0198bcc2-d28d-7844-ba2d-4dff4e3a9dc9"",""projectId"":""0198bbb8-fd11-701d-9147-68794ad37298""}","https://test12345.live/?num_scrambled_semantic=8&num_scrambled_causal=4&num_scrambled_schematic=4&participantId=7B752E4707DA4A4A86AB34D985529BFB&assignmentId=0198bcc2-d28d-7844-ba2d-4dff4e3a9dc9&projectId=0198bbb8-fd11-701d-9147-68794ad37298","7B752E4707DA4A4A86AB34D985529BFB-2025-08-18-11-10-02","","null","","images/semantic_sequence/creative_activities_semantic/creative_activities_semantic_1.png","null","",""
"","","","","","image-button-response","67","469143","0.0-12.0-1.0-1.3","7B752E4707DA4A4A86AB34D985529BFB","7B752E4707DA4A4A86AB34D985529BFB","0198bcc2-d28d-7844-ba2d-4dff4e3a9dc9","0198bbb8-fd11-701d-9147-68794ad37298","{""num_scrambled_semantic"":""8"",""num_scrambled_causal"":""4"",""num_scrambled_schematic"":""4"",""participantId"":""7B752E4707DA4A4A86AB34D985529BFB"",""assignmentId"":""0198bcc2-d28d-7844-ba2d-4dff4e3a9dc9"",""projectId"":""0198bbb8-fd11-701d-9147-68794ad37298""}","https://test12345.live/?num_scrambled_semantic=8&num_scrambled_causal=4&num_scrambled_schematic=4&participantId=7B752E4707DA4A4A86AB34D985529BFB&assignmentId=0198bcc2-d28d-7844-ba2d-4dff4e3a9dc9&projectId=0198bbb8-fd11-701d-9147-68794ad37298","7B752E4707DA4A4A86AB34D985529BFB-2025-08-18-11-10-02","","1288","","images/semantic_sequence/creative_activities_semantic/creative_activities_semantic_1.png","0","",""
"","","","","","image-button-response","68","480272","0.0-12.0-1.0-2.3","7B752E4707DA4A4A86AB34D985529BFB","7B752E4707DA4A4A86AB34D985529BFB","0198bcc2-d28d-7844-ba2d-4dff4e3a9dc9","0198bbb8-fd11-701d-9147-68794ad37298","{""num_scrambled_semantic"":""8"",""num_scrambled_causal"":""4"",""num_scrambled_schematic"":""4"",""participantId"":""7B752E4707DA4A4A86AB34D985529BFB"",""assignmentId"":""0198bcc2-d28d-7844-ba2d-4dff4e3a9dc9"",""projectId"":""0198bbb8-fd11-701d-9147-68794ad37298""}","https://test12345.live/?num_scrambled_semantic=8&num_scrambled_causal=4&num_scrambled_schematic=4&participantId=7B752E4707DA4A4A86AB34D985529BFB&assignmentId=0198bcc2-d28d-7844-ba2d-4dff4e3a9dc9&projectId=0198bbb8-fd11-701d-9147-68794ad37298","7B752E4707DA4A4A86AB34D985529BFB-2025-08-18-11-10-02","","null","","[]","null","",""
"","","","","","image-button-response","69","484798","0.0-12.0-1.0-0.4","7B752E4707DA4A4A86AB34D985529BFB","7B752E4707DA4A4A86AB34D985529BFB","0198bcc2-d28d-7844-ba2d-4dff4e3a9dc9","0198bbb8-fd11-701d-9147-68794ad37298","{""num_scrambled_semantic"":""8"",""num_scrambled_causal"":""4"",""num_scrambled_schematic"":""4"",""participantId"":""7B752E4707DA4A4A86AB34D985529BFB"",""assignmentId"":""0198bcc2-d28d-7844-ba2d-4dff4e3a9dc9"",""projectId"":""0198bbb8-fd11-701d-9147-68794ad37298""}","https://test12345.live/?num_scrambled_semantic=8&num_scrambled_causal=4&num_scrambled_schematic=4&participantId=7B752E4707DA4A4A86AB34D985529BFB&assignmentId=0198bcc2-d28d-7844-ba2d-4dff4e3a9dc9&projectId=0198bbb8-fd11-701d-9147-68794ad37298","7B752E4707DA4A4A86AB34D985529BFB-2025-08-18-11-10-02","","null","","images/semantic_sequence/creative_activities_semantic/creative_activities_semantic_9.png","null","",""
"","","","","","image-button-response","70","487383","0.0-12.0-1.0-1.4","7B752E4707DA4A4A86AB34D985529BFB","7B752E4707DA4A4A86AB34D985529BFB","0198bcc2-d28d-7844-ba2d-4dff4e3a9dc9","0198bbb8-fd11-701d-9147-68794ad37298","{""num_scrambled_semantic"":""8"",""num_scrambled_causal"":""4"",""num_scrambled_schematic"":""4"",""participantId"":""7B752E4707DA4A4A86AB34D985529BFB"",""assignmentId"":""0198bcc2-d28d-7844-ba2d-4dff4e3a9dc9"",""projectId"":""0198bbb8-fd11-701d-9147-68794ad37298""}","https://test12345.live/?num_scrambled_semantic=8&num_scrambled_causal=4&num_scrambled_schematic=4&participantId=7B752E4707DA4A4A86AB34D985529BFB&assignmentId=0198bcc2-d28d-7844-ba2d-4dff4e3a9dc9&projectId=0198bbb8-fd11-701d-9147-68794ad37298","7B752E4707DA4A4A86AB34D985529BFB-2025-08-18-11-10-02","","2585","","images/semantic_sequence/creative_activities_semantic/creative_activities_semantic_9.png","1","",""
"","","","","","image-button-response","71","498887","0.0-12.0-1.0-2.4","7B752E4707DA4A4A86AB34D985529BFB","7B752E4707DA4A4A86AB34D985529BFB","0198bcc2-d28d-7844-ba2d-4dff4e3a9dc9","0198bbb8-fd11-701d-9147-68794ad37298","{""num_scrambled_semantic"":""8"",""num_scrambled_causal"":""4"",""num_scrambled_schematic"":""4"",""participantId"":""7B752E4707DA4A4A86AB34D985529BFB"",""assignmentId"":""0198bcc2-d28d-7844-ba2d-4dff4e3a9dc9"",""projectId"":""0198bbb8-fd11-701d-9147-68794ad37298""}","https://test12345.live/?num_scrambled_semantic=8&num_scrambled_causal=4&num_scrambled_schematic=4&participantId=7B752E4707DA4A4A86AB34D985529BFB&assignmentId=0198bcc2-d28d-7844-ba2d-4dff4e3a9dc9&projectId=0198bbb8-fd11-701d-9147-68794ad37298","7B752E4707DA4A4A86AB34D985529BFB-2025-08-18-11-10-02","","null","","[]","null","",""
"","","","","","image-button-response","72","503424","0.0-12.0-1.0-0.5","7B752E4707DA4A4A86AB34D985529BFB","7B752E4707DA4A4A86AB34D985529BFB","0198bcc2-d28d-7844-ba2d-4dff4e3a9dc9","0198bbb8-fd11-701d-9147-68794ad37298","{""num_scrambled_semantic"":""8"",""num_scrambled_causal"":""4"",""num_scrambled_schematic"":""4"",""participantId"":""7B752E4707DA4A4A86AB34D985529BFB"",""assignmentId"":""0198bcc2-d28d-7844-ba2d-4dff4e3a9dc9"",""projectId"":""0198bbb8-fd11-701d-9147-68794ad37298""}","https://test12345.live/?num_scrambled_semantic=8&num_scrambled_causal=4&num_scrambled_schematic=4&participantId=7B752E4707DA4A4A86AB34D985529BFB&assignmentId=0198bcc2-d28d-7844-ba2d-4dff4e3a9dc9&projectId=0198bbb8-fd11-701d-9147-68794ad37298","7B752E4707DA4A4A86AB34D985529BFB-2025-08-18-11-10-02","","null","","images/semantic_sequence/creative_activities_semantic/creative_activities_semantic_8.png","null","",""
"","","","","","image-button-response","73","504428","0.0-12.0-1.0-1.5","7B752E4707DA4A4A86AB34D985529BFB","7B752E4707DA4A4A86AB34D985529BFB","0198bcc2-d28d-7844-ba2d-4dff4e3a9dc9","0198bbb8-fd11-701d-9147-68794ad37298","{""num_scrambled_semantic"":""8"",""num_scrambled_causal"":""4"",""num_scrambled_schematic"":""4"",""participantId"":""7B752E4707DA4A4A86AB34D985529BFB"",""assignmentId"":""0198bcc2-d28d-7844-ba2d-4dff4e3a9dc9"",""projectId"":""0198bbb8-fd11-701d-9147-68794ad37298""}","https://test12345.live/?num_scrambled_semantic=8&num_scrambled_causal=4&num_scrambled_schematic=4&participantId=7B752E4707DA4A4A86AB34D985529BFB&assignmentId=0198bcc2-d28d-7844-ba2d-4dff4e3a9dc9&projectId=0198bbb8-fd11-701d-9147-68794ad37298","7B752E4707DA4A4A86AB34D985529BFB-2025-08-18-11-10-02","","1003","","images/semantic_sequence/creative_activities_semantic/creative_activities_semantic_8.png","0","",""
"","","","","","image-button-response","74","515473","0.0-12.0-1.0-2.5","7B752E4707DA4A4A86AB34D985529BFB","7B752E4707DA4A4A86AB34D985529BFB","0198bcc2-d28d-7844-ba2d-4dff4e3a9dc9","0198bbb8-fd11-701d-9147-68794ad37298","{""num_scrambled_semantic"":""8"",""num_scrambled_causal"":""4"",""num_scrambled_schematic"":""4"",""participantId"":""7B752E4707DA4A4A86AB34D985529BFB"",""assignmentId"":""0198bcc2-d28d-7844-ba2d-4dff4e3a9dc9"",""projectId"":""0198bbb8-fd11-701d-9147-68794ad37298""}","https://test12345.live/?num_scrambled_semantic=8&num_scrambled_causal=4&num_scrambled_schematic=4&participantId=7B752E4707DA4A4A86AB34D985529BFB&assignmentId=0198bcc2-d28d-7844-ba2d-4dff4e3a9dc9&projectId=0198bbb8-fd11-701d-9147-68794ad37298","7B752E4707DA4A4A86AB34D985529BFB-2025-08-18-11-10-02","","null","","[]","null","",""
"","","","","","image-button-response","75","520436","0.0-12.0-1.0-0.6","7B752E4707DA4A4A86AB34D985529BFB","7B752E4707DA4A4A86AB34D985529BFB","0198bcc2-d28d-7844-ba2d-4dff4e3a9dc9","0198bbb8-fd11-701d-9147-68794ad37298","{""num_scrambled_semantic"":""8"",""num_scrambled_causal"":""4"",""num_scrambled_schematic"":""4"",""participantId"":""7B752E4707DA4A4A86AB34D985529BFB"",""assignmentId"":""0198bcc2-d28d-7844-ba2d-4dff4e3a9dc9"",""projectId"":""0198bbb8-fd11-701d-9147-68794ad37298""}","https://test12345.live/?num_scrambled_semantic=8&num_scrambled_causal=4&num_scrambled_schematic=4&participantId=7B752E4707DA4A4A86AB34D985529BFB&assignmentId=0198bcc2-d28d-7844-ba2d-4dff4e3a9dc9&projectId=0198bbb8-fd11-701d-9147-68794ad37298","7B752E4707DA4A4A86AB34D985529BFB-2025-08-18-11-10-02","","null","","images/semantic_sequence/creative_activities_semantic/creative_activities_semantic_3.png","null","",""
"","","","","","image-button-response","76","521937","0.0-12.0-1.0-1.6","7B752E4707DA4A4A86AB34D985529BFB","7B752E4707DA4A4A86AB34D985529BFB","0198bcc2-d28d-7844-ba2d-4dff4e3a9dc9","0198bbb8-fd11-701d-9147-68794ad37298","{""num_scrambled_semantic"":""8"",""num_scrambled_causal"":""4"",""num_scrambled_schematic"":""4"",""participantId"":""7B752E4707DA4A4A86AB34D985529BFB"",""assignmentId"":""0198bcc2-d28d-7844-ba2d-4dff4e3a9dc9"",""projectId"":""0198bbb8-fd11-701d-9147-68794ad37298""}","https://test12345.live/?num_scrambled_semantic=8&num_scrambled_causal=4&num_scrambled_schematic=4&participantId=7B752E4707DA4A4A86AB34D985529BFB&assignmentId=0198bcc2-d28d-7844-ba2d-4dff4e3a9dc9&projectId=0198bbb8-fd11-701d-9147-68794ad37298","7B752E4707DA4A4A86AB34D985529BFB-2025-08-18-11-10-02","","1500","","images/semantic_sequence/creative_activities_semantic/creative_activities_semantic_3.png","0","",""
"","","","","","image-button-response","77","532998","0.0-12.0-1.0-2.6","7B752E4707DA4A4A86AB34D985529BFB","7B752E4707DA4A4A86AB34D985529BFB","0198bcc2-d28d-7844-ba2d-4dff4e3a9dc9","0198bbb8-fd11-701d-9147-68794ad37298","{""num_scrambled_semantic"":""8"",""num_scrambled_causal"":""4"",""num_scrambled_schematic"":""4"",""participantId"":""7B752E4707DA4A4A86AB34D985529BFB"",""assignmentId"":""0198bcc2-d28d-7844-ba2d-4dff4e3a9dc9"",""projectId"":""0198bbb8-fd11-701d-9147-68794ad37298""}","https://test12345.live/?num_scrambled_semantic=8&num_scrambled_causal=4&num_scrambled_schematic=4&participantId=7B752E4707DA4A4A86AB34D985529BFB&assignmentId=0198bcc2-d28d-7844-ba2d-4dff4e3a9dc9&projectId=0198bbb8-fd11-701d-9147-68794ad37298","7B752E4707DA4A4A86AB34D985529BFB-2025-08-18-11-10-02","","null","","[]","null","",""
"","","","","","image-button-response","78","537521","0.0-12.0-1.0-0.7","7B752E4707DA4A4A86AB34D985529BFB","7B752E4707DA4A4A86AB34D985529BFB","0198bcc2-d28d-7844-ba2d-4dff4e3a9dc9","0198bbb8-fd11-701d-9147-68794ad37298","{""num_scrambled_semantic"":""8"",""num_scrambled_causal"":""4"",""num_scrambled_schematic"":""4"",""participantId"":""7B752E4707DA4A4A86AB34D985529BFB"",""assignmentId"":""0198bcc2-d28d-7844-ba2d-4dff4e3a9dc9"",""projectId"":""0198bbb8-fd11-701d-9147-68794ad37298""}","https://test12345.live/?num_scrambled_semantic=8&num_scrambled_causal=4&num_scrambled_schematic=4&participantId=7B752E4707DA4A4A86AB34D985529BFB&assignmentId=0198bcc2-d28d-7844-ba2d-4dff4e3a9dc9&projectId=0198bbb8-fd11-701d-9147-68794ad37298","7B752E4707DA4A4A86AB34D985529BFB-2025-08-18-11-10-02","","null","","images/semantic_sequence/creative_activities_semantic/creative_activities_semantic_2.png","null","",""
"","","","","","image-button-response","79","539219","0.0-12.0-1.0-1.7","7B752E4707DA4A4A86AB34D985529BFB","7B752E4707DA4A4A86AB34D985529BFB","0198bcc2-d28d-7844-ba2d-4dff4e3a9dc9","0198bbb8-fd11-701d-9147-68794ad37298","{""num_scrambled_semantic"":""8"",""num_scrambled_causal"":""4"",""num_scrambled_schematic"":""4"",""participantId"":""7B752E4707DA4A4A86AB34D985529BFB"",""assignmentId"":""0198bcc2-d28d-7844-ba2d-4dff4e3a9dc9"",""projectId"":""0198bbb8-fd11-701d-9147-68794ad37298""}","https://test12345.live/?num_scrambled_semantic=8&num_scrambled_causal=4&num_scrambled_schematic=4&participantId=7B752E4707DA4A4A86AB34D985529BFB&assignmentId=0198bcc2-d28d-7844-ba2d-4dff4e3a9dc9&projectId=0198bbb8-fd11-701d-9147-68794ad37298","7B752E4707DA4A4A86AB34D985529BFB-2025-08-18-11-10-02","","1697","","images/semantic_sequence/creative_activities_semantic/creative_activities_semantic_2.png","0","",""
"","","","","","image-button-response","80","550704","0.0-12.0-1.0-2.7","7B752E4707DA4A4A86AB34D985529BFB","7B752E4707DA4A4A86AB34D985529BFB","0198bcc2-d28d-7844-ba2d-4dff4e3a9dc9","0198bbb8-fd11-701d-9147-68794ad37298","{""num_scrambled_semantic"":""8"",""num_scrambled_causal"":""4"",""num_scrambled_schematic"":""4"",""participantId"":""7B752E4707DA4A4A86AB34D985529BFB"",""assignmentId"":""0198bcc2-d28d-7844-ba2d-4dff4e3a9dc9"",""projectId"":""0198bbb8-fd11-701d-9147-68794ad37298""}","https://test12345.live/?num_scrambled_semantic=8&num_scrambled_causal=4&num_scrambled_schematic=4&participantId=7B752E4707DA4A4A86AB34D985529BFB&assignmentId=0198bcc2-d28d-7844-ba2d-4dff4e3a9dc9&projectId=0198bbb8-fd11-701d-9147-68794ad37298","7B752E4707DA4A4A86AB34D985529BFB-2025-08-18-11-10-02","","null","","[]","null","",""
"","","","","","image-button-response","81","555222","0.0-12.0-1.0-0.8","7B752E4707DA4A4A86AB34D985529BFB","7B752E4707DA4A4A86AB34D985529BFB","0198bcc2-d28d-7844-ba2d-4dff4e3a9dc9","0198bbb8-fd11-701d-9147-68794ad37298","{""num_scrambled_semantic"":""8"",""num_scrambled_causal"":""4"",""num_scrambled_schematic"":""4"",""participantId"":""7B752E4707DA4A4A86AB34D985529BFB"",""assignmentId"":""0198bcc2-d28d-7844-ba2d-4dff4e3a9dc9"",""projectId"":""0198bbb8-fd11-701d-9147-68794ad37298""}","https://test12345.live/?num_scrambled_semantic=8&num_scrambled_causal=4&num_scrambled_schematic=4&participantId=7B752E4707DA4A4A86AB34D985529BFB&assignmentId=0198bcc2-d28d-7844-ba2d-4dff4e3a9dc9&projectId=0198bbb8-fd11-701d-9147-68794ad37298","7B752E4707DA4A4A86AB34D985529BFB-2025-08-18-11-10-02","","null","","images/semantic_sequence/creative_activities_semantic/creative_activities_semantic_6.png","null","",""
"","","","","","image-button-response","82","556908","0.0-12.0-1.0-1.8","7B752E4707DA4A4A86AB34D985529BFB","7B752E4707DA4A4A86AB34D985529BFB","0198bcc2-d28d-7844-ba2d-4dff4e3a9dc9","0198bbb8-fd11-701d-9147-68794ad37298","{""num_scrambled_semantic"":""8"",""num_scrambled_causal"":""4"",""num_scrambled_schematic"":""4"",""participantId"":""7B752E4707DA4A4A86AB34D985529BFB"",""assignmentId"":""0198bcc2-d28d-7844-ba2d-4dff4e3a9dc9"",""projectId"":""0198bbb8-fd11-701d-9147-68794ad37298""}","https://test12345.live/?num_scrambled_semantic=8&num_scrambled_causal=4&num_scrambled_schematic=4&participantId=7B752E4707DA4A4A86AB34D985529BFB&assignmentId=0198bcc2-d28d-7844-ba2d-4dff4e3a9dc9&projectId=0198bbb8-fd11-701d-9147-68794ad37298","7B752E4707DA4A4A86AB34D985529BFB-2025-08-18-11-10-02","","1684","","images/semantic_sequence/creative_activities_semantic/creative_activities_semantic_6.png","0","",""
"","","","","","image-button-response","83","567717","0.0-12.0-1.0-2.8","7B752E4707DA4A4A86AB34D985529BFB","7B752E4707DA4A4A86AB34D985529BFB","0198bcc2-d28d-7844-ba2d-4dff4e3a9dc9","0198bbb8-fd11-701d-9147-68794ad37298","{""num_scrambled_semantic"":""8"",""num_scrambled_causal"":""4"",""num_scrambled_schematic"":""4"",""participantId"":""7B752E4707DA4A4A86AB34D985529BFB"",""assignmentId"":""0198bcc2-d28d-7844-ba2d-4dff4e3a9dc9"",""projectId"":""0198bbb8-fd11-701d-9147-68794ad37298""}","https://test12345.live/?num_scrambled_semantic=8&num_scrambled_causal=4&num_scrambled_schematic=4&participantId=7B752E4707DA4A4A86AB34D985529BFB&assignmentId=0198bcc2-d28d-7844-ba2d-4dff4e3a9dc9&projectId=0198bbb8-fd11-701d-9147-68794ad37298","7B752E4707DA4A4A86AB34D985529BFB-2025-08-18-11-10-02","","null","","[]","null","",""
"","","","","","image-button-response","84","572429","0.0-12.0-1.0-0.9","7B752E4707DA4A4A86AB34D985529BFB","7B752E4707DA4A4A86AB34D985529BFB","0198bcc2-d28d-7844-ba2d-4dff4e3a9dc9","0198bbb8-fd11-701d-9147-68794ad37298","{""num_scrambled_semantic"":""8"",""num_scrambled_causal"":""4"",""num_scrambled_schematic"":""4"",""participantId"":""7B752E4707DA4A4A86AB34D985529BFB"",""assignmentId"":""0198bcc2-d28d-7844-ba2d-4dff4e3a9dc9"",""projectId"":""0198bbb8-fd11-701d-9147-68794ad37298""}","https://test12345.live/?num_scrambled_semantic=8&num_scrambled_causal=4&num_scrambled_schematic=4&participantId=7B752E4707DA4A4A86AB34D985529BFB&assignmentId=0198bcc2-d28d-7844-ba2d-4dff4e3a9dc9&projectId=0198bbb8-fd11-701d-9147-68794ad37298","7B752E4707DA4A4A86AB34D985529BFB-2025-08-18-11-10-02","","null","","images/semantic_sequence/creative_activities_semantic/creative_activities_semantic_5.png","null","",""
"","","","","","image-button-response","85","575768","0.0-12.0-1.0-1.9","7B752E4707DA4A4A86AB34D985529BFB","7B752E4707DA4A4A86AB34D985529BFB","0198bcc2-d28d-7844-ba2d-4dff4e3a9dc9","0198bbb8-fd11-701d-9147-68794ad37298","{""num_scrambled_semantic"":""8"",""num_scrambled_causal"":""4"",""num_scrambled_schematic"":""4"",""participantId"":""7B752E4707DA4A4A86AB34D985529BFB"",""assignmentId"":""0198bcc2-d28d-7844-ba2d-4dff4e3a9dc9"",""projectId"":""0198bbb8-fd11-701d-9147-68794ad37298""}","https://test12345.live/?num_scrambled_semantic=8&num_scrambled_causal=4&num_scrambled_schematic=4&participantId=7B752E4707DA4A4A86AB34D985529BFB&assignmentId=0198bcc2-d28d-7844-ba2d-4dff4e3a9dc9&projectId=0198bbb8-fd11-701d-9147-68794ad37298","7B752E4707DA4A4A86AB34D985529BFB-2025-08-18-11-10-02","","3339","","images/semantic_sequence/creative_activities_semantic/creative_activities_semantic_5.png","0","",""
"","","","","","image-button-response","86","586991","0.0-12.0-1.0-2.9","7B752E4707DA4A4A86AB34D985529BFB","7B752E4707DA4A4A86AB34D985529BFB","0198bcc2-d28d-7844-ba2d-4dff4e3a9dc9","0198bbb8-fd11-701d-9147-68794ad37298","{""num_scrambled_semantic"":""8"",""num_scrambled_causal"":""4"",""num_scrambled_schematic"":""4"",""participantId"":""7B752E4707DA4A4A86AB34D985529BFB"",""assignmentId"":""0198bcc2-d28d-7844-ba2d-4dff4e3a9dc9"",""projectId"":""0198bbb8-fd11-701d-9147-68794ad37298""}","https://test12345.live/?num_scrambled_semantic=8&num_scrambled_causal=4&num_scrambled_schematic=4&participantId=7B752E4707DA4A4A86AB34D985529BFB&assignmentId=0198bcc2-d28d-7844-ba2d-4dff4e3a9dc9&projectId=0198bbb8-fd11-701d-9147-68794ad37298","7B752E4707DA4A4A86AB34D985529BFB-2025-08-18-11-10-02","","null","","[]","null","",""
"","","","","","html-audio-response","87","610464","0.0-13.0","7B752E4707DA4A4A86AB34D985529BFB","7B752E4707DA4A4A86AB34D985529BFB","0198bcc2-d28d-7844-ba2d-4dff4e3a9dc9","0198bbb8-fd11-701d-9147-68794ad37298","{""num_scrambled_semantic"":""8"",""num_scrambled_causal"":""4"",""num_scrambled_schematic"":""4"",""participantId"":""7B752E4707DA4A4A86AB34D985529BFB"",""assignmentId"":""0198bcc2-d28d-7844-ba2d-4dff4e3a9dc9"",""projectId"":""0198bbb8-fd11-701d-9147-68794ad37298""}","https://test12345.live/?num_scrambled_semantic=8&num_scrambled_causal=4&num_scrambled_schematic=4&participantId=7B752E4707DA4A4A86AB34D985529BFB&assignmentId=0198bcc2-d28d-7844-ba2d-4dff4e3a9dc9&projectId=0198bbb8-fd11-701d-9147-68794ad37298","7B752E4707DA4A4A86AB34D985529BFB-2025-08-18-11-10-02","","19435","","[""<span style=\""color: red; font-size: 24px\""> NOW RECORDING</span><p>Please say out loud all the images you saw, as many as you can remember. The images can be said in any order.</p>""]","","3","creative_activities_semantic"
"","","","","","image-button-response","88","616492","0.0-14.0-0.0","7B752E4707DA4A4A86AB34D985529BFB","7B752E4707DA4A4A86AB34D985529BFB","0198bcc2-d28d-7844-ba2d-4dff4e3a9dc9","0198bbb8-fd11-701d-9147-68794ad37298","{""num_scrambled_semantic"":""8"",""num_scrambled_causal"":""4"",""num_scrambled_schematic"":""4"",""participantId"":""7B752E4707DA4A4A86AB34D985529BFB"",""assignmentId"":""0198bcc2-d28d-7844-ba2d-4dff4e3a9dc9"",""projectId"":""0198bbb8-fd11-701d-9147-68794ad37298""}","https://test12345.live/?num_scrambled_semantic=8&num_scrambled_causal=4&num_scrambled_schematic=4&participantId=7B752E4707DA4A4A86AB34D985529BFB&assignmentId=0198bcc2-d28d-7844-ba2d-4dff4e3a9dc9&projectId=0198bbb8-fd11-701d-9147-68794ad37298","7B752E4707DA4A4A86AB34D985529BFB-2025-08-18-11-10-02","","null","","images/causal_sequence/dog_causal/dog_causal_0.png","null","",""
"","","","","","image-button-response","89","621008","0.0-14.0-1.0-0.0","7B752E4707DA4A4A86AB34D985529BFB","7B752E4707DA4A4A86AB34D985529BFB","0198bcc2-d28d-7844-ba2d-4dff4e3a9dc9","0198bbb8-fd11-701d-9147-68794ad37298","{""num_scrambled_semantic"":""8"",""num_scrambled_causal"":""4"",""num_scrambled_schematic"":""4"",""participantId"":""7B752E4707DA4A4A86AB34D985529BFB"",""assignmentId"":""0198bcc2-d28d-7844-ba2d-4dff4e3a9dc9"",""projectId"":""0198bbb8-fd11-701d-9147-68794ad37298""}","https://test12345.live/?num_scrambled_semantic=8&num_scrambled_causal=4&num_scrambled_schematic=4&participantId=7B752E4707DA4A4A86AB34D985529BFB&assignmentId=0198bcc2-d28d-7844-ba2d-4dff4e3a9dc9&projectId=0198bbb8-fd11-701d-9147-68794ad37298","7B752E4707DA4A4A86AB34D985529BFB-2025-08-18-11-10-02","","null","","images/causal_sequence/dog_causal/dog_causal_ten.png","null","",""
"","","","","","image-button-response","90","622194","0.0-14.0-1.0-1.0","7B752E4707DA4A4A86AB34D985529BFB","7B752E4707DA4A4A86AB34D985529BFB","0198bcc2-d28d-7844-ba2d-4dff4e3a9dc9","0198bbb8-fd11-701d-9147-68794ad37298","{""num_scrambled_semantic"":""8"",""num_scrambled_causal"":""4"",""num_scrambled_schematic"":""4"",""participantId"":""7B752E4707DA4A4A86AB34D985529BFB"",""assignmentId"":""0198bcc2-d28d-7844-ba2d-4dff4e3a9dc9"",""projectId"":""0198bbb8-fd11-701d-9147-68794ad37298""}","https://test12345.live/?num_scrambled_semantic=8&num_scrambled_causal=4&num_scrambled_schematic=4&participantId=7B752E4707DA4A4A86AB34D985529BFB&assignmentId=0198bcc2-d28d-7844-ba2d-4dff4e3a9dc9&projectId=0198bbb8-fd11-701d-9147-68794ad37298","7B752E4707DA4A4A86AB34D985529BFB-2025-08-18-11-10-02","","1187","","images/causal_sequence/dog_causal/dog_causal_ten.png","0","",""
"","","","","","image-button-response","91","633004","0.0-14.0-1.0-2.0","7B752E4707DA4A4A86AB34D985529BFB","7B752E4707DA4A4A86AB34D985529BFB","0198bcc2-d28d-7844-ba2d-4dff4e3a9dc9","0198bbb8-fd11-701d-9147-68794ad37298","{""num_scrambled_semantic"":""8"",""num_scrambled_causal"":""4"",""num_scrambled_schematic"":""4"",""participantId"":""7B752E4707DA4A4A86AB34D985529BFB"",""assignmentId"":""0198bcc2-d28d-7844-ba2d-4dff4e3a9dc9"",""projectId"":""0198bbb8-fd11-701d-9147-68794ad37298""}","https://test12345.live/?num_scrambled_semantic=8&num_scrambled_causal=4&num_scrambled_schematic=4&participantId=7B752E4707DA4A4A86AB34D985529BFB&assignmentId=0198bcc2-d28d-7844-ba2d-4dff4e3a9dc9&projectId=0198bbb8-fd11-701d-9147-68794ad37298","7B752E4707DA4A4A86AB34D985529BFB-2025-08-18-11-10-02","","null","","[]","null","",""
"","","","","","image-button-response","92","638047","0.0-14.0-1.0-0.1","7B752E4707DA4A4A86AB34D985529BFB","7B752E4707DA4A4A86AB34D985529BFB","0198bcc2-d28d-7844-ba2d-4dff4e3a9dc9","0198bbb8-fd11-701d-9147-68794ad37298","{""num_scrambled_semantic"":""8"",""num_scrambled_causal"":""4"",""num_scrambled_schematic"":""4"",""participantId"":""7B752E4707DA4A4A86AB34D985529BFB"",""assignmentId"":""0198bcc2-d28d-7844-ba2d-4dff4e3a9dc9"",""projectId"":""0198bbb8-fd11-701d-9147-68794ad37298""}","https://test12345.live/?num_scrambled_semantic=8&num_scrambled_causal=4&num_scrambled_schematic=4&participantId=7B752E4707DA4A4A86AB34D985529BFB&assignmentId=0198bcc2-d28d-7844-ba2d-4dff4e3a9dc9&projectId=0198bbb8-fd11-701d-9147-68794ad37298","7B752E4707DA4A4A86AB34D985529BFB-2025-08-18-11-10-02","","null","","images/causal_sequence/dog_causal/dog_causal_7.png","null","",""
"","","","","","image-button-response","93","639850","0.0-14.0-1.0-1.1","7B752E4707DA4A4A86AB34D985529BFB","7B752E4707DA4A4A86AB34D985529BFB","0198bcc2-d28d-7844-ba2d-4dff4e3a9dc9","0198bbb8-fd11-701d-9147-68794ad37298","{""num_scrambled_semantic"":""8"",""num_scrambled_causal"":""4"",""num_scrambled_schematic"":""4"",""participantId"":""7B752E4707DA4A4A86AB34D985529BFB"",""assignmentId"":""0198bcc2-d28d-7844-ba2d-4dff4e3a9dc9"",""projectId"":""0198bbb8-fd11-701d-9147-68794ad37298""}","https://test12345.live/?num_scrambled_semantic=8&num_scrambled_causal=4&num_scrambled_schematic=4&participantId=7B752E4707DA4A4A86AB34D985529BFB&assignmentId=0198bcc2-d28d-7844-ba2d-4dff4e3a9dc9&projectId=0198bbb8-fd11-701d-9147-68794ad37298","7B752E4707DA4A4A86AB34D985529BFB-2025-08-18-11-10-02","","1802","","images/causal_sequence/dog_causal/dog_causal_7.png","0","",""
"","","","","","image-button-response","94","650656","0.0-14.0-1.0-2.1","7B752E4707DA4A4A86AB34D985529BFB","7B752E4707DA4A4A86AB34D985529BFB","0198bcc2-d28d-7844-ba2d-4dff4e3a9dc9","0198bbb8-fd11-701d-9147-68794ad37298","{""num_scrambled_semantic"":""8"",""num_scrambled_causal"":""4"",""num_scrambled_schematic"":""4"",""participantId"":""7B752E4707DA4A4A86AB34D985529BFB"",""assignmentId"":""0198bcc2-d28d-7844-ba2d-4dff4e3a9dc9"",""projectId"":""0198bbb8-fd11-701d-9147-68794ad37298""}","https://test12345.live/?num_scrambled_semantic=8&num_scrambled_causal=4&num_scrambled_schematic=4&participantId=7B752E4707DA4A4A86AB34D985529BFB&assignmentId=0198bcc2-d28d-7844-ba2d-4dff4e3a9dc9&projectId=0198bbb8-fd11-701d-9147-68794ad37298","7B752E4707DA4A4A86AB34D985529BFB-2025-08-18-11-10-02","","null","","[]","null","",""
"","","","","","image-button-response","95","655175","0.0-14.0-1.0-0.2","7B752E4707DA4A4A86AB34D985529BFB","7B752E4707DA4A4A86AB34D985529BFB","0198bcc2-d28d-7844-ba2d-4dff4e3a9dc9","0198bbb8-fd11-701d-9147-68794ad37298","{""num_scrambled_semantic"":""8"",""num_scrambled_causal"":""4"",""num_scrambled_schematic"":""4"",""participantId"":""7B752E4707DA4A4A86AB34D985529BFB"",""assignmentId"":""0198bcc2-d28d-7844-ba2d-4dff4e3a9dc9"",""projectId"":""0198bbb8-fd11-701d-9147-68794ad37298""}","https://test12345.live/?num_scrambled_semantic=8&num_scrambled_causal=4&num_scrambled_schematic=4&participantId=7B752E4707DA4A4A86AB34D985529BFB&assignmentId=0198bcc2-d28d-7844-ba2d-4dff4e3a9dc9&projectId=0198bbb8-fd11-701d-9147-68794ad37298","7B752E4707DA4A4A86AB34D985529BFB-2025-08-18-11-10-02","","null","","images/causal_sequence/dog_causal/dog_causal_1.png","null","",""
"","","","","","image-button-response","96","657537","0.0-14.0-1.0-1.2","7B752E4707DA4A4A86AB34D985529BFB","7B752E4707DA4A4A86AB34D985529BFB","0198bcc2-d28d-7844-ba2d-4dff4e3a9dc9","0198bbb8-fd11-701d-9147-68794ad37298","{""num_scrambled_semantic"":""8"",""num_scrambled_causal"":""4"",""num_scrambled_schematic"":""4"",""participantId"":""7B752E4707DA4A4A86AB34D985529BFB"",""assignmentId"":""0198bcc2-d28d-7844-ba2d-4dff4e3a9dc9"",""projectId"":""0198bbb8-fd11-701d-9147-68794ad37298""}","https://test12345.live/?num_scrambled_semantic=8&num_scrambled_causal=4&num_scrambled_schematic=4&participantId=7B752E4707DA4A4A86AB34D985529BFB&assignmentId=0198bcc2-d28d-7844-ba2d-4dff4e3a9dc9&projectId=0198bbb8-fd11-701d-9147-68794ad37298","7B752E4707DA4A4A86AB34D985529BFB-2025-08-18-11-10-02","","2361","","images/causal_sequence/dog_causal/dog_causal_1.png","0","",""
"","","","","","image-button-response","97","668344","0.0-14.0-1.0-2.2","7B752E4707DA4A4A86AB34D985529BFB","7B752E4707DA4A4A86AB34D985529BFB","0198bcc2-d28d-7844-ba2d-4dff4e3a9dc9","0198bbb8-fd11-701d-9147-68794ad37298","{""num_scrambled_semantic"":""8"",""num_scrambled_causal"":""4"",""num_scrambled_schematic"":""4"",""participantId"":""7B752E4707DA4A4A86AB34D985529BFB"",""assignmentId"":""0198bcc2-d28d-7844-ba2d-4dff4e3a9dc9"",""projectId"":""0198bbb8-fd11-701d-9147-68794ad37298""}","https://test12345.live/?num_scrambled_semantic=8&num_scrambled_causal=4&num_scrambled_schematic=4&participantId=7B752E4707DA4A4A86AB34D985529BFB&assignmentId=0198bcc2-d28d-7844-ba2d-4dff4e3a9dc9&projectId=0198bbb8-fd11-701d-9147-68794ad37298","7B752E4707DA4A4A86AB34D985529BFB-2025-08-18-11-10-02","","null","","[]","null","",""
"","","","","","image-button-response","98","673348","0.0-14.0-1.0-0.3","7B752E4707DA4A4A86AB34D985529BFB","7B752E4707DA4A4A86AB34D985529BFB","0198bcc2-d28d-7844-ba2d-4dff4e3a9dc9","0198bbb8-fd11-701d-9147-68794ad37298","{""num_scrambled_semantic"":""8"",""num_scrambled_causal"":""4"",""num_scrambled_schematic"":""4"",""participantId"":""7B752E4707DA4A4A86AB34D985529BFB"",""assignmentId"":""0198bcc2-d28d-7844-ba2d-4dff4e3a9dc9"",""projectId"":""0198bbb8-fd11-701d-9147-68794ad37298""}","https://test12345.live/?num_scrambled_semantic=8&num_scrambled_causal=4&num_scrambled_schematic=4&participantId=7B752E4707DA4A4A86AB34D985529BFB&assignmentId=0198bcc2-d28d-7844-ba2d-4dff4e3a9dc9&projectId=0198bbb8-fd11-701d-9147-68794ad37298","7B752E4707DA4A4A86AB34D985529BFB-2025-08-18-11-10-02","","null","","images/causal_sequence/dog_causal/dog_causal_2.png","null","",""
"","","","","","image-button-response","99","674597","0.0-14.0-1.0-1.3","7B752E4707DA4A4A86AB34D985529BFB","7B752E4707DA4A4A86AB34D985529BFB","0198bcc2-d28d-7844-ba2d-4dff4e3a9dc9","0198bbb8-fd11-701d-9147-68794ad37298","{""num_scrambled_semantic"":""8"",""num_scrambled_causal"":""4"",""num_scrambled_schematic"":""4"",""participantId"":""7B752E4707DA4A4A86AB34D985529BFB"",""assignmentId"":""0198bcc2-d28d-7844-ba2d-4dff4e3a9dc9"",""projectId"":""0198bbb8-fd11-701d-9147-68794ad37298""}","https://test12345.live/?num_scrambled_semantic=8&num_scrambled_causal=4&num_scrambled_schematic=4&participantId=7B752E4707DA4A4A86AB34D985529BFB&assignmentId=0198bcc2-d28d-7844-ba2d-4dff4e3a9dc9&projectId=0198bbb8-fd11-701d-9147-68794ad37298","7B752E4707DA4A4A86AB34D985529BFB-2025-08-18-11-10-02","","1248","","images/causal_sequence/dog_causal/dog_causal_2.png","0","",""
"","","","","","image-button-response","100","685408","0.0-14.0-1.0-2.3","7B752E4707DA4A4A86AB34D985529BFB","7B752E4707DA4A4A86AB34D985529BFB","0198bcc2-d28d-7844-ba2d-4dff4e3a9dc9","0198bbb8-fd11-701d-9147-68794ad37298","{""num_scrambled_semantic"":""8"",""num_scrambled_causal"":""4"",""num_scrambled_schematic"":""4"",""participantId"":""7B752E4707DA4A4A86AB34D985529BFB"",""assignmentId"":""0198bcc2-d28d-7844-ba2d-4dff4e3a9dc9"",""projectId"":""0198bbb8-fd11-701d-9147-68794ad37298""}","https://test12345.live/?num_scrambled_semantic=8&num_scrambled_causal=4&num_scrambled_schematic=4&participantId=7B752E4707DA4A4A86AB34D985529BFB&assignmentId=0198bcc2-d28d-7844-ba2d-4dff4e3a9dc9&projectId=0198bbb8-fd11-701d-9147-68794ad37298","7B752E4707DA4A4A86AB34D985529BFB-2025-08-18-11-10-02","","null","","[]","null","",""
"","","","","","image-button-response","101","689926","0.0-14.0-1.0-0.4","7B752E4707DA4A4A86AB34D985529BFB","7B752E4707DA4A4A86AB34D985529BFB","0198bcc2-d28d-7844-ba2d-4dff4e3a9dc9","0198bbb8-fd11-701d-9147-68794ad37298","{""num_scrambled_semantic"":""8"",""num_scrambled_causal"":""4"",""num_scrambled_schematic"":""4"",""participantId"":""7B752E4707DA4A4A86AB34D985529BFB"",""assignmentId"":""0198bcc2-d28d-7844-ba2d-4dff4e3a9dc9"",""projectId"":""0198bbb8-fd11-701d-9147-68794ad37298""}","https://test12345.live/?num_scrambled_semantic=8&num_scrambled_causal=4&num_scrambled_schematic=4&participantId=7B752E4707DA4A4A86AB34D985529BFB&assignmentId=0198bcc2-d28d-7844-ba2d-4dff4e3a9dc9&projectId=0198bbb8-fd11-701d-9147-68794ad37298","7B752E4707DA4A4A86AB34D985529BFB-2025-08-18-11-10-02","","null","","images/causal_sequence/dog_causal/dog_causal_8.png","null","",""
"","","","","","image-button-response","102","693041","0.0-14.0-1.0-1.4","7B752E4707DA4A4A86AB34D985529BFB","7B752E4707DA4A4A86AB34D985529BFB","0198bcc2-d28d-7844-ba2d-4dff4e3a9dc9","0198bbb8-fd11-701d-9147-68794ad37298","{""num_scrambled_semantic"":""8"",""num_scrambled_causal"":""4"",""num_scrambled_schematic"":""4"",""participantId"":""7B752E4707DA4A4A86AB34D985529BFB"",""assignmentId"":""0198bcc2-d28d-7844-ba2d-4dff4e3a9dc9"",""projectId"":""0198bbb8-fd11-701d-9147-68794ad37298""}","https://test12345.live/?num_scrambled_semantic=8&num_scrambled_causal=4&num_scrambled_schematic=4&participantId=7B752E4707DA4A4A86AB34D985529BFB&assignmentId=0198bcc2-d28d-7844-ba2d-4dff4e3a9dc9&projectId=0198bbb8-fd11-701d-9147-68794ad37298","7B752E4707DA4A4A86AB34D985529BFB-2025-08-18-11-10-02","","3115","","images/causal_sequence/dog_causal/dog_causal_8.png","0","",""
"","","","","","image-button-response","103","704175","0.0-14.0-1.0-2.4","7B752E4707DA4A4A86AB34D985529BFB","7B752E4707DA4A4A86AB34D985529BFB","0198bcc2-d28d-7844-ba2d-4dff4e3a9dc9","0198bbb8-fd11-701d-9147-68794ad37298","{""num_scrambled_semantic"":""8"",""num_scrambled_causal"":""4"",""num_scrambled_schematic"":""4"",""participantId"":""7B752E4707DA4A4A86AB34D985529BFB"",""assignmentId"":""0198bcc2-d28d-7844-ba2d-4dff4e3a9dc9"",""projectId"":""0198bbb8-fd11-701d-9147-68794ad37298""}","https://test12345.live/?num_scrambled_semantic=8&num_scrambled_causal=4&num_scrambled_schematic=4&participantId=7B752E4707DA4A4A86AB34D985529BFB&assignmentId=0198bcc2-d28d-7844-ba2d-4dff4e3a9dc9&projectId=0198bbb8-fd11-701d-9147-68794ad37298","7B752E4707DA4A4A86AB34D985529BFB-2025-08-18-11-10-02","","null","","[]","null","",""
"","","","","","image-button-response","104","708817","0.0-14.0-1.0-0.5","7B752E4707DA4A4A86AB34D985529BFB","7B752E4707DA4A4A86AB34D985529BFB","0198bcc2-d28d-7844-ba2d-4dff4e3a9dc9","0198bbb8-fd11-701d-9147-68794ad37298","{""num_scrambled_semantic"":""8"",""num_scrambled_causal"":""4"",""num_scrambled_schematic"":""4"",""participantId"":""7B752E4707DA4A4A86AB34D985529BFB"",""assignmentId"":""0198bcc2-d28d-7844-ba2d-4dff4e3a9dc9"",""projectId"":""0198bbb8-fd11-701d-9147-68794ad37298""}","https://test12345.live/?num_scrambled_semantic=8&num_scrambled_causal=4&num_scrambled_schematic=4&participantId=7B752E4707DA4A4A86AB34D985529BFB&assignmentId=0198bcc2-d28d-7844-ba2d-4dff4e3a9dc9&projectId=0198bbb8-fd11-701d-9147-68794ad37298","7B752E4707DA4A4A86AB34D985529BFB-2025-08-18-11-10-02","","null","","images/causal_sequence/dog_causal/dog_causal_9.png","null","",""
"","","","","","image-button-response","105","712337","0.0-14.0-1.0-1.5","7B752E4707DA4A4A86AB34D985529BFB","7B752E4707DA4A4A86AB34D985529BFB","0198bcc2-d28d-7844-ba2d-4dff4e3a9dc9","0198bbb8-fd11-701d-9147-68794ad37298","{""num_scrambled_semantic"":""8"",""num_scrambled_causal"":""4"",""num_scrambled_schematic"":""4"",""participantId"":""7B752E4707DA4A4A86AB34D985529BFB"",""assignmentId"":""0198bcc2-d28d-7844-ba2d-4dff4e3a9dc9"",""projectId"":""0198bbb8-fd11-701d-9147-68794ad37298""}","https://test12345.live/?num_scrambled_semantic=8&num_scrambled_causal=4&num_scrambled_schematic=4&participantId=7B752E4707DA4A4A86AB34D985529BFB&assignmentId=0198bcc2-d28d-7844-ba2d-4dff4e3a9dc9&projectId=0198bbb8-fd11-701d-9147-68794ad37298","7B752E4707DA4A4A86AB34D985529BFB-2025-08-18-11-10-02","","3518","","images/causal_sequence/dog_causal/dog_causal_9.png","0","",""
"","","","","","image-button-response","106","723288","0.0-14.0-1.0-2.5","7B752E4707DA4A4A86AB34D985529BFB","7B752E4707DA4A4A86AB34D985529BFB","0198bcc2-d28d-7844-ba2d-4dff4e3a9dc9","0198bbb8-fd11-701d-9147-68794ad37298","{""num_scrambled_semantic"":""8"",""num_scrambled_causal"":""4"",""num_scrambled_schematic"":""4"",""participantId"":""7B752E4707DA4A4A86AB34D985529BFB"",""assignmentId"":""0198bcc2-d28d-7844-ba2d-4dff4e3a9dc9"",""projectId"":""0198bbb8-fd11-701d-9147-68794ad37298""}","https://test12345.live/?num_scrambled_semantic=8&num_scrambled_causal=4&num_scrambled_schematic=4&participantId=7B752E4707DA4A4A86AB34D985529BFB&assignmentId=0198bcc2-d28d-7844-ba2d-4dff4e3a9dc9&projectId=0198bbb8-fd11-701d-9147-68794ad37298","7B752E4707DA4A4A86AB34D985529BFB-2025-08-18-11-10-02","","null","","[]","null","",""
"","","","","","image-button-response","107","728038","0.0-14.0-1.0-0.6","7B752E4707DA4A4A86AB34D985529BFB","7B752E4707DA4A4A86AB34D985529BFB","0198bcc2-d28d-7844-ba2d-4dff4e3a9dc9","0198bbb8-fd11-701d-9147-68794ad37298","{""num_scrambled_semantic"":""8"",""num_scrambled_causal"":""4"",""num_scrambled_schematic"":""4"",""participantId"":""7B752E4707DA4A4A86AB34D985529BFB"",""assignmentId"":""0198bcc2-d28d-7844-ba2d-4dff4e3a9dc9"",""projectId"":""0198bbb8-fd11-701d-9147-68794ad37298""}","https://test12345.live/?num_scrambled_semantic=8&num_scrambled_causal=4&num_scrambled_schematic=4&participantId=7B752E4707DA4A4A86AB34D985529BFB&assignmentId=0198bcc2-d28d-7844-ba2d-4dff4e3a9dc9&projectId=0198bbb8-fd11-701d-9147-68794ad37298","7B752E4707DA4A4A86AB34D985529BFB-2025-08-18-11-10-02","","null","","images/causal_sequence/dog_causal/dog_causal_6.png","null","",""
"","","","","","image-button-response","108","730757","0.0-14.0-1.0-1.6","7B752E4707DA4A4A86AB34D985529BFB","7B752E4707DA4A4A86AB34D985529BFB","0198bcc2-d28d-7844-ba2d-4dff4e3a9dc9","0198bbb8-fd11-701d-9147-68794ad37298","{""num_scrambled_semantic"":""8"",""num_scrambled_causal"":""4"",""num_scrambled_schematic"":""4"",""participantId"":""7B752E4707DA4A4A86AB34D985529BFB"",""assignmentId"":""0198bcc2-d28d-7844-ba2d-4dff4e3a9dc9"",""projectId"":""0198bbb8-fd11-701d-9147-68794ad37298""}","https://test12345.live/?num_scrambled_semantic=8&num_scrambled_causal=4&num_scrambled_schematic=4&participantId=7B752E4707DA4A4A86AB34D985529BFB&assignmentId=0198bcc2-d28d-7844-ba2d-4dff4e3a9dc9&projectId=0198bbb8-fd11-701d-9147-68794ad37298","7B752E4707DA4A4A86AB34D985529BFB-2025-08-18-11-10-02","","2719","","images/causal_sequence/dog_causal/dog_causal_6.png","0","",""
"","","","","","image-button-response","109","741561","0.0-14.0-1.0-2.6","7B752E4707DA4A4A86AB34D985529BFB","7B752E4707DA4A4A86AB34D985529BFB","0198bcc2-d28d-7844-ba2d-4dff4e3a9dc9","0198bbb8-fd11-701d-9147-68794ad37298","{""num_scrambled_semantic"":""8"",""num_scrambled_causal"":""4"",""num_scrambled_schematic"":""4"",""participantId"":""7B752E4707DA4A4A86AB34D985529BFB"",""assignmentId"":""0198bcc2-d28d-7844-ba2d-4dff4e3a9dc9"",""projectId"":""0198bbb8-fd11-701d-9147-68794ad37298""}","https://test12345.live/?num_scrambled_semantic=8&num_scrambled_causal=4&num_scrambled_schematic=4&participantId=7B752E4707DA4A4A86AB34D985529BFB&assignmentId=0198bcc2-d28d-7844-ba2d-4dff4e3a9dc9&projectId=0198bbb8-fd11-701d-9147-68794ad37298","7B752E4707DA4A4A86AB34D985529BFB-2025-08-18-11-10-02","","null","","[]","null","",""
"","","","","","image-button-response","110","746087","0.0-14.0-1.0-0.7","7B752E4707DA4A4A86AB34D985529BFB","7B752E4707DA4A4A86AB34D985529BFB","0198bcc2-d28d-7844-ba2d-4dff4e3a9dc9","0198bbb8-fd11-701d-9147-68794ad37298","{""num_scrambled_semantic"":""8"",""num_scrambled_causal"":""4"",""num_scrambled_schematic"":""4"",""participantId"":""7B752E4707DA4A4A86AB34D985529BFB"",""assignmentId"":""0198bcc2-d28d-7844-ba2d-4dff4e3a9dc9"",""projectId"":""0198bbb8-fd11-701d-9147-68794ad37298""}","https://test12345.live/?num_scrambled_semantic=8&num_scrambled_causal=4&num_scrambled_schematic=4&participantId=7B752E4707DA4A4A86AB34D985529BFB&assignmentId=0198bcc2-d28d-7844-ba2d-4dff4e3a9dc9&projectId=0198bbb8-fd11-701d-9147-68794ad37298","7B752E4707DA4A4A86AB34D985529BFB-2025-08-18-11-10-02","","null","","images/causal_sequence/dog_causal/dog_causal_3.png","null","",""
"","","","","","image-button-response","111","747584","0.0-14.0-1.0-1.7","7B752E4707DA4A4A86AB34D985529BFB","7B752E4707DA4A4A86AB34D985529BFB","0198bcc2-d28d-7844-ba2d-4dff4e3a9dc9","0198bbb8-fd11-701d-9147-68794ad37298","{""num_scrambled_semantic"":""8"",""num_scrambled_causal"":""4"",""num_scrambled_schematic"":""4"",""participantId"":""7B752E4707DA4A4A86AB34D985529BFB"",""assignmentId"":""0198bcc2-d28d-7844-ba2d-4dff4e3a9dc9"",""projectId"":""0198bbb8-fd11-701d-9147-68794ad37298""}","https://test12345.live/?num_scrambled_semantic=8&num_scrambled_causal=4&num_scrambled_schematic=4&participantId=7B752E4707DA4A4A86AB34D985529BFB&assignmentId=0198bcc2-d28d-7844-ba2d-4dff4e3a9dc9&projectId=0198bbb8-fd11-701d-9147-68794ad37298","7B752E4707DA4A4A86AB34D985529BFB-2025-08-18-11-10-02","","1496","","images/causal_sequence/dog_causal/dog_causal_3.png","0","",""
"","","","","","image-button-response","112","758434","0.0-14.0-1.0-2.7","7B752E4707DA4A4A86AB34D985529BFB","7B752E4707DA4A4A86AB34D985529BFB","0198bcc2-d28d-7844-ba2d-4dff4e3a9dc9","0198bbb8-fd11-701d-9147-68794ad37298","{""num_scrambled_semantic"":""8"",""num_scrambled_causal"":""4"",""num_scrambled_schematic"":""4"",""participantId"":""7B752E4707DA4A4A86AB34D985529BFB"",""assignmentId"":""0198bcc2-d28d-7844-ba2d-4dff4e3a9dc9"",""projectId"":""0198bbb8-fd11-701d-9147-68794ad37298""}","https://test12345.live/?num_scrambled_semantic=8&num_scrambled_causal=4&num_scrambled_schematic=4&participantId=7B752E4707DA4A4A86AB34D985529BFB&assignmentId=0198bcc2-d28d-7844-ba2d-4dff4e3a9dc9&projectId=0198bbb8-fd11-701d-9147-68794ad37298","7B752E4707DA4A4A86AB34D985529BFB-2025-08-18-11-10-02","","null","","[]","null","",""
"","","","","","image-button-response","113","763413","0.0-14.0-1.0-0.8","7B752E4707DA4A4A86AB34D985529BFB","7B752E4707DA4A4A86AB34D985529BFB","0198bcc2-d28d-7844-ba2d-4dff4e3a9dc9","0198bbb8-fd11-701d-9147-68794ad37298","{""num_scrambled_semantic"":""8"",""num_scrambled_causal"":""4"",""num_scrambled_schematic"":""4"",""participantId"":""7B752E4707DA4A4A86AB34D985529BFB"",""assignmentId"":""0198bcc2-d28d-7844-ba2d-4dff4e3a9dc9"",""projectId"":""0198bbb8-fd11-701d-9147-68794ad37298""}","https://test12345.live/?num_scrambled_semantic=8&num_scrambled_causal=4&num_scrambled_schematic=4&participantId=7B752E4707DA4A4A86AB34D985529BFB&assignmentId=0198bcc2-d28d-7844-ba2d-4dff4e3a9dc9&projectId=0198bbb8-fd11-701d-9147-68794ad37298","7B752E4707DA4A4A86AB34D985529BFB-2025-08-18-11-10-02","","null","","images/causal_sequence/dog_causal/dog_causal_4.png","null","",""
"","","","","","image-button-response","114","764237","0.0-14.0-1.0-1.8","7B752E4707DA4A4A86AB34D985529BFB","7B752E4707DA4A4A86AB34D985529BFB","0198bcc2-d28d-7844-ba2d-4dff4e3a9dc9","0198bbb8-fd11-701d-9147-68794ad37298","{""num_scrambled_semantic"":""8"",""num_scrambled_causal"":""4"",""num_scrambled_schematic"":""4"",""participantId"":""7B752E4707DA4A4A86AB34D985529BFB"",""assignmentId"":""0198bcc2-d28d-7844-ba2d-4dff4e3a9dc9"",""projectId"":""0198bbb8-fd11-701d-9147-68794ad37298""}","https://test12345.live/?num_scrambled_semantic=8&num_scrambled_causal=4&num_scrambled_schematic=4&participantId=7B752E4707DA4A4A86AB34D985529BFB&assignmentId=0198bcc2-d28d-7844-ba2d-4dff4e3a9dc9&projectId=0198bbb8-fd11-701d-9147-68794ad37298","7B752E4707DA4A4A86AB34D985529BFB-2025-08-18-11-10-02","","824","","images/causal_sequence/dog_causal/dog_causal_4.png","0","",""
