"success","timeout","failed_images","failed_audio","failed_video","trial_type","trial_index","time_elapsed","internal_node_id","subject","subject_id","study_id","session_id","urlvar","current_url","audio_id","view_history","rt","device_id","stimulus","response","estimated_stimulus_onset","seq_name"
"true","false","[]","[]","[]","preload","0","16475","0.0-0.0","7BB5F928B5964D0D9107C754975857A7","7BB5F928B5964D0D9107C754975857A7","0198ee55-a43f-7796-86e2-7a836980f7f2","0198ee3c-27ac-7803-a9ea-f3b4ad4ad678","{""num_scrambled_semantic"":""8"",""num_scrambled_causal"":""4"",""num_scrambled_schematic"":""4"",""participantId"":""7BB5F928B5964D0D9107C754975857A7"",""assignmentId"":""0198ee55-a43f-7796-86e2-7a836980f7f2"",""projectId"":""0198ee3c-27ac-7803-a9ea-f3b4ad4ad678""}","https://test12345.live/?num_scrambled_semantic=8&num_scrambled_causal=4&num_scrambled_schematic=4&participantId=7BB5F928B5964D0D9107C754975857A7&assignmentId=0198ee55-a43f-7796-86e2-7a836980f7f2&projectId=0198ee3c-27ac-7803-a9ea-f3b4ad4ad678","7BB5F928B5964D0D9107C754975857A7-2025-08-28-02-27-26","","","","","","",""
"","","","","","instructions","1","89737","0.0-1.0","7BB5F928B5964D0D9107C754975857A7","7BB5F928B5964D0D9107C754975857A7","0198ee55-a43f-7796-86e2-7a836980f7f2","0198ee3c-27ac-7803-a9ea-f3b4ad4ad678","{""num_scrambled_semantic"":""8"",""num_scrambled_causal"":""4"",""num_scrambled_schematic"":""4"",""participantId"":""7BB5F928B5964D0D9107C754975857A7"",""assignmentId"":""0198ee55-a43f-7796-86e2-7a836980f7f2"",""projectId"":""0198ee3c-27ac-7803-a9ea-f3b4ad4ad678""}","https://test12345.live/?num_scrambled_semantic=8&num_scrambled_causal=4&num_scrambled_schematic=4&participantId=7BB5F928B5964D0D9107C754975857A7&assignmentId=0198ee55-a43f-7796-86e2-7a836980f7f2&projectId=0198ee3c-27ac-7803-a9ea-f3b4ad4ad678","7BB5F928B5964D0D9107C754975857A7-2025-08-28-02-27-26","[{""page_index"":0,""viewing_time"":73261}]","73262","","","","",""
"","","","","","instructions","2","108743","0.0-2.0","7BB5F928B5964D0D9107C754975857A7","7BB5F928B5964D0D9107C754975857A7","0198ee55-a43f-7796-86e2-7a836980f7f2","0198ee3c-27ac-7803-a9ea-f3b4ad4ad678","{""num_scrambled_semantic"":""8"",""num_scrambled_causal"":""4"",""num_scrambled_schematic"":""4"",""participantId"":""7BB5F928B5964D0D9107C754975857A7"",""assignmentId"":""0198ee55-a43f-7796-86e2-7a836980f7f2"",""projectId"":""0198ee3c-27ac-7803-a9ea-f3b4ad4ad678""}","https://test12345.live/?num_scrambled_semantic=8&num_scrambled_causal=4&num_scrambled_schematic=4&participantId=7BB5F928B5964D0D9107C754975857A7&assignmentId=0198ee55-a43f-7796-86e2-7a836980f7f2&projectId=0198ee3c-27ac-7803-a9ea-f3b4ad4ad678","7BB5F928B5964D0D9107C754975857A7-2025-08-28-02-27-26","[{""page_index"":0,""viewing_time"":19005}]","19006","","","","",""
"true","","","","","fullscreen","3","111167","0.0-3.0","7BB5F928B5964D0D9107C754975857A7","7BB5F928B5964D0D9107C754975857A7","0198ee55-a43f-7796-86e2-7a836980f7f2","0198ee3c-27ac-7803-a9ea-f3b4ad4ad678","{""num_scrambled_semantic"":""8"",""num_scrambled_causal"":""4"",""num_scrambled_schematic"":""4"",""participantId"":""7BB5F928B5964D0D9107C754975857A7"",""assignmentId"":""0198ee55-a43f-7796-86e2-7a836980f7f2"",""projectId"":""0198ee3c-27ac-7803-a9ea-f3b4ad4ad678""}","https://test12345.live/?num_scrambled_semantic=8&num_scrambled_causal=4&num_scrambled_schematic=4&participantId=7BB5F928B5964D0D9107C754975857A7&assignmentId=0198ee55-a43f-7796-86e2-7a836980f7f2&projectId=0198ee3c-27ac-7803-a9ea-f3b4ad4ad678","7BB5F928B5964D0D9107C754975857A7-2025-08-28-02-27-26","","1422","","","","",""
"","","","","","initialize-microphone","4","142931","0.0-4.0-0.0","7BB5F928B5964D0D9107C754975857A7","7BB5F928B5964D0D9107C754975857A7","0198ee55-a43f-7796-86e2-7a836980f7f2","0198ee3c-27ac-7803-a9ea-f3b4ad4ad678","{""num_scrambled_semantic"":""8"",""num_scrambled_causal"":""4"",""num_scrambled_schematic"":""4"",""participantId"":""7BB5F928B5964D0D9107C754975857A7"",""assignmentId"":""0198ee55-a43f-7796-86e2-7a836980f7f2"",""projectId"":""0198ee3c-27ac-7803-a9ea-f3b4ad4ad678""}","https://test12345.live/?num_scrambled_semantic=8&num_scrambled_causal=4&num_scrambled_schematic=4&participantId=7BB5F928B5964D0D9107C754975857A7&assignmentId=0198ee55-a43f-7796-86e2-7a836980f7f2&projectId=0198ee3c-27ac-7803-a9ea-f3b4ad4ad678","7BB5F928B5964D0D9107C754975857A7-2025-08-28-02-27-26","","","9bcddf587f597ec59a2b4e9060894831fcae44ebda3427f82ec89be1b2ded3b5","","","",""
"","","","","","html-audio-response","5","168485","0.0-4.0-1.0","7BB5F928B5964D0D9107C754975857A7","7BB5F928B5964D0D9107C754975857A7","0198ee55-a43f-7796-86e2-7a836980f7f2","0198ee3c-27ac-7803-a9ea-f3b4ad4ad678","{""num_scrambled_semantic"":""8"",""num_scrambled_causal"":""4"",""num_scrambled_schematic"":""4"",""participantId"":""7BB5F928B5964D0D9107C754975857A7"",""assignmentId"":""0198ee55-a43f-7796-86e2-7a836980f7f2"",""projectId"":""0198ee3c-27ac-7803-a9ea-f3b4ad4ad678""}","https://test12345.live/?num_scrambled_semantic=8&num_scrambled_causal=4&num_scrambled_schematic=4&participantId=7BB5F928B5964D0D9107C754975857A7&assignmentId=0198ee55-a43f-7796-86e2-7a836980f7f2&projectId=0198ee3c-27ac-7803-a9ea-f3b4ad4ad678","7BB5F928B5964D0D9107C754975857A7-2025-08-28-02-27-26","","1874","","<span style=""color: red; font-size: 24px""> NOW RECORDING</span>
        <p>Please test Microphone</p>","","1",""
"","","","","","html-button-response","6","170499","0.0-4.0-2.0","7BB5F928B5964D0D9107C754975857A7","7BB5F928B5964D0D9107C754975857A7","0198ee55-a43f-7796-86e2-7a836980f7f2","0198ee3c-27ac-7803-a9ea-f3b4ad4ad678","{""num_scrambled_semantic"":""8"",""num_scrambled_causal"":""4"",""num_scrambled_schematic"":""4"",""participantId"":""7BB5F928B5964D0D9107C754975857A7"",""assignmentId"":""0198ee55-a43f-7796-86e2-7a836980f7f2"",""projectId"":""0198ee3c-27ac-7803-a9ea-f3b4ad4ad678""}","https://test12345.live/?num_scrambled_semantic=8&num_scrambled_causal=4&num_scrambled_schematic=4&participantId=7BB5F928B5964D0D9107C754975857A7&assignmentId=0198ee55-a43f-7796-86e2-7a836980f7f2&projectId=0198ee3c-27ac-7803-a9ea-f3b4ad4ad678","7BB5F928B5964D0D9107C754975857A7-2025-08-28-02-27-26","","2013","","<p style=""font-size:48px; color:red;"">Is Microphone OK?</p>","1","",""
"","","","","","instructions","7","180009","0.0-5.0","7BB5F928B5964D0D9107C754975857A7","7BB5F928B5964D0D9107C754975857A7","0198ee55-a43f-7796-86e2-7a836980f7f2","0198ee3c-27ac-7803-a9ea-f3b4ad4ad678","{""num_scrambled_semantic"":""8"",""num_scrambled_causal"":""4"",""num_scrambled_schematic"":""4"",""participantId"":""7BB5F928B5964D0D9107C754975857A7"",""assignmentId"":""0198ee55-a43f-7796-86e2-7a836980f7f2"",""projectId"":""0198ee3c-27ac-7803-a9ea-f3b4ad4ad678""}","https://test12345.live/?num_scrambled_semantic=8&num_scrambled_causal=4&num_scrambled_schematic=4&participantId=7BB5F928B5964D0D9107C754975857A7&assignmentId=0198ee55-a43f-7796-86e2-7a836980f7f2&projectId=0198ee3c-27ac-7803-a9ea-f3b4ad4ad678","7BB5F928B5964D0D9107C754975857A7-2025-08-28-02-27-26","[{""page_index"":0,""viewing_time"":2688},{""page_index"":1,""viewing_time"":6822}]","9510","","","","",""
"","","","","","image-button-response","8","186011","0.0-6.0-0.0","7BB5F928B5964D0D9107C754975857A7","7BB5F928B5964D0D9107C754975857A7","0198ee55-a43f-7796-86e2-7a836980f7f2","0198ee3c-27ac-7803-a9ea-f3b4ad4ad678","{""num_scrambled_semantic"":""8"",""num_scrambled_causal"":""4"",""num_scrambled_schematic"":""4"",""participantId"":""7BB5F928B5964D0D9107C754975857A7"",""assignmentId"":""0198ee55-a43f-7796-86e2-7a836980f7f2"",""projectId"":""0198ee3c-27ac-7803-a9ea-f3b4ad4ad678""}","https://test12345.live/?num_scrambled_semantic=8&num_scrambled_causal=4&num_scrambled_schematic=4&participantId=7BB5F928B5964D0D9107C754975857A7&assignmentId=0198ee55-a43f-7796-86e2-7a836980f7f2&projectId=0198ee3c-27ac-7803-a9ea-f3b4ad4ad678","7BB5F928B5964D0D9107C754975857A7-2025-08-28-02-27-26","","null","","images/instructions/movie_0.png","null","",""
"","","","","","image-button-response","9","190513","0.0-6.0-1.0-0.0","7BB5F928B5964D0D9107C754975857A7","7BB5F928B5964D0D9107C754975857A7","0198ee55-a43f-7796-86e2-7a836980f7f2","0198ee3c-27ac-7803-a9ea-f3b4ad4ad678","{""num_scrambled_semantic"":""8"",""num_scrambled_causal"":""4"",""num_scrambled_schematic"":""4"",""participantId"":""7BB5F928B5964D0D9107C754975857A7"",""assignmentId"":""0198ee55-a43f-7796-86e2-7a836980f7f2"",""projectId"":""0198ee3c-27ac-7803-a9ea-f3b4ad4ad678""}","https://test12345.live/?num_scrambled_semantic=8&num_scrambled_causal=4&num_scrambled_schematic=4&participantId=7BB5F928B5964D0D9107C754975857A7&assignmentId=0198ee55-a43f-7796-86e2-7a836980f7f2&projectId=0198ee3c-27ac-7803-a9ea-f3b4ad4ad678","7BB5F928B5964D0D9107C754975857A7-2025-08-28-02-27-26","","null","","images/instructions/movie_1.png","null","",""
"","","","","","image-button-response","10","193448","0.0-6.0-1.0-1.0","7BB5F928B5964D0D9107C754975857A7","7BB5F928B5964D0D9107C754975857A7","0198ee55-a43f-7796-86e2-7a836980f7f2","0198ee3c-27ac-7803-a9ea-f3b4ad4ad678","{""num_scrambled_semantic"":""8"",""num_scrambled_causal"":""4"",""num_scrambled_schematic"":""4"",""participantId"":""7BB5F928B5964D0D9107C754975857A7"",""assignmentId"":""0198ee55-a43f-7796-86e2-7a836980f7f2"",""projectId"":""0198ee3c-27ac-7803-a9ea-f3b4ad4ad678""}","https://test12345.live/?num_scrambled_semantic=8&num_scrambled_causal=4&num_scrambled_schematic=4&participantId=7BB5F928B5964D0D9107C754975857A7&assignmentId=0198ee55-a43f-7796-86e2-7a836980f7f2&projectId=0198ee3c-27ac-7803-a9ea-f3b4ad4ad678","7BB5F928B5964D0D9107C754975857A7-2025-08-28-02-27-26","","2934","","images/instructions/movie_1.png","0","",""
"","","","","","image-button-response","11","195249","0.0-6.0-1.0-2.0","7BB5F928B5964D0D9107C754975857A7","7BB5F928B5964D0D9107C754975857A7","0198ee55-a43f-7796-86e2-7a836980f7f2","0198ee3c-27ac-7803-a9ea-f3b4ad4ad678","{""num_scrambled_semantic"":""8"",""num_scrambled_causal"":""4"",""num_scrambled_schematic"":""4"",""participantId"":""7BB5F928B5964D0D9107C754975857A7"",""assignmentId"":""0198ee55-a43f-7796-86e2-7a836980f7f2"",""projectId"":""0198ee3c-27ac-7803-a9ea-f3b4ad4ad678""}","https://test12345.live/?num_scrambled_semantic=8&num_scrambled_causal=4&num_scrambled_schematic=4&participantId=7BB5F928B5964D0D9107C754975857A7&assignmentId=0198ee55-a43f-7796-86e2-7a836980f7f2&projectId=0198ee3c-27ac-7803-a9ea-f3b4ad4ad678","7BB5F928B5964D0D9107C754975857A7-2025-08-28-02-27-26","","null","","[]","null","",""
"","","","","","image-button-response","12","199751","0.0-6.0-1.0-0.1","7BB5F928B5964D0D9107C754975857A7","7BB5F928B5964D0D9107C754975857A7","0198ee55-a43f-7796-86e2-7a836980f7f2","0198ee3c-27ac-7803-a9ea-f3b4ad4ad678","{""num_scrambled_semantic"":""8"",""num_scrambled_causal"":""4"",""num_scrambled_schematic"":""4"",""participantId"":""7BB5F928B5964D0D9107C754975857A7"",""assignmentId"":""0198ee55-a43f-7796-86e2-7a836980f7f2"",""projectId"":""0198ee3c-27ac-7803-a9ea-f3b4ad4ad678""}","https://test12345.live/?num_scrambled_semantic=8&num_scrambled_causal=4&num_scrambled_schematic=4&participantId=7BB5F928B5964D0D9107C754975857A7&assignmentId=0198ee55-a43f-7796-86e2-7a836980f7f2&projectId=0198ee3c-27ac-7803-a9ea-f3b4ad4ad678","7BB5F928B5964D0D9107C754975857A7-2025-08-28-02-27-26","","null","","images/instructions/movie_2.png","null","",""
"","","","","","image-button-response","13","203413","0.0-6.0-1.0-1.1","7BB5F928B5964D0D9107C754975857A7","7BB5F928B5964D0D9107C754975857A7","0198ee55-a43f-7796-86e2-7a836980f7f2","0198ee3c-27ac-7803-a9ea-f3b4ad4ad678","{""num_scrambled_semantic"":""8"",""num_scrambled_causal"":""4"",""num_scrambled_schematic"":""4"",""participantId"":""7BB5F928B5964D0D9107C754975857A7"",""assignmentId"":""0198ee55-a43f-7796-86e2-7a836980f7f2"",""projectId"":""0198ee3c-27ac-7803-a9ea-f3b4ad4ad678""}","https://test12345.live/?num_scrambled_semantic=8&num_scrambled_causal=4&num_scrambled_schematic=4&participantId=7BB5F928B5964D0D9107C754975857A7&assignmentId=0198ee55-a43f-7796-86e2-7a836980f7f2&projectId=0198ee3c-27ac-7803-a9ea-f3b4ad4ad678","7BB5F928B5964D0D9107C754975857A7-2025-08-28-02-27-26","","3662","","images/instructions/movie_2.png","0","",""
"","","","","","image-button-response","14","205215","0.0-6.0-1.0-2.1","7BB5F928B5964D0D9107C754975857A7","7BB5F928B5964D0D9107C754975857A7","0198ee55-a43f-7796-86e2-7a836980f7f2","0198ee3c-27ac-7803-a9ea-f3b4ad4ad678","{""num_scrambled_semantic"":""8"",""num_scrambled_causal"":""4"",""num_scrambled_schematic"":""4"",""participantId"":""7BB5F928B5964D0D9107C754975857A7"",""assignmentId"":""0198ee55-a43f-7796-86e2-7a836980f7f2"",""projectId"":""0198ee3c-27ac-7803-a9ea-f3b4ad4ad678""}","https://test12345.live/?num_scrambled_semantic=8&num_scrambled_causal=4&num_scrambled_schematic=4&participantId=7BB5F928B5964D0D9107C754975857A7&assignmentId=0198ee55-a43f-7796-86e2-7a836980f7f2&projectId=0198ee3c-27ac-7803-a9ea-f3b4ad4ad678","7BB5F928B5964D0D9107C754975857A7-2025-08-28-02-27-26","","null","","[]","null","",""
"","","","","","image-button-response","15","209716","0.0-6.0-1.0-0.2","7BB5F928B5964D0D9107C754975857A7","7BB5F928B5964D0D9107C754975857A7","0198ee55-a43f-7796-86e2-7a836980f7f2","0198ee3c-27ac-7803-a9ea-f3b4ad4ad678","{""num_scrambled_semantic"":""8"",""num_scrambled_causal"":""4"",""num_scrambled_schematic"":""4"",""participantId"":""7BB5F928B5964D0D9107C754975857A7"",""assignmentId"":""0198ee55-a43f-7796-86e2-7a836980f7f2"",""projectId"":""0198ee3c-27ac-7803-a9ea-f3b4ad4ad678""}","https://test12345.live/?num_scrambled_semantic=8&num_scrambled_causal=4&num_scrambled_schematic=4&participantId=7BB5F928B5964D0D9107C754975857A7&assignmentId=0198ee55-a43f-7796-86e2-7a836980f7f2&projectId=0198ee3c-27ac-7803-a9ea-f3b4ad4ad678","7BB5F928B5964D0D9107C754975857A7-2025-08-28-02-27-26","","null","","images/instructions/movie_3.png","null","",""
"","","","","","image-button-response","16","210597","0.0-6.0-1.0-1.2","7BB5F928B5964D0D9107C754975857A7","7BB5F928B5964D0D9107C754975857A7","0198ee55-a43f-7796-86e2-7a836980f7f2","0198ee3c-27ac-7803-a9ea-f3b4ad4ad678","{""num_scrambled_semantic"":""8"",""num_scrambled_causal"":""4"",""num_scrambled_schematic"":""4"",""participantId"":""7BB5F928B5964D0D9107C754975857A7"",""assignmentId"":""0198ee55-a43f-7796-86e2-7a836980f7f2"",""projectId"":""0198ee3c-27ac-7803-a9ea-f3b4ad4ad678""}","https://test12345.live/?num_scrambled_semantic=8&num_scrambled_causal=4&num_scrambled_schematic=4&participantId=7BB5F928B5964D0D9107C754975857A7&assignmentId=0198ee55-a43f-7796-86e2-7a836980f7f2&projectId=0198ee3c-27ac-7803-a9ea-f3b4ad4ad678","7BB5F928B5964D0D9107C754975857A7-2025-08-28-02-27-26","","880","","images/instructions/movie_3.png","0","",""
"","","","","","image-button-response","17","212398","0.0-6.0-1.0-2.2","7BB5F928B5964D0D9107C754975857A7","7BB5F928B5964D0D9107C754975857A7","0198ee55-a43f-7796-86e2-7a836980f7f2","0198ee3c-27ac-7803-a9ea-f3b4ad4ad678","{""num_scrambled_semantic"":""8"",""num_scrambled_causal"":""4"",""num_scrambled_schematic"":""4"",""participantId"":""7BB5F928B5964D0D9107C754975857A7"",""assignmentId"":""0198ee55-a43f-7796-86e2-7a836980f7f2"",""projectId"":""0198ee3c-27ac-7803-a9ea-f3b4ad4ad678""}","https://test12345.live/?num_scrambled_semantic=8&num_scrambled_causal=4&num_scrambled_schematic=4&participantId=7BB5F928B5964D0D9107C754975857A7&assignmentId=0198ee55-a43f-7796-86e2-7a836980f7f2&projectId=0198ee3c-27ac-7803-a9ea-f3b4ad4ad678","7BB5F928B5964D0D9107C754975857A7-2025-08-28-02-27-26","","null","","[]","null","",""
"","","","","","image-button-response","18","216898","0.0-6.0-1.0-0.3","7BB5F928B5964D0D9107C754975857A7","7BB5F928B5964D0D9107C754975857A7","0198ee55-a43f-7796-86e2-7a836980f7f2","0198ee3c-27ac-7803-a9ea-f3b4ad4ad678","{""num_scrambled_semantic"":""8"",""num_scrambled_causal"":""4"",""num_scrambled_schematic"":""4"",""participantId"":""7BB5F928B5964D0D9107C754975857A7"",""assignmentId"":""0198ee55-a43f-7796-86e2-7a836980f7f2"",""projectId"":""0198ee3c-27ac-7803-a9ea-f3b4ad4ad678""}","https://test12345.live/?num_scrambled_semantic=8&num_scrambled_causal=4&num_scrambled_schematic=4&participantId=7BB5F928B5964D0D9107C754975857A7&assignmentId=0198ee55-a43f-7796-86e2-7a836980f7f2&projectId=0198ee3c-27ac-7803-a9ea-f3b4ad4ad678","7BB5F928B5964D0D9107C754975857A7-2025-08-28-02-27-26","","null","","images/instructions/movie_4.png","null","",""
"","","","","","image-button-response","19","217875","0.0-6.0-1.0-1.3","7BB5F928B5964D0D9107C754975857A7","7BB5F928B5964D0D9107C754975857A7","0198ee55-a43f-7796-86e2-7a836980f7f2","0198ee3c-27ac-7803-a9ea-f3b4ad4ad678","{""num_scrambled_semantic"":""8"",""num_scrambled_causal"":""4"",""num_scrambled_schematic"":""4"",""participantId"":""7BB5F928B5964D0D9107C754975857A7"",""assignmentId"":""0198ee55-a43f-7796-86e2-7a836980f7f2"",""projectId"":""0198ee3c-27ac-7803-a9ea-f3b4ad4ad678""}","https://test12345.live/?num_scrambled_semantic=8&num_scrambled_causal=4&num_scrambled_schematic=4&participantId=7BB5F928B5964D0D9107C754975857A7&assignmentId=0198ee55-a43f-7796-86e2-7a836980f7f2&projectId=0198ee3c-27ac-7803-a9ea-f3b4ad4ad678","7BB5F928B5964D0D9107C754975857A7-2025-08-28-02-27-26","","976","","images/instructions/movie_4.png","0","",""
"","","","","","image-button-response","20","219675","0.0-6.0-1.0-2.3","7BB5F928B5964D0D9107C754975857A7","7BB5F928B5964D0D9107C754975857A7","0198ee55-a43f-7796-86e2-7a836980f7f2","0198ee3c-27ac-7803-a9ea-f3b4ad4ad678","{""num_scrambled_semantic"":""8"",""num_scrambled_causal"":""4"",""num_scrambled_schematic"":""4"",""participantId"":""7BB5F928B5964D0D9107C754975857A7"",""assignmentId"":""0198ee55-a43f-7796-86e2-7a836980f7f2"",""projectId"":""0198ee3c-27ac-7803-a9ea-f3b4ad4ad678""}","https://test12345.live/?num_scrambled_semantic=8&num_scrambled_causal=4&num_scrambled_schematic=4&participantId=7BB5F928B5964D0D9107C754975857A7&assignmentId=0198ee55-a43f-7796-86e2-7a836980f7f2&projectId=0198ee3c-27ac-7803-a9ea-f3b4ad4ad678","7BB5F928B5964D0D9107C754975857A7-2025-08-28-02-27-26","","null","","[]","null","",""
"","","","","","instructions","21","239087","0.0-7.0","7BB5F928B5964D0D9107C754975857A7","7BB5F928B5964D0D9107C754975857A7","0198ee55-a43f-7796-86e2-7a836980f7f2","0198ee3c-27ac-7803-a9ea-f3b4ad4ad678","{""num_scrambled_semantic"":""8"",""num_scrambled_causal"":""4"",""num_scrambled_schematic"":""4"",""participantId"":""7BB5F928B5964D0D9107C754975857A7"",""assignmentId"":""0198ee55-a43f-7796-86e2-7a836980f7f2"",""projectId"":""0198ee3c-27ac-7803-a9ea-f3b4ad4ad678""}","https://test12345.live/?num_scrambled_semantic=8&num_scrambled_causal=4&num_scrambled_schematic=4&participantId=7BB5F928B5964D0D9107C754975857A7&assignmentId=0198ee55-a43f-7796-86e2-7a836980f7f2&projectId=0198ee3c-27ac-7803-a9ea-f3b4ad4ad678","7BB5F928B5964D0D9107C754975857A7-2025-08-28-02-27-26","[{""page_index"":0,""viewing_time"":19411}]","19412","","","","",""
"","","","","","html-audio-response","22","255605","0.0-8.0","7BB5F928B5964D0D9107C754975857A7","7BB5F928B5964D0D9107C754975857A7","0198ee55-a43f-7796-86e2-7a836980f7f2","0198ee3c-27ac-7803-a9ea-f3b4ad4ad678","{""num_scrambled_semantic"":""8"",""num_scrambled_causal"":""4"",""num_scrambled_schematic"":""4"",""participantId"":""7BB5F928B5964D0D9107C754975857A7"",""assignmentId"":""0198ee55-a43f-7796-86e2-7a836980f7f2"",""projectId"":""0198ee3c-27ac-7803-a9ea-f3b4ad4ad678""}","https://test12345.live/?num_scrambled_semantic=8&num_scrambled_causal=4&num_scrambled_schematic=4&participantId=7BB5F928B5964D0D9107C754975857A7&assignmentId=0198ee55-a43f-7796-86e2-7a836980f7f2&projectId=0198ee3c-27ac-7803-a9ea-f3b4ad4ad678","7BB5F928B5964D0D9107C754975857A7-2025-08-28-02-27-26","","13624","","[""<span style=\""color: red; font-size: 24px\""> NOW RECORDING</span><p>Please say out loud all the images you saw, in the order of the story they create. Try to recall the sequence of events as they appeared in the story, not necessarily the order they were presented on the screen.</p>""]","","1",""
"","","","","","instructions","23","256551","0.0-9.0","7BB5F928B5964D0D9107C754975857A7","7BB5F928B5964D0D9107C754975857A7","0198ee55-a43f-7796-86e2-7a836980f7f2","0198ee3c-27ac-7803-a9ea-f3b4ad4ad678","{""num_scrambled_semantic"":""8"",""num_scrambled_causal"":""4"",""num_scrambled_schematic"":""4"",""participantId"":""7BB5F928B5964D0D9107C754975857A7"",""assignmentId"":""0198ee55-a43f-7796-86e2-7a836980f7f2"",""projectId"":""0198ee3c-27ac-7803-a9ea-f3b4ad4ad678""}","https://test12345.live/?num_scrambled_semantic=8&num_scrambled_causal=4&num_scrambled_schematic=4&participantId=7BB5F928B5964D0D9107C754975857A7&assignmentId=0198ee55-a43f-7796-86e2-7a836980f7f2&projectId=0198ee3c-27ac-7803-a9ea-f3b4ad4ad678","7BB5F928B5964D0D9107C754975857A7-2025-08-28-02-27-26","[{""page_index"":0,""viewing_time"":943}]","943","","","","",""
"","","","","","image-button-response","24","262552","0.0-10.0-0.0","7BB5F928B5964D0D9107C754975857A7","7BB5F928B5964D0D9107C754975857A7","0198ee55-a43f-7796-86e2-7a836980f7f2","0198ee3c-27ac-7803-a9ea-f3b4ad4ad678","{""num_scrambled_semantic"":""8"",""num_scrambled_causal"":""4"",""num_scrambled_schematic"":""4"",""participantId"":""7BB5F928B5964D0D9107C754975857A7"",""assignmentId"":""0198ee55-a43f-7796-86e2-7a836980f7f2"",""projectId"":""0198ee3c-27ac-7803-a9ea-f3b4ad4ad678""}","https://test12345.live/?num_scrambled_semantic=8&num_scrambled_causal=4&num_scrambled_schematic=4&participantId=7BB5F928B5964D0D9107C754975857A7&assignmentId=0198ee55-a43f-7796-86e2-7a836980f7f2&projectId=0198ee3c-27ac-7803-a9ea-f3b4ad4ad678","7BB5F928B5964D0D9107C754975857A7-2025-08-28-02-27-26","","null","","images/semantic_sequence/physical_activity_semantic/physical_activity_semantic_0.png","null","",""
"","","","","","image-button-response","25","267052","0.0-10.0-1.0-0.0","7BB5F928B5964D0D9107C754975857A7","7BB5F928B5964D0D9107C754975857A7","0198ee55-a43f-7796-86e2-7a836980f7f2","0198ee3c-27ac-7803-a9ea-f3b4ad4ad678","{""num_scrambled_semantic"":""8"",""num_scrambled_causal"":""4"",""num_scrambled_schematic"":""4"",""participantId"":""7BB5F928B5964D0D9107C754975857A7"",""assignmentId"":""0198ee55-a43f-7796-86e2-7a836980f7f2"",""projectId"":""0198ee3c-27ac-7803-a9ea-f3b4ad4ad678""}","https://test12345.live/?num_scrambled_semantic=8&num_scrambled_causal=4&num_scrambled_schematic=4&participantId=7BB5F928B5964D0D9107C754975857A7&assignmentId=0198ee55-a43f-7796-86e2-7a836980f7f2&projectId=0198ee3c-27ac-7803-a9ea-f3b4ad4ad678","7BB5F928B5964D0D9107C754975857A7-2025-08-28-02-27-26","","null","","images/semantic_sequence/physical_activity_semantic/physical_activity_semantic_5.png","null","",""
"","","","","","image-button-response","26","268742","0.0-10.0-1.0-1.0","7BB5F928B5964D0D9107C754975857A7","7BB5F928B5964D0D9107C754975857A7","0198ee55-a43f-7796-86e2-7a836980f7f2","0198ee3c-27ac-7803-a9ea-f3b4ad4ad678","{""num_scrambled_semantic"":""8"",""num_scrambled_causal"":""4"",""num_scrambled_schematic"":""4"",""participantId"":""7BB5F928B5964D0D9107C754975857A7"",""assignmentId"":""0198ee55-a43f-7796-86e2-7a836980f7f2"",""projectId"":""0198ee3c-27ac-7803-a9ea-f3b4ad4ad678""}","https://test12345.live/?num_scrambled_semantic=8&num_scrambled_causal=4&num_scrambled_schematic=4&participantId=7BB5F928B5964D0D9107C754975857A7&assignmentId=0198ee55-a43f-7796-86e2-7a836980f7f2&projectId=0198ee3c-27ac-7803-a9ea-f3b4ad4ad678","7BB5F928B5964D0D9107C754975857A7-2025-08-28-02-27-26","","1689","","images/semantic_sequence/physical_activity_semantic/physical_activity_semantic_5.png","0","",""
"","","","","","image-button-response","27","270543","0.0-10.0-1.0-2.0","7BB5F928B5964D0D9107C754975857A7","7BB5F928B5964D0D9107C754975857A7","0198ee55-a43f-7796-86e2-7a836980f7f2","0198ee3c-27ac-7803-a9ea-f3b4ad4ad678","{""num_scrambled_semantic"":""8"",""num_scrambled_causal"":""4"",""num_scrambled_schematic"":""4"",""participantId"":""7BB5F928B5964D0D9107C754975857A7"",""assignmentId"":""0198ee55-a43f-7796-86e2-7a836980f7f2"",""projectId"":""0198ee3c-27ac-7803-a9ea-f3b4ad4ad678""}","https://test12345.live/?num_scrambled_semantic=8&num_scrambled_causal=4&num_scrambled_schematic=4&participantId=7BB5F928B5964D0D9107C754975857A7&assignmentId=0198ee55-a43f-7796-86e2-7a836980f7f2&projectId=0198ee3c-27ac-7803-a9ea-f3b4ad4ad678","7BB5F928B5964D0D9107C754975857A7-2025-08-28-02-27-26","","null","","[]","null","",""
"","","","","","image-button-response","28","275045","0.0-10.0-1.0-0.1","7BB5F928B5964D0D9107C754975857A7","7BB5F928B5964D0D9107C754975857A7","0198ee55-a43f-7796-86e2-7a836980f7f2","0198ee3c-27ac-7803-a9ea-f3b4ad4ad678","{""num_scrambled_semantic"":""8"",""num_scrambled_causal"":""4"",""num_scrambled_schematic"":""4"",""participantId"":""7BB5F928B5964D0D9107C754975857A7"",""assignmentId"":""0198ee55-a43f-7796-86e2-7a836980f7f2"",""projectId"":""0198ee3c-27ac-7803-a9ea-f3b4ad4ad678""}","https://test12345.live/?num_scrambled_semantic=8&num_scrambled_causal=4&num_scrambled_schematic=4&participantId=7BB5F928B5964D0D9107C754975857A7&assignmentId=0198ee55-a43f-7796-86e2-7a836980f7f2&projectId=0198ee3c-27ac-7803-a9ea-f3b4ad4ad678","7BB5F928B5964D0D9107C754975857A7-2025-08-28-02-27-26","","null","","images/semantic_sequence/physical_activity_semantic/physical_activity_semantic_4.png","null","",""
"","","","","","image-button-response","29","276268","0.0-10.0-1.0-1.1","7BB5F928B5964D0D9107C754975857A7","7BB5F928B5964D0D9107C754975857A7","0198ee55-a43f-7796-86e2-7a836980f7f2","0198ee3c-27ac-7803-a9ea-f3b4ad4ad678","{""num_scrambled_semantic"":""8"",""num_scrambled_causal"":""4"",""num_scrambled_schematic"":""4"",""participantId"":""7BB5F928B5964D0D9107C754975857A7"",""assignmentId"":""0198ee55-a43f-7796-86e2-7a836980f7f2"",""projectId"":""0198ee3c-27ac-7803-a9ea-f3b4ad4ad678""}","https://test12345.live/?num_scrambled_semantic=8&num_scrambled_causal=4&num_scrambled_schematic=4&participantId=7BB5F928B5964D0D9107C754975857A7&assignmentId=0198ee55-a43f-7796-86e2-7a836980f7f2&projectId=0198ee3c-27ac-7803-a9ea-f3b4ad4ad678","7BB5F928B5964D0D9107C754975857A7-2025-08-28-02-27-26","","1223","","images/semantic_sequence/physical_activity_semantic/physical_activity_semantic_4.png","0","",""
"","","","","","image-button-response","30","278070","0.0-10.0-1.0-2.1","7BB5F928B5964D0D9107C754975857A7","7BB5F928B5964D0D9107C754975857A7","0198ee55-a43f-7796-86e2-7a836980f7f2","0198ee3c-27ac-7803-a9ea-f3b4ad4ad678","{""num_scrambled_semantic"":""8"",""num_scrambled_causal"":""4"",""num_scrambled_schematic"":""4"",""participantId"":""7BB5F928B5964D0D9107C754975857A7"",""assignmentId"":""0198ee55-a43f-7796-86e2-7a836980f7f2"",""projectId"":""0198ee3c-27ac-7803-a9ea-f3b4ad4ad678""}","https://test12345.live/?num_scrambled_semantic=8&num_scrambled_causal=4&num_scrambled_schematic=4&participantId=7BB5F928B5964D0D9107C754975857A7&assignmentId=0198ee55-a43f-7796-86e2-7a836980f7f2&projectId=0198ee3c-27ac-7803-a9ea-f3b4ad4ad678","7BB5F928B5964D0D9107C754975857A7-2025-08-28-02-27-26","","null","","[]","null","",""
"","","","","","image-button-response","31","282570","0.0-10.0-1.0-0.2","7BB5F928B5964D0D9107C754975857A7","7BB5F928B5964D0D9107C754975857A7","0198ee55-a43f-7796-86e2-7a836980f7f2","0198ee3c-27ac-7803-a9ea-f3b4ad4ad678","{""num_scrambled_semantic"":""8"",""num_scrambled_causal"":""4"",""num_scrambled_schematic"":""4"",""participantId"":""7BB5F928B5964D0D9107C754975857A7"",""assignmentId"":""0198ee55-a43f-7796-86e2-7a836980f7f2"",""projectId"":""0198ee3c-27ac-7803-a9ea-f3b4ad4ad678""}","https://test12345.live/?num_scrambled_semantic=8&num_scrambled_causal=4&num_scrambled_schematic=4&participantId=7BB5F928B5964D0D9107C754975857A7&assignmentId=0198ee55-a43f-7796-86e2-7a836980f7f2&projectId=0198ee3c-27ac-7803-a9ea-f3b4ad4ad678","7BB5F928B5964D0D9107C754975857A7-2025-08-28-02-27-26","","null","","images/semantic_sequence/physical_activity_semantic/physical_activity_semantic_1.png","null","",""
"","","","","","image-button-response","32","284090","0.0-10.0-1.0-1.2","7BB5F928B5964D0D9107C754975857A7","7BB5F928B5964D0D9107C754975857A7","0198ee55-a43f-7796-86e2-7a836980f7f2","0198ee3c-27ac-7803-a9ea-f3b4ad4ad678","{""num_scrambled_semantic"":""8"",""num_scrambled_causal"":""4"",""num_scrambled_schematic"":""4"",""participantId"":""7BB5F928B5964D0D9107C754975857A7"",""assignmentId"":""0198ee55-a43f-7796-86e2-7a836980f7f2"",""projectId"":""0198ee3c-27ac-7803-a9ea-f3b4ad4ad678""}","https://test12345.live/?num_scrambled_semantic=8&num_scrambled_causal=4&num_scrambled_schematic=4&participantId=7BB5F928B5964D0D9107C754975857A7&assignmentId=0198ee55-a43f-7796-86e2-7a836980f7f2&projectId=0198ee3c-27ac-7803-a9ea-f3b4ad4ad678","7BB5F928B5964D0D9107C754975857A7-2025-08-28-02-27-26","","1519","","images/semantic_sequence/physical_activity_semantic/physical_activity_semantic_1.png","0","",""
"","","","","","image-button-response","33","285891","0.0-10.0-1.0-2.2","7BB5F928B5964D0D9107C754975857A7","7BB5F928B5964D0D9107C754975857A7","0198ee55-a43f-7796-86e2-7a836980f7f2","0198ee3c-27ac-7803-a9ea-f3b4ad4ad678","{""num_scrambled_semantic"":""8"",""num_scrambled_causal"":""4"",""num_scrambled_schematic"":""4"",""participantId"":""7BB5F928B5964D0D9107C754975857A7"",""assignmentId"":""0198ee55-a43f-7796-86e2-7a836980f7f2"",""projectId"":""0198ee3c-27ac-7803-a9ea-f3b4ad4ad678""}","https://test12345.live/?num_scrambled_semantic=8&num_scrambled_causal=4&num_scrambled_schematic=4&participantId=7BB5F928B5964D0D9107C754975857A7&assignmentId=0198ee55-a43f-7796-86e2-7a836980f7f2&projectId=0198ee3c-27ac-7803-a9ea-f3b4ad4ad678","7BB5F928B5964D0D9107C754975857A7-2025-08-28-02-27-26","","null","","[]","null","",""
"","","","","","image-button-response","34","290392","0.0-10.0-1.0-0.3","7BB5F928B5964D0D9107C754975857A7","7BB5F928B5964D0D9107C754975857A7","0198ee55-a43f-7796-86e2-7a836980f7f2","0198ee3c-27ac-7803-a9ea-f3b4ad4ad678","{""num_scrambled_semantic"":""8"",""num_scrambled_causal"":""4"",""num_scrambled_schematic"":""4"",""participantId"":""7BB5F928B5964D0D9107C754975857A7"",""assignmentId"":""0198ee55-a43f-7796-86e2-7a836980f7f2"",""projectId"":""0198ee3c-27ac-7803-a9ea-f3b4ad4ad678""}","https://test12345.live/?num_scrambled_semantic=8&num_scrambled_causal=4&num_scrambled_schematic=4&participantId=7BB5F928B5964D0D9107C754975857A7&assignmentId=0198ee55-a43f-7796-86e2-7a836980f7f2&projectId=0198ee3c-27ac-7803-a9ea-f3b4ad4ad678","7BB5F928B5964D0D9107C754975857A7-2025-08-28-02-27-26","","null","","images/semantic_sequence/physical_activity_semantic/physical_activity_semantic_7.png","null","",""
"","","","","","image-button-response","35","291497","0.0-10.0-1.0-1.3","7BB5F928B5964D0D9107C754975857A7","7BB5F928B5964D0D9107C754975857A7","0198ee55-a43f-7796-86e2-7a836980f7f2","0198ee3c-27ac-7803-a9ea-f3b4ad4ad678","{""num_scrambled_semantic"":""8"",""num_scrambled_causal"":""4"",""num_scrambled_schematic"":""4"",""participantId"":""7BB5F928B5964D0D9107C754975857A7"",""assignmentId"":""0198ee55-a43f-7796-86e2-7a836980f7f2"",""projectId"":""0198ee3c-27ac-7803-a9ea-f3b4ad4ad678""}","https://test12345.live/?num_scrambled_semantic=8&num_scrambled_causal=4&num_scrambled_schematic=4&participantId=7BB5F928B5964D0D9107C754975857A7&assignmentId=0198ee55-a43f-7796-86e2-7a836980f7f2&projectId=0198ee3c-27ac-7803-a9ea-f3b4ad4ad678","7BB5F928B5964D0D9107C754975857A7-2025-08-28-02-27-26","","1104","","images/semantic_sequence/physical_activity_semantic/physical_activity_semantic_7.png","0","",""
"","","","","","image-button-response","36","293298","0.0-10.0-1.0-2.3","7BB5F928B5964D0D9107C754975857A7","7BB5F928B5964D0D9107C754975857A7","0198ee55-a43f-7796-86e2-7a836980f7f2","0198ee3c-27ac-7803-a9ea-f3b4ad4ad678","{""num_scrambled_semantic"":""8"",""num_scrambled_causal"":""4"",""num_scrambled_schematic"":""4"",""participantId"":""7BB5F928B5964D0D9107C754975857A7"",""assignmentId"":""0198ee55-a43f-7796-86e2-7a836980f7f2"",""projectId"":""0198ee3c-27ac-7803-a9ea-f3b4ad4ad678""}","https://test12345.live/?num_scrambled_semantic=8&num_scrambled_causal=4&num_scrambled_schematic=4&participantId=7BB5F928B5964D0D9107C754975857A7&assignmentId=0198ee55-a43f-7796-86e2-7a836980f7f2&projectId=0198ee3c-27ac-7803-a9ea-f3b4ad4ad678","7BB5F928B5964D0D9107C754975857A7-2025-08-28-02-27-26","","null","","[]","null","",""
"","","","","","image-button-response","37","297799","0.0-10.0-1.0-0.4","7BB5F928B5964D0D9107C754975857A7","7BB5F928B5964D0D9107C754975857A7","0198ee55-a43f-7796-86e2-7a836980f7f2","0198ee3c-27ac-7803-a9ea-f3b4ad4ad678","{""num_scrambled_semantic"":""8"",""num_scrambled_causal"":""4"",""num_scrambled_schematic"":""4"",""participantId"":""7BB5F928B5964D0D9107C754975857A7"",""assignmentId"":""0198ee55-a43f-7796-86e2-7a836980f7f2"",""projectId"":""0198ee3c-27ac-7803-a9ea-f3b4ad4ad678""}","https://test12345.live/?num_scrambled_semantic=8&num_scrambled_causal=4&num_scrambled_schematic=4&participantId=7BB5F928B5964D0D9107C754975857A7&assignmentId=0198ee55-a43f-7796-86e2-7a836980f7f2&projectId=0198ee3c-27ac-7803-a9ea-f3b4ad4ad678","7BB5F928B5964D0D9107C754975857A7-2025-08-28-02-27-26","","null","","images/semantic_sequence/physical_activity_semantic/physical_activity_semantic_2.png","null","",""
"","","","","","image-button-response","38","300807","0.0-10.0-1.0-1.4","7BB5F928B5964D0D9107C754975857A7","7BB5F928B5964D0D9107C754975857A7","0198ee55-a43f-7796-86e2-7a836980f7f2","0198ee3c-27ac-7803-a9ea-f3b4ad4ad678","{""num_scrambled_semantic"":""8"",""num_scrambled_causal"":""4"",""num_scrambled_schematic"":""4"",""participantId"":""7BB5F928B5964D0D9107C754975857A7"",""assignmentId"":""0198ee55-a43f-7796-86e2-7a836980f7f2"",""projectId"":""0198ee3c-27ac-7803-a9ea-f3b4ad4ad678""}","https://test12345.live/?num_scrambled_semantic=8&num_scrambled_causal=4&num_scrambled_schematic=4&participantId=7BB5F928B5964D0D9107C754975857A7&assignmentId=0198ee55-a43f-7796-86e2-7a836980f7f2&projectId=0198ee3c-27ac-7803-a9ea-f3b4ad4ad678","7BB5F928B5964D0D9107C754975857A7-2025-08-28-02-27-26","","3007","","images/semantic_sequence/physical_activity_semantic/physical_activity_semantic_2.png","0","",""
"","","","","","image-button-response","39","302608","0.0-10.0-1.0-2.4","7BB5F928B5964D0D9107C754975857A7","7BB5F928B5964D0D9107C754975857A7","0198ee55-a43f-7796-86e2-7a836980f7f2","0198ee3c-27ac-7803-a9ea-f3b4ad4ad678","{""num_scrambled_semantic"":""8"",""num_scrambled_causal"":""4"",""num_scrambled_schematic"":""4"",""participantId"":""7BB5F928B5964D0D9107C754975857A7"",""assignmentId"":""0198ee55-a43f-7796-86e2-7a836980f7f2"",""projectId"":""0198ee3c-27ac-7803-a9ea-f3b4ad4ad678""}","https://test12345.live/?num_scrambled_semantic=8&num_scrambled_causal=4&num_scrambled_schematic=4&participantId=7BB5F928B5964D0D9107C754975857A7&assignmentId=0198ee55-a43f-7796-86e2-7a836980f7f2&projectId=0198ee3c-27ac-7803-a9ea-f3b4ad4ad678","7BB5F928B5964D0D9107C754975857A7-2025-08-28-02-27-26","","null","","[]","null","",""
"","","","","","image-button-response","40","307108","0.0-10.0-1.0-0.5","7BB5F928B5964D0D9107C754975857A7","7BB5F928B5964D0D9107C754975857A7","0198ee55-a43f-7796-86e2-7a836980f7f2","0198ee3c-27ac-7803-a9ea-f3b4ad4ad678","{""num_scrambled_semantic"":""8"",""num_scrambled_causal"":""4"",""num_scrambled_schematic"":""4"",""participantId"":""7BB5F928B5964D0D9107C754975857A7"",""assignmentId"":""0198ee55-a43f-7796-86e2-7a836980f7f2"",""projectId"":""0198ee3c-27ac-7803-a9ea-f3b4ad4ad678""}","https://test12345.live/?num_scrambled_semantic=8&num_scrambled_causal=4&num_scrambled_schematic=4&participantId=7BB5F928B5964D0D9107C754975857A7&assignmentId=0198ee55-a43f-7796-86e2-7a836980f7f2&projectId=0198ee3c-27ac-7803-a9ea-f3b4ad4ad678","7BB5F928B5964D0D9107C754975857A7-2025-08-28-02-27-26","","null","","images/semantic_sequence/physical_activity_semantic/physical_activity_semantic_3.png","null","",""
"","","","","","image-button-response","41","307734","0.0-10.0-1.0-1.5","7BB5F928B5964D0D9107C754975857A7","7BB5F928B5964D0D9107C754975857A7","0198ee55-a43f-7796-86e2-7a836980f7f2","0198ee3c-27ac-7803-a9ea-f3b4ad4ad678","{""num_scrambled_semantic"":""8"",""num_scrambled_causal"":""4"",""num_scrambled_schematic"":""4"",""participantId"":""7BB5F928B5964D0D9107C754975857A7"",""assignmentId"":""0198ee55-a43f-7796-86e2-7a836980f7f2"",""projectId"":""0198ee3c-27ac-7803-a9ea-f3b4ad4ad678""}","https://test12345.live/?num_scrambled_semantic=8&num_scrambled_causal=4&num_scrambled_schematic=4&participantId=7BB5F928B5964D0D9107C754975857A7&assignmentId=0198ee55-a43f-7796-86e2-7a836980f7f2&projectId=0198ee3c-27ac-7803-a9ea-f3b4ad4ad678","7BB5F928B5964D0D9107C754975857A7-2025-08-28-02-27-26","","625","","images/semantic_sequence/physical_activity_semantic/physical_activity_semantic_3.png","0","",""
"","","","","","image-button-response","42","309535","0.0-10.0-1.0-2.5","7BB5F928B5964D0D9107C754975857A7","7BB5F928B5964D0D9107C754975857A7","0198ee55-a43f-7796-86e2-7a836980f7f2","0198ee3c-27ac-7803-a9ea-f3b4ad4ad678","{""num_scrambled_semantic"":""8"",""num_scrambled_causal"":""4"",""num_scrambled_schematic"":""4"",""participantId"":""7BB5F928B5964D0D9107C754975857A7"",""assignmentId"":""0198ee55-a43f-7796-86e2-7a836980f7f2"",""projectId"":""0198ee3c-27ac-7803-a9ea-f3b4ad4ad678""}","https://test12345.live/?num_scrambled_semantic=8&num_scrambled_causal=4&num_scrambled_schematic=4&participantId=7BB5F928B5964D0D9107C754975857A7&assignmentId=0198ee55-a43f-7796-86e2-7a836980f7f2&projectId=0198ee3c-27ac-7803-a9ea-f3b4ad4ad678","7BB5F928B5964D0D9107C754975857A7-2025-08-28-02-27-26","","null","","[]","null","",""
"","","","","","image-button-response","43","314036","0.0-10.0-1.0-0.6","7BB5F928B5964D0D9107C754975857A7","7BB5F928B5964D0D9107C754975857A7","0198ee55-a43f-7796-86e2-7a836980f7f2","0198ee3c-27ac-7803-a9ea-f3b4ad4ad678","{""num_scrambled_semantic"":""8"",""num_scrambled_causal"":""4"",""num_scrambled_schematic"":""4"",""participantId"":""7BB5F928B5964D0D9107C754975857A7"",""assignmentId"":""0198ee55-a43f-7796-86e2-7a836980f7f2"",""projectId"":""0198ee3c-27ac-7803-a9ea-f3b4ad4ad678""}","https://test12345.live/?num_scrambled_semantic=8&num_scrambled_causal=4&num_scrambled_schematic=4&participantId=7BB5F928B5964D0D9107C754975857A7&assignmentId=0198ee55-a43f-7796-86e2-7a836980f7f2&projectId=0198ee3c-27ac-7803-a9ea-f3b4ad4ad678","7BB5F928B5964D0D9107C754975857A7-2025-08-28-02-27-26","","null","","images/semantic_sequence/physical_activity_semantic/physical_activity_semantic_9.png","null","",""
"","","","","","image-button-response","44","315301","0.0-10.0-1.0-1.6","7BB5F928B5964D0D9107C754975857A7","7BB5F928B5964D0D9107C754975857A7","0198ee55-a43f-7796-86e2-7a836980f7f2","0198ee3c-27ac-7803-a9ea-f3b4ad4ad678","{""num_scrambled_semantic"":""8"",""num_scrambled_causal"":""4"",""num_scrambled_schematic"":""4"",""participantId"":""7BB5F928B5964D0D9107C754975857A7"",""assignmentId"":""0198ee55-a43f-7796-86e2-7a836980f7f2"",""projectId"":""0198ee3c-27ac-7803-a9ea-f3b4ad4ad678""}","https://test12345.live/?num_scrambled_semantic=8&num_scrambled_causal=4&num_scrambled_schematic=4&participantId=7BB5F928B5964D0D9107C754975857A7&assignmentId=0198ee55-a43f-7796-86e2-7a836980f7f2&projectId=0198ee3c-27ac-7803-a9ea-f3b4ad4ad678","7BB5F928B5964D0D9107C754975857A7-2025-08-28-02-27-26","","1265","","images/semantic_sequence/physical_activity_semantic/physical_activity_semantic_9.png","0","",""
"","","","","","image-button-response","45","317103","0.0-10.0-1.0-2.6","7BB5F928B5964D0D9107C754975857A7","7BB5F928B5964D0D9107C754975857A7","0198ee55-a43f-7796-86e2-7a836980f7f2","0198ee3c-27ac-7803-a9ea-f3b4ad4ad678","{""num_scrambled_semantic"":""8"",""num_scrambled_causal"":""4"",""num_scrambled_schematic"":""4"",""participantId"":""7BB5F928B5964D0D9107C754975857A7"",""assignmentId"":""0198ee55-a43f-7796-86e2-7a836980f7f2"",""projectId"":""0198ee3c-27ac-7803-a9ea-f3b4ad4ad678""}","https://test12345.live/?num_scrambled_semantic=8&num_scrambled_causal=4&num_scrambled_schematic=4&participantId=7BB5F928B5964D0D9107C754975857A7&assignmentId=0198ee55-a43f-7796-86e2-7a836980f7f2&projectId=0198ee3c-27ac-7803-a9ea-f3b4ad4ad678","7BB5F928B5964D0D9107C754975857A7-2025-08-28-02-27-26","","null","","[]","null","",""
"","","","","","image-button-response","46","321604","0.0-10.0-1.0-0.7","7BB5F928B5964D0D9107C754975857A7","7BB5F928B5964D0D9107C754975857A7","0198ee55-a43f-7796-86e2-7a836980f7f2","0198ee3c-27ac-7803-a9ea-f3b4ad4ad678","{""num_scrambled_semantic"":""8"",""num_scrambled_causal"":""4"",""num_scrambled_schematic"":""4"",""participantId"":""7BB5F928B5964D0D9107C754975857A7"",""assignmentId"":""0198ee55-a43f-7796-86e2-7a836980f7f2"",""projectId"":""0198ee3c-27ac-7803-a9ea-f3b4ad4ad678""}","https://test12345.live/?num_scrambled_semantic=8&num_scrambled_causal=4&num_scrambled_schematic=4&participantId=7BB5F928B5964D0D9107C754975857A7&assignmentId=0198ee55-a43f-7796-86e2-7a836980f7f2&projectId=0198ee3c-27ac-7803-a9ea-f3b4ad4ad678","7BB5F928B5964D0D9107C754975857A7-2025-08-28-02-27-26","","null","","images/semantic_sequence/physical_activity_semantic/physical_activity_semantic_8.png","null","",""
"","","","","","image-button-response","47","322097","0.0-10.0-1.0-1.7","7BB5F928B5964D0D9107C754975857A7","7BB5F928B5964D0D9107C754975857A7","0198ee55-a43f-7796-86e2-7a836980f7f2","0198ee3c-27ac-7803-a9ea-f3b4ad4ad678","{""num_scrambled_semantic"":""8"",""num_scrambled_causal"":""4"",""num_scrambled_schematic"":""4"",""participantId"":""7BB5F928B5964D0D9107C754975857A7"",""assignmentId"":""0198ee55-a43f-7796-86e2-7a836980f7f2"",""projectId"":""0198ee3c-27ac-7803-a9ea-f3b4ad4ad678""}","https://test12345.live/?num_scrambled_semantic=8&num_scrambled_causal=4&num_scrambled_schematic=4&participantId=7BB5F928B5964D0D9107C754975857A7&assignmentId=0198ee55-a43f-7796-86e2-7a836980f7f2&projectId=0198ee3c-27ac-7803-a9ea-f3b4ad4ad678","7BB5F928B5964D0D9107C754975857A7-2025-08-28-02-27-26","","492","","images/semantic_sequence/physical_activity_semantic/physical_activity_semantic_8.png","0","",""
"","","","","","image-button-response","48","323898","0.0-10.0-1.0-2.7","7BB5F928B5964D0D9107C754975857A7","7BB5F928B5964D0D9107C754975857A7","0198ee55-a43f-7796-86e2-7a836980f7f2","0198ee3c-27ac-7803-a9ea-f3b4ad4ad678","{""num_scrambled_semantic"":""8"",""num_scrambled_causal"":""4"",""num_scrambled_schematic"":""4"",""participantId"":""7BB5F928B5964D0D9107C754975857A7"",""assignmentId"":""0198ee55-a43f-7796-86e2-7a836980f7f2"",""projectId"":""0198ee3c-27ac-7803-a9ea-f3b4ad4ad678""}","https://test12345.live/?num_scrambled_semantic=8&num_scrambled_causal=4&num_scrambled_schematic=4&participantId=7BB5F928B5964D0D9107C754975857A7&assignmentId=0198ee55-a43f-7796-86e2-7a836980f7f2&projectId=0198ee3c-27ac-7803-a9ea-f3b4ad4ad678","7BB5F928B5964D0D9107C754975857A7-2025-08-28-02-27-26","","null","","[]","null","",""
"","","","","","image-button-response","49","328399","0.0-10.0-1.0-0.8","7BB5F928B5964D0D9107C754975857A7","7BB5F928B5964D0D9107C754975857A7","0198ee55-a43f-7796-86e2-7a836980f7f2","0198ee3c-27ac-7803-a9ea-f3b4ad4ad678","{""num_scrambled_semantic"":""8"",""num_scrambled_causal"":""4"",""num_scrambled_schematic"":""4"",""participantId"":""7BB5F928B5964D0D9107C754975857A7"",""assignmentId"":""0198ee55-a43f-7796-86e2-7a836980f7f2"",""projectId"":""0198ee3c-27ac-7803-a9ea-f3b4ad4ad678""}","https://test12345.live/?num_scrambled_semantic=8&num_scrambled_causal=4&num_scrambled_schematic=4&participantId=7BB5F928B5964D0D9107C754975857A7&assignmentId=0198ee55-a43f-7796-86e2-7a836980f7f2&projectId=0198ee3c-27ac-7803-a9ea-f3b4ad4ad678","7BB5F928B5964D0D9107C754975857A7-2025-08-28-02-27-26","","null","","images/semantic_sequence/physical_activity_semantic/physical_activity_semantic_ten.png","null","",""
"","","","","","image-button-response","50","329178","0.0-10.0-1.0-1.8","7BB5F928B5964D0D9107C754975857A7","7BB5F928B5964D0D9107C754975857A7","0198ee55-a43f-7796-86e2-7a836980f7f2","0198ee3c-27ac-7803-a9ea-f3b4ad4ad678","{""num_scrambled_semantic"":""8"",""num_scrambled_causal"":""4"",""num_scrambled_schematic"":""4"",""participantId"":""7BB5F928B5964D0D9107C754975857A7"",""assignmentId"":""0198ee55-a43f-7796-86e2-7a836980f7f2"",""projectId"":""0198ee3c-27ac-7803-a9ea-f3b4ad4ad678""}","https://test12345.live/?num_scrambled_semantic=8&num_scrambled_causal=4&num_scrambled_schematic=4&participantId=7BB5F928B5964D0D9107C754975857A7&assignmentId=0198ee55-a43f-7796-86e2-7a836980f7f2&projectId=0198ee3c-27ac-7803-a9ea-f3b4ad4ad678","7BB5F928B5964D0D9107C754975857A7-2025-08-28-02-27-26","","778","","images/semantic_sequence/physical_activity_semantic/physical_activity_semantic_ten.png","0","",""
"","","","","","image-button-response","51","330979","0.0-10.0-1.0-2.8","7BB5F928B5964D0D9107C754975857A7","7BB5F928B5964D0D9107C754975857A7","0198ee55-a43f-7796-86e2-7a836980f7f2","0198ee3c-27ac-7803-a9ea-f3b4ad4ad678","{""num_scrambled_semantic"":""8"",""num_scrambled_causal"":""4"",""num_scrambled_schematic"":""4"",""participantId"":""7BB5F928B5964D0D9107C754975857A7"",""assignmentId"":""0198ee55-a43f-7796-86e2-7a836980f7f2"",""projectId"":""0198ee3c-27ac-7803-a9ea-f3b4ad4ad678""}","https://test12345.live/?num_scrambled_semantic=8&num_scrambled_causal=4&num_scrambled_schematic=4&participantId=7BB5F928B5964D0D9107C754975857A7&assignmentId=0198ee55-a43f-7796-86e2-7a836980f7f2&projectId=0198ee3c-27ac-7803-a9ea-f3b4ad4ad678","7BB5F928B5964D0D9107C754975857A7-2025-08-28-02-27-26","","null","","[]","null","",""
"","","","","","image-button-response","52","335481","0.0-10.0-1.0-0.9","7BB5F928B5964D0D9107C754975857A7","7BB5F928B5964D0D9107C754975857A7","0198ee55-a43f-7796-86e2-7a836980f7f2","0198ee3c-27ac-7803-a9ea-f3b4ad4ad678","{""num_scrambled_semantic"":""8"",""num_scrambled_causal"":""4"",""num_scrambled_schematic"":""4"",""participantId"":""7BB5F928B5964D0D9107C754975857A7"",""assignmentId"":""0198ee55-a43f-7796-86e2-7a836980f7f2"",""projectId"":""0198ee3c-27ac-7803-a9ea-f3b4ad4ad678""}","https://test12345.live/?num_scrambled_semantic=8&num_scrambled_causal=4&num_scrambled_schematic=4&participantId=7BB5F928B5964D0D9107C754975857A7&assignmentId=0198ee55-a43f-7796-86e2-7a836980f7f2&projectId=0198ee3c-27ac-7803-a9ea-f3b4ad4ad678","7BB5F928B5964D0D9107C754975857A7-2025-08-28-02-27-26","","null","","images/semantic_sequence/physical_activity_semantic/physical_activity_semantic_6.png","null","",""
"","","","","","image-button-response","53","336090","0.0-10.0-1.0-1.9","7BB5F928B5964D0D9107C754975857A7","7BB5F928B5964D0D9107C754975857A7","0198ee55-a43f-7796-86e2-7a836980f7f2","0198ee3c-27ac-7803-a9ea-f3b4ad4ad678","{""num_scrambled_semantic"":""8"",""num_scrambled_causal"":""4"",""num_scrambled_schematic"":""4"",""participantId"":""7BB5F928B5964D0D9107C754975857A7"",""assignmentId"":""0198ee55-a43f-7796-86e2-7a836980f7f2"",""projectId"":""0198ee3c-27ac-7803-a9ea-f3b4ad4ad678""}","https://test12345.live/?num_scrambled_semantic=8&num_scrambled_causal=4&num_scrambled_schematic=4&participantId=7BB5F928B5964D0D9107C754975857A7&assignmentId=0198ee55-a43f-7796-86e2-7a836980f7f2&projectId=0198ee3c-27ac-7803-a9ea-f3b4ad4ad678","7BB5F928B5964D0D9107C754975857A7-2025-08-28-02-27-26","","609","","images/semantic_sequence/physical_activity_semantic/physical_activity_semantic_6.png","0","",""
"","","","","","image-button-response","54","337891","0.0-10.0-1.0-2.9","7BB5F928B5964D0D9107C754975857A7","7BB5F928B5964D0D9107C754975857A7","0198ee55-a43f-7796-86e2-7a836980f7f2","0198ee3c-27ac-7803-a9ea-f3b4ad4ad678","{""num_scrambled_semantic"":""8"",""num_scrambled_causal"":""4"",""num_scrambled_schematic"":""4"",""participantId"":""7BB5F928B5964D0D9107C754975857A7"",""assignmentId"":""0198ee55-a43f-7796-86e2-7a836980f7f2"",""projectId"":""0198ee3c-27ac-7803-a9ea-f3b4ad4ad678""}","https://test12345.live/?num_scrambled_semantic=8&num_scrambled_causal=4&num_scrambled_schematic=4&participantId=7BB5F928B5964D0D9107C754975857A7&assignmentId=0198ee55-a43f-7796-86e2-7a836980f7f2&projectId=0198ee3c-27ac-7803-a9ea-f3b4ad4ad678","7BB5F928B5964D0D9107C754975857A7-2025-08-28-02-27-26","","null","","[]","null","",""
"","","","","","html-audio-response","55","370423","0.0-11.0","7BB5F928B5964D0D9107C754975857A7","7BB5F928B5964D0D9107C754975857A7","0198ee55-a43f-7796-86e2-7a836980f7f2","0198ee3c-27ac-7803-a9ea-f3b4ad4ad678","{""num_scrambled_semantic"":""8"",""num_scrambled_causal"":""4"",""num_scrambled_schematic"":""4"",""participantId"":""7BB5F928B5964D0D9107C754975857A7"",""assignmentId"":""0198ee55-a43f-7796-86e2-7a836980f7f2"",""projectId"":""0198ee3c-27ac-7803-a9ea-f3b4ad4ad678""}","https://test12345.live/?num_scrambled_semantic=8&num_scrambled_causal=4&num_scrambled_schematic=4&participantId=7BB5F928B5964D0D9107C754975857A7&assignmentId=0198ee55-a43f-7796-86e2-7a836980f7f2&projectId=0198ee3c-27ac-7803-a9ea-f3b4ad4ad678","7BB5F928B5964D0D9107C754975857A7-2025-08-28-02-27-26","","31518","","[""<span style=\""color: red; font-size: 24px\""> NOW RECORDING</span><p>Please say out loud all the images you saw, in the order of the story they create. Try to recall the sequence of events as they appeared in the story, not necessarily the order they were presented on the screen.</p>""]","","1","physical_activity_semantic"
"","","","","","image-button-response","56","376428","0.0-12.0-0.0","7BB5F928B5964D0D9107C754975857A7","7BB5F928B5964D0D9107C754975857A7","0198ee55-a43f-7796-86e2-7a836980f7f2","0198ee3c-27ac-7803-a9ea-f3b4ad4ad678","{""num_scrambled_semantic"":""8"",""num_scrambled_causal"":""4"",""num_scrambled_schematic"":""4"",""participantId"":""7BB5F928B5964D0D9107C754975857A7"",""assignmentId"":""0198ee55-a43f-7796-86e2-7a836980f7f2"",""projectId"":""0198ee3c-27ac-7803-a9ea-f3b4ad4ad678""}","https://test12345.live/?num_scrambled_semantic=8&num_scrambled_causal=4&num_scrambled_schematic=4&participantId=7BB5F928B5964D0D9107C754975857A7&assignmentId=0198ee55-a43f-7796-86e2-7a836980f7f2&projectId=0198ee3c-27ac-7803-a9ea-f3b4ad4ad678","7BB5F928B5964D0D9107C754975857A7-2025-08-28-02-27-26","","null","","images/schematic_sequence/hotel_scheme/hotel_scheme_0.png","null","",""
"","","","","","image-button-response","57","380930","0.0-12.0-1.0-0.0","7BB5F928B5964D0D9107C754975857A7","7BB5F928B5964D0D9107C754975857A7","0198ee55-a43f-7796-86e2-7a836980f7f2","0198ee3c-27ac-7803-a9ea-f3b4ad4ad678","{""num_scrambled_semantic"":""8"",""num_scrambled_causal"":""4"",""num_scrambled_schematic"":""4"",""participantId"":""7BB5F928B5964D0D9107C754975857A7"",""assignmentId"":""0198ee55-a43f-7796-86e2-7a836980f7f2"",""projectId"":""0198ee3c-27ac-7803-a9ea-f3b4ad4ad678""}","https://test12345.live/?num_scrambled_semantic=8&num_scrambled_causal=4&num_scrambled_schematic=4&participantId=7BB5F928B5964D0D9107C754975857A7&assignmentId=0198ee55-a43f-7796-86e2-7a836980f7f2&projectId=0198ee3c-27ac-7803-a9ea-f3b4ad4ad678","7BB5F928B5964D0D9107C754975857A7-2025-08-28-02-27-26","","null","","images/schematic_sequence/hotel_scheme/hotel_scheme_3.png","null","",""
"","","","","","image-button-response","58","382725","0.0-12.0-1.0-1.0","7BB5F928B5964D0D9107C754975857A7","7BB5F928B5964D0D9107C754975857A7","0198ee55-a43f-7796-86e2-7a836980f7f2","0198ee3c-27ac-7803-a9ea-f3b4ad4ad678","{""num_scrambled_semantic"":""8"",""num_scrambled_causal"":""4"",""num_scrambled_schematic"":""4"",""participantId"":""7BB5F928B5964D0D9107C754975857A7"",""assignmentId"":""0198ee55-a43f-7796-86e2-7a836980f7f2"",""projectId"":""0198ee3c-27ac-7803-a9ea-f3b4ad4ad678""}","https://test12345.live/?num_scrambled_semantic=8&num_scrambled_causal=4&num_scrambled_schematic=4&participantId=7BB5F928B5964D0D9107C754975857A7&assignmentId=0198ee55-a43f-7796-86e2-7a836980f7f2&projectId=0198ee3c-27ac-7803-a9ea-f3b4ad4ad678","7BB5F928B5964D0D9107C754975857A7-2025-08-28-02-27-26","","1794","","images/schematic_sequence/hotel_scheme/hotel_scheme_3.png","0","",""
"","","","","","image-button-response","59","384527","0.0-12.0-1.0-2.0","7BB5F928B5964D0D9107C754975857A7","7BB5F928B5964D0D9107C754975857A7","0198ee55-a43f-7796-86e2-7a836980f7f2","0198ee3c-27ac-7803-a9ea-f3b4ad4ad678","{""num_scrambled_semantic"":""8"",""num_scrambled_causal"":""4"",""num_scrambled_schematic"":""4"",""participantId"":""7BB5F928B5964D0D9107C754975857A7"",""assignmentId"":""0198ee55-a43f-7796-86e2-7a836980f7f2"",""projectId"":""0198ee3c-27ac-7803-a9ea-f3b4ad4ad678""}","https://test12345.live/?num_scrambled_semantic=8&num_scrambled_causal=4&num_scrambled_schematic=4&participantId=7BB5F928B5964D0D9107C754975857A7&assignmentId=0198ee55-a43f-7796-86e2-7a836980f7f2&projectId=0198ee3c-27ac-7803-a9ea-f3b4ad4ad678","7BB5F928B5964D0D9107C754975857A7-2025-08-28-02-27-26","","null","","[]","null","",""
"","","","","","image-button-response","60","389028","0.0-12.0-1.0-0.1","7BB5F928B5964D0D9107C754975857A7","7BB5F928B5964D0D9107C754975857A7","0198ee55-a43f-7796-86e2-7a836980f7f2","0198ee3c-27ac-7803-a9ea-f3b4ad4ad678","{""num_scrambled_semantic"":""8"",""num_scrambled_causal"":""4"",""num_scrambled_schematic"":""4"",""participantId"":""7BB5F928B5964D0D9107C754975857A7"",""assignmentId"":""0198ee55-a43f-7796-86e2-7a836980f7f2"",""projectId"":""0198ee3c-27ac-7803-a9ea-f3b4ad4ad678""}","https://test12345.live/?num_scrambled_semantic=8&num_scrambled_causal=4&num_scrambled_schematic=4&participantId=7BB5F928B5964D0D9107C754975857A7&assignmentId=0198ee55-a43f-7796-86e2-7a836980f7f2&projectId=0198ee3c-27ac-7803-a9ea-f3b4ad4ad678","7BB5F928B5964D0D9107C754975857A7-2025-08-28-02-27-26","","null","","images/schematic_sequence/hotel_scheme/hotel_scheme_8.png","null","",""
"","","","","","image-button-response","61","390313","0.0-12.0-1.0-1.1","7BB5F928B5964D0D9107C754975857A7","7BB5F928B5964D0D9107C754975857A7","0198ee55-a43f-7796-86e2-7a836980f7f2","0198ee3c-27ac-7803-a9ea-f3b4ad4ad678","{""num_scrambled_semantic"":""8"",""num_scrambled_causal"":""4"",""num_scrambled_schematic"":""4"",""participantId"":""7BB5F928B5964D0D9107C754975857A7"",""assignmentId"":""0198ee55-a43f-7796-86e2-7a836980f7f2"",""projectId"":""0198ee3c-27ac-7803-a9ea-f3b4ad4ad678""}","https://test12345.live/?num_scrambled_semantic=8&num_scrambled_causal=4&num_scrambled_schematic=4&participantId=7BB5F928B5964D0D9107C754975857A7&assignmentId=0198ee55-a43f-7796-86e2-7a836980f7f2&projectId=0198ee3c-27ac-7803-a9ea-f3b4ad4ad678","7BB5F928B5964D0D9107C754975857A7-2025-08-28-02-27-26","","1284","","images/schematic_sequence/hotel_scheme/hotel_scheme_8.png","0","",""
"","","","","","image-button-response","62","392114","0.0-12.0-1.0-2.1","7BB5F928B5964D0D9107C754975857A7","7BB5F928B5964D0D9107C754975857A7","0198ee55-a43f-7796-86e2-7a836980f7f2","0198ee3c-27ac-7803-a9ea-f3b4ad4ad678","{""num_scrambled_semantic"":""8"",""num_scrambled_causal"":""4"",""num_scrambled_schematic"":""4"",""participantId"":""7BB5F928B5964D0D9107C754975857A7"",""assignmentId"":""0198ee55-a43f-7796-86e2-7a836980f7f2"",""projectId"":""0198ee3c-27ac-7803-a9ea-f3b4ad4ad678""}","https://test12345.live/?num_scrambled_semantic=8&num_scrambled_causal=4&num_scrambled_schematic=4&participantId=7BB5F928B5964D0D9107C754975857A7&assignmentId=0198ee55-a43f-7796-86e2-7a836980f7f2&projectId=0198ee3c-27ac-7803-a9ea-f3b4ad4ad678","7BB5F928B5964D0D9107C754975857A7-2025-08-28-02-27-26","","null","","[]","null","",""
"","","","","","image-button-response","63","396615","0.0-12.0-1.0-0.2","7BB5F928B5964D0D9107C754975857A7","7BB5F928B5964D0D9107C754975857A7","0198ee55-a43f-7796-86e2-7a836980f7f2","0198ee3c-27ac-7803-a9ea-f3b4ad4ad678","{""num_scrambled_semantic"":""8"",""num_scrambled_causal"":""4"",""num_scrambled_schematic"":""4"",""participantId"":""7BB5F928B5964D0D9107C754975857A7"",""assignmentId"":""0198ee55-a43f-7796-86e2-7a836980f7f2"",""projectId"":""0198ee3c-27ac-7803-a9ea-f3b4ad4ad678""}","https://test12345.live/?num_scrambled_semantic=8&num_scrambled_causal=4&num_scrambled_schematic=4&participantId=7BB5F928B5964D0D9107C754975857A7&assignmentId=0198ee55-a43f-7796-86e2-7a836980f7f2&projectId=0198ee3c-27ac-7803-a9ea-f3b4ad4ad678","7BB5F928B5964D0D9107C754975857A7-2025-08-28-02-27-26","","null","","images/schematic_sequence/hotel_scheme/hotel_scheme_6.png","null","",""
"","","","","","image-button-response","64","397653","0.0-12.0-1.0-1.2","7BB5F928B5964D0D9107C754975857A7","7BB5F928B5964D0D9107C754975857A7","0198ee55-a43f-7796-86e2-7a836980f7f2","0198ee3c-27ac-7803-a9ea-f3b4ad4ad678","{""num_scrambled_semantic"":""8"",""num_scrambled_causal"":""4"",""num_scrambled_schematic"":""4"",""participantId"":""7BB5F928B5964D0D9107C754975857A7"",""assignmentId"":""0198ee55-a43f-7796-86e2-7a836980f7f2"",""projectId"":""0198ee3c-27ac-7803-a9ea-f3b4ad4ad678""}","https://test12345.live/?num_scrambled_semantic=8&num_scrambled_causal=4&num_scrambled_schematic=4&participantId=7BB5F928B5964D0D9107C754975857A7&assignmentId=0198ee55-a43f-7796-86e2-7a836980f7f2&projectId=0198ee3c-27ac-7803-a9ea-f3b4ad4ad678","7BB5F928B5964D0D9107C754975857A7-2025-08-28-02-27-26","","1038","","images/schematic_sequence/hotel_scheme/hotel_scheme_6.png","0","",""
"","","","","","image-button-response","65","399455","0.0-12.0-1.0-2.2","7BB5F928B5964D0D9107C754975857A7","7BB5F928B5964D0D9107C754975857A7","0198ee55-a43f-7796-86e2-7a836980f7f2","0198ee3c-27ac-7803-a9ea-f3b4ad4ad678","{""num_scrambled_semantic"":""8"",""num_scrambled_causal"":""4"",""num_scrambled_schematic"":""4"",""participantId"":""7BB5F928B5964D0D9107C754975857A7"",""assignmentId"":""0198ee55-a43f-7796-86e2-7a836980f7f2"",""projectId"":""0198ee3c-27ac-7803-a9ea-f3b4ad4ad678""}","https://test12345.live/?num_scrambled_semantic=8&num_scrambled_causal=4&num_scrambled_schematic=4&participantId=7BB5F928B5964D0D9107C754975857A7&assignmentId=0198ee55-a43f-7796-86e2-7a836980f7f2&projectId=0198ee3c-27ac-7803-a9ea-f3b4ad4ad678","7BB5F928B5964D0D9107C754975857A7-2025-08-28-02-27-26","","null","","[]","null","",""
"","","","","","image-button-response","66","403956","0.0-12.0-1.0-0.3","7BB5F928B5964D0D9107C754975857A7","7BB5F928B5964D0D9107C754975857A7","0198ee55-a43f-7796-86e2-7a836980f7f2","0198ee3c-27ac-7803-a9ea-f3b4ad4ad678","{""num_scrambled_semantic"":""8"",""num_scrambled_causal"":""4"",""num_scrambled_schematic"":""4"",""participantId"":""7BB5F928B5964D0D9107C754975857A7"",""assignmentId"":""0198ee55-a43f-7796-86e2-7a836980f7f2"",""projectId"":""0198ee3c-27ac-7803-a9ea-f3b4ad4ad678""}","https://test12345.live/?num_scrambled_semantic=8&num_scrambled_causal=4&num_scrambled_schematic=4&participantId=7BB5F928B5964D0D9107C754975857A7&assignmentId=0198ee55-a43f-7796-86e2-7a836980f7f2&projectId=0198ee3c-27ac-7803-a9ea-f3b4ad4ad678","7BB5F928B5964D0D9107C754975857A7-2025-08-28-02-27-26","","null","","images/schematic_sequence/hotel_scheme/hotel_scheme_9.png","null","",""
"","","","","","image-button-response","67","404686","0.0-12.0-1.0-1.3","7BB5F928B5964D0D9107C754975857A7","7BB5F928B5964D0D9107C754975857A7","0198ee55-a43f-7796-86e2-7a836980f7f2","0198ee3c-27ac-7803-a9ea-f3b4ad4ad678","{""num_scrambled_semantic"":""8"",""num_scrambled_causal"":""4"",""num_scrambled_schematic"":""4"",""participantId"":""7BB5F928B5964D0D9107C754975857A7"",""assignmentId"":""0198ee55-a43f-7796-86e2-7a836980f7f2"",""projectId"":""0198ee3c-27ac-7803-a9ea-f3b4ad4ad678""}","https://test12345.live/?num_scrambled_semantic=8&num_scrambled_causal=4&num_scrambled_schematic=4&participantId=7BB5F928B5964D0D9107C754975857A7&assignmentId=0198ee55-a43f-7796-86e2-7a836980f7f2&projectId=0198ee3c-27ac-7803-a9ea-f3b4ad4ad678","7BB5F928B5964D0D9107C754975857A7-2025-08-28-02-27-26","","729","","images/schematic_sequence/hotel_scheme/hotel_scheme_9.png","0","",""
"","","","","","image-button-response","68","406487","0.0-12.0-1.0-2.3","7BB5F928B5964D0D9107C754975857A7","7BB5F928B5964D0D9107C754975857A7","0198ee55-a43f-7796-86e2-7a836980f7f2","0198ee3c-27ac-7803-a9ea-f3b4ad4ad678","{""num_scrambled_semantic"":""8"",""num_scrambled_causal"":""4"",""num_scrambled_schematic"":""4"",""participantId"":""7BB5F928B5964D0D9107C754975857A7"",""assignmentId"":""0198ee55-a43f-7796-86e2-7a836980f7f2"",""projectId"":""0198ee3c-27ac-7803-a9ea-f3b4ad4ad678""}","https://test12345.live/?num_scrambled_semantic=8&num_scrambled_causal=4&num_scrambled_schematic=4&participantId=7BB5F928B5964D0D9107C754975857A7&assignmentId=0198ee55-a43f-7796-86e2-7a836980f7f2&projectId=0198ee3c-27ac-7803-a9ea-f3b4ad4ad678","7BB5F928B5964D0D9107C754975857A7-2025-08-28-02-27-26","","null","","[]","null","",""
"","","","","","image-button-response","69","410988","0.0-12.0-1.0-0.4","7BB5F928B5964D0D9107C754975857A7","7BB5F928B5964D0D9107C754975857A7","0198ee55-a43f-7796-86e2-7a836980f7f2","0198ee3c-27ac-7803-a9ea-f3b4ad4ad678","{""num_scrambled_semantic"":""8"",""num_scrambled_causal"":""4"",""num_scrambled_schematic"":""4"",""participantId"":""7BB5F928B5964D0D9107C754975857A7"",""assignmentId"":""0198ee55-a43f-7796-86e2-7a836980f7f2"",""projectId"":""0198ee3c-27ac-7803-a9ea-f3b4ad4ad678""}","https://test12345.live/?num_scrambled_semantic=8&num_scrambled_causal=4&num_scrambled_schematic=4&participantId=7BB5F928B5964D0D9107C754975857A7&assignmentId=0198ee55-a43f-7796-86e2-7a836980f7f2&projectId=0198ee3c-27ac-7803-a9ea-f3b4ad4ad678","7BB5F928B5964D0D9107C754975857A7-2025-08-28-02-27-26","","null","","images/schematic_sequence/hotel_scheme/hotel_scheme_7.png","null","",""
"","","","","","image-button-response","70","411613","0.0-12.0-1.0-1.4","7BB5F928B5964D0D9107C754975857A7","7BB5F928B5964D0D9107C754975857A7","0198ee55-a43f-7796-86e2-7a836980f7f2","0198ee3c-27ac-7803-a9ea-f3b4ad4ad678","{""num_scrambled_semantic"":""8"",""num_scrambled_causal"":""4"",""num_scrambled_schematic"":""4"",""participantId"":""7BB5F928B5964D0D9107C754975857A7"",""assignmentId"":""0198ee55-a43f-7796-86e2-7a836980f7f2"",""projectId"":""0198ee3c-27ac-7803-a9ea-f3b4ad4ad678""}","https://test12345.live/?num_scrambled_semantic=8&num_scrambled_causal=4&num_scrambled_schematic=4&participantId=7BB5F928B5964D0D9107C754975857A7&assignmentId=0198ee55-a43f-7796-86e2-7a836980f7f2&projectId=0198ee3c-27ac-7803-a9ea-f3b4ad4ad678","7BB5F928B5964D0D9107C754975857A7-2025-08-28-02-27-26","","625","","images/schematic_sequence/hotel_scheme/hotel_scheme_7.png","0","",""
"","","","","","image-button-response","71","413415","0.0-12.0-1.0-2.4","7BB5F928B5964D0D9107C754975857A7","7BB5F928B5964D0D9107C754975857A7","0198ee55-a43f-7796-86e2-7a836980f7f2","0198ee3c-27ac-7803-a9ea-f3b4ad4ad678","{""num_scrambled_semantic"":""8"",""num_scrambled_causal"":""4"",""num_scrambled_schematic"":""4"",""participantId"":""7BB5F928B5964D0D9107C754975857A7"",""assignmentId"":""0198ee55-a43f-7796-86e2-7a836980f7f2"",""projectId"":""0198ee3c-27ac-7803-a9ea-f3b4ad4ad678""}","https://test12345.live/?num_scrambled_semantic=8&num_scrambled_causal=4&num_scrambled_schematic=4&participantId=7BB5F928B5964D0D9107C754975857A7&assignmentId=0198ee55-a43f-7796-86e2-7a836980f7f2&projectId=0198ee3c-27ac-7803-a9ea-f3b4ad4ad678","7BB5F928B5964D0D9107C754975857A7-2025-08-28-02-27-26","","null","","[]","null","",""
"","","","","","image-button-response","72","417916","0.0-12.0-1.0-0.5","7BB5F928B5964D0D9107C754975857A7","7BB5F928B5964D0D9107C754975857A7","0198ee55-a43f-7796-86e2-7a836980f7f2","0198ee3c-27ac-7803-a9ea-f3b4ad4ad678","{""num_scrambled_semantic"":""8"",""num_scrambled_causal"":""4"",""num_scrambled_schematic"":""4"",""participantId"":""7BB5F928B5964D0D9107C754975857A7"",""assignmentId"":""0198ee55-a43f-7796-86e2-7a836980f7f2"",""projectId"":""0198ee3c-27ac-7803-a9ea-f3b4ad4ad678""}","https://test12345.live/?num_scrambled_semantic=8&num_scrambled_causal=4&num_scrambled_schematic=4&participantId=7BB5F928B5964D0D9107C754975857A7&assignmentId=0198ee55-a43f-7796-86e2-7a836980f7f2&projectId=0198ee3c-27ac-7803-a9ea-f3b4ad4ad678","7BB5F928B5964D0D9107C754975857A7-2025-08-28-02-27-26","","null","","images/schematic_sequence/hotel_scheme/hotel_scheme_2.png","null","",""
"","","","","","image-button-response","73","418614","0.0-12.0-1.0-1.5","7BB5F928B5964D0D9107C754975857A7","7BB5F928B5964D0D9107C754975857A7","0198ee55-a43f-7796-86e2-7a836980f7f2","0198ee3c-27ac-7803-a9ea-f3b4ad4ad678","{""num_scrambled_semantic"":""8"",""num_scrambled_causal"":""4"",""num_scrambled_schematic"":""4"",""participantId"":""7BB5F928B5964D0D9107C754975857A7"",""assignmentId"":""0198ee55-a43f-7796-86e2-7a836980f7f2"",""projectId"":""0198ee3c-27ac-7803-a9ea-f3b4ad4ad678""}","https://test12345.live/?num_scrambled_semantic=8&num_scrambled_causal=4&num_scrambled_schematic=4&participantId=7BB5F928B5964D0D9107C754975857A7&assignmentId=0198ee55-a43f-7796-86e2-7a836980f7f2&projectId=0198ee3c-27ac-7803-a9ea-f3b4ad4ad678","7BB5F928B5964D0D9107C754975857A7-2025-08-28-02-27-26","","697","","images/schematic_sequence/hotel_scheme/hotel_scheme_2.png","0","",""
"","","","","","image-button-response","74","420416","0.0-12.0-1.0-2.5","7BB5F928B5964D0D9107C754975857A7","7BB5F928B5964D0D9107C754975857A7","0198ee55-a43f-7796-86e2-7a836980f7f2","0198ee3c-27ac-7803-a9ea-f3b4ad4ad678","{""num_scrambled_semantic"":""8"",""num_scrambled_causal"":""4"",""num_scrambled_schematic"":""4"",""participantId"":""7BB5F928B5964D0D9107C754975857A7"",""assignmentId"":""0198ee55-a43f-7796-86e2-7a836980f7f2"",""projectId"":""0198ee3c-27ac-7803-a9ea-f3b4ad4ad678""}","https://test12345.live/?num_scrambled_semantic=8&num_scrambled_causal=4&num_scrambled_schematic=4&participantId=7BB5F928B5964D0D9107C754975857A7&assignmentId=0198ee55-a43f-7796-86e2-7a836980f7f2&projectId=0198ee3c-27ac-7803-a9ea-f3b4ad4ad678","7BB5F928B5964D0D9107C754975857A7-2025-08-28-02-27-26","","null","","[]","null","",""
"","","","","","image-button-response","75","424918","0.0-12.0-1.0-0.6","7BB5F928B5964D0D9107C754975857A7","7BB5F928B5964D0D9107C754975857A7","0198ee55-a43f-7796-86e2-7a836980f7f2","0198ee3c-27ac-7803-a9ea-f3b4ad4ad678","{""num_scrambled_semantic"":""8"",""num_scrambled_causal"":""4"",""num_scrambled_schematic"":""4"",""participantId"":""7BB5F928B5964D0D9107C754975857A7"",""assignmentId"":""0198ee55-a43f-7796-86e2-7a836980f7f2"",""projectId"":""0198ee3c-27ac-7803-a9ea-f3b4ad4ad678""}","https://test12345.live/?num_scrambled_semantic=8&num_scrambled_causal=4&num_scrambled_schematic=4&participantId=7BB5F928B5964D0D9107C754975857A7&assignmentId=0198ee55-a43f-7796-86e2-7a836980f7f2&projectId=0198ee3c-27ac-7803-a9ea-f3b4ad4ad678","7BB5F928B5964D0D9107C754975857A7-2025-08-28-02-27-26","","null","","images/schematic_sequence/hotel_scheme/hotel_scheme_4.png","null","",""
"","","","","","image-button-response","76","425431","0.0-12.0-1.0-1.6","7BB5F928B5964D0D9107C754975857A7","7BB5F928B5964D0D9107C754975857A7","0198ee55-a43f-7796-86e2-7a836980f7f2","0198ee3c-27ac-7803-a9ea-f3b4ad4ad678","{""num_scrambled_semantic"":""8"",""num_scrambled_causal"":""4"",""num_scrambled_schematic"":""4"",""participantId"":""7BB5F928B5964D0D9107C754975857A7"",""assignmentId"":""0198ee55-a43f-7796-86e2-7a836980f7f2"",""projectId"":""0198ee3c-27ac-7803-a9ea-f3b4ad4ad678""}","https://test12345.live/?num_scrambled_semantic=8&num_scrambled_causal=4&num_scrambled_schematic=4&participantId=7BB5F928B5964D0D9107C754975857A7&assignmentId=0198ee55-a43f-7796-86e2-7a836980f7f2&projectId=0198ee3c-27ac-7803-a9ea-f3b4ad4ad678","7BB5F928B5964D0D9107C754975857A7-2025-08-28-02-27-26","","512","","images/schematic_sequence/hotel_scheme/hotel_scheme_4.png","0","",""
"","","","","","image-button-response","77","427232","0.0-12.0-1.0-2.6","7BB5F928B5964D0D9107C754975857A7","7BB5F928B5964D0D9107C754975857A7","0198ee55-a43f-7796-86e2-7a836980f7f2","0198ee3c-27ac-7803-a9ea-f3b4ad4ad678","{""num_scrambled_semantic"":""8"",""num_scrambled_causal"":""4"",""num_scrambled_schematic"":""4"",""participantId"":""7BB5F928B5964D0D9107C754975857A7"",""assignmentId"":""0198ee55-a43f-7796-86e2-7a836980f7f2"",""projectId"":""0198ee3c-27ac-7803-a9ea-f3b4ad4ad678""}","https://test12345.live/?num_scrambled_semantic=8&num_scrambled_causal=4&num_scrambled_schematic=4&participantId=7BB5F928B5964D0D9107C754975857A7&assignmentId=0198ee55-a43f-7796-86e2-7a836980f7f2&projectId=0198ee3c-27ac-7803-a9ea-f3b4ad4ad678","7BB5F928B5964D0D9107C754975857A7-2025-08-28-02-27-26","","null","","[]","null","",""
"","","","","","image-button-response","78","431733","0.0-12.0-1.0-0.7","7BB5F928B5964D0D9107C754975857A7","7BB5F928B5964D0D9107C754975857A7","0198ee55-a43f-7796-86e2-7a836980f7f2","0198ee3c-27ac-7803-a9ea-f3b4ad4ad678","{""num_scrambled_semantic"":""8"",""num_scrambled_causal"":""4"",""num_scrambled_schematic"":""4"",""participantId"":""7BB5F928B5964D0D9107C754975857A7"",""assignmentId"":""0198ee55-a43f-7796-86e2-7a836980f7f2"",""projectId"":""0198ee3c-27ac-7803-a9ea-f3b4ad4ad678""}","https://test12345.live/?num_scrambled_semantic=8&num_scrambled_causal=4&num_scrambled_schematic=4&participantId=7BB5F928B5964D0D9107C754975857A7&assignmentId=0198ee55-a43f-7796-86e2-7a836980f7f2&projectId=0198ee3c-27ac-7803-a9ea-f3b4ad4ad678","7BB5F928B5964D0D9107C754975857A7-2025-08-28-02-27-26","","null","","images/schematic_sequence/hotel_scheme/hotel_scheme_ten.png","null","",""
"","","","","","image-button-response","79","432152","0.0-12.0-1.0-1.7","7BB5F928B5964D0D9107C754975857A7","7BB5F928B5964D0D9107C754975857A7","0198ee55-a43f-7796-86e2-7a836980f7f2","0198ee3c-27ac-7803-a9ea-f3b4ad4ad678","{""num_scrambled_semantic"":""8"",""num_scrambled_causal"":""4"",""num_scrambled_schematic"":""4"",""participantId"":""7BB5F928B5964D0D9107C754975857A7"",""assignmentId"":""0198ee55-a43f-7796-86e2-7a836980f7f2"",""projectId"":""0198ee3c-27ac-7803-a9ea-f3b4ad4ad678""}","https://test12345.live/?num_scrambled_semantic=8&num_scrambled_causal=4&num_scrambled_schematic=4&participantId=7BB5F928B5964D0D9107C754975857A7&assignmentId=0198ee55-a43f-7796-86e2-7a836980f7f2&projectId=0198ee3c-27ac-7803-a9ea-f3b4ad4ad678","7BB5F928B5964D0D9107C754975857A7-2025-08-28-02-27-26","","418","","images/schematic_sequence/hotel_scheme/hotel_scheme_ten.png","0","",""
"","","","","","image-button-response","80","433954","0.0-12.0-1.0-2.7","7BB5F928B5964D0D9107C754975857A7","7BB5F928B5964D0D9107C754975857A7","0198ee55-a43f-7796-86e2-7a836980f7f2","0198ee3c-27ac-7803-a9ea-f3b4ad4ad678","{""num_scrambled_semantic"":""8"",""num_scrambled_causal"":""4"",""num_scrambled_schematic"":""4"",""participantId"":""7BB5F928B5964D0D9107C754975857A7"",""assignmentId"":""0198ee55-a43f-7796-86e2-7a836980f7f2"",""projectId"":""0198ee3c-27ac-7803-a9ea-f3b4ad4ad678""}","https://test12345.live/?num_scrambled_semantic=8&num_scrambled_causal=4&num_scrambled_schematic=4&participantId=7BB5F928B5964D0D9107C754975857A7&assignmentId=0198ee55-a43f-7796-86e2-7a836980f7f2&projectId=0198ee3c-27ac-7803-a9ea-f3b4ad4ad678","7BB5F928B5964D0D9107C754975857A7-2025-08-28-02-27-26","","null","","[]","null","",""
"","","","","","image-button-response","81","438455","0.0-12.0-1.0-0.8","7BB5F928B5964D0D9107C754975857A7","7BB5F928B5964D0D9107C754975857A7","0198ee55-a43f-7796-86e2-7a836980f7f2","0198ee3c-27ac-7803-a9ea-f3b4ad4ad678","{""num_scrambled_semantic"":""8"",""num_scrambled_causal"":""4"",""num_scrambled_schematic"":""4"",""participantId"":""7BB5F928B5964D0D9107C754975857A7"",""assignmentId"":""0198ee55-a43f-7796-86e2-7a836980f7f2"",""projectId"":""0198ee3c-27ac-7803-a9ea-f3b4ad4ad678""}","https://test12345.live/?num_scrambled_semantic=8&num_scrambled_causal=4&num_scrambled_schematic=4&participantId=7BB5F928B5964D0D9107C754975857A7&assignmentId=0198ee55-a43f-7796-86e2-7a836980f7f2&projectId=0198ee3c-27ac-7803-a9ea-f3b4ad4ad678","7BB5F928B5964D0D9107C754975857A7-2025-08-28-02-27-26","","null","","images/schematic_sequence/hotel_scheme/hotel_scheme_1.png","null","",""
"","","","","","image-button-response","82","439118","0.0-12.0-1.0-1.8","7BB5F928B5964D0D9107C754975857A7","7BB5F928B5964D0D9107C754975857A7","0198ee55-a43f-7796-86e2-7a836980f7f2","0198ee3c-27ac-7803-a9ea-f3b4ad4ad678","{""num_scrambled_semantic"":""8"",""num_scrambled_causal"":""4"",""num_scrambled_schematic"":""4"",""participantId"":""7BB5F928B5964D0D9107C754975857A7"",""assignmentId"":""0198ee55-a43f-7796-86e2-7a836980f7f2"",""projectId"":""0198ee3c-27ac-7803-a9ea-f3b4ad4ad678""}","https://test12345.live/?num_scrambled_semantic=8&num_scrambled_causal=4&num_scrambled_schematic=4&participantId=7BB5F928B5964D0D9107C754975857A7&assignmentId=0198ee55-a43f-7796-86e2-7a836980f7f2&projectId=0198ee3c-27ac-7803-a9ea-f3b4ad4ad678","7BB5F928B5964D0D9107C754975857A7-2025-08-28-02-27-26","","662","","images/schematic_sequence/hotel_scheme/hotel_scheme_1.png","0","",""
"","","","","","image-button-response","83","440920","0.0-12.0-1.0-2.8","7BB5F928B5964D0D9107C754975857A7","7BB5F928B5964D0D9107C754975857A7","0198ee55-a43f-7796-86e2-7a836980f7f2","0198ee3c-27ac-7803-a9ea-f3b4ad4ad678","{""num_scrambled_semantic"":""8"",""num_scrambled_causal"":""4"",""num_scrambled_schematic"":""4"",""participantId"":""7BB5F928B5964D0D9107C754975857A7"",""assignmentId"":""0198ee55-a43f-7796-86e2-7a836980f7f2"",""projectId"":""0198ee3c-27ac-7803-a9ea-f3b4ad4ad678""}","https://test12345.live/?num_scrambled_semantic=8&num_scrambled_causal=4&num_scrambled_schematic=4&participantId=7BB5F928B5964D0D9107C754975857A7&assignmentId=0198ee55-a43f-7796-86e2-7a836980f7f2&projectId=0198ee3c-27ac-7803-a9ea-f3b4ad4ad678","7BB5F928B5964D0D9107C754975857A7-2025-08-28-02-27-26","","null","","[]","null","",""
"","","","","","image-button-response","84","445420","0.0-12.0-1.0-0.9","7BB5F928B5964D0D9107C754975857A7","7BB5F928B5964D0D9107C754975857A7","0198ee55-a43f-7796-86e2-7a836980f7f2","0198ee3c-27ac-7803-a9ea-f3b4ad4ad678","{""num_scrambled_semantic"":""8"",""num_scrambled_causal"":""4"",""num_scrambled_schematic"":""4"",""participantId"":""7BB5F928B5964D0D9107C754975857A7"",""assignmentId"":""0198ee55-a43f-7796-86e2-7a836980f7f2"",""projectId"":""0198ee3c-27ac-7803-a9ea-f3b4ad4ad678""}","https://test12345.live/?num_scrambled_semantic=8&num_scrambled_causal=4&num_scrambled_schematic=4&participantId=7BB5F928B5964D0D9107C754975857A7&assignmentId=0198ee55-a43f-7796-86e2-7a836980f7f2&projectId=0198ee3c-27ac-7803-a9ea-f3b4ad4ad678","7BB5F928B5964D0D9107C754975857A7-2025-08-28-02-27-26","","null","","images/schematic_sequence/hotel_scheme/hotel_scheme_5.png","null","",""
"","","","","","image-button-response","85","446080","0.0-12.0-1.0-1.9","7BB5F928B5964D0D9107C754975857A7","7BB5F928B5964D0D9107C754975857A7","0198ee55-a43f-7796-86e2-7a836980f7f2","0198ee3c-27ac-7803-a9ea-f3b4ad4ad678","{""num_scrambled_semantic"":""8"",""num_scrambled_causal"":""4"",""num_scrambled_schematic"":""4"",""participantId"":""7BB5F928B5964D0D9107C754975857A7"",""assignmentId"":""0198ee55-a43f-7796-86e2-7a836980f7f2"",""projectId"":""0198ee3c-27ac-7803-a9ea-f3b4ad4ad678""}","https://test12345.live/?num_scrambled_semantic=8&num_scrambled_causal=4&num_scrambled_schematic=4&participantId=7BB5F928B5964D0D9107C754975857A7&assignmentId=0198ee55-a43f-7796-86e2-7a836980f7f2&projectId=0198ee3c-27ac-7803-a9ea-f3b4ad4ad678","7BB5F928B5964D0D9107C754975857A7-2025-08-28-02-27-26","","659","","images/schematic_sequence/hotel_scheme/hotel_scheme_5.png","0","",""
"","","","","","image-button-response","86","447881","0.0-12.0-1.0-2.9","7BB5F928B5964D0D9107C754975857A7","7BB5F928B5964D0D9107C754975857A7","0198ee55-a43f-7796-86e2-7a836980f7f2","0198ee3c-27ac-7803-a9ea-f3b4ad4ad678","{""num_scrambled_semantic"":""8"",""num_scrambled_causal"":""4"",""num_scrambled_schematic"":""4"",""participantId"":""7BB5F928B5964D0D9107C754975857A7"",""assignmentId"":""0198ee55-a43f-7796-86e2-7a836980f7f2"",""projectId"":""0198ee3c-27ac-7803-a9ea-f3b4ad4ad678""}","https://test12345.live/?num_scrambled_semantic=8&num_scrambled_causal=4&num_scrambled_schematic=4&participantId=7BB5F928B5964D0D9107C754975857A7&assignmentId=0198ee55-a43f-7796-86e2-7a836980f7f2&projectId=0198ee3c-27ac-7803-a9ea-f3b4ad4ad678","7BB5F928B5964D0D9107C754975857A7-2025-08-28-02-27-26","","null","","[]","null","",""
"","","","","","html-audio-response","87","466969","0.0-13.0","7BB5F928B5964D0D9107C754975857A7","7BB5F928B5964D0D9107C754975857A7","0198ee55-a43f-7796-86e2-7a836980f7f2","0198ee3c-27ac-7803-a9ea-f3b4ad4ad678","{""num_scrambled_semantic"":""8"",""num_scrambled_causal"":""4"",""num_scrambled_schematic"":""4"",""participantId"":""7BB5F928B5964D0D9107C754975857A7"",""assignmentId"":""0198ee55-a43f-7796-86e2-7a836980f7f2"",""projectId"":""0198ee3c-27ac-7803-a9ea-f3b4ad4ad678""}","https://test12345.live/?num_scrambled_semantic=8&num_scrambled_causal=4&num_scrambled_schematic=4&participantId=7BB5F928B5964D0D9107C754975857A7&assignmentId=0198ee55-a43f-7796-86e2-7a836980f7f2&projectId=0198ee3c-27ac-7803-a9ea-f3b4ad4ad678","7BB5F928B5964D0D9107C754975857A7-2025-08-28-02-27-26","","17981","","[""<span style=\""color: red; font-size: 24px\""> NOW RECORDING</span><p>Please say out loud all the images you saw, in the order of the story they create. Try to recall the sequence of events as they appeared in the story, not necessarily the order they were presented on the screen.</p>""]","","1","hotel_scheme"
"","","","","","image-button-response","88","472973","0.0-14.0-0.0","7BB5F928B5964D0D9107C754975857A7","7BB5F928B5964D0D9107C754975857A7","0198ee55-a43f-7796-86e2-7a836980f7f2","0198ee3c-27ac-7803-a9ea-f3b4ad4ad678","{""num_scrambled_semantic"":""8"",""num_scrambled_causal"":""4"",""num_scrambled_schematic"":""4"",""participantId"":""7BB5F928B5964D0D9107C754975857A7"",""assignmentId"":""0198ee55-a43f-7796-86e2-7a836980f7f2"",""projectId"":""0198ee3c-27ac-7803-a9ea-f3b4ad4ad678""}","https://test12345.live/?num_scrambled_semantic=8&num_scrambled_causal=4&num_scrambled_schematic=4&participantId=7BB5F928B5964D0D9107C754975857A7&assignmentId=0198ee55-a43f-7796-86e2-7a836980f7f2&projectId=0198ee3c-27ac-7803-a9ea-f3b4ad4ad678","7BB5F928B5964D0D9107C754975857A7-2025-08-28-02-27-26","","null","","images/semantic_sequence/market_semantic/market_semantic_0.png","null","",""
"","","","","","image-button-response","89","477474","0.0-14.0-1.0-0.0","7BB5F928B5964D0D9107C754975857A7","7BB5F928B5964D0D9107C754975857A7","0198ee55-a43f-7796-86e2-7a836980f7f2","0198ee3c-27ac-7803-a9ea-f3b4ad4ad678","{""num_scrambled_semantic"":""8"",""num_scrambled_causal"":""4"",""num_scrambled_schematic"":""4"",""participantId"":""7BB5F928B5964D0D9107C754975857A7"",""assignmentId"":""0198ee55-a43f-7796-86e2-7a836980f7f2"",""projectId"":""0198ee3c-27ac-7803-a9ea-f3b4ad4ad678""}","https://test12345.live/?num_scrambled_semantic=8&num_scrambled_causal=4&num_scrambled_schematic=4&participantId=7BB5F928B5964D0D9107C754975857A7&assignmentId=0198ee55-a43f-7796-86e2-7a836980f7f2&projectId=0198ee3c-27ac-7803-a9ea-f3b4ad4ad678","7BB5F928B5964D0D9107C754975857A7-2025-08-28-02-27-26","","null","","images/semantic_sequence/market_semantic/market_semantic_4.png","null","",""
"","","","","","image-button-response","90","478453","0.0-14.0-1.0-1.0","7BB5F928B5964D0D9107C754975857A7","7BB5F928B5964D0D9107C754975857A7","0198ee55-a43f-7796-86e2-7a836980f7f2","0198ee3c-27ac-7803-a9ea-f3b4ad4ad678","{""num_scrambled_semantic"":""8"",""num_scrambled_causal"":""4"",""num_scrambled_schematic"":""4"",""participantId"":""7BB5F928B5964D0D9107C754975857A7"",""assignmentId"":""0198ee55-a43f-7796-86e2-7a836980f7f2"",""projectId"":""0198ee3c-27ac-7803-a9ea-f3b4ad4ad678""}","https://test12345.live/?num_scrambled_semantic=8&num_scrambled_causal=4&num_scrambled_schematic=4&participantId=7BB5F928B5964D0D9107C754975857A7&assignmentId=0198ee55-a43f-7796-86e2-7a836980f7f2&projectId=0198ee3c-27ac-7803-a9ea-f3b4ad4ad678","7BB5F928B5964D0D9107C754975857A7-2025-08-28-02-27-26","","978","","images/semantic_sequence/market_semantic/market_semantic_4.png","0","",""
"","","","","","image-button-response","91","480254","0.0-14.0-1.0-2.0","7BB5F928B5964D0D9107C754975857A7","7BB5F928B5964D0D9107C754975857A7","0198ee55-a43f-7796-86e2-7a836980f7f2","0198ee3c-27ac-7803-a9ea-f3b4ad4ad678","{""num_scrambled_semantic"":""8"",""num_scrambled_causal"":""4"",""num_scrambled_schematic"":""4"",""participantId"":""7BB5F928B5964D0D9107C754975857A7"",""assignmentId"":""0198ee55-a43f-7796-86e2-7a836980f7f2"",""projectId"":""0198ee3c-27ac-7803-a9ea-f3b4ad4ad678""}","https://test12345.live/?num_scrambled_semantic=8&num_scrambled_causal=4&num_scrambled_schematic=4&participantId=7BB5F928B5964D0D9107C754975857A7&assignmentId=0198ee55-a43f-7796-86e2-7a836980f7f2&projectId=0198ee3c-27ac-7803-a9ea-f3b4ad4ad678","7BB5F928B5964D0D9107C754975857A7-2025-08-28-02-27-26","","null","","[]","null","",""
"","","","","","image-button-response","92","484754","0.0-14.0-1.0-0.1","7BB5F928B5964D0D9107C754975857A7","7BB5F928B5964D0D9107C754975857A7","0198ee55-a43f-7796-86e2-7a836980f7f2","0198ee3c-27ac-7803-a9ea-f3b4ad4ad678","{""num_scrambled_semantic"":""8"",""num_scrambled_causal"":""4"",""num_scrambled_schematic"":""4"",""participantId"":""7BB5F928B5964D0D9107C754975857A7"",""assignmentId"":""0198ee55-a43f-7796-86e2-7a836980f7f2"",""projectId"":""0198ee3c-27ac-7803-a9ea-f3b4ad4ad678""}","https://test12345.live/?num_scrambled_semantic=8&num_scrambled_causal=4&num_scrambled_schematic=4&participantId=7BB5F928B5964D0D9107C754975857A7&assignmentId=0198ee55-a43f-7796-86e2-7a836980f7f2&projectId=0198ee3c-27ac-7803-a9ea-f3b4ad4ad678","7BB5F928B5964D0D9107C754975857A7-2025-08-28-02-27-26","","null","","images/semantic_sequence/market_semantic/market_semantic_9.png","null","",""
"","","","","","image-button-response","93","485860","0.0-14.0-1.0-1.1","7BB5F928B5964D0D9107C754975857A7","7BB5F928B5964D0D9107C754975857A7","0198ee55-a43f-7796-86e2-7a836980f7f2","0198ee3c-27ac-7803-a9ea-f3b4ad4ad678","{""num_scrambled_semantic"":""8"",""num_scrambled_causal"":""4"",""num_scrambled_schematic"":""4"",""participantId"":""7BB5F928B5964D0D9107C754975857A7"",""assignmentId"":""0198ee55-a43f-7796-86e2-7a836980f7f2"",""projectId"":""0198ee3c-27ac-7803-a9ea-f3b4ad4ad678""}","https://test12345.live/?num_scrambled_semantic=8&num_scrambled_causal=4&num_scrambled_schematic=4&participantId=7BB5F928B5964D0D9107C754975857A7&assignmentId=0198ee55-a43f-7796-86e2-7a836980f7f2&projectId=0198ee3c-27ac-7803-a9ea-f3b4ad4ad678","7BB5F928B5964D0D9107C754975857A7-2025-08-28-02-27-26","","1105","","images/semantic_sequence/market_semantic/market_semantic_9.png","0","",""
"","","","","","image-button-response","94","487662","0.0-14.0-1.0-2.1","7BB5F928B5964D0D9107C754975857A7","7BB5F928B5964D0D9107C754975857A7","0198ee55-a43f-7796-86e2-7a836980f7f2","0198ee3c-27ac-7803-a9ea-f3b4ad4ad678","{""num_scrambled_semantic"":""8"",""num_scrambled_causal"":""4"",""num_scrambled_schematic"":""4"",""participantId"":""7BB5F928B5964D0D9107C754975857A7"",""assignmentId"":""0198ee55-a43f-7796-86e2-7a836980f7f2"",""projectId"":""0198ee3c-27ac-7803-a9ea-f3b4ad4ad678""}","https://test12345.live/?num_scrambled_semantic=8&num_scrambled_causal=4&num_scrambled_schematic=4&participantId=7BB5F928B5964D0D9107C754975857A7&assignmentId=0198ee55-a43f-7796-86e2-7a836980f7f2&projectId=0198ee3c-27ac-7803-a9ea-f3b4ad4ad678","7BB5F928B5964D0D9107C754975857A7-2025-08-28-02-27-26","","null","","[]","null","",""
"","","","","","image-button-response","95","492163","0.0-14.0-1.0-0.2","7BB5F928B5964D0D9107C754975857A7","7BB5F928B5964D0D9107C754975857A7","0198ee55-a43f-7796-86e2-7a836980f7f2","0198ee3c-27ac-7803-a9ea-f3b4ad4ad678","{""num_scrambled_semantic"":""8"",""num_scrambled_causal"":""4"",""num_scrambled_schematic"":""4"",""participantId"":""7BB5F928B5964D0D9107C754975857A7"",""assignmentId"":""0198ee55-a43f-7796-86e2-7a836980f7f2"",""projectId"":""0198ee3c-27ac-7803-a9ea-f3b4ad4ad678""}","https://test12345.live/?num_scrambled_semantic=8&num_scrambled_causal=4&num_scrambled_schematic=4&participantId=7BB5F928B5964D0D9107C754975857A7&assignmentId=0198ee55-a43f-7796-86e2-7a836980f7f2&projectId=0198ee3c-27ac-7803-a9ea-f3b4ad4ad678","7BB5F928B5964D0D9107C754975857A7-2025-08-28-02-27-26","","null","","images/semantic_sequence/market_semantic/market_semantic_5.png","null","",""
"","","","","","image-button-response","96","493762","0.0-14.0-1.0-1.2","7BB5F928B5964D0D9107C754975857A7","7BB5F928B5964D0D9107C754975857A7","0198ee55-a43f-7796-86e2-7a836980f7f2","0198ee3c-27ac-7803-a9ea-f3b4ad4ad678","{""num_scrambled_semantic"":""8"",""num_scrambled_causal"":""4"",""num_scrambled_schematic"":""4"",""participantId"":""7BB5F928B5964D0D9107C754975857A7"",""assignmentId"":""0198ee55-a43f-7796-86e2-7a836980f7f2"",""projectId"":""0198ee3c-27ac-7803-a9ea-f3b4ad4ad678""}","https://test12345.live/?num_scrambled_semantic=8&num_scrambled_causal=4&num_scrambled_schematic=4&participantId=7BB5F928B5964D0D9107C754975857A7&assignmentId=0198ee55-a43f-7796-86e2-7a836980f7f2&projectId=0198ee3c-27ac-7803-a9ea-f3b4ad4ad678","7BB5F928B5964D0D9107C754975857A7-2025-08-28-02-27-26","","1599","","images/semantic_sequence/market_semantic/market_semantic_5.png","0","",""
"","","","","","image-button-response","97","495564","0.0-14.0-1.0-2.2","7BB5F928B5964D0D9107C754975857A7","7BB5F928B5964D0D9107C754975857A7","0198ee55-a43f-7796-86e2-7a836980f7f2","0198ee3c-27ac-7803-a9ea-f3b4ad4ad678","{""num_scrambled_semantic"":""8"",""num_scrambled_causal"":""4"",""num_scrambled_schematic"":""4"",""participantId"":""7BB5F928B5964D0D9107C754975857A7"",""assignmentId"":""0198ee55-a43f-7796-86e2-7a836980f7f2"",""projectId"":""0198ee3c-27ac-7803-a9ea-f3b4ad4ad678""}","https://test12345.live/?num_scrambled_semantic=8&num_scrambled_causal=4&num_scrambled_schematic=4&participantId=7BB5F928B5964D0D9107C754975857A7&assignmentId=0198ee55-a43f-7796-86e2-7a836980f7f2&projectId=0198ee3c-27ac-7803-a9ea-f3b4ad4ad678","7BB5F928B5964D0D9107C754975857A7-2025-08-28-02-27-26","","null","","[]","null","",""
"","","","","","image-button-response","98","500064","0.0-14.0-1.0-0.3","7BB5F928B5964D0D9107C754975857A7","7BB5F928B5964D0D9107C754975857A7","0198ee55-a43f-7796-86e2-7a836980f7f2","0198ee3c-27ac-7803-a9ea-f3b4ad4ad678","{""num_scrambled_semantic"":""8"",""num_scrambled_causal"":""4"",""num_scrambled_schematic"":""4"",""participantId"":""7BB5F928B5964D0D9107C754975857A7"",""assignmentId"":""0198ee55-a43f-7796-86e2-7a836980f7f2"",""projectId"":""0198ee3c-27ac-7803-a9ea-f3b4ad4ad678""}","https://test12345.live/?num_scrambled_semantic=8&num_scrambled_causal=4&num_scrambled_schematic=4&participantId=7BB5F928B5964D0D9107C754975857A7&assignmentId=0198ee55-a43f-7796-86e2-7a836980f7f2&projectId=0198ee3c-27ac-7803-a9ea-f3b4ad4ad678","7BB5F928B5964D0D9107C754975857A7-2025-08-28-02-27-26","","null","","images/semantic_sequence/market_semantic/market_semantic_7.png","null","",""
"","","","","","image-button-response","99","500683","0.0-14.0-1.0-1.3","7BB5F928B5964D0D9107C754975857A7","7BB5F928B5964D0D9107C754975857A7","0198ee55-a43f-7796-86e2-7a836980f7f2","0198ee3c-27ac-7803-a9ea-f3b4ad4ad678","{""num_scrambled_semantic"":""8"",""num_scrambled_causal"":""4"",""num_scrambled_schematic"":""4"",""participantId"":""7BB5F928B5964D0D9107C754975857A7"",""assignmentId"":""0198ee55-a43f-7796-86e2-7a836980f7f2"",""projectId"":""0198ee3c-27ac-7803-a9ea-f3b4ad4ad678""}","https://test12345.live/?num_scrambled_semantic=8&num_scrambled_causal=4&num_scrambled_schematic=4&participantId=7BB5F928B5964D0D9107C754975857A7&assignmentId=0198ee55-a43f-7796-86e2-7a836980f7f2&projectId=0198ee3c-27ac-7803-a9ea-f3b4ad4ad678","7BB5F928B5964D0D9107C754975857A7-2025-08-28-02-27-26","","618","","images/semantic_sequence/market_semantic/market_semantic_7.png","0","",""
"","","","","","image-button-response","100","502483","0.0-14.0-1.0-2.3","7BB5F928B5964D0D9107C754975857A7","7BB5F928B5964D0D9107C754975857A7","0198ee55-a43f-7796-86e2-7a836980f7f2","0198ee3c-27ac-7803-a9ea-f3b4ad4ad678","{""num_scrambled_semantic"":""8"",""num_scrambled_causal"":""4"",""num_scrambled_schematic"":""4"",""participantId"":""7BB5F928B5964D0D9107C754975857A7"",""assignmentId"":""0198ee55-a43f-7796-86e2-7a836980f7f2"",""projectId"":""0198ee3c-27ac-7803-a9ea-f3b4ad4ad678""}","https://test12345.live/?num_scrambled_semantic=8&num_scrambled_causal=4&num_scrambled_schematic=4&participantId=7BB5F928B5964D0D9107C754975857A7&assignmentId=0198ee55-a43f-7796-86e2-7a836980f7f2&projectId=0198ee3c-27ac-7803-a9ea-f3b4ad4ad678","7BB5F928B5964D0D9107C754975857A7-2025-08-28-02-27-26","","null","","[]","null","",""
"","","","","","image-button-response","101","506984","0.0-14.0-1.0-0.4","7BB5F928B5964D0D9107C754975857A7","7BB5F928B5964D0D9107C754975857A7","0198ee55-a43f-7796-86e2-7a836980f7f2","0198ee3c-27ac-7803-a9ea-f3b4ad4ad678","{""num_scrambled_semantic"":""8"",""num_scrambled_causal"":""4"",""num_scrambled_schematic"":""4"",""participantId"":""7BB5F928B5964D0D9107C754975857A7"",""assignmentId"":""0198ee55-a43f-7796-86e2-7a836980f7f2"",""projectId"":""0198ee3c-27ac-7803-a9ea-f3b4ad4ad678""}","https://test12345.live/?num_scrambled_semantic=8&num_scrambled_causal=4&num_scrambled_schematic=4&participantId=7BB5F928B5964D0D9107C754975857A7&assignmentId=0198ee55-a43f-7796-86e2-7a836980f7f2&projectId=0198ee3c-27ac-7803-a9ea-f3b4ad4ad678","7BB5F928B5964D0D9107C754975857A7-2025-08-28-02-27-26","","null","","images/semantic_sequence/market_semantic/market_semantic_1.png","null","",""
"","","","","","image-button-response","102","507669","0.0-14.0-1.0-1.4","7BB5F928B5964D0D9107C754975857A7","7BB5F928B5964D0D9107C754975857A7","0198ee55-a43f-7796-86e2-7a836980f7f2","0198ee3c-27ac-7803-a9ea-f3b4ad4ad678","{""num_scrambled_semantic"":""8"",""num_scrambled_causal"":""4"",""num_scrambled_schematic"":""4"",""participantId"":""7BB5F928B5964D0D9107C754975857A7"",""assignmentId"":""0198ee55-a43f-7796-86e2-7a836980f7f2"",""projectId"":""0198ee3c-27ac-7803-a9ea-f3b4ad4ad678""}","https://test12345.live/?num_scrambled_semantic=8&num_scrambled_causal=4&num_scrambled_schematic=4&participantId=7BB5F928B5964D0D9107C754975857A7&assignmentId=0198ee55-a43f-7796-86e2-7a836980f7f2&projectId=0198ee3c-27ac-7803-a9ea-f3b4ad4ad678","7BB5F928B5964D0D9107C754975857A7-2025-08-28-02-27-26","","684","","images/semantic_sequence/market_semantic/market_semantic_1.png","1","",""
"","","","","","image-button-response","103","509469","0.0-14.0-1.0-2.4","7BB5F928B5964D0D9107C754975857A7","7BB5F928B5964D0D9107C754975857A7","0198ee55-a43f-7796-86e2-7a836980f7f2","0198ee3c-27ac-7803-a9ea-f3b4ad4ad678","{""num_scrambled_semantic"":""8"",""num_scrambled_causal"":""4"",""num_scrambled_schematic"":""4"",""participantId"":""7BB5F928B5964D0D9107C754975857A7"",""assignmentId"":""0198ee55-a43f-7796-86e2-7a836980f7f2"",""projectId"":""0198ee3c-27ac-7803-a9ea-f3b4ad4ad678""}","https://test12345.live/?num_scrambled_semantic=8&num_scrambled_causal=4&num_scrambled_schematic=4&participantId=7BB5F928B5964D0D9107C754975857A7&assignmentId=0198ee55-a43f-7796-86e2-7a836980f7f2&projectId=0198ee3c-27ac-7803-a9ea-f3b4ad4ad678","7BB5F928B5964D0D9107C754975857A7-2025-08-28-02-27-26","","null","","[]","null","",""
"","","","","","image-button-response","104","513970","0.0-14.0-1.0-0.5","7BB5F928B5964D0D9107C754975857A7","7BB5F928B5964D0D9107C754975857A7","0198ee55-a43f-7796-86e2-7a836980f7f2","0198ee3c-27ac-7803-a9ea-f3b4ad4ad678","{""num_scrambled_semantic"":""8"",""num_scrambled_causal"":""4"",""num_scrambled_schematic"":""4"",""participantId"":""7BB5F928B5964D0D9107C754975857A7"",""assignmentId"":""0198ee55-a43f-7796-86e2-7a836980f7f2"",""projectId"":""0198ee3c-27ac-7803-a9ea-f3b4ad4ad678""}","https://test12345.live/?num_scrambled_semantic=8&num_scrambled_causal=4&num_scrambled_schematic=4&participantId=7BB5F928B5964D0D9107C754975857A7&assignmentId=0198ee55-a43f-7796-86e2-7a836980f7f2&projectId=0198ee3c-27ac-7803-a9ea-f3b4ad4ad678","7BB5F928B5964D0D9107C754975857A7-2025-08-28-02-27-26","","null","","images/semantic_sequence/market_semantic/market_semantic_6.png","null","",""
"","","","","","image-button-response","105","514615","0.0-14.0-1.0-1.5","7BB5F928B5964D0D9107C754975857A7","7BB5F928B5964D0D9107C754975857A7","0198ee55-a43f-7796-86e2-7a836980f7f2","0198ee3c-27ac-7803-a9ea-f3b4ad4ad678","{""num_scrambled_semantic"":""8"",""num_scrambled_causal"":""4"",""num_scrambled_schematic"":""4"",""participantId"":""7BB5F928B5964D0D9107C754975857A7"",""assignmentId"":""0198ee55-a43f-7796-86e2-7a836980f7f2"",""projectId"":""0198ee3c-27ac-7803-a9ea-f3b4ad4ad678""}","https://test12345.live/?num_scrambled_semantic=8&num_scrambled_causal=4&num_scrambled_schematic=4&participantId=7BB5F928B5964D0D9107C754975857A7&assignmentId=0198ee55-a43f-7796-86e2-7a836980f7f2&projectId=0198ee3c-27ac-7803-a9ea-f3b4ad4ad678","7BB5F928B5964D0D9107C754975857A7-2025-08-28-02-27-26","","644","","images/semantic_sequence/market_semantic/market_semantic_6.png","0","",""
"","","","","","image-button-response","106","516416","0.0-14.0-1.0-2.5","7BB5F928B5964D0D9107C754975857A7","7BB5F928B5964D0D9107C754975857A7","0198ee55-a43f-7796-86e2-7a836980f7f2","0198ee3c-27ac-7803-a9ea-f3b4ad4ad678","{""num_scrambled_semantic"":""8"",""num_scrambled_causal"":""4"",""num_scrambled_schematic"":""4"",""participantId"":""7BB5F928B5964D0D9107C754975857A7"",""assignmentId"":""0198ee55-a43f-7796-86e2-7a836980f7f2"",""projectId"":""0198ee3c-27ac-7803-a9ea-f3b4ad4ad678""}","https://test12345.live/?num_scrambled_semantic=8&num_scrambled_causal=4&num_scrambled_schematic=4&participantId=7BB5F928B5964D0D9107C754975857A7&assignmentId=0198ee55-a43f-7796-86e2-7a836980f7f2&projectId=0198ee3c-27ac-7803-a9ea-f3b4ad4ad678","7BB5F928B5964D0D9107C754975857A7-2025-08-28-02-27-26","","null","","[]","null","",""
"","","","","","image-button-response","107","520917","0.0-14.0-1.0-0.6","7BB5F928B5964D0D9107C754975857A7","7BB5F928B5964D0D9107C754975857A7","0198ee55-a43f-7796-86e2-7a836980f7f2","0198ee3c-27ac-7803-a9ea-f3b4ad4ad678","{""num_scrambled_semantic"":""8"",""num_scrambled_causal"":""4"",""num_scrambled_schematic"":""4"",""participantId"":""7BB5F928B5964D0D9107C754975857A7"",""assignmentId"":""0198ee55-a43f-7796-86e2-7a836980f7f2"",""projectId"":""0198ee3c-27ac-7803-a9ea-f3b4ad4ad678""}","https://test12345.live/?num_scrambled_semantic=8&num_scrambled_causal=4&num_scrambled_schematic=4&participantId=7BB5F928B5964D0D9107C754975857A7&assignmentId=0198ee55-a43f-7796-86e2-7a836980f7f2&projectId=0198ee3c-27ac-7803-a9ea-f3b4ad4ad678","7BB5F928B5964D0D9107C754975857A7-2025-08-28-02-27-26","","null","","images/semantic_sequence/market_semantic/market_semantic_ten.png","null","",""
"","","","","","image-button-response","108","523424","0.0-14.0-1.0-1.6","7BB5F928B5964D0D9107C754975857A7","7BB5F928B5964D0D9107C754975857A7","0198ee55-a43f-7796-86e2-7a836980f7f2","0198ee3c-27ac-7803-a9ea-f3b4ad4ad678","{""num_scrambled_semantic"":""8"",""num_scrambled_causal"":""4"",""num_scrambled_schematic"":""4"",""participantId"":""7BB5F928B5964D0D9107C754975857A7"",""assignmentId"":""0198ee55-a43f-7796-86e2-7a836980f7f2"",""projectId"":""0198ee3c-27ac-7803-a9ea-f3b4ad4ad678""}","https://test12345.live/?num_scrambled_semantic=8&num_scrambled_causal=4&num_scrambled_schematic=4&participantId=7BB5F928B5964D0D9107C754975857A7&assignmentId=0198ee55-a43f-7796-86e2-7a836980f7f2&projectId=0198ee3c-27ac-7803-a9ea-f3b4ad4ad678","7BB5F928B5964D0D9107C754975857A7-2025-08-28-02-27-26","","2506","","images/semantic_sequence/market_semantic/market_semantic_ten.png","1","",""
"","","","","","image-button-response","109","525225","0.0-14.0-1.0-2.6","7BB5F928B5964D0D9107C754975857A7","7BB5F928B5964D0D9107C754975857A7","0198ee55-a43f-7796-86e2-7a836980f7f2","0198ee3c-27ac-7803-a9ea-f3b4ad4ad678","{""num_scrambled_semantic"":""8"",""num_scrambled_causal"":""4"",""num_scrambled_schematic"":""4"",""participantId"":""7BB5F928B5964D0D9107C754975857A7"",""assignmentId"":""0198ee55-a43f-7796-86e2-7a836980f7f2"",""projectId"":""0198ee3c-27ac-7803-a9ea-f3b4ad4ad678""}","https://test12345.live/?num_scrambled_semantic=8&num_scrambled_causal=4&num_scrambled_schematic=4&participantId=7BB5F928B5964D0D9107C754975857A7&assignmentId=0198ee55-a43f-7796-86e2-7a836980f7f2&projectId=0198ee3c-27ac-7803-a9ea-f3b4ad4ad678","7BB5F928B5964D0D9107C754975857A7-2025-08-28-02-27-26","","null","","[]","null","",""
"","","","","","image-button-response","110","529726","0.0-14.0-1.0-0.7","7BB5F928B5964D0D9107C754975857A7","7BB5F928B5964D0D9107C754975857A7","0198ee55-a43f-7796-86e2-7a836980f7f2","0198ee3c-27ac-7803-a9ea-f3b4ad4ad678","{""num_scrambled_semantic"":""8"",""num_scrambled_causal"":""4"",""num_scrambled_schematic"":""4"",""participantId"":""7BB5F928B5964D0D9107C754975857A7"",""assignmentId"":""0198ee55-a43f-7796-86e2-7a836980f7f2"",""projectId"":""0198ee3c-27ac-7803-a9ea-f3b4ad4ad678""}","https://test12345.live/?num_scrambled_semantic=8&num_scrambled_causal=4&num_scrambled_schematic=4&participantId=7BB5F928B5964D0D9107C754975857A7&assignmentId=0198ee55-a43f-7796-86e2-7a836980f7f2&projectId=0198ee3c-27ac-7803-a9ea-f3b4ad4ad678","7BB5F928B5964D0D9107C754975857A7-2025-08-28-02-27-26","","null","","images/semantic_sequence/market_semantic/market_semantic_8.png","null","",""
"","","","","","image-button-response","111","530315","0.0-14.0-1.0-1.7","7BB5F928B5964D0D9107C754975857A7","7BB5F928B5964D0D9107C754975857A7","0198ee55-a43f-7796-86e2-7a836980f7f2","0198ee3c-27ac-7803-a9ea-f3b4ad4ad678","{""num_scrambled_semantic"":""8"",""num_scrambled_causal"":""4"",""num_scrambled_schematic"":""4"",""participantId"":""7BB5F928B5964D0D9107C754975857A7"",""assignmentId"":""0198ee55-a43f-7796-86e2-7a836980f7f2"",""projectId"":""0198ee3c-27ac-7803-a9ea-f3b4ad4ad678""}","https://test12345.live/?num_scrambled_semantic=8&num_scrambled_causal=4&num_scrambled_schematic=4&participantId=7BB5F928B5964D0D9107C754975857A7&assignmentId=0198ee55-a43f-7796-86e2-7a836980f7f2&projectId=0198ee3c-27ac-7803-a9ea-f3b4ad4ad678","7BB5F928B5964D0D9107C754975857A7-2025-08-28-02-27-26","","589","","images/semantic_sequence/market_semantic/market_semantic_8.png","1","",""
"","","","","","image-button-response","112","532116","0.0-14.0-1.0-2.7","7BB5F928B5964D0D9107C754975857A7","7BB5F928B5964D0D9107C754975857A7","0198ee55-a43f-7796-86e2-7a836980f7f2","0198ee3c-27ac-7803-a9ea-f3b4ad4ad678","{""num_scrambled_semantic"":""8"",""num_scrambled_causal"":""4"",""num_scrambled_schematic"":""4"",""participantId"":""7BB5F928B5964D0D9107C754975857A7"",""assignmentId"":""0198ee55-a43f-7796-86e2-7a836980f7f2"",""projectId"":""0198ee3c-27ac-7803-a9ea-f3b4ad4ad678""}","https://test12345.live/?num_scrambled_semantic=8&num_scrambled_causal=4&num_scrambled_schematic=4&participantId=7BB5F928B5964D0D9107C754975857A7&assignmentId=0198ee55-a43f-7796-86e2-7a836980f7f2&projectId=0198ee3c-27ac-7803-a9ea-f3b4ad4ad678","7BB5F928B5964D0D9107C754975857A7-2025-08-28-02-27-26","","null","","[]","null","",""
"","","","","","image-button-response","113","536618","0.0-14.0-1.0-0.8","7BB5F928B5964D0D9107C754975857A7","7BB5F928B5964D0D9107C754975857A7","0198ee55-a43f-7796-86e2-7a836980f7f2","0198ee3c-27ac-7803-a9ea-f3b4ad4ad678","{""num_scrambled_semantic"":""8"",""num_scrambled_causal"":""4"",""num_scrambled_schematic"":""4"",""participantId"":""7BB5F928B5964D0D9107C754975857A7"",""assignmentId"":""0198ee55-a43f-7796-86e2-7a836980f7f2"",""projectId"":""0198ee3c-27ac-7803-a9ea-f3b4ad4ad678""}","https://test12345.live/?num_scrambled_semantic=8&num_scrambled_causal=4&num_scrambled_schematic=4&participantId=7BB5F928B5964D0D9107C754975857A7&assignmentId=0198ee55-a43f-7796-86e2-7a836980f7f2&projectId=0198ee3c-27ac-7803-a9ea-f3b4ad4ad678","7BB5F928B5964D0D9107C754975857A7-2025-08-28-02-27-26","","null","","images/semantic_sequence/market_semantic/market_semantic_2.png","null","",""
