"success","timeout","failed_images","failed_audio","failed_video","trial_type","trial_index","time_elapsed","internal_node_id","subject","subject_id","study_id","session_id","urlvar","current_url","audio_id","view_history","rt","device_id","stimulus","response","estimated_stimulus_onset","seq_name"
"true","false","[]","[]","[]","preload","0","13293","0.0-0.0","7C20F696C718497C9340CC85495FC642","7C20F696C718497C9340CC85495FC642","ae0572e2-b0bf-4393-8a4d-4c3c45ad9815","a9f3d40c-5730-405c-b25e-1034c4c56f3f","{""num_scrambled_semantic"":""8"",""num_scrambled_causal"":""4"",""num_scrambled_schematic"":""4"",""participantId"":""7C20F696C718497C9340CC85495FC642"",""assignmentId"":""ae0572e2-b0bf-4393-8a4d-4c3c45ad9815"",""projectId"":""a9f3d40c-5730-405c-b25e-1034c4c56f3f""}","https://test12345.live/?num_scrambled_semantic=8&num_scrambled_causal=4&num_scrambled_schematic=4&participantId=7C20F696C718497C9340CC85495FC642&assignmentId=ae0572e2-b0bf-4393-8a4d-4c3c45ad9815&projectId=a9f3d40c-5730-405c-b25e-1034c4c56f3f","7C20F696C718497C9340CC85495FC642-2025-08-07-19-13-46","","","","","","",""
"","","","","","instructions","1","203749","0.0-1.0","7C20F696C718497C9340CC85495FC642","7C20F696C718497C9340CC85495FC642","ae0572e2-b0bf-4393-8a4d-4c3c45ad9815","a9f3d40c-5730-405c-b25e-1034c4c56f3f","{""num_scrambled_semantic"":""8"",""num_scrambled_causal"":""4"",""num_scrambled_schematic"":""4"",""participantId"":""7C20F696C718497C9340CC85495FC642"",""assignmentId"":""ae0572e2-b0bf-4393-8a4d-4c3c45ad9815"",""projectId"":""a9f3d40c-5730-405c-b25e-1034c4c56f3f""}","https://test12345.live/?num_scrambled_semantic=8&num_scrambled_causal=4&num_scrambled_schematic=4&participantId=7C20F696C718497C9340CC85495FC642&assignmentId=ae0572e2-b0bf-4393-8a4d-4c3c45ad9815&projectId=a9f3d40c-5730-405c-b25e-1034c4c56f3f","7C20F696C718497C9340CC85495FC642-2025-08-07-19-13-46","[{""page_index"":0,""viewing_time"":190455}]","190455","","","","",""
"","","","","","instructions","2","224796","0.0-2.0","7C20F696C718497C9340CC85495FC642","7C20F696C718497C9340CC85495FC642","ae0572e2-b0bf-4393-8a4d-4c3c45ad9815","a9f3d40c-5730-405c-b25e-1034c4c56f3f","{""num_scrambled_semantic"":""8"",""num_scrambled_causal"":""4"",""num_scrambled_schematic"":""4"",""participantId"":""7C20F696C718497C9340CC85495FC642"",""assignmentId"":""ae0572e2-b0bf-4393-8a4d-4c3c45ad9815"",""projectId"":""a9f3d40c-5730-405c-b25e-1034c4c56f3f""}","https://test12345.live/?num_scrambled_semantic=8&num_scrambled_causal=4&num_scrambled_schematic=4&participantId=7C20F696C718497C9340CC85495FC642&assignmentId=ae0572e2-b0bf-4393-8a4d-4c3c45ad9815&projectId=a9f3d40c-5730-405c-b25e-1034c4c56f3f","7C20F696C718497C9340CC85495FC642-2025-08-07-19-13-46","[{""page_index"":0,""viewing_time"":21046}]","21047","","","","",""
"true","","","","","fullscreen","3","227526","0.0-3.0","7C20F696C718497C9340CC85495FC642","7C20F696C718497C9340CC85495FC642","ae0572e2-b0bf-4393-8a4d-4c3c45ad9815","a9f3d40c-5730-405c-b25e-1034c4c56f3f","{""num_scrambled_semantic"":""8"",""num_scrambled_causal"":""4"",""num_scrambled_schematic"":""4"",""participantId"":""7C20F696C718497C9340CC85495FC642"",""assignmentId"":""ae0572e2-b0bf-4393-8a4d-4c3c45ad9815"",""projectId"":""a9f3d40c-5730-405c-b25e-1034c4c56f3f""}","https://test12345.live/?num_scrambled_semantic=8&num_scrambled_causal=4&num_scrambled_schematic=4&participantId=7C20F696C718497C9340CC85495FC642&assignmentId=ae0572e2-b0bf-4393-8a4d-4c3c45ad9815&projectId=a9f3d40c-5730-405c-b25e-1034c4c56f3f","7C20F696C718497C9340CC85495FC642-2025-08-07-19-13-46","","1728","","","","",""
"","","","","","initialize-microphone","4","281005","0.0-4.0-0.0","7C20F696C718497C9340CC85495FC642","7C20F696C718497C9340CC85495FC642","ae0572e2-b0bf-4393-8a4d-4c3c45ad9815","a9f3d40c-5730-405c-b25e-1034c4c56f3f","{""num_scrambled_semantic"":""8"",""num_scrambled_causal"":""4"",""num_scrambled_schematic"":""4"",""participantId"":""7C20F696C718497C9340CC85495FC642"",""assignmentId"":""ae0572e2-b0bf-4393-8a4d-4c3c45ad9815"",""projectId"":""a9f3d40c-5730-405c-b25e-1034c4c56f3f""}","https://test12345.live/?num_scrambled_semantic=8&num_scrambled_causal=4&num_scrambled_schematic=4&participantId=7C20F696C718497C9340CC85495FC642&assignmentId=ae0572e2-b0bf-4393-8a4d-4c3c45ad9815&projectId=a9f3d40c-5730-405c-b25e-1034c4c56f3f","7C20F696C718497C9340CC85495FC642-2025-08-07-19-13-46","","","70932b2c8b69d6484f4ba952ea433c5878b67361ca1e3ebde242ee2a81192231","","","",""
"","","","","","html-audio-response","5","316043","0.0-4.0-1.0","7C20F696C718497C9340CC85495FC642","7C20F696C718497C9340CC85495FC642","ae0572e2-b0bf-4393-8a4d-4c3c45ad9815","a9f3d40c-5730-405c-b25e-1034c4c56f3f","{""num_scrambled_semantic"":""8"",""num_scrambled_causal"":""4"",""num_scrambled_schematic"":""4"",""participantId"":""7C20F696C718497C9340CC85495FC642"",""assignmentId"":""ae0572e2-b0bf-4393-8a4d-4c3c45ad9815"",""projectId"":""a9f3d40c-5730-405c-b25e-1034c4c56f3f""}","https://test12345.live/?num_scrambled_semantic=8&num_scrambled_causal=4&num_scrambled_schematic=4&participantId=7C20F696C718497C9340CC85495FC642&assignmentId=ae0572e2-b0bf-4393-8a4d-4c3c45ad9815&projectId=a9f3d40c-5730-405c-b25e-1034c4c56f3f","7C20F696C718497C9340CC85495FC642-2025-08-07-19-13-46","","7368","","<span style=""color: red; font-size: 24px""> NOW RECORDING</span>
        <p>Please test Microphone</p>","","4",""
"","","","","","html-button-response","6","318301","0.0-4.0-2.0","7C20F696C718497C9340CC85495FC642","7C20F696C718497C9340CC85495FC642","ae0572e2-b0bf-4393-8a4d-4c3c45ad9815","a9f3d40c-5730-405c-b25e-1034c4c56f3f","{""num_scrambled_semantic"":""8"",""num_scrambled_causal"":""4"",""num_scrambled_schematic"":""4"",""participantId"":""7C20F696C718497C9340CC85495FC642"",""assignmentId"":""ae0572e2-b0bf-4393-8a4d-4c3c45ad9815"",""projectId"":""a9f3d40c-5730-405c-b25e-1034c4c56f3f""}","https://test12345.live/?num_scrambled_semantic=8&num_scrambled_causal=4&num_scrambled_schematic=4&participantId=7C20F696C718497C9340CC85495FC642&assignmentId=ae0572e2-b0bf-4393-8a4d-4c3c45ad9815&projectId=a9f3d40c-5730-405c-b25e-1034c4c56f3f","7C20F696C718497C9340CC85495FC642-2025-08-07-19-13-46","","2257","","<p style=""font-size:48px; color:red;"">Is Microphone OK?</p>","1","",""
"","","","","","instructions","7","336347","0.0-5.0","7C20F696C718497C9340CC85495FC642","7C20F696C718497C9340CC85495FC642","ae0572e2-b0bf-4393-8a4d-4c3c45ad9815","a9f3d40c-5730-405c-b25e-1034c4c56f3f","{""num_scrambled_semantic"":""8"",""num_scrambled_causal"":""4"",""num_scrambled_schematic"":""4"",""participantId"":""7C20F696C718497C9340CC85495FC642"",""assignmentId"":""ae0572e2-b0bf-4393-8a4d-4c3c45ad9815"",""projectId"":""a9f3d40c-5730-405c-b25e-1034c4c56f3f""}","https://test12345.live/?num_scrambled_semantic=8&num_scrambled_causal=4&num_scrambled_schematic=4&participantId=7C20F696C718497C9340CC85495FC642&assignmentId=ae0572e2-b0bf-4393-8a4d-4c3c45ad9815&projectId=a9f3d40c-5730-405c-b25e-1034c4c56f3f","7C20F696C718497C9340CC85495FC642-2025-08-07-19-13-46","[{""page_index"":0,""viewing_time"":7164},{""page_index"":1,""viewing_time"":10881}]","18045","","","","",""
"","","","","","image-button-response","8","342350","0.0-6.0-0.0","7C20F696C718497C9340CC85495FC642","7C20F696C718497C9340CC85495FC642","ae0572e2-b0bf-4393-8a4d-4c3c45ad9815","a9f3d40c-5730-405c-b25e-1034c4c56f3f","{""num_scrambled_semantic"":""8"",""num_scrambled_causal"":""4"",""num_scrambled_schematic"":""4"",""participantId"":""7C20F696C718497C9340CC85495FC642"",""assignmentId"":""ae0572e2-b0bf-4393-8a4d-4c3c45ad9815"",""projectId"":""a9f3d40c-5730-405c-b25e-1034c4c56f3f""}","https://test12345.live/?num_scrambled_semantic=8&num_scrambled_causal=4&num_scrambled_schematic=4&participantId=7C20F696C718497C9340CC85495FC642&assignmentId=ae0572e2-b0bf-4393-8a4d-4c3c45ad9815&projectId=a9f3d40c-5730-405c-b25e-1034c4c56f3f","7C20F696C718497C9340CC85495FC642-2025-08-07-19-13-46","","null","","images/instructions/movie_0.png","null","",""
"","","","","","image-button-response","9","346852","0.0-6.0-1.0-0.0","7C20F696C718497C9340CC85495FC642","7C20F696C718497C9340CC85495FC642","ae0572e2-b0bf-4393-8a4d-4c3c45ad9815","a9f3d40c-5730-405c-b25e-1034c4c56f3f","{""num_scrambled_semantic"":""8"",""num_scrambled_causal"":""4"",""num_scrambled_schematic"":""4"",""participantId"":""7C20F696C718497C9340CC85495FC642"",""assignmentId"":""ae0572e2-b0bf-4393-8a4d-4c3c45ad9815"",""projectId"":""a9f3d40c-5730-405c-b25e-1034c4c56f3f""}","https://test12345.live/?num_scrambled_semantic=8&num_scrambled_causal=4&num_scrambled_schematic=4&participantId=7C20F696C718497C9340CC85495FC642&assignmentId=ae0572e2-b0bf-4393-8a4d-4c3c45ad9815&projectId=a9f3d40c-5730-405c-b25e-1034c4c56f3f","7C20F696C718497C9340CC85495FC642-2025-08-07-19-13-46","","null","","images/instructions/movie_1.png","null","",""
"","","","","","image-button-response","10","349420","0.0-6.0-1.0-1.0","7C20F696C718497C9340CC85495FC642","7C20F696C718497C9340CC85495FC642","ae0572e2-b0bf-4393-8a4d-4c3c45ad9815","a9f3d40c-5730-405c-b25e-1034c4c56f3f","{""num_scrambled_semantic"":""8"",""num_scrambled_causal"":""4"",""num_scrambled_schematic"":""4"",""participantId"":""7C20F696C718497C9340CC85495FC642"",""assignmentId"":""ae0572e2-b0bf-4393-8a4d-4c3c45ad9815"",""projectId"":""a9f3d40c-5730-405c-b25e-1034c4c56f3f""}","https://test12345.live/?num_scrambled_semantic=8&num_scrambled_causal=4&num_scrambled_schematic=4&participantId=7C20F696C718497C9340CC85495FC642&assignmentId=ae0572e2-b0bf-4393-8a4d-4c3c45ad9815&projectId=a9f3d40c-5730-405c-b25e-1034c4c56f3f","7C20F696C718497C9340CC85495FC642-2025-08-07-19-13-46","","2567","","images/instructions/movie_1.png","0","",""
"","","","","","image-button-response","11","351221","0.0-6.0-1.0-2.0","7C20F696C718497C9340CC85495FC642","7C20F696C718497C9340CC85495FC642","ae0572e2-b0bf-4393-8a4d-4c3c45ad9815","a9f3d40c-5730-405c-b25e-1034c4c56f3f","{""num_scrambled_semantic"":""8"",""num_scrambled_causal"":""4"",""num_scrambled_schematic"":""4"",""participantId"":""7C20F696C718497C9340CC85495FC642"",""assignmentId"":""ae0572e2-b0bf-4393-8a4d-4c3c45ad9815"",""projectId"":""a9f3d40c-5730-405c-b25e-1034c4c56f3f""}","https://test12345.live/?num_scrambled_semantic=8&num_scrambled_causal=4&num_scrambled_schematic=4&participantId=7C20F696C718497C9340CC85495FC642&assignmentId=ae0572e2-b0bf-4393-8a4d-4c3c45ad9815&projectId=a9f3d40c-5730-405c-b25e-1034c4c56f3f","7C20F696C718497C9340CC85495FC642-2025-08-07-19-13-46","","null","","[]","null","",""
"","","","","","image-button-response","12","355723","0.0-6.0-1.0-0.1","7C20F696C718497C9340CC85495FC642","7C20F696C718497C9340CC85495FC642","ae0572e2-b0bf-4393-8a4d-4c3c45ad9815","a9f3d40c-5730-405c-b25e-1034c4c56f3f","{""num_scrambled_semantic"":""8"",""num_scrambled_causal"":""4"",""num_scrambled_schematic"":""4"",""participantId"":""7C20F696C718497C9340CC85495FC642"",""assignmentId"":""ae0572e2-b0bf-4393-8a4d-4c3c45ad9815"",""projectId"":""a9f3d40c-5730-405c-b25e-1034c4c56f3f""}","https://test12345.live/?num_scrambled_semantic=8&num_scrambled_causal=4&num_scrambled_schematic=4&participantId=7C20F696C718497C9340CC85495FC642&assignmentId=ae0572e2-b0bf-4393-8a4d-4c3c45ad9815&projectId=a9f3d40c-5730-405c-b25e-1034c4c56f3f","7C20F696C718497C9340CC85495FC642-2025-08-07-19-13-46","","null","","images/instructions/movie_2.png","null","",""
"","","","","","image-button-response","13","359279","0.0-6.0-1.0-1.1","7C20F696C718497C9340CC85495FC642","7C20F696C718497C9340CC85495FC642","ae0572e2-b0bf-4393-8a4d-4c3c45ad9815","a9f3d40c-5730-405c-b25e-1034c4c56f3f","{""num_scrambled_semantic"":""8"",""num_scrambled_causal"":""4"",""num_scrambled_schematic"":""4"",""participantId"":""7C20F696C718497C9340CC85495FC642"",""assignmentId"":""ae0572e2-b0bf-4393-8a4d-4c3c45ad9815"",""projectId"":""a9f3d40c-5730-405c-b25e-1034c4c56f3f""}","https://test12345.live/?num_scrambled_semantic=8&num_scrambled_causal=4&num_scrambled_schematic=4&participantId=7C20F696C718497C9340CC85495FC642&assignmentId=ae0572e2-b0bf-4393-8a4d-4c3c45ad9815&projectId=a9f3d40c-5730-405c-b25e-1034c4c56f3f","7C20F696C718497C9340CC85495FC642-2025-08-07-19-13-46","","3555","","images/instructions/movie_2.png","0","",""
"","","","","","image-button-response","14","361080","0.0-6.0-1.0-2.1","7C20F696C718497C9340CC85495FC642","7C20F696C718497C9340CC85495FC642","ae0572e2-b0bf-4393-8a4d-4c3c45ad9815","a9f3d40c-5730-405c-b25e-1034c4c56f3f","{""num_scrambled_semantic"":""8"",""num_scrambled_causal"":""4"",""num_scrambled_schematic"":""4"",""participantId"":""7C20F696C718497C9340CC85495FC642"",""assignmentId"":""ae0572e2-b0bf-4393-8a4d-4c3c45ad9815"",""projectId"":""a9f3d40c-5730-405c-b25e-1034c4c56f3f""}","https://test12345.live/?num_scrambled_semantic=8&num_scrambled_causal=4&num_scrambled_schematic=4&participantId=7C20F696C718497C9340CC85495FC642&assignmentId=ae0572e2-b0bf-4393-8a4d-4c3c45ad9815&projectId=a9f3d40c-5730-405c-b25e-1034c4c56f3f","7C20F696C718497C9340CC85495FC642-2025-08-07-19-13-46","","null","","[]","null","",""
"","","","","","image-button-response","15","365581","0.0-6.0-1.0-0.2","7C20F696C718497C9340CC85495FC642","7C20F696C718497C9340CC85495FC642","ae0572e2-b0bf-4393-8a4d-4c3c45ad9815","a9f3d40c-5730-405c-b25e-1034c4c56f3f","{""num_scrambled_semantic"":""8"",""num_scrambled_causal"":""4"",""num_scrambled_schematic"":""4"",""participantId"":""7C20F696C718497C9340CC85495FC642"",""assignmentId"":""ae0572e2-b0bf-4393-8a4d-4c3c45ad9815"",""projectId"":""a9f3d40c-5730-405c-b25e-1034c4c56f3f""}","https://test12345.live/?num_scrambled_semantic=8&num_scrambled_causal=4&num_scrambled_schematic=4&participantId=7C20F696C718497C9340CC85495FC642&assignmentId=ae0572e2-b0bf-4393-8a4d-4c3c45ad9815&projectId=a9f3d40c-5730-405c-b25e-1034c4c56f3f","7C20F696C718497C9340CC85495FC642-2025-08-07-19-13-46","","null","","images/instructions/movie_3.png","null","",""
"","","","","","image-button-response","16","367777","0.0-6.0-1.0-1.2","7C20F696C718497C9340CC85495FC642","7C20F696C718497C9340CC85495FC642","ae0572e2-b0bf-4393-8a4d-4c3c45ad9815","a9f3d40c-5730-405c-b25e-1034c4c56f3f","{""num_scrambled_semantic"":""8"",""num_scrambled_causal"":""4"",""num_scrambled_schematic"":""4"",""participantId"":""7C20F696C718497C9340CC85495FC642"",""assignmentId"":""ae0572e2-b0bf-4393-8a4d-4c3c45ad9815"",""projectId"":""a9f3d40c-5730-405c-b25e-1034c4c56f3f""}","https://test12345.live/?num_scrambled_semantic=8&num_scrambled_causal=4&num_scrambled_schematic=4&participantId=7C20F696C718497C9340CC85495FC642&assignmentId=ae0572e2-b0bf-4393-8a4d-4c3c45ad9815&projectId=a9f3d40c-5730-405c-b25e-1034c4c56f3f","7C20F696C718497C9340CC85495FC642-2025-08-07-19-13-46","","2194","","images/instructions/movie_3.png","0","",""
"","","","","","image-button-response","17","369579","0.0-6.0-1.0-2.2","7C20F696C718497C9340CC85495FC642","7C20F696C718497C9340CC85495FC642","ae0572e2-b0bf-4393-8a4d-4c3c45ad9815","a9f3d40c-5730-405c-b25e-1034c4c56f3f","{""num_scrambled_semantic"":""8"",""num_scrambled_causal"":""4"",""num_scrambled_schematic"":""4"",""participantId"":""7C20F696C718497C9340CC85495FC642"",""assignmentId"":""ae0572e2-b0bf-4393-8a4d-4c3c45ad9815"",""projectId"":""a9f3d40c-5730-405c-b25e-1034c4c56f3f""}","https://test12345.live/?num_scrambled_semantic=8&num_scrambled_causal=4&num_scrambled_schematic=4&participantId=7C20F696C718497C9340CC85495FC642&assignmentId=ae0572e2-b0bf-4393-8a4d-4c3c45ad9815&projectId=a9f3d40c-5730-405c-b25e-1034c4c56f3f","7C20F696C718497C9340CC85495FC642-2025-08-07-19-13-46","","null","","[]","null","",""
"","","","","","image-button-response","18","374081","0.0-6.0-1.0-0.3","7C20F696C718497C9340CC85495FC642","7C20F696C718497C9340CC85495FC642","ae0572e2-b0bf-4393-8a4d-4c3c45ad9815","a9f3d40c-5730-405c-b25e-1034c4c56f3f","{""num_scrambled_semantic"":""8"",""num_scrambled_causal"":""4"",""num_scrambled_schematic"":""4"",""participantId"":""7C20F696C718497C9340CC85495FC642"",""assignmentId"":""ae0572e2-b0bf-4393-8a4d-4c3c45ad9815"",""projectId"":""a9f3d40c-5730-405c-b25e-1034c4c56f3f""}","https://test12345.live/?num_scrambled_semantic=8&num_scrambled_causal=4&num_scrambled_schematic=4&participantId=7C20F696C718497C9340CC85495FC642&assignmentId=ae0572e2-b0bf-4393-8a4d-4c3c45ad9815&projectId=a9f3d40c-5730-405c-b25e-1034c4c56f3f","7C20F696C718497C9340CC85495FC642-2025-08-07-19-13-46","","null","","images/instructions/movie_4.png","null","",""
"","","","","","image-button-response","19","378040","0.0-6.0-1.0-1.3","7C20F696C718497C9340CC85495FC642","7C20F696C718497C9340CC85495FC642","ae0572e2-b0bf-4393-8a4d-4c3c45ad9815","a9f3d40c-5730-405c-b25e-1034c4c56f3f","{""num_scrambled_semantic"":""8"",""num_scrambled_causal"":""4"",""num_scrambled_schematic"":""4"",""participantId"":""7C20F696C718497C9340CC85495FC642"",""assignmentId"":""ae0572e2-b0bf-4393-8a4d-4c3c45ad9815"",""projectId"":""a9f3d40c-5730-405c-b25e-1034c4c56f3f""}","https://test12345.live/?num_scrambled_semantic=8&num_scrambled_causal=4&num_scrambled_schematic=4&participantId=7C20F696C718497C9340CC85495FC642&assignmentId=ae0572e2-b0bf-4393-8a4d-4c3c45ad9815&projectId=a9f3d40c-5730-405c-b25e-1034c4c56f3f","7C20F696C718497C9340CC85495FC642-2025-08-07-19-13-46","","3958","","images/instructions/movie_4.png","0","",""
"","","","","","image-button-response","20","379842","0.0-6.0-1.0-2.3","7C20F696C718497C9340CC85495FC642","7C20F696C718497C9340CC85495FC642","ae0572e2-b0bf-4393-8a4d-4c3c45ad9815","a9f3d40c-5730-405c-b25e-1034c4c56f3f","{""num_scrambled_semantic"":""8"",""num_scrambled_causal"":""4"",""num_scrambled_schematic"":""4"",""participantId"":""7C20F696C718497C9340CC85495FC642"",""assignmentId"":""ae0572e2-b0bf-4393-8a4d-4c3c45ad9815"",""projectId"":""a9f3d40c-5730-405c-b25e-1034c4c56f3f""}","https://test12345.live/?num_scrambled_semantic=8&num_scrambled_causal=4&num_scrambled_schematic=4&participantId=7C20F696C718497C9340CC85495FC642&assignmentId=ae0572e2-b0bf-4393-8a4d-4c3c45ad9815&projectId=a9f3d40c-5730-405c-b25e-1034c4c56f3f","7C20F696C718497C9340CC85495FC642-2025-08-07-19-13-46","","null","","[]","null","",""
"","","","","","instructions","21","392498","0.0-7.0","7C20F696C718497C9340CC85495FC642","7C20F696C718497C9340CC85495FC642","ae0572e2-b0bf-4393-8a4d-4c3c45ad9815","a9f3d40c-5730-405c-b25e-1034c4c56f3f","{""num_scrambled_semantic"":""8"",""num_scrambled_causal"":""4"",""num_scrambled_schematic"":""4"",""participantId"":""7C20F696C718497C9340CC85495FC642"",""assignmentId"":""ae0572e2-b0bf-4393-8a4d-4c3c45ad9815"",""projectId"":""a9f3d40c-5730-405c-b25e-1034c4c56f3f""}","https://test12345.live/?num_scrambled_semantic=8&num_scrambled_causal=4&num_scrambled_schematic=4&participantId=7C20F696C718497C9340CC85495FC642&assignmentId=ae0572e2-b0bf-4393-8a4d-4c3c45ad9815&projectId=a9f3d40c-5730-405c-b25e-1034c4c56f3f","7C20F696C718497C9340CC85495FC642-2025-08-07-19-13-46","[{""page_index"":0,""viewing_time"":10976},{""page_index"":1,""viewing_time"":1680}]","12656","","","","",""
"","","","","","html-audio-response","22","471982","0.0-8.0","7C20F696C718497C9340CC85495FC642","7C20F696C718497C9340CC85495FC642","ae0572e2-b0bf-4393-8a4d-4c3c45ad9815","a9f3d40c-5730-405c-b25e-1034c4c56f3f","{""num_scrambled_semantic"":""8"",""num_scrambled_causal"":""4"",""num_scrambled_schematic"":""4"",""participantId"":""7C20F696C718497C9340CC85495FC642"",""assignmentId"":""ae0572e2-b0bf-4393-8a4d-4c3c45ad9815"",""projectId"":""a9f3d40c-5730-405c-b25e-1034c4c56f3f""}","https://test12345.live/?num_scrambled_semantic=8&num_scrambled_causal=4&num_scrambled_schematic=4&participantId=7C20F696C718497C9340CC85495FC642&assignmentId=ae0572e2-b0bf-4393-8a4d-4c3c45ad9815&projectId=a9f3d40c-5730-405c-b25e-1034c4c56f3f","7C20F696C718497C9340CC85495FC642-2025-08-07-19-13-46","","26083","","[""<span style=\""color: red; font-size: 24px\""> NOW RECORDING</span><p>Please say out loud all the images you saw, as many as you can remember. The images can be said in any order.</p>""]","","1",""
"","","","","","instructions","23","474774","0.0-9.0","7C20F696C718497C9340CC85495FC642","7C20F696C718497C9340CC85495FC642","ae0572e2-b0bf-4393-8a4d-4c3c45ad9815","a9f3d40c-5730-405c-b25e-1034c4c56f3f","{""num_scrambled_semantic"":""8"",""num_scrambled_causal"":""4"",""num_scrambled_schematic"":""4"",""participantId"":""7C20F696C718497C9340CC85495FC642"",""assignmentId"":""ae0572e2-b0bf-4393-8a4d-4c3c45ad9815"",""projectId"":""a9f3d40c-5730-405c-b25e-1034c4c56f3f""}","https://test12345.live/?num_scrambled_semantic=8&num_scrambled_causal=4&num_scrambled_schematic=4&participantId=7C20F696C718497C9340CC85495FC642&assignmentId=ae0572e2-b0bf-4393-8a4d-4c3c45ad9815&projectId=a9f3d40c-5730-405c-b25e-1034c4c56f3f","7C20F696C718497C9340CC85495FC642-2025-08-07-19-13-46","[{""page_index"":0,""viewing_time"":2788}]","2788","","","","",""
"","","","","","image-button-response","24","480776","0.0-10.0-0.0","7C20F696C718497C9340CC85495FC642","7C20F696C718497C9340CC85495FC642","ae0572e2-b0bf-4393-8a4d-4c3c45ad9815","a9f3d40c-5730-405c-b25e-1034c4c56f3f","{""num_scrambled_semantic"":""8"",""num_scrambled_causal"":""4"",""num_scrambled_schematic"":""4"",""participantId"":""7C20F696C718497C9340CC85495FC642"",""assignmentId"":""ae0572e2-b0bf-4393-8a4d-4c3c45ad9815"",""projectId"":""a9f3d40c-5730-405c-b25e-1034c4c56f3f""}","https://test12345.live/?num_scrambled_semantic=8&num_scrambled_causal=4&num_scrambled_schematic=4&participantId=7C20F696C718497C9340CC85495FC642&assignmentId=ae0572e2-b0bf-4393-8a4d-4c3c45ad9815&projectId=a9f3d40c-5730-405c-b25e-1034c4c56f3f","7C20F696C718497C9340CC85495FC642-2025-08-07-19-13-46","","null","","images/semantic_sequence/maintaining_a_car_semantic/maintaining_a_car_semantic_0.png","null","",""
"","","","","","image-button-response","25","485277","0.0-10.0-1.0-0.0","7C20F696C718497C9340CC85495FC642","7C20F696C718497C9340CC85495FC642","ae0572e2-b0bf-4393-8a4d-4c3c45ad9815","a9f3d40c-5730-405c-b25e-1034c4c56f3f","{""num_scrambled_semantic"":""8"",""num_scrambled_causal"":""4"",""num_scrambled_schematic"":""4"",""participantId"":""7C20F696C718497C9340CC85495FC642"",""assignmentId"":""ae0572e2-b0bf-4393-8a4d-4c3c45ad9815"",""projectId"":""a9f3d40c-5730-405c-b25e-1034c4c56f3f""}","https://test12345.live/?num_scrambled_semantic=8&num_scrambled_causal=4&num_scrambled_schematic=4&participantId=7C20F696C718497C9340CC85495FC642&assignmentId=ae0572e2-b0bf-4393-8a4d-4c3c45ad9815&projectId=a9f3d40c-5730-405c-b25e-1034c4c56f3f","7C20F696C718497C9340CC85495FC642-2025-08-07-19-13-46","","null","","images/semantic_sequence/maintaining_a_car_semantic/maintaining_a_car_semantic_ten.png","null","",""
"","","","","","image-button-response","26","489279","0.0-10.0-1.0-1.0","7C20F696C718497C9340CC85495FC642","7C20F696C718497C9340CC85495FC642","ae0572e2-b0bf-4393-8a4d-4c3c45ad9815","a9f3d40c-5730-405c-b25e-1034c4c56f3f","{""num_scrambled_semantic"":""8"",""num_scrambled_causal"":""4"",""num_scrambled_schematic"":""4"",""participantId"":""7C20F696C718497C9340CC85495FC642"",""assignmentId"":""ae0572e2-b0bf-4393-8a4d-4c3c45ad9815"",""projectId"":""a9f3d40c-5730-405c-b25e-1034c4c56f3f""}","https://test12345.live/?num_scrambled_semantic=8&num_scrambled_causal=4&num_scrambled_schematic=4&participantId=7C20F696C718497C9340CC85495FC642&assignmentId=ae0572e2-b0bf-4393-8a4d-4c3c45ad9815&projectId=a9f3d40c-5730-405c-b25e-1034c4c56f3f","7C20F696C718497C9340CC85495FC642-2025-08-07-19-13-46","","null","","images/semantic_sequence/maintaining_a_car_semantic/maintaining_a_car_semantic_ten.png","null","",""
"","","","","","image-button-response","27","491081","0.0-10.0-1.0-2.0","7C20F696C718497C9340CC85495FC642","7C20F696C718497C9340CC85495FC642","ae0572e2-b0bf-4393-8a4d-4c3c45ad9815","a9f3d40c-5730-405c-b25e-1034c4c56f3f","{""num_scrambled_semantic"":""8"",""num_scrambled_causal"":""4"",""num_scrambled_schematic"":""4"",""participantId"":""7C20F696C718497C9340CC85495FC642"",""assignmentId"":""ae0572e2-b0bf-4393-8a4d-4c3c45ad9815"",""projectId"":""a9f3d40c-5730-405c-b25e-1034c4c56f3f""}","https://test12345.live/?num_scrambled_semantic=8&num_scrambled_causal=4&num_scrambled_schematic=4&participantId=7C20F696C718497C9340CC85495FC642&assignmentId=ae0572e2-b0bf-4393-8a4d-4c3c45ad9815&projectId=a9f3d40c-5730-405c-b25e-1034c4c56f3f","7C20F696C718497C9340CC85495FC642-2025-08-07-19-13-46","","null","","[]","null","",""
"","","","","","image-button-response","28","495582","0.0-10.0-1.0-0.1","7C20F696C718497C9340CC85495FC642","7C20F696C718497C9340CC85495FC642","ae0572e2-b0bf-4393-8a4d-4c3c45ad9815","a9f3d40c-5730-405c-b25e-1034c4c56f3f","{""num_scrambled_semantic"":""8"",""num_scrambled_causal"":""4"",""num_scrambled_schematic"":""4"",""participantId"":""7C20F696C718497C9340CC85495FC642"",""assignmentId"":""ae0572e2-b0bf-4393-8a4d-4c3c45ad9815"",""projectId"":""a9f3d40c-5730-405c-b25e-1034c4c56f3f""}","https://test12345.live/?num_scrambled_semantic=8&num_scrambled_causal=4&num_scrambled_schematic=4&participantId=7C20F696C718497C9340CC85495FC642&assignmentId=ae0572e2-b0bf-4393-8a4d-4c3c45ad9815&projectId=a9f3d40c-5730-405c-b25e-1034c4c56f3f","7C20F696C718497C9340CC85495FC642-2025-08-07-19-13-46","","null","","images/semantic_sequence/maintaining_a_car_semantic/maintaining_a_car_semantic_8.png","null","",""
"","","","","","image-button-response","29","499585","0.0-10.0-1.0-1.1","7C20F696C718497C9340CC85495FC642","7C20F696C718497C9340CC85495FC642","ae0572e2-b0bf-4393-8a4d-4c3c45ad9815","a9f3d40c-5730-405c-b25e-1034c4c56f3f","{""num_scrambled_semantic"":""8"",""num_scrambled_causal"":""4"",""num_scrambled_schematic"":""4"",""participantId"":""7C20F696C718497C9340CC85495FC642"",""assignmentId"":""ae0572e2-b0bf-4393-8a4d-4c3c45ad9815"",""projectId"":""a9f3d40c-5730-405c-b25e-1034c4c56f3f""}","https://test12345.live/?num_scrambled_semantic=8&num_scrambled_causal=4&num_scrambled_schematic=4&participantId=7C20F696C718497C9340CC85495FC642&assignmentId=ae0572e2-b0bf-4393-8a4d-4c3c45ad9815&projectId=a9f3d40c-5730-405c-b25e-1034c4c56f3f","7C20F696C718497C9340CC85495FC642-2025-08-07-19-13-46","","null","","images/semantic_sequence/maintaining_a_car_semantic/maintaining_a_car_semantic_8.png","null","",""
"","","","","","image-button-response","30","501386","0.0-10.0-1.0-2.1","7C20F696C718497C9340CC85495FC642","7C20F696C718497C9340CC85495FC642","ae0572e2-b0bf-4393-8a4d-4c3c45ad9815","a9f3d40c-5730-405c-b25e-1034c4c56f3f","{""num_scrambled_semantic"":""8"",""num_scrambled_causal"":""4"",""num_scrambled_schematic"":""4"",""participantId"":""7C20F696C718497C9340CC85495FC642"",""assignmentId"":""ae0572e2-b0bf-4393-8a4d-4c3c45ad9815"",""projectId"":""a9f3d40c-5730-405c-b25e-1034c4c56f3f""}","https://test12345.live/?num_scrambled_semantic=8&num_scrambled_causal=4&num_scrambled_schematic=4&participantId=7C20F696C718497C9340CC85495FC642&assignmentId=ae0572e2-b0bf-4393-8a4d-4c3c45ad9815&projectId=a9f3d40c-5730-405c-b25e-1034c4c56f3f","7C20F696C718497C9340CC85495FC642-2025-08-07-19-13-46","","null","","[]","null","",""
"","","","","","image-button-response","31","505887","0.0-10.0-1.0-0.2","7C20F696C718497C9340CC85495FC642","7C20F696C718497C9340CC85495FC642","ae0572e2-b0bf-4393-8a4d-4c3c45ad9815","a9f3d40c-5730-405c-b25e-1034c4c56f3f","{""num_scrambled_semantic"":""8"",""num_scrambled_causal"":""4"",""num_scrambled_schematic"":""4"",""participantId"":""7C20F696C718497C9340CC85495FC642"",""assignmentId"":""ae0572e2-b0bf-4393-8a4d-4c3c45ad9815"",""projectId"":""a9f3d40c-5730-405c-b25e-1034c4c56f3f""}","https://test12345.live/?num_scrambled_semantic=8&num_scrambled_causal=4&num_scrambled_schematic=4&participantId=7C20F696C718497C9340CC85495FC642&assignmentId=ae0572e2-b0bf-4393-8a4d-4c3c45ad9815&projectId=a9f3d40c-5730-405c-b25e-1034c4c56f3f","7C20F696C718497C9340CC85495FC642-2025-08-07-19-13-46","","null","","images/semantic_sequence/maintaining_a_car_semantic/maintaining_a_car_semantic_7.png","null","",""
"","","","","","image-button-response","32","509387","0.0-10.0-1.0-1.2","7C20F696C718497C9340CC85495FC642","7C20F696C718497C9340CC85495FC642","ae0572e2-b0bf-4393-8a4d-4c3c45ad9815","a9f3d40c-5730-405c-b25e-1034c4c56f3f","{""num_scrambled_semantic"":""8"",""num_scrambled_causal"":""4"",""num_scrambled_schematic"":""4"",""participantId"":""7C20F696C718497C9340CC85495FC642"",""assignmentId"":""ae0572e2-b0bf-4393-8a4d-4c3c45ad9815"",""projectId"":""a9f3d40c-5730-405c-b25e-1034c4c56f3f""}","https://test12345.live/?num_scrambled_semantic=8&num_scrambled_causal=4&num_scrambled_schematic=4&participantId=7C20F696C718497C9340CC85495FC642&assignmentId=ae0572e2-b0bf-4393-8a4d-4c3c45ad9815&projectId=a9f3d40c-5730-405c-b25e-1034c4c56f3f","7C20F696C718497C9340CC85495FC642-2025-08-07-19-13-46","","3498","","images/semantic_sequence/maintaining_a_car_semantic/maintaining_a_car_semantic_7.png","0","",""
"","","","","","image-button-response","33","511188","0.0-10.0-1.0-2.2","7C20F696C718497C9340CC85495FC642","7C20F696C718497C9340CC85495FC642","ae0572e2-b0bf-4393-8a4d-4c3c45ad9815","a9f3d40c-5730-405c-b25e-1034c4c56f3f","{""num_scrambled_semantic"":""8"",""num_scrambled_causal"":""4"",""num_scrambled_schematic"":""4"",""participantId"":""7C20F696C718497C9340CC85495FC642"",""assignmentId"":""ae0572e2-b0bf-4393-8a4d-4c3c45ad9815"",""projectId"":""a9f3d40c-5730-405c-b25e-1034c4c56f3f""}","https://test12345.live/?num_scrambled_semantic=8&num_scrambled_causal=4&num_scrambled_schematic=4&participantId=7C20F696C718497C9340CC85495FC642&assignmentId=ae0572e2-b0bf-4393-8a4d-4c3c45ad9815&projectId=a9f3d40c-5730-405c-b25e-1034c4c56f3f","7C20F696C718497C9340CC85495FC642-2025-08-07-19-13-46","","null","","[]","null","",""
"","","","","","image-button-response","34","515690","0.0-10.0-1.0-0.3","7C20F696C718497C9340CC85495FC642","7C20F696C718497C9340CC85495FC642","ae0572e2-b0bf-4393-8a4d-4c3c45ad9815","a9f3d40c-5730-405c-b25e-1034c4c56f3f","{""num_scrambled_semantic"":""8"",""num_scrambled_causal"":""4"",""num_scrambled_schematic"":""4"",""participantId"":""7C20F696C718497C9340CC85495FC642"",""assignmentId"":""ae0572e2-b0bf-4393-8a4d-4c3c45ad9815"",""projectId"":""a9f3d40c-5730-405c-b25e-1034c4c56f3f""}","https://test12345.live/?num_scrambled_semantic=8&num_scrambled_causal=4&num_scrambled_schematic=4&participantId=7C20F696C718497C9340CC85495FC642&assignmentId=ae0572e2-b0bf-4393-8a4d-4c3c45ad9815&projectId=a9f3d40c-5730-405c-b25e-1034c4c56f3f","7C20F696C718497C9340CC85495FC642-2025-08-07-19-13-46","","null","","images/semantic_sequence/maintaining_a_car_semantic/maintaining_a_car_semantic_2.png","null","",""
"","","","","","image-button-response","35","518185","0.0-10.0-1.0-1.3","7C20F696C718497C9340CC85495FC642","7C20F696C718497C9340CC85495FC642","ae0572e2-b0bf-4393-8a4d-4c3c45ad9815","a9f3d40c-5730-405c-b25e-1034c4c56f3f","{""num_scrambled_semantic"":""8"",""num_scrambled_causal"":""4"",""num_scrambled_schematic"":""4"",""participantId"":""7C20F696C718497C9340CC85495FC642"",""assignmentId"":""ae0572e2-b0bf-4393-8a4d-4c3c45ad9815"",""projectId"":""a9f3d40c-5730-405c-b25e-1034c4c56f3f""}","https://test12345.live/?num_scrambled_semantic=8&num_scrambled_causal=4&num_scrambled_schematic=4&participantId=7C20F696C718497C9340CC85495FC642&assignmentId=ae0572e2-b0bf-4393-8a4d-4c3c45ad9815&projectId=a9f3d40c-5730-405c-b25e-1034c4c56f3f","7C20F696C718497C9340CC85495FC642-2025-08-07-19-13-46","","2494","","images/semantic_sequence/maintaining_a_car_semantic/maintaining_a_car_semantic_2.png","0","",""
"","","","","","image-button-response","36","519986","0.0-10.0-1.0-2.3","7C20F696C718497C9340CC85495FC642","7C20F696C718497C9340CC85495FC642","ae0572e2-b0bf-4393-8a4d-4c3c45ad9815","a9f3d40c-5730-405c-b25e-1034c4c56f3f","{""num_scrambled_semantic"":""8"",""num_scrambled_causal"":""4"",""num_scrambled_schematic"":""4"",""participantId"":""7C20F696C718497C9340CC85495FC642"",""assignmentId"":""ae0572e2-b0bf-4393-8a4d-4c3c45ad9815"",""projectId"":""a9f3d40c-5730-405c-b25e-1034c4c56f3f""}","https://test12345.live/?num_scrambled_semantic=8&num_scrambled_causal=4&num_scrambled_schematic=4&participantId=7C20F696C718497C9340CC85495FC642&assignmentId=ae0572e2-b0bf-4393-8a4d-4c3c45ad9815&projectId=a9f3d40c-5730-405c-b25e-1034c4c56f3f","7C20F696C718497C9340CC85495FC642-2025-08-07-19-13-46","","null","","[]","null","",""
"","","","","","image-button-response","37","524488","0.0-10.0-1.0-0.4","7C20F696C718497C9340CC85495FC642","7C20F696C718497C9340CC85495FC642","ae0572e2-b0bf-4393-8a4d-4c3c45ad9815","a9f3d40c-5730-405c-b25e-1034c4c56f3f","{""num_scrambled_semantic"":""8"",""num_scrambled_causal"":""4"",""num_scrambled_schematic"":""4"",""participantId"":""7C20F696C718497C9340CC85495FC642"",""assignmentId"":""ae0572e2-b0bf-4393-8a4d-4c3c45ad9815"",""projectId"":""a9f3d40c-5730-405c-b25e-1034c4c56f3f""}","https://test12345.live/?num_scrambled_semantic=8&num_scrambled_causal=4&num_scrambled_schematic=4&participantId=7C20F696C718497C9340CC85495FC642&assignmentId=ae0572e2-b0bf-4393-8a4d-4c3c45ad9815&projectId=a9f3d40c-5730-405c-b25e-1034c4c56f3f","7C20F696C718497C9340CC85495FC642-2025-08-07-19-13-46","","null","","images/semantic_sequence/maintaining_a_car_semantic/maintaining_a_car_semantic_3.png","null","",""
"","","","","","image-button-response","38","525693","0.0-10.0-1.0-1.4","7C20F696C718497C9340CC85495FC642","7C20F696C718497C9340CC85495FC642","ae0572e2-b0bf-4393-8a4d-4c3c45ad9815","a9f3d40c-5730-405c-b25e-1034c4c56f3f","{""num_scrambled_semantic"":""8"",""num_scrambled_causal"":""4"",""num_scrambled_schematic"":""4"",""participantId"":""7C20F696C718497C9340CC85495FC642"",""assignmentId"":""ae0572e2-b0bf-4393-8a4d-4c3c45ad9815"",""projectId"":""a9f3d40c-5730-405c-b25e-1034c4c56f3f""}","https://test12345.live/?num_scrambled_semantic=8&num_scrambled_causal=4&num_scrambled_schematic=4&participantId=7C20F696C718497C9340CC85495FC642&assignmentId=ae0572e2-b0bf-4393-8a4d-4c3c45ad9815&projectId=a9f3d40c-5730-405c-b25e-1034c4c56f3f","7C20F696C718497C9340CC85495FC642-2025-08-07-19-13-46","","1204","","images/semantic_sequence/maintaining_a_car_semantic/maintaining_a_car_semantic_3.png","0","",""
"","","","","","image-button-response","39","527494","0.0-10.0-1.0-2.4","7C20F696C718497C9340CC85495FC642","7C20F696C718497C9340CC85495FC642","ae0572e2-b0bf-4393-8a4d-4c3c45ad9815","a9f3d40c-5730-405c-b25e-1034c4c56f3f","{""num_scrambled_semantic"":""8"",""num_scrambled_causal"":""4"",""num_scrambled_schematic"":""4"",""participantId"":""7C20F696C718497C9340CC85495FC642"",""assignmentId"":""ae0572e2-b0bf-4393-8a4d-4c3c45ad9815"",""projectId"":""a9f3d40c-5730-405c-b25e-1034c4c56f3f""}","https://test12345.live/?num_scrambled_semantic=8&num_scrambled_causal=4&num_scrambled_schematic=4&participantId=7C20F696C718497C9340CC85495FC642&assignmentId=ae0572e2-b0bf-4393-8a4d-4c3c45ad9815&projectId=a9f3d40c-5730-405c-b25e-1034c4c56f3f","7C20F696C718497C9340CC85495FC642-2025-08-07-19-13-46","","null","","[]","null","",""
"","","","","","image-button-response","40","531996","0.0-10.0-1.0-0.5","7C20F696C718497C9340CC85495FC642","7C20F696C718497C9340CC85495FC642","ae0572e2-b0bf-4393-8a4d-4c3c45ad9815","a9f3d40c-5730-405c-b25e-1034c4c56f3f","{""num_scrambled_semantic"":""8"",""num_scrambled_causal"":""4"",""num_scrambled_schematic"":""4"",""participantId"":""7C20F696C718497C9340CC85495FC642"",""assignmentId"":""ae0572e2-b0bf-4393-8a4d-4c3c45ad9815"",""projectId"":""a9f3d40c-5730-405c-b25e-1034c4c56f3f""}","https://test12345.live/?num_scrambled_semantic=8&num_scrambled_causal=4&num_scrambled_schematic=4&participantId=7C20F696C718497C9340CC85495FC642&assignmentId=ae0572e2-b0bf-4393-8a4d-4c3c45ad9815&projectId=a9f3d40c-5730-405c-b25e-1034c4c56f3f","7C20F696C718497C9340CC85495FC642-2025-08-07-19-13-46","","null","","images/semantic_sequence/maintaining_a_car_semantic/maintaining_a_car_semantic_4.png","null","",""
"","","","","","image-button-response","41","533257","0.0-10.0-1.0-1.5","7C20F696C718497C9340CC85495FC642","7C20F696C718497C9340CC85495FC642","ae0572e2-b0bf-4393-8a4d-4c3c45ad9815","a9f3d40c-5730-405c-b25e-1034c4c56f3f","{""num_scrambled_semantic"":""8"",""num_scrambled_causal"":""4"",""num_scrambled_schematic"":""4"",""participantId"":""7C20F696C718497C9340CC85495FC642"",""assignmentId"":""ae0572e2-b0bf-4393-8a4d-4c3c45ad9815"",""projectId"":""a9f3d40c-5730-405c-b25e-1034c4c56f3f""}","https://test12345.live/?num_scrambled_semantic=8&num_scrambled_causal=4&num_scrambled_schematic=4&participantId=7C20F696C718497C9340CC85495FC642&assignmentId=ae0572e2-b0bf-4393-8a4d-4c3c45ad9815&projectId=a9f3d40c-5730-405c-b25e-1034c4c56f3f","7C20F696C718497C9340CC85495FC642-2025-08-07-19-13-46","","1260","","images/semantic_sequence/maintaining_a_car_semantic/maintaining_a_car_semantic_4.png","0","",""
"","","","","","image-button-response","42","535058","0.0-10.0-1.0-2.5","7C20F696C718497C9340CC85495FC642","7C20F696C718497C9340CC85495FC642","ae0572e2-b0bf-4393-8a4d-4c3c45ad9815","a9f3d40c-5730-405c-b25e-1034c4c56f3f","{""num_scrambled_semantic"":""8"",""num_scrambled_causal"":""4"",""num_scrambled_schematic"":""4"",""participantId"":""7C20F696C718497C9340CC85495FC642"",""assignmentId"":""ae0572e2-b0bf-4393-8a4d-4c3c45ad9815"",""projectId"":""a9f3d40c-5730-405c-b25e-1034c4c56f3f""}","https://test12345.live/?num_scrambled_semantic=8&num_scrambled_causal=4&num_scrambled_schematic=4&participantId=7C20F696C718497C9340CC85495FC642&assignmentId=ae0572e2-b0bf-4393-8a4d-4c3c45ad9815&projectId=a9f3d40c-5730-405c-b25e-1034c4c56f3f","7C20F696C718497C9340CC85495FC642-2025-08-07-19-13-46","","null","","[]","null","",""
"","","","","","image-button-response","43","539560","0.0-10.0-1.0-0.6","7C20F696C718497C9340CC85495FC642","7C20F696C718497C9340CC85495FC642","ae0572e2-b0bf-4393-8a4d-4c3c45ad9815","a9f3d40c-5730-405c-b25e-1034c4c56f3f","{""num_scrambled_semantic"":""8"",""num_scrambled_causal"":""4"",""num_scrambled_schematic"":""4"",""participantId"":""7C20F696C718497C9340CC85495FC642"",""assignmentId"":""ae0572e2-b0bf-4393-8a4d-4c3c45ad9815"",""projectId"":""a9f3d40c-5730-405c-b25e-1034c4c56f3f""}","https://test12345.live/?num_scrambled_semantic=8&num_scrambled_causal=4&num_scrambled_schematic=4&participantId=7C20F696C718497C9340CC85495FC642&assignmentId=ae0572e2-b0bf-4393-8a4d-4c3c45ad9815&projectId=a9f3d40c-5730-405c-b25e-1034c4c56f3f","7C20F696C718497C9340CC85495FC642-2025-08-07-19-13-46","","null","","images/semantic_sequence/maintaining_a_car_semantic/maintaining_a_car_semantic_9.png","null","",""
"","","","","","image-button-response","44","541177","0.0-10.0-1.0-1.6","7C20F696C718497C9340CC85495FC642","7C20F696C718497C9340CC85495FC642","ae0572e2-b0bf-4393-8a4d-4c3c45ad9815","a9f3d40c-5730-405c-b25e-1034c4c56f3f","{""num_scrambled_semantic"":""8"",""num_scrambled_causal"":""4"",""num_scrambled_schematic"":""4"",""participantId"":""7C20F696C718497C9340CC85495FC642"",""assignmentId"":""ae0572e2-b0bf-4393-8a4d-4c3c45ad9815"",""projectId"":""a9f3d40c-5730-405c-b25e-1034c4c56f3f""}","https://test12345.live/?num_scrambled_semantic=8&num_scrambled_causal=4&num_scrambled_schematic=4&participantId=7C20F696C718497C9340CC85495FC642&assignmentId=ae0572e2-b0bf-4393-8a4d-4c3c45ad9815&projectId=a9f3d40c-5730-405c-b25e-1034c4c56f3f","7C20F696C718497C9340CC85495FC642-2025-08-07-19-13-46","","1617","","images/semantic_sequence/maintaining_a_car_semantic/maintaining_a_car_semantic_9.png","0","",""
"","","","","","image-button-response","45","542980","0.0-10.0-1.0-2.6","7C20F696C718497C9340CC85495FC642","7C20F696C718497C9340CC85495FC642","ae0572e2-b0bf-4393-8a4d-4c3c45ad9815","a9f3d40c-5730-405c-b25e-1034c4c56f3f","{""num_scrambled_semantic"":""8"",""num_scrambled_causal"":""4"",""num_scrambled_schematic"":""4"",""participantId"":""7C20F696C718497C9340CC85495FC642"",""assignmentId"":""ae0572e2-b0bf-4393-8a4d-4c3c45ad9815"",""projectId"":""a9f3d40c-5730-405c-b25e-1034c4c56f3f""}","https://test12345.live/?num_scrambled_semantic=8&num_scrambled_causal=4&num_scrambled_schematic=4&participantId=7C20F696C718497C9340CC85495FC642&assignmentId=ae0572e2-b0bf-4393-8a4d-4c3c45ad9815&projectId=a9f3d40c-5730-405c-b25e-1034c4c56f3f","7C20F696C718497C9340CC85495FC642-2025-08-07-19-13-46","","null","","[]","null","",""
"","","","","","image-button-response","46","547481","0.0-10.0-1.0-0.7","7C20F696C718497C9340CC85495FC642","7C20F696C718497C9340CC85495FC642","ae0572e2-b0bf-4393-8a4d-4c3c45ad9815","a9f3d40c-5730-405c-b25e-1034c4c56f3f","{""num_scrambled_semantic"":""8"",""num_scrambled_causal"":""4"",""num_scrambled_schematic"":""4"",""participantId"":""7C20F696C718497C9340CC85495FC642"",""assignmentId"":""ae0572e2-b0bf-4393-8a4d-4c3c45ad9815"",""projectId"":""a9f3d40c-5730-405c-b25e-1034c4c56f3f""}","https://test12345.live/?num_scrambled_semantic=8&num_scrambled_causal=4&num_scrambled_schematic=4&participantId=7C20F696C718497C9340CC85495FC642&assignmentId=ae0572e2-b0bf-4393-8a4d-4c3c45ad9815&projectId=a9f3d40c-5730-405c-b25e-1034c4c56f3f","7C20F696C718497C9340CC85495FC642-2025-08-07-19-13-46","","null","","images/semantic_sequence/maintaining_a_car_semantic/maintaining_a_car_semantic_1.png","null","",""
"","","","","","image-button-response","47","548627","0.0-10.0-1.0-1.7","7C20F696C718497C9340CC85495FC642","7C20F696C718497C9340CC85495FC642","ae0572e2-b0bf-4393-8a4d-4c3c45ad9815","a9f3d40c-5730-405c-b25e-1034c4c56f3f","{""num_scrambled_semantic"":""8"",""num_scrambled_causal"":""4"",""num_scrambled_schematic"":""4"",""participantId"":""7C20F696C718497C9340CC85495FC642"",""assignmentId"":""ae0572e2-b0bf-4393-8a4d-4c3c45ad9815"",""projectId"":""a9f3d40c-5730-405c-b25e-1034c4c56f3f""}","https://test12345.live/?num_scrambled_semantic=8&num_scrambled_causal=4&num_scrambled_schematic=4&participantId=7C20F696C718497C9340CC85495FC642&assignmentId=ae0572e2-b0bf-4393-8a4d-4c3c45ad9815&projectId=a9f3d40c-5730-405c-b25e-1034c4c56f3f","7C20F696C718497C9340CC85495FC642-2025-08-07-19-13-46","","1145","","images/semantic_sequence/maintaining_a_car_semantic/maintaining_a_car_semantic_1.png","0","",""
"","","","","","image-button-response","48","550430","0.0-10.0-1.0-2.7","7C20F696C718497C9340CC85495FC642","7C20F696C718497C9340CC85495FC642","ae0572e2-b0bf-4393-8a4d-4c3c45ad9815","a9f3d40c-5730-405c-b25e-1034c4c56f3f","{""num_scrambled_semantic"":""8"",""num_scrambled_causal"":""4"",""num_scrambled_schematic"":""4"",""participantId"":""7C20F696C718497C9340CC85495FC642"",""assignmentId"":""ae0572e2-b0bf-4393-8a4d-4c3c45ad9815"",""projectId"":""a9f3d40c-5730-405c-b25e-1034c4c56f3f""}","https://test12345.live/?num_scrambled_semantic=8&num_scrambled_causal=4&num_scrambled_schematic=4&participantId=7C20F696C718497C9340CC85495FC642&assignmentId=ae0572e2-b0bf-4393-8a4d-4c3c45ad9815&projectId=a9f3d40c-5730-405c-b25e-1034c4c56f3f","7C20F696C718497C9340CC85495FC642-2025-08-07-19-13-46","","null","","[]","null","",""
"","","","","","image-button-response","49","554932","0.0-10.0-1.0-0.8","7C20F696C718497C9340CC85495FC642","7C20F696C718497C9340CC85495FC642","ae0572e2-b0bf-4393-8a4d-4c3c45ad9815","a9f3d40c-5730-405c-b25e-1034c4c56f3f","{""num_scrambled_semantic"":""8"",""num_scrambled_causal"":""4"",""num_scrambled_schematic"":""4"",""participantId"":""7C20F696C718497C9340CC85495FC642"",""assignmentId"":""ae0572e2-b0bf-4393-8a4d-4c3c45ad9815"",""projectId"":""a9f3d40c-5730-405c-b25e-1034c4c56f3f""}","https://test12345.live/?num_scrambled_semantic=8&num_scrambled_causal=4&num_scrambled_schematic=4&participantId=7C20F696C718497C9340CC85495FC642&assignmentId=ae0572e2-b0bf-4393-8a4d-4c3c45ad9815&projectId=a9f3d40c-5730-405c-b25e-1034c4c56f3f","7C20F696C718497C9340CC85495FC642-2025-08-07-19-13-46","","null","","images/semantic_sequence/maintaining_a_car_semantic/maintaining_a_car_semantic_5.png","null","",""
"","","","","","image-button-response","50","556253","0.0-10.0-1.0-1.8","7C20F696C718497C9340CC85495FC642","7C20F696C718497C9340CC85495FC642","ae0572e2-b0bf-4393-8a4d-4c3c45ad9815","a9f3d40c-5730-405c-b25e-1034c4c56f3f","{""num_scrambled_semantic"":""8"",""num_scrambled_causal"":""4"",""num_scrambled_schematic"":""4"",""participantId"":""7C20F696C718497C9340CC85495FC642"",""assignmentId"":""ae0572e2-b0bf-4393-8a4d-4c3c45ad9815"",""projectId"":""a9f3d40c-5730-405c-b25e-1034c4c56f3f""}","https://test12345.live/?num_scrambled_semantic=8&num_scrambled_causal=4&num_scrambled_schematic=4&participantId=7C20F696C718497C9340CC85495FC642&assignmentId=ae0572e2-b0bf-4393-8a4d-4c3c45ad9815&projectId=a9f3d40c-5730-405c-b25e-1034c4c56f3f","7C20F696C718497C9340CC85495FC642-2025-08-07-19-13-46","","1320","","images/semantic_sequence/maintaining_a_car_semantic/maintaining_a_car_semantic_5.png","0","",""
"","","","","","image-button-response","51","558054","0.0-10.0-1.0-2.8","7C20F696C718497C9340CC85495FC642","7C20F696C718497C9340CC85495FC642","ae0572e2-b0bf-4393-8a4d-4c3c45ad9815","a9f3d40c-5730-405c-b25e-1034c4c56f3f","{""num_scrambled_semantic"":""8"",""num_scrambled_causal"":""4"",""num_scrambled_schematic"":""4"",""participantId"":""7C20F696C718497C9340CC85495FC642"",""assignmentId"":""ae0572e2-b0bf-4393-8a4d-4c3c45ad9815"",""projectId"":""a9f3d40c-5730-405c-b25e-1034c4c56f3f""}","https://test12345.live/?num_scrambled_semantic=8&num_scrambled_causal=4&num_scrambled_schematic=4&participantId=7C20F696C718497C9340CC85495FC642&assignmentId=ae0572e2-b0bf-4393-8a4d-4c3c45ad9815&projectId=a9f3d40c-5730-405c-b25e-1034c4c56f3f","7C20F696C718497C9340CC85495FC642-2025-08-07-19-13-46","","null","","[]","null","",""
"","","","","","image-button-response","52","562556","0.0-10.0-1.0-0.9","7C20F696C718497C9340CC85495FC642","7C20F696C718497C9340CC85495FC642","ae0572e2-b0bf-4393-8a4d-4c3c45ad9815","a9f3d40c-5730-405c-b25e-1034c4c56f3f","{""num_scrambled_semantic"":""8"",""num_scrambled_causal"":""4"",""num_scrambled_schematic"":""4"",""participantId"":""7C20F696C718497C9340CC85495FC642"",""assignmentId"":""ae0572e2-b0bf-4393-8a4d-4c3c45ad9815"",""projectId"":""a9f3d40c-5730-405c-b25e-1034c4c56f3f""}","https://test12345.live/?num_scrambled_semantic=8&num_scrambled_causal=4&num_scrambled_schematic=4&participantId=7C20F696C718497C9340CC85495FC642&assignmentId=ae0572e2-b0bf-4393-8a4d-4c3c45ad9815&projectId=a9f3d40c-5730-405c-b25e-1034c4c56f3f","7C20F696C718497C9340CC85495FC642-2025-08-07-19-13-46","","null","","images/semantic_sequence/maintaining_a_car_semantic/maintaining_a_car_semantic_6.png","null","",""
"","","","","","image-button-response","53","563641","0.0-10.0-1.0-1.9","7C20F696C718497C9340CC85495FC642","7C20F696C718497C9340CC85495FC642","ae0572e2-b0bf-4393-8a4d-4c3c45ad9815","a9f3d40c-5730-405c-b25e-1034c4c56f3f","{""num_scrambled_semantic"":""8"",""num_scrambled_causal"":""4"",""num_scrambled_schematic"":""4"",""participantId"":""7C20F696C718497C9340CC85495FC642"",""assignmentId"":""ae0572e2-b0bf-4393-8a4d-4c3c45ad9815"",""projectId"":""a9f3d40c-5730-405c-b25e-1034c4c56f3f""}","https://test12345.live/?num_scrambled_semantic=8&num_scrambled_causal=4&num_scrambled_schematic=4&participantId=7C20F696C718497C9340CC85495FC642&assignmentId=ae0572e2-b0bf-4393-8a4d-4c3c45ad9815&projectId=a9f3d40c-5730-405c-b25e-1034c4c56f3f","7C20F696C718497C9340CC85495FC642-2025-08-07-19-13-46","","1084","","images/semantic_sequence/maintaining_a_car_semantic/maintaining_a_car_semantic_6.png","0","",""
"","","","","","image-button-response","54","565442","0.0-10.0-1.0-2.9","7C20F696C718497C9340CC85495FC642","7C20F696C718497C9340CC85495FC642","ae0572e2-b0bf-4393-8a4d-4c3c45ad9815","a9f3d40c-5730-405c-b25e-1034c4c56f3f","{""num_scrambled_semantic"":""8"",""num_scrambled_causal"":""4"",""num_scrambled_schematic"":""4"",""participantId"":""7C20F696C718497C9340CC85495FC642"",""assignmentId"":""ae0572e2-b0bf-4393-8a4d-4c3c45ad9815"",""projectId"":""a9f3d40c-5730-405c-b25e-1034c4c56f3f""}","https://test12345.live/?num_scrambled_semantic=8&num_scrambled_causal=4&num_scrambled_schematic=4&participantId=7C20F696C718497C9340CC85495FC642&assignmentId=ae0572e2-b0bf-4393-8a4d-4c3c45ad9815&projectId=a9f3d40c-5730-405c-b25e-1034c4c56f3f","7C20F696C718497C9340CC85495FC642-2025-08-07-19-13-46","","null","","[]","null","",""
"","","","","","html-audio-response","55","638561","0.0-11.0","7C20F696C718497C9340CC85495FC642","7C20F696C718497C9340CC85495FC642","ae0572e2-b0bf-4393-8a4d-4c3c45ad9815","a9f3d40c-5730-405c-b25e-1034c4c56f3f","{""num_scrambled_semantic"":""8"",""num_scrambled_causal"":""4"",""num_scrambled_schematic"":""4"",""participantId"":""7C20F696C718497C9340CC85495FC642"",""assignmentId"":""ae0572e2-b0bf-4393-8a4d-4c3c45ad9815"",""projectId"":""a9f3d40c-5730-405c-b25e-1034c4c56f3f""}","https://test12345.live/?num_scrambled_semantic=8&num_scrambled_causal=4&num_scrambled_schematic=4&participantId=7C20F696C718497C9340CC85495FC642&assignmentId=ae0572e2-b0bf-4393-8a4d-4c3c45ad9815&projectId=a9f3d40c-5730-405c-b25e-1034c4c56f3f","7C20F696C718497C9340CC85495FC642-2025-08-07-19-13-46","","32160","","[""<span style=\""color: red; font-size: 24px\""> NOW RECORDING</span><p>Please say out loud all the images you saw, as many as you can remember. The images can be said in any order.</p>""]","","7","maintaining_a_car_semantic"
"","","","","","image-button-response","56","644567","0.0-12.0-0.0","7C20F696C718497C9340CC85495FC642","7C20F696C718497C9340CC85495FC642","ae0572e2-b0bf-4393-8a4d-4c3c45ad9815","a9f3d40c-5730-405c-b25e-1034c4c56f3f","{""num_scrambled_semantic"":""8"",""num_scrambled_causal"":""4"",""num_scrambled_schematic"":""4"",""participantId"":""7C20F696C718497C9340CC85495FC642"",""assignmentId"":""ae0572e2-b0bf-4393-8a4d-4c3c45ad9815"",""projectId"":""a9f3d40c-5730-405c-b25e-1034c4c56f3f""}","https://test12345.live/?num_scrambled_semantic=8&num_scrambled_causal=4&num_scrambled_schematic=4&participantId=7C20F696C718497C9340CC85495FC642&assignmentId=ae0572e2-b0bf-4393-8a4d-4c3c45ad9815&projectId=a9f3d40c-5730-405c-b25e-1034c4c56f3f","7C20F696C718497C9340CC85495FC642-2025-08-07-19-13-46","","null","","images/causal_sequence/saving_a_cat_causal/saving_a_cat_causal_0.png","null","",""
"","","","","","image-button-response","57","649068","0.0-12.0-1.0-0.0","7C20F696C718497C9340CC85495FC642","7C20F696C718497C9340CC85495FC642","ae0572e2-b0bf-4393-8a4d-4c3c45ad9815","a9f3d40c-5730-405c-b25e-1034c4c56f3f","{""num_scrambled_semantic"":""8"",""num_scrambled_causal"":""4"",""num_scrambled_schematic"":""4"",""participantId"":""7C20F696C718497C9340CC85495FC642"",""assignmentId"":""ae0572e2-b0bf-4393-8a4d-4c3c45ad9815"",""projectId"":""a9f3d40c-5730-405c-b25e-1034c4c56f3f""}","https://test12345.live/?num_scrambled_semantic=8&num_scrambled_causal=4&num_scrambled_schematic=4&participantId=7C20F696C718497C9340CC85495FC642&assignmentId=ae0572e2-b0bf-4393-8a4d-4c3c45ad9815&projectId=a9f3d40c-5730-405c-b25e-1034c4c56f3f","7C20F696C718497C9340CC85495FC642-2025-08-07-19-13-46","","null","","images/causal_sequence/saving_a_cat_causal/saving_a_cat_causal_7.png","null","",""
"","","","","","image-button-response","58","651832","0.0-12.0-1.0-1.0","7C20F696C718497C9340CC85495FC642","7C20F696C718497C9340CC85495FC642","ae0572e2-b0bf-4393-8a4d-4c3c45ad9815","a9f3d40c-5730-405c-b25e-1034c4c56f3f","{""num_scrambled_semantic"":""8"",""num_scrambled_causal"":""4"",""num_scrambled_schematic"":""4"",""participantId"":""7C20F696C718497C9340CC85495FC642"",""assignmentId"":""ae0572e2-b0bf-4393-8a4d-4c3c45ad9815"",""projectId"":""a9f3d40c-5730-405c-b25e-1034c4c56f3f""}","https://test12345.live/?num_scrambled_semantic=8&num_scrambled_causal=4&num_scrambled_schematic=4&participantId=7C20F696C718497C9340CC85495FC642&assignmentId=ae0572e2-b0bf-4393-8a4d-4c3c45ad9815&projectId=a9f3d40c-5730-405c-b25e-1034c4c56f3f","7C20F696C718497C9340CC85495FC642-2025-08-07-19-13-46","","2763","","images/causal_sequence/saving_a_cat_causal/saving_a_cat_causal_7.png","0","",""
"","","","","","image-button-response","59","653635","0.0-12.0-1.0-2.0","7C20F696C718497C9340CC85495FC642","7C20F696C718497C9340CC85495FC642","ae0572e2-b0bf-4393-8a4d-4c3c45ad9815","a9f3d40c-5730-405c-b25e-1034c4c56f3f","{""num_scrambled_semantic"":""8"",""num_scrambled_causal"":""4"",""num_scrambled_schematic"":""4"",""participantId"":""7C20F696C718497C9340CC85495FC642"",""assignmentId"":""ae0572e2-b0bf-4393-8a4d-4c3c45ad9815"",""projectId"":""a9f3d40c-5730-405c-b25e-1034c4c56f3f""}","https://test12345.live/?num_scrambled_semantic=8&num_scrambled_causal=4&num_scrambled_schematic=4&participantId=7C20F696C718497C9340CC85495FC642&assignmentId=ae0572e2-b0bf-4393-8a4d-4c3c45ad9815&projectId=a9f3d40c-5730-405c-b25e-1034c4c56f3f","7C20F696C718497C9340CC85495FC642-2025-08-07-19-13-46","","null","","[]","null","",""
"","","","","","image-button-response","60","658136","0.0-12.0-1.0-0.1","7C20F696C718497C9340CC85495FC642","7C20F696C718497C9340CC85495FC642","ae0572e2-b0bf-4393-8a4d-4c3c45ad9815","a9f3d40c-5730-405c-b25e-1034c4c56f3f","{""num_scrambled_semantic"":""8"",""num_scrambled_causal"":""4"",""num_scrambled_schematic"":""4"",""participantId"":""7C20F696C718497C9340CC85495FC642"",""assignmentId"":""ae0572e2-b0bf-4393-8a4d-4c3c45ad9815"",""projectId"":""a9f3d40c-5730-405c-b25e-1034c4c56f3f""}","https://test12345.live/?num_scrambled_semantic=8&num_scrambled_causal=4&num_scrambled_schematic=4&participantId=7C20F696C718497C9340CC85495FC642&assignmentId=ae0572e2-b0bf-4393-8a4d-4c3c45ad9815&projectId=a9f3d40c-5730-405c-b25e-1034c4c56f3f","7C20F696C718497C9340CC85495FC642-2025-08-07-19-13-46","","null","","images/causal_sequence/saving_a_cat_causal/saving_a_cat_causal_2.png","null","",""
"","","","","","image-button-response","61","660660","0.0-12.0-1.0-1.1","7C20F696C718497C9340CC85495FC642","7C20F696C718497C9340CC85495FC642","ae0572e2-b0bf-4393-8a4d-4c3c45ad9815","a9f3d40c-5730-405c-b25e-1034c4c56f3f","{""num_scrambled_semantic"":""8"",""num_scrambled_causal"":""4"",""num_scrambled_schematic"":""4"",""participantId"":""7C20F696C718497C9340CC85495FC642"",""assignmentId"":""ae0572e2-b0bf-4393-8a4d-4c3c45ad9815"",""projectId"":""a9f3d40c-5730-405c-b25e-1034c4c56f3f""}","https://test12345.live/?num_scrambled_semantic=8&num_scrambled_causal=4&num_scrambled_schematic=4&participantId=7C20F696C718497C9340CC85495FC642&assignmentId=ae0572e2-b0bf-4393-8a4d-4c3c45ad9815&projectId=a9f3d40c-5730-405c-b25e-1034c4c56f3f","7C20F696C718497C9340CC85495FC642-2025-08-07-19-13-46","","2523","","images/causal_sequence/saving_a_cat_causal/saving_a_cat_causal_2.png","0","",""
"","","","","","image-button-response","62","662462","0.0-12.0-1.0-2.1","7C20F696C718497C9340CC85495FC642","7C20F696C718497C9340CC85495FC642","ae0572e2-b0bf-4393-8a4d-4c3c45ad9815","a9f3d40c-5730-405c-b25e-1034c4c56f3f","{""num_scrambled_semantic"":""8"",""num_scrambled_causal"":""4"",""num_scrambled_schematic"":""4"",""participantId"":""7C20F696C718497C9340CC85495FC642"",""assignmentId"":""ae0572e2-b0bf-4393-8a4d-4c3c45ad9815"",""projectId"":""a9f3d40c-5730-405c-b25e-1034c4c56f3f""}","https://test12345.live/?num_scrambled_semantic=8&num_scrambled_causal=4&num_scrambled_schematic=4&participantId=7C20F696C718497C9340CC85495FC642&assignmentId=ae0572e2-b0bf-4393-8a4d-4c3c45ad9815&projectId=a9f3d40c-5730-405c-b25e-1034c4c56f3f","7C20F696C718497C9340CC85495FC642-2025-08-07-19-13-46","","null","","[]","null","",""
"","","","","","image-button-response","63","666965","0.0-12.0-1.0-0.2","7C20F696C718497C9340CC85495FC642","7C20F696C718497C9340CC85495FC642","ae0572e2-b0bf-4393-8a4d-4c3c45ad9815","a9f3d40c-5730-405c-b25e-1034c4c56f3f","{""num_scrambled_semantic"":""8"",""num_scrambled_causal"":""4"",""num_scrambled_schematic"":""4"",""participantId"":""7C20F696C718497C9340CC85495FC642"",""assignmentId"":""ae0572e2-b0bf-4393-8a4d-4c3c45ad9815"",""projectId"":""a9f3d40c-5730-405c-b25e-1034c4c56f3f""}","https://test12345.live/?num_scrambled_semantic=8&num_scrambled_causal=4&num_scrambled_schematic=4&participantId=7C20F696C718497C9340CC85495FC642&assignmentId=ae0572e2-b0bf-4393-8a4d-4c3c45ad9815&projectId=a9f3d40c-5730-405c-b25e-1034c4c56f3f","7C20F696C718497C9340CC85495FC642-2025-08-07-19-13-46","","null","","images/causal_sequence/saving_a_cat_causal/saving_a_cat_causal_8.png","null","",""
"","","","","","image-button-response","64","668211","0.0-12.0-1.0-1.2","7C20F696C718497C9340CC85495FC642","7C20F696C718497C9340CC85495FC642","ae0572e2-b0bf-4393-8a4d-4c3c45ad9815","a9f3d40c-5730-405c-b25e-1034c4c56f3f","{""num_scrambled_semantic"":""8"",""num_scrambled_causal"":""4"",""num_scrambled_schematic"":""4"",""participantId"":""7C20F696C718497C9340CC85495FC642"",""assignmentId"":""ae0572e2-b0bf-4393-8a4d-4c3c45ad9815"",""projectId"":""a9f3d40c-5730-405c-b25e-1034c4c56f3f""}","https://test12345.live/?num_scrambled_semantic=8&num_scrambled_causal=4&num_scrambled_schematic=4&participantId=7C20F696C718497C9340CC85495FC642&assignmentId=ae0572e2-b0bf-4393-8a4d-4c3c45ad9815&projectId=a9f3d40c-5730-405c-b25e-1034c4c56f3f","7C20F696C718497C9340CC85495FC642-2025-08-07-19-13-46","","1245","","images/causal_sequence/saving_a_cat_causal/saving_a_cat_causal_8.png","0","",""
"","","","","","image-button-response","65","670012","0.0-12.0-1.0-2.2","7C20F696C718497C9340CC85495FC642","7C20F696C718497C9340CC85495FC642","ae0572e2-b0bf-4393-8a4d-4c3c45ad9815","a9f3d40c-5730-405c-b25e-1034c4c56f3f","{""num_scrambled_semantic"":""8"",""num_scrambled_causal"":""4"",""num_scrambled_schematic"":""4"",""participantId"":""7C20F696C718497C9340CC85495FC642"",""assignmentId"":""ae0572e2-b0bf-4393-8a4d-4c3c45ad9815"",""projectId"":""a9f3d40c-5730-405c-b25e-1034c4c56f3f""}","https://test12345.live/?num_scrambled_semantic=8&num_scrambled_causal=4&num_scrambled_schematic=4&participantId=7C20F696C718497C9340CC85495FC642&assignmentId=ae0572e2-b0bf-4393-8a4d-4c3c45ad9815&projectId=a9f3d40c-5730-405c-b25e-1034c4c56f3f","7C20F696C718497C9340CC85495FC642-2025-08-07-19-13-46","","null","","[]","null","",""
"","","","","","image-button-response","66","674514","0.0-12.0-1.0-0.3","7C20F696C718497C9340CC85495FC642","7C20F696C718497C9340CC85495FC642","ae0572e2-b0bf-4393-8a4d-4c3c45ad9815","a9f3d40c-5730-405c-b25e-1034c4c56f3f","{""num_scrambled_semantic"":""8"",""num_scrambled_causal"":""4"",""num_scrambled_schematic"":""4"",""participantId"":""7C20F696C718497C9340CC85495FC642"",""assignmentId"":""ae0572e2-b0bf-4393-8a4d-4c3c45ad9815"",""projectId"":""a9f3d40c-5730-405c-b25e-1034c4c56f3f""}","https://test12345.live/?num_scrambled_semantic=8&num_scrambled_causal=4&num_scrambled_schematic=4&participantId=7C20F696C718497C9340CC85495FC642&assignmentId=ae0572e2-b0bf-4393-8a4d-4c3c45ad9815&projectId=a9f3d40c-5730-405c-b25e-1034c4c56f3f","7C20F696C718497C9340CC85495FC642-2025-08-07-19-13-46","","null","","images/causal_sequence/saving_a_cat_causal/saving_a_cat_causal_3.png","null","",""
"","","","","","image-button-response","67","677826","0.0-12.0-1.0-1.3","7C20F696C718497C9340CC85495FC642","7C20F696C718497C9340CC85495FC642","ae0572e2-b0bf-4393-8a4d-4c3c45ad9815","a9f3d40c-5730-405c-b25e-1034c4c56f3f","{""num_scrambled_semantic"":""8"",""num_scrambled_causal"":""4"",""num_scrambled_schematic"":""4"",""participantId"":""7C20F696C718497C9340CC85495FC642"",""assignmentId"":""ae0572e2-b0bf-4393-8a4d-4c3c45ad9815"",""projectId"":""a9f3d40c-5730-405c-b25e-1034c4c56f3f""}","https://test12345.live/?num_scrambled_semantic=8&num_scrambled_causal=4&num_scrambled_schematic=4&participantId=7C20F696C718497C9340CC85495FC642&assignmentId=ae0572e2-b0bf-4393-8a4d-4c3c45ad9815&projectId=a9f3d40c-5730-405c-b25e-1034c4c56f3f","7C20F696C718497C9340CC85495FC642-2025-08-07-19-13-46","","3311","","images/causal_sequence/saving_a_cat_causal/saving_a_cat_causal_3.png","0","",""
"","","","","","image-button-response","68","679627","0.0-12.0-1.0-2.3","7C20F696C718497C9340CC85495FC642","7C20F696C718497C9340CC85495FC642","ae0572e2-b0bf-4393-8a4d-4c3c45ad9815","a9f3d40c-5730-405c-b25e-1034c4c56f3f","{""num_scrambled_semantic"":""8"",""num_scrambled_causal"":""4"",""num_scrambled_schematic"":""4"",""participantId"":""7C20F696C718497C9340CC85495FC642"",""assignmentId"":""ae0572e2-b0bf-4393-8a4d-4c3c45ad9815"",""projectId"":""a9f3d40c-5730-405c-b25e-1034c4c56f3f""}","https://test12345.live/?num_scrambled_semantic=8&num_scrambled_causal=4&num_scrambled_schematic=4&participantId=7C20F696C718497C9340CC85495FC642&assignmentId=ae0572e2-b0bf-4393-8a4d-4c3c45ad9815&projectId=a9f3d40c-5730-405c-b25e-1034c4c56f3f","7C20F696C718497C9340CC85495FC642-2025-08-07-19-13-46","","null","","[]","null","",""
"","","","","","image-button-response","69","684129","0.0-12.0-1.0-0.4","7C20F696C718497C9340CC85495FC642","7C20F696C718497C9340CC85495FC642","ae0572e2-b0bf-4393-8a4d-4c3c45ad9815","a9f3d40c-5730-405c-b25e-1034c4c56f3f","{""num_scrambled_semantic"":""8"",""num_scrambled_causal"":""4"",""num_scrambled_schematic"":""4"",""participantId"":""7C20F696C718497C9340CC85495FC642"",""assignmentId"":""ae0572e2-b0bf-4393-8a4d-4c3c45ad9815"",""projectId"":""a9f3d40c-5730-405c-b25e-1034c4c56f3f""}","https://test12345.live/?num_scrambled_semantic=8&num_scrambled_causal=4&num_scrambled_schematic=4&participantId=7C20F696C718497C9340CC85495FC642&assignmentId=ae0572e2-b0bf-4393-8a4d-4c3c45ad9815&projectId=a9f3d40c-5730-405c-b25e-1034c4c56f3f","7C20F696C718497C9340CC85495FC642-2025-08-07-19-13-46","","null","","images/causal_sequence/saving_a_cat_causal/saving_a_cat_causal_ten.png","null","",""
"","","","","","image-button-response","70","686688","0.0-12.0-1.0-1.4","7C20F696C718497C9340CC85495FC642","7C20F696C718497C9340CC85495FC642","ae0572e2-b0bf-4393-8a4d-4c3c45ad9815","a9f3d40c-5730-405c-b25e-1034c4c56f3f","{""num_scrambled_semantic"":""8"",""num_scrambled_causal"":""4"",""num_scrambled_schematic"":""4"",""participantId"":""7C20F696C718497C9340CC85495FC642"",""assignmentId"":""ae0572e2-b0bf-4393-8a4d-4c3c45ad9815"",""projectId"":""a9f3d40c-5730-405c-b25e-1034c4c56f3f""}","https://test12345.live/?num_scrambled_semantic=8&num_scrambled_causal=4&num_scrambled_schematic=4&participantId=7C20F696C718497C9340CC85495FC642&assignmentId=ae0572e2-b0bf-4393-8a4d-4c3c45ad9815&projectId=a9f3d40c-5730-405c-b25e-1034c4c56f3f","7C20F696C718497C9340CC85495FC642-2025-08-07-19-13-46","","2558","","images/causal_sequence/saving_a_cat_causal/saving_a_cat_causal_ten.png","0","",""
"","","","","","image-button-response","71","688490","0.0-12.0-1.0-2.4","7C20F696C718497C9340CC85495FC642","7C20F696C718497C9340CC85495FC642","ae0572e2-b0bf-4393-8a4d-4c3c45ad9815","a9f3d40c-5730-405c-b25e-1034c4c56f3f","{""num_scrambled_semantic"":""8"",""num_scrambled_causal"":""4"",""num_scrambled_schematic"":""4"",""participantId"":""7C20F696C718497C9340CC85495FC642"",""assignmentId"":""ae0572e2-b0bf-4393-8a4d-4c3c45ad9815"",""projectId"":""a9f3d40c-5730-405c-b25e-1034c4c56f3f""}","https://test12345.live/?num_scrambled_semantic=8&num_scrambled_causal=4&num_scrambled_schematic=4&participantId=7C20F696C718497C9340CC85495FC642&assignmentId=ae0572e2-b0bf-4393-8a4d-4c3c45ad9815&projectId=a9f3d40c-5730-405c-b25e-1034c4c56f3f","7C20F696C718497C9340CC85495FC642-2025-08-07-19-13-46","","null","","[]","null","",""
"","","","","","image-button-response","72","692992","0.0-12.0-1.0-0.5","7C20F696C718497C9340CC85495FC642","7C20F696C718497C9340CC85495FC642","ae0572e2-b0bf-4393-8a4d-4c3c45ad9815","a9f3d40c-5730-405c-b25e-1034c4c56f3f","{""num_scrambled_semantic"":""8"",""num_scrambled_causal"":""4"",""num_scrambled_schematic"":""4"",""participantId"":""7C20F696C718497C9340CC85495FC642"",""assignmentId"":""ae0572e2-b0bf-4393-8a4d-4c3c45ad9815"",""projectId"":""a9f3d40c-5730-405c-b25e-1034c4c56f3f""}","https://test12345.live/?num_scrambled_semantic=8&num_scrambled_causal=4&num_scrambled_schematic=4&participantId=7C20F696C718497C9340CC85495FC642&assignmentId=ae0572e2-b0bf-4393-8a4d-4c3c45ad9815&projectId=a9f3d40c-5730-405c-b25e-1034c4c56f3f","7C20F696C718497C9340CC85495FC642-2025-08-07-19-13-46","","null","","images/causal_sequence/saving_a_cat_causal/saving_a_cat_causal_6.png","null","",""
"","","","","","image-button-response","73","693977","0.0-12.0-1.0-1.5","7C20F696C718497C9340CC85495FC642","7C20F696C718497C9340CC85495FC642","ae0572e2-b0bf-4393-8a4d-4c3c45ad9815","a9f3d40c-5730-405c-b25e-1034c4c56f3f","{""num_scrambled_semantic"":""8"",""num_scrambled_causal"":""4"",""num_scrambled_schematic"":""4"",""participantId"":""7C20F696C718497C9340CC85495FC642"",""assignmentId"":""ae0572e2-b0bf-4393-8a4d-4c3c45ad9815"",""projectId"":""a9f3d40c-5730-405c-b25e-1034c4c56f3f""}","https://test12345.live/?num_scrambled_semantic=8&num_scrambled_causal=4&num_scrambled_schematic=4&participantId=7C20F696C718497C9340CC85495FC642&assignmentId=ae0572e2-b0bf-4393-8a4d-4c3c45ad9815&projectId=a9f3d40c-5730-405c-b25e-1034c4c56f3f","7C20F696C718497C9340CC85495FC642-2025-08-07-19-13-46","","985","","images/causal_sequence/saving_a_cat_causal/saving_a_cat_causal_6.png","0","",""
"","","","","","image-button-response","74","695779","0.0-12.0-1.0-2.5","7C20F696C718497C9340CC85495FC642","7C20F696C718497C9340CC85495FC642","ae0572e2-b0bf-4393-8a4d-4c3c45ad9815","a9f3d40c-5730-405c-b25e-1034c4c56f3f","{""num_scrambled_semantic"":""8"",""num_scrambled_causal"":""4"",""num_scrambled_schematic"":""4"",""participantId"":""7C20F696C718497C9340CC85495FC642"",""assignmentId"":""ae0572e2-b0bf-4393-8a4d-4c3c45ad9815"",""projectId"":""a9f3d40c-5730-405c-b25e-1034c4c56f3f""}","https://test12345.live/?num_scrambled_semantic=8&num_scrambled_causal=4&num_scrambled_schematic=4&participantId=7C20F696C718497C9340CC85495FC642&assignmentId=ae0572e2-b0bf-4393-8a4d-4c3c45ad9815&projectId=a9f3d40c-5730-405c-b25e-1034c4c56f3f","7C20F696C718497C9340CC85495FC642-2025-08-07-19-13-46","","null","","[]","null","",""
"","","","","","image-button-response","75","700280","0.0-12.0-1.0-0.6","7C20F696C718497C9340CC85495FC642","7C20F696C718497C9340CC85495FC642","ae0572e2-b0bf-4393-8a4d-4c3c45ad9815","a9f3d40c-5730-405c-b25e-1034c4c56f3f","{""num_scrambled_semantic"":""8"",""num_scrambled_causal"":""4"",""num_scrambled_schematic"":""4"",""participantId"":""7C20F696C718497C9340CC85495FC642"",""assignmentId"":""ae0572e2-b0bf-4393-8a4d-4c3c45ad9815"",""projectId"":""a9f3d40c-5730-405c-b25e-1034c4c56f3f""}","https://test12345.live/?num_scrambled_semantic=8&num_scrambled_causal=4&num_scrambled_schematic=4&participantId=7C20F696C718497C9340CC85495FC642&assignmentId=ae0572e2-b0bf-4393-8a4d-4c3c45ad9815&projectId=a9f3d40c-5730-405c-b25e-1034c4c56f3f","7C20F696C718497C9340CC85495FC642-2025-08-07-19-13-46","","null","","images/causal_sequence/saving_a_cat_causal/saving_a_cat_causal_5.png","null","",""
"","","","","","image-button-response","76","701465","0.0-12.0-1.0-1.6","7C20F696C718497C9340CC85495FC642","7C20F696C718497C9340CC85495FC642","ae0572e2-b0bf-4393-8a4d-4c3c45ad9815","a9f3d40c-5730-405c-b25e-1034c4c56f3f","{""num_scrambled_semantic"":""8"",""num_scrambled_causal"":""4"",""num_scrambled_schematic"":""4"",""participantId"":""7C20F696C718497C9340CC85495FC642"",""assignmentId"":""ae0572e2-b0bf-4393-8a4d-4c3c45ad9815"",""projectId"":""a9f3d40c-5730-405c-b25e-1034c4c56f3f""}","https://test12345.live/?num_scrambled_semantic=8&num_scrambled_causal=4&num_scrambled_schematic=4&participantId=7C20F696C718497C9340CC85495FC642&assignmentId=ae0572e2-b0bf-4393-8a4d-4c3c45ad9815&projectId=a9f3d40c-5730-405c-b25e-1034c4c56f3f","7C20F696C718497C9340CC85495FC642-2025-08-07-19-13-46","","1184","","images/causal_sequence/saving_a_cat_causal/saving_a_cat_causal_5.png","0","",""
"","","","","","image-button-response","77","703268","0.0-12.0-1.0-2.6","7C20F696C718497C9340CC85495FC642","7C20F696C718497C9340CC85495FC642","ae0572e2-b0bf-4393-8a4d-4c3c45ad9815","a9f3d40c-5730-405c-b25e-1034c4c56f3f","{""num_scrambled_semantic"":""8"",""num_scrambled_causal"":""4"",""num_scrambled_schematic"":""4"",""participantId"":""7C20F696C718497C9340CC85495FC642"",""assignmentId"":""ae0572e2-b0bf-4393-8a4d-4c3c45ad9815"",""projectId"":""a9f3d40c-5730-405c-b25e-1034c4c56f3f""}","https://test12345.live/?num_scrambled_semantic=8&num_scrambled_causal=4&num_scrambled_schematic=4&participantId=7C20F696C718497C9340CC85495FC642&assignmentId=ae0572e2-b0bf-4393-8a4d-4c3c45ad9815&projectId=a9f3d40c-5730-405c-b25e-1034c4c56f3f","7C20F696C718497C9340CC85495FC642-2025-08-07-19-13-46","","null","","[]","null","",""
"","","","","","image-button-response","78","707769","0.0-12.0-1.0-0.7","7C20F696C718497C9340CC85495FC642","7C20F696C718497C9340CC85495FC642","ae0572e2-b0bf-4393-8a4d-4c3c45ad9815","a9f3d40c-5730-405c-b25e-1034c4c56f3f","{""num_scrambled_semantic"":""8"",""num_scrambled_causal"":""4"",""num_scrambled_schematic"":""4"",""participantId"":""7C20F696C718497C9340CC85495FC642"",""assignmentId"":""ae0572e2-b0bf-4393-8a4d-4c3c45ad9815"",""projectId"":""a9f3d40c-5730-405c-b25e-1034c4c56f3f""}","https://test12345.live/?num_scrambled_semantic=8&num_scrambled_causal=4&num_scrambled_schematic=4&participantId=7C20F696C718497C9340CC85495FC642&assignmentId=ae0572e2-b0bf-4393-8a4d-4c3c45ad9815&projectId=a9f3d40c-5730-405c-b25e-1034c4c56f3f","7C20F696C718497C9340CC85495FC642-2025-08-07-19-13-46","","null","","images/causal_sequence/saving_a_cat_causal/saving_a_cat_causal_4.png","null","",""
"","","","","","image-button-response","79","709635","0.0-12.0-1.0-1.7","7C20F696C718497C9340CC85495FC642","7C20F696C718497C9340CC85495FC642","ae0572e2-b0bf-4393-8a4d-4c3c45ad9815","a9f3d40c-5730-405c-b25e-1034c4c56f3f","{""num_scrambled_semantic"":""8"",""num_scrambled_causal"":""4"",""num_scrambled_schematic"":""4"",""participantId"":""7C20F696C718497C9340CC85495FC642"",""assignmentId"":""ae0572e2-b0bf-4393-8a4d-4c3c45ad9815"",""projectId"":""a9f3d40c-5730-405c-b25e-1034c4c56f3f""}","https://test12345.live/?num_scrambled_semantic=8&num_scrambled_causal=4&num_scrambled_schematic=4&participantId=7C20F696C718497C9340CC85495FC642&assignmentId=ae0572e2-b0bf-4393-8a4d-4c3c45ad9815&projectId=a9f3d40c-5730-405c-b25e-1034c4c56f3f","7C20F696C718497C9340CC85495FC642-2025-08-07-19-13-46","","1864","","images/causal_sequence/saving_a_cat_causal/saving_a_cat_causal_4.png","0","",""
"","","","","","image-button-response","80","711437","0.0-12.0-1.0-2.7","7C20F696C718497C9340CC85495FC642","7C20F696C718497C9340CC85495FC642","ae0572e2-b0bf-4393-8a4d-4c3c45ad9815","a9f3d40c-5730-405c-b25e-1034c4c56f3f","{""num_scrambled_semantic"":""8"",""num_scrambled_causal"":""4"",""num_scrambled_schematic"":""4"",""participantId"":""7C20F696C718497C9340CC85495FC642"",""assignmentId"":""ae0572e2-b0bf-4393-8a4d-4c3c45ad9815"",""projectId"":""a9f3d40c-5730-405c-b25e-1034c4c56f3f""}","https://test12345.live/?num_scrambled_semantic=8&num_scrambled_causal=4&num_scrambled_schematic=4&participantId=7C20F696C718497C9340CC85495FC642&assignmentId=ae0572e2-b0bf-4393-8a4d-4c3c45ad9815&projectId=a9f3d40c-5730-405c-b25e-1034c4c56f3f","7C20F696C718497C9340CC85495FC642-2025-08-07-19-13-46","","null","","[]","null","",""
"","","","","","image-button-response","81","715938","0.0-12.0-1.0-0.8","7C20F696C718497C9340CC85495FC642","7C20F696C718497C9340CC85495FC642","ae0572e2-b0bf-4393-8a4d-4c3c45ad9815","a9f3d40c-5730-405c-b25e-1034c4c56f3f","{""num_scrambled_semantic"":""8"",""num_scrambled_causal"":""4"",""num_scrambled_schematic"":""4"",""participantId"":""7C20F696C718497C9340CC85495FC642"",""assignmentId"":""ae0572e2-b0bf-4393-8a4d-4c3c45ad9815"",""projectId"":""a9f3d40c-5730-405c-b25e-1034c4c56f3f""}","https://test12345.live/?num_scrambled_semantic=8&num_scrambled_causal=4&num_scrambled_schematic=4&participantId=7C20F696C718497C9340CC85495FC642&assignmentId=ae0572e2-b0bf-4393-8a4d-4c3c45ad9815&projectId=a9f3d40c-5730-405c-b25e-1034c4c56f3f","7C20F696C718497C9340CC85495FC642-2025-08-07-19-13-46","","null","","images/causal_sequence/saving_a_cat_causal/saving_a_cat_causal_9.png","null","",""
"","","","","","image-button-response","82","716921","0.0-12.0-1.0-1.8","7C20F696C718497C9340CC85495FC642","7C20F696C718497C9340CC85495FC642","ae0572e2-b0bf-4393-8a4d-4c3c45ad9815","a9f3d40c-5730-405c-b25e-1034c4c56f3f","{""num_scrambled_semantic"":""8"",""num_scrambled_causal"":""4"",""num_scrambled_schematic"":""4"",""participantId"":""7C20F696C718497C9340CC85495FC642"",""assignmentId"":""ae0572e2-b0bf-4393-8a4d-4c3c45ad9815"",""projectId"":""a9f3d40c-5730-405c-b25e-1034c4c56f3f""}","https://test12345.live/?num_scrambled_semantic=8&num_scrambled_causal=4&num_scrambled_schematic=4&participantId=7C20F696C718497C9340CC85495FC642&assignmentId=ae0572e2-b0bf-4393-8a4d-4c3c45ad9815&projectId=a9f3d40c-5730-405c-b25e-1034c4c56f3f","7C20F696C718497C9340CC85495FC642-2025-08-07-19-13-46","","981","","images/causal_sequence/saving_a_cat_causal/saving_a_cat_causal_9.png","0","",""
"","","","","","image-button-response","83","718722","0.0-12.0-1.0-2.8","7C20F696C718497C9340CC85495FC642","7C20F696C718497C9340CC85495FC642","ae0572e2-b0bf-4393-8a4d-4c3c45ad9815","a9f3d40c-5730-405c-b25e-1034c4c56f3f","{""num_scrambled_semantic"":""8"",""num_scrambled_causal"":""4"",""num_scrambled_schematic"":""4"",""participantId"":""7C20F696C718497C9340CC85495FC642"",""assignmentId"":""ae0572e2-b0bf-4393-8a4d-4c3c45ad9815"",""projectId"":""a9f3d40c-5730-405c-b25e-1034c4c56f3f""}","https://test12345.live/?num_scrambled_semantic=8&num_scrambled_causal=4&num_scrambled_schematic=4&participantId=7C20F696C718497C9340CC85495FC642&assignmentId=ae0572e2-b0bf-4393-8a4d-4c3c45ad9815&projectId=a9f3d40c-5730-405c-b25e-1034c4c56f3f","7C20F696C718497C9340CC85495FC642-2025-08-07-19-13-46","","null","","[]","null","",""
"","","","","","image-button-response","84","723224","0.0-12.0-1.0-0.9","7C20F696C718497C9340CC85495FC642","7C20F696C718497C9340CC85495FC642","ae0572e2-b0bf-4393-8a4d-4c3c45ad9815","a9f3d40c-5730-405c-b25e-1034c4c56f3f","{""num_scrambled_semantic"":""8"",""num_scrambled_causal"":""4"",""num_scrambled_schematic"":""4"",""participantId"":""7C20F696C718497C9340CC85495FC642"",""assignmentId"":""ae0572e2-b0bf-4393-8a4d-4c3c45ad9815"",""projectId"":""a9f3d40c-5730-405c-b25e-1034c4c56f3f""}","https://test12345.live/?num_scrambled_semantic=8&num_scrambled_causal=4&num_scrambled_schematic=4&participantId=7C20F696C718497C9340CC85495FC642&assignmentId=ae0572e2-b0bf-4393-8a4d-4c3c45ad9815&projectId=a9f3d40c-5730-405c-b25e-1034c4c56f3f","7C20F696C718497C9340CC85495FC642-2025-08-07-19-13-46","","null","","images/causal_sequence/saving_a_cat_causal/saving_a_cat_causal_1.png","null","",""
"","","","","","image-button-response","85","726194","0.0-12.0-1.0-1.9","7C20F696C718497C9340CC85495FC642","7C20F696C718497C9340CC85495FC642","ae0572e2-b0bf-4393-8a4d-4c3c45ad9815","a9f3d40c-5730-405c-b25e-1034c4c56f3f","{""num_scrambled_semantic"":""8"",""num_scrambled_causal"":""4"",""num_scrambled_schematic"":""4"",""participantId"":""7C20F696C718497C9340CC85495FC642"",""assignmentId"":""ae0572e2-b0bf-4393-8a4d-4c3c45ad9815"",""projectId"":""a9f3d40c-5730-405c-b25e-1034c4c56f3f""}","https://test12345.live/?num_scrambled_semantic=8&num_scrambled_causal=4&num_scrambled_schematic=4&participantId=7C20F696C718497C9340CC85495FC642&assignmentId=ae0572e2-b0bf-4393-8a4d-4c3c45ad9815&projectId=a9f3d40c-5730-405c-b25e-1034c4c56f3f","7C20F696C718497C9340CC85495FC642-2025-08-07-19-13-46","","2969","","images/causal_sequence/saving_a_cat_causal/saving_a_cat_causal_1.png","0","",""
"","","","","","image-button-response","86","727996","0.0-12.0-1.0-2.9","7C20F696C718497C9340CC85495FC642","7C20F696C718497C9340CC85495FC642","ae0572e2-b0bf-4393-8a4d-4c3c45ad9815","a9f3d40c-5730-405c-b25e-1034c4c56f3f","{""num_scrambled_semantic"":""8"",""num_scrambled_causal"":""4"",""num_scrambled_schematic"":""4"",""participantId"":""7C20F696C718497C9340CC85495FC642"",""assignmentId"":""ae0572e2-b0bf-4393-8a4d-4c3c45ad9815"",""projectId"":""a9f3d40c-5730-405c-b25e-1034c4c56f3f""}","https://test12345.live/?num_scrambled_semantic=8&num_scrambled_causal=4&num_scrambled_schematic=4&participantId=7C20F696C718497C9340CC85495FC642&assignmentId=ae0572e2-b0bf-4393-8a4d-4c3c45ad9815&projectId=a9f3d40c-5730-405c-b25e-1034c4c56f3f","7C20F696C718497C9340CC85495FC642-2025-08-07-19-13-46","","null","","[]","null","",""
"","","","","","html-audio-response","87","810158","0.0-13.0","7C20F696C718497C9340CC85495FC642","7C20F696C718497C9340CC85495FC642","ae0572e2-b0bf-4393-8a4d-4c3c45ad9815","a9f3d40c-5730-405c-b25e-1034c4c56f3f","{""num_scrambled_semantic"":""8"",""num_scrambled_causal"":""4"",""num_scrambled_schematic"":""4"",""participantId"":""7C20F696C718497C9340CC85495FC642"",""assignmentId"":""ae0572e2-b0bf-4393-8a4d-4c3c45ad9815"",""projectId"":""a9f3d40c-5730-405c-b25e-1034c4c56f3f""}","https://test12345.live/?num_scrambled_semantic=8&num_scrambled_causal=4&num_scrambled_schematic=4&participantId=7C20F696C718497C9340CC85495FC642&assignmentId=ae0572e2-b0bf-4393-8a4d-4c3c45ad9815&projectId=a9f3d40c-5730-405c-b25e-1034c4c56f3f","7C20F696C718497C9340CC85495FC642-2025-08-07-19-13-46","","40798","","[""<span style=\""color: red; font-size: 24px\""> NOW RECORDING</span><p>Please say out loud all the images you saw, as many as you can remember. The images can be said in any order.</p>""]","","1","saving_a_cat_causal"
"","","","","","image-button-response","88","816165","0.0-14.0-0.0","7C20F696C718497C9340CC85495FC642","7C20F696C718497C9340CC85495FC642","ae0572e2-b0bf-4393-8a4d-4c3c45ad9815","a9f3d40c-5730-405c-b25e-1034c4c56f3f","{""num_scrambled_semantic"":""8"",""num_scrambled_causal"":""4"",""num_scrambled_schematic"":""4"",""participantId"":""7C20F696C718497C9340CC85495FC642"",""assignmentId"":""ae0572e2-b0bf-4393-8a4d-4c3c45ad9815"",""projectId"":""a9f3d40c-5730-405c-b25e-1034c4c56f3f""}","https://test12345.live/?num_scrambled_semantic=8&num_scrambled_causal=4&num_scrambled_schematic=4&participantId=7C20F696C718497C9340CC85495FC642&assignmentId=ae0572e2-b0bf-4393-8a4d-4c3c45ad9815&projectId=a9f3d40c-5730-405c-b25e-1034c4c56f3f","7C20F696C718497C9340CC85495FC642-2025-08-07-19-13-46","","null","","images/causal_sequence/the_performance_causal/the_performance_causal_0.png","null","",""
"","","","","","image-button-response","89","820667","0.0-14.0-1.0-0.0","7C20F696C718497C9340CC85495FC642","7C20F696C718497C9340CC85495FC642","ae0572e2-b0bf-4393-8a4d-4c3c45ad9815","a9f3d40c-5730-405c-b25e-1034c4c56f3f","{""num_scrambled_semantic"":""8"",""num_scrambled_causal"":""4"",""num_scrambled_schematic"":""4"",""participantId"":""7C20F696C718497C9340CC85495FC642"",""assignmentId"":""ae0572e2-b0bf-4393-8a4d-4c3c45ad9815"",""projectId"":""a9f3d40c-5730-405c-b25e-1034c4c56f3f""}","https://test12345.live/?num_scrambled_semantic=8&num_scrambled_causal=4&num_scrambled_schematic=4&participantId=7C20F696C718497C9340CC85495FC642&assignmentId=ae0572e2-b0bf-4393-8a4d-4c3c45ad9815&projectId=a9f3d40c-5730-405c-b25e-1034c4c56f3f","7C20F696C718497C9340CC85495FC642-2025-08-07-19-13-46","","null","","images/causal_sequence/the_performance_causal/the_performance_causal_1.png","null","",""
"","","","","","image-button-response","90","822189","0.0-14.0-1.0-1.0","7C20F696C718497C9340CC85495FC642","7C20F696C718497C9340CC85495FC642","ae0572e2-b0bf-4393-8a4d-4c3c45ad9815","a9f3d40c-5730-405c-b25e-1034c4c56f3f","{""num_scrambled_semantic"":""8"",""num_scrambled_causal"":""4"",""num_scrambled_schematic"":""4"",""participantId"":""7C20F696C718497C9340CC85495FC642"",""assignmentId"":""ae0572e2-b0bf-4393-8a4d-4c3c45ad9815"",""projectId"":""a9f3d40c-5730-405c-b25e-1034c4c56f3f""}","https://test12345.live/?num_scrambled_semantic=8&num_scrambled_causal=4&num_scrambled_schematic=4&participantId=7C20F696C718497C9340CC85495FC642&assignmentId=ae0572e2-b0bf-4393-8a4d-4c3c45ad9815&projectId=a9f3d40c-5730-405c-b25e-1034c4c56f3f","7C20F696C718497C9340CC85495FC642-2025-08-07-19-13-46","","1521","","images/causal_sequence/the_performance_causal/the_performance_causal_1.png","0","",""
"","","","","","image-button-response","91","823990","0.0-14.0-1.0-2.0","7C20F696C718497C9340CC85495FC642","7C20F696C718497C9340CC85495FC642","ae0572e2-b0bf-4393-8a4d-4c3c45ad9815","a9f3d40c-5730-405c-b25e-1034c4c56f3f","{""num_scrambled_semantic"":""8"",""num_scrambled_causal"":""4"",""num_scrambled_schematic"":""4"",""participantId"":""7C20F696C718497C9340CC85495FC642"",""assignmentId"":""ae0572e2-b0bf-4393-8a4d-4c3c45ad9815"",""projectId"":""a9f3d40c-5730-405c-b25e-1034c4c56f3f""}","https://test12345.live/?num_scrambled_semantic=8&num_scrambled_causal=4&num_scrambled_schematic=4&participantId=7C20F696C718497C9340CC85495FC642&assignmentId=ae0572e2-b0bf-4393-8a4d-4c3c45ad9815&projectId=a9f3d40c-5730-405c-b25e-1034c4c56f3f","7C20F696C718497C9340CC85495FC642-2025-08-07-19-13-46","","null","","[]","null","",""
"","","","","","image-button-response","92","828493","0.0-14.0-1.0-0.1","7C20F696C718497C9340CC85495FC642","7C20F696C718497C9340CC85495FC642","ae0572e2-b0bf-4393-8a4d-4c3c45ad9815","a9f3d40c-5730-405c-b25e-1034c4c56f3f","{""num_scrambled_semantic"":""8"",""num_scrambled_causal"":""4"",""num_scrambled_schematic"":""4"",""participantId"":""7C20F696C718497C9340CC85495FC642"",""assignmentId"":""ae0572e2-b0bf-4393-8a4d-4c3c45ad9815"",""projectId"":""a9f3d40c-5730-405c-b25e-1034c4c56f3f""}","https://test12345.live/?num_scrambled_semantic=8&num_scrambled_causal=4&num_scrambled_schematic=4&participantId=7C20F696C718497C9340CC85495FC642&assignmentId=ae0572e2-b0bf-4393-8a4d-4c3c45ad9815&projectId=a9f3d40c-5730-405c-b25e-1034c4c56f3f","7C20F696C718497C9340CC85495FC642-2025-08-07-19-13-46","","null","","images/causal_sequence/the_performance_causal/the_performance_causal_9.png","null","",""
"","","","","","image-button-response","93","830228","0.0-14.0-1.0-1.1","7C20F696C718497C9340CC85495FC642","7C20F696C718497C9340CC85495FC642","ae0572e2-b0bf-4393-8a4d-4c3c45ad9815","a9f3d40c-5730-405c-b25e-1034c4c56f3f","{""num_scrambled_semantic"":""8"",""num_scrambled_causal"":""4"",""num_scrambled_schematic"":""4"",""participantId"":""7C20F696C718497C9340CC85495FC642"",""assignmentId"":""ae0572e2-b0bf-4393-8a4d-4c3c45ad9815"",""projectId"":""a9f3d40c-5730-405c-b25e-1034c4c56f3f""}","https://test12345.live/?num_scrambled_semantic=8&num_scrambled_causal=4&num_scrambled_schematic=4&participantId=7C20F696C718497C9340CC85495FC642&assignmentId=ae0572e2-b0bf-4393-8a4d-4c3c45ad9815&projectId=a9f3d40c-5730-405c-b25e-1034c4c56f3f","7C20F696C718497C9340CC85495FC642-2025-08-07-19-13-46","","1734","","images/causal_sequence/the_performance_causal/the_performance_causal_9.png","0","",""
"","","","","","image-button-response","94","832029","0.0-14.0-1.0-2.1","7C20F696C718497C9340CC85495FC642","7C20F696C718497C9340CC85495FC642","ae0572e2-b0bf-4393-8a4d-4c3c45ad9815","a9f3d40c-5730-405c-b25e-1034c4c56f3f","{""num_scrambled_semantic"":""8"",""num_scrambled_causal"":""4"",""num_scrambled_schematic"":""4"",""participantId"":""7C20F696C718497C9340CC85495FC642"",""assignmentId"":""ae0572e2-b0bf-4393-8a4d-4c3c45ad9815"",""projectId"":""a9f3d40c-5730-405c-b25e-1034c4c56f3f""}","https://test12345.live/?num_scrambled_semantic=8&num_scrambled_causal=4&num_scrambled_schematic=4&participantId=7C20F696C718497C9340CC85495FC642&assignmentId=ae0572e2-b0bf-4393-8a4d-4c3c45ad9815&projectId=a9f3d40c-5730-405c-b25e-1034c4c56f3f","7C20F696C718497C9340CC85495FC642-2025-08-07-19-13-46","","null","","[]","null","",""
"","","","","","image-button-response","95","836531","0.0-14.0-1.0-0.2","7C20F696C718497C9340CC85495FC642","7C20F696C718497C9340CC85495FC642","ae0572e2-b0bf-4393-8a4d-4c3c45ad9815","a9f3d40c-5730-405c-b25e-1034c4c56f3f","{""num_scrambled_semantic"":""8"",""num_scrambled_causal"":""4"",""num_scrambled_schematic"":""4"",""participantId"":""7C20F696C718497C9340CC85495FC642"",""assignmentId"":""ae0572e2-b0bf-4393-8a4d-4c3c45ad9815"",""projectId"":""a9f3d40c-5730-405c-b25e-1034c4c56f3f""}","https://test12345.live/?num_scrambled_semantic=8&num_scrambled_causal=4&num_scrambled_schematic=4&participantId=7C20F696C718497C9340CC85495FC642&assignmentId=ae0572e2-b0bf-4393-8a4d-4c3c45ad9815&projectId=a9f3d40c-5730-405c-b25e-1034c4c56f3f","7C20F696C718497C9340CC85495FC642-2025-08-07-19-13-46","","null","","images/causal_sequence/the_performance_causal/the_performance_causal_4.png","null","",""
"","","","","","image-button-response","96","838691","0.0-14.0-1.0-1.2","7C20F696C718497C9340CC85495FC642","7C20F696C718497C9340CC85495FC642","ae0572e2-b0bf-4393-8a4d-4c3c45ad9815","a9f3d40c-5730-405c-b25e-1034c4c56f3f","{""num_scrambled_semantic"":""8"",""num_scrambled_causal"":""4"",""num_scrambled_schematic"":""4"",""participantId"":""7C20F696C718497C9340CC85495FC642"",""assignmentId"":""ae0572e2-b0bf-4393-8a4d-4c3c45ad9815"",""projectId"":""a9f3d40c-5730-405c-b25e-1034c4c56f3f""}","https://test12345.live/?num_scrambled_semantic=8&num_scrambled_causal=4&num_scrambled_schematic=4&participantId=7C20F696C718497C9340CC85495FC642&assignmentId=ae0572e2-b0bf-4393-8a4d-4c3c45ad9815&projectId=a9f3d40c-5730-405c-b25e-1034c4c56f3f","7C20F696C718497C9340CC85495FC642-2025-08-07-19-13-46","","2159","","images/causal_sequence/the_performance_causal/the_performance_causal_4.png","0","",""
"","","","","","image-button-response","97","840493","0.0-14.0-1.0-2.2","7C20F696C718497C9340CC85495FC642","7C20F696C718497C9340CC85495FC642","ae0572e2-b0bf-4393-8a4d-4c3c45ad9815","a9f3d40c-5730-405c-b25e-1034c4c56f3f","{""num_scrambled_semantic"":""8"",""num_scrambled_causal"":""4"",""num_scrambled_schematic"":""4"",""participantId"":""7C20F696C718497C9340CC85495FC642"",""assignmentId"":""ae0572e2-b0bf-4393-8a4d-4c3c45ad9815"",""projectId"":""a9f3d40c-5730-405c-b25e-1034c4c56f3f""}","https://test12345.live/?num_scrambled_semantic=8&num_scrambled_causal=4&num_scrambled_schematic=4&participantId=7C20F696C718497C9340CC85495FC642&assignmentId=ae0572e2-b0bf-4393-8a4d-4c3c45ad9815&projectId=a9f3d40c-5730-405c-b25e-1034c4c56f3f","7C20F696C718497C9340CC85495FC642-2025-08-07-19-13-46","","null","","[]","null","",""
"","","","","","image-button-response","98","844994","0.0-14.0-1.0-0.3","7C20F696C718497C9340CC85495FC642","7C20F696C718497C9340CC85495FC642","ae0572e2-b0bf-4393-8a4d-4c3c45ad9815","a9f3d40c-5730-405c-b25e-1034c4c56f3f","{""num_scrambled_semantic"":""8"",""num_scrambled_causal"":""4"",""num_scrambled_schematic"":""4"",""participantId"":""7C20F696C718497C9340CC85495FC642"",""assignmentId"":""ae0572e2-b0bf-4393-8a4d-4c3c45ad9815"",""projectId"":""a9f3d40c-5730-405c-b25e-1034c4c56f3f""}","https://test12345.live/?num_scrambled_semantic=8&num_scrambled_causal=4&num_scrambled_schematic=4&participantId=7C20F696C718497C9340CC85495FC642&assignmentId=ae0572e2-b0bf-4393-8a4d-4c3c45ad9815&projectId=a9f3d40c-5730-405c-b25e-1034c4c56f3f","7C20F696C718497C9340CC85495FC642-2025-08-07-19-13-46","","null","","images/causal_sequence/the_performance_causal/the_performance_causal_6.png","null","",""
"","","","","","image-button-response","99","846374","0.0-14.0-1.0-1.3","7C20F696C718497C9340CC85495FC642","7C20F696C718497C9340CC85495FC642","ae0572e2-b0bf-4393-8a4d-4c3c45ad9815","a9f3d40c-5730-405c-b25e-1034c4c56f3f","{""num_scrambled_semantic"":""8"",""num_scrambled_causal"":""4"",""num_scrambled_schematic"":""4"",""participantId"":""7C20F696C718497C9340CC85495FC642"",""assignmentId"":""ae0572e2-b0bf-4393-8a4d-4c3c45ad9815"",""projectId"":""a9f3d40c-5730-405c-b25e-1034c4c56f3f""}","https://test12345.live/?num_scrambled_semantic=8&num_scrambled_causal=4&num_scrambled_schematic=4&participantId=7C20F696C718497C9340CC85495FC642&assignmentId=ae0572e2-b0bf-4393-8a4d-4c3c45ad9815&projectId=a9f3d40c-5730-405c-b25e-1034c4c56f3f","7C20F696C718497C9340CC85495FC642-2025-08-07-19-13-46","","1379","","images/causal_sequence/the_performance_causal/the_performance_causal_6.png","0","",""
"","","","","","image-button-response","100","848175","0.0-14.0-1.0-2.3","7C20F696C718497C9340CC85495FC642","7C20F696C718497C9340CC85495FC642","ae0572e2-b0bf-4393-8a4d-4c3c45ad9815","a9f3d40c-5730-405c-b25e-1034c4c56f3f","{""num_scrambled_semantic"":""8"",""num_scrambled_causal"":""4"",""num_scrambled_schematic"":""4"",""participantId"":""7C20F696C718497C9340CC85495FC642"",""assignmentId"":""ae0572e2-b0bf-4393-8a4d-4c3c45ad9815"",""projectId"":""a9f3d40c-5730-405c-b25e-1034c4c56f3f""}","https://test12345.live/?num_scrambled_semantic=8&num_scrambled_causal=4&num_scrambled_schematic=4&participantId=7C20F696C718497C9340CC85495FC642&assignmentId=ae0572e2-b0bf-4393-8a4d-4c3c45ad9815&projectId=a9f3d40c-5730-405c-b25e-1034c4c56f3f","7C20F696C718497C9340CC85495FC642-2025-08-07-19-13-46","","null","","[]","null","",""
"","","","","","image-button-response","101","852677","0.0-14.0-1.0-0.4","7C20F696C718497C9340CC85495FC642","7C20F696C718497C9340CC85495FC642","ae0572e2-b0bf-4393-8a4d-4c3c45ad9815","a9f3d40c-5730-405c-b25e-1034c4c56f3f","{""num_scrambled_semantic"":""8"",""num_scrambled_causal"":""4"",""num_scrambled_schematic"":""4"",""participantId"":""7C20F696C718497C9340CC85495FC642"",""assignmentId"":""ae0572e2-b0bf-4393-8a4d-4c3c45ad9815"",""projectId"":""a9f3d40c-5730-405c-b25e-1034c4c56f3f""}","https://test12345.live/?num_scrambled_semantic=8&num_scrambled_causal=4&num_scrambled_schematic=4&participantId=7C20F696C718497C9340CC85495FC642&assignmentId=ae0572e2-b0bf-4393-8a4d-4c3c45ad9815&projectId=a9f3d40c-5730-405c-b25e-1034c4c56f3f","7C20F696C718497C9340CC85495FC642-2025-08-07-19-13-46","","null","","images/causal_sequence/the_performance_causal/the_performance_causal_5.png","null","",""
"","","","","","image-button-response","102","853897","0.0-14.0-1.0-1.4","7C20F696C718497C9340CC85495FC642","7C20F696C718497C9340CC85495FC642","ae0572e2-b0bf-4393-8a4d-4c3c45ad9815","a9f3d40c-5730-405c-b25e-1034c4c56f3f","{""num_scrambled_semantic"":""8"",""num_scrambled_causal"":""4"",""num_scrambled_schematic"":""4"",""participantId"":""7C20F696C718497C9340CC85495FC642"",""assignmentId"":""ae0572e2-b0bf-4393-8a4d-4c3c45ad9815"",""projectId"":""a9f3d40c-5730-405c-b25e-1034c4c56f3f""}","https://test12345.live/?num_scrambled_semantic=8&num_scrambled_causal=4&num_scrambled_schematic=4&participantId=7C20F696C718497C9340CC85495FC642&assignmentId=ae0572e2-b0bf-4393-8a4d-4c3c45ad9815&projectId=a9f3d40c-5730-405c-b25e-1034c4c56f3f","7C20F696C718497C9340CC85495FC642-2025-08-07-19-13-46","","1220","","images/causal_sequence/the_performance_causal/the_performance_causal_5.png","0","",""
"","","","","","image-button-response","103","855699","0.0-14.0-1.0-2.4","7C20F696C718497C9340CC85495FC642","7C20F696C718497C9340CC85495FC642","ae0572e2-b0bf-4393-8a4d-4c3c45ad9815","a9f3d40c-5730-405c-b25e-1034c4c56f3f","{""num_scrambled_semantic"":""8"",""num_scrambled_causal"":""4"",""num_scrambled_schematic"":""4"",""participantId"":""7C20F696C718497C9340CC85495FC642"",""assignmentId"":""ae0572e2-b0bf-4393-8a4d-4c3c45ad9815"",""projectId"":""a9f3d40c-5730-405c-b25e-1034c4c56f3f""}","https://test12345.live/?num_scrambled_semantic=8&num_scrambled_causal=4&num_scrambled_schematic=4&participantId=7C20F696C718497C9340CC85495FC642&assignmentId=ae0572e2-b0bf-4393-8a4d-4c3c45ad9815&projectId=a9f3d40c-5730-405c-b25e-1034c4c56f3f","7C20F696C718497C9340CC85495FC642-2025-08-07-19-13-46","","null","","[]","null","",""
"","","","","","image-button-response","104","860201","0.0-14.0-1.0-0.5","7C20F696C718497C9340CC85495FC642","7C20F696C718497C9340CC85495FC642","ae0572e2-b0bf-4393-8a4d-4c3c45ad9815","a9f3d40c-5730-405c-b25e-1034c4c56f3f","{""num_scrambled_semantic"":""8"",""num_scrambled_causal"":""4"",""num_scrambled_schematic"":""4"",""participantId"":""7C20F696C718497C9340CC85495FC642"",""assignmentId"":""ae0572e2-b0bf-4393-8a4d-4c3c45ad9815"",""projectId"":""a9f3d40c-5730-405c-b25e-1034c4c56f3f""}","https://test12345.live/?num_scrambled_semantic=8&num_scrambled_causal=4&num_scrambled_schematic=4&participantId=7C20F696C718497C9340CC85495FC642&assignmentId=ae0572e2-b0bf-4393-8a4d-4c3c45ad9815&projectId=a9f3d40c-5730-405c-b25e-1034c4c56f3f","7C20F696C718497C9340CC85495FC642-2025-08-07-19-13-46","","null","","images/causal_sequence/the_performance_causal/the_performance_causal_2.png","null","",""
"","","","","","image-button-response","105","861218","0.0-14.0-1.0-1.5","7C20F696C718497C9340CC85495FC642","7C20F696C718497C9340CC85495FC642","ae0572e2-b0bf-4393-8a4d-4c3c45ad9815","a9f3d40c-5730-405c-b25e-1034c4c56f3f","{""num_scrambled_semantic"":""8"",""num_scrambled_causal"":""4"",""num_scrambled_schematic"":""4"",""participantId"":""7C20F696C718497C9340CC85495FC642"",""assignmentId"":""ae0572e2-b0bf-4393-8a4d-4c3c45ad9815"",""projectId"":""a9f3d40c-5730-405c-b25e-1034c4c56f3f""}","https://test12345.live/?num_scrambled_semantic=8&num_scrambled_causal=4&num_scrambled_schematic=4&participantId=7C20F696C718497C9340CC85495FC642&assignmentId=ae0572e2-b0bf-4393-8a4d-4c3c45ad9815&projectId=a9f3d40c-5730-405c-b25e-1034c4c56f3f","7C20F696C718497C9340CC85495FC642-2025-08-07-19-13-46","","1016","","images/causal_sequence/the_performance_causal/the_performance_causal_2.png","0","",""
"","","","","","image-button-response","106","863020","0.0-14.0-1.0-2.5","7C20F696C718497C9340CC85495FC642","7C20F696C718497C9340CC85495FC642","ae0572e2-b0bf-4393-8a4d-4c3c45ad9815","a9f3d40c-5730-405c-b25e-1034c4c56f3f","{""num_scrambled_semantic"":""8"",""num_scrambled_causal"":""4"",""num_scrambled_schematic"":""4"",""participantId"":""7C20F696C718497C9340CC85495FC642"",""assignmentId"":""ae0572e2-b0bf-4393-8a4d-4c3c45ad9815"",""projectId"":""a9f3d40c-5730-405c-b25e-1034c4c56f3f""}","https://test12345.live/?num_scrambled_semantic=8&num_scrambled_causal=4&num_scrambled_schematic=4&participantId=7C20F696C718497C9340CC85495FC642&assignmentId=ae0572e2-b0bf-4393-8a4d-4c3c45ad9815&projectId=a9f3d40c-5730-405c-b25e-1034c4c56f3f","7C20F696C718497C9340CC85495FC642-2025-08-07-19-13-46","","null","","[]","null","",""
"","","","","","image-button-response","107","867521","0.0-14.0-1.0-0.6","7C20F696C718497C9340CC85495FC642","7C20F696C718497C9340CC85495FC642","ae0572e2-b0bf-4393-8a4d-4c3c45ad9815","a9f3d40c-5730-405c-b25e-1034c4c56f3f","{""num_scrambled_semantic"":""8"",""num_scrambled_causal"":""4"",""num_scrambled_schematic"":""4"",""participantId"":""7C20F696C718497C9340CC85495FC642"",""assignmentId"":""ae0572e2-b0bf-4393-8a4d-4c3c45ad9815"",""projectId"":""a9f3d40c-5730-405c-b25e-1034c4c56f3f""}","https://test12345.live/?num_scrambled_semantic=8&num_scrambled_causal=4&num_scrambled_schematic=4&participantId=7C20F696C718497C9340CC85495FC642&assignmentId=ae0572e2-b0bf-4393-8a4d-4c3c45ad9815&projectId=a9f3d40c-5730-405c-b25e-1034c4c56f3f","7C20F696C718497C9340CC85495FC642-2025-08-07-19-13-46","","null","","images/causal_sequence/the_performance_causal/the_performance_causal_7.png","null","",""
"","","","","","image-button-response","108","868906","0.0-14.0-1.0-1.6","7C20F696C718497C9340CC85495FC642","7C20F696C718497C9340CC85495FC642","ae0572e2-b0bf-4393-8a4d-4c3c45ad9815","a9f3d40c-5730-405c-b25e-1034c4c56f3f","{""num_scrambled_semantic"":""8"",""num_scrambled_causal"":""4"",""num_scrambled_schematic"":""4"",""participantId"":""7C20F696C718497C9340CC85495FC642"",""assignmentId"":""ae0572e2-b0bf-4393-8a4d-4c3c45ad9815"",""projectId"":""a9f3d40c-5730-405c-b25e-1034c4c56f3f""}","https://test12345.live/?num_scrambled_semantic=8&num_scrambled_causal=4&num_scrambled_schematic=4&participantId=7C20F696C718497C9340CC85495FC642&assignmentId=ae0572e2-b0bf-4393-8a4d-4c3c45ad9815&projectId=a9f3d40c-5730-405c-b25e-1034c4c56f3f","7C20F696C718497C9340CC85495FC642-2025-08-07-19-13-46","","1384","","images/causal_sequence/the_performance_causal/the_performance_causal_7.png","0","",""
"","","","","","image-button-response","109","870707","0.0-14.0-1.0-2.6","7C20F696C718497C9340CC85495FC642","7C20F696C718497C9340CC85495FC642","ae0572e2-b0bf-4393-8a4d-4c3c45ad9815","a9f3d40c-5730-405c-b25e-1034c4c56f3f","{""num_scrambled_semantic"":""8"",""num_scrambled_causal"":""4"",""num_scrambled_schematic"":""4"",""participantId"":""7C20F696C718497C9340CC85495FC642"",""assignmentId"":""ae0572e2-b0bf-4393-8a4d-4c3c45ad9815"",""projectId"":""a9f3d40c-5730-405c-b25e-1034c4c56f3f""}","https://test12345.live/?num_scrambled_semantic=8&num_scrambled_causal=4&num_scrambled_schematic=4&participantId=7C20F696C718497C9340CC85495FC642&assignmentId=ae0572e2-b0bf-4393-8a4d-4c3c45ad9815&projectId=a9f3d40c-5730-405c-b25e-1034c4c56f3f","7C20F696C718497C9340CC85495FC642-2025-08-07-19-13-46","","null","","[]","null","",""
"","","","","","image-button-response","110","875209","0.0-14.0-1.0-0.7","7C20F696C718497C9340CC85495FC642","7C20F696C718497C9340CC85495FC642","ae0572e2-b0bf-4393-8a4d-4c3c45ad9815","a9f3d40c-5730-405c-b25e-1034c4c56f3f","{""num_scrambled_semantic"":""8"",""num_scrambled_causal"":""4"",""num_scrambled_schematic"":""4"",""participantId"":""7C20F696C718497C9340CC85495FC642"",""assignmentId"":""ae0572e2-b0bf-4393-8a4d-4c3c45ad9815"",""projectId"":""a9f3d40c-5730-405c-b25e-1034c4c56f3f""}","https://test12345.live/?num_scrambled_semantic=8&num_scrambled_causal=4&num_scrambled_schematic=4&participantId=7C20F696C718497C9340CC85495FC642&assignmentId=ae0572e2-b0bf-4393-8a4d-4c3c45ad9815&projectId=a9f3d40c-5730-405c-b25e-1034c4c56f3f","7C20F696C718497C9340CC85495FC642-2025-08-07-19-13-46","","null","","images/causal_sequence/the_performance_causal/the_performance_causal_8.png","null","",""
"","","","","","image-button-response","111","876743","0.0-14.0-1.0-1.7","7C20F696C718497C9340CC85495FC642","7C20F696C718497C9340CC85495FC642","ae0572e2-b0bf-4393-8a4d-4c3c45ad9815","a9f3d40c-5730-405c-b25e-1034c4c56f3f","{""num_scrambled_semantic"":""8"",""num_scrambled_causal"":""4"",""num_scrambled_schematic"":""4"",""participantId"":""7C20F696C718497C9340CC85495FC642"",""assignmentId"":""ae0572e2-b0bf-4393-8a4d-4c3c45ad9815"",""projectId"":""a9f3d40c-5730-405c-b25e-1034c4c56f3f""}","https://test12345.live/?num_scrambled_semantic=8&num_scrambled_causal=4&num_scrambled_schematic=4&participantId=7C20F696C718497C9340CC85495FC642&assignmentId=ae0572e2-b0bf-4393-8a4d-4c3c45ad9815&projectId=a9f3d40c-5730-405c-b25e-1034c4c56f3f","7C20F696C718497C9340CC85495FC642-2025-08-07-19-13-46","","1532","","images/causal_sequence/the_performance_causal/the_performance_causal_8.png","0","",""
"","","","","","image-button-response","112","878544","0.0-14.0-1.0-2.7","7C20F696C718497C9340CC85495FC642","7C20F696C718497C9340CC85495FC642","ae0572e2-b0bf-4393-8a4d-4c3c45ad9815","a9f3d40c-5730-405c-b25e-1034c4c56f3f","{""num_scrambled_semantic"":""8"",""num_scrambled_causal"":""4"",""num_scrambled_schematic"":""4"",""participantId"":""7C20F696C718497C9340CC85495FC642"",""assignmentId"":""ae0572e2-b0bf-4393-8a4d-4c3c45ad9815"",""projectId"":""a9f3d40c-5730-405c-b25e-1034c4c56f3f""}","https://test12345.live/?num_scrambled_semantic=8&num_scrambled_causal=4&num_scrambled_schematic=4&participantId=7C20F696C718497C9340CC85495FC642&assignmentId=ae0572e2-b0bf-4393-8a4d-4c3c45ad9815&projectId=a9f3d40c-5730-405c-b25e-1034c4c56f3f","7C20F696C718497C9340CC85495FC642-2025-08-07-19-13-46","","null","","[]","null","",""
"","","","","","image-button-response","113","883046","0.0-14.0-1.0-0.8","7C20F696C718497C9340CC85495FC642","7C20F696C718497C9340CC85495FC642","ae0572e2-b0bf-4393-8a4d-4c3c45ad9815","a9f3d40c-5730-405c-b25e-1034c4c56f3f","{""num_scrambled_semantic"":""8"",""num_scrambled_causal"":""4"",""num_scrambled_schematic"":""4"",""participantId"":""7C20F696C718497C9340CC85495FC642"",""assignmentId"":""ae0572e2-b0bf-4393-8a4d-4c3c45ad9815"",""projectId"":""a9f3d40c-5730-405c-b25e-1034c4c56f3f""}","https://test12345.live/?num_scrambled_semantic=8&num_scrambled_causal=4&num_scrambled_schematic=4&participantId=7C20F696C718497C9340CC85495FC642&assignmentId=ae0572e2-b0bf-4393-8a4d-4c3c45ad9815&projectId=a9f3d40c-5730-405c-b25e-1034c4c56f3f","7C20F696C718497C9340CC85495FC642-2025-08-07-19-13-46","","null","","images/causal_sequence/the_performance_causal/the_performance_causal_9 (2).png","null","",""
