"success","timeout","failed_images","failed_audio","failed_video","trial_type","trial_index","time_elapsed","internal_node_id","subject","subject_id","study_id","session_id","urlvar","current_url","audio_id","view_history","rt","device_id","stimulus","response","estimated_stimulus_onset","seq_name"
"true","false","[]","[]","[]","preload","0","28983","0.0-0.0","7CF9BDBEF5A8487E9059DF7AEDC12B6A","7CF9BDBEF5A8487E9059DF7AEDC12B6A","409a48ee-0ffd-4aed-92e1-ae55ea8ae6b6","ba640c14-69c5-453e-80b2-29051492c0e0","{""num_scrambled_semantic"":""8"",""num_scrambled_causal"":""4"",""num_scrambled_schematic"":""4"",""participantId"":""7CF9BDBEF5A8487E9059DF7AEDC12B6A"",""assignmentId"":""409a48ee-0ffd-4aed-92e1-ae55ea8ae6b6"",""projectId"":""ba640c14-69c5-453e-80b2-29051492c0e0""}","https://test12345.live/?num_scrambled_semantic=8&num_scrambled_causal=4&num_scrambled_schematic=4&participantId=7CF9BDBEF5A8487E9059DF7AEDC12B6A&assignmentId=409a48ee-0ffd-4aed-92e1-ae55ea8ae6b6&projectId=ba640c14-69c5-453e-80b2-29051492c0e0","7CF9BDBEF5A8487E9059DF7AEDC12B6A-2025-05-14-21-13-02","","","","","","",""
"","","","","","instructions","1","65603","0.0-1.0","7CF9BDBEF5A8487E9059DF7AEDC12B6A","7CF9BDBEF5A8487E9059DF7AEDC12B6A","409a48ee-0ffd-4aed-92e1-ae55ea8ae6b6","ba640c14-69c5-453e-80b2-29051492c0e0","{""num_scrambled_semantic"":""8"",""num_scrambled_causal"":""4"",""num_scrambled_schematic"":""4"",""participantId"":""7CF9BDBEF5A8487E9059DF7AEDC12B6A"",""assignmentId"":""409a48ee-0ffd-4aed-92e1-ae55ea8ae6b6"",""projectId"":""ba640c14-69c5-453e-80b2-29051492c0e0""}","https://test12345.live/?num_scrambled_semantic=8&num_scrambled_causal=4&num_scrambled_schematic=4&participantId=7CF9BDBEF5A8487E9059DF7AEDC12B6A&assignmentId=409a48ee-0ffd-4aed-92e1-ae55ea8ae6b6&projectId=ba640c14-69c5-453e-80b2-29051492c0e0","7CF9BDBEF5A8487E9059DF7AEDC12B6A-2025-05-14-21-13-02","[{""page_index"":0,""viewing_time"":36618}]","36619","","","","",""
"","","","","","instructions","2","69730","0.0-2.0","7CF9BDBEF5A8487E9059DF7AEDC12B6A","7CF9BDBEF5A8487E9059DF7AEDC12B6A","409a48ee-0ffd-4aed-92e1-ae55ea8ae6b6","ba640c14-69c5-453e-80b2-29051492c0e0","{""num_scrambled_semantic"":""8"",""num_scrambled_causal"":""4"",""num_scrambled_schematic"":""4"",""participantId"":""7CF9BDBEF5A8487E9059DF7AEDC12B6A"",""assignmentId"":""409a48ee-0ffd-4aed-92e1-ae55ea8ae6b6"",""projectId"":""ba640c14-69c5-453e-80b2-29051492c0e0""}","https://test12345.live/?num_scrambled_semantic=8&num_scrambled_causal=4&num_scrambled_schematic=4&participantId=7CF9BDBEF5A8487E9059DF7AEDC12B6A&assignmentId=409a48ee-0ffd-4aed-92e1-ae55ea8ae6b6&projectId=ba640c14-69c5-453e-80b2-29051492c0e0","7CF9BDBEF5A8487E9059DF7AEDC12B6A-2025-05-14-21-13-02","[{""page_index"":0,""viewing_time"":4127}]","4127","","","","",""
"true","","","","","fullscreen","3","72429","0.0-3.0","7CF9BDBEF5A8487E9059DF7AEDC12B6A","7CF9BDBEF5A8487E9059DF7AEDC12B6A","409a48ee-0ffd-4aed-92e1-ae55ea8ae6b6","ba640c14-69c5-453e-80b2-29051492c0e0","{""num_scrambled_semantic"":""8"",""num_scrambled_causal"":""4"",""num_scrambled_schematic"":""4"",""participantId"":""7CF9BDBEF5A8487E9059DF7AEDC12B6A"",""assignmentId"":""409a48ee-0ffd-4aed-92e1-ae55ea8ae6b6"",""projectId"":""ba640c14-69c5-453e-80b2-29051492c0e0""}","https://test12345.live/?num_scrambled_semantic=8&num_scrambled_causal=4&num_scrambled_schematic=4&participantId=7CF9BDBEF5A8487E9059DF7AEDC12B6A&assignmentId=409a48ee-0ffd-4aed-92e1-ae55ea8ae6b6&projectId=ba640c14-69c5-453e-80b2-29051492c0e0","7CF9BDBEF5A8487E9059DF7AEDC12B6A-2025-05-14-21-13-02","","1657","","","","",""
"","","","","","initialize-microphone","4","77912","0.0-4.0-0.0","7CF9BDBEF5A8487E9059DF7AEDC12B6A","7CF9BDBEF5A8487E9059DF7AEDC12B6A","409a48ee-0ffd-4aed-92e1-ae55ea8ae6b6","ba640c14-69c5-453e-80b2-29051492c0e0","{""num_scrambled_semantic"":""8"",""num_scrambled_causal"":""4"",""num_scrambled_schematic"":""4"",""participantId"":""7CF9BDBEF5A8487E9059DF7AEDC12B6A"",""assignmentId"":""409a48ee-0ffd-4aed-92e1-ae55ea8ae6b6"",""projectId"":""ba640c14-69c5-453e-80b2-29051492c0e0""}","https://test12345.live/?num_scrambled_semantic=8&num_scrambled_causal=4&num_scrambled_schematic=4&participantId=7CF9BDBEF5A8487E9059DF7AEDC12B6A&assignmentId=409a48ee-0ffd-4aed-92e1-ae55ea8ae6b6&projectId=ba640c14-69c5-453e-80b2-29051492c0e0","7CF9BDBEF5A8487E9059DF7AEDC12B6A-2025-05-14-21-13-02","","","a65d698b76d24fe99b4114dcac6a959a3e90696b1f1b726dc21b07c996132df5","","","",""
"","","","","","html-audio-response","5","86532","0.0-4.0-1.0","7CF9BDBEF5A8487E9059DF7AEDC12B6A","7CF9BDBEF5A8487E9059DF7AEDC12B6A","409a48ee-0ffd-4aed-92e1-ae55ea8ae6b6","ba640c14-69c5-453e-80b2-29051492c0e0","{""num_scrambled_semantic"":""8"",""num_scrambled_causal"":""4"",""num_scrambled_schematic"":""4"",""participantId"":""7CF9BDBEF5A8487E9059DF7AEDC12B6A"",""assignmentId"":""409a48ee-0ffd-4aed-92e1-ae55ea8ae6b6"",""projectId"":""ba640c14-69c5-453e-80b2-29051492c0e0""}","https://test12345.live/?num_scrambled_semantic=8&num_scrambled_causal=4&num_scrambled_schematic=4&participantId=7CF9BDBEF5A8487E9059DF7AEDC12B6A&assignmentId=409a48ee-0ffd-4aed-92e1-ae55ea8ae6b6&projectId=ba640c14-69c5-453e-80b2-29051492c0e0","7CF9BDBEF5A8487E9059DF7AEDC12B6A-2025-05-14-21-13-02","","3611","","<span style=""color: red; font-size: 24px""> NOW RECORDING</span>
        <p>Please test Microphone</p>","","5",""
"","","","","","html-button-response","6","88096","0.0-4.0-2.0","7CF9BDBEF5A8487E9059DF7AEDC12B6A","7CF9BDBEF5A8487E9059DF7AEDC12B6A","409a48ee-0ffd-4aed-92e1-ae55ea8ae6b6","ba640c14-69c5-453e-80b2-29051492c0e0","{""num_scrambled_semantic"":""8"",""num_scrambled_causal"":""4"",""num_scrambled_schematic"":""4"",""participantId"":""7CF9BDBEF5A8487E9059DF7AEDC12B6A"",""assignmentId"":""409a48ee-0ffd-4aed-92e1-ae55ea8ae6b6"",""projectId"":""ba640c14-69c5-453e-80b2-29051492c0e0""}","https://test12345.live/?num_scrambled_semantic=8&num_scrambled_causal=4&num_scrambled_schematic=4&participantId=7CF9BDBEF5A8487E9059DF7AEDC12B6A&assignmentId=409a48ee-0ffd-4aed-92e1-ae55ea8ae6b6&projectId=ba640c14-69c5-453e-80b2-29051492c0e0","7CF9BDBEF5A8487E9059DF7AEDC12B6A-2025-05-14-21-13-02","","1563","","<p style=""font-size:48px; color:red;"">Is Microphone OK?</p>","1","",""
"","","","","","instructions","7","98357","0.0-5.0","7CF9BDBEF5A8487E9059DF7AEDC12B6A","7CF9BDBEF5A8487E9059DF7AEDC12B6A","409a48ee-0ffd-4aed-92e1-ae55ea8ae6b6","ba640c14-69c5-453e-80b2-29051492c0e0","{""num_scrambled_semantic"":""8"",""num_scrambled_causal"":""4"",""num_scrambled_schematic"":""4"",""participantId"":""7CF9BDBEF5A8487E9059DF7AEDC12B6A"",""assignmentId"":""409a48ee-0ffd-4aed-92e1-ae55ea8ae6b6"",""projectId"":""ba640c14-69c5-453e-80b2-29051492c0e0""}","https://test12345.live/?num_scrambled_semantic=8&num_scrambled_causal=4&num_scrambled_schematic=4&participantId=7CF9BDBEF5A8487E9059DF7AEDC12B6A&assignmentId=409a48ee-0ffd-4aed-92e1-ae55ea8ae6b6&projectId=ba640c14-69c5-453e-80b2-29051492c0e0","7CF9BDBEF5A8487E9059DF7AEDC12B6A-2025-05-14-21-13-02","[{""page_index"":0,""viewing_time"":5226},{""page_index"":1,""viewing_time"":5034}]","10261","","","","",""
"","","","","","image-button-response","8","104376","0.0-6.0-0.0","7CF9BDBEF5A8487E9059DF7AEDC12B6A","7CF9BDBEF5A8487E9059DF7AEDC12B6A","409a48ee-0ffd-4aed-92e1-ae55ea8ae6b6","ba640c14-69c5-453e-80b2-29051492c0e0","{""num_scrambled_semantic"":""8"",""num_scrambled_causal"":""4"",""num_scrambled_schematic"":""4"",""participantId"":""7CF9BDBEF5A8487E9059DF7AEDC12B6A"",""assignmentId"":""409a48ee-0ffd-4aed-92e1-ae55ea8ae6b6"",""projectId"":""ba640c14-69c5-453e-80b2-29051492c0e0""}","https://test12345.live/?num_scrambled_semantic=8&num_scrambled_causal=4&num_scrambled_schematic=4&participantId=7CF9BDBEF5A8487E9059DF7AEDC12B6A&assignmentId=409a48ee-0ffd-4aed-92e1-ae55ea8ae6b6&projectId=ba640c14-69c5-453e-80b2-29051492c0e0","7CF9BDBEF5A8487E9059DF7AEDC12B6A-2025-05-14-21-13-02","","null","","images/instructions/movie_0.png","null","",""
"","","","","","image-button-response","9","108888","0.0-6.0-1.0-0.0","7CF9BDBEF5A8487E9059DF7AEDC12B6A","7CF9BDBEF5A8487E9059DF7AEDC12B6A","409a48ee-0ffd-4aed-92e1-ae55ea8ae6b6","ba640c14-69c5-453e-80b2-29051492c0e0","{""num_scrambled_semantic"":""8"",""num_scrambled_causal"":""4"",""num_scrambled_schematic"":""4"",""participantId"":""7CF9BDBEF5A8487E9059DF7AEDC12B6A"",""assignmentId"":""409a48ee-0ffd-4aed-92e1-ae55ea8ae6b6"",""projectId"":""ba640c14-69c5-453e-80b2-29051492c0e0""}","https://test12345.live/?num_scrambled_semantic=8&num_scrambled_causal=4&num_scrambled_schematic=4&participantId=7CF9BDBEF5A8487E9059DF7AEDC12B6A&assignmentId=409a48ee-0ffd-4aed-92e1-ae55ea8ae6b6&projectId=ba640c14-69c5-453e-80b2-29051492c0e0","7CF9BDBEF5A8487E9059DF7AEDC12B6A-2025-05-14-21-13-02","","null","","images/instructions/movie_1.png","null","",""
"","","","","","image-button-response","10","111910","0.0-6.0-1.0-1.0","7CF9BDBEF5A8487E9059DF7AEDC12B6A","7CF9BDBEF5A8487E9059DF7AEDC12B6A","409a48ee-0ffd-4aed-92e1-ae55ea8ae6b6","ba640c14-69c5-453e-80b2-29051492c0e0","{""num_scrambled_semantic"":""8"",""num_scrambled_causal"":""4"",""num_scrambled_schematic"":""4"",""participantId"":""7CF9BDBEF5A8487E9059DF7AEDC12B6A"",""assignmentId"":""409a48ee-0ffd-4aed-92e1-ae55ea8ae6b6"",""projectId"":""ba640c14-69c5-453e-80b2-29051492c0e0""}","https://test12345.live/?num_scrambled_semantic=8&num_scrambled_causal=4&num_scrambled_schematic=4&participantId=7CF9BDBEF5A8487E9059DF7AEDC12B6A&assignmentId=409a48ee-0ffd-4aed-92e1-ae55ea8ae6b6&projectId=ba640c14-69c5-453e-80b2-29051492c0e0","7CF9BDBEF5A8487E9059DF7AEDC12B6A-2025-05-14-21-13-02","","3021","","images/instructions/movie_1.png","0","",""
"","","","","","image-button-response","11","113723","0.0-6.0-1.0-2.0","7CF9BDBEF5A8487E9059DF7AEDC12B6A","7CF9BDBEF5A8487E9059DF7AEDC12B6A","409a48ee-0ffd-4aed-92e1-ae55ea8ae6b6","ba640c14-69c5-453e-80b2-29051492c0e0","{""num_scrambled_semantic"":""8"",""num_scrambled_causal"":""4"",""num_scrambled_schematic"":""4"",""participantId"":""7CF9BDBEF5A8487E9059DF7AEDC12B6A"",""assignmentId"":""409a48ee-0ffd-4aed-92e1-ae55ea8ae6b6"",""projectId"":""ba640c14-69c5-453e-80b2-29051492c0e0""}","https://test12345.live/?num_scrambled_semantic=8&num_scrambled_causal=4&num_scrambled_schematic=4&participantId=7CF9BDBEF5A8487E9059DF7AEDC12B6A&assignmentId=409a48ee-0ffd-4aed-92e1-ae55ea8ae6b6&projectId=ba640c14-69c5-453e-80b2-29051492c0e0","7CF9BDBEF5A8487E9059DF7AEDC12B6A-2025-05-14-21-13-02","","null","","[]","null","",""
"","","","","","image-button-response","12","118236","0.0-6.0-1.0-0.1","7CF9BDBEF5A8487E9059DF7AEDC12B6A","7CF9BDBEF5A8487E9059DF7AEDC12B6A","409a48ee-0ffd-4aed-92e1-ae55ea8ae6b6","ba640c14-69c5-453e-80b2-29051492c0e0","{""num_scrambled_semantic"":""8"",""num_scrambled_causal"":""4"",""num_scrambled_schematic"":""4"",""participantId"":""7CF9BDBEF5A8487E9059DF7AEDC12B6A"",""assignmentId"":""409a48ee-0ffd-4aed-92e1-ae55ea8ae6b6"",""projectId"":""ba640c14-69c5-453e-80b2-29051492c0e0""}","https://test12345.live/?num_scrambled_semantic=8&num_scrambled_causal=4&num_scrambled_schematic=4&participantId=7CF9BDBEF5A8487E9059DF7AEDC12B6A&assignmentId=409a48ee-0ffd-4aed-92e1-ae55ea8ae6b6&projectId=ba640c14-69c5-453e-80b2-29051492c0e0","7CF9BDBEF5A8487E9059DF7AEDC12B6A-2025-05-14-21-13-02","","null","","images/instructions/movie_2.png","null","",""
"","","","","","image-button-response","13","119315","0.0-6.0-1.0-1.1","7CF9BDBEF5A8487E9059DF7AEDC12B6A","7CF9BDBEF5A8487E9059DF7AEDC12B6A","409a48ee-0ffd-4aed-92e1-ae55ea8ae6b6","ba640c14-69c5-453e-80b2-29051492c0e0","{""num_scrambled_semantic"":""8"",""num_scrambled_causal"":""4"",""num_scrambled_schematic"":""4"",""participantId"":""7CF9BDBEF5A8487E9059DF7AEDC12B6A"",""assignmentId"":""409a48ee-0ffd-4aed-92e1-ae55ea8ae6b6"",""projectId"":""ba640c14-69c5-453e-80b2-29051492c0e0""}","https://test12345.live/?num_scrambled_semantic=8&num_scrambled_causal=4&num_scrambled_schematic=4&participantId=7CF9BDBEF5A8487E9059DF7AEDC12B6A&assignmentId=409a48ee-0ffd-4aed-92e1-ae55ea8ae6b6&projectId=ba640c14-69c5-453e-80b2-29051492c0e0","7CF9BDBEF5A8487E9059DF7AEDC12B6A-2025-05-14-21-13-02","","1078","","images/instructions/movie_2.png","0","",""
"","","","","","image-button-response","14","121124","0.0-6.0-1.0-2.1","7CF9BDBEF5A8487E9059DF7AEDC12B6A","7CF9BDBEF5A8487E9059DF7AEDC12B6A","409a48ee-0ffd-4aed-92e1-ae55ea8ae6b6","ba640c14-69c5-453e-80b2-29051492c0e0","{""num_scrambled_semantic"":""8"",""num_scrambled_causal"":""4"",""num_scrambled_schematic"":""4"",""participantId"":""7CF9BDBEF5A8487E9059DF7AEDC12B6A"",""assignmentId"":""409a48ee-0ffd-4aed-92e1-ae55ea8ae6b6"",""projectId"":""ba640c14-69c5-453e-80b2-29051492c0e0""}","https://test12345.live/?num_scrambled_semantic=8&num_scrambled_causal=4&num_scrambled_schematic=4&participantId=7CF9BDBEF5A8487E9059DF7AEDC12B6A&assignmentId=409a48ee-0ffd-4aed-92e1-ae55ea8ae6b6&projectId=ba640c14-69c5-453e-80b2-29051492c0e0","7CF9BDBEF5A8487E9059DF7AEDC12B6A-2025-05-14-21-13-02","","null","","[]","null","",""
"","","","","","image-button-response","15","125630","0.0-6.0-1.0-0.2","7CF9BDBEF5A8487E9059DF7AEDC12B6A","7CF9BDBEF5A8487E9059DF7AEDC12B6A","409a48ee-0ffd-4aed-92e1-ae55ea8ae6b6","ba640c14-69c5-453e-80b2-29051492c0e0","{""num_scrambled_semantic"":""8"",""num_scrambled_causal"":""4"",""num_scrambled_schematic"":""4"",""participantId"":""7CF9BDBEF5A8487E9059DF7AEDC12B6A"",""assignmentId"":""409a48ee-0ffd-4aed-92e1-ae55ea8ae6b6"",""projectId"":""ba640c14-69c5-453e-80b2-29051492c0e0""}","https://test12345.live/?num_scrambled_semantic=8&num_scrambled_causal=4&num_scrambled_schematic=4&participantId=7CF9BDBEF5A8487E9059DF7AEDC12B6A&assignmentId=409a48ee-0ffd-4aed-92e1-ae55ea8ae6b6&projectId=ba640c14-69c5-453e-80b2-29051492c0e0","7CF9BDBEF5A8487E9059DF7AEDC12B6A-2025-05-14-21-13-02","","null","","images/instructions/movie_3.png","null","",""
"","","","","","image-button-response","16","126764","0.0-6.0-1.0-1.2","7CF9BDBEF5A8487E9059DF7AEDC12B6A","7CF9BDBEF5A8487E9059DF7AEDC12B6A","409a48ee-0ffd-4aed-92e1-ae55ea8ae6b6","ba640c14-69c5-453e-80b2-29051492c0e0","{""num_scrambled_semantic"":""8"",""num_scrambled_causal"":""4"",""num_scrambled_schematic"":""4"",""participantId"":""7CF9BDBEF5A8487E9059DF7AEDC12B6A"",""assignmentId"":""409a48ee-0ffd-4aed-92e1-ae55ea8ae6b6"",""projectId"":""ba640c14-69c5-453e-80b2-29051492c0e0""}","https://test12345.live/?num_scrambled_semantic=8&num_scrambled_causal=4&num_scrambled_schematic=4&participantId=7CF9BDBEF5A8487E9059DF7AEDC12B6A&assignmentId=409a48ee-0ffd-4aed-92e1-ae55ea8ae6b6&projectId=ba640c14-69c5-453e-80b2-29051492c0e0","7CF9BDBEF5A8487E9059DF7AEDC12B6A-2025-05-14-21-13-02","","1133","","images/instructions/movie_3.png","0","",""
"","","","","","image-button-response","17","128572","0.0-6.0-1.0-2.2","7CF9BDBEF5A8487E9059DF7AEDC12B6A","7CF9BDBEF5A8487E9059DF7AEDC12B6A","409a48ee-0ffd-4aed-92e1-ae55ea8ae6b6","ba640c14-69c5-453e-80b2-29051492c0e0","{""num_scrambled_semantic"":""8"",""num_scrambled_causal"":""4"",""num_scrambled_schematic"":""4"",""participantId"":""7CF9BDBEF5A8487E9059DF7AEDC12B6A"",""assignmentId"":""409a48ee-0ffd-4aed-92e1-ae55ea8ae6b6"",""projectId"":""ba640c14-69c5-453e-80b2-29051492c0e0""}","https://test12345.live/?num_scrambled_semantic=8&num_scrambled_causal=4&num_scrambled_schematic=4&participantId=7CF9BDBEF5A8487E9059DF7AEDC12B6A&assignmentId=409a48ee-0ffd-4aed-92e1-ae55ea8ae6b6&projectId=ba640c14-69c5-453e-80b2-29051492c0e0","7CF9BDBEF5A8487E9059DF7AEDC12B6A-2025-05-14-21-13-02","","null","","[]","null","",""
"","","","","","image-button-response","18","133089","0.0-6.0-1.0-0.3","7CF9BDBEF5A8487E9059DF7AEDC12B6A","7CF9BDBEF5A8487E9059DF7AEDC12B6A","409a48ee-0ffd-4aed-92e1-ae55ea8ae6b6","ba640c14-69c5-453e-80b2-29051492c0e0","{""num_scrambled_semantic"":""8"",""num_scrambled_causal"":""4"",""num_scrambled_schematic"":""4"",""participantId"":""7CF9BDBEF5A8487E9059DF7AEDC12B6A"",""assignmentId"":""409a48ee-0ffd-4aed-92e1-ae55ea8ae6b6"",""projectId"":""ba640c14-69c5-453e-80b2-29051492c0e0""}","https://test12345.live/?num_scrambled_semantic=8&num_scrambled_causal=4&num_scrambled_schematic=4&participantId=7CF9BDBEF5A8487E9059DF7AEDC12B6A&assignmentId=409a48ee-0ffd-4aed-92e1-ae55ea8ae6b6&projectId=ba640c14-69c5-453e-80b2-29051492c0e0","7CF9BDBEF5A8487E9059DF7AEDC12B6A-2025-05-14-21-13-02","","null","","images/instructions/movie_4.png","null","",""
"","","","","","image-button-response","19","133724","0.0-6.0-1.0-1.3","7CF9BDBEF5A8487E9059DF7AEDC12B6A","7CF9BDBEF5A8487E9059DF7AEDC12B6A","409a48ee-0ffd-4aed-92e1-ae55ea8ae6b6","ba640c14-69c5-453e-80b2-29051492c0e0","{""num_scrambled_semantic"":""8"",""num_scrambled_causal"":""4"",""num_scrambled_schematic"":""4"",""participantId"":""7CF9BDBEF5A8487E9059DF7AEDC12B6A"",""assignmentId"":""409a48ee-0ffd-4aed-92e1-ae55ea8ae6b6"",""projectId"":""ba640c14-69c5-453e-80b2-29051492c0e0""}","https://test12345.live/?num_scrambled_semantic=8&num_scrambled_causal=4&num_scrambled_schematic=4&participantId=7CF9BDBEF5A8487E9059DF7AEDC12B6A&assignmentId=409a48ee-0ffd-4aed-92e1-ae55ea8ae6b6&projectId=ba640c14-69c5-453e-80b2-29051492c0e0","7CF9BDBEF5A8487E9059DF7AEDC12B6A-2025-05-14-21-13-02","","634","","images/instructions/movie_4.png","0","",""
"","","","","","image-button-response","20","135539","0.0-6.0-1.0-2.3","7CF9BDBEF5A8487E9059DF7AEDC12B6A","7CF9BDBEF5A8487E9059DF7AEDC12B6A","409a48ee-0ffd-4aed-92e1-ae55ea8ae6b6","ba640c14-69c5-453e-80b2-29051492c0e0","{""num_scrambled_semantic"":""8"",""num_scrambled_causal"":""4"",""num_scrambled_schematic"":""4"",""participantId"":""7CF9BDBEF5A8487E9059DF7AEDC12B6A"",""assignmentId"":""409a48ee-0ffd-4aed-92e1-ae55ea8ae6b6"",""projectId"":""ba640c14-69c5-453e-80b2-29051492c0e0""}","https://test12345.live/?num_scrambled_semantic=8&num_scrambled_causal=4&num_scrambled_schematic=4&participantId=7CF9BDBEF5A8487E9059DF7AEDC12B6A&assignmentId=409a48ee-0ffd-4aed-92e1-ae55ea8ae6b6&projectId=ba640c14-69c5-453e-80b2-29051492c0e0","7CF9BDBEF5A8487E9059DF7AEDC12B6A-2025-05-14-21-13-02","","null","","[]","null","",""
"","","","","","instructions","21","145394","0.0-7.0","7CF9BDBEF5A8487E9059DF7AEDC12B6A","7CF9BDBEF5A8487E9059DF7AEDC12B6A","409a48ee-0ffd-4aed-92e1-ae55ea8ae6b6","ba640c14-69c5-453e-80b2-29051492c0e0","{""num_scrambled_semantic"":""8"",""num_scrambled_causal"":""4"",""num_scrambled_schematic"":""4"",""participantId"":""7CF9BDBEF5A8487E9059DF7AEDC12B6A"",""assignmentId"":""409a48ee-0ffd-4aed-92e1-ae55ea8ae6b6"",""projectId"":""ba640c14-69c5-453e-80b2-29051492c0e0""}","https://test12345.live/?num_scrambled_semantic=8&num_scrambled_causal=4&num_scrambled_schematic=4&participantId=7CF9BDBEF5A8487E9059DF7AEDC12B6A&assignmentId=409a48ee-0ffd-4aed-92e1-ae55ea8ae6b6&projectId=ba640c14-69c5-453e-80b2-29051492c0e0","7CF9BDBEF5A8487E9059DF7AEDC12B6A-2025-05-14-21-13-02","[{""page_index"":0,""viewing_time"":8838},{""page_index"":1,""viewing_time"":1017}]","9855","","","","",""
"","","","","","html-audio-response","22","168580","0.0-8.0","7CF9BDBEF5A8487E9059DF7AEDC12B6A","7CF9BDBEF5A8487E9059DF7AEDC12B6A","409a48ee-0ffd-4aed-92e1-ae55ea8ae6b6","ba640c14-69c5-453e-80b2-29051492c0e0","{""num_scrambled_semantic"":""8"",""num_scrambled_causal"":""4"",""num_scrambled_schematic"":""4"",""participantId"":""7CF9BDBEF5A8487E9059DF7AEDC12B6A"",""assignmentId"":""409a48ee-0ffd-4aed-92e1-ae55ea8ae6b6"",""projectId"":""ba640c14-69c5-453e-80b2-29051492c0e0""}","https://test12345.live/?num_scrambled_semantic=8&num_scrambled_causal=4&num_scrambled_schematic=4&participantId=7CF9BDBEF5A8487E9059DF7AEDC12B6A&assignmentId=409a48ee-0ffd-4aed-92e1-ae55ea8ae6b6&projectId=ba640c14-69c5-453e-80b2-29051492c0e0","7CF9BDBEF5A8487E9059DF7AEDC12B6A-2025-05-14-21-13-02","","12848","","[""<span style=\""color: red; font-size: 24px\""> NOW RECORDING</span><p>Please say out loud all the images you saw, as many as you can remember. The images can be said in any order.</p>""]","","1",""
"","","","","","instructions","23","170685","0.0-9.0","7CF9BDBEF5A8487E9059DF7AEDC12B6A","7CF9BDBEF5A8487E9059DF7AEDC12B6A","409a48ee-0ffd-4aed-92e1-ae55ea8ae6b6","ba640c14-69c5-453e-80b2-29051492c0e0","{""num_scrambled_semantic"":""8"",""num_scrambled_causal"":""4"",""num_scrambled_schematic"":""4"",""participantId"":""7CF9BDBEF5A8487E9059DF7AEDC12B6A"",""assignmentId"":""409a48ee-0ffd-4aed-92e1-ae55ea8ae6b6"",""projectId"":""ba640c14-69c5-453e-80b2-29051492c0e0""}","https://test12345.live/?num_scrambled_semantic=8&num_scrambled_causal=4&num_scrambled_schematic=4&participantId=7CF9BDBEF5A8487E9059DF7AEDC12B6A&assignmentId=409a48ee-0ffd-4aed-92e1-ae55ea8ae6b6&projectId=ba640c14-69c5-453e-80b2-29051492c0e0","7CF9BDBEF5A8487E9059DF7AEDC12B6A-2025-05-14-21-13-02","[{""page_index"":0,""viewing_time"":2102}]","2102","","","","",""
"","","","","","image-button-response","24","176693","0.0-10.0-0.0","7CF9BDBEF5A8487E9059DF7AEDC12B6A","7CF9BDBEF5A8487E9059DF7AEDC12B6A","409a48ee-0ffd-4aed-92e1-ae55ea8ae6b6","ba640c14-69c5-453e-80b2-29051492c0e0","{""num_scrambled_semantic"":""8"",""num_scrambled_causal"":""4"",""num_scrambled_schematic"":""4"",""participantId"":""7CF9BDBEF5A8487E9059DF7AEDC12B6A"",""assignmentId"":""409a48ee-0ffd-4aed-92e1-ae55ea8ae6b6"",""projectId"":""ba640c14-69c5-453e-80b2-29051492c0e0""}","https://test12345.live/?num_scrambled_semantic=8&num_scrambled_causal=4&num_scrambled_schematic=4&participantId=7CF9BDBEF5A8487E9059DF7AEDC12B6A&assignmentId=409a48ee-0ffd-4aed-92e1-ae55ea8ae6b6&projectId=ba640c14-69c5-453e-80b2-29051492c0e0","7CF9BDBEF5A8487E9059DF7AEDC12B6A-2025-05-14-21-13-02","","null","","images/schematic_sequence/interview_scheme/interview_scheme_0.png","null","",""
"","","","","","image-button-response","25","181205","0.0-10.0-1.0-0.0","7CF9BDBEF5A8487E9059DF7AEDC12B6A","7CF9BDBEF5A8487E9059DF7AEDC12B6A","409a48ee-0ffd-4aed-92e1-ae55ea8ae6b6","ba640c14-69c5-453e-80b2-29051492c0e0","{""num_scrambled_semantic"":""8"",""num_scrambled_causal"":""4"",""num_scrambled_schematic"":""4"",""participantId"":""7CF9BDBEF5A8487E9059DF7AEDC12B6A"",""assignmentId"":""409a48ee-0ffd-4aed-92e1-ae55ea8ae6b6"",""projectId"":""ba640c14-69c5-453e-80b2-29051492c0e0""}","https://test12345.live/?num_scrambled_semantic=8&num_scrambled_causal=4&num_scrambled_schematic=4&participantId=7CF9BDBEF5A8487E9059DF7AEDC12B6A&assignmentId=409a48ee-0ffd-4aed-92e1-ae55ea8ae6b6&projectId=ba640c14-69c5-453e-80b2-29051492c0e0","7CF9BDBEF5A8487E9059DF7AEDC12B6A-2025-05-14-21-13-02","","null","","images/schematic_sequence/interview_scheme/interview_scheme_4.png","null","",""
"","","","","","image-button-response","26","182665","0.0-10.0-1.0-1.0","7CF9BDBEF5A8487E9059DF7AEDC12B6A","7CF9BDBEF5A8487E9059DF7AEDC12B6A","409a48ee-0ffd-4aed-92e1-ae55ea8ae6b6","ba640c14-69c5-453e-80b2-29051492c0e0","{""num_scrambled_semantic"":""8"",""num_scrambled_causal"":""4"",""num_scrambled_schematic"":""4"",""participantId"":""7CF9BDBEF5A8487E9059DF7AEDC12B6A"",""assignmentId"":""409a48ee-0ffd-4aed-92e1-ae55ea8ae6b6"",""projectId"":""ba640c14-69c5-453e-80b2-29051492c0e0""}","https://test12345.live/?num_scrambled_semantic=8&num_scrambled_causal=4&num_scrambled_schematic=4&participantId=7CF9BDBEF5A8487E9059DF7AEDC12B6A&assignmentId=409a48ee-0ffd-4aed-92e1-ae55ea8ae6b6&projectId=ba640c14-69c5-453e-80b2-29051492c0e0","7CF9BDBEF5A8487E9059DF7AEDC12B6A-2025-05-14-21-13-02","","1459","","images/schematic_sequence/interview_scheme/interview_scheme_4.png","1","",""
"","","","","","image-button-response","27","184469","0.0-10.0-1.0-2.0","7CF9BDBEF5A8487E9059DF7AEDC12B6A","7CF9BDBEF5A8487E9059DF7AEDC12B6A","409a48ee-0ffd-4aed-92e1-ae55ea8ae6b6","ba640c14-69c5-453e-80b2-29051492c0e0","{""num_scrambled_semantic"":""8"",""num_scrambled_causal"":""4"",""num_scrambled_schematic"":""4"",""participantId"":""7CF9BDBEF5A8487E9059DF7AEDC12B6A"",""assignmentId"":""409a48ee-0ffd-4aed-92e1-ae55ea8ae6b6"",""projectId"":""ba640c14-69c5-453e-80b2-29051492c0e0""}","https://test12345.live/?num_scrambled_semantic=8&num_scrambled_causal=4&num_scrambled_schematic=4&participantId=7CF9BDBEF5A8487E9059DF7AEDC12B6A&assignmentId=409a48ee-0ffd-4aed-92e1-ae55ea8ae6b6&projectId=ba640c14-69c5-453e-80b2-29051492c0e0","7CF9BDBEF5A8487E9059DF7AEDC12B6A-2025-05-14-21-13-02","","null","","[]","null","",""
"","","","","","image-button-response","28","188971","0.0-10.0-1.0-0.1","7CF9BDBEF5A8487E9059DF7AEDC12B6A","7CF9BDBEF5A8487E9059DF7AEDC12B6A","409a48ee-0ffd-4aed-92e1-ae55ea8ae6b6","ba640c14-69c5-453e-80b2-29051492c0e0","{""num_scrambled_semantic"":""8"",""num_scrambled_causal"":""4"",""num_scrambled_schematic"":""4"",""participantId"":""7CF9BDBEF5A8487E9059DF7AEDC12B6A"",""assignmentId"":""409a48ee-0ffd-4aed-92e1-ae55ea8ae6b6"",""projectId"":""ba640c14-69c5-453e-80b2-29051492c0e0""}","https://test12345.live/?num_scrambled_semantic=8&num_scrambled_causal=4&num_scrambled_schematic=4&participantId=7CF9BDBEF5A8487E9059DF7AEDC12B6A&assignmentId=409a48ee-0ffd-4aed-92e1-ae55ea8ae6b6&projectId=ba640c14-69c5-453e-80b2-29051492c0e0","7CF9BDBEF5A8487E9059DF7AEDC12B6A-2025-05-14-21-13-02","","null","","images/schematic_sequence/interview_scheme/interview_scheme_ten.png","null","",""
"","","","","","image-button-response","29","189818","0.0-10.0-1.0-1.1","7CF9BDBEF5A8487E9059DF7AEDC12B6A","7CF9BDBEF5A8487E9059DF7AEDC12B6A","409a48ee-0ffd-4aed-92e1-ae55ea8ae6b6","ba640c14-69c5-453e-80b2-29051492c0e0","{""num_scrambled_semantic"":""8"",""num_scrambled_causal"":""4"",""num_scrambled_schematic"":""4"",""participantId"":""7CF9BDBEF5A8487E9059DF7AEDC12B6A"",""assignmentId"":""409a48ee-0ffd-4aed-92e1-ae55ea8ae6b6"",""projectId"":""ba640c14-69c5-453e-80b2-29051492c0e0""}","https://test12345.live/?num_scrambled_semantic=8&num_scrambled_causal=4&num_scrambled_schematic=4&participantId=7CF9BDBEF5A8487E9059DF7AEDC12B6A&assignmentId=409a48ee-0ffd-4aed-92e1-ae55ea8ae6b6&projectId=ba640c14-69c5-453e-80b2-29051492c0e0","7CF9BDBEF5A8487E9059DF7AEDC12B6A-2025-05-14-21-13-02","","847","","images/schematic_sequence/interview_scheme/interview_scheme_ten.png","0","",""
"","","","","","image-button-response","30","191622","0.0-10.0-1.0-2.1","7CF9BDBEF5A8487E9059DF7AEDC12B6A","7CF9BDBEF5A8487E9059DF7AEDC12B6A","409a48ee-0ffd-4aed-92e1-ae55ea8ae6b6","ba640c14-69c5-453e-80b2-29051492c0e0","{""num_scrambled_semantic"":""8"",""num_scrambled_causal"":""4"",""num_scrambled_schematic"":""4"",""participantId"":""7CF9BDBEF5A8487E9059DF7AEDC12B6A"",""assignmentId"":""409a48ee-0ffd-4aed-92e1-ae55ea8ae6b6"",""projectId"":""ba640c14-69c5-453e-80b2-29051492c0e0""}","https://test12345.live/?num_scrambled_semantic=8&num_scrambled_causal=4&num_scrambled_schematic=4&participantId=7CF9BDBEF5A8487E9059DF7AEDC12B6A&assignmentId=409a48ee-0ffd-4aed-92e1-ae55ea8ae6b6&projectId=ba640c14-69c5-453e-80b2-29051492c0e0","7CF9BDBEF5A8487E9059DF7AEDC12B6A-2025-05-14-21-13-02","","null","","[]","null","",""
"","","","","","image-button-response","31","196138","0.0-10.0-1.0-0.2","7CF9BDBEF5A8487E9059DF7AEDC12B6A","7CF9BDBEF5A8487E9059DF7AEDC12B6A","409a48ee-0ffd-4aed-92e1-ae55ea8ae6b6","ba640c14-69c5-453e-80b2-29051492c0e0","{""num_scrambled_semantic"":""8"",""num_scrambled_causal"":""4"",""num_scrambled_schematic"":""4"",""participantId"":""7CF9BDBEF5A8487E9059DF7AEDC12B6A"",""assignmentId"":""409a48ee-0ffd-4aed-92e1-ae55ea8ae6b6"",""projectId"":""ba640c14-69c5-453e-80b2-29051492c0e0""}","https://test12345.live/?num_scrambled_semantic=8&num_scrambled_causal=4&num_scrambled_schematic=4&participantId=7CF9BDBEF5A8487E9059DF7AEDC12B6A&assignmentId=409a48ee-0ffd-4aed-92e1-ae55ea8ae6b6&projectId=ba640c14-69c5-453e-80b2-29051492c0e0","7CF9BDBEF5A8487E9059DF7AEDC12B6A-2025-05-14-21-13-02","","null","","images/schematic_sequence/interview_scheme/interview_scheme_8.png","null","",""
"","","","","","image-button-response","32","197680","0.0-10.0-1.0-1.2","7CF9BDBEF5A8487E9059DF7AEDC12B6A","7CF9BDBEF5A8487E9059DF7AEDC12B6A","409a48ee-0ffd-4aed-92e1-ae55ea8ae6b6","ba640c14-69c5-453e-80b2-29051492c0e0","{""num_scrambled_semantic"":""8"",""num_scrambled_causal"":""4"",""num_scrambled_schematic"":""4"",""participantId"":""7CF9BDBEF5A8487E9059DF7AEDC12B6A"",""assignmentId"":""409a48ee-0ffd-4aed-92e1-ae55ea8ae6b6"",""projectId"":""ba640c14-69c5-453e-80b2-29051492c0e0""}","https://test12345.live/?num_scrambled_semantic=8&num_scrambled_causal=4&num_scrambled_schematic=4&participantId=7CF9BDBEF5A8487E9059DF7AEDC12B6A&assignmentId=409a48ee-0ffd-4aed-92e1-ae55ea8ae6b6&projectId=ba640c14-69c5-453e-80b2-29051492c0e0","7CF9BDBEF5A8487E9059DF7AEDC12B6A-2025-05-14-21-13-02","","1542","","images/schematic_sequence/interview_scheme/interview_scheme_8.png","0","",""
"","","","","","image-button-response","33","199492","0.0-10.0-1.0-2.2","7CF9BDBEF5A8487E9059DF7AEDC12B6A","7CF9BDBEF5A8487E9059DF7AEDC12B6A","409a48ee-0ffd-4aed-92e1-ae55ea8ae6b6","ba640c14-69c5-453e-80b2-29051492c0e0","{""num_scrambled_semantic"":""8"",""num_scrambled_causal"":""4"",""num_scrambled_schematic"":""4"",""participantId"":""7CF9BDBEF5A8487E9059DF7AEDC12B6A"",""assignmentId"":""409a48ee-0ffd-4aed-92e1-ae55ea8ae6b6"",""projectId"":""ba640c14-69c5-453e-80b2-29051492c0e0""}","https://test12345.live/?num_scrambled_semantic=8&num_scrambled_causal=4&num_scrambled_schematic=4&participantId=7CF9BDBEF5A8487E9059DF7AEDC12B6A&assignmentId=409a48ee-0ffd-4aed-92e1-ae55ea8ae6b6&projectId=ba640c14-69c5-453e-80b2-29051492c0e0","7CF9BDBEF5A8487E9059DF7AEDC12B6A-2025-05-14-21-13-02","","null","","[]","null","",""
"","","","","","image-button-response","34","203999","0.0-10.0-1.0-0.3","7CF9BDBEF5A8487E9059DF7AEDC12B6A","7CF9BDBEF5A8487E9059DF7AEDC12B6A","409a48ee-0ffd-4aed-92e1-ae55ea8ae6b6","ba640c14-69c5-453e-80b2-29051492c0e0","{""num_scrambled_semantic"":""8"",""num_scrambled_causal"":""4"",""num_scrambled_schematic"":""4"",""participantId"":""7CF9BDBEF5A8487E9059DF7AEDC12B6A"",""assignmentId"":""409a48ee-0ffd-4aed-92e1-ae55ea8ae6b6"",""projectId"":""ba640c14-69c5-453e-80b2-29051492c0e0""}","https://test12345.live/?num_scrambled_semantic=8&num_scrambled_causal=4&num_scrambled_schematic=4&participantId=7CF9BDBEF5A8487E9059DF7AEDC12B6A&assignmentId=409a48ee-0ffd-4aed-92e1-ae55ea8ae6b6&projectId=ba640c14-69c5-453e-80b2-29051492c0e0","7CF9BDBEF5A8487E9059DF7AEDC12B6A-2025-05-14-21-13-02","","null","","images/schematic_sequence/interview_scheme/interview_scheme_9.png","null","",""
"","","","","","image-button-response","35","204755","0.0-10.0-1.0-1.3","7CF9BDBEF5A8487E9059DF7AEDC12B6A","7CF9BDBEF5A8487E9059DF7AEDC12B6A","409a48ee-0ffd-4aed-92e1-ae55ea8ae6b6","ba640c14-69c5-453e-80b2-29051492c0e0","{""num_scrambled_semantic"":""8"",""num_scrambled_causal"":""4"",""num_scrambled_schematic"":""4"",""participantId"":""7CF9BDBEF5A8487E9059DF7AEDC12B6A"",""assignmentId"":""409a48ee-0ffd-4aed-92e1-ae55ea8ae6b6"",""projectId"":""ba640c14-69c5-453e-80b2-29051492c0e0""}","https://test12345.live/?num_scrambled_semantic=8&num_scrambled_causal=4&num_scrambled_schematic=4&participantId=7CF9BDBEF5A8487E9059DF7AEDC12B6A&assignmentId=409a48ee-0ffd-4aed-92e1-ae55ea8ae6b6&projectId=ba640c14-69c5-453e-80b2-29051492c0e0","7CF9BDBEF5A8487E9059DF7AEDC12B6A-2025-05-14-21-13-02","","755","","images/schematic_sequence/interview_scheme/interview_scheme_9.png","0","",""
"","","","","","image-button-response","36","206557","0.0-10.0-1.0-2.3","7CF9BDBEF5A8487E9059DF7AEDC12B6A","7CF9BDBEF5A8487E9059DF7AEDC12B6A","409a48ee-0ffd-4aed-92e1-ae55ea8ae6b6","ba640c14-69c5-453e-80b2-29051492c0e0","{""num_scrambled_semantic"":""8"",""num_scrambled_causal"":""4"",""num_scrambled_schematic"":""4"",""participantId"":""7CF9BDBEF5A8487E9059DF7AEDC12B6A"",""assignmentId"":""409a48ee-0ffd-4aed-92e1-ae55ea8ae6b6"",""projectId"":""ba640c14-69c5-453e-80b2-29051492c0e0""}","https://test12345.live/?num_scrambled_semantic=8&num_scrambled_causal=4&num_scrambled_schematic=4&participantId=7CF9BDBEF5A8487E9059DF7AEDC12B6A&assignmentId=409a48ee-0ffd-4aed-92e1-ae55ea8ae6b6&projectId=ba640c14-69c5-453e-80b2-29051492c0e0","7CF9BDBEF5A8487E9059DF7AEDC12B6A-2025-05-14-21-13-02","","null","","[]","null","",""
"","","","","","image-button-response","37","211059","0.0-10.0-1.0-0.4","7CF9BDBEF5A8487E9059DF7AEDC12B6A","7CF9BDBEF5A8487E9059DF7AEDC12B6A","409a48ee-0ffd-4aed-92e1-ae55ea8ae6b6","ba640c14-69c5-453e-80b2-29051492c0e0","{""num_scrambled_semantic"":""8"",""num_scrambled_causal"":""4"",""num_scrambled_schematic"":""4"",""participantId"":""7CF9BDBEF5A8487E9059DF7AEDC12B6A"",""assignmentId"":""409a48ee-0ffd-4aed-92e1-ae55ea8ae6b6"",""projectId"":""ba640c14-69c5-453e-80b2-29051492c0e0""}","https://test12345.live/?num_scrambled_semantic=8&num_scrambled_causal=4&num_scrambled_schematic=4&participantId=7CF9BDBEF5A8487E9059DF7AEDC12B6A&assignmentId=409a48ee-0ffd-4aed-92e1-ae55ea8ae6b6&projectId=ba640c14-69c5-453e-80b2-29051492c0e0","7CF9BDBEF5A8487E9059DF7AEDC12B6A-2025-05-14-21-13-02","","null","","images/schematic_sequence/interview_scheme/interview_scheme_1.png","null","",""
"","","","","","image-button-response","38","211548","0.0-10.0-1.0-1.4","7CF9BDBEF5A8487E9059DF7AEDC12B6A","7CF9BDBEF5A8487E9059DF7AEDC12B6A","409a48ee-0ffd-4aed-92e1-ae55ea8ae6b6","ba640c14-69c5-453e-80b2-29051492c0e0","{""num_scrambled_semantic"":""8"",""num_scrambled_causal"":""4"",""num_scrambled_schematic"":""4"",""participantId"":""7CF9BDBEF5A8487E9059DF7AEDC12B6A"",""assignmentId"":""409a48ee-0ffd-4aed-92e1-ae55ea8ae6b6"",""projectId"":""ba640c14-69c5-453e-80b2-29051492c0e0""}","https://test12345.live/?num_scrambled_semantic=8&num_scrambled_causal=4&num_scrambled_schematic=4&participantId=7CF9BDBEF5A8487E9059DF7AEDC12B6A&assignmentId=409a48ee-0ffd-4aed-92e1-ae55ea8ae6b6&projectId=ba640c14-69c5-453e-80b2-29051492c0e0","7CF9BDBEF5A8487E9059DF7AEDC12B6A-2025-05-14-21-13-02","","488","","images/schematic_sequence/interview_scheme/interview_scheme_1.png","1","",""
"","","","","","image-button-response","39","213356","0.0-10.0-1.0-2.4","7CF9BDBEF5A8487E9059DF7AEDC12B6A","7CF9BDBEF5A8487E9059DF7AEDC12B6A","409a48ee-0ffd-4aed-92e1-ae55ea8ae6b6","ba640c14-69c5-453e-80b2-29051492c0e0","{""num_scrambled_semantic"":""8"",""num_scrambled_causal"":""4"",""num_scrambled_schematic"":""4"",""participantId"":""7CF9BDBEF5A8487E9059DF7AEDC12B6A"",""assignmentId"":""409a48ee-0ffd-4aed-92e1-ae55ea8ae6b6"",""projectId"":""ba640c14-69c5-453e-80b2-29051492c0e0""}","https://test12345.live/?num_scrambled_semantic=8&num_scrambled_causal=4&num_scrambled_schematic=4&participantId=7CF9BDBEF5A8487E9059DF7AEDC12B6A&assignmentId=409a48ee-0ffd-4aed-92e1-ae55ea8ae6b6&projectId=ba640c14-69c5-453e-80b2-29051492c0e0","7CF9BDBEF5A8487E9059DF7AEDC12B6A-2025-05-14-21-13-02","","null","","[]","null","",""
"","","","","","image-button-response","40","217872","0.0-10.0-1.0-0.5","7CF9BDBEF5A8487E9059DF7AEDC12B6A","7CF9BDBEF5A8487E9059DF7AEDC12B6A","409a48ee-0ffd-4aed-92e1-ae55ea8ae6b6","ba640c14-69c5-453e-80b2-29051492c0e0","{""num_scrambled_semantic"":""8"",""num_scrambled_causal"":""4"",""num_scrambled_schematic"":""4"",""participantId"":""7CF9BDBEF5A8487E9059DF7AEDC12B6A"",""assignmentId"":""409a48ee-0ffd-4aed-92e1-ae55ea8ae6b6"",""projectId"":""ba640c14-69c5-453e-80b2-29051492c0e0""}","https://test12345.live/?num_scrambled_semantic=8&num_scrambled_causal=4&num_scrambled_schematic=4&participantId=7CF9BDBEF5A8487E9059DF7AEDC12B6A&assignmentId=409a48ee-0ffd-4aed-92e1-ae55ea8ae6b6&projectId=ba640c14-69c5-453e-80b2-29051492c0e0","7CF9BDBEF5A8487E9059DF7AEDC12B6A-2025-05-14-21-13-02","","null","","images/schematic_sequence/interview_scheme/interview_scheme_7.png","null","",""
"","","","","","image-button-response","41","218764","0.0-10.0-1.0-1.5","7CF9BDBEF5A8487E9059DF7AEDC12B6A","7CF9BDBEF5A8487E9059DF7AEDC12B6A","409a48ee-0ffd-4aed-92e1-ae55ea8ae6b6","ba640c14-69c5-453e-80b2-29051492c0e0","{""num_scrambled_semantic"":""8"",""num_scrambled_causal"":""4"",""num_scrambled_schematic"":""4"",""participantId"":""7CF9BDBEF5A8487E9059DF7AEDC12B6A"",""assignmentId"":""409a48ee-0ffd-4aed-92e1-ae55ea8ae6b6"",""projectId"":""ba640c14-69c5-453e-80b2-29051492c0e0""}","https://test12345.live/?num_scrambled_semantic=8&num_scrambled_causal=4&num_scrambled_schematic=4&participantId=7CF9BDBEF5A8487E9059DF7AEDC12B6A&assignmentId=409a48ee-0ffd-4aed-92e1-ae55ea8ae6b6&projectId=ba640c14-69c5-453e-80b2-29051492c0e0","7CF9BDBEF5A8487E9059DF7AEDC12B6A-2025-05-14-21-13-02","","892","","images/schematic_sequence/interview_scheme/interview_scheme_7.png","0","",""
"","","","","","image-button-response","42","220581","0.0-10.0-1.0-2.5","7CF9BDBEF5A8487E9059DF7AEDC12B6A","7CF9BDBEF5A8487E9059DF7AEDC12B6A","409a48ee-0ffd-4aed-92e1-ae55ea8ae6b6","ba640c14-69c5-453e-80b2-29051492c0e0","{""num_scrambled_semantic"":""8"",""num_scrambled_causal"":""4"",""num_scrambled_schematic"":""4"",""participantId"":""7CF9BDBEF5A8487E9059DF7AEDC12B6A"",""assignmentId"":""409a48ee-0ffd-4aed-92e1-ae55ea8ae6b6"",""projectId"":""ba640c14-69c5-453e-80b2-29051492c0e0""}","https://test12345.live/?num_scrambled_semantic=8&num_scrambled_causal=4&num_scrambled_schematic=4&participantId=7CF9BDBEF5A8487E9059DF7AEDC12B6A&assignmentId=409a48ee-0ffd-4aed-92e1-ae55ea8ae6b6&projectId=ba640c14-69c5-453e-80b2-29051492c0e0","7CF9BDBEF5A8487E9059DF7AEDC12B6A-2025-05-14-21-13-02","","null","","[]","null","",""
"","","","","","image-button-response","43","225096","0.0-10.0-1.0-0.6","7CF9BDBEF5A8487E9059DF7AEDC12B6A","7CF9BDBEF5A8487E9059DF7AEDC12B6A","409a48ee-0ffd-4aed-92e1-ae55ea8ae6b6","ba640c14-69c5-453e-80b2-29051492c0e0","{""num_scrambled_semantic"":""8"",""num_scrambled_causal"":""4"",""num_scrambled_schematic"":""4"",""participantId"":""7CF9BDBEF5A8487E9059DF7AEDC12B6A"",""assignmentId"":""409a48ee-0ffd-4aed-92e1-ae55ea8ae6b6"",""projectId"":""ba640c14-69c5-453e-80b2-29051492c0e0""}","https://test12345.live/?num_scrambled_semantic=8&num_scrambled_causal=4&num_scrambled_schematic=4&participantId=7CF9BDBEF5A8487E9059DF7AEDC12B6A&assignmentId=409a48ee-0ffd-4aed-92e1-ae55ea8ae6b6&projectId=ba640c14-69c5-453e-80b2-29051492c0e0","7CF9BDBEF5A8487E9059DF7AEDC12B6A-2025-05-14-21-13-02","","null","","images/schematic_sequence/interview_scheme/interview_scheme_3.png","null","",""
"","","","","","image-button-response","44","225638","0.0-10.0-1.0-1.6","7CF9BDBEF5A8487E9059DF7AEDC12B6A","7CF9BDBEF5A8487E9059DF7AEDC12B6A","409a48ee-0ffd-4aed-92e1-ae55ea8ae6b6","ba640c14-69c5-453e-80b2-29051492c0e0","{""num_scrambled_semantic"":""8"",""num_scrambled_causal"":""4"",""num_scrambled_schematic"":""4"",""participantId"":""7CF9BDBEF5A8487E9059DF7AEDC12B6A"",""assignmentId"":""409a48ee-0ffd-4aed-92e1-ae55ea8ae6b6"",""projectId"":""ba640c14-69c5-453e-80b2-29051492c0e0""}","https://test12345.live/?num_scrambled_semantic=8&num_scrambled_causal=4&num_scrambled_schematic=4&participantId=7CF9BDBEF5A8487E9059DF7AEDC12B6A&assignmentId=409a48ee-0ffd-4aed-92e1-ae55ea8ae6b6&projectId=ba640c14-69c5-453e-80b2-29051492c0e0","7CF9BDBEF5A8487E9059DF7AEDC12B6A-2025-05-14-21-13-02","","540","","images/schematic_sequence/interview_scheme/interview_scheme_3.png","1","",""
"","","","","","image-button-response","45","227448","0.0-10.0-1.0-2.6","7CF9BDBEF5A8487E9059DF7AEDC12B6A","7CF9BDBEF5A8487E9059DF7AEDC12B6A","409a48ee-0ffd-4aed-92e1-ae55ea8ae6b6","ba640c14-69c5-453e-80b2-29051492c0e0","{""num_scrambled_semantic"":""8"",""num_scrambled_causal"":""4"",""num_scrambled_schematic"":""4"",""participantId"":""7CF9BDBEF5A8487E9059DF7AEDC12B6A"",""assignmentId"":""409a48ee-0ffd-4aed-92e1-ae55ea8ae6b6"",""projectId"":""ba640c14-69c5-453e-80b2-29051492c0e0""}","https://test12345.live/?num_scrambled_semantic=8&num_scrambled_causal=4&num_scrambled_schematic=4&participantId=7CF9BDBEF5A8487E9059DF7AEDC12B6A&assignmentId=409a48ee-0ffd-4aed-92e1-ae55ea8ae6b6&projectId=ba640c14-69c5-453e-80b2-29051492c0e0","7CF9BDBEF5A8487E9059DF7AEDC12B6A-2025-05-14-21-13-02","","null","","[]","null","",""
"","","","","","image-button-response","46","231950","0.0-10.0-1.0-0.7","7CF9BDBEF5A8487E9059DF7AEDC12B6A","7CF9BDBEF5A8487E9059DF7AEDC12B6A","409a48ee-0ffd-4aed-92e1-ae55ea8ae6b6","ba640c14-69c5-453e-80b2-29051492c0e0","{""num_scrambled_semantic"":""8"",""num_scrambled_causal"":""4"",""num_scrambled_schematic"":""4"",""participantId"":""7CF9BDBEF5A8487E9059DF7AEDC12B6A"",""assignmentId"":""409a48ee-0ffd-4aed-92e1-ae55ea8ae6b6"",""projectId"":""ba640c14-69c5-453e-80b2-29051492c0e0""}","https://test12345.live/?num_scrambled_semantic=8&num_scrambled_causal=4&num_scrambled_schematic=4&participantId=7CF9BDBEF5A8487E9059DF7AEDC12B6A&assignmentId=409a48ee-0ffd-4aed-92e1-ae55ea8ae6b6&projectId=ba640c14-69c5-453e-80b2-29051492c0e0","7CF9BDBEF5A8487E9059DF7AEDC12B6A-2025-05-14-21-13-02","","null","","images/schematic_sequence/interview_scheme/interview_scheme_2.png","null","",""
"","","","","","image-button-response","47","232804","0.0-10.0-1.0-1.7","7CF9BDBEF5A8487E9059DF7AEDC12B6A","7CF9BDBEF5A8487E9059DF7AEDC12B6A","409a48ee-0ffd-4aed-92e1-ae55ea8ae6b6","ba640c14-69c5-453e-80b2-29051492c0e0","{""num_scrambled_semantic"":""8"",""num_scrambled_causal"":""4"",""num_scrambled_schematic"":""4"",""participantId"":""7CF9BDBEF5A8487E9059DF7AEDC12B6A"",""assignmentId"":""409a48ee-0ffd-4aed-92e1-ae55ea8ae6b6"",""projectId"":""ba640c14-69c5-453e-80b2-29051492c0e0""}","https://test12345.live/?num_scrambled_semantic=8&num_scrambled_causal=4&num_scrambled_schematic=4&participantId=7CF9BDBEF5A8487E9059DF7AEDC12B6A&assignmentId=409a48ee-0ffd-4aed-92e1-ae55ea8ae6b6&projectId=ba640c14-69c5-453e-80b2-29051492c0e0","7CF9BDBEF5A8487E9059DF7AEDC12B6A-2025-05-14-21-13-02","","853","","images/schematic_sequence/interview_scheme/interview_scheme_2.png","0","",""
"","","","","","image-button-response","48","234619","0.0-10.0-1.0-2.7","7CF9BDBEF5A8487E9059DF7AEDC12B6A","7CF9BDBEF5A8487E9059DF7AEDC12B6A","409a48ee-0ffd-4aed-92e1-ae55ea8ae6b6","ba640c14-69c5-453e-80b2-29051492c0e0","{""num_scrambled_semantic"":""8"",""num_scrambled_causal"":""4"",""num_scrambled_schematic"":""4"",""participantId"":""7CF9BDBEF5A8487E9059DF7AEDC12B6A"",""assignmentId"":""409a48ee-0ffd-4aed-92e1-ae55ea8ae6b6"",""projectId"":""ba640c14-69c5-453e-80b2-29051492c0e0""}","https://test12345.live/?num_scrambled_semantic=8&num_scrambled_causal=4&num_scrambled_schematic=4&participantId=7CF9BDBEF5A8487E9059DF7AEDC12B6A&assignmentId=409a48ee-0ffd-4aed-92e1-ae55ea8ae6b6&projectId=ba640c14-69c5-453e-80b2-29051492c0e0","7CF9BDBEF5A8487E9059DF7AEDC12B6A-2025-05-14-21-13-02","","null","","[]","null","",""
"","","","","","image-button-response","49","239121","0.0-10.0-1.0-0.8","7CF9BDBEF5A8487E9059DF7AEDC12B6A","7CF9BDBEF5A8487E9059DF7AEDC12B6A","409a48ee-0ffd-4aed-92e1-ae55ea8ae6b6","ba640c14-69c5-453e-80b2-29051492c0e0","{""num_scrambled_semantic"":""8"",""num_scrambled_causal"":""4"",""num_scrambled_schematic"":""4"",""participantId"":""7CF9BDBEF5A8487E9059DF7AEDC12B6A"",""assignmentId"":""409a48ee-0ffd-4aed-92e1-ae55ea8ae6b6"",""projectId"":""ba640c14-69c5-453e-80b2-29051492c0e0""}","https://test12345.live/?num_scrambled_semantic=8&num_scrambled_causal=4&num_scrambled_schematic=4&participantId=7CF9BDBEF5A8487E9059DF7AEDC12B6A&assignmentId=409a48ee-0ffd-4aed-92e1-ae55ea8ae6b6&projectId=ba640c14-69c5-453e-80b2-29051492c0e0","7CF9BDBEF5A8487E9059DF7AEDC12B6A-2025-05-14-21-13-02","","null","","images/schematic_sequence/interview_scheme/interview_scheme_6.png","null","",""
"","","","","","image-button-response","50","239590","0.0-10.0-1.0-1.8","7CF9BDBEF5A8487E9059DF7AEDC12B6A","7CF9BDBEF5A8487E9059DF7AEDC12B6A","409a48ee-0ffd-4aed-92e1-ae55ea8ae6b6","ba640c14-69c5-453e-80b2-29051492c0e0","{""num_scrambled_semantic"":""8"",""num_scrambled_causal"":""4"",""num_scrambled_schematic"":""4"",""participantId"":""7CF9BDBEF5A8487E9059DF7AEDC12B6A"",""assignmentId"":""409a48ee-0ffd-4aed-92e1-ae55ea8ae6b6"",""projectId"":""ba640c14-69c5-453e-80b2-29051492c0e0""}","https://test12345.live/?num_scrambled_semantic=8&num_scrambled_causal=4&num_scrambled_schematic=4&participantId=7CF9BDBEF5A8487E9059DF7AEDC12B6A&assignmentId=409a48ee-0ffd-4aed-92e1-ae55ea8ae6b6&projectId=ba640c14-69c5-453e-80b2-29051492c0e0","7CF9BDBEF5A8487E9059DF7AEDC12B6A-2025-05-14-21-13-02","","468","","images/schematic_sequence/interview_scheme/interview_scheme_6.png","0","",""
"","","","","","image-button-response","51","241396","0.0-10.0-1.0-2.8","7CF9BDBEF5A8487E9059DF7AEDC12B6A","7CF9BDBEF5A8487E9059DF7AEDC12B6A","409a48ee-0ffd-4aed-92e1-ae55ea8ae6b6","ba640c14-69c5-453e-80b2-29051492c0e0","{""num_scrambled_semantic"":""8"",""num_scrambled_causal"":""4"",""num_scrambled_schematic"":""4"",""participantId"":""7CF9BDBEF5A8487E9059DF7AEDC12B6A"",""assignmentId"":""409a48ee-0ffd-4aed-92e1-ae55ea8ae6b6"",""projectId"":""ba640c14-69c5-453e-80b2-29051492c0e0""}","https://test12345.live/?num_scrambled_semantic=8&num_scrambled_causal=4&num_scrambled_schematic=4&participantId=7CF9BDBEF5A8487E9059DF7AEDC12B6A&assignmentId=409a48ee-0ffd-4aed-92e1-ae55ea8ae6b6&projectId=ba640c14-69c5-453e-80b2-29051492c0e0","7CF9BDBEF5A8487E9059DF7AEDC12B6A-2025-05-14-21-13-02","","null","","[]","null","",""
"","","","","","image-button-response","52","245905","0.0-10.0-1.0-0.9","7CF9BDBEF5A8487E9059DF7AEDC12B6A","7CF9BDBEF5A8487E9059DF7AEDC12B6A","409a48ee-0ffd-4aed-92e1-ae55ea8ae6b6","ba640c14-69c5-453e-80b2-29051492c0e0","{""num_scrambled_semantic"":""8"",""num_scrambled_causal"":""4"",""num_scrambled_schematic"":""4"",""participantId"":""7CF9BDBEF5A8487E9059DF7AEDC12B6A"",""assignmentId"":""409a48ee-0ffd-4aed-92e1-ae55ea8ae6b6"",""projectId"":""ba640c14-69c5-453e-80b2-29051492c0e0""}","https://test12345.live/?num_scrambled_semantic=8&num_scrambled_causal=4&num_scrambled_schematic=4&participantId=7CF9BDBEF5A8487E9059DF7AEDC12B6A&assignmentId=409a48ee-0ffd-4aed-92e1-ae55ea8ae6b6&projectId=ba640c14-69c5-453e-80b2-29051492c0e0","7CF9BDBEF5A8487E9059DF7AEDC12B6A-2025-05-14-21-13-02","","null","","images/schematic_sequence/interview_scheme/interview_scheme_5.png","null","",""
"","","","","","image-button-response","53","246593","0.0-10.0-1.0-1.9","7CF9BDBEF5A8487E9059DF7AEDC12B6A","7CF9BDBEF5A8487E9059DF7AEDC12B6A","409a48ee-0ffd-4aed-92e1-ae55ea8ae6b6","ba640c14-69c5-453e-80b2-29051492c0e0","{""num_scrambled_semantic"":""8"",""num_scrambled_causal"":""4"",""num_scrambled_schematic"":""4"",""participantId"":""7CF9BDBEF5A8487E9059DF7AEDC12B6A"",""assignmentId"":""409a48ee-0ffd-4aed-92e1-ae55ea8ae6b6"",""projectId"":""ba640c14-69c5-453e-80b2-29051492c0e0""}","https://test12345.live/?num_scrambled_semantic=8&num_scrambled_causal=4&num_scrambled_schematic=4&participantId=7CF9BDBEF5A8487E9059DF7AEDC12B6A&assignmentId=409a48ee-0ffd-4aed-92e1-ae55ea8ae6b6&projectId=ba640c14-69c5-453e-80b2-29051492c0e0","7CF9BDBEF5A8487E9059DF7AEDC12B6A-2025-05-14-21-13-02","","687","","images/schematic_sequence/interview_scheme/interview_scheme_5.png","0","",""
"","","","","","image-button-response","54","248401","0.0-10.0-1.0-2.9","7CF9BDBEF5A8487E9059DF7AEDC12B6A","7CF9BDBEF5A8487E9059DF7AEDC12B6A","409a48ee-0ffd-4aed-92e1-ae55ea8ae6b6","ba640c14-69c5-453e-80b2-29051492c0e0","{""num_scrambled_semantic"":""8"",""num_scrambled_causal"":""4"",""num_scrambled_schematic"":""4"",""participantId"":""7CF9BDBEF5A8487E9059DF7AEDC12B6A"",""assignmentId"":""409a48ee-0ffd-4aed-92e1-ae55ea8ae6b6"",""projectId"":""ba640c14-69c5-453e-80b2-29051492c0e0""}","https://test12345.live/?num_scrambled_semantic=8&num_scrambled_causal=4&num_scrambled_schematic=4&participantId=7CF9BDBEF5A8487E9059DF7AEDC12B6A&assignmentId=409a48ee-0ffd-4aed-92e1-ae55ea8ae6b6&projectId=ba640c14-69c5-453e-80b2-29051492c0e0","7CF9BDBEF5A8487E9059DF7AEDC12B6A-2025-05-14-21-13-02","","null","","[]","null","",""
"","","","","","html-audio-response","55","268691","0.0-11.0","7CF9BDBEF5A8487E9059DF7AEDC12B6A","7CF9BDBEF5A8487E9059DF7AEDC12B6A","409a48ee-0ffd-4aed-92e1-ae55ea8ae6b6","ba640c14-69c5-453e-80b2-29051492c0e0","{""num_scrambled_semantic"":""8"",""num_scrambled_causal"":""4"",""num_scrambled_schematic"":""4"",""participantId"":""7CF9BDBEF5A8487E9059DF7AEDC12B6A"",""assignmentId"":""409a48ee-0ffd-4aed-92e1-ae55ea8ae6b6"",""projectId"":""ba640c14-69c5-453e-80b2-29051492c0e0""}","https://test12345.live/?num_scrambled_semantic=8&num_scrambled_causal=4&num_scrambled_schematic=4&participantId=7CF9BDBEF5A8487E9059DF7AEDC12B6A&assignmentId=409a48ee-0ffd-4aed-92e1-ae55ea8ae6b6&projectId=ba640c14-69c5-453e-80b2-29051492c0e0","7CF9BDBEF5A8487E9059DF7AEDC12B6A-2025-05-14-21-13-02","","19050","","[""<span style=\""color: red; font-size: 24px\""> NOW RECORDING</span><p>Please say out loud all the images you saw, as many as you can remember. The images can be said in any order.</p>""]","","1","interview_scheme"
"","","","","","image-button-response","56","274711","0.0-12.0-0.0","7CF9BDBEF5A8487E9059DF7AEDC12B6A","7CF9BDBEF5A8487E9059DF7AEDC12B6A","409a48ee-0ffd-4aed-92e1-ae55ea8ae6b6","ba640c14-69c5-453e-80b2-29051492c0e0","{""num_scrambled_semantic"":""8"",""num_scrambled_causal"":""4"",""num_scrambled_schematic"":""4"",""participantId"":""7CF9BDBEF5A8487E9059DF7AEDC12B6A"",""assignmentId"":""409a48ee-0ffd-4aed-92e1-ae55ea8ae6b6"",""projectId"":""ba640c14-69c5-453e-80b2-29051492c0e0""}","https://test12345.live/?num_scrambled_semantic=8&num_scrambled_causal=4&num_scrambled_schematic=4&participantId=7CF9BDBEF5A8487E9059DF7AEDC12B6A&assignmentId=409a48ee-0ffd-4aed-92e1-ae55ea8ae6b6&projectId=ba640c14-69c5-453e-80b2-29051492c0e0","7CF9BDBEF5A8487E9059DF7AEDC12B6A-2025-05-14-21-13-02","","null","","images/causal_sequence/the_performance_causal/the_performance_causal_0.png","null","",""
"","","","","","image-button-response","57","279221","0.0-12.0-1.0-0.0","7CF9BDBEF5A8487E9059DF7AEDC12B6A","7CF9BDBEF5A8487E9059DF7AEDC12B6A","409a48ee-0ffd-4aed-92e1-ae55ea8ae6b6","ba640c14-69c5-453e-80b2-29051492c0e0","{""num_scrambled_semantic"":""8"",""num_scrambled_causal"":""4"",""num_scrambled_schematic"":""4"",""participantId"":""7CF9BDBEF5A8487E9059DF7AEDC12B6A"",""assignmentId"":""409a48ee-0ffd-4aed-92e1-ae55ea8ae6b6"",""projectId"":""ba640c14-69c5-453e-80b2-29051492c0e0""}","https://test12345.live/?num_scrambled_semantic=8&num_scrambled_causal=4&num_scrambled_schematic=4&participantId=7CF9BDBEF5A8487E9059DF7AEDC12B6A&assignmentId=409a48ee-0ffd-4aed-92e1-ae55ea8ae6b6&projectId=ba640c14-69c5-453e-80b2-29051492c0e0","7CF9BDBEF5A8487E9059DF7AEDC12B6A-2025-05-14-21-13-02","","null","","images/causal_sequence/the_performance_causal/the_performance_causal_5.png","null","",""
"","","","","","image-button-response","58","280064","0.0-12.0-1.0-1.0","7CF9BDBEF5A8487E9059DF7AEDC12B6A","7CF9BDBEF5A8487E9059DF7AEDC12B6A","409a48ee-0ffd-4aed-92e1-ae55ea8ae6b6","ba640c14-69c5-453e-80b2-29051492c0e0","{""num_scrambled_semantic"":""8"",""num_scrambled_causal"":""4"",""num_scrambled_schematic"":""4"",""participantId"":""7CF9BDBEF5A8487E9059DF7AEDC12B6A"",""assignmentId"":""409a48ee-0ffd-4aed-92e1-ae55ea8ae6b6"",""projectId"":""ba640c14-69c5-453e-80b2-29051492c0e0""}","https://test12345.live/?num_scrambled_semantic=8&num_scrambled_causal=4&num_scrambled_schematic=4&participantId=7CF9BDBEF5A8487E9059DF7AEDC12B6A&assignmentId=409a48ee-0ffd-4aed-92e1-ae55ea8ae6b6&projectId=ba640c14-69c5-453e-80b2-29051492c0e0","7CF9BDBEF5A8487E9059DF7AEDC12B6A-2025-05-14-21-13-02","","842","","images/causal_sequence/the_performance_causal/the_performance_causal_5.png","0","",""
"","","","","","image-button-response","59","281866","0.0-12.0-1.0-2.0","7CF9BDBEF5A8487E9059DF7AEDC12B6A","7CF9BDBEF5A8487E9059DF7AEDC12B6A","409a48ee-0ffd-4aed-92e1-ae55ea8ae6b6","ba640c14-69c5-453e-80b2-29051492c0e0","{""num_scrambled_semantic"":""8"",""num_scrambled_causal"":""4"",""num_scrambled_schematic"":""4"",""participantId"":""7CF9BDBEF5A8487E9059DF7AEDC12B6A"",""assignmentId"":""409a48ee-0ffd-4aed-92e1-ae55ea8ae6b6"",""projectId"":""ba640c14-69c5-453e-80b2-29051492c0e0""}","https://test12345.live/?num_scrambled_semantic=8&num_scrambled_causal=4&num_scrambled_schematic=4&participantId=7CF9BDBEF5A8487E9059DF7AEDC12B6A&assignmentId=409a48ee-0ffd-4aed-92e1-ae55ea8ae6b6&projectId=ba640c14-69c5-453e-80b2-29051492c0e0","7CF9BDBEF5A8487E9059DF7AEDC12B6A-2025-05-14-21-13-02","","null","","[]","null","",""
"","","","","","image-button-response","60","286370","0.0-12.0-1.0-0.1","7CF9BDBEF5A8487E9059DF7AEDC12B6A","7CF9BDBEF5A8487E9059DF7AEDC12B6A","409a48ee-0ffd-4aed-92e1-ae55ea8ae6b6","ba640c14-69c5-453e-80b2-29051492c0e0","{""num_scrambled_semantic"":""8"",""num_scrambled_causal"":""4"",""num_scrambled_schematic"":""4"",""participantId"":""7CF9BDBEF5A8487E9059DF7AEDC12B6A"",""assignmentId"":""409a48ee-0ffd-4aed-92e1-ae55ea8ae6b6"",""projectId"":""ba640c14-69c5-453e-80b2-29051492c0e0""}","https://test12345.live/?num_scrambled_semantic=8&num_scrambled_causal=4&num_scrambled_schematic=4&participantId=7CF9BDBEF5A8487E9059DF7AEDC12B6A&assignmentId=409a48ee-0ffd-4aed-92e1-ae55ea8ae6b6&projectId=ba640c14-69c5-453e-80b2-29051492c0e0","7CF9BDBEF5A8487E9059DF7AEDC12B6A-2025-05-14-21-13-02","","null","","images/causal_sequence/the_performance_causal/the_performance_causal_2.png","null","",""
"","","","","","image-button-response","61","287788","0.0-12.0-1.0-1.1","7CF9BDBEF5A8487E9059DF7AEDC12B6A","7CF9BDBEF5A8487E9059DF7AEDC12B6A","409a48ee-0ffd-4aed-92e1-ae55ea8ae6b6","ba640c14-69c5-453e-80b2-29051492c0e0","{""num_scrambled_semantic"":""8"",""num_scrambled_causal"":""4"",""num_scrambled_schematic"":""4"",""participantId"":""7CF9BDBEF5A8487E9059DF7AEDC12B6A"",""assignmentId"":""409a48ee-0ffd-4aed-92e1-ae55ea8ae6b6"",""projectId"":""ba640c14-69c5-453e-80b2-29051492c0e0""}","https://test12345.live/?num_scrambled_semantic=8&num_scrambled_causal=4&num_scrambled_schematic=4&participantId=7CF9BDBEF5A8487E9059DF7AEDC12B6A&assignmentId=409a48ee-0ffd-4aed-92e1-ae55ea8ae6b6&projectId=ba640c14-69c5-453e-80b2-29051492c0e0","7CF9BDBEF5A8487E9059DF7AEDC12B6A-2025-05-14-21-13-02","","1418","","images/causal_sequence/the_performance_causal/the_performance_causal_2.png","0","",""
"","","","","","image-button-response","62","289599","0.0-12.0-1.0-2.1","7CF9BDBEF5A8487E9059DF7AEDC12B6A","7CF9BDBEF5A8487E9059DF7AEDC12B6A","409a48ee-0ffd-4aed-92e1-ae55ea8ae6b6","ba640c14-69c5-453e-80b2-29051492c0e0","{""num_scrambled_semantic"":""8"",""num_scrambled_causal"":""4"",""num_scrambled_schematic"":""4"",""participantId"":""7CF9BDBEF5A8487E9059DF7AEDC12B6A"",""assignmentId"":""409a48ee-0ffd-4aed-92e1-ae55ea8ae6b6"",""projectId"":""ba640c14-69c5-453e-80b2-29051492c0e0""}","https://test12345.live/?num_scrambled_semantic=8&num_scrambled_causal=4&num_scrambled_schematic=4&participantId=7CF9BDBEF5A8487E9059DF7AEDC12B6A&assignmentId=409a48ee-0ffd-4aed-92e1-ae55ea8ae6b6&projectId=ba640c14-69c5-453e-80b2-29051492c0e0","7CF9BDBEF5A8487E9059DF7AEDC12B6A-2025-05-14-21-13-02","","null","","[]","null","",""
"","","","","","image-button-response","63","294112","0.0-12.0-1.0-0.2","7CF9BDBEF5A8487E9059DF7AEDC12B6A","7CF9BDBEF5A8487E9059DF7AEDC12B6A","409a48ee-0ffd-4aed-92e1-ae55ea8ae6b6","ba640c14-69c5-453e-80b2-29051492c0e0","{""num_scrambled_semantic"":""8"",""num_scrambled_causal"":""4"",""num_scrambled_schematic"":""4"",""participantId"":""7CF9BDBEF5A8487E9059DF7AEDC12B6A"",""assignmentId"":""409a48ee-0ffd-4aed-92e1-ae55ea8ae6b6"",""projectId"":""ba640c14-69c5-453e-80b2-29051492c0e0""}","https://test12345.live/?num_scrambled_semantic=8&num_scrambled_causal=4&num_scrambled_schematic=4&participantId=7CF9BDBEF5A8487E9059DF7AEDC12B6A&assignmentId=409a48ee-0ffd-4aed-92e1-ae55ea8ae6b6&projectId=ba640c14-69c5-453e-80b2-29051492c0e0","7CF9BDBEF5A8487E9059DF7AEDC12B6A-2025-05-14-21-13-02","","null","","images/causal_sequence/the_performance_causal/the_performance_causal_ten.png","null","",""
"","","","","","image-button-response","64","294698","0.0-12.0-1.0-1.2","7CF9BDBEF5A8487E9059DF7AEDC12B6A","7CF9BDBEF5A8487E9059DF7AEDC12B6A","409a48ee-0ffd-4aed-92e1-ae55ea8ae6b6","ba640c14-69c5-453e-80b2-29051492c0e0","{""num_scrambled_semantic"":""8"",""num_scrambled_causal"":""4"",""num_scrambled_schematic"":""4"",""participantId"":""7CF9BDBEF5A8487E9059DF7AEDC12B6A"",""assignmentId"":""409a48ee-0ffd-4aed-92e1-ae55ea8ae6b6"",""projectId"":""ba640c14-69c5-453e-80b2-29051492c0e0""}","https://test12345.live/?num_scrambled_semantic=8&num_scrambled_causal=4&num_scrambled_schematic=4&participantId=7CF9BDBEF5A8487E9059DF7AEDC12B6A&assignmentId=409a48ee-0ffd-4aed-92e1-ae55ea8ae6b6&projectId=ba640c14-69c5-453e-80b2-29051492c0e0","7CF9BDBEF5A8487E9059DF7AEDC12B6A-2025-05-14-21-13-02","","585","","images/causal_sequence/the_performance_causal/the_performance_causal_ten.png","0","",""
"","","","","","image-button-response","65","296505","0.0-12.0-1.0-2.2","7CF9BDBEF5A8487E9059DF7AEDC12B6A","7CF9BDBEF5A8487E9059DF7AEDC12B6A","409a48ee-0ffd-4aed-92e1-ae55ea8ae6b6","ba640c14-69c5-453e-80b2-29051492c0e0","{""num_scrambled_semantic"":""8"",""num_scrambled_causal"":""4"",""num_scrambled_schematic"":""4"",""participantId"":""7CF9BDBEF5A8487E9059DF7AEDC12B6A"",""assignmentId"":""409a48ee-0ffd-4aed-92e1-ae55ea8ae6b6"",""projectId"":""ba640c14-69c5-453e-80b2-29051492c0e0""}","https://test12345.live/?num_scrambled_semantic=8&num_scrambled_causal=4&num_scrambled_schematic=4&participantId=7CF9BDBEF5A8487E9059DF7AEDC12B6A&assignmentId=409a48ee-0ffd-4aed-92e1-ae55ea8ae6b6&projectId=ba640c14-69c5-453e-80b2-29051492c0e0","7CF9BDBEF5A8487E9059DF7AEDC12B6A-2025-05-14-21-13-02","","null","","[]","null","",""
"","","","","","image-button-response","66","301015","0.0-12.0-1.0-0.3","7CF9BDBEF5A8487E9059DF7AEDC12B6A","7CF9BDBEF5A8487E9059DF7AEDC12B6A","409a48ee-0ffd-4aed-92e1-ae55ea8ae6b6","ba640c14-69c5-453e-80b2-29051492c0e0","{""num_scrambled_semantic"":""8"",""num_scrambled_causal"":""4"",""num_scrambled_schematic"":""4"",""participantId"":""7CF9BDBEF5A8487E9059DF7AEDC12B6A"",""assignmentId"":""409a48ee-0ffd-4aed-92e1-ae55ea8ae6b6"",""projectId"":""ba640c14-69c5-453e-80b2-29051492c0e0""}","https://test12345.live/?num_scrambled_semantic=8&num_scrambled_causal=4&num_scrambled_schematic=4&participantId=7CF9BDBEF5A8487E9059DF7AEDC12B6A&assignmentId=409a48ee-0ffd-4aed-92e1-ae55ea8ae6b6&projectId=ba640c14-69c5-453e-80b2-29051492c0e0","7CF9BDBEF5A8487E9059DF7AEDC12B6A-2025-05-14-21-13-02","","null","","images/causal_sequence/the_performance_causal/the_performance_causal_7.png","null","",""
"","","","","","image-button-response","67","303017","0.0-12.0-1.0-1.3","7CF9BDBEF5A8487E9059DF7AEDC12B6A","7CF9BDBEF5A8487E9059DF7AEDC12B6A","409a48ee-0ffd-4aed-92e1-ae55ea8ae6b6","ba640c14-69c5-453e-80b2-29051492c0e0","{""num_scrambled_semantic"":""8"",""num_scrambled_causal"":""4"",""num_scrambled_schematic"":""4"",""participantId"":""7CF9BDBEF5A8487E9059DF7AEDC12B6A"",""assignmentId"":""409a48ee-0ffd-4aed-92e1-ae55ea8ae6b6"",""projectId"":""ba640c14-69c5-453e-80b2-29051492c0e0""}","https://test12345.live/?num_scrambled_semantic=8&num_scrambled_causal=4&num_scrambled_schematic=4&participantId=7CF9BDBEF5A8487E9059DF7AEDC12B6A&assignmentId=409a48ee-0ffd-4aed-92e1-ae55ea8ae6b6&projectId=ba640c14-69c5-453e-80b2-29051492c0e0","7CF9BDBEF5A8487E9059DF7AEDC12B6A-2025-05-14-21-13-02","","2001","","images/causal_sequence/the_performance_causal/the_performance_causal_7.png","0","",""
"","","","","","image-button-response","68","304833","0.0-12.0-1.0-2.3","7CF9BDBEF5A8487E9059DF7AEDC12B6A","7CF9BDBEF5A8487E9059DF7AEDC12B6A","409a48ee-0ffd-4aed-92e1-ae55ea8ae6b6","ba640c14-69c5-453e-80b2-29051492c0e0","{""num_scrambled_semantic"":""8"",""num_scrambled_causal"":""4"",""num_scrambled_schematic"":""4"",""participantId"":""7CF9BDBEF5A8487E9059DF7AEDC12B6A"",""assignmentId"":""409a48ee-0ffd-4aed-92e1-ae55ea8ae6b6"",""projectId"":""ba640c14-69c5-453e-80b2-29051492c0e0""}","https://test12345.live/?num_scrambled_semantic=8&num_scrambled_causal=4&num_scrambled_schematic=4&participantId=7CF9BDBEF5A8487E9059DF7AEDC12B6A&assignmentId=409a48ee-0ffd-4aed-92e1-ae55ea8ae6b6&projectId=ba640c14-69c5-453e-80b2-29051492c0e0","7CF9BDBEF5A8487E9059DF7AEDC12B6A-2025-05-14-21-13-02","","null","","[]","null","",""
"","","","","","image-button-response","69","309340","0.0-12.0-1.0-0.4","7CF9BDBEF5A8487E9059DF7AEDC12B6A","7CF9BDBEF5A8487E9059DF7AEDC12B6A","409a48ee-0ffd-4aed-92e1-ae55ea8ae6b6","ba640c14-69c5-453e-80b2-29051492c0e0","{""num_scrambled_semantic"":""8"",""num_scrambled_causal"":""4"",""num_scrambled_schematic"":""4"",""participantId"":""7CF9BDBEF5A8487E9059DF7AEDC12B6A"",""assignmentId"":""409a48ee-0ffd-4aed-92e1-ae55ea8ae6b6"",""projectId"":""ba640c14-69c5-453e-80b2-29051492c0e0""}","https://test12345.live/?num_scrambled_semantic=8&num_scrambled_causal=4&num_scrambled_schematic=4&participantId=7CF9BDBEF5A8487E9059DF7AEDC12B6A&assignmentId=409a48ee-0ffd-4aed-92e1-ae55ea8ae6b6&projectId=ba640c14-69c5-453e-80b2-29051492c0e0","7CF9BDBEF5A8487E9059DF7AEDC12B6A-2025-05-14-21-13-02","","null","","images/causal_sequence/the_performance_causal/the_performance_causal_4.png","null","",""
"","","","","","image-button-response","70","310184","0.0-12.0-1.0-1.4","7CF9BDBEF5A8487E9059DF7AEDC12B6A","7CF9BDBEF5A8487E9059DF7AEDC12B6A","409a48ee-0ffd-4aed-92e1-ae55ea8ae6b6","ba640c14-69c5-453e-80b2-29051492c0e0","{""num_scrambled_semantic"":""8"",""num_scrambled_causal"":""4"",""num_scrambled_schematic"":""4"",""participantId"":""7CF9BDBEF5A8487E9059DF7AEDC12B6A"",""assignmentId"":""409a48ee-0ffd-4aed-92e1-ae55ea8ae6b6"",""projectId"":""ba640c14-69c5-453e-80b2-29051492c0e0""}","https://test12345.live/?num_scrambled_semantic=8&num_scrambled_causal=4&num_scrambled_schematic=4&participantId=7CF9BDBEF5A8487E9059DF7AEDC12B6A&assignmentId=409a48ee-0ffd-4aed-92e1-ae55ea8ae6b6&projectId=ba640c14-69c5-453e-80b2-29051492c0e0","7CF9BDBEF5A8487E9059DF7AEDC12B6A-2025-05-14-21-13-02","","843","","images/causal_sequence/the_performance_causal/the_performance_causal_4.png","0","",""
"","","","","","image-button-response","71","311986","0.0-12.0-1.0-2.4","7CF9BDBEF5A8487E9059DF7AEDC12B6A","7CF9BDBEF5A8487E9059DF7AEDC12B6A","409a48ee-0ffd-4aed-92e1-ae55ea8ae6b6","ba640c14-69c5-453e-80b2-29051492c0e0","{""num_scrambled_semantic"":""8"",""num_scrambled_causal"":""4"",""num_scrambled_schematic"":""4"",""participantId"":""7CF9BDBEF5A8487E9059DF7AEDC12B6A"",""assignmentId"":""409a48ee-0ffd-4aed-92e1-ae55ea8ae6b6"",""projectId"":""ba640c14-69c5-453e-80b2-29051492c0e0""}","https://test12345.live/?num_scrambled_semantic=8&num_scrambled_causal=4&num_scrambled_schematic=4&participantId=7CF9BDBEF5A8487E9059DF7AEDC12B6A&assignmentId=409a48ee-0ffd-4aed-92e1-ae55ea8ae6b6&projectId=ba640c14-69c5-453e-80b2-29051492c0e0","7CF9BDBEF5A8487E9059DF7AEDC12B6A-2025-05-14-21-13-02","","null","","[]","null","",""
"","","","","","image-button-response","72","316501","0.0-12.0-1.0-0.5","7CF9BDBEF5A8487E9059DF7AEDC12B6A","7CF9BDBEF5A8487E9059DF7AEDC12B6A","409a48ee-0ffd-4aed-92e1-ae55ea8ae6b6","ba640c14-69c5-453e-80b2-29051492c0e0","{""num_scrambled_semantic"":""8"",""num_scrambled_causal"":""4"",""num_scrambled_schematic"":""4"",""participantId"":""7CF9BDBEF5A8487E9059DF7AEDC12B6A"",""assignmentId"":""409a48ee-0ffd-4aed-92e1-ae55ea8ae6b6"",""projectId"":""ba640c14-69c5-453e-80b2-29051492c0e0""}","https://test12345.live/?num_scrambled_semantic=8&num_scrambled_causal=4&num_scrambled_schematic=4&participantId=7CF9BDBEF5A8487E9059DF7AEDC12B6A&assignmentId=409a48ee-0ffd-4aed-92e1-ae55ea8ae6b6&projectId=ba640c14-69c5-453e-80b2-29051492c0e0","7CF9BDBEF5A8487E9059DF7AEDC12B6A-2025-05-14-21-13-02","","null","","images/causal_sequence/the_performance_causal/the_performance_causal_3.png","null","",""
"","","","","","image-button-response","73","317128","0.0-12.0-1.0-1.5","7CF9BDBEF5A8487E9059DF7AEDC12B6A","7CF9BDBEF5A8487E9059DF7AEDC12B6A","409a48ee-0ffd-4aed-92e1-ae55ea8ae6b6","ba640c14-69c5-453e-80b2-29051492c0e0","{""num_scrambled_semantic"":""8"",""num_scrambled_causal"":""4"",""num_scrambled_schematic"":""4"",""participantId"":""7CF9BDBEF5A8487E9059DF7AEDC12B6A"",""assignmentId"":""409a48ee-0ffd-4aed-92e1-ae55ea8ae6b6"",""projectId"":""ba640c14-69c5-453e-80b2-29051492c0e0""}","https://test12345.live/?num_scrambled_semantic=8&num_scrambled_causal=4&num_scrambled_schematic=4&participantId=7CF9BDBEF5A8487E9059DF7AEDC12B6A&assignmentId=409a48ee-0ffd-4aed-92e1-ae55ea8ae6b6&projectId=ba640c14-69c5-453e-80b2-29051492c0e0","7CF9BDBEF5A8487E9059DF7AEDC12B6A-2025-05-14-21-13-02","","627","","images/causal_sequence/the_performance_causal/the_performance_causal_3.png","0","",""
"","","","","","image-button-response","74","318936","0.0-12.0-1.0-2.5","7CF9BDBEF5A8487E9059DF7AEDC12B6A","7CF9BDBEF5A8487E9059DF7AEDC12B6A","409a48ee-0ffd-4aed-92e1-ae55ea8ae6b6","ba640c14-69c5-453e-80b2-29051492c0e0","{""num_scrambled_semantic"":""8"",""num_scrambled_causal"":""4"",""num_scrambled_schematic"":""4"",""participantId"":""7CF9BDBEF5A8487E9059DF7AEDC12B6A"",""assignmentId"":""409a48ee-0ffd-4aed-92e1-ae55ea8ae6b6"",""projectId"":""ba640c14-69c5-453e-80b2-29051492c0e0""}","https://test12345.live/?num_scrambled_semantic=8&num_scrambled_causal=4&num_scrambled_schematic=4&participantId=7CF9BDBEF5A8487E9059DF7AEDC12B6A&assignmentId=409a48ee-0ffd-4aed-92e1-ae55ea8ae6b6&projectId=ba640c14-69c5-453e-80b2-29051492c0e0","7CF9BDBEF5A8487E9059DF7AEDC12B6A-2025-05-14-21-13-02","","null","","[]","null","",""
"","","","","","image-button-response","75","323443","0.0-12.0-1.0-0.6","7CF9BDBEF5A8487E9059DF7AEDC12B6A","7CF9BDBEF5A8487E9059DF7AEDC12B6A","409a48ee-0ffd-4aed-92e1-ae55ea8ae6b6","ba640c14-69c5-453e-80b2-29051492c0e0","{""num_scrambled_semantic"":""8"",""num_scrambled_causal"":""4"",""num_scrambled_schematic"":""4"",""participantId"":""7CF9BDBEF5A8487E9059DF7AEDC12B6A"",""assignmentId"":""409a48ee-0ffd-4aed-92e1-ae55ea8ae6b6"",""projectId"":""ba640c14-69c5-453e-80b2-29051492c0e0""}","https://test12345.live/?num_scrambled_semantic=8&num_scrambled_causal=4&num_scrambled_schematic=4&participantId=7CF9BDBEF5A8487E9059DF7AEDC12B6A&assignmentId=409a48ee-0ffd-4aed-92e1-ae55ea8ae6b6&projectId=ba640c14-69c5-453e-80b2-29051492c0e0","7CF9BDBEF5A8487E9059DF7AEDC12B6A-2025-05-14-21-13-02","","null","","images/causal_sequence/the_performance_causal/the_performance_causal_1.png","null","",""
"","","","","","image-button-response","76","323892","0.0-12.0-1.0-1.6","7CF9BDBEF5A8487E9059DF7AEDC12B6A","7CF9BDBEF5A8487E9059DF7AEDC12B6A","409a48ee-0ffd-4aed-92e1-ae55ea8ae6b6","ba640c14-69c5-453e-80b2-29051492c0e0","{""num_scrambled_semantic"":""8"",""num_scrambled_causal"":""4"",""num_scrambled_schematic"":""4"",""participantId"":""7CF9BDBEF5A8487E9059DF7AEDC12B6A"",""assignmentId"":""409a48ee-0ffd-4aed-92e1-ae55ea8ae6b6"",""projectId"":""ba640c14-69c5-453e-80b2-29051492c0e0""}","https://test12345.live/?num_scrambled_semantic=8&num_scrambled_causal=4&num_scrambled_schematic=4&participantId=7CF9BDBEF5A8487E9059DF7AEDC12B6A&assignmentId=409a48ee-0ffd-4aed-92e1-ae55ea8ae6b6&projectId=ba640c14-69c5-453e-80b2-29051492c0e0","7CF9BDBEF5A8487E9059DF7AEDC12B6A-2025-05-14-21-13-02","","448","","images/causal_sequence/the_performance_causal/the_performance_causal_1.png","0","",""
"","","","","","image-button-response","77","325703","0.0-12.0-1.0-2.6","7CF9BDBEF5A8487E9059DF7AEDC12B6A","7CF9BDBEF5A8487E9059DF7AEDC12B6A","409a48ee-0ffd-4aed-92e1-ae55ea8ae6b6","ba640c14-69c5-453e-80b2-29051492c0e0","{""num_scrambled_semantic"":""8"",""num_scrambled_causal"":""4"",""num_scrambled_schematic"":""4"",""participantId"":""7CF9BDBEF5A8487E9059DF7AEDC12B6A"",""assignmentId"":""409a48ee-0ffd-4aed-92e1-ae55ea8ae6b6"",""projectId"":""ba640c14-69c5-453e-80b2-29051492c0e0""}","https://test12345.live/?num_scrambled_semantic=8&num_scrambled_causal=4&num_scrambled_schematic=4&participantId=7CF9BDBEF5A8487E9059DF7AEDC12B6A&assignmentId=409a48ee-0ffd-4aed-92e1-ae55ea8ae6b6&projectId=ba640c14-69c5-453e-80b2-29051492c0e0","7CF9BDBEF5A8487E9059DF7AEDC12B6A-2025-05-14-21-13-02","","null","","[]","null","",""
"","","","","","image-button-response","78","330210","0.0-12.0-1.0-0.7","7CF9BDBEF5A8487E9059DF7AEDC12B6A","7CF9BDBEF5A8487E9059DF7AEDC12B6A","409a48ee-0ffd-4aed-92e1-ae55ea8ae6b6","ba640c14-69c5-453e-80b2-29051492c0e0","{""num_scrambled_semantic"":""8"",""num_scrambled_causal"":""4"",""num_scrambled_schematic"":""4"",""participantId"":""7CF9BDBEF5A8487E9059DF7AEDC12B6A"",""assignmentId"":""409a48ee-0ffd-4aed-92e1-ae55ea8ae6b6"",""projectId"":""ba640c14-69c5-453e-80b2-29051492c0e0""}","https://test12345.live/?num_scrambled_semantic=8&num_scrambled_causal=4&num_scrambled_schematic=4&participantId=7CF9BDBEF5A8487E9059DF7AEDC12B6A&assignmentId=409a48ee-0ffd-4aed-92e1-ae55ea8ae6b6&projectId=ba640c14-69c5-453e-80b2-29051492c0e0","7CF9BDBEF5A8487E9059DF7AEDC12B6A-2025-05-14-21-13-02","","null","","images/causal_sequence/the_performance_causal/the_performance_causal_8.png","null","",""
"","","","","","image-button-response","79","330737","0.0-12.0-1.0-1.7","7CF9BDBEF5A8487E9059DF7AEDC12B6A","7CF9BDBEF5A8487E9059DF7AEDC12B6A","409a48ee-0ffd-4aed-92e1-ae55ea8ae6b6","ba640c14-69c5-453e-80b2-29051492c0e0","{""num_scrambled_semantic"":""8"",""num_scrambled_causal"":""4"",""num_scrambled_schematic"":""4"",""participantId"":""7CF9BDBEF5A8487E9059DF7AEDC12B6A"",""assignmentId"":""409a48ee-0ffd-4aed-92e1-ae55ea8ae6b6"",""projectId"":""ba640c14-69c5-453e-80b2-29051492c0e0""}","https://test12345.live/?num_scrambled_semantic=8&num_scrambled_causal=4&num_scrambled_schematic=4&participantId=7CF9BDBEF5A8487E9059DF7AEDC12B6A&assignmentId=409a48ee-0ffd-4aed-92e1-ae55ea8ae6b6&projectId=ba640c14-69c5-453e-80b2-29051492c0e0","7CF9BDBEF5A8487E9059DF7AEDC12B6A-2025-05-14-21-13-02","","526","","images/causal_sequence/the_performance_causal/the_performance_causal_8.png","0","",""
"","","","","","image-button-response","80","332543","0.0-12.0-1.0-2.7","7CF9BDBEF5A8487E9059DF7AEDC12B6A","7CF9BDBEF5A8487E9059DF7AEDC12B6A","409a48ee-0ffd-4aed-92e1-ae55ea8ae6b6","ba640c14-69c5-453e-80b2-29051492c0e0","{""num_scrambled_semantic"":""8"",""num_scrambled_causal"":""4"",""num_scrambled_schematic"":""4"",""participantId"":""7CF9BDBEF5A8487E9059DF7AEDC12B6A"",""assignmentId"":""409a48ee-0ffd-4aed-92e1-ae55ea8ae6b6"",""projectId"":""ba640c14-69c5-453e-80b2-29051492c0e0""}","https://test12345.live/?num_scrambled_semantic=8&num_scrambled_causal=4&num_scrambled_schematic=4&participantId=7CF9BDBEF5A8487E9059DF7AEDC12B6A&assignmentId=409a48ee-0ffd-4aed-92e1-ae55ea8ae6b6&projectId=ba640c14-69c5-453e-80b2-29051492c0e0","7CF9BDBEF5A8487E9059DF7AEDC12B6A-2025-05-14-21-13-02","","null","","[]","null","",""
"","","","","","image-button-response","81","337048","0.0-12.0-1.0-0.8","7CF9BDBEF5A8487E9059DF7AEDC12B6A","7CF9BDBEF5A8487E9059DF7AEDC12B6A","409a48ee-0ffd-4aed-92e1-ae55ea8ae6b6","ba640c14-69c5-453e-80b2-29051492c0e0","{""num_scrambled_semantic"":""8"",""num_scrambled_causal"":""4"",""num_scrambled_schematic"":""4"",""participantId"":""7CF9BDBEF5A8487E9059DF7AEDC12B6A"",""assignmentId"":""409a48ee-0ffd-4aed-92e1-ae55ea8ae6b6"",""projectId"":""ba640c14-69c5-453e-80b2-29051492c0e0""}","https://test12345.live/?num_scrambled_semantic=8&num_scrambled_causal=4&num_scrambled_schematic=4&participantId=7CF9BDBEF5A8487E9059DF7AEDC12B6A&assignmentId=409a48ee-0ffd-4aed-92e1-ae55ea8ae6b6&projectId=ba640c14-69c5-453e-80b2-29051492c0e0","7CF9BDBEF5A8487E9059DF7AEDC12B6A-2025-05-14-21-13-02","","null","","images/causal_sequence/the_performance_causal/the_performance_causal_9.png","null","",""
"","","","","","image-button-response","82","337616","0.0-12.0-1.0-1.8","7CF9BDBEF5A8487E9059DF7AEDC12B6A","7CF9BDBEF5A8487E9059DF7AEDC12B6A","409a48ee-0ffd-4aed-92e1-ae55ea8ae6b6","ba640c14-69c5-453e-80b2-29051492c0e0","{""num_scrambled_semantic"":""8"",""num_scrambled_causal"":""4"",""num_scrambled_schematic"":""4"",""participantId"":""7CF9BDBEF5A8487E9059DF7AEDC12B6A"",""assignmentId"":""409a48ee-0ffd-4aed-92e1-ae55ea8ae6b6"",""projectId"":""ba640c14-69c5-453e-80b2-29051492c0e0""}","https://test12345.live/?num_scrambled_semantic=8&num_scrambled_causal=4&num_scrambled_schematic=4&participantId=7CF9BDBEF5A8487E9059DF7AEDC12B6A&assignmentId=409a48ee-0ffd-4aed-92e1-ae55ea8ae6b6&projectId=ba640c14-69c5-453e-80b2-29051492c0e0","7CF9BDBEF5A8487E9059DF7AEDC12B6A-2025-05-14-21-13-02","","567","","images/causal_sequence/the_performance_causal/the_performance_causal_9.png","0","",""
"","","","","","image-button-response","83","339431","0.0-12.0-1.0-2.8","7CF9BDBEF5A8487E9059DF7AEDC12B6A","7CF9BDBEF5A8487E9059DF7AEDC12B6A","409a48ee-0ffd-4aed-92e1-ae55ea8ae6b6","ba640c14-69c5-453e-80b2-29051492c0e0","{""num_scrambled_semantic"":""8"",""num_scrambled_causal"":""4"",""num_scrambled_schematic"":""4"",""participantId"":""7CF9BDBEF5A8487E9059DF7AEDC12B6A"",""assignmentId"":""409a48ee-0ffd-4aed-92e1-ae55ea8ae6b6"",""projectId"":""ba640c14-69c5-453e-80b2-29051492c0e0""}","https://test12345.live/?num_scrambled_semantic=8&num_scrambled_causal=4&num_scrambled_schematic=4&participantId=7CF9BDBEF5A8487E9059DF7AEDC12B6A&assignmentId=409a48ee-0ffd-4aed-92e1-ae55ea8ae6b6&projectId=ba640c14-69c5-453e-80b2-29051492c0e0","7CF9BDBEF5A8487E9059DF7AEDC12B6A-2025-05-14-21-13-02","","null","","[]","null","",""
"","","","","","image-button-response","84","343943","0.0-12.0-1.0-0.9","7CF9BDBEF5A8487E9059DF7AEDC12B6A","7CF9BDBEF5A8487E9059DF7AEDC12B6A","409a48ee-0ffd-4aed-92e1-ae55ea8ae6b6","ba640c14-69c5-453e-80b2-29051492c0e0","{""num_scrambled_semantic"":""8"",""num_scrambled_causal"":""4"",""num_scrambled_schematic"":""4"",""participantId"":""7CF9BDBEF5A8487E9059DF7AEDC12B6A"",""assignmentId"":""409a48ee-0ffd-4aed-92e1-ae55ea8ae6b6"",""projectId"":""ba640c14-69c5-453e-80b2-29051492c0e0""}","https://test12345.live/?num_scrambled_semantic=8&num_scrambled_causal=4&num_scrambled_schematic=4&participantId=7CF9BDBEF5A8487E9059DF7AEDC12B6A&assignmentId=409a48ee-0ffd-4aed-92e1-ae55ea8ae6b6&projectId=ba640c14-69c5-453e-80b2-29051492c0e0","7CF9BDBEF5A8487E9059DF7AEDC12B6A-2025-05-14-21-13-02","","null","","images/causal_sequence/the_performance_causal/the_performance_causal_6.png","null","",""
"","","","","","image-button-response","85","344653","0.0-12.0-1.0-1.9","7CF9BDBEF5A8487E9059DF7AEDC12B6A","7CF9BDBEF5A8487E9059DF7AEDC12B6A","409a48ee-0ffd-4aed-92e1-ae55ea8ae6b6","ba640c14-69c5-453e-80b2-29051492c0e0","{""num_scrambled_semantic"":""8"",""num_scrambled_causal"":""4"",""num_scrambled_schematic"":""4"",""participantId"":""7CF9BDBEF5A8487E9059DF7AEDC12B6A"",""assignmentId"":""409a48ee-0ffd-4aed-92e1-ae55ea8ae6b6"",""projectId"":""ba640c14-69c5-453e-80b2-29051492c0e0""}","https://test12345.live/?num_scrambled_semantic=8&num_scrambled_causal=4&num_scrambled_schematic=4&participantId=7CF9BDBEF5A8487E9059DF7AEDC12B6A&assignmentId=409a48ee-0ffd-4aed-92e1-ae55ea8ae6b6&projectId=ba640c14-69c5-453e-80b2-29051492c0e0","7CF9BDBEF5A8487E9059DF7AEDC12B6A-2025-05-14-21-13-02","","709","","images/causal_sequence/the_performance_causal/the_performance_causal_6.png","0","",""
"","","","","","image-button-response","86","346463","0.0-12.0-1.0-2.9","7CF9BDBEF5A8487E9059DF7AEDC12B6A","7CF9BDBEF5A8487E9059DF7AEDC12B6A","409a48ee-0ffd-4aed-92e1-ae55ea8ae6b6","ba640c14-69c5-453e-80b2-29051492c0e0","{""num_scrambled_semantic"":""8"",""num_scrambled_causal"":""4"",""num_scrambled_schematic"":""4"",""participantId"":""7CF9BDBEF5A8487E9059DF7AEDC12B6A"",""assignmentId"":""409a48ee-0ffd-4aed-92e1-ae55ea8ae6b6"",""projectId"":""ba640c14-69c5-453e-80b2-29051492c0e0""}","https://test12345.live/?num_scrambled_semantic=8&num_scrambled_causal=4&num_scrambled_schematic=4&participantId=7CF9BDBEF5A8487E9059DF7AEDC12B6A&assignmentId=409a48ee-0ffd-4aed-92e1-ae55ea8ae6b6&projectId=ba640c14-69c5-453e-80b2-29051492c0e0","7CF9BDBEF5A8487E9059DF7AEDC12B6A-2025-05-14-21-13-02","","null","","[]","null","",""
"","","","","","html-audio-response","87","377319","0.0-13.0","7CF9BDBEF5A8487E9059DF7AEDC12B6A","7CF9BDBEF5A8487E9059DF7AEDC12B6A","409a48ee-0ffd-4aed-92e1-ae55ea8ae6b6","ba640c14-69c5-453e-80b2-29051492c0e0","{""num_scrambled_semantic"":""8"",""num_scrambled_causal"":""4"",""num_scrambled_schematic"":""4"",""participantId"":""7CF9BDBEF5A8487E9059DF7AEDC12B6A"",""assignmentId"":""409a48ee-0ffd-4aed-92e1-ae55ea8ae6b6"",""projectId"":""ba640c14-69c5-453e-80b2-29051492c0e0""}","https://test12345.live/?num_scrambled_semantic=8&num_scrambled_causal=4&num_scrambled_schematic=4&participantId=7CF9BDBEF5A8487E9059DF7AEDC12B6A&assignmentId=409a48ee-0ffd-4aed-92e1-ae55ea8ae6b6&projectId=ba640c14-69c5-453e-80b2-29051492c0e0","7CF9BDBEF5A8487E9059DF7AEDC12B6A-2025-05-14-21-13-02","","30019","","[""<span style=\""color: red; font-size: 24px\""> NOW RECORDING</span><p>Please say out loud all the images you saw, as many as you can remember. The images can be said in any order.</p>""]","","3","the_performance_causal"
"","","","","","image-button-response","88","383340","0.0-14.0-0.0","7CF9BDBEF5A8487E9059DF7AEDC12B6A","7CF9BDBEF5A8487E9059DF7AEDC12B6A","409a48ee-0ffd-4aed-92e1-ae55ea8ae6b6","ba640c14-69c5-453e-80b2-29051492c0e0","{""num_scrambled_semantic"":""8"",""num_scrambled_causal"":""4"",""num_scrambled_schematic"":""4"",""participantId"":""7CF9BDBEF5A8487E9059DF7AEDC12B6A"",""assignmentId"":""409a48ee-0ffd-4aed-92e1-ae55ea8ae6b6"",""projectId"":""ba640c14-69c5-453e-80b2-29051492c0e0""}","https://test12345.live/?num_scrambled_semantic=8&num_scrambled_causal=4&num_scrambled_schematic=4&participantId=7CF9BDBEF5A8487E9059DF7AEDC12B6A&assignmentId=409a48ee-0ffd-4aed-92e1-ae55ea8ae6b6&projectId=ba640c14-69c5-453e-80b2-29051492c0e0","7CF9BDBEF5A8487E9059DF7AEDC12B6A-2025-05-14-21-13-02","","null","","images/semantic_sequence/visiting_cities_semantic/visiting_cities_semantic_0.png","null","",""
"","","","","","image-button-response","89","387856","0.0-14.0-1.0-0.0","7CF9BDBEF5A8487E9059DF7AEDC12B6A","7CF9BDBEF5A8487E9059DF7AEDC12B6A","409a48ee-0ffd-4aed-92e1-ae55ea8ae6b6","ba640c14-69c5-453e-80b2-29051492c0e0","{""num_scrambled_semantic"":""8"",""num_scrambled_causal"":""4"",""num_scrambled_schematic"":""4"",""participantId"":""7CF9BDBEF5A8487E9059DF7AEDC12B6A"",""assignmentId"":""409a48ee-0ffd-4aed-92e1-ae55ea8ae6b6"",""projectId"":""ba640c14-69c5-453e-80b2-29051492c0e0""}","https://test12345.live/?num_scrambled_semantic=8&num_scrambled_causal=4&num_scrambled_schematic=4&participantId=7CF9BDBEF5A8487E9059DF7AEDC12B6A&assignmentId=409a48ee-0ffd-4aed-92e1-ae55ea8ae6b6&projectId=ba640c14-69c5-453e-80b2-29051492c0e0","7CF9BDBEF5A8487E9059DF7AEDC12B6A-2025-05-14-21-13-02","","null","","images/semantic_sequence/visiting_cities_semantic/visiting_cities_semantic_5.png","null","",""
"","","","","","image-button-response","90","389295","0.0-14.0-1.0-1.0","7CF9BDBEF5A8487E9059DF7AEDC12B6A","7CF9BDBEF5A8487E9059DF7AEDC12B6A","409a48ee-0ffd-4aed-92e1-ae55ea8ae6b6","ba640c14-69c5-453e-80b2-29051492c0e0","{""num_scrambled_semantic"":""8"",""num_scrambled_causal"":""4"",""num_scrambled_schematic"":""4"",""participantId"":""7CF9BDBEF5A8487E9059DF7AEDC12B6A"",""assignmentId"":""409a48ee-0ffd-4aed-92e1-ae55ea8ae6b6"",""projectId"":""ba640c14-69c5-453e-80b2-29051492c0e0""}","https://test12345.live/?num_scrambled_semantic=8&num_scrambled_causal=4&num_scrambled_schematic=4&participantId=7CF9BDBEF5A8487E9059DF7AEDC12B6A&assignmentId=409a48ee-0ffd-4aed-92e1-ae55ea8ae6b6&projectId=ba640c14-69c5-453e-80b2-29051492c0e0","7CF9BDBEF5A8487E9059DF7AEDC12B6A-2025-05-14-21-13-02","","1439","","images/semantic_sequence/visiting_cities_semantic/visiting_cities_semantic_5.png","1","",""
"","","","","","image-button-response","91","391098","0.0-14.0-1.0-2.0","7CF9BDBEF5A8487E9059DF7AEDC12B6A","7CF9BDBEF5A8487E9059DF7AEDC12B6A","409a48ee-0ffd-4aed-92e1-ae55ea8ae6b6","ba640c14-69c5-453e-80b2-29051492c0e0","{""num_scrambled_semantic"":""8"",""num_scrambled_causal"":""4"",""num_scrambled_schematic"":""4"",""participantId"":""7CF9BDBEF5A8487E9059DF7AEDC12B6A"",""assignmentId"":""409a48ee-0ffd-4aed-92e1-ae55ea8ae6b6"",""projectId"":""ba640c14-69c5-453e-80b2-29051492c0e0""}","https://test12345.live/?num_scrambled_semantic=8&num_scrambled_causal=4&num_scrambled_schematic=4&participantId=7CF9BDBEF5A8487E9059DF7AEDC12B6A&assignmentId=409a48ee-0ffd-4aed-92e1-ae55ea8ae6b6&projectId=ba640c14-69c5-453e-80b2-29051492c0e0","7CF9BDBEF5A8487E9059DF7AEDC12B6A-2025-05-14-21-13-02","","null","","[]","null","",""
"","","","","","image-button-response","92","395609","0.0-14.0-1.0-0.1","7CF9BDBEF5A8487E9059DF7AEDC12B6A","7CF9BDBEF5A8487E9059DF7AEDC12B6A","409a48ee-0ffd-4aed-92e1-ae55ea8ae6b6","ba640c14-69c5-453e-80b2-29051492c0e0","{""num_scrambled_semantic"":""8"",""num_scrambled_causal"":""4"",""num_scrambled_schematic"":""4"",""participantId"":""7CF9BDBEF5A8487E9059DF7AEDC12B6A"",""assignmentId"":""409a48ee-0ffd-4aed-92e1-ae55ea8ae6b6"",""projectId"":""ba640c14-69c5-453e-80b2-29051492c0e0""}","https://test12345.live/?num_scrambled_semantic=8&num_scrambled_causal=4&num_scrambled_schematic=4&participantId=7CF9BDBEF5A8487E9059DF7AEDC12B6A&assignmentId=409a48ee-0ffd-4aed-92e1-ae55ea8ae6b6&projectId=ba640c14-69c5-453e-80b2-29051492c0e0","7CF9BDBEF5A8487E9059DF7AEDC12B6A-2025-05-14-21-13-02","","null","","images/semantic_sequence/visiting_cities_semantic/visiting_cities_semantic_8.png","null","",""
"","","","","","image-button-response","93","399620","0.0-14.0-1.0-1.1","7CF9BDBEF5A8487E9059DF7AEDC12B6A","7CF9BDBEF5A8487E9059DF7AEDC12B6A","409a48ee-0ffd-4aed-92e1-ae55ea8ae6b6","ba640c14-69c5-453e-80b2-29051492c0e0","{""num_scrambled_semantic"":""8"",""num_scrambled_causal"":""4"",""num_scrambled_schematic"":""4"",""participantId"":""7CF9BDBEF5A8487E9059DF7AEDC12B6A"",""assignmentId"":""409a48ee-0ffd-4aed-92e1-ae55ea8ae6b6"",""projectId"":""ba640c14-69c5-453e-80b2-29051492c0e0""}","https://test12345.live/?num_scrambled_semantic=8&num_scrambled_causal=4&num_scrambled_schematic=4&participantId=7CF9BDBEF5A8487E9059DF7AEDC12B6A&assignmentId=409a48ee-0ffd-4aed-92e1-ae55ea8ae6b6&projectId=ba640c14-69c5-453e-80b2-29051492c0e0","7CF9BDBEF5A8487E9059DF7AEDC12B6A-2025-05-14-21-13-02","","null","","images/semantic_sequence/visiting_cities_semantic/visiting_cities_semantic_8.png","null","",""
"","","","","","image-button-response","94","401432","0.0-14.0-1.0-2.1","7CF9BDBEF5A8487E9059DF7AEDC12B6A","7CF9BDBEF5A8487E9059DF7AEDC12B6A","409a48ee-0ffd-4aed-92e1-ae55ea8ae6b6","ba640c14-69c5-453e-80b2-29051492c0e0","{""num_scrambled_semantic"":""8"",""num_scrambled_causal"":""4"",""num_scrambled_schematic"":""4"",""participantId"":""7CF9BDBEF5A8487E9059DF7AEDC12B6A"",""assignmentId"":""409a48ee-0ffd-4aed-92e1-ae55ea8ae6b6"",""projectId"":""ba640c14-69c5-453e-80b2-29051492c0e0""}","https://test12345.live/?num_scrambled_semantic=8&num_scrambled_causal=4&num_scrambled_schematic=4&participantId=7CF9BDBEF5A8487E9059DF7AEDC12B6A&assignmentId=409a48ee-0ffd-4aed-92e1-ae55ea8ae6b6&projectId=ba640c14-69c5-453e-80b2-29051492c0e0","7CF9BDBEF5A8487E9059DF7AEDC12B6A-2025-05-14-21-13-02","","null","","[]","null","",""
"","","","","","image-button-response","95","405941","0.0-14.0-1.0-0.2","7CF9BDBEF5A8487E9059DF7AEDC12B6A","7CF9BDBEF5A8487E9059DF7AEDC12B6A","409a48ee-0ffd-4aed-92e1-ae55ea8ae6b6","ba640c14-69c5-453e-80b2-29051492c0e0","{""num_scrambled_semantic"":""8"",""num_scrambled_causal"":""4"",""num_scrambled_schematic"":""4"",""participantId"":""7CF9BDBEF5A8487E9059DF7AEDC12B6A"",""assignmentId"":""409a48ee-0ffd-4aed-92e1-ae55ea8ae6b6"",""projectId"":""ba640c14-69c5-453e-80b2-29051492c0e0""}","https://test12345.live/?num_scrambled_semantic=8&num_scrambled_causal=4&num_scrambled_schematic=4&participantId=7CF9BDBEF5A8487E9059DF7AEDC12B6A&assignmentId=409a48ee-0ffd-4aed-92e1-ae55ea8ae6b6&projectId=ba640c14-69c5-453e-80b2-29051492c0e0","7CF9BDBEF5A8487E9059DF7AEDC12B6A-2025-05-14-21-13-02","","null","","images/semantic_sequence/visiting_cities_semantic/visiting_cities_semantic_9.png","null","",""
"","","","","","image-button-response","96","406677","0.0-14.0-1.0-1.2","7CF9BDBEF5A8487E9059DF7AEDC12B6A","7CF9BDBEF5A8487E9059DF7AEDC12B6A","409a48ee-0ffd-4aed-92e1-ae55ea8ae6b6","ba640c14-69c5-453e-80b2-29051492c0e0","{""num_scrambled_semantic"":""8"",""num_scrambled_causal"":""4"",""num_scrambled_schematic"":""4"",""participantId"":""7CF9BDBEF5A8487E9059DF7AEDC12B6A"",""assignmentId"":""409a48ee-0ffd-4aed-92e1-ae55ea8ae6b6"",""projectId"":""ba640c14-69c5-453e-80b2-29051492c0e0""}","https://test12345.live/?num_scrambled_semantic=8&num_scrambled_causal=4&num_scrambled_schematic=4&participantId=7CF9BDBEF5A8487E9059DF7AEDC12B6A&assignmentId=409a48ee-0ffd-4aed-92e1-ae55ea8ae6b6&projectId=ba640c14-69c5-453e-80b2-29051492c0e0","7CF9BDBEF5A8487E9059DF7AEDC12B6A-2025-05-14-21-13-02","","735","","images/semantic_sequence/visiting_cities_semantic/visiting_cities_semantic_9.png","0","",""
"","","","","","image-button-response","97","408493","0.0-14.0-1.0-2.2","7CF9BDBEF5A8487E9059DF7AEDC12B6A","7CF9BDBEF5A8487E9059DF7AEDC12B6A","409a48ee-0ffd-4aed-92e1-ae55ea8ae6b6","ba640c14-69c5-453e-80b2-29051492c0e0","{""num_scrambled_semantic"":""8"",""num_scrambled_causal"":""4"",""num_scrambled_schematic"":""4"",""participantId"":""7CF9BDBEF5A8487E9059DF7AEDC12B6A"",""assignmentId"":""409a48ee-0ffd-4aed-92e1-ae55ea8ae6b6"",""projectId"":""ba640c14-69c5-453e-80b2-29051492c0e0""}","https://test12345.live/?num_scrambled_semantic=8&num_scrambled_causal=4&num_scrambled_schematic=4&participantId=7CF9BDBEF5A8487E9059DF7AEDC12B6A&assignmentId=409a48ee-0ffd-4aed-92e1-ae55ea8ae6b6&projectId=ba640c14-69c5-453e-80b2-29051492c0e0","7CF9BDBEF5A8487E9059DF7AEDC12B6A-2025-05-14-21-13-02","","null","","[]","null","",""
"","","","","","image-button-response","98","413011","0.0-14.0-1.0-0.3","7CF9BDBEF5A8487E9059DF7AEDC12B6A","7CF9BDBEF5A8487E9059DF7AEDC12B6A","409a48ee-0ffd-4aed-92e1-ae55ea8ae6b6","ba640c14-69c5-453e-80b2-29051492c0e0","{""num_scrambled_semantic"":""8"",""num_scrambled_causal"":""4"",""num_scrambled_schematic"":""4"",""participantId"":""7CF9BDBEF5A8487E9059DF7AEDC12B6A"",""assignmentId"":""409a48ee-0ffd-4aed-92e1-ae55ea8ae6b6"",""projectId"":""ba640c14-69c5-453e-80b2-29051492c0e0""}","https://test12345.live/?num_scrambled_semantic=8&num_scrambled_causal=4&num_scrambled_schematic=4&participantId=7CF9BDBEF5A8487E9059DF7AEDC12B6A&assignmentId=409a48ee-0ffd-4aed-92e1-ae55ea8ae6b6&projectId=ba640c14-69c5-453e-80b2-29051492c0e0","7CF9BDBEF5A8487E9059DF7AEDC12B6A-2025-05-14-21-13-02","","null","","images/semantic_sequence/visiting_cities_semantic/visiting_cities_semantic_7.png","null","",""
"","","","","","image-button-response","99","413680","0.0-14.0-1.0-1.3","7CF9BDBEF5A8487E9059DF7AEDC12B6A","7CF9BDBEF5A8487E9059DF7AEDC12B6A","409a48ee-0ffd-4aed-92e1-ae55ea8ae6b6","ba640c14-69c5-453e-80b2-29051492c0e0","{""num_scrambled_semantic"":""8"",""num_scrambled_causal"":""4"",""num_scrambled_schematic"":""4"",""participantId"":""7CF9BDBEF5A8487E9059DF7AEDC12B6A"",""assignmentId"":""409a48ee-0ffd-4aed-92e1-ae55ea8ae6b6"",""projectId"":""ba640c14-69c5-453e-80b2-29051492c0e0""}","https://test12345.live/?num_scrambled_semantic=8&num_scrambled_causal=4&num_scrambled_schematic=4&participantId=7CF9BDBEF5A8487E9059DF7AEDC12B6A&assignmentId=409a48ee-0ffd-4aed-92e1-ae55ea8ae6b6&projectId=ba640c14-69c5-453e-80b2-29051492c0e0","7CF9BDBEF5A8487E9059DF7AEDC12B6A-2025-05-14-21-13-02","","669","","images/semantic_sequence/visiting_cities_semantic/visiting_cities_semantic_7.png","0","",""
"","","","","","image-button-response","100","415493","0.0-14.0-1.0-2.3","7CF9BDBEF5A8487E9059DF7AEDC12B6A","7CF9BDBEF5A8487E9059DF7AEDC12B6A","409a48ee-0ffd-4aed-92e1-ae55ea8ae6b6","ba640c14-69c5-453e-80b2-29051492c0e0","{""num_scrambled_semantic"":""8"",""num_scrambled_causal"":""4"",""num_scrambled_schematic"":""4"",""participantId"":""7CF9BDBEF5A8487E9059DF7AEDC12B6A"",""assignmentId"":""409a48ee-0ffd-4aed-92e1-ae55ea8ae6b6"",""projectId"":""ba640c14-69c5-453e-80b2-29051492c0e0""}","https://test12345.live/?num_scrambled_semantic=8&num_scrambled_causal=4&num_scrambled_schematic=4&participantId=7CF9BDBEF5A8487E9059DF7AEDC12B6A&assignmentId=409a48ee-0ffd-4aed-92e1-ae55ea8ae6b6&projectId=ba640c14-69c5-453e-80b2-29051492c0e0","7CF9BDBEF5A8487E9059DF7AEDC12B6A-2025-05-14-21-13-02","","null","","[]","null","",""
"","","","","","image-button-response","101","419998","0.0-14.0-1.0-0.4","7CF9BDBEF5A8487E9059DF7AEDC12B6A","7CF9BDBEF5A8487E9059DF7AEDC12B6A","409a48ee-0ffd-4aed-92e1-ae55ea8ae6b6","ba640c14-69c5-453e-80b2-29051492c0e0","{""num_scrambled_semantic"":""8"",""num_scrambled_causal"":""4"",""num_scrambled_schematic"":""4"",""participantId"":""7CF9BDBEF5A8487E9059DF7AEDC12B6A"",""assignmentId"":""409a48ee-0ffd-4aed-92e1-ae55ea8ae6b6"",""projectId"":""ba640c14-69c5-453e-80b2-29051492c0e0""}","https://test12345.live/?num_scrambled_semantic=8&num_scrambled_causal=4&num_scrambled_schematic=4&participantId=7CF9BDBEF5A8487E9059DF7AEDC12B6A&assignmentId=409a48ee-0ffd-4aed-92e1-ae55ea8ae6b6&projectId=ba640c14-69c5-453e-80b2-29051492c0e0","7CF9BDBEF5A8487E9059DF7AEDC12B6A-2025-05-14-21-13-02","","null","","images/semantic_sequence/visiting_cities_semantic/visiting_cities_semantic_4.png","null","",""
"","","","","","image-button-response","102","421025","0.0-14.0-1.0-1.4","7CF9BDBEF5A8487E9059DF7AEDC12B6A","7CF9BDBEF5A8487E9059DF7AEDC12B6A","409a48ee-0ffd-4aed-92e1-ae55ea8ae6b6","ba640c14-69c5-453e-80b2-29051492c0e0","{""num_scrambled_semantic"":""8"",""num_scrambled_causal"":""4"",""num_scrambled_schematic"":""4"",""participantId"":""7CF9BDBEF5A8487E9059DF7AEDC12B6A"",""assignmentId"":""409a48ee-0ffd-4aed-92e1-ae55ea8ae6b6"",""projectId"":""ba640c14-69c5-453e-80b2-29051492c0e0""}","https://test12345.live/?num_scrambled_semantic=8&num_scrambled_causal=4&num_scrambled_schematic=4&participantId=7CF9BDBEF5A8487E9059DF7AEDC12B6A&assignmentId=409a48ee-0ffd-4aed-92e1-ae55ea8ae6b6&projectId=ba640c14-69c5-453e-80b2-29051492c0e0","7CF9BDBEF5A8487E9059DF7AEDC12B6A-2025-05-14-21-13-02","","1027","","images/semantic_sequence/visiting_cities_semantic/visiting_cities_semantic_4.png","1","",""
"","","","","","image-button-response","103","422836","0.0-14.0-1.0-2.4","7CF9BDBEF5A8487E9059DF7AEDC12B6A","7CF9BDBEF5A8487E9059DF7AEDC12B6A","409a48ee-0ffd-4aed-92e1-ae55ea8ae6b6","ba640c14-69c5-453e-80b2-29051492c0e0","{""num_scrambled_semantic"":""8"",""num_scrambled_causal"":""4"",""num_scrambled_schematic"":""4"",""participantId"":""7CF9BDBEF5A8487E9059DF7AEDC12B6A"",""assignmentId"":""409a48ee-0ffd-4aed-92e1-ae55ea8ae6b6"",""projectId"":""ba640c14-69c5-453e-80b2-29051492c0e0""}","https://test12345.live/?num_scrambled_semantic=8&num_scrambled_causal=4&num_scrambled_schematic=4&participantId=7CF9BDBEF5A8487E9059DF7AEDC12B6A&assignmentId=409a48ee-0ffd-4aed-92e1-ae55ea8ae6b6&projectId=ba640c14-69c5-453e-80b2-29051492c0e0","7CF9BDBEF5A8487E9059DF7AEDC12B6A-2025-05-14-21-13-02","","null","","[]","null","",""
"","","","","","image-button-response","104","427338","0.0-14.0-1.0-0.5","7CF9BDBEF5A8487E9059DF7AEDC12B6A","7CF9BDBEF5A8487E9059DF7AEDC12B6A","409a48ee-0ffd-4aed-92e1-ae55ea8ae6b6","ba640c14-69c5-453e-80b2-29051492c0e0","{""num_scrambled_semantic"":""8"",""num_scrambled_causal"":""4"",""num_scrambled_schematic"":""4"",""participantId"":""7CF9BDBEF5A8487E9059DF7AEDC12B6A"",""assignmentId"":""409a48ee-0ffd-4aed-92e1-ae55ea8ae6b6"",""projectId"":""ba640c14-69c5-453e-80b2-29051492c0e0""}","https://test12345.live/?num_scrambled_semantic=8&num_scrambled_causal=4&num_scrambled_schematic=4&participantId=7CF9BDBEF5A8487E9059DF7AEDC12B6A&assignmentId=409a48ee-0ffd-4aed-92e1-ae55ea8ae6b6&projectId=ba640c14-69c5-453e-80b2-29051492c0e0","7CF9BDBEF5A8487E9059DF7AEDC12B6A-2025-05-14-21-13-02","","null","","images/semantic_sequence/visiting_cities_semantic/visiting_cities_semantic_2.png","null","",""
"","","","","","image-button-response","105","428085","0.0-14.0-1.0-1.5","7CF9BDBEF5A8487E9059DF7AEDC12B6A","7CF9BDBEF5A8487E9059DF7AEDC12B6A","409a48ee-0ffd-4aed-92e1-ae55ea8ae6b6","ba640c14-69c5-453e-80b2-29051492c0e0","{""num_scrambled_semantic"":""8"",""num_scrambled_causal"":""4"",""num_scrambled_schematic"":""4"",""participantId"":""7CF9BDBEF5A8487E9059DF7AEDC12B6A"",""assignmentId"":""409a48ee-0ffd-4aed-92e1-ae55ea8ae6b6"",""projectId"":""ba640c14-69c5-453e-80b2-29051492c0e0""}","https://test12345.live/?num_scrambled_semantic=8&num_scrambled_causal=4&num_scrambled_schematic=4&participantId=7CF9BDBEF5A8487E9059DF7AEDC12B6A&assignmentId=409a48ee-0ffd-4aed-92e1-ae55ea8ae6b6&projectId=ba640c14-69c5-453e-80b2-29051492c0e0","7CF9BDBEF5A8487E9059DF7AEDC12B6A-2025-05-14-21-13-02","","746","","images/semantic_sequence/visiting_cities_semantic/visiting_cities_semantic_2.png","1","",""
"","","","","","image-button-response","106","429888","0.0-14.0-1.0-2.5","7CF9BDBEF5A8487E9059DF7AEDC12B6A","7CF9BDBEF5A8487E9059DF7AEDC12B6A","409a48ee-0ffd-4aed-92e1-ae55ea8ae6b6","ba640c14-69c5-453e-80b2-29051492c0e0","{""num_scrambled_semantic"":""8"",""num_scrambled_causal"":""4"",""num_scrambled_schematic"":""4"",""participantId"":""7CF9BDBEF5A8487E9059DF7AEDC12B6A"",""assignmentId"":""409a48ee-0ffd-4aed-92e1-ae55ea8ae6b6"",""projectId"":""ba640c14-69c5-453e-80b2-29051492c0e0""}","https://test12345.live/?num_scrambled_semantic=8&num_scrambled_causal=4&num_scrambled_schematic=4&participantId=7CF9BDBEF5A8487E9059DF7AEDC12B6A&assignmentId=409a48ee-0ffd-4aed-92e1-ae55ea8ae6b6&projectId=ba640c14-69c5-453e-80b2-29051492c0e0","7CF9BDBEF5A8487E9059DF7AEDC12B6A-2025-05-14-21-13-02","","null","","[]","null","",""
"","","","","","image-button-response","107","434401","0.0-14.0-1.0-0.6","7CF9BDBEF5A8487E9059DF7AEDC12B6A","7CF9BDBEF5A8487E9059DF7AEDC12B6A","409a48ee-0ffd-4aed-92e1-ae55ea8ae6b6","ba640c14-69c5-453e-80b2-29051492c0e0","{""num_scrambled_semantic"":""8"",""num_scrambled_causal"":""4"",""num_scrambled_schematic"":""4"",""participantId"":""7CF9BDBEF5A8487E9059DF7AEDC12B6A"",""assignmentId"":""409a48ee-0ffd-4aed-92e1-ae55ea8ae6b6"",""projectId"":""ba640c14-69c5-453e-80b2-29051492c0e0""}","https://test12345.live/?num_scrambled_semantic=8&num_scrambled_causal=4&num_scrambled_schematic=4&participantId=7CF9BDBEF5A8487E9059DF7AEDC12B6A&assignmentId=409a48ee-0ffd-4aed-92e1-ae55ea8ae6b6&projectId=ba640c14-69c5-453e-80b2-29051492c0e0","7CF9BDBEF5A8487E9059DF7AEDC12B6A-2025-05-14-21-13-02","","null","","images/semantic_sequence/visiting_cities_semantic/visiting_cities_semantic_3.png","null","",""
"","","","","","image-button-response","108","435286","0.0-14.0-1.0-1.6","7CF9BDBEF5A8487E9059DF7AEDC12B6A","7CF9BDBEF5A8487E9059DF7AEDC12B6A","409a48ee-0ffd-4aed-92e1-ae55ea8ae6b6","ba640c14-69c5-453e-80b2-29051492c0e0","{""num_scrambled_semantic"":""8"",""num_scrambled_causal"":""4"",""num_scrambled_schematic"":""4"",""participantId"":""7CF9BDBEF5A8487E9059DF7AEDC12B6A"",""assignmentId"":""409a48ee-0ffd-4aed-92e1-ae55ea8ae6b6"",""projectId"":""ba640c14-69c5-453e-80b2-29051492c0e0""}","https://test12345.live/?num_scrambled_semantic=8&num_scrambled_causal=4&num_scrambled_schematic=4&participantId=7CF9BDBEF5A8487E9059DF7AEDC12B6A&assignmentId=409a48ee-0ffd-4aed-92e1-ae55ea8ae6b6&projectId=ba640c14-69c5-453e-80b2-29051492c0e0","7CF9BDBEF5A8487E9059DF7AEDC12B6A-2025-05-14-21-13-02","","883","","images/semantic_sequence/visiting_cities_semantic/visiting_cities_semantic_3.png","1","",""
"","","","","","image-button-response","109","437100","0.0-14.0-1.0-2.6","7CF9BDBEF5A8487E9059DF7AEDC12B6A","7CF9BDBEF5A8487E9059DF7AEDC12B6A","409a48ee-0ffd-4aed-92e1-ae55ea8ae6b6","ba640c14-69c5-453e-80b2-29051492c0e0","{""num_scrambled_semantic"":""8"",""num_scrambled_causal"":""4"",""num_scrambled_schematic"":""4"",""participantId"":""7CF9BDBEF5A8487E9059DF7AEDC12B6A"",""assignmentId"":""409a48ee-0ffd-4aed-92e1-ae55ea8ae6b6"",""projectId"":""ba640c14-69c5-453e-80b2-29051492c0e0""}","https://test12345.live/?num_scrambled_semantic=8&num_scrambled_causal=4&num_scrambled_schematic=4&participantId=7CF9BDBEF5A8487E9059DF7AEDC12B6A&assignmentId=409a48ee-0ffd-4aed-92e1-ae55ea8ae6b6&projectId=ba640c14-69c5-453e-80b2-29051492c0e0","7CF9BDBEF5A8487E9059DF7AEDC12B6A-2025-05-14-21-13-02","","null","","[]","null","",""
"","","","","","image-button-response","110","441614","0.0-14.0-1.0-0.7","7CF9BDBEF5A8487E9059DF7AEDC12B6A","7CF9BDBEF5A8487E9059DF7AEDC12B6A","409a48ee-0ffd-4aed-92e1-ae55ea8ae6b6","ba640c14-69c5-453e-80b2-29051492c0e0","{""num_scrambled_semantic"":""8"",""num_scrambled_causal"":""4"",""num_scrambled_schematic"":""4"",""participantId"":""7CF9BDBEF5A8487E9059DF7AEDC12B6A"",""assignmentId"":""409a48ee-0ffd-4aed-92e1-ae55ea8ae6b6"",""projectId"":""ba640c14-69c5-453e-80b2-29051492c0e0""}","https://test12345.live/?num_scrambled_semantic=8&num_scrambled_causal=4&num_scrambled_schematic=4&participantId=7CF9BDBEF5A8487E9059DF7AEDC12B6A&assignmentId=409a48ee-0ffd-4aed-92e1-ae55ea8ae6b6&projectId=ba640c14-69c5-453e-80b2-29051492c0e0","7CF9BDBEF5A8487E9059DF7AEDC12B6A-2025-05-14-21-13-02","","null","","images/semantic_sequence/visiting_cities_semantic/visiting_cities_semantic_ten.png","null","",""
"","","","","","image-button-response","111","442644","0.0-14.0-1.0-1.7","7CF9BDBEF5A8487E9059DF7AEDC12B6A","7CF9BDBEF5A8487E9059DF7AEDC12B6A","409a48ee-0ffd-4aed-92e1-ae55ea8ae6b6","ba640c14-69c5-453e-80b2-29051492c0e0","{""num_scrambled_semantic"":""8"",""num_scrambled_causal"":""4"",""num_scrambled_schematic"":""4"",""participantId"":""7CF9BDBEF5A8487E9059DF7AEDC12B6A"",""assignmentId"":""409a48ee-0ffd-4aed-92e1-ae55ea8ae6b6"",""projectId"":""ba640c14-69c5-453e-80b2-29051492c0e0""}","https://test12345.live/?num_scrambled_semantic=8&num_scrambled_causal=4&num_scrambled_schematic=4&participantId=7CF9BDBEF5A8487E9059DF7AEDC12B6A&assignmentId=409a48ee-0ffd-4aed-92e1-ae55ea8ae6b6&projectId=ba640c14-69c5-453e-80b2-29051492c0e0","7CF9BDBEF5A8487E9059DF7AEDC12B6A-2025-05-14-21-13-02","","1030","","images/semantic_sequence/visiting_cities_semantic/visiting_cities_semantic_ten.png","1","",""
"","","","","","image-button-response","112","444449","0.0-14.0-1.0-2.7","7CF9BDBEF5A8487E9059DF7AEDC12B6A","7CF9BDBEF5A8487E9059DF7AEDC12B6A","409a48ee-0ffd-4aed-92e1-ae55ea8ae6b6","ba640c14-69c5-453e-80b2-29051492c0e0","{""num_scrambled_semantic"":""8"",""num_scrambled_causal"":""4"",""num_scrambled_schematic"":""4"",""participantId"":""7CF9BDBEF5A8487E9059DF7AEDC12B6A"",""assignmentId"":""409a48ee-0ffd-4aed-92e1-ae55ea8ae6b6"",""projectId"":""ba640c14-69c5-453e-80b2-29051492c0e0""}","https://test12345.live/?num_scrambled_semantic=8&num_scrambled_causal=4&num_scrambled_schematic=4&participantId=7CF9BDBEF5A8487E9059DF7AEDC12B6A&assignmentId=409a48ee-0ffd-4aed-92e1-ae55ea8ae6b6&projectId=ba640c14-69c5-453e-80b2-29051492c0e0","7CF9BDBEF5A8487E9059DF7AEDC12B6A-2025-05-14-21-13-02","","null","","[]","null","",""
"","","","","","image-button-response","113","448954","0.0-14.0-1.0-0.8","7CF9BDBEF5A8487E9059DF7AEDC12B6A","7CF9BDBEF5A8487E9059DF7AEDC12B6A","409a48ee-0ffd-4aed-92e1-ae55ea8ae6b6","ba640c14-69c5-453e-80b2-29051492c0e0","{""num_scrambled_semantic"":""8"",""num_scrambled_causal"":""4"",""num_scrambled_schematic"":""4"",""participantId"":""7CF9BDBEF5A8487E9059DF7AEDC12B6A"",""assignmentId"":""409a48ee-0ffd-4aed-92e1-ae55ea8ae6b6"",""projectId"":""ba640c14-69c5-453e-80b2-29051492c0e0""}","https://test12345.live/?num_scrambled_semantic=8&num_scrambled_causal=4&num_scrambled_schematic=4&participantId=7CF9BDBEF5A8487E9059DF7AEDC12B6A&assignmentId=409a48ee-0ffd-4aed-92e1-ae55ea8ae6b6&projectId=ba640c14-69c5-453e-80b2-29051492c0e0","7CF9BDBEF5A8487E9059DF7AEDC12B6A-2025-05-14-21-13-02","","null","","images/semantic_sequence/visiting_cities_semantic/visiting_cities_semantic_6.png","null","",""
