"success","timeout","failed_images","failed_audio","failed_video","trial_type","trial_index","time_elapsed","internal_node_id","subject","subject_id","study_id","session_id","urlvar","current_url","audio_id","view_history","rt","device_id","stimulus","response","estimated_stimulus_onset","seq_name"
"true","false","[]","[]","[]","preload","0","5146","0.0-0.0","7D0CC43EFF454085A097E314118598BA","7D0CC43EFF454085A097E314118598BA","4614010a-1409-456f-9c99-f6e1b44c10b5","051c06f1-75cc-4548-856d-4923ddaba0dc","{""num_scrambled_semantic"":""8"",""num_scrambled_causal"":""4"",""num_scrambled_schematic"":""4"",""participantId"":""7D0CC43EFF454085A097E314118598BA"",""assignmentId"":""4614010a-1409-456f-9c99-f6e1b44c10b5"",""projectId"":""051c06f1-75cc-4548-856d-4923ddaba0dc""}","https://test12345.live/?num_scrambled_semantic=8&num_scrambled_causal=4&num_scrambled_schematic=4&participantId=7D0CC43EFF454085A097E314118598BA&assignmentId=4614010a-1409-456f-9c99-f6e1b44c10b5&projectId=051c06f1-75cc-4548-856d-4923ddaba0dc","7D0CC43EFF454085A097E314118598BA-2025-05-15-20-45-16","","","","","","",""
"","","","","","instructions","1","41304","0.0-1.0","7D0CC43EFF454085A097E314118598BA","7D0CC43EFF454085A097E314118598BA","4614010a-1409-456f-9c99-f6e1b44c10b5","051c06f1-75cc-4548-856d-4923ddaba0dc","{""num_scrambled_semantic"":""8"",""num_scrambled_causal"":""4"",""num_scrambled_schematic"":""4"",""participantId"":""7D0CC43EFF454085A097E314118598BA"",""assignmentId"":""4614010a-1409-456f-9c99-f6e1b44c10b5"",""projectId"":""051c06f1-75cc-4548-856d-4923ddaba0dc""}","https://test12345.live/?num_scrambled_semantic=8&num_scrambled_causal=4&num_scrambled_schematic=4&participantId=7D0CC43EFF454085A097E314118598BA&assignmentId=4614010a-1409-456f-9c99-f6e1b44c10b5&projectId=051c06f1-75cc-4548-856d-4923ddaba0dc","7D0CC43EFF454085A097E314118598BA-2025-05-15-20-45-16","[{""page_index"":0,""viewing_time"":36158}]","36158","","","","",""
"","","","","","instructions","2","78260","0.0-2.0","7D0CC43EFF454085A097E314118598BA","7D0CC43EFF454085A097E314118598BA","4614010a-1409-456f-9c99-f6e1b44c10b5","051c06f1-75cc-4548-856d-4923ddaba0dc","{""num_scrambled_semantic"":""8"",""num_scrambled_causal"":""4"",""num_scrambled_schematic"":""4"",""participantId"":""7D0CC43EFF454085A097E314118598BA"",""assignmentId"":""4614010a-1409-456f-9c99-f6e1b44c10b5"",""projectId"":""051c06f1-75cc-4548-856d-4923ddaba0dc""}","https://test12345.live/?num_scrambled_semantic=8&num_scrambled_causal=4&num_scrambled_schematic=4&participantId=7D0CC43EFF454085A097E314118598BA&assignmentId=4614010a-1409-456f-9c99-f6e1b44c10b5&projectId=051c06f1-75cc-4548-856d-4923ddaba0dc","7D0CC43EFF454085A097E314118598BA-2025-05-15-20-45-16","[{""page_index"":0,""viewing_time"":36955}]","36955","","","","",""
"true","","","","","fullscreen","3","82117","0.0-3.0","7D0CC43EFF454085A097E314118598BA","7D0CC43EFF454085A097E314118598BA","4614010a-1409-456f-9c99-f6e1b44c10b5","051c06f1-75cc-4548-856d-4923ddaba0dc","{""num_scrambled_semantic"":""8"",""num_scrambled_causal"":""4"",""num_scrambled_schematic"":""4"",""participantId"":""7D0CC43EFF454085A097E314118598BA"",""assignmentId"":""4614010a-1409-456f-9c99-f6e1b44c10b5"",""projectId"":""051c06f1-75cc-4548-856d-4923ddaba0dc""}","https://test12345.live/?num_scrambled_semantic=8&num_scrambled_causal=4&num_scrambled_schematic=4&participantId=7D0CC43EFF454085A097E314118598BA&assignmentId=4614010a-1409-456f-9c99-f6e1b44c10b5&projectId=051c06f1-75cc-4548-856d-4923ddaba0dc","7D0CC43EFF454085A097E314118598BA-2025-05-15-20-45-16","","2844","","","","",""
"","","","","","initialize-microphone","4","110277","0.0-4.0-0.0","7D0CC43EFF454085A097E314118598BA","7D0CC43EFF454085A097E314118598BA","4614010a-1409-456f-9c99-f6e1b44c10b5","051c06f1-75cc-4548-856d-4923ddaba0dc","{""num_scrambled_semantic"":""8"",""num_scrambled_causal"":""4"",""num_scrambled_schematic"":""4"",""participantId"":""7D0CC43EFF454085A097E314118598BA"",""assignmentId"":""4614010a-1409-456f-9c99-f6e1b44c10b5"",""projectId"":""051c06f1-75cc-4548-856d-4923ddaba0dc""}","https://test12345.live/?num_scrambled_semantic=8&num_scrambled_causal=4&num_scrambled_schematic=4&participantId=7D0CC43EFF454085A097E314118598BA&assignmentId=4614010a-1409-456f-9c99-f6e1b44c10b5&projectId=051c06f1-75cc-4548-856d-4923ddaba0dc","7D0CC43EFF454085A097E314118598BA-2025-05-15-20-45-16","","","259ef4f3ce5d43df16ca1724c6ea4fcbcd3cf19bc2d1470fff70f0a47be9eace","","","",""
"","","","","","html-audio-response","5","132907","0.0-4.0-1.0","7D0CC43EFF454085A097E314118598BA","7D0CC43EFF454085A097E314118598BA","4614010a-1409-456f-9c99-f6e1b44c10b5","051c06f1-75cc-4548-856d-4923ddaba0dc","{""num_scrambled_semantic"":""8"",""num_scrambled_causal"":""4"",""num_scrambled_schematic"":""4"",""participantId"":""7D0CC43EFF454085A097E314118598BA"",""assignmentId"":""4614010a-1409-456f-9c99-f6e1b44c10b5"",""projectId"":""051c06f1-75cc-4548-856d-4923ddaba0dc""}","https://test12345.live/?num_scrambled_semantic=8&num_scrambled_causal=4&num_scrambled_schematic=4&participantId=7D0CC43EFF454085A097E314118598BA&assignmentId=4614010a-1409-456f-9c99-f6e1b44c10b5&projectId=051c06f1-75cc-4548-856d-4923ddaba0dc","7D0CC43EFF454085A097E314118598BA-2025-05-15-20-45-16","","9603","","<span style=""color: red; font-size: 24px""> NOW RECORDING</span>
        <p>Please test Microphone</p>","","5",""
"","","","","","html-button-response","6","134702","0.0-4.0-2.0","7D0CC43EFF454085A097E314118598BA","7D0CC43EFF454085A097E314118598BA","4614010a-1409-456f-9c99-f6e1b44c10b5","051c06f1-75cc-4548-856d-4923ddaba0dc","{""num_scrambled_semantic"":""8"",""num_scrambled_causal"":""4"",""num_scrambled_schematic"":""4"",""participantId"":""7D0CC43EFF454085A097E314118598BA"",""assignmentId"":""4614010a-1409-456f-9c99-f6e1b44c10b5"",""projectId"":""051c06f1-75cc-4548-856d-4923ddaba0dc""}","https://test12345.live/?num_scrambled_semantic=8&num_scrambled_causal=4&num_scrambled_schematic=4&participantId=7D0CC43EFF454085A097E314118598BA&assignmentId=4614010a-1409-456f-9c99-f6e1b44c10b5&projectId=051c06f1-75cc-4548-856d-4923ddaba0dc","7D0CC43EFF454085A097E314118598BA-2025-05-15-20-45-16","","1794","","<p style=""font-size:48px; color:red;"">Is Microphone OK?</p>","1","",""
"","","","","","instructions","7","152006","0.0-5.0","7D0CC43EFF454085A097E314118598BA","7D0CC43EFF454085A097E314118598BA","4614010a-1409-456f-9c99-f6e1b44c10b5","051c06f1-75cc-4548-856d-4923ddaba0dc","{""num_scrambled_semantic"":""8"",""num_scrambled_causal"":""4"",""num_scrambled_schematic"":""4"",""participantId"":""7D0CC43EFF454085A097E314118598BA"",""assignmentId"":""4614010a-1409-456f-9c99-f6e1b44c10b5"",""projectId"":""051c06f1-75cc-4548-856d-4923ddaba0dc""}","https://test12345.live/?num_scrambled_semantic=8&num_scrambled_causal=4&num_scrambled_schematic=4&participantId=7D0CC43EFF454085A097E314118598BA&assignmentId=4614010a-1409-456f-9c99-f6e1b44c10b5&projectId=051c06f1-75cc-4548-856d-4923ddaba0dc","7D0CC43EFF454085A097E314118598BA-2025-05-15-20-45-16","[{""page_index"":0,""viewing_time"":4653},{""page_index"":1,""viewing_time"":12651}]","17304","","","","",""
"","","","","","image-button-response","8","158018","0.0-6.0-0.0","7D0CC43EFF454085A097E314118598BA","7D0CC43EFF454085A097E314118598BA","4614010a-1409-456f-9c99-f6e1b44c10b5","051c06f1-75cc-4548-856d-4923ddaba0dc","{""num_scrambled_semantic"":""8"",""num_scrambled_causal"":""4"",""num_scrambled_schematic"":""4"",""participantId"":""7D0CC43EFF454085A097E314118598BA"",""assignmentId"":""4614010a-1409-456f-9c99-f6e1b44c10b5"",""projectId"":""051c06f1-75cc-4548-856d-4923ddaba0dc""}","https://test12345.live/?num_scrambled_semantic=8&num_scrambled_causal=4&num_scrambled_schematic=4&participantId=7D0CC43EFF454085A097E314118598BA&assignmentId=4614010a-1409-456f-9c99-f6e1b44c10b5&projectId=051c06f1-75cc-4548-856d-4923ddaba0dc","7D0CC43EFF454085A097E314118598BA-2025-05-15-20-45-16","","null","","images/instructions/movie_0.png","null","",""
"","","","","","image-button-response","9","162526","0.0-6.0-1.0-0.0","7D0CC43EFF454085A097E314118598BA","7D0CC43EFF454085A097E314118598BA","4614010a-1409-456f-9c99-f6e1b44c10b5","051c06f1-75cc-4548-856d-4923ddaba0dc","{""num_scrambled_semantic"":""8"",""num_scrambled_causal"":""4"",""num_scrambled_schematic"":""4"",""participantId"":""7D0CC43EFF454085A097E314118598BA"",""assignmentId"":""4614010a-1409-456f-9c99-f6e1b44c10b5"",""projectId"":""051c06f1-75cc-4548-856d-4923ddaba0dc""}","https://test12345.live/?num_scrambled_semantic=8&num_scrambled_causal=4&num_scrambled_schematic=4&participantId=7D0CC43EFF454085A097E314118598BA&assignmentId=4614010a-1409-456f-9c99-f6e1b44c10b5&projectId=051c06f1-75cc-4548-856d-4923ddaba0dc","7D0CC43EFF454085A097E314118598BA-2025-05-15-20-45-16","","null","","images/instructions/movie_1.png","null","",""
"","","","","","image-button-response","10","164878","0.0-6.0-1.0-1.0","7D0CC43EFF454085A097E314118598BA","7D0CC43EFF454085A097E314118598BA","4614010a-1409-456f-9c99-f6e1b44c10b5","051c06f1-75cc-4548-856d-4923ddaba0dc","{""num_scrambled_semantic"":""8"",""num_scrambled_causal"":""4"",""num_scrambled_schematic"":""4"",""participantId"":""7D0CC43EFF454085A097E314118598BA"",""assignmentId"":""4614010a-1409-456f-9c99-f6e1b44c10b5"",""projectId"":""051c06f1-75cc-4548-856d-4923ddaba0dc""}","https://test12345.live/?num_scrambled_semantic=8&num_scrambled_causal=4&num_scrambled_schematic=4&participantId=7D0CC43EFF454085A097E314118598BA&assignmentId=4614010a-1409-456f-9c99-f6e1b44c10b5&projectId=051c06f1-75cc-4548-856d-4923ddaba0dc","7D0CC43EFF454085A097E314118598BA-2025-05-15-20-45-16","","2351","","images/instructions/movie_1.png","0","",""
"","","","","","image-button-response","11","166685","0.0-6.0-1.0-2.0","7D0CC43EFF454085A097E314118598BA","7D0CC43EFF454085A097E314118598BA","4614010a-1409-456f-9c99-f6e1b44c10b5","051c06f1-75cc-4548-856d-4923ddaba0dc","{""num_scrambled_semantic"":""8"",""num_scrambled_causal"":""4"",""num_scrambled_schematic"":""4"",""participantId"":""7D0CC43EFF454085A097E314118598BA"",""assignmentId"":""4614010a-1409-456f-9c99-f6e1b44c10b5"",""projectId"":""051c06f1-75cc-4548-856d-4923ddaba0dc""}","https://test12345.live/?num_scrambled_semantic=8&num_scrambled_causal=4&num_scrambled_schematic=4&participantId=7D0CC43EFF454085A097E314118598BA&assignmentId=4614010a-1409-456f-9c99-f6e1b44c10b5&projectId=051c06f1-75cc-4548-856d-4923ddaba0dc","7D0CC43EFF454085A097E314118598BA-2025-05-15-20-45-16","","null","","[]","null","",""
"","","","","","image-button-response","12","171200","0.0-6.0-1.0-0.1","7D0CC43EFF454085A097E314118598BA","7D0CC43EFF454085A097E314118598BA","4614010a-1409-456f-9c99-f6e1b44c10b5","051c06f1-75cc-4548-856d-4923ddaba0dc","{""num_scrambled_semantic"":""8"",""num_scrambled_causal"":""4"",""num_scrambled_schematic"":""4"",""participantId"":""7D0CC43EFF454085A097E314118598BA"",""assignmentId"":""4614010a-1409-456f-9c99-f6e1b44c10b5"",""projectId"":""051c06f1-75cc-4548-856d-4923ddaba0dc""}","https://test12345.live/?num_scrambled_semantic=8&num_scrambled_causal=4&num_scrambled_schematic=4&participantId=7D0CC43EFF454085A097E314118598BA&assignmentId=4614010a-1409-456f-9c99-f6e1b44c10b5&projectId=051c06f1-75cc-4548-856d-4923ddaba0dc","7D0CC43EFF454085A097E314118598BA-2025-05-15-20-45-16","","null","","images/instructions/movie_2.png","null","",""
"","","","","","image-button-response","13","173174","0.0-6.0-1.0-1.1","7D0CC43EFF454085A097E314118598BA","7D0CC43EFF454085A097E314118598BA","4614010a-1409-456f-9c99-f6e1b44c10b5","051c06f1-75cc-4548-856d-4923ddaba0dc","{""num_scrambled_semantic"":""8"",""num_scrambled_causal"":""4"",""num_scrambled_schematic"":""4"",""participantId"":""7D0CC43EFF454085A097E314118598BA"",""assignmentId"":""4614010a-1409-456f-9c99-f6e1b44c10b5"",""projectId"":""051c06f1-75cc-4548-856d-4923ddaba0dc""}","https://test12345.live/?num_scrambled_semantic=8&num_scrambled_causal=4&num_scrambled_schematic=4&participantId=7D0CC43EFF454085A097E314118598BA&assignmentId=4614010a-1409-456f-9c99-f6e1b44c10b5&projectId=051c06f1-75cc-4548-856d-4923ddaba0dc","7D0CC43EFF454085A097E314118598BA-2025-05-15-20-45-16","","1973","","images/instructions/movie_2.png","0","",""
"","","","","","image-button-response","14","174976","0.0-6.0-1.0-2.1","7D0CC43EFF454085A097E314118598BA","7D0CC43EFF454085A097E314118598BA","4614010a-1409-456f-9c99-f6e1b44c10b5","051c06f1-75cc-4548-856d-4923ddaba0dc","{""num_scrambled_semantic"":""8"",""num_scrambled_causal"":""4"",""num_scrambled_schematic"":""4"",""participantId"":""7D0CC43EFF454085A097E314118598BA"",""assignmentId"":""4614010a-1409-456f-9c99-f6e1b44c10b5"",""projectId"":""051c06f1-75cc-4548-856d-4923ddaba0dc""}","https://test12345.live/?num_scrambled_semantic=8&num_scrambled_causal=4&num_scrambled_schematic=4&participantId=7D0CC43EFF454085A097E314118598BA&assignmentId=4614010a-1409-456f-9c99-f6e1b44c10b5&projectId=051c06f1-75cc-4548-856d-4923ddaba0dc","7D0CC43EFF454085A097E314118598BA-2025-05-15-20-45-16","","null","","[]","null","",""
"","","","","","image-button-response","15","179484","0.0-6.0-1.0-0.2","7D0CC43EFF454085A097E314118598BA","7D0CC43EFF454085A097E314118598BA","4614010a-1409-456f-9c99-f6e1b44c10b5","051c06f1-75cc-4548-856d-4923ddaba0dc","{""num_scrambled_semantic"":""8"",""num_scrambled_causal"":""4"",""num_scrambled_schematic"":""4"",""participantId"":""7D0CC43EFF454085A097E314118598BA"",""assignmentId"":""4614010a-1409-456f-9c99-f6e1b44c10b5"",""projectId"":""051c06f1-75cc-4548-856d-4923ddaba0dc""}","https://test12345.live/?num_scrambled_semantic=8&num_scrambled_causal=4&num_scrambled_schematic=4&participantId=7D0CC43EFF454085A097E314118598BA&assignmentId=4614010a-1409-456f-9c99-f6e1b44c10b5&projectId=051c06f1-75cc-4548-856d-4923ddaba0dc","7D0CC43EFF454085A097E314118598BA-2025-05-15-20-45-16","","null","","images/instructions/movie_3.png","null","",""
"","","","","","image-button-response","16","181123","0.0-6.0-1.0-1.2","7D0CC43EFF454085A097E314118598BA","7D0CC43EFF454085A097E314118598BA","4614010a-1409-456f-9c99-f6e1b44c10b5","051c06f1-75cc-4548-856d-4923ddaba0dc","{""num_scrambled_semantic"":""8"",""num_scrambled_causal"":""4"",""num_scrambled_schematic"":""4"",""participantId"":""7D0CC43EFF454085A097E314118598BA"",""assignmentId"":""4614010a-1409-456f-9c99-f6e1b44c10b5"",""projectId"":""051c06f1-75cc-4548-856d-4923ddaba0dc""}","https://test12345.live/?num_scrambled_semantic=8&num_scrambled_causal=4&num_scrambled_schematic=4&participantId=7D0CC43EFF454085A097E314118598BA&assignmentId=4614010a-1409-456f-9c99-f6e1b44c10b5&projectId=051c06f1-75cc-4548-856d-4923ddaba0dc","7D0CC43EFF454085A097E314118598BA-2025-05-15-20-45-16","","1638","","images/instructions/movie_3.png","0","",""
"","","","","","image-button-response","17","182925","0.0-6.0-1.0-2.2","7D0CC43EFF454085A097E314118598BA","7D0CC43EFF454085A097E314118598BA","4614010a-1409-456f-9c99-f6e1b44c10b5","051c06f1-75cc-4548-856d-4923ddaba0dc","{""num_scrambled_semantic"":""8"",""num_scrambled_causal"":""4"",""num_scrambled_schematic"":""4"",""participantId"":""7D0CC43EFF454085A097E314118598BA"",""assignmentId"":""4614010a-1409-456f-9c99-f6e1b44c10b5"",""projectId"":""051c06f1-75cc-4548-856d-4923ddaba0dc""}","https://test12345.live/?num_scrambled_semantic=8&num_scrambled_causal=4&num_scrambled_schematic=4&participantId=7D0CC43EFF454085A097E314118598BA&assignmentId=4614010a-1409-456f-9c99-f6e1b44c10b5&projectId=051c06f1-75cc-4548-856d-4923ddaba0dc","7D0CC43EFF454085A097E314118598BA-2025-05-15-20-45-16","","null","","[]","null","",""
"","","","","","image-button-response","18","187438","0.0-6.0-1.0-0.3","7D0CC43EFF454085A097E314118598BA","7D0CC43EFF454085A097E314118598BA","4614010a-1409-456f-9c99-f6e1b44c10b5","051c06f1-75cc-4548-856d-4923ddaba0dc","{""num_scrambled_semantic"":""8"",""num_scrambled_causal"":""4"",""num_scrambled_schematic"":""4"",""participantId"":""7D0CC43EFF454085A097E314118598BA"",""assignmentId"":""4614010a-1409-456f-9c99-f6e1b44c10b5"",""projectId"":""051c06f1-75cc-4548-856d-4923ddaba0dc""}","https://test12345.live/?num_scrambled_semantic=8&num_scrambled_causal=4&num_scrambled_schematic=4&participantId=7D0CC43EFF454085A097E314118598BA&assignmentId=4614010a-1409-456f-9c99-f6e1b44c10b5&projectId=051c06f1-75cc-4548-856d-4923ddaba0dc","7D0CC43EFF454085A097E314118598BA-2025-05-15-20-45-16","","null","","images/instructions/movie_4.png","null","",""
"","","","","","image-button-response","19","188682","0.0-6.0-1.0-1.3","7D0CC43EFF454085A097E314118598BA","7D0CC43EFF454085A097E314118598BA","4614010a-1409-456f-9c99-f6e1b44c10b5","051c06f1-75cc-4548-856d-4923ddaba0dc","{""num_scrambled_semantic"":""8"",""num_scrambled_causal"":""4"",""num_scrambled_schematic"":""4"",""participantId"":""7D0CC43EFF454085A097E314118598BA"",""assignmentId"":""4614010a-1409-456f-9c99-f6e1b44c10b5"",""projectId"":""051c06f1-75cc-4548-856d-4923ddaba0dc""}","https://test12345.live/?num_scrambled_semantic=8&num_scrambled_causal=4&num_scrambled_schematic=4&participantId=7D0CC43EFF454085A097E314118598BA&assignmentId=4614010a-1409-456f-9c99-f6e1b44c10b5&projectId=051c06f1-75cc-4548-856d-4923ddaba0dc","7D0CC43EFF454085A097E314118598BA-2025-05-15-20-45-16","","1243","","images/instructions/movie_4.png","0","",""
"","","","","","image-button-response","20","190496","0.0-6.0-1.0-2.3","7D0CC43EFF454085A097E314118598BA","7D0CC43EFF454085A097E314118598BA","4614010a-1409-456f-9c99-f6e1b44c10b5","051c06f1-75cc-4548-856d-4923ddaba0dc","{""num_scrambled_semantic"":""8"",""num_scrambled_causal"":""4"",""num_scrambled_schematic"":""4"",""participantId"":""7D0CC43EFF454085A097E314118598BA"",""assignmentId"":""4614010a-1409-456f-9c99-f6e1b44c10b5"",""projectId"":""051c06f1-75cc-4548-856d-4923ddaba0dc""}","https://test12345.live/?num_scrambled_semantic=8&num_scrambled_causal=4&num_scrambled_schematic=4&participantId=7D0CC43EFF454085A097E314118598BA&assignmentId=4614010a-1409-456f-9c99-f6e1b44c10b5&projectId=051c06f1-75cc-4548-856d-4923ddaba0dc","7D0CC43EFF454085A097E314118598BA-2025-05-15-20-45-16","","null","","[]","null","",""
"","","","","","instructions","21","203902","0.0-7.0","7D0CC43EFF454085A097E314118598BA","7D0CC43EFF454085A097E314118598BA","4614010a-1409-456f-9c99-f6e1b44c10b5","051c06f1-75cc-4548-856d-4923ddaba0dc","{""num_scrambled_semantic"":""8"",""num_scrambled_causal"":""4"",""num_scrambled_schematic"":""4"",""participantId"":""7D0CC43EFF454085A097E314118598BA"",""assignmentId"":""4614010a-1409-456f-9c99-f6e1b44c10b5"",""projectId"":""051c06f1-75cc-4548-856d-4923ddaba0dc""}","https://test12345.live/?num_scrambled_semantic=8&num_scrambled_causal=4&num_scrambled_schematic=4&participantId=7D0CC43EFF454085A097E314118598BA&assignmentId=4614010a-1409-456f-9c99-f6e1b44c10b5&projectId=051c06f1-75cc-4548-856d-4923ddaba0dc","7D0CC43EFF454085A097E314118598BA-2025-05-15-20-45-16","[{""page_index"":0,""viewing_time"":8609},{""page_index"":1,""viewing_time"":1413},{""page_index"":0,""viewing_time"":2597},{""page_index"":1,""viewing_time"":788}]","13406","","","","",""
"","","","","","html-audio-response","22","222038","0.0-8.0","7D0CC43EFF454085A097E314118598BA","7D0CC43EFF454085A097E314118598BA","4614010a-1409-456f-9c99-f6e1b44c10b5","051c06f1-75cc-4548-856d-4923ddaba0dc","{""num_scrambled_semantic"":""8"",""num_scrambled_causal"":""4"",""num_scrambled_schematic"":""4"",""participantId"":""7D0CC43EFF454085A097E314118598BA"",""assignmentId"":""4614010a-1409-456f-9c99-f6e1b44c10b5"",""projectId"":""051c06f1-75cc-4548-856d-4923ddaba0dc""}","https://test12345.live/?num_scrambled_semantic=8&num_scrambled_causal=4&num_scrambled_schematic=4&participantId=7D0CC43EFF454085A097E314118598BA&assignmentId=4614010a-1409-456f-9c99-f6e1b44c10b5&projectId=051c06f1-75cc-4548-856d-4923ddaba0dc","7D0CC43EFF454085A097E314118598BA-2025-05-15-20-45-16","","8074","","[""<span style=\""color: red; font-size: 24px\""> NOW RECORDING</span><p>Please say out loud all the images you saw, as many as you can remember. The images can be said in any order.</p>""]","","2",""
"","","","","","instructions","23","226208","0.0-9.0","7D0CC43EFF454085A097E314118598BA","7D0CC43EFF454085A097E314118598BA","4614010a-1409-456f-9c99-f6e1b44c10b5","051c06f1-75cc-4548-856d-4923ddaba0dc","{""num_scrambled_semantic"":""8"",""num_scrambled_causal"":""4"",""num_scrambled_schematic"":""4"",""participantId"":""7D0CC43EFF454085A097E314118598BA"",""assignmentId"":""4614010a-1409-456f-9c99-f6e1b44c10b5"",""projectId"":""051c06f1-75cc-4548-856d-4923ddaba0dc""}","https://test12345.live/?num_scrambled_semantic=8&num_scrambled_causal=4&num_scrambled_schematic=4&participantId=7D0CC43EFF454085A097E314118598BA&assignmentId=4614010a-1409-456f-9c99-f6e1b44c10b5&projectId=051c06f1-75cc-4548-856d-4923ddaba0dc","7D0CC43EFF454085A097E314118598BA-2025-05-15-20-45-16","[{""page_index"":0,""viewing_time"":4168}]","4169","","","","",""
"","","","","","image-button-response","24","232220","0.0-10.0-0.0","7D0CC43EFF454085A097E314118598BA","7D0CC43EFF454085A097E314118598BA","4614010a-1409-456f-9c99-f6e1b44c10b5","051c06f1-75cc-4548-856d-4923ddaba0dc","{""num_scrambled_semantic"":""8"",""num_scrambled_causal"":""4"",""num_scrambled_schematic"":""4"",""participantId"":""7D0CC43EFF454085A097E314118598BA"",""assignmentId"":""4614010a-1409-456f-9c99-f6e1b44c10b5"",""projectId"":""051c06f1-75cc-4548-856d-4923ddaba0dc""}","https://test12345.live/?num_scrambled_semantic=8&num_scrambled_causal=4&num_scrambled_schematic=4&participantId=7D0CC43EFF454085A097E314118598BA&assignmentId=4614010a-1409-456f-9c99-f6e1b44c10b5&projectId=051c06f1-75cc-4548-856d-4923ddaba0dc","7D0CC43EFF454085A097E314118598BA-2025-05-15-20-45-16","","null","","images/semantic_sequence/creative_activities_semantic/creative_activities_semantic_0.png","null","",""
"","","","","","image-button-response","25","236728","0.0-10.0-1.0-0.0","7D0CC43EFF454085A097E314118598BA","7D0CC43EFF454085A097E314118598BA","4614010a-1409-456f-9c99-f6e1b44c10b5","051c06f1-75cc-4548-856d-4923ddaba0dc","{""num_scrambled_semantic"":""8"",""num_scrambled_causal"":""4"",""num_scrambled_schematic"":""4"",""participantId"":""7D0CC43EFF454085A097E314118598BA"",""assignmentId"":""4614010a-1409-456f-9c99-f6e1b44c10b5"",""projectId"":""051c06f1-75cc-4548-856d-4923ddaba0dc""}","https://test12345.live/?num_scrambled_semantic=8&num_scrambled_causal=4&num_scrambled_schematic=4&participantId=7D0CC43EFF454085A097E314118598BA&assignmentId=4614010a-1409-456f-9c99-f6e1b44c10b5&projectId=051c06f1-75cc-4548-856d-4923ddaba0dc","7D0CC43EFF454085A097E314118598BA-2025-05-15-20-45-16","","null","","images/semantic_sequence/creative_activities_semantic/creative_activities_semantic_6.png","null","",""
"","","","","","image-button-response","26","238058","0.0-10.0-1.0-1.0","7D0CC43EFF454085A097E314118598BA","7D0CC43EFF454085A097E314118598BA","4614010a-1409-456f-9c99-f6e1b44c10b5","051c06f1-75cc-4548-856d-4923ddaba0dc","{""num_scrambled_semantic"":""8"",""num_scrambled_causal"":""4"",""num_scrambled_schematic"":""4"",""participantId"":""7D0CC43EFF454085A097E314118598BA"",""assignmentId"":""4614010a-1409-456f-9c99-f6e1b44c10b5"",""projectId"":""051c06f1-75cc-4548-856d-4923ddaba0dc""}","https://test12345.live/?num_scrambled_semantic=8&num_scrambled_causal=4&num_scrambled_schematic=4&participantId=7D0CC43EFF454085A097E314118598BA&assignmentId=4614010a-1409-456f-9c99-f6e1b44c10b5&projectId=051c06f1-75cc-4548-856d-4923ddaba0dc","7D0CC43EFF454085A097E314118598BA-2025-05-15-20-45-16","","1329","","images/semantic_sequence/creative_activities_semantic/creative_activities_semantic_6.png","0","",""
"","","","","","image-button-response","27","239866","0.0-10.0-1.0-2.0","7D0CC43EFF454085A097E314118598BA","7D0CC43EFF454085A097E314118598BA","4614010a-1409-456f-9c99-f6e1b44c10b5","051c06f1-75cc-4548-856d-4923ddaba0dc","{""num_scrambled_semantic"":""8"",""num_scrambled_causal"":""4"",""num_scrambled_schematic"":""4"",""participantId"":""7D0CC43EFF454085A097E314118598BA"",""assignmentId"":""4614010a-1409-456f-9c99-f6e1b44c10b5"",""projectId"":""051c06f1-75cc-4548-856d-4923ddaba0dc""}","https://test12345.live/?num_scrambled_semantic=8&num_scrambled_causal=4&num_scrambled_schematic=4&participantId=7D0CC43EFF454085A097E314118598BA&assignmentId=4614010a-1409-456f-9c99-f6e1b44c10b5&projectId=051c06f1-75cc-4548-856d-4923ddaba0dc","7D0CC43EFF454085A097E314118598BA-2025-05-15-20-45-16","","null","","[]","null","",""
"","","","","","image-button-response","28","244375","0.0-10.0-1.0-0.1","7D0CC43EFF454085A097E314118598BA","7D0CC43EFF454085A097E314118598BA","4614010a-1409-456f-9c99-f6e1b44c10b5","051c06f1-75cc-4548-856d-4923ddaba0dc","{""num_scrambled_semantic"":""8"",""num_scrambled_causal"":""4"",""num_scrambled_schematic"":""4"",""participantId"":""7D0CC43EFF454085A097E314118598BA"",""assignmentId"":""4614010a-1409-456f-9c99-f6e1b44c10b5"",""projectId"":""051c06f1-75cc-4548-856d-4923ddaba0dc""}","https://test12345.live/?num_scrambled_semantic=8&num_scrambled_causal=4&num_scrambled_schematic=4&participantId=7D0CC43EFF454085A097E314118598BA&assignmentId=4614010a-1409-456f-9c99-f6e1b44c10b5&projectId=051c06f1-75cc-4548-856d-4923ddaba0dc","7D0CC43EFF454085A097E314118598BA-2025-05-15-20-45-16","","null","","images/semantic_sequence/creative_activities_semantic/creative_activities_semantic_ten.png","null","",""
"","","","","","image-button-response","29","245275","0.0-10.0-1.0-1.1","7D0CC43EFF454085A097E314118598BA","7D0CC43EFF454085A097E314118598BA","4614010a-1409-456f-9c99-f6e1b44c10b5","051c06f1-75cc-4548-856d-4923ddaba0dc","{""num_scrambled_semantic"":""8"",""num_scrambled_causal"":""4"",""num_scrambled_schematic"":""4"",""participantId"":""7D0CC43EFF454085A097E314118598BA"",""assignmentId"":""4614010a-1409-456f-9c99-f6e1b44c10b5"",""projectId"":""051c06f1-75cc-4548-856d-4923ddaba0dc""}","https://test12345.live/?num_scrambled_semantic=8&num_scrambled_causal=4&num_scrambled_schematic=4&participantId=7D0CC43EFF454085A097E314118598BA&assignmentId=4614010a-1409-456f-9c99-f6e1b44c10b5&projectId=051c06f1-75cc-4548-856d-4923ddaba0dc","7D0CC43EFF454085A097E314118598BA-2025-05-15-20-45-16","","899","","images/semantic_sequence/creative_activities_semantic/creative_activities_semantic_ten.png","0","",""
"","","","","","image-button-response","30","247079","0.0-10.0-1.0-2.1","7D0CC43EFF454085A097E314118598BA","7D0CC43EFF454085A097E314118598BA","4614010a-1409-456f-9c99-f6e1b44c10b5","051c06f1-75cc-4548-856d-4923ddaba0dc","{""num_scrambled_semantic"":""8"",""num_scrambled_causal"":""4"",""num_scrambled_schematic"":""4"",""participantId"":""7D0CC43EFF454085A097E314118598BA"",""assignmentId"":""4614010a-1409-456f-9c99-f6e1b44c10b5"",""projectId"":""051c06f1-75cc-4548-856d-4923ddaba0dc""}","https://test12345.live/?num_scrambled_semantic=8&num_scrambled_causal=4&num_scrambled_schematic=4&participantId=7D0CC43EFF454085A097E314118598BA&assignmentId=4614010a-1409-456f-9c99-f6e1b44c10b5&projectId=051c06f1-75cc-4548-856d-4923ddaba0dc","7D0CC43EFF454085A097E314118598BA-2025-05-15-20-45-16","","null","","[]","null","",""
"","","","","","image-button-response","31","251587","0.0-10.0-1.0-0.2","7D0CC43EFF454085A097E314118598BA","7D0CC43EFF454085A097E314118598BA","4614010a-1409-456f-9c99-f6e1b44c10b5","051c06f1-75cc-4548-856d-4923ddaba0dc","{""num_scrambled_semantic"":""8"",""num_scrambled_causal"":""4"",""num_scrambled_schematic"":""4"",""participantId"":""7D0CC43EFF454085A097E314118598BA"",""assignmentId"":""4614010a-1409-456f-9c99-f6e1b44c10b5"",""projectId"":""051c06f1-75cc-4548-856d-4923ddaba0dc""}","https://test12345.live/?num_scrambled_semantic=8&num_scrambled_causal=4&num_scrambled_schematic=4&participantId=7D0CC43EFF454085A097E314118598BA&assignmentId=4614010a-1409-456f-9c99-f6e1b44c10b5&projectId=051c06f1-75cc-4548-856d-4923ddaba0dc","7D0CC43EFF454085A097E314118598BA-2025-05-15-20-45-16","","null","","images/semantic_sequence/creative_activities_semantic/creative_activities_semantic_4.png","null","",""
"","","","","","image-button-response","32","252791","0.0-10.0-1.0-1.2","7D0CC43EFF454085A097E314118598BA","7D0CC43EFF454085A097E314118598BA","4614010a-1409-456f-9c99-f6e1b44c10b5","051c06f1-75cc-4548-856d-4923ddaba0dc","{""num_scrambled_semantic"":""8"",""num_scrambled_causal"":""4"",""num_scrambled_schematic"":""4"",""participantId"":""7D0CC43EFF454085A097E314118598BA"",""assignmentId"":""4614010a-1409-456f-9c99-f6e1b44c10b5"",""projectId"":""051c06f1-75cc-4548-856d-4923ddaba0dc""}","https://test12345.live/?num_scrambled_semantic=8&num_scrambled_causal=4&num_scrambled_schematic=4&participantId=7D0CC43EFF454085A097E314118598BA&assignmentId=4614010a-1409-456f-9c99-f6e1b44c10b5&projectId=051c06f1-75cc-4548-856d-4923ddaba0dc","7D0CC43EFF454085A097E314118598BA-2025-05-15-20-45-16","","1203","","images/semantic_sequence/creative_activities_semantic/creative_activities_semantic_4.png","0","",""
"","","","","","image-button-response","33","254597","0.0-10.0-1.0-2.2","7D0CC43EFF454085A097E314118598BA","7D0CC43EFF454085A097E314118598BA","4614010a-1409-456f-9c99-f6e1b44c10b5","051c06f1-75cc-4548-856d-4923ddaba0dc","{""num_scrambled_semantic"":""8"",""num_scrambled_causal"":""4"",""num_scrambled_schematic"":""4"",""participantId"":""7D0CC43EFF454085A097E314118598BA"",""assignmentId"":""4614010a-1409-456f-9c99-f6e1b44c10b5"",""projectId"":""051c06f1-75cc-4548-856d-4923ddaba0dc""}","https://test12345.live/?num_scrambled_semantic=8&num_scrambled_causal=4&num_scrambled_schematic=4&participantId=7D0CC43EFF454085A097E314118598BA&assignmentId=4614010a-1409-456f-9c99-f6e1b44c10b5&projectId=051c06f1-75cc-4548-856d-4923ddaba0dc","7D0CC43EFF454085A097E314118598BA-2025-05-15-20-45-16","","null","","[]","null","",""
"","","","","","image-button-response","34","259110","0.0-10.0-1.0-0.3","7D0CC43EFF454085A097E314118598BA","7D0CC43EFF454085A097E314118598BA","4614010a-1409-456f-9c99-f6e1b44c10b5","051c06f1-75cc-4548-856d-4923ddaba0dc","{""num_scrambled_semantic"":""8"",""num_scrambled_causal"":""4"",""num_scrambled_schematic"":""4"",""participantId"":""7D0CC43EFF454085A097E314118598BA"",""assignmentId"":""4614010a-1409-456f-9c99-f6e1b44c10b5"",""projectId"":""051c06f1-75cc-4548-856d-4923ddaba0dc""}","https://test12345.live/?num_scrambled_semantic=8&num_scrambled_causal=4&num_scrambled_schematic=4&participantId=7D0CC43EFF454085A097E314118598BA&assignmentId=4614010a-1409-456f-9c99-f6e1b44c10b5&projectId=051c06f1-75cc-4548-856d-4923ddaba0dc","7D0CC43EFF454085A097E314118598BA-2025-05-15-20-45-16","","null","","images/semantic_sequence/creative_activities_semantic/creative_activities_semantic_5.png","null","",""
"","","","","","image-button-response","35","260281","0.0-10.0-1.0-1.3","7D0CC43EFF454085A097E314118598BA","7D0CC43EFF454085A097E314118598BA","4614010a-1409-456f-9c99-f6e1b44c10b5","051c06f1-75cc-4548-856d-4923ddaba0dc","{""num_scrambled_semantic"":""8"",""num_scrambled_causal"":""4"",""num_scrambled_schematic"":""4"",""participantId"":""7D0CC43EFF454085A097E314118598BA"",""assignmentId"":""4614010a-1409-456f-9c99-f6e1b44c10b5"",""projectId"":""051c06f1-75cc-4548-856d-4923ddaba0dc""}","https://test12345.live/?num_scrambled_semantic=8&num_scrambled_causal=4&num_scrambled_schematic=4&participantId=7D0CC43EFF454085A097E314118598BA&assignmentId=4614010a-1409-456f-9c99-f6e1b44c10b5&projectId=051c06f1-75cc-4548-856d-4923ddaba0dc","7D0CC43EFF454085A097E314118598BA-2025-05-15-20-45-16","","1170","","images/semantic_sequence/creative_activities_semantic/creative_activities_semantic_5.png","0","",""
"","","","","","image-button-response","36","262094","0.0-10.0-1.0-2.3","7D0CC43EFF454085A097E314118598BA","7D0CC43EFF454085A097E314118598BA","4614010a-1409-456f-9c99-f6e1b44c10b5","051c06f1-75cc-4548-856d-4923ddaba0dc","{""num_scrambled_semantic"":""8"",""num_scrambled_causal"":""4"",""num_scrambled_schematic"":""4"",""participantId"":""7D0CC43EFF454085A097E314118598BA"",""assignmentId"":""4614010a-1409-456f-9c99-f6e1b44c10b5"",""projectId"":""051c06f1-75cc-4548-856d-4923ddaba0dc""}","https://test12345.live/?num_scrambled_semantic=8&num_scrambled_causal=4&num_scrambled_schematic=4&participantId=7D0CC43EFF454085A097E314118598BA&assignmentId=4614010a-1409-456f-9c99-f6e1b44c10b5&projectId=051c06f1-75cc-4548-856d-4923ddaba0dc","7D0CC43EFF454085A097E314118598BA-2025-05-15-20-45-16","","null","","[]","null","",""
"","","","","","image-button-response","37","266607","0.0-10.0-1.0-0.4","7D0CC43EFF454085A097E314118598BA","7D0CC43EFF454085A097E314118598BA","4614010a-1409-456f-9c99-f6e1b44c10b5","051c06f1-75cc-4548-856d-4923ddaba0dc","{""num_scrambled_semantic"":""8"",""num_scrambled_causal"":""4"",""num_scrambled_schematic"":""4"",""participantId"":""7D0CC43EFF454085A097E314118598BA"",""assignmentId"":""4614010a-1409-456f-9c99-f6e1b44c10b5"",""projectId"":""051c06f1-75cc-4548-856d-4923ddaba0dc""}","https://test12345.live/?num_scrambled_semantic=8&num_scrambled_causal=4&num_scrambled_schematic=4&participantId=7D0CC43EFF454085A097E314118598BA&assignmentId=4614010a-1409-456f-9c99-f6e1b44c10b5&projectId=051c06f1-75cc-4548-856d-4923ddaba0dc","7D0CC43EFF454085A097E314118598BA-2025-05-15-20-45-16","","null","","images/semantic_sequence/creative_activities_semantic/creative_activities_semantic_3.png","null","",""
"","","","","","image-button-response","38","267407","0.0-10.0-1.0-1.4","7D0CC43EFF454085A097E314118598BA","7D0CC43EFF454085A097E314118598BA","4614010a-1409-456f-9c99-f6e1b44c10b5","051c06f1-75cc-4548-856d-4923ddaba0dc","{""num_scrambled_semantic"":""8"",""num_scrambled_causal"":""4"",""num_scrambled_schematic"":""4"",""participantId"":""7D0CC43EFF454085A097E314118598BA"",""assignmentId"":""4614010a-1409-456f-9c99-f6e1b44c10b5"",""projectId"":""051c06f1-75cc-4548-856d-4923ddaba0dc""}","https://test12345.live/?num_scrambled_semantic=8&num_scrambled_causal=4&num_scrambled_schematic=4&participantId=7D0CC43EFF454085A097E314118598BA&assignmentId=4614010a-1409-456f-9c99-f6e1b44c10b5&projectId=051c06f1-75cc-4548-856d-4923ddaba0dc","7D0CC43EFF454085A097E314118598BA-2025-05-15-20-45-16","","798","","images/semantic_sequence/creative_activities_semantic/creative_activities_semantic_3.png","0","",""
"","","","","","image-button-response","39","269217","0.0-10.0-1.0-2.4","7D0CC43EFF454085A097E314118598BA","7D0CC43EFF454085A097E314118598BA","4614010a-1409-456f-9c99-f6e1b44c10b5","051c06f1-75cc-4548-856d-4923ddaba0dc","{""num_scrambled_semantic"":""8"",""num_scrambled_causal"":""4"",""num_scrambled_schematic"":""4"",""participantId"":""7D0CC43EFF454085A097E314118598BA"",""assignmentId"":""4614010a-1409-456f-9c99-f6e1b44c10b5"",""projectId"":""051c06f1-75cc-4548-856d-4923ddaba0dc""}","https://test12345.live/?num_scrambled_semantic=8&num_scrambled_causal=4&num_scrambled_schematic=4&participantId=7D0CC43EFF454085A097E314118598BA&assignmentId=4614010a-1409-456f-9c99-f6e1b44c10b5&projectId=051c06f1-75cc-4548-856d-4923ddaba0dc","7D0CC43EFF454085A097E314118598BA-2025-05-15-20-45-16","","null","","[]","null","",""
"","","","","","image-button-response","40","273723","0.0-10.0-1.0-0.5","7D0CC43EFF454085A097E314118598BA","7D0CC43EFF454085A097E314118598BA","4614010a-1409-456f-9c99-f6e1b44c10b5","051c06f1-75cc-4548-856d-4923ddaba0dc","{""num_scrambled_semantic"":""8"",""num_scrambled_causal"":""4"",""num_scrambled_schematic"":""4"",""participantId"":""7D0CC43EFF454085A097E314118598BA"",""assignmentId"":""4614010a-1409-456f-9c99-f6e1b44c10b5"",""projectId"":""051c06f1-75cc-4548-856d-4923ddaba0dc""}","https://test12345.live/?num_scrambled_semantic=8&num_scrambled_causal=4&num_scrambled_schematic=4&participantId=7D0CC43EFF454085A097E314118598BA&assignmentId=4614010a-1409-456f-9c99-f6e1b44c10b5&projectId=051c06f1-75cc-4548-856d-4923ddaba0dc","7D0CC43EFF454085A097E314118598BA-2025-05-15-20-45-16","","null","","images/semantic_sequence/creative_activities_semantic/creative_activities_semantic_9.png","null","",""
"","","","","","image-button-response","41","274501","0.0-10.0-1.0-1.5","7D0CC43EFF454085A097E314118598BA","7D0CC43EFF454085A097E314118598BA","4614010a-1409-456f-9c99-f6e1b44c10b5","051c06f1-75cc-4548-856d-4923ddaba0dc","{""num_scrambled_semantic"":""8"",""num_scrambled_causal"":""4"",""num_scrambled_schematic"":""4"",""participantId"":""7D0CC43EFF454085A097E314118598BA"",""assignmentId"":""4614010a-1409-456f-9c99-f6e1b44c10b5"",""projectId"":""051c06f1-75cc-4548-856d-4923ddaba0dc""}","https://test12345.live/?num_scrambled_semantic=8&num_scrambled_causal=4&num_scrambled_schematic=4&participantId=7D0CC43EFF454085A097E314118598BA&assignmentId=4614010a-1409-456f-9c99-f6e1b44c10b5&projectId=051c06f1-75cc-4548-856d-4923ddaba0dc","7D0CC43EFF454085A097E314118598BA-2025-05-15-20-45-16","","777","","images/semantic_sequence/creative_activities_semantic/creative_activities_semantic_9.png","0","",""
"","","","","","image-button-response","42","276317","0.0-10.0-1.0-2.5","7D0CC43EFF454085A097E314118598BA","7D0CC43EFF454085A097E314118598BA","4614010a-1409-456f-9c99-f6e1b44c10b5","051c06f1-75cc-4548-856d-4923ddaba0dc","{""num_scrambled_semantic"":""8"",""num_scrambled_causal"":""4"",""num_scrambled_schematic"":""4"",""participantId"":""7D0CC43EFF454085A097E314118598BA"",""assignmentId"":""4614010a-1409-456f-9c99-f6e1b44c10b5"",""projectId"":""051c06f1-75cc-4548-856d-4923ddaba0dc""}","https://test12345.live/?num_scrambled_semantic=8&num_scrambled_causal=4&num_scrambled_schematic=4&participantId=7D0CC43EFF454085A097E314118598BA&assignmentId=4614010a-1409-456f-9c99-f6e1b44c10b5&projectId=051c06f1-75cc-4548-856d-4923ddaba0dc","7D0CC43EFF454085A097E314118598BA-2025-05-15-20-45-16","","null","","[]","null","",""
"","","","","","image-button-response","43","280830","0.0-10.0-1.0-0.6","7D0CC43EFF454085A097E314118598BA","7D0CC43EFF454085A097E314118598BA","4614010a-1409-456f-9c99-f6e1b44c10b5","051c06f1-75cc-4548-856d-4923ddaba0dc","{""num_scrambled_semantic"":""8"",""num_scrambled_causal"":""4"",""num_scrambled_schematic"":""4"",""participantId"":""7D0CC43EFF454085A097E314118598BA"",""assignmentId"":""4614010a-1409-456f-9c99-f6e1b44c10b5"",""projectId"":""051c06f1-75cc-4548-856d-4923ddaba0dc""}","https://test12345.live/?num_scrambled_semantic=8&num_scrambled_causal=4&num_scrambled_schematic=4&participantId=7D0CC43EFF454085A097E314118598BA&assignmentId=4614010a-1409-456f-9c99-f6e1b44c10b5&projectId=051c06f1-75cc-4548-856d-4923ddaba0dc","7D0CC43EFF454085A097E314118598BA-2025-05-15-20-45-16","","null","","images/semantic_sequence/creative_activities_semantic/creative_activities_semantic_8.png","null","",""
"","","","","","image-button-response","44","281627","0.0-10.0-1.0-1.6","7D0CC43EFF454085A097E314118598BA","7D0CC43EFF454085A097E314118598BA","4614010a-1409-456f-9c99-f6e1b44c10b5","051c06f1-75cc-4548-856d-4923ddaba0dc","{""num_scrambled_semantic"":""8"",""num_scrambled_causal"":""4"",""num_scrambled_schematic"":""4"",""participantId"":""7D0CC43EFF454085A097E314118598BA"",""assignmentId"":""4614010a-1409-456f-9c99-f6e1b44c10b5"",""projectId"":""051c06f1-75cc-4548-856d-4923ddaba0dc""}","https://test12345.live/?num_scrambled_semantic=8&num_scrambled_causal=4&num_scrambled_schematic=4&participantId=7D0CC43EFF454085A097E314118598BA&assignmentId=4614010a-1409-456f-9c99-f6e1b44c10b5&projectId=051c06f1-75cc-4548-856d-4923ddaba0dc","7D0CC43EFF454085A097E314118598BA-2025-05-15-20-45-16","","796","","images/semantic_sequence/creative_activities_semantic/creative_activities_semantic_8.png","0","",""
"","","","","","image-button-response","45","283443","0.0-10.0-1.0-2.6","7D0CC43EFF454085A097E314118598BA","7D0CC43EFF454085A097E314118598BA","4614010a-1409-456f-9c99-f6e1b44c10b5","051c06f1-75cc-4548-856d-4923ddaba0dc","{""num_scrambled_semantic"":""8"",""num_scrambled_causal"":""4"",""num_scrambled_schematic"":""4"",""participantId"":""7D0CC43EFF454085A097E314118598BA"",""assignmentId"":""4614010a-1409-456f-9c99-f6e1b44c10b5"",""projectId"":""051c06f1-75cc-4548-856d-4923ddaba0dc""}","https://test12345.live/?num_scrambled_semantic=8&num_scrambled_causal=4&num_scrambled_schematic=4&participantId=7D0CC43EFF454085A097E314118598BA&assignmentId=4614010a-1409-456f-9c99-f6e1b44c10b5&projectId=051c06f1-75cc-4548-856d-4923ddaba0dc","7D0CC43EFF454085A097E314118598BA-2025-05-15-20-45-16","","null","","[]","null","",""
"","","","","","image-button-response","46","287955","0.0-10.0-1.0-0.7","7D0CC43EFF454085A097E314118598BA","7D0CC43EFF454085A097E314118598BA","4614010a-1409-456f-9c99-f6e1b44c10b5","051c06f1-75cc-4548-856d-4923ddaba0dc","{""num_scrambled_semantic"":""8"",""num_scrambled_causal"":""4"",""num_scrambled_schematic"":""4"",""participantId"":""7D0CC43EFF454085A097E314118598BA"",""assignmentId"":""4614010a-1409-456f-9c99-f6e1b44c10b5"",""projectId"":""051c06f1-75cc-4548-856d-4923ddaba0dc""}","https://test12345.live/?num_scrambled_semantic=8&num_scrambled_causal=4&num_scrambled_schematic=4&participantId=7D0CC43EFF454085A097E314118598BA&assignmentId=4614010a-1409-456f-9c99-f6e1b44c10b5&projectId=051c06f1-75cc-4548-856d-4923ddaba0dc","7D0CC43EFF454085A097E314118598BA-2025-05-15-20-45-16","","null","","images/semantic_sequence/creative_activities_semantic/creative_activities_semantic_2.png","null","",""
"","","","","","image-button-response","47","288661","0.0-10.0-1.0-1.7","7D0CC43EFF454085A097E314118598BA","7D0CC43EFF454085A097E314118598BA","4614010a-1409-456f-9c99-f6e1b44c10b5","051c06f1-75cc-4548-856d-4923ddaba0dc","{""num_scrambled_semantic"":""8"",""num_scrambled_causal"":""4"",""num_scrambled_schematic"":""4"",""participantId"":""7D0CC43EFF454085A097E314118598BA"",""assignmentId"":""4614010a-1409-456f-9c99-f6e1b44c10b5"",""projectId"":""051c06f1-75cc-4548-856d-4923ddaba0dc""}","https://test12345.live/?num_scrambled_semantic=8&num_scrambled_causal=4&num_scrambled_schematic=4&participantId=7D0CC43EFF454085A097E314118598BA&assignmentId=4614010a-1409-456f-9c99-f6e1b44c10b5&projectId=051c06f1-75cc-4548-856d-4923ddaba0dc","7D0CC43EFF454085A097E314118598BA-2025-05-15-20-45-16","","705","","images/semantic_sequence/creative_activities_semantic/creative_activities_semantic_2.png","0","",""
"","","","","","image-button-response","48","290474","0.0-10.0-1.0-2.7","7D0CC43EFF454085A097E314118598BA","7D0CC43EFF454085A097E314118598BA","4614010a-1409-456f-9c99-f6e1b44c10b5","051c06f1-75cc-4548-856d-4923ddaba0dc","{""num_scrambled_semantic"":""8"",""num_scrambled_causal"":""4"",""num_scrambled_schematic"":""4"",""participantId"":""7D0CC43EFF454085A097E314118598BA"",""assignmentId"":""4614010a-1409-456f-9c99-f6e1b44c10b5"",""projectId"":""051c06f1-75cc-4548-856d-4923ddaba0dc""}","https://test12345.live/?num_scrambled_semantic=8&num_scrambled_causal=4&num_scrambled_schematic=4&participantId=7D0CC43EFF454085A097E314118598BA&assignmentId=4614010a-1409-456f-9c99-f6e1b44c10b5&projectId=051c06f1-75cc-4548-856d-4923ddaba0dc","7D0CC43EFF454085A097E314118598BA-2025-05-15-20-45-16","","null","","[]","null","",""
"","","","","","image-button-response","49","294988","0.0-10.0-1.0-0.8","7D0CC43EFF454085A097E314118598BA","7D0CC43EFF454085A097E314118598BA","4614010a-1409-456f-9c99-f6e1b44c10b5","051c06f1-75cc-4548-856d-4923ddaba0dc","{""num_scrambled_semantic"":""8"",""num_scrambled_causal"":""4"",""num_scrambled_schematic"":""4"",""participantId"":""7D0CC43EFF454085A097E314118598BA"",""assignmentId"":""4614010a-1409-456f-9c99-f6e1b44c10b5"",""projectId"":""051c06f1-75cc-4548-856d-4923ddaba0dc""}","https://test12345.live/?num_scrambled_semantic=8&num_scrambled_causal=4&num_scrambled_schematic=4&participantId=7D0CC43EFF454085A097E314118598BA&assignmentId=4614010a-1409-456f-9c99-f6e1b44c10b5&projectId=051c06f1-75cc-4548-856d-4923ddaba0dc","7D0CC43EFF454085A097E314118598BA-2025-05-15-20-45-16","","null","","images/semantic_sequence/creative_activities_semantic/creative_activities_semantic_7.png","null","",""
"","","","","","image-button-response","50","296311","0.0-10.0-1.0-1.8","7D0CC43EFF454085A097E314118598BA","7D0CC43EFF454085A097E314118598BA","4614010a-1409-456f-9c99-f6e1b44c10b5","051c06f1-75cc-4548-856d-4923ddaba0dc","{""num_scrambled_semantic"":""8"",""num_scrambled_causal"":""4"",""num_scrambled_schematic"":""4"",""participantId"":""7D0CC43EFF454085A097E314118598BA"",""assignmentId"":""4614010a-1409-456f-9c99-f6e1b44c10b5"",""projectId"":""051c06f1-75cc-4548-856d-4923ddaba0dc""}","https://test12345.live/?num_scrambled_semantic=8&num_scrambled_causal=4&num_scrambled_schematic=4&participantId=7D0CC43EFF454085A097E314118598BA&assignmentId=4614010a-1409-456f-9c99-f6e1b44c10b5&projectId=051c06f1-75cc-4548-856d-4923ddaba0dc","7D0CC43EFF454085A097E314118598BA-2025-05-15-20-45-16","","1322","","images/semantic_sequence/creative_activities_semantic/creative_activities_semantic_7.png","0","",""
"","","","","","image-button-response","51","298123","0.0-10.0-1.0-2.8","7D0CC43EFF454085A097E314118598BA","7D0CC43EFF454085A097E314118598BA","4614010a-1409-456f-9c99-f6e1b44c10b5","051c06f1-75cc-4548-856d-4923ddaba0dc","{""num_scrambled_semantic"":""8"",""num_scrambled_causal"":""4"",""num_scrambled_schematic"":""4"",""participantId"":""7D0CC43EFF454085A097E314118598BA"",""assignmentId"":""4614010a-1409-456f-9c99-f6e1b44c10b5"",""projectId"":""051c06f1-75cc-4548-856d-4923ddaba0dc""}","https://test12345.live/?num_scrambled_semantic=8&num_scrambled_causal=4&num_scrambled_schematic=4&participantId=7D0CC43EFF454085A097E314118598BA&assignmentId=4614010a-1409-456f-9c99-f6e1b44c10b5&projectId=051c06f1-75cc-4548-856d-4923ddaba0dc","7D0CC43EFF454085A097E314118598BA-2025-05-15-20-45-16","","null","","[]","null","",""
"","","","","","image-button-response","52","302635","0.0-10.0-1.0-0.9","7D0CC43EFF454085A097E314118598BA","7D0CC43EFF454085A097E314118598BA","4614010a-1409-456f-9c99-f6e1b44c10b5","051c06f1-75cc-4548-856d-4923ddaba0dc","{""num_scrambled_semantic"":""8"",""num_scrambled_causal"":""4"",""num_scrambled_schematic"":""4"",""participantId"":""7D0CC43EFF454085A097E314118598BA"",""assignmentId"":""4614010a-1409-456f-9c99-f6e1b44c10b5"",""projectId"":""051c06f1-75cc-4548-856d-4923ddaba0dc""}","https://test12345.live/?num_scrambled_semantic=8&num_scrambled_causal=4&num_scrambled_schematic=4&participantId=7D0CC43EFF454085A097E314118598BA&assignmentId=4614010a-1409-456f-9c99-f6e1b44c10b5&projectId=051c06f1-75cc-4548-856d-4923ddaba0dc","7D0CC43EFF454085A097E314118598BA-2025-05-15-20-45-16","","null","","images/semantic_sequence/creative_activities_semantic/creative_activities_semantic_1.png","null","",""
"","","","","","image-button-response","53","304098","0.0-10.0-1.0-1.9","7D0CC43EFF454085A097E314118598BA","7D0CC43EFF454085A097E314118598BA","4614010a-1409-456f-9c99-f6e1b44c10b5","051c06f1-75cc-4548-856d-4923ddaba0dc","{""num_scrambled_semantic"":""8"",""num_scrambled_causal"":""4"",""num_scrambled_schematic"":""4"",""participantId"":""7D0CC43EFF454085A097E314118598BA"",""assignmentId"":""4614010a-1409-456f-9c99-f6e1b44c10b5"",""projectId"":""051c06f1-75cc-4548-856d-4923ddaba0dc""}","https://test12345.live/?num_scrambled_semantic=8&num_scrambled_causal=4&num_scrambled_schematic=4&participantId=7D0CC43EFF454085A097E314118598BA&assignmentId=4614010a-1409-456f-9c99-f6e1b44c10b5&projectId=051c06f1-75cc-4548-856d-4923ddaba0dc","7D0CC43EFF454085A097E314118598BA-2025-05-15-20-45-16","","1463","","images/semantic_sequence/creative_activities_semantic/creative_activities_semantic_1.png","0","",""
"","","","","","image-button-response","54","305899","0.0-10.0-1.0-2.9","7D0CC43EFF454085A097E314118598BA","7D0CC43EFF454085A097E314118598BA","4614010a-1409-456f-9c99-f6e1b44c10b5","051c06f1-75cc-4548-856d-4923ddaba0dc","{""num_scrambled_semantic"":""8"",""num_scrambled_causal"":""4"",""num_scrambled_schematic"":""4"",""participantId"":""7D0CC43EFF454085A097E314118598BA"",""assignmentId"":""4614010a-1409-456f-9c99-f6e1b44c10b5"",""projectId"":""051c06f1-75cc-4548-856d-4923ddaba0dc""}","https://test12345.live/?num_scrambled_semantic=8&num_scrambled_causal=4&num_scrambled_schematic=4&participantId=7D0CC43EFF454085A097E314118598BA&assignmentId=4614010a-1409-456f-9c99-f6e1b44c10b5&projectId=051c06f1-75cc-4548-856d-4923ddaba0dc","7D0CC43EFF454085A097E314118598BA-2025-05-15-20-45-16","","null","","[]","null","",""
"","","","","","html-audio-response","55","354775","0.0-11.0","7D0CC43EFF454085A097E314118598BA","7D0CC43EFF454085A097E314118598BA","4614010a-1409-456f-9c99-f6e1b44c10b5","051c06f1-75cc-4548-856d-4923ddaba0dc","{""num_scrambled_semantic"":""8"",""num_scrambled_causal"":""4"",""num_scrambled_schematic"":""4"",""participantId"":""7D0CC43EFF454085A097E314118598BA"",""assignmentId"":""4614010a-1409-456f-9c99-f6e1b44c10b5"",""projectId"":""051c06f1-75cc-4548-856d-4923ddaba0dc""}","https://test12345.live/?num_scrambled_semantic=8&num_scrambled_causal=4&num_scrambled_schematic=4&participantId=7D0CC43EFF454085A097E314118598BA&assignmentId=4614010a-1409-456f-9c99-f6e1b44c10b5&projectId=051c06f1-75cc-4548-856d-4923ddaba0dc","7D0CC43EFF454085A097E314118598BA-2025-05-15-20-45-16","","23278","","[""<span style=\""color: red; font-size: 24px\""> NOW RECORDING</span><p>Please say out loud all the images you saw, as many as you can remember. The images can be said in any order.</p>""]","","2","creative_activities_semantic"
"","","","","","image-button-response","56","360783","0.0-12.0-0.0","7D0CC43EFF454085A097E314118598BA","7D0CC43EFF454085A097E314118598BA","4614010a-1409-456f-9c99-f6e1b44c10b5","051c06f1-75cc-4548-856d-4923ddaba0dc","{""num_scrambled_semantic"":""8"",""num_scrambled_causal"":""4"",""num_scrambled_schematic"":""4"",""participantId"":""7D0CC43EFF454085A097E314118598BA"",""assignmentId"":""4614010a-1409-456f-9c99-f6e1b44c10b5"",""projectId"":""051c06f1-75cc-4548-856d-4923ddaba0dc""}","https://test12345.live/?num_scrambled_semantic=8&num_scrambled_causal=4&num_scrambled_schematic=4&participantId=7D0CC43EFF454085A097E314118598BA&assignmentId=4614010a-1409-456f-9c99-f6e1b44c10b5&projectId=051c06f1-75cc-4548-856d-4923ddaba0dc","7D0CC43EFF454085A097E314118598BA-2025-05-15-20-45-16","","null","","images/semantic_sequence/exploring_nature_semantic/exploring_nature_semantic_0.png","null","",""
"","","","","","image-button-response","57","365296","0.0-12.0-1.0-0.0","7D0CC43EFF454085A097E314118598BA","7D0CC43EFF454085A097E314118598BA","4614010a-1409-456f-9c99-f6e1b44c10b5","051c06f1-75cc-4548-856d-4923ddaba0dc","{""num_scrambled_semantic"":""8"",""num_scrambled_causal"":""4"",""num_scrambled_schematic"":""4"",""participantId"":""7D0CC43EFF454085A097E314118598BA"",""assignmentId"":""4614010a-1409-456f-9c99-f6e1b44c10b5"",""projectId"":""051c06f1-75cc-4548-856d-4923ddaba0dc""}","https://test12345.live/?num_scrambled_semantic=8&num_scrambled_causal=4&num_scrambled_schematic=4&participantId=7D0CC43EFF454085A097E314118598BA&assignmentId=4614010a-1409-456f-9c99-f6e1b44c10b5&projectId=051c06f1-75cc-4548-856d-4923ddaba0dc","7D0CC43EFF454085A097E314118598BA-2025-05-15-20-45-16","","null","","images/semantic_sequence/exploring_nature_semantic/exploring_nature_semantic_ten.png","null","",""
"","","","","","image-button-response","58","366996","0.0-12.0-1.0-1.0","7D0CC43EFF454085A097E314118598BA","7D0CC43EFF454085A097E314118598BA","4614010a-1409-456f-9c99-f6e1b44c10b5","051c06f1-75cc-4548-856d-4923ddaba0dc","{""num_scrambled_semantic"":""8"",""num_scrambled_causal"":""4"",""num_scrambled_schematic"":""4"",""participantId"":""7D0CC43EFF454085A097E314118598BA"",""assignmentId"":""4614010a-1409-456f-9c99-f6e1b44c10b5"",""projectId"":""051c06f1-75cc-4548-856d-4923ddaba0dc""}","https://test12345.live/?num_scrambled_semantic=8&num_scrambled_causal=4&num_scrambled_schematic=4&participantId=7D0CC43EFF454085A097E314118598BA&assignmentId=4614010a-1409-456f-9c99-f6e1b44c10b5&projectId=051c06f1-75cc-4548-856d-4923ddaba0dc","7D0CC43EFF454085A097E314118598BA-2025-05-15-20-45-16","","1699","","images/semantic_sequence/exploring_nature_semantic/exploring_nature_semantic_ten.png","0","",""
"","","","","","image-button-response","59","368806","0.0-12.0-1.0-2.0","7D0CC43EFF454085A097E314118598BA","7D0CC43EFF454085A097E314118598BA","4614010a-1409-456f-9c99-f6e1b44c10b5","051c06f1-75cc-4548-856d-4923ddaba0dc","{""num_scrambled_semantic"":""8"",""num_scrambled_causal"":""4"",""num_scrambled_schematic"":""4"",""participantId"":""7D0CC43EFF454085A097E314118598BA"",""assignmentId"":""4614010a-1409-456f-9c99-f6e1b44c10b5"",""projectId"":""051c06f1-75cc-4548-856d-4923ddaba0dc""}","https://test12345.live/?num_scrambled_semantic=8&num_scrambled_causal=4&num_scrambled_schematic=4&participantId=7D0CC43EFF454085A097E314118598BA&assignmentId=4614010a-1409-456f-9c99-f6e1b44c10b5&projectId=051c06f1-75cc-4548-856d-4923ddaba0dc","7D0CC43EFF454085A097E314118598BA-2025-05-15-20-45-16","","null","","[]","null","",""
"","","","","","image-button-response","60","373318","0.0-12.0-1.0-0.1","7D0CC43EFF454085A097E314118598BA","7D0CC43EFF454085A097E314118598BA","4614010a-1409-456f-9c99-f6e1b44c10b5","051c06f1-75cc-4548-856d-4923ddaba0dc","{""num_scrambled_semantic"":""8"",""num_scrambled_causal"":""4"",""num_scrambled_schematic"":""4"",""participantId"":""7D0CC43EFF454085A097E314118598BA"",""assignmentId"":""4614010a-1409-456f-9c99-f6e1b44c10b5"",""projectId"":""051c06f1-75cc-4548-856d-4923ddaba0dc""}","https://test12345.live/?num_scrambled_semantic=8&num_scrambled_causal=4&num_scrambled_schematic=4&participantId=7D0CC43EFF454085A097E314118598BA&assignmentId=4614010a-1409-456f-9c99-f6e1b44c10b5&projectId=051c06f1-75cc-4548-856d-4923ddaba0dc","7D0CC43EFF454085A097E314118598BA-2025-05-15-20-45-16","","null","","images/semantic_sequence/exploring_nature_semantic/exploring_nature_semantic_7.png","null","",""
"","","","","","image-button-response","61","374122","0.0-12.0-1.0-1.1","7D0CC43EFF454085A097E314118598BA","7D0CC43EFF454085A097E314118598BA","4614010a-1409-456f-9c99-f6e1b44c10b5","051c06f1-75cc-4548-856d-4923ddaba0dc","{""num_scrambled_semantic"":""8"",""num_scrambled_causal"":""4"",""num_scrambled_schematic"":""4"",""participantId"":""7D0CC43EFF454085A097E314118598BA"",""assignmentId"":""4614010a-1409-456f-9c99-f6e1b44c10b5"",""projectId"":""051c06f1-75cc-4548-856d-4923ddaba0dc""}","https://test12345.live/?num_scrambled_semantic=8&num_scrambled_causal=4&num_scrambled_schematic=4&participantId=7D0CC43EFF454085A097E314118598BA&assignmentId=4614010a-1409-456f-9c99-f6e1b44c10b5&projectId=051c06f1-75cc-4548-856d-4923ddaba0dc","7D0CC43EFF454085A097E314118598BA-2025-05-15-20-45-16","","803","","images/semantic_sequence/exploring_nature_semantic/exploring_nature_semantic_7.png","0","",""
"","","","","","image-button-response","62","375928","0.0-12.0-1.0-2.1","7D0CC43EFF454085A097E314118598BA","7D0CC43EFF454085A097E314118598BA","4614010a-1409-456f-9c99-f6e1b44c10b5","051c06f1-75cc-4548-856d-4923ddaba0dc","{""num_scrambled_semantic"":""8"",""num_scrambled_causal"":""4"",""num_scrambled_schematic"":""4"",""participantId"":""7D0CC43EFF454085A097E314118598BA"",""assignmentId"":""4614010a-1409-456f-9c99-f6e1b44c10b5"",""projectId"":""051c06f1-75cc-4548-856d-4923ddaba0dc""}","https://test12345.live/?num_scrambled_semantic=8&num_scrambled_causal=4&num_scrambled_schematic=4&participantId=7D0CC43EFF454085A097E314118598BA&assignmentId=4614010a-1409-456f-9c99-f6e1b44c10b5&projectId=051c06f1-75cc-4548-856d-4923ddaba0dc","7D0CC43EFF454085A097E314118598BA-2025-05-15-20-45-16","","null","","[]","null","",""
"","","","","","image-button-response","63","380429","0.0-12.0-1.0-0.2","7D0CC43EFF454085A097E314118598BA","7D0CC43EFF454085A097E314118598BA","4614010a-1409-456f-9c99-f6e1b44c10b5","051c06f1-75cc-4548-856d-4923ddaba0dc","{""num_scrambled_semantic"":""8"",""num_scrambled_causal"":""4"",""num_scrambled_schematic"":""4"",""participantId"":""7D0CC43EFF454085A097E314118598BA"",""assignmentId"":""4614010a-1409-456f-9c99-f6e1b44c10b5"",""projectId"":""051c06f1-75cc-4548-856d-4923ddaba0dc""}","https://test12345.live/?num_scrambled_semantic=8&num_scrambled_causal=4&num_scrambled_schematic=4&participantId=7D0CC43EFF454085A097E314118598BA&assignmentId=4614010a-1409-456f-9c99-f6e1b44c10b5&projectId=051c06f1-75cc-4548-856d-4923ddaba0dc","7D0CC43EFF454085A097E314118598BA-2025-05-15-20-45-16","","null","","images/semantic_sequence/exploring_nature_semantic/exploring_nature_semantic_6.png","null","",""
"","","","","","image-button-response","64","381335","0.0-12.0-1.0-1.2","7D0CC43EFF454085A097E314118598BA","7D0CC43EFF454085A097E314118598BA","4614010a-1409-456f-9c99-f6e1b44c10b5","051c06f1-75cc-4548-856d-4923ddaba0dc","{""num_scrambled_semantic"":""8"",""num_scrambled_causal"":""4"",""num_scrambled_schematic"":""4"",""participantId"":""7D0CC43EFF454085A097E314118598BA"",""assignmentId"":""4614010a-1409-456f-9c99-f6e1b44c10b5"",""projectId"":""051c06f1-75cc-4548-856d-4923ddaba0dc""}","https://test12345.live/?num_scrambled_semantic=8&num_scrambled_causal=4&num_scrambled_schematic=4&participantId=7D0CC43EFF454085A097E314118598BA&assignmentId=4614010a-1409-456f-9c99-f6e1b44c10b5&projectId=051c06f1-75cc-4548-856d-4923ddaba0dc","7D0CC43EFF454085A097E314118598BA-2025-05-15-20-45-16","","905","","images/semantic_sequence/exploring_nature_semantic/exploring_nature_semantic_6.png","0","",""
"","","","","","image-button-response","65","383137","0.0-12.0-1.0-2.2","7D0CC43EFF454085A097E314118598BA","7D0CC43EFF454085A097E314118598BA","4614010a-1409-456f-9c99-f6e1b44c10b5","051c06f1-75cc-4548-856d-4923ddaba0dc","{""num_scrambled_semantic"":""8"",""num_scrambled_causal"":""4"",""num_scrambled_schematic"":""4"",""participantId"":""7D0CC43EFF454085A097E314118598BA"",""assignmentId"":""4614010a-1409-456f-9c99-f6e1b44c10b5"",""projectId"":""051c06f1-75cc-4548-856d-4923ddaba0dc""}","https://test12345.live/?num_scrambled_semantic=8&num_scrambled_causal=4&num_scrambled_schematic=4&participantId=7D0CC43EFF454085A097E314118598BA&assignmentId=4614010a-1409-456f-9c99-f6e1b44c10b5&projectId=051c06f1-75cc-4548-856d-4923ddaba0dc","7D0CC43EFF454085A097E314118598BA-2025-05-15-20-45-16","","null","","[]","null","",""
"","","","","","image-button-response","66","387648","0.0-12.0-1.0-0.3","7D0CC43EFF454085A097E314118598BA","7D0CC43EFF454085A097E314118598BA","4614010a-1409-456f-9c99-f6e1b44c10b5","051c06f1-75cc-4548-856d-4923ddaba0dc","{""num_scrambled_semantic"":""8"",""num_scrambled_causal"":""4"",""num_scrambled_schematic"":""4"",""participantId"":""7D0CC43EFF454085A097E314118598BA"",""assignmentId"":""4614010a-1409-456f-9c99-f6e1b44c10b5"",""projectId"":""051c06f1-75cc-4548-856d-4923ddaba0dc""}","https://test12345.live/?num_scrambled_semantic=8&num_scrambled_causal=4&num_scrambled_schematic=4&participantId=7D0CC43EFF454085A097E314118598BA&assignmentId=4614010a-1409-456f-9c99-f6e1b44c10b5&projectId=051c06f1-75cc-4548-856d-4923ddaba0dc","7D0CC43EFF454085A097E314118598BA-2025-05-15-20-45-16","","null","","images/semantic_sequence/exploring_nature_semantic/exploring_nature_semantic_2.png","null","",""
"","","","","","image-button-response","67","388591","0.0-12.0-1.0-1.3","7D0CC43EFF454085A097E314118598BA","7D0CC43EFF454085A097E314118598BA","4614010a-1409-456f-9c99-f6e1b44c10b5","051c06f1-75cc-4548-856d-4923ddaba0dc","{""num_scrambled_semantic"":""8"",""num_scrambled_causal"":""4"",""num_scrambled_schematic"":""4"",""participantId"":""7D0CC43EFF454085A097E314118598BA"",""assignmentId"":""4614010a-1409-456f-9c99-f6e1b44c10b5"",""projectId"":""051c06f1-75cc-4548-856d-4923ddaba0dc""}","https://test12345.live/?num_scrambled_semantic=8&num_scrambled_causal=4&num_scrambled_schematic=4&participantId=7D0CC43EFF454085A097E314118598BA&assignmentId=4614010a-1409-456f-9c99-f6e1b44c10b5&projectId=051c06f1-75cc-4548-856d-4923ddaba0dc","7D0CC43EFF454085A097E314118598BA-2025-05-15-20-45-16","","942","","images/semantic_sequence/exploring_nature_semantic/exploring_nature_semantic_2.png","0","",""
"","","","","","image-button-response","68","390402","0.0-12.0-1.0-2.3","7D0CC43EFF454085A097E314118598BA","7D0CC43EFF454085A097E314118598BA","4614010a-1409-456f-9c99-f6e1b44c10b5","051c06f1-75cc-4548-856d-4923ddaba0dc","{""num_scrambled_semantic"":""8"",""num_scrambled_causal"":""4"",""num_scrambled_schematic"":""4"",""participantId"":""7D0CC43EFF454085A097E314118598BA"",""assignmentId"":""4614010a-1409-456f-9c99-f6e1b44c10b5"",""projectId"":""051c06f1-75cc-4548-856d-4923ddaba0dc""}","https://test12345.live/?num_scrambled_semantic=8&num_scrambled_causal=4&num_scrambled_schematic=4&participantId=7D0CC43EFF454085A097E314118598BA&assignmentId=4614010a-1409-456f-9c99-f6e1b44c10b5&projectId=051c06f1-75cc-4548-856d-4923ddaba0dc","7D0CC43EFF454085A097E314118598BA-2025-05-15-20-45-16","","null","","[]","null","",""
"","","","","","image-button-response","69","394912","0.0-12.0-1.0-0.4","7D0CC43EFF454085A097E314118598BA","7D0CC43EFF454085A097E314118598BA","4614010a-1409-456f-9c99-f6e1b44c10b5","051c06f1-75cc-4548-856d-4923ddaba0dc","{""num_scrambled_semantic"":""8"",""num_scrambled_causal"":""4"",""num_scrambled_schematic"":""4"",""participantId"":""7D0CC43EFF454085A097E314118598BA"",""assignmentId"":""4614010a-1409-456f-9c99-f6e1b44c10b5"",""projectId"":""051c06f1-75cc-4548-856d-4923ddaba0dc""}","https://test12345.live/?num_scrambled_semantic=8&num_scrambled_causal=4&num_scrambled_schematic=4&participantId=7D0CC43EFF454085A097E314118598BA&assignmentId=4614010a-1409-456f-9c99-f6e1b44c10b5&projectId=051c06f1-75cc-4548-856d-4923ddaba0dc","7D0CC43EFF454085A097E314118598BA-2025-05-15-20-45-16","","null","","images/semantic_sequence/exploring_nature_semantic/exploring_nature_semantic_8.png","null","",""
"","","","","","image-button-response","70","395585","0.0-12.0-1.0-1.4","7D0CC43EFF454085A097E314118598BA","7D0CC43EFF454085A097E314118598BA","4614010a-1409-456f-9c99-f6e1b44c10b5","051c06f1-75cc-4548-856d-4923ddaba0dc","{""num_scrambled_semantic"":""8"",""num_scrambled_causal"":""4"",""num_scrambled_schematic"":""4"",""participantId"":""7D0CC43EFF454085A097E314118598BA"",""assignmentId"":""4614010a-1409-456f-9c99-f6e1b44c10b5"",""projectId"":""051c06f1-75cc-4548-856d-4923ddaba0dc""}","https://test12345.live/?num_scrambled_semantic=8&num_scrambled_causal=4&num_scrambled_schematic=4&participantId=7D0CC43EFF454085A097E314118598BA&assignmentId=4614010a-1409-456f-9c99-f6e1b44c10b5&projectId=051c06f1-75cc-4548-856d-4923ddaba0dc","7D0CC43EFF454085A097E314118598BA-2025-05-15-20-45-16","","672","","images/semantic_sequence/exploring_nature_semantic/exploring_nature_semantic_8.png","0","",""
"","","","","","image-button-response","71","397399","0.0-12.0-1.0-2.4","7D0CC43EFF454085A097E314118598BA","7D0CC43EFF454085A097E314118598BA","4614010a-1409-456f-9c99-f6e1b44c10b5","051c06f1-75cc-4548-856d-4923ddaba0dc","{""num_scrambled_semantic"":""8"",""num_scrambled_causal"":""4"",""num_scrambled_schematic"":""4"",""participantId"":""7D0CC43EFF454085A097E314118598BA"",""assignmentId"":""4614010a-1409-456f-9c99-f6e1b44c10b5"",""projectId"":""051c06f1-75cc-4548-856d-4923ddaba0dc""}","https://test12345.live/?num_scrambled_semantic=8&num_scrambled_causal=4&num_scrambled_schematic=4&participantId=7D0CC43EFF454085A097E314118598BA&assignmentId=4614010a-1409-456f-9c99-f6e1b44c10b5&projectId=051c06f1-75cc-4548-856d-4923ddaba0dc","7D0CC43EFF454085A097E314118598BA-2025-05-15-20-45-16","","null","","[]","null","",""
"","","","","","image-button-response","72","401901","0.0-12.0-1.0-0.5","7D0CC43EFF454085A097E314118598BA","7D0CC43EFF454085A097E314118598BA","4614010a-1409-456f-9c99-f6e1b44c10b5","051c06f1-75cc-4548-856d-4923ddaba0dc","{""num_scrambled_semantic"":""8"",""num_scrambled_causal"":""4"",""num_scrambled_schematic"":""4"",""participantId"":""7D0CC43EFF454085A097E314118598BA"",""assignmentId"":""4614010a-1409-456f-9c99-f6e1b44c10b5"",""projectId"":""051c06f1-75cc-4548-856d-4923ddaba0dc""}","https://test12345.live/?num_scrambled_semantic=8&num_scrambled_causal=4&num_scrambled_schematic=4&participantId=7D0CC43EFF454085A097E314118598BA&assignmentId=4614010a-1409-456f-9c99-f6e1b44c10b5&projectId=051c06f1-75cc-4548-856d-4923ddaba0dc","7D0CC43EFF454085A097E314118598BA-2025-05-15-20-45-16","","null","","images/semantic_sequence/exploring_nature_semantic/exploring_nature_semantic_9.png","null","",""
"","","","","","image-button-response","73","402552","0.0-12.0-1.0-1.5","7D0CC43EFF454085A097E314118598BA","7D0CC43EFF454085A097E314118598BA","4614010a-1409-456f-9c99-f6e1b44c10b5","051c06f1-75cc-4548-856d-4923ddaba0dc","{""num_scrambled_semantic"":""8"",""num_scrambled_causal"":""4"",""num_scrambled_schematic"":""4"",""participantId"":""7D0CC43EFF454085A097E314118598BA"",""assignmentId"":""4614010a-1409-456f-9c99-f6e1b44c10b5"",""projectId"":""051c06f1-75cc-4548-856d-4923ddaba0dc""}","https://test12345.live/?num_scrambled_semantic=8&num_scrambled_causal=4&num_scrambled_schematic=4&participantId=7D0CC43EFF454085A097E314118598BA&assignmentId=4614010a-1409-456f-9c99-f6e1b44c10b5&projectId=051c06f1-75cc-4548-856d-4923ddaba0dc","7D0CC43EFF454085A097E314118598BA-2025-05-15-20-45-16","","651","","images/semantic_sequence/exploring_nature_semantic/exploring_nature_semantic_9.png","0","",""
"","","","","","image-button-response","74","404363","0.0-12.0-1.0-2.5","7D0CC43EFF454085A097E314118598BA","7D0CC43EFF454085A097E314118598BA","4614010a-1409-456f-9c99-f6e1b44c10b5","051c06f1-75cc-4548-856d-4923ddaba0dc","{""num_scrambled_semantic"":""8"",""num_scrambled_causal"":""4"",""num_scrambled_schematic"":""4"",""participantId"":""7D0CC43EFF454085A097E314118598BA"",""assignmentId"":""4614010a-1409-456f-9c99-f6e1b44c10b5"",""projectId"":""051c06f1-75cc-4548-856d-4923ddaba0dc""}","https://test12345.live/?num_scrambled_semantic=8&num_scrambled_causal=4&num_scrambled_schematic=4&participantId=7D0CC43EFF454085A097E314118598BA&assignmentId=4614010a-1409-456f-9c99-f6e1b44c10b5&projectId=051c06f1-75cc-4548-856d-4923ddaba0dc","7D0CC43EFF454085A097E314118598BA-2025-05-15-20-45-16","","null","","[]","null","",""
"","","","","","image-button-response","75","408865","0.0-12.0-1.0-0.6","7D0CC43EFF454085A097E314118598BA","7D0CC43EFF454085A097E314118598BA","4614010a-1409-456f-9c99-f6e1b44c10b5","051c06f1-75cc-4548-856d-4923ddaba0dc","{""num_scrambled_semantic"":""8"",""num_scrambled_causal"":""4"",""num_scrambled_schematic"":""4"",""participantId"":""7D0CC43EFF454085A097E314118598BA"",""assignmentId"":""4614010a-1409-456f-9c99-f6e1b44c10b5"",""projectId"":""051c06f1-75cc-4548-856d-4923ddaba0dc""}","https://test12345.live/?num_scrambled_semantic=8&num_scrambled_causal=4&num_scrambled_schematic=4&participantId=7D0CC43EFF454085A097E314118598BA&assignmentId=4614010a-1409-456f-9c99-f6e1b44c10b5&projectId=051c06f1-75cc-4548-856d-4923ddaba0dc","7D0CC43EFF454085A097E314118598BA-2025-05-15-20-45-16","","null","","images/semantic_sequence/exploring_nature_semantic/exploring_nature_semantic_4.png","null","",""
"","","","","","image-button-response","76","409577","0.0-12.0-1.0-1.6","7D0CC43EFF454085A097E314118598BA","7D0CC43EFF454085A097E314118598BA","4614010a-1409-456f-9c99-f6e1b44c10b5","051c06f1-75cc-4548-856d-4923ddaba0dc","{""num_scrambled_semantic"":""8"",""num_scrambled_causal"":""4"",""num_scrambled_schematic"":""4"",""participantId"":""7D0CC43EFF454085A097E314118598BA"",""assignmentId"":""4614010a-1409-456f-9c99-f6e1b44c10b5"",""projectId"":""051c06f1-75cc-4548-856d-4923ddaba0dc""}","https://test12345.live/?num_scrambled_semantic=8&num_scrambled_causal=4&num_scrambled_schematic=4&participantId=7D0CC43EFF454085A097E314118598BA&assignmentId=4614010a-1409-456f-9c99-f6e1b44c10b5&projectId=051c06f1-75cc-4548-856d-4923ddaba0dc","7D0CC43EFF454085A097E314118598BA-2025-05-15-20-45-16","","711","","images/semantic_sequence/exploring_nature_semantic/exploring_nature_semantic_4.png","0","",""
"","","","","","image-button-response","77","411381","0.0-12.0-1.0-2.6","7D0CC43EFF454085A097E314118598BA","7D0CC43EFF454085A097E314118598BA","4614010a-1409-456f-9c99-f6e1b44c10b5","051c06f1-75cc-4548-856d-4923ddaba0dc","{""num_scrambled_semantic"":""8"",""num_scrambled_causal"":""4"",""num_scrambled_schematic"":""4"",""participantId"":""7D0CC43EFF454085A097E314118598BA"",""assignmentId"":""4614010a-1409-456f-9c99-f6e1b44c10b5"",""projectId"":""051c06f1-75cc-4548-856d-4923ddaba0dc""}","https://test12345.live/?num_scrambled_semantic=8&num_scrambled_causal=4&num_scrambled_schematic=4&participantId=7D0CC43EFF454085A097E314118598BA&assignmentId=4614010a-1409-456f-9c99-f6e1b44c10b5&projectId=051c06f1-75cc-4548-856d-4923ddaba0dc","7D0CC43EFF454085A097E314118598BA-2025-05-15-20-45-16","","null","","[]","null","",""
"","","","","","image-button-response","78","415897","0.0-12.0-1.0-0.7","7D0CC43EFF454085A097E314118598BA","7D0CC43EFF454085A097E314118598BA","4614010a-1409-456f-9c99-f6e1b44c10b5","051c06f1-75cc-4548-856d-4923ddaba0dc","{""num_scrambled_semantic"":""8"",""num_scrambled_causal"":""4"",""num_scrambled_schematic"":""4"",""participantId"":""7D0CC43EFF454085A097E314118598BA"",""assignmentId"":""4614010a-1409-456f-9c99-f6e1b44c10b5"",""projectId"":""051c06f1-75cc-4548-856d-4923ddaba0dc""}","https://test12345.live/?num_scrambled_semantic=8&num_scrambled_causal=4&num_scrambled_schematic=4&participantId=7D0CC43EFF454085A097E314118598BA&assignmentId=4614010a-1409-456f-9c99-f6e1b44c10b5&projectId=051c06f1-75cc-4548-856d-4923ddaba0dc","7D0CC43EFF454085A097E314118598BA-2025-05-15-20-45-16","","null","","images/semantic_sequence/exploring_nature_semantic/exploring_nature_semantic_5.png","null","",""
"","","","","","image-button-response","79","416820","0.0-12.0-1.0-1.7","7D0CC43EFF454085A097E314118598BA","7D0CC43EFF454085A097E314118598BA","4614010a-1409-456f-9c99-f6e1b44c10b5","051c06f1-75cc-4548-856d-4923ddaba0dc","{""num_scrambled_semantic"":""8"",""num_scrambled_causal"":""4"",""num_scrambled_schematic"":""4"",""participantId"":""7D0CC43EFF454085A097E314118598BA"",""assignmentId"":""4614010a-1409-456f-9c99-f6e1b44c10b5"",""projectId"":""051c06f1-75cc-4548-856d-4923ddaba0dc""}","https://test12345.live/?num_scrambled_semantic=8&num_scrambled_causal=4&num_scrambled_schematic=4&participantId=7D0CC43EFF454085A097E314118598BA&assignmentId=4614010a-1409-456f-9c99-f6e1b44c10b5&projectId=051c06f1-75cc-4548-856d-4923ddaba0dc","7D0CC43EFF454085A097E314118598BA-2025-05-15-20-45-16","","922","","images/semantic_sequence/exploring_nature_semantic/exploring_nature_semantic_5.png","0","",""
"","","","","","image-button-response","80","418632","0.0-12.0-1.0-2.7","7D0CC43EFF454085A097E314118598BA","7D0CC43EFF454085A097E314118598BA","4614010a-1409-456f-9c99-f6e1b44c10b5","051c06f1-75cc-4548-856d-4923ddaba0dc","{""num_scrambled_semantic"":""8"",""num_scrambled_causal"":""4"",""num_scrambled_schematic"":""4"",""participantId"":""7D0CC43EFF454085A097E314118598BA"",""assignmentId"":""4614010a-1409-456f-9c99-f6e1b44c10b5"",""projectId"":""051c06f1-75cc-4548-856d-4923ddaba0dc""}","https://test12345.live/?num_scrambled_semantic=8&num_scrambled_causal=4&num_scrambled_schematic=4&participantId=7D0CC43EFF454085A097E314118598BA&assignmentId=4614010a-1409-456f-9c99-f6e1b44c10b5&projectId=051c06f1-75cc-4548-856d-4923ddaba0dc","7D0CC43EFF454085A097E314118598BA-2025-05-15-20-45-16","","null","","[]","null","",""
"","","","","","image-button-response","81","423138","0.0-12.0-1.0-0.8","7D0CC43EFF454085A097E314118598BA","7D0CC43EFF454085A097E314118598BA","4614010a-1409-456f-9c99-f6e1b44c10b5","051c06f1-75cc-4548-856d-4923ddaba0dc","{""num_scrambled_semantic"":""8"",""num_scrambled_causal"":""4"",""num_scrambled_schematic"":""4"",""participantId"":""7D0CC43EFF454085A097E314118598BA"",""assignmentId"":""4614010a-1409-456f-9c99-f6e1b44c10b5"",""projectId"":""051c06f1-75cc-4548-856d-4923ddaba0dc""}","https://test12345.live/?num_scrambled_semantic=8&num_scrambled_causal=4&num_scrambled_schematic=4&participantId=7D0CC43EFF454085A097E314118598BA&assignmentId=4614010a-1409-456f-9c99-f6e1b44c10b5&projectId=051c06f1-75cc-4548-856d-4923ddaba0dc","7D0CC43EFF454085A097E314118598BA-2025-05-15-20-45-16","","null","","images/semantic_sequence/exploring_nature_semantic/exploring_nature_semantic_3.png","null","",""
"","","","","","image-button-response","82","423978","0.0-12.0-1.0-1.8","7D0CC43EFF454085A097E314118598BA","7D0CC43EFF454085A097E314118598BA","4614010a-1409-456f-9c99-f6e1b44c10b5","051c06f1-75cc-4548-856d-4923ddaba0dc","{""num_scrambled_semantic"":""8"",""num_scrambled_causal"":""4"",""num_scrambled_schematic"":""4"",""participantId"":""7D0CC43EFF454085A097E314118598BA"",""assignmentId"":""4614010a-1409-456f-9c99-f6e1b44c10b5"",""projectId"":""051c06f1-75cc-4548-856d-4923ddaba0dc""}","https://test12345.live/?num_scrambled_semantic=8&num_scrambled_causal=4&num_scrambled_schematic=4&participantId=7D0CC43EFF454085A097E314118598BA&assignmentId=4614010a-1409-456f-9c99-f6e1b44c10b5&projectId=051c06f1-75cc-4548-856d-4923ddaba0dc","7D0CC43EFF454085A097E314118598BA-2025-05-15-20-45-16","","840","","images/semantic_sequence/exploring_nature_semantic/exploring_nature_semantic_3.png","0","",""
"","","","","","image-button-response","83","425786","0.0-12.0-1.0-2.8","7D0CC43EFF454085A097E314118598BA","7D0CC43EFF454085A097E314118598BA","4614010a-1409-456f-9c99-f6e1b44c10b5","051c06f1-75cc-4548-856d-4923ddaba0dc","{""num_scrambled_semantic"":""8"",""num_scrambled_causal"":""4"",""num_scrambled_schematic"":""4"",""participantId"":""7D0CC43EFF454085A097E314118598BA"",""assignmentId"":""4614010a-1409-456f-9c99-f6e1b44c10b5"",""projectId"":""051c06f1-75cc-4548-856d-4923ddaba0dc""}","https://test12345.live/?num_scrambled_semantic=8&num_scrambled_causal=4&num_scrambled_schematic=4&participantId=7D0CC43EFF454085A097E314118598BA&assignmentId=4614010a-1409-456f-9c99-f6e1b44c10b5&projectId=051c06f1-75cc-4548-856d-4923ddaba0dc","7D0CC43EFF454085A097E314118598BA-2025-05-15-20-45-16","","null","","[]","null","",""
"","","","","","image-button-response","84","430297","0.0-12.0-1.0-0.9","7D0CC43EFF454085A097E314118598BA","7D0CC43EFF454085A097E314118598BA","4614010a-1409-456f-9c99-f6e1b44c10b5","051c06f1-75cc-4548-856d-4923ddaba0dc","{""num_scrambled_semantic"":""8"",""num_scrambled_causal"":""4"",""num_scrambled_schematic"":""4"",""participantId"":""7D0CC43EFF454085A097E314118598BA"",""assignmentId"":""4614010a-1409-456f-9c99-f6e1b44c10b5"",""projectId"":""051c06f1-75cc-4548-856d-4923ddaba0dc""}","https://test12345.live/?num_scrambled_semantic=8&num_scrambled_causal=4&num_scrambled_schematic=4&participantId=7D0CC43EFF454085A097E314118598BA&assignmentId=4614010a-1409-456f-9c99-f6e1b44c10b5&projectId=051c06f1-75cc-4548-856d-4923ddaba0dc","7D0CC43EFF454085A097E314118598BA-2025-05-15-20-45-16","","null","","images/semantic_sequence/exploring_nature_semantic/exploring_nature_semantic_1.png","null","",""
"","","","","","image-button-response","85","430842","0.0-12.0-1.0-1.9","7D0CC43EFF454085A097E314118598BA","7D0CC43EFF454085A097E314118598BA","4614010a-1409-456f-9c99-f6e1b44c10b5","051c06f1-75cc-4548-856d-4923ddaba0dc","{""num_scrambled_semantic"":""8"",""num_scrambled_causal"":""4"",""num_scrambled_schematic"":""4"",""participantId"":""7D0CC43EFF454085A097E314118598BA"",""assignmentId"":""4614010a-1409-456f-9c99-f6e1b44c10b5"",""projectId"":""051c06f1-75cc-4548-856d-4923ddaba0dc""}","https://test12345.live/?num_scrambled_semantic=8&num_scrambled_causal=4&num_scrambled_schematic=4&participantId=7D0CC43EFF454085A097E314118598BA&assignmentId=4614010a-1409-456f-9c99-f6e1b44c10b5&projectId=051c06f1-75cc-4548-856d-4923ddaba0dc","7D0CC43EFF454085A097E314118598BA-2025-05-15-20-45-16","","544","","images/semantic_sequence/exploring_nature_semantic/exploring_nature_semantic_1.png","0","",""
"","","","","","image-button-response","86","432644","0.0-12.0-1.0-2.9","7D0CC43EFF454085A097E314118598BA","7D0CC43EFF454085A097E314118598BA","4614010a-1409-456f-9c99-f6e1b44c10b5","051c06f1-75cc-4548-856d-4923ddaba0dc","{""num_scrambled_semantic"":""8"",""num_scrambled_causal"":""4"",""num_scrambled_schematic"":""4"",""participantId"":""7D0CC43EFF454085A097E314118598BA"",""assignmentId"":""4614010a-1409-456f-9c99-f6e1b44c10b5"",""projectId"":""051c06f1-75cc-4548-856d-4923ddaba0dc""}","https://test12345.live/?num_scrambled_semantic=8&num_scrambled_causal=4&num_scrambled_schematic=4&participantId=7D0CC43EFF454085A097E314118598BA&assignmentId=4614010a-1409-456f-9c99-f6e1b44c10b5&projectId=051c06f1-75cc-4548-856d-4923ddaba0dc","7D0CC43EFF454085A097E314118598BA-2025-05-15-20-45-16","","null","","[]","null","",""
"","","","","","html-audio-response","87","503904","0.0-13.0","7D0CC43EFF454085A097E314118598BA","7D0CC43EFF454085A097E314118598BA","4614010a-1409-456f-9c99-f6e1b44c10b5","051c06f1-75cc-4548-856d-4923ddaba0dc","{""num_scrambled_semantic"":""8"",""num_scrambled_causal"":""4"",""num_scrambled_schematic"":""4"",""participantId"":""7D0CC43EFF454085A097E314118598BA"",""assignmentId"":""4614010a-1409-456f-9c99-f6e1b44c10b5"",""projectId"":""051c06f1-75cc-4548-856d-4923ddaba0dc""}","https://test12345.live/?num_scrambled_semantic=8&num_scrambled_causal=4&num_scrambled_schematic=4&participantId=7D0CC43EFF454085A097E314118598BA&assignmentId=4614010a-1409-456f-9c99-f6e1b44c10b5&projectId=051c06f1-75cc-4548-856d-4923ddaba0dc","7D0CC43EFF454085A097E314118598BA-2025-05-15-20-45-16","","35071","","[""<span style=\""color: red; font-size: 24px\""> NOW RECORDING</span><p>Please say out loud all the images you saw, as many as you can remember. The images can be said in any order.</p>""]","","1","exploring_nature_semantic"
"","","","","","image-button-response","88","509912","0.0-14.0-0.0","7D0CC43EFF454085A097E314118598BA","7D0CC43EFF454085A097E314118598BA","4614010a-1409-456f-9c99-f6e1b44c10b5","051c06f1-75cc-4548-856d-4923ddaba0dc","{""num_scrambled_semantic"":""8"",""num_scrambled_causal"":""4"",""num_scrambled_schematic"":""4"",""participantId"":""7D0CC43EFF454085A097E314118598BA"",""assignmentId"":""4614010a-1409-456f-9c99-f6e1b44c10b5"",""projectId"":""051c06f1-75cc-4548-856d-4923ddaba0dc""}","https://test12345.live/?num_scrambled_semantic=8&num_scrambled_causal=4&num_scrambled_schematic=4&participantId=7D0CC43EFF454085A097E314118598BA&assignmentId=4614010a-1409-456f-9c99-f6e1b44c10b5&projectId=051c06f1-75cc-4548-856d-4923ddaba0dc","7D0CC43EFF454085A097E314118598BA-2025-05-15-20-45-16","","null","","images/semantic_sequence/using_technology_semantic/using_technology_semantic_0.png","null","",""
"","","","","","image-button-response","89","514418","0.0-14.0-1.0-0.0","7D0CC43EFF454085A097E314118598BA","7D0CC43EFF454085A097E314118598BA","4614010a-1409-456f-9c99-f6e1b44c10b5","051c06f1-75cc-4548-856d-4923ddaba0dc","{""num_scrambled_semantic"":""8"",""num_scrambled_causal"":""4"",""num_scrambled_schematic"":""4"",""participantId"":""7D0CC43EFF454085A097E314118598BA"",""assignmentId"":""4614010a-1409-456f-9c99-f6e1b44c10b5"",""projectId"":""051c06f1-75cc-4548-856d-4923ddaba0dc""}","https://test12345.live/?num_scrambled_semantic=8&num_scrambled_causal=4&num_scrambled_schematic=4&participantId=7D0CC43EFF454085A097E314118598BA&assignmentId=4614010a-1409-456f-9c99-f6e1b44c10b5&projectId=051c06f1-75cc-4548-856d-4923ddaba0dc","7D0CC43EFF454085A097E314118598BA-2025-05-15-20-45-16","","null","","images/semantic_sequence/using_technology_semantic/using_technology_semantic_4.png","null","",""
"","","","","","image-button-response","90","515571","0.0-14.0-1.0-1.0","7D0CC43EFF454085A097E314118598BA","7D0CC43EFF454085A097E314118598BA","4614010a-1409-456f-9c99-f6e1b44c10b5","051c06f1-75cc-4548-856d-4923ddaba0dc","{""num_scrambled_semantic"":""8"",""num_scrambled_causal"":""4"",""num_scrambled_schematic"":""4"",""participantId"":""7D0CC43EFF454085A097E314118598BA"",""assignmentId"":""4614010a-1409-456f-9c99-f6e1b44c10b5"",""projectId"":""051c06f1-75cc-4548-856d-4923ddaba0dc""}","https://test12345.live/?num_scrambled_semantic=8&num_scrambled_causal=4&num_scrambled_schematic=4&participantId=7D0CC43EFF454085A097E314118598BA&assignmentId=4614010a-1409-456f-9c99-f6e1b44c10b5&projectId=051c06f1-75cc-4548-856d-4923ddaba0dc","7D0CC43EFF454085A097E314118598BA-2025-05-15-20-45-16","","1153","","images/semantic_sequence/using_technology_semantic/using_technology_semantic_4.png","0","",""
"","","","","","image-button-response","91","517383","0.0-14.0-1.0-2.0","7D0CC43EFF454085A097E314118598BA","7D0CC43EFF454085A097E314118598BA","4614010a-1409-456f-9c99-f6e1b44c10b5","051c06f1-75cc-4548-856d-4923ddaba0dc","{""num_scrambled_semantic"":""8"",""num_scrambled_causal"":""4"",""num_scrambled_schematic"":""4"",""participantId"":""7D0CC43EFF454085A097E314118598BA"",""assignmentId"":""4614010a-1409-456f-9c99-f6e1b44c10b5"",""projectId"":""051c06f1-75cc-4548-856d-4923ddaba0dc""}","https://test12345.live/?num_scrambled_semantic=8&num_scrambled_causal=4&num_scrambled_schematic=4&participantId=7D0CC43EFF454085A097E314118598BA&assignmentId=4614010a-1409-456f-9c99-f6e1b44c10b5&projectId=051c06f1-75cc-4548-856d-4923ddaba0dc","7D0CC43EFF454085A097E314118598BA-2025-05-15-20-45-16","","null","","[]","null","",""
"","","","","","image-button-response","92","521892","0.0-14.0-1.0-0.1","7D0CC43EFF454085A097E314118598BA","7D0CC43EFF454085A097E314118598BA","4614010a-1409-456f-9c99-f6e1b44c10b5","051c06f1-75cc-4548-856d-4923ddaba0dc","{""num_scrambled_semantic"":""8"",""num_scrambled_causal"":""4"",""num_scrambled_schematic"":""4"",""participantId"":""7D0CC43EFF454085A097E314118598BA"",""assignmentId"":""4614010a-1409-456f-9c99-f6e1b44c10b5"",""projectId"":""051c06f1-75cc-4548-856d-4923ddaba0dc""}","https://test12345.live/?num_scrambled_semantic=8&num_scrambled_causal=4&num_scrambled_schematic=4&participantId=7D0CC43EFF454085A097E314118598BA&assignmentId=4614010a-1409-456f-9c99-f6e1b44c10b5&projectId=051c06f1-75cc-4548-856d-4923ddaba0dc","7D0CC43EFF454085A097E314118598BA-2025-05-15-20-45-16","","null","","images/semantic_sequence/using_technology_semantic/using_technology_semantic_9.png","null","",""
"","","","","","image-button-response","93","522892","0.0-14.0-1.0-1.1","7D0CC43EFF454085A097E314118598BA","7D0CC43EFF454085A097E314118598BA","4614010a-1409-456f-9c99-f6e1b44c10b5","051c06f1-75cc-4548-856d-4923ddaba0dc","{""num_scrambled_semantic"":""8"",""num_scrambled_causal"":""4"",""num_scrambled_schematic"":""4"",""participantId"":""7D0CC43EFF454085A097E314118598BA"",""assignmentId"":""4614010a-1409-456f-9c99-f6e1b44c10b5"",""projectId"":""051c06f1-75cc-4548-856d-4923ddaba0dc""}","https://test12345.live/?num_scrambled_semantic=8&num_scrambled_causal=4&num_scrambled_schematic=4&participantId=7D0CC43EFF454085A097E314118598BA&assignmentId=4614010a-1409-456f-9c99-f6e1b44c10b5&projectId=051c06f1-75cc-4548-856d-4923ddaba0dc","7D0CC43EFF454085A097E314118598BA-2025-05-15-20-45-16","","1000","","images/semantic_sequence/using_technology_semantic/using_technology_semantic_9.png","0","",""
"","","","","","image-button-response","94","524704","0.0-14.0-1.0-2.1","7D0CC43EFF454085A097E314118598BA","7D0CC43EFF454085A097E314118598BA","4614010a-1409-456f-9c99-f6e1b44c10b5","051c06f1-75cc-4548-856d-4923ddaba0dc","{""num_scrambled_semantic"":""8"",""num_scrambled_causal"":""4"",""num_scrambled_schematic"":""4"",""participantId"":""7D0CC43EFF454085A097E314118598BA"",""assignmentId"":""4614010a-1409-456f-9c99-f6e1b44c10b5"",""projectId"":""051c06f1-75cc-4548-856d-4923ddaba0dc""}","https://test12345.live/?num_scrambled_semantic=8&num_scrambled_causal=4&num_scrambled_schematic=4&participantId=7D0CC43EFF454085A097E314118598BA&assignmentId=4614010a-1409-456f-9c99-f6e1b44c10b5&projectId=051c06f1-75cc-4548-856d-4923ddaba0dc","7D0CC43EFF454085A097E314118598BA-2025-05-15-20-45-16","","null","","[]","null","",""
"","","","","","image-button-response","95","529212","0.0-14.0-1.0-0.2","7D0CC43EFF454085A097E314118598BA","7D0CC43EFF454085A097E314118598BA","4614010a-1409-456f-9c99-f6e1b44c10b5","051c06f1-75cc-4548-856d-4923ddaba0dc","{""num_scrambled_semantic"":""8"",""num_scrambled_causal"":""4"",""num_scrambled_schematic"":""4"",""participantId"":""7D0CC43EFF454085A097E314118598BA"",""assignmentId"":""4614010a-1409-456f-9c99-f6e1b44c10b5"",""projectId"":""051c06f1-75cc-4548-856d-4923ddaba0dc""}","https://test12345.live/?num_scrambled_semantic=8&num_scrambled_causal=4&num_scrambled_schematic=4&participantId=7D0CC43EFF454085A097E314118598BA&assignmentId=4614010a-1409-456f-9c99-f6e1b44c10b5&projectId=051c06f1-75cc-4548-856d-4923ddaba0dc","7D0CC43EFF454085A097E314118598BA-2025-05-15-20-45-16","","null","","images/semantic_sequence/using_technology_semantic/using_technology_semantic_2.png","null","",""
"","","","","","image-button-response","96","530208","0.0-14.0-1.0-1.2","7D0CC43EFF454085A097E314118598BA","7D0CC43EFF454085A097E314118598BA","4614010a-1409-456f-9c99-f6e1b44c10b5","051c06f1-75cc-4548-856d-4923ddaba0dc","{""num_scrambled_semantic"":""8"",""num_scrambled_causal"":""4"",""num_scrambled_schematic"":""4"",""participantId"":""7D0CC43EFF454085A097E314118598BA"",""assignmentId"":""4614010a-1409-456f-9c99-f6e1b44c10b5"",""projectId"":""051c06f1-75cc-4548-856d-4923ddaba0dc""}","https://test12345.live/?num_scrambled_semantic=8&num_scrambled_causal=4&num_scrambled_schematic=4&participantId=7D0CC43EFF454085A097E314118598BA&assignmentId=4614010a-1409-456f-9c99-f6e1b44c10b5&projectId=051c06f1-75cc-4548-856d-4923ddaba0dc","7D0CC43EFF454085A097E314118598BA-2025-05-15-20-45-16","","996","","images/semantic_sequence/using_technology_semantic/using_technology_semantic_2.png","0","",""
"","","","","","image-button-response","97","532010","0.0-14.0-1.0-2.2","7D0CC43EFF454085A097E314118598BA","7D0CC43EFF454085A097E314118598BA","4614010a-1409-456f-9c99-f6e1b44c10b5","051c06f1-75cc-4548-856d-4923ddaba0dc","{""num_scrambled_semantic"":""8"",""num_scrambled_causal"":""4"",""num_scrambled_schematic"":""4"",""participantId"":""7D0CC43EFF454085A097E314118598BA"",""assignmentId"":""4614010a-1409-456f-9c99-f6e1b44c10b5"",""projectId"":""051c06f1-75cc-4548-856d-4923ddaba0dc""}","https://test12345.live/?num_scrambled_semantic=8&num_scrambled_causal=4&num_scrambled_schematic=4&participantId=7D0CC43EFF454085A097E314118598BA&assignmentId=4614010a-1409-456f-9c99-f6e1b44c10b5&projectId=051c06f1-75cc-4548-856d-4923ddaba0dc","7D0CC43EFF454085A097E314118598BA-2025-05-15-20-45-16","","null","","[]","null","",""
"","","","","","image-button-response","98","536522","0.0-14.0-1.0-0.3","7D0CC43EFF454085A097E314118598BA","7D0CC43EFF454085A097E314118598BA","4614010a-1409-456f-9c99-f6e1b44c10b5","051c06f1-75cc-4548-856d-4923ddaba0dc","{""num_scrambled_semantic"":""8"",""num_scrambled_causal"":""4"",""num_scrambled_schematic"":""4"",""participantId"":""7D0CC43EFF454085A097E314118598BA"",""assignmentId"":""4614010a-1409-456f-9c99-f6e1b44c10b5"",""projectId"":""051c06f1-75cc-4548-856d-4923ddaba0dc""}","https://test12345.live/?num_scrambled_semantic=8&num_scrambled_causal=4&num_scrambled_schematic=4&participantId=7D0CC43EFF454085A097E314118598BA&assignmentId=4614010a-1409-456f-9c99-f6e1b44c10b5&projectId=051c06f1-75cc-4548-856d-4923ddaba0dc","7D0CC43EFF454085A097E314118598BA-2025-05-15-20-45-16","","null","","images/semantic_sequence/using_technology_semantic/using_technology_semantic_5.png","null","",""
"","","","","","image-button-response","99","537277","0.0-14.0-1.0-1.3","7D0CC43EFF454085A097E314118598BA","7D0CC43EFF454085A097E314118598BA","4614010a-1409-456f-9c99-f6e1b44c10b5","051c06f1-75cc-4548-856d-4923ddaba0dc","{""num_scrambled_semantic"":""8"",""num_scrambled_causal"":""4"",""num_scrambled_schematic"":""4"",""participantId"":""7D0CC43EFF454085A097E314118598BA"",""assignmentId"":""4614010a-1409-456f-9c99-f6e1b44c10b5"",""projectId"":""051c06f1-75cc-4548-856d-4923ddaba0dc""}","https://test12345.live/?num_scrambled_semantic=8&num_scrambled_causal=4&num_scrambled_schematic=4&participantId=7D0CC43EFF454085A097E314118598BA&assignmentId=4614010a-1409-456f-9c99-f6e1b44c10b5&projectId=051c06f1-75cc-4548-856d-4923ddaba0dc","7D0CC43EFF454085A097E314118598BA-2025-05-15-20-45-16","","754","","images/semantic_sequence/using_technology_semantic/using_technology_semantic_5.png","0","",""
"","","","","","image-button-response","100","539084","0.0-14.0-1.0-2.3","7D0CC43EFF454085A097E314118598BA","7D0CC43EFF454085A097E314118598BA","4614010a-1409-456f-9c99-f6e1b44c10b5","051c06f1-75cc-4548-856d-4923ddaba0dc","{""num_scrambled_semantic"":""8"",""num_scrambled_causal"":""4"",""num_scrambled_schematic"":""4"",""participantId"":""7D0CC43EFF454085A097E314118598BA"",""assignmentId"":""4614010a-1409-456f-9c99-f6e1b44c10b5"",""projectId"":""051c06f1-75cc-4548-856d-4923ddaba0dc""}","https://test12345.live/?num_scrambled_semantic=8&num_scrambled_causal=4&num_scrambled_schematic=4&participantId=7D0CC43EFF454085A097E314118598BA&assignmentId=4614010a-1409-456f-9c99-f6e1b44c10b5&projectId=051c06f1-75cc-4548-856d-4923ddaba0dc","7D0CC43EFF454085A097E314118598BA-2025-05-15-20-45-16","","null","","[]","null","",""
"","","","","","image-button-response","101","543596","0.0-14.0-1.0-0.4","7D0CC43EFF454085A097E314118598BA","7D0CC43EFF454085A097E314118598BA","4614010a-1409-456f-9c99-f6e1b44c10b5","051c06f1-75cc-4548-856d-4923ddaba0dc","{""num_scrambled_semantic"":""8"",""num_scrambled_causal"":""4"",""num_scrambled_schematic"":""4"",""participantId"":""7D0CC43EFF454085A097E314118598BA"",""assignmentId"":""4614010a-1409-456f-9c99-f6e1b44c10b5"",""projectId"":""051c06f1-75cc-4548-856d-4923ddaba0dc""}","https://test12345.live/?num_scrambled_semantic=8&num_scrambled_causal=4&num_scrambled_schematic=4&participantId=7D0CC43EFF454085A097E314118598BA&assignmentId=4614010a-1409-456f-9c99-f6e1b44c10b5&projectId=051c06f1-75cc-4548-856d-4923ddaba0dc","7D0CC43EFF454085A097E314118598BA-2025-05-15-20-45-16","","null","","images/semantic_sequence/using_technology_semantic/using_technology_semantic_3.png","null","",""
"","","","","","image-button-response","102","544036","0.0-14.0-1.0-1.4","7D0CC43EFF454085A097E314118598BA","7D0CC43EFF454085A097E314118598BA","4614010a-1409-456f-9c99-f6e1b44c10b5","051c06f1-75cc-4548-856d-4923ddaba0dc","{""num_scrambled_semantic"":""8"",""num_scrambled_causal"":""4"",""num_scrambled_schematic"":""4"",""participantId"":""7D0CC43EFF454085A097E314118598BA"",""assignmentId"":""4614010a-1409-456f-9c99-f6e1b44c10b5"",""projectId"":""051c06f1-75cc-4548-856d-4923ddaba0dc""}","https://test12345.live/?num_scrambled_semantic=8&num_scrambled_causal=4&num_scrambled_schematic=4&participantId=7D0CC43EFF454085A097E314118598BA&assignmentId=4614010a-1409-456f-9c99-f6e1b44c10b5&projectId=051c06f1-75cc-4548-856d-4923ddaba0dc","7D0CC43EFF454085A097E314118598BA-2025-05-15-20-45-16","","439","","images/semantic_sequence/using_technology_semantic/using_technology_semantic_3.png","0","",""
"","","","","","image-button-response","103","545847","0.0-14.0-1.0-2.4","7D0CC43EFF454085A097E314118598BA","7D0CC43EFF454085A097E314118598BA","4614010a-1409-456f-9c99-f6e1b44c10b5","051c06f1-75cc-4548-856d-4923ddaba0dc","{""num_scrambled_semantic"":""8"",""num_scrambled_causal"":""4"",""num_scrambled_schematic"":""4"",""participantId"":""7D0CC43EFF454085A097E314118598BA"",""assignmentId"":""4614010a-1409-456f-9c99-f6e1b44c10b5"",""projectId"":""051c06f1-75cc-4548-856d-4923ddaba0dc""}","https://test12345.live/?num_scrambled_semantic=8&num_scrambled_causal=4&num_scrambled_schematic=4&participantId=7D0CC43EFF454085A097E314118598BA&assignmentId=4614010a-1409-456f-9c99-f6e1b44c10b5&projectId=051c06f1-75cc-4548-856d-4923ddaba0dc","7D0CC43EFF454085A097E314118598BA-2025-05-15-20-45-16","","null","","[]","null","",""
"","","","","","image-button-response","104","550356","0.0-14.0-1.0-0.5","7D0CC43EFF454085A097E314118598BA","7D0CC43EFF454085A097E314118598BA","4614010a-1409-456f-9c99-f6e1b44c10b5","051c06f1-75cc-4548-856d-4923ddaba0dc","{""num_scrambled_semantic"":""8"",""num_scrambled_causal"":""4"",""num_scrambled_schematic"":""4"",""participantId"":""7D0CC43EFF454085A097E314118598BA"",""assignmentId"":""4614010a-1409-456f-9c99-f6e1b44c10b5"",""projectId"":""051c06f1-75cc-4548-856d-4923ddaba0dc""}","https://test12345.live/?num_scrambled_semantic=8&num_scrambled_causal=4&num_scrambled_schematic=4&participantId=7D0CC43EFF454085A097E314118598BA&assignmentId=4614010a-1409-456f-9c99-f6e1b44c10b5&projectId=051c06f1-75cc-4548-856d-4923ddaba0dc","7D0CC43EFF454085A097E314118598BA-2025-05-15-20-45-16","","null","","images/semantic_sequence/using_technology_semantic/using_technology_semantic_1.png","null","",""
"","","","","","image-button-response","105","551378","0.0-14.0-1.0-1.5","7D0CC43EFF454085A097E314118598BA","7D0CC43EFF454085A097E314118598BA","4614010a-1409-456f-9c99-f6e1b44c10b5","051c06f1-75cc-4548-856d-4923ddaba0dc","{""num_scrambled_semantic"":""8"",""num_scrambled_causal"":""4"",""num_scrambled_schematic"":""4"",""participantId"":""7D0CC43EFF454085A097E314118598BA"",""assignmentId"":""4614010a-1409-456f-9c99-f6e1b44c10b5"",""projectId"":""051c06f1-75cc-4548-856d-4923ddaba0dc""}","https://test12345.live/?num_scrambled_semantic=8&num_scrambled_causal=4&num_scrambled_schematic=4&participantId=7D0CC43EFF454085A097E314118598BA&assignmentId=4614010a-1409-456f-9c99-f6e1b44c10b5&projectId=051c06f1-75cc-4548-856d-4923ddaba0dc","7D0CC43EFF454085A097E314118598BA-2025-05-15-20-45-16","","1021","","images/semantic_sequence/using_technology_semantic/using_technology_semantic_1.png","0","",""
"","","","","","image-button-response","106","553184","0.0-14.0-1.0-2.5","7D0CC43EFF454085A097E314118598BA","7D0CC43EFF454085A097E314118598BA","4614010a-1409-456f-9c99-f6e1b44c10b5","051c06f1-75cc-4548-856d-4923ddaba0dc","{""num_scrambled_semantic"":""8"",""num_scrambled_causal"":""4"",""num_scrambled_schematic"":""4"",""participantId"":""7D0CC43EFF454085A097E314118598BA"",""assignmentId"":""4614010a-1409-456f-9c99-f6e1b44c10b5"",""projectId"":""051c06f1-75cc-4548-856d-4923ddaba0dc""}","https://test12345.live/?num_scrambled_semantic=8&num_scrambled_causal=4&num_scrambled_schematic=4&participantId=7D0CC43EFF454085A097E314118598BA&assignmentId=4614010a-1409-456f-9c99-f6e1b44c10b5&projectId=051c06f1-75cc-4548-856d-4923ddaba0dc","7D0CC43EFF454085A097E314118598BA-2025-05-15-20-45-16","","null","","[]","null","",""
"","","","","","image-button-response","107","557695","0.0-14.0-1.0-0.6","7D0CC43EFF454085A097E314118598BA","7D0CC43EFF454085A097E314118598BA","4614010a-1409-456f-9c99-f6e1b44c10b5","051c06f1-75cc-4548-856d-4923ddaba0dc","{""num_scrambled_semantic"":""8"",""num_scrambled_causal"":""4"",""num_scrambled_schematic"":""4"",""participantId"":""7D0CC43EFF454085A097E314118598BA"",""assignmentId"":""4614010a-1409-456f-9c99-f6e1b44c10b5"",""projectId"":""051c06f1-75cc-4548-856d-4923ddaba0dc""}","https://test12345.live/?num_scrambled_semantic=8&num_scrambled_causal=4&num_scrambled_schematic=4&participantId=7D0CC43EFF454085A097E314118598BA&assignmentId=4614010a-1409-456f-9c99-f6e1b44c10b5&projectId=051c06f1-75cc-4548-856d-4923ddaba0dc","7D0CC43EFF454085A097E314118598BA-2025-05-15-20-45-16","","null","","images/semantic_sequence/using_technology_semantic/using_technology_semantic_7.png","null","",""
"","","","","","image-button-response","108","558220","0.0-14.0-1.0-1.6","7D0CC43EFF454085A097E314118598BA","7D0CC43EFF454085A097E314118598BA","4614010a-1409-456f-9c99-f6e1b44c10b5","051c06f1-75cc-4548-856d-4923ddaba0dc","{""num_scrambled_semantic"":""8"",""num_scrambled_causal"":""4"",""num_scrambled_schematic"":""4"",""participantId"":""7D0CC43EFF454085A097E314118598BA"",""assignmentId"":""4614010a-1409-456f-9c99-f6e1b44c10b5"",""projectId"":""051c06f1-75cc-4548-856d-4923ddaba0dc""}","https://test12345.live/?num_scrambled_semantic=8&num_scrambled_causal=4&num_scrambled_schematic=4&participantId=7D0CC43EFF454085A097E314118598BA&assignmentId=4614010a-1409-456f-9c99-f6e1b44c10b5&projectId=051c06f1-75cc-4548-856d-4923ddaba0dc","7D0CC43EFF454085A097E314118598BA-2025-05-15-20-45-16","","524","","images/semantic_sequence/using_technology_semantic/using_technology_semantic_7.png","0","",""
"","","","","","image-button-response","109","560027","0.0-14.0-1.0-2.6","7D0CC43EFF454085A097E314118598BA","7D0CC43EFF454085A097E314118598BA","4614010a-1409-456f-9c99-f6e1b44c10b5","051c06f1-75cc-4548-856d-4923ddaba0dc","{""num_scrambled_semantic"":""8"",""num_scrambled_causal"":""4"",""num_scrambled_schematic"":""4"",""participantId"":""7D0CC43EFF454085A097E314118598BA"",""assignmentId"":""4614010a-1409-456f-9c99-f6e1b44c10b5"",""projectId"":""051c06f1-75cc-4548-856d-4923ddaba0dc""}","https://test12345.live/?num_scrambled_semantic=8&num_scrambled_causal=4&num_scrambled_schematic=4&participantId=7D0CC43EFF454085A097E314118598BA&assignmentId=4614010a-1409-456f-9c99-f6e1b44c10b5&projectId=051c06f1-75cc-4548-856d-4923ddaba0dc","7D0CC43EFF454085A097E314118598BA-2025-05-15-20-45-16","","null","","[]","null","",""
"","","","","","image-button-response","110","564537","0.0-14.0-1.0-0.7","7D0CC43EFF454085A097E314118598BA","7D0CC43EFF454085A097E314118598BA","4614010a-1409-456f-9c99-f6e1b44c10b5","051c06f1-75cc-4548-856d-4923ddaba0dc","{""num_scrambled_semantic"":""8"",""num_scrambled_causal"":""4"",""num_scrambled_schematic"":""4"",""participantId"":""7D0CC43EFF454085A097E314118598BA"",""assignmentId"":""4614010a-1409-456f-9c99-f6e1b44c10b5"",""projectId"":""051c06f1-75cc-4548-856d-4923ddaba0dc""}","https://test12345.live/?num_scrambled_semantic=8&num_scrambled_causal=4&num_scrambled_schematic=4&participantId=7D0CC43EFF454085A097E314118598BA&assignmentId=4614010a-1409-456f-9c99-f6e1b44c10b5&projectId=051c06f1-75cc-4548-856d-4923ddaba0dc","7D0CC43EFF454085A097E314118598BA-2025-05-15-20-45-16","","null","","images/semantic_sequence/using_technology_semantic/using_technology_semantic_8.png","null","",""
"","","","","","image-button-response","111","565113","0.0-14.0-1.0-1.7","7D0CC43EFF454085A097E314118598BA","7D0CC43EFF454085A097E314118598BA","4614010a-1409-456f-9c99-f6e1b44c10b5","051c06f1-75cc-4548-856d-4923ddaba0dc","{""num_scrambled_semantic"":""8"",""num_scrambled_causal"":""4"",""num_scrambled_schematic"":""4"",""participantId"":""7D0CC43EFF454085A097E314118598BA"",""assignmentId"":""4614010a-1409-456f-9c99-f6e1b44c10b5"",""projectId"":""051c06f1-75cc-4548-856d-4923ddaba0dc""}","https://test12345.live/?num_scrambled_semantic=8&num_scrambled_causal=4&num_scrambled_schematic=4&participantId=7D0CC43EFF454085A097E314118598BA&assignmentId=4614010a-1409-456f-9c99-f6e1b44c10b5&projectId=051c06f1-75cc-4548-856d-4923ddaba0dc","7D0CC43EFF454085A097E314118598BA-2025-05-15-20-45-16","","575","","images/semantic_sequence/using_technology_semantic/using_technology_semantic_8.png","0","",""
"","","","","","image-button-response","112","566917","0.0-14.0-1.0-2.7","7D0CC43EFF454085A097E314118598BA","7D0CC43EFF454085A097E314118598BA","4614010a-1409-456f-9c99-f6e1b44c10b5","051c06f1-75cc-4548-856d-4923ddaba0dc","{""num_scrambled_semantic"":""8"",""num_scrambled_causal"":""4"",""num_scrambled_schematic"":""4"",""participantId"":""7D0CC43EFF454085A097E314118598BA"",""assignmentId"":""4614010a-1409-456f-9c99-f6e1b44c10b5"",""projectId"":""051c06f1-75cc-4548-856d-4923ddaba0dc""}","https://test12345.live/?num_scrambled_semantic=8&num_scrambled_causal=4&num_scrambled_schematic=4&participantId=7D0CC43EFF454085A097E314118598BA&assignmentId=4614010a-1409-456f-9c99-f6e1b44c10b5&projectId=051c06f1-75cc-4548-856d-4923ddaba0dc","7D0CC43EFF454085A097E314118598BA-2025-05-15-20-45-16","","null","","[]","null","",""
"","","","","","image-button-response","113","571422","0.0-14.0-1.0-0.8","7D0CC43EFF454085A097E314118598BA","7D0CC43EFF454085A097E314118598BA","4614010a-1409-456f-9c99-f6e1b44c10b5","051c06f1-75cc-4548-856d-4923ddaba0dc","{""num_scrambled_semantic"":""8"",""num_scrambled_causal"":""4"",""num_scrambled_schematic"":""4"",""participantId"":""7D0CC43EFF454085A097E314118598BA"",""assignmentId"":""4614010a-1409-456f-9c99-f6e1b44c10b5"",""projectId"":""051c06f1-75cc-4548-856d-4923ddaba0dc""}","https://test12345.live/?num_scrambled_semantic=8&num_scrambled_causal=4&num_scrambled_schematic=4&participantId=7D0CC43EFF454085A097E314118598BA&assignmentId=4614010a-1409-456f-9c99-f6e1b44c10b5&projectId=051c06f1-75cc-4548-856d-4923ddaba0dc","7D0CC43EFF454085A097E314118598BA-2025-05-15-20-45-16","","null","","images/semantic_sequence/using_technology_semantic/using_technology_semantic_ten.png","null","",""
