"success","timeout","failed_images","failed_audio","failed_video","trial_type","trial_index","time_elapsed","internal_node_id","subject","subject_id","study_id","session_id","urlvar","current_url","audio_id","view_history","rt","device_id","stimulus","response","estimated_stimulus_onset","seq_name"
"true","false","[]","[]","[]","preload","0","6590","0.0-0.0","7D7784B916E54053848236BCD32C8727","7D7784B916E54053848236BCD32C8727","0198beb4-c60d-7c0c-a7ae-de97d8739853","0198be8b-78cf-72d2-ba2b-1e62c78022e0","{""num_scrambled_semantic"":""8"",""num_scrambled_causal"":""4"",""num_scrambled_schematic"":""4"",""participantId"":""7D7784B916E54053848236BCD32C8727"",""assignmentId"":""0198beb4-c60d-7c0c-a7ae-de97d8739853"",""projectId"":""0198be8b-78cf-72d2-ba2b-1e62c78022e0""}","https://test12345.live/?num_scrambled_semantic=8&num_scrambled_causal=4&num_scrambled_schematic=4&participantId=7D7784B916E54053848236BCD32C8727&assignmentId=0198beb4-c60d-7c0c-a7ae-de97d8739853&projectId=0198be8b-78cf-72d2-ba2b-1e62c78022e0","7D7784B916E54053848236BCD32C8727-2025-08-18-20-10-17","","","","","","",""
"","","","","","instructions","1","27493","0.0-1.0","7D7784B916E54053848236BCD32C8727","7D7784B916E54053848236BCD32C8727","0198beb4-c60d-7c0c-a7ae-de97d8739853","0198be8b-78cf-72d2-ba2b-1e62c78022e0","{""num_scrambled_semantic"":""8"",""num_scrambled_causal"":""4"",""num_scrambled_schematic"":""4"",""participantId"":""7D7784B916E54053848236BCD32C8727"",""assignmentId"":""0198beb4-c60d-7c0c-a7ae-de97d8739853"",""projectId"":""0198be8b-78cf-72d2-ba2b-1e62c78022e0""}","https://test12345.live/?num_scrambled_semantic=8&num_scrambled_causal=4&num_scrambled_schematic=4&participantId=7D7784B916E54053848236BCD32C8727&assignmentId=0198beb4-c60d-7c0c-a7ae-de97d8739853&projectId=0198be8b-78cf-72d2-ba2b-1e62c78022e0","7D7784B916E54053848236BCD32C8727-2025-08-18-20-10-17","[{""page_index"":0,""viewing_time"":20902}]","20902","","","","",""
"","","","","","instructions","2","33324","0.0-2.0","7D7784B916E54053848236BCD32C8727","7D7784B916E54053848236BCD32C8727","0198beb4-c60d-7c0c-a7ae-de97d8739853","0198be8b-78cf-72d2-ba2b-1e62c78022e0","{""num_scrambled_semantic"":""8"",""num_scrambled_causal"":""4"",""num_scrambled_schematic"":""4"",""participantId"":""7D7784B916E54053848236BCD32C8727"",""assignmentId"":""0198beb4-c60d-7c0c-a7ae-de97d8739853"",""projectId"":""0198be8b-78cf-72d2-ba2b-1e62c78022e0""}","https://test12345.live/?num_scrambled_semantic=8&num_scrambled_causal=4&num_scrambled_schematic=4&participantId=7D7784B916E54053848236BCD32C8727&assignmentId=0198beb4-c60d-7c0c-a7ae-de97d8739853&projectId=0198be8b-78cf-72d2-ba2b-1e62c78022e0","7D7784B916E54053848236BCD32C8727-2025-08-18-20-10-17","[{""page_index"":0,""viewing_time"":5830}]","5830","","","","",""
"true","","","","","fullscreen","3","74360","0.0-3.0","7D7784B916E54053848236BCD32C8727","7D7784B916E54053848236BCD32C8727","0198beb4-c60d-7c0c-a7ae-de97d8739853","0198be8b-78cf-72d2-ba2b-1e62c78022e0","{""num_scrambled_semantic"":""8"",""num_scrambled_causal"":""4"",""num_scrambled_schematic"":""4"",""participantId"":""7D7784B916E54053848236BCD32C8727"",""assignmentId"":""0198beb4-c60d-7c0c-a7ae-de97d8739853"",""projectId"":""0198be8b-78cf-72d2-ba2b-1e62c78022e0""}","https://test12345.live/?num_scrambled_semantic=8&num_scrambled_causal=4&num_scrambled_schematic=4&participantId=7D7784B916E54053848236BCD32C8727&assignmentId=0198beb4-c60d-7c0c-a7ae-de97d8739853&projectId=0198be8b-78cf-72d2-ba2b-1e62c78022e0","7D7784B916E54053848236BCD32C8727-2025-08-18-20-10-17","","40023","","","","",""
"","","","","","initialize-microphone","4","90235","0.0-4.0-0.0","7D7784B916E54053848236BCD32C8727","7D7784B916E54053848236BCD32C8727","0198beb4-c60d-7c0c-a7ae-de97d8739853","0198be8b-78cf-72d2-ba2b-1e62c78022e0","{""num_scrambled_semantic"":""8"",""num_scrambled_causal"":""4"",""num_scrambled_schematic"":""4"",""participantId"":""7D7784B916E54053848236BCD32C8727"",""assignmentId"":""0198beb4-c60d-7c0c-a7ae-de97d8739853"",""projectId"":""0198be8b-78cf-72d2-ba2b-1e62c78022e0""}","https://test12345.live/?num_scrambled_semantic=8&num_scrambled_causal=4&num_scrambled_schematic=4&participantId=7D7784B916E54053848236BCD32C8727&assignmentId=0198beb4-c60d-7c0c-a7ae-de97d8739853&projectId=0198be8b-78cf-72d2-ba2b-1e62c78022e0","7D7784B916E54053848236BCD32C8727-2025-08-18-20-10-17","","","0cf3cec4c6bada9afd47c53c133caed9bc4aabe2417843033ff7ce743f8a1ef8","","","",""
"","","","","","html-audio-response","5","129826","0.0-4.0-1.0","7D7784B916E54053848236BCD32C8727","7D7784B916E54053848236BCD32C8727","0198beb4-c60d-7c0c-a7ae-de97d8739853","0198be8b-78cf-72d2-ba2b-1e62c78022e0","{""num_scrambled_semantic"":""8"",""num_scrambled_causal"":""4"",""num_scrambled_schematic"":""4"",""participantId"":""7D7784B916E54053848236BCD32C8727"",""assignmentId"":""0198beb4-c60d-7c0c-a7ae-de97d8739853"",""projectId"":""0198be8b-78cf-72d2-ba2b-1e62c78022e0""}","https://test12345.live/?num_scrambled_semantic=8&num_scrambled_causal=4&num_scrambled_schematic=4&participantId=7D7784B916E54053848236BCD32C8727&assignmentId=0198beb4-c60d-7c0c-a7ae-de97d8739853&projectId=0198be8b-78cf-72d2-ba2b-1e62c78022e0","7D7784B916E54053848236BCD32C8727-2025-08-18-20-10-17","","3998","","<span style=""color: red; font-size: 24px""> NOW RECORDING</span>
        <p>Please test Microphone</p>","","8",""
"","","","","","html-button-response","6","132670","0.0-4.0-2.0","7D7784B916E54053848236BCD32C8727","7D7784B916E54053848236BCD32C8727","0198beb4-c60d-7c0c-a7ae-de97d8739853","0198be8b-78cf-72d2-ba2b-1e62c78022e0","{""num_scrambled_semantic"":""8"",""num_scrambled_causal"":""4"",""num_scrambled_schematic"":""4"",""participantId"":""7D7784B916E54053848236BCD32C8727"",""assignmentId"":""0198beb4-c60d-7c0c-a7ae-de97d8739853"",""projectId"":""0198be8b-78cf-72d2-ba2b-1e62c78022e0""}","https://test12345.live/?num_scrambled_semantic=8&num_scrambled_causal=4&num_scrambled_schematic=4&participantId=7D7784B916E54053848236BCD32C8727&assignmentId=0198beb4-c60d-7c0c-a7ae-de97d8739853&projectId=0198be8b-78cf-72d2-ba2b-1e62c78022e0","7D7784B916E54053848236BCD32C8727-2025-08-18-20-10-17","","2843","","<p style=""font-size:48px; color:red;"">Is Microphone OK?</p>","1","",""
"","","","","","instructions","7","158891","0.0-5.0","7D7784B916E54053848236BCD32C8727","7D7784B916E54053848236BCD32C8727","0198beb4-c60d-7c0c-a7ae-de97d8739853","0198be8b-78cf-72d2-ba2b-1e62c78022e0","{""num_scrambled_semantic"":""8"",""num_scrambled_causal"":""4"",""num_scrambled_schematic"":""4"",""participantId"":""7D7784B916E54053848236BCD32C8727"",""assignmentId"":""0198beb4-c60d-7c0c-a7ae-de97d8739853"",""projectId"":""0198be8b-78cf-72d2-ba2b-1e62c78022e0""}","https://test12345.live/?num_scrambled_semantic=8&num_scrambled_causal=4&num_scrambled_schematic=4&participantId=7D7784B916E54053848236BCD32C8727&assignmentId=0198beb4-c60d-7c0c-a7ae-de97d8739853&projectId=0198be8b-78cf-72d2-ba2b-1e62c78022e0","7D7784B916E54053848236BCD32C8727-2025-08-18-20-10-17","[{""page_index"":0,""viewing_time"":13169},{""page_index"":1,""viewing_time"":13052}]","26221","","","","",""
"","","","","","image-button-response","8","164895","0.0-6.0-0.0","7D7784B916E54053848236BCD32C8727","7D7784B916E54053848236BCD32C8727","0198beb4-c60d-7c0c-a7ae-de97d8739853","0198be8b-78cf-72d2-ba2b-1e62c78022e0","{""num_scrambled_semantic"":""8"",""num_scrambled_causal"":""4"",""num_scrambled_schematic"":""4"",""participantId"":""7D7784B916E54053848236BCD32C8727"",""assignmentId"":""0198beb4-c60d-7c0c-a7ae-de97d8739853"",""projectId"":""0198be8b-78cf-72d2-ba2b-1e62c78022e0""}","https://test12345.live/?num_scrambled_semantic=8&num_scrambled_causal=4&num_scrambled_schematic=4&participantId=7D7784B916E54053848236BCD32C8727&assignmentId=0198beb4-c60d-7c0c-a7ae-de97d8739853&projectId=0198be8b-78cf-72d2-ba2b-1e62c78022e0","7D7784B916E54053848236BCD32C8727-2025-08-18-20-10-17","","null","","images/instructions/movie_0.png","null","",""
"","","","","","image-button-response","9","169398","0.0-6.0-1.0-0.0","7D7784B916E54053848236BCD32C8727","7D7784B916E54053848236BCD32C8727","0198beb4-c60d-7c0c-a7ae-de97d8739853","0198be8b-78cf-72d2-ba2b-1e62c78022e0","{""num_scrambled_semantic"":""8"",""num_scrambled_causal"":""4"",""num_scrambled_schematic"":""4"",""participantId"":""7D7784B916E54053848236BCD32C8727"",""assignmentId"":""0198beb4-c60d-7c0c-a7ae-de97d8739853"",""projectId"":""0198be8b-78cf-72d2-ba2b-1e62c78022e0""}","https://test12345.live/?num_scrambled_semantic=8&num_scrambled_causal=4&num_scrambled_schematic=4&participantId=7D7784B916E54053848236BCD32C8727&assignmentId=0198beb4-c60d-7c0c-a7ae-de97d8739853&projectId=0198be8b-78cf-72d2-ba2b-1e62c78022e0","7D7784B916E54053848236BCD32C8727-2025-08-18-20-10-17","","null","","images/instructions/movie_1.png","null","",""
"","","","","","image-button-response","10","173400","0.0-6.0-1.0-1.0","7D7784B916E54053848236BCD32C8727","7D7784B916E54053848236BCD32C8727","0198beb4-c60d-7c0c-a7ae-de97d8739853","0198be8b-78cf-72d2-ba2b-1e62c78022e0","{""num_scrambled_semantic"":""8"",""num_scrambled_causal"":""4"",""num_scrambled_schematic"":""4"",""participantId"":""7D7784B916E54053848236BCD32C8727"",""assignmentId"":""0198beb4-c60d-7c0c-a7ae-de97d8739853"",""projectId"":""0198be8b-78cf-72d2-ba2b-1e62c78022e0""}","https://test12345.live/?num_scrambled_semantic=8&num_scrambled_causal=4&num_scrambled_schematic=4&participantId=7D7784B916E54053848236BCD32C8727&assignmentId=0198beb4-c60d-7c0c-a7ae-de97d8739853&projectId=0198be8b-78cf-72d2-ba2b-1e62c78022e0","7D7784B916E54053848236BCD32C8727-2025-08-18-20-10-17","","null","","images/instructions/movie_1.png","null","",""
"","","","","","image-button-response","11","175201","0.0-6.0-1.0-2.0","7D7784B916E54053848236BCD32C8727","7D7784B916E54053848236BCD32C8727","0198beb4-c60d-7c0c-a7ae-de97d8739853","0198be8b-78cf-72d2-ba2b-1e62c78022e0","{""num_scrambled_semantic"":""8"",""num_scrambled_causal"":""4"",""num_scrambled_schematic"":""4"",""participantId"":""7D7784B916E54053848236BCD32C8727"",""assignmentId"":""0198beb4-c60d-7c0c-a7ae-de97d8739853"",""projectId"":""0198be8b-78cf-72d2-ba2b-1e62c78022e0""}","https://test12345.live/?num_scrambled_semantic=8&num_scrambled_causal=4&num_scrambled_schematic=4&participantId=7D7784B916E54053848236BCD32C8727&assignmentId=0198beb4-c60d-7c0c-a7ae-de97d8739853&projectId=0198be8b-78cf-72d2-ba2b-1e62c78022e0","7D7784B916E54053848236BCD32C8727-2025-08-18-20-10-17","","null","","[]","null","",""
"","","","","","image-button-response","12","179703","0.0-6.0-1.0-0.1","7D7784B916E54053848236BCD32C8727","7D7784B916E54053848236BCD32C8727","0198beb4-c60d-7c0c-a7ae-de97d8739853","0198be8b-78cf-72d2-ba2b-1e62c78022e0","{""num_scrambled_semantic"":""8"",""num_scrambled_causal"":""4"",""num_scrambled_schematic"":""4"",""participantId"":""7D7784B916E54053848236BCD32C8727"",""assignmentId"":""0198beb4-c60d-7c0c-a7ae-de97d8739853"",""projectId"":""0198be8b-78cf-72d2-ba2b-1e62c78022e0""}","https://test12345.live/?num_scrambled_semantic=8&num_scrambled_causal=4&num_scrambled_schematic=4&participantId=7D7784B916E54053848236BCD32C8727&assignmentId=0198beb4-c60d-7c0c-a7ae-de97d8739853&projectId=0198be8b-78cf-72d2-ba2b-1e62c78022e0","7D7784B916E54053848236BCD32C8727-2025-08-18-20-10-17","","null","","images/instructions/movie_2.png","null","",""
"","","","","","image-button-response","13","181174","0.0-6.0-1.0-1.1","7D7784B916E54053848236BCD32C8727","7D7784B916E54053848236BCD32C8727","0198beb4-c60d-7c0c-a7ae-de97d8739853","0198be8b-78cf-72d2-ba2b-1e62c78022e0","{""num_scrambled_semantic"":""8"",""num_scrambled_causal"":""4"",""num_scrambled_schematic"":""4"",""participantId"":""7D7784B916E54053848236BCD32C8727"",""assignmentId"":""0198beb4-c60d-7c0c-a7ae-de97d8739853"",""projectId"":""0198be8b-78cf-72d2-ba2b-1e62c78022e0""}","https://test12345.live/?num_scrambled_semantic=8&num_scrambled_causal=4&num_scrambled_schematic=4&participantId=7D7784B916E54053848236BCD32C8727&assignmentId=0198beb4-c60d-7c0c-a7ae-de97d8739853&projectId=0198be8b-78cf-72d2-ba2b-1e62c78022e0","7D7784B916E54053848236BCD32C8727-2025-08-18-20-10-17","","1470","","images/instructions/movie_2.png","0","",""
"","","","","","image-button-response","14","182976","0.0-6.0-1.0-2.1","7D7784B916E54053848236BCD32C8727","7D7784B916E54053848236BCD32C8727","0198beb4-c60d-7c0c-a7ae-de97d8739853","0198be8b-78cf-72d2-ba2b-1e62c78022e0","{""num_scrambled_semantic"":""8"",""num_scrambled_causal"":""4"",""num_scrambled_schematic"":""4"",""participantId"":""7D7784B916E54053848236BCD32C8727"",""assignmentId"":""0198beb4-c60d-7c0c-a7ae-de97d8739853"",""projectId"":""0198be8b-78cf-72d2-ba2b-1e62c78022e0""}","https://test12345.live/?num_scrambled_semantic=8&num_scrambled_causal=4&num_scrambled_schematic=4&participantId=7D7784B916E54053848236BCD32C8727&assignmentId=0198beb4-c60d-7c0c-a7ae-de97d8739853&projectId=0198be8b-78cf-72d2-ba2b-1e62c78022e0","7D7784B916E54053848236BCD32C8727-2025-08-18-20-10-17","","null","","[]","null","",""
"","","","","","image-button-response","15","187477","0.0-6.0-1.0-0.2","7D7784B916E54053848236BCD32C8727","7D7784B916E54053848236BCD32C8727","0198beb4-c60d-7c0c-a7ae-de97d8739853","0198be8b-78cf-72d2-ba2b-1e62c78022e0","{""num_scrambled_semantic"":""8"",""num_scrambled_causal"":""4"",""num_scrambled_schematic"":""4"",""participantId"":""7D7784B916E54053848236BCD32C8727"",""assignmentId"":""0198beb4-c60d-7c0c-a7ae-de97d8739853"",""projectId"":""0198be8b-78cf-72d2-ba2b-1e62c78022e0""}","https://test12345.live/?num_scrambled_semantic=8&num_scrambled_causal=4&num_scrambled_schematic=4&participantId=7D7784B916E54053848236BCD32C8727&assignmentId=0198beb4-c60d-7c0c-a7ae-de97d8739853&projectId=0198be8b-78cf-72d2-ba2b-1e62c78022e0","7D7784B916E54053848236BCD32C8727-2025-08-18-20-10-17","","null","","images/instructions/movie_3.png","null","",""
"","","","","","image-button-response","16","189676","0.0-6.0-1.0-1.2","7D7784B916E54053848236BCD32C8727","7D7784B916E54053848236BCD32C8727","0198beb4-c60d-7c0c-a7ae-de97d8739853","0198be8b-78cf-72d2-ba2b-1e62c78022e0","{""num_scrambled_semantic"":""8"",""num_scrambled_causal"":""4"",""num_scrambled_schematic"":""4"",""participantId"":""7D7784B916E54053848236BCD32C8727"",""assignmentId"":""0198beb4-c60d-7c0c-a7ae-de97d8739853"",""projectId"":""0198be8b-78cf-72d2-ba2b-1e62c78022e0""}","https://test12345.live/?num_scrambled_semantic=8&num_scrambled_causal=4&num_scrambled_schematic=4&participantId=7D7784B916E54053848236BCD32C8727&assignmentId=0198beb4-c60d-7c0c-a7ae-de97d8739853&projectId=0198be8b-78cf-72d2-ba2b-1e62c78022e0","7D7784B916E54053848236BCD32C8727-2025-08-18-20-10-17","","2198","","images/instructions/movie_3.png","0","",""
"","","","","","image-button-response","17","191477","0.0-6.0-1.0-2.2","7D7784B916E54053848236BCD32C8727","7D7784B916E54053848236BCD32C8727","0198beb4-c60d-7c0c-a7ae-de97d8739853","0198be8b-78cf-72d2-ba2b-1e62c78022e0","{""num_scrambled_semantic"":""8"",""num_scrambled_causal"":""4"",""num_scrambled_schematic"":""4"",""participantId"":""7D7784B916E54053848236BCD32C8727"",""assignmentId"":""0198beb4-c60d-7c0c-a7ae-de97d8739853"",""projectId"":""0198be8b-78cf-72d2-ba2b-1e62c78022e0""}","https://test12345.live/?num_scrambled_semantic=8&num_scrambled_causal=4&num_scrambled_schematic=4&participantId=7D7784B916E54053848236BCD32C8727&assignmentId=0198beb4-c60d-7c0c-a7ae-de97d8739853&projectId=0198be8b-78cf-72d2-ba2b-1e62c78022e0","7D7784B916E54053848236BCD32C8727-2025-08-18-20-10-17","","null","","[]","null","",""
"","","","","","image-button-response","18","195978","0.0-6.0-1.0-0.3","7D7784B916E54053848236BCD32C8727","7D7784B916E54053848236BCD32C8727","0198beb4-c60d-7c0c-a7ae-de97d8739853","0198be8b-78cf-72d2-ba2b-1e62c78022e0","{""num_scrambled_semantic"":""8"",""num_scrambled_causal"":""4"",""num_scrambled_schematic"":""4"",""participantId"":""7D7784B916E54053848236BCD32C8727"",""assignmentId"":""0198beb4-c60d-7c0c-a7ae-de97d8739853"",""projectId"":""0198be8b-78cf-72d2-ba2b-1e62c78022e0""}","https://test12345.live/?num_scrambled_semantic=8&num_scrambled_causal=4&num_scrambled_schematic=4&participantId=7D7784B916E54053848236BCD32C8727&assignmentId=0198beb4-c60d-7c0c-a7ae-de97d8739853&projectId=0198be8b-78cf-72d2-ba2b-1e62c78022e0","7D7784B916E54053848236BCD32C8727-2025-08-18-20-10-17","","null","","images/instructions/movie_4.png","null","",""
"","","","","","image-button-response","19","197457","0.0-6.0-1.0-1.3","7D7784B916E54053848236BCD32C8727","7D7784B916E54053848236BCD32C8727","0198beb4-c60d-7c0c-a7ae-de97d8739853","0198be8b-78cf-72d2-ba2b-1e62c78022e0","{""num_scrambled_semantic"":""8"",""num_scrambled_causal"":""4"",""num_scrambled_schematic"":""4"",""participantId"":""7D7784B916E54053848236BCD32C8727"",""assignmentId"":""0198beb4-c60d-7c0c-a7ae-de97d8739853"",""projectId"":""0198be8b-78cf-72d2-ba2b-1e62c78022e0""}","https://test12345.live/?num_scrambled_semantic=8&num_scrambled_causal=4&num_scrambled_schematic=4&participantId=7D7784B916E54053848236BCD32C8727&assignmentId=0198beb4-c60d-7c0c-a7ae-de97d8739853&projectId=0198be8b-78cf-72d2-ba2b-1e62c78022e0","7D7784B916E54053848236BCD32C8727-2025-08-18-20-10-17","","1478","","images/instructions/movie_4.png","0","",""
"","","","","","image-button-response","20","199259","0.0-6.0-1.0-2.3","7D7784B916E54053848236BCD32C8727","7D7784B916E54053848236BCD32C8727","0198beb4-c60d-7c0c-a7ae-de97d8739853","0198be8b-78cf-72d2-ba2b-1e62c78022e0","{""num_scrambled_semantic"":""8"",""num_scrambled_causal"":""4"",""num_scrambled_schematic"":""4"",""participantId"":""7D7784B916E54053848236BCD32C8727"",""assignmentId"":""0198beb4-c60d-7c0c-a7ae-de97d8739853"",""projectId"":""0198be8b-78cf-72d2-ba2b-1e62c78022e0""}","https://test12345.live/?num_scrambled_semantic=8&num_scrambled_causal=4&num_scrambled_schematic=4&participantId=7D7784B916E54053848236BCD32C8727&assignmentId=0198beb4-c60d-7c0c-a7ae-de97d8739853&projectId=0198be8b-78cf-72d2-ba2b-1e62c78022e0","7D7784B916E54053848236BCD32C8727-2025-08-18-20-10-17","","null","","[]","null","",""
"","","","","","instructions","21","216996","0.0-7.0","7D7784B916E54053848236BCD32C8727","7D7784B916E54053848236BCD32C8727","0198beb4-c60d-7c0c-a7ae-de97d8739853","0198be8b-78cf-72d2-ba2b-1e62c78022e0","{""num_scrambled_semantic"":""8"",""num_scrambled_causal"":""4"",""num_scrambled_schematic"":""4"",""participantId"":""7D7784B916E54053848236BCD32C8727"",""assignmentId"":""0198beb4-c60d-7c0c-a7ae-de97d8739853"",""projectId"":""0198be8b-78cf-72d2-ba2b-1e62c78022e0""}","https://test12345.live/?num_scrambled_semantic=8&num_scrambled_causal=4&num_scrambled_schematic=4&participantId=7D7784B916E54053848236BCD32C8727&assignmentId=0198beb4-c60d-7c0c-a7ae-de97d8739853&projectId=0198be8b-78cf-72d2-ba2b-1e62c78022e0","7D7784B916E54053848236BCD32C8727-2025-08-18-20-10-17","[{""page_index"":0,""viewing_time"":17737}]","17737","","","","",""
"","","","","","html-audio-response","22","252731","0.0-8.0","7D7784B916E54053848236BCD32C8727","7D7784B916E54053848236BCD32C8727","0198beb4-c60d-7c0c-a7ae-de97d8739853","0198be8b-78cf-72d2-ba2b-1e62c78022e0","{""num_scrambled_semantic"":""8"",""num_scrambled_causal"":""4"",""num_scrambled_schematic"":""4"",""participantId"":""7D7784B916E54053848236BCD32C8727"",""assignmentId"":""0198beb4-c60d-7c0c-a7ae-de97d8739853"",""projectId"":""0198be8b-78cf-72d2-ba2b-1e62c78022e0""}","https://test12345.live/?num_scrambled_semantic=8&num_scrambled_causal=4&num_scrambled_schematic=4&participantId=7D7784B916E54053848236BCD32C8727&assignmentId=0198beb4-c60d-7c0c-a7ae-de97d8739853&projectId=0198be8b-78cf-72d2-ba2b-1e62c78022e0","7D7784B916E54053848236BCD32C8727-2025-08-18-20-10-17","","7641","","[""<span style=\""color: red; font-size: 24px\""> NOW RECORDING</span><p>Please say out loud all the images you saw, in the order of the story they create. Try to recall the sequence of events as they appeared in the story, not necessarily the order they were presented on the screen.</p>""]","","1",""
"","","","","","instructions","23","256172","0.0-9.0","7D7784B916E54053848236BCD32C8727","7D7784B916E54053848236BCD32C8727","0198beb4-c60d-7c0c-a7ae-de97d8739853","0198be8b-78cf-72d2-ba2b-1e62c78022e0","{""num_scrambled_semantic"":""8"",""num_scrambled_causal"":""4"",""num_scrambled_schematic"":""4"",""participantId"":""7D7784B916E54053848236BCD32C8727"",""assignmentId"":""0198beb4-c60d-7c0c-a7ae-de97d8739853"",""projectId"":""0198be8b-78cf-72d2-ba2b-1e62c78022e0""}","https://test12345.live/?num_scrambled_semantic=8&num_scrambled_causal=4&num_scrambled_schematic=4&participantId=7D7784B916E54053848236BCD32C8727&assignmentId=0198beb4-c60d-7c0c-a7ae-de97d8739853&projectId=0198be8b-78cf-72d2-ba2b-1e62c78022e0","7D7784B916E54053848236BCD32C8727-2025-08-18-20-10-17","[{""page_index"":0,""viewing_time"":3438}]","3438","","","","",""
"","","","","","image-button-response","24","262173","0.0-10.0-0.0","7D7784B916E54053848236BCD32C8727","7D7784B916E54053848236BCD32C8727","0198beb4-c60d-7c0c-a7ae-de97d8739853","0198be8b-78cf-72d2-ba2b-1e62c78022e0","{""num_scrambled_semantic"":""8"",""num_scrambled_causal"":""4"",""num_scrambled_schematic"":""4"",""participantId"":""7D7784B916E54053848236BCD32C8727"",""assignmentId"":""0198beb4-c60d-7c0c-a7ae-de97d8739853"",""projectId"":""0198be8b-78cf-72d2-ba2b-1e62c78022e0""}","https://test12345.live/?num_scrambled_semantic=8&num_scrambled_causal=4&num_scrambled_schematic=4&participantId=7D7784B916E54053848236BCD32C8727&assignmentId=0198beb4-c60d-7c0c-a7ae-de97d8739853&projectId=0198be8b-78cf-72d2-ba2b-1e62c78022e0","7D7784B916E54053848236BCD32C8727-2025-08-18-20-10-17","","null","","images/semantic_sequence/creative_activities_semantic/creative_activities_semantic_0.png","null","",""
"","","","","","image-button-response","25","266676","0.0-10.0-1.0-0.0","7D7784B916E54053848236BCD32C8727","7D7784B916E54053848236BCD32C8727","0198beb4-c60d-7c0c-a7ae-de97d8739853","0198be8b-78cf-72d2-ba2b-1e62c78022e0","{""num_scrambled_semantic"":""8"",""num_scrambled_causal"":""4"",""num_scrambled_schematic"":""4"",""participantId"":""7D7784B916E54053848236BCD32C8727"",""assignmentId"":""0198beb4-c60d-7c0c-a7ae-de97d8739853"",""projectId"":""0198be8b-78cf-72d2-ba2b-1e62c78022e0""}","https://test12345.live/?num_scrambled_semantic=8&num_scrambled_causal=4&num_scrambled_schematic=4&participantId=7D7784B916E54053848236BCD32C8727&assignmentId=0198beb4-c60d-7c0c-a7ae-de97d8739853&projectId=0198be8b-78cf-72d2-ba2b-1e62c78022e0","7D7784B916E54053848236BCD32C8727-2025-08-18-20-10-17","","null","","images/semantic_sequence/creative_activities_semantic/creative_activities_semantic_ten.png","null","",""
"","","","","","image-button-response","26","267665","0.0-10.0-1.0-1.0","7D7784B916E54053848236BCD32C8727","7D7784B916E54053848236BCD32C8727","0198beb4-c60d-7c0c-a7ae-de97d8739853","0198be8b-78cf-72d2-ba2b-1e62c78022e0","{""num_scrambled_semantic"":""8"",""num_scrambled_causal"":""4"",""num_scrambled_schematic"":""4"",""participantId"":""7D7784B916E54053848236BCD32C8727"",""assignmentId"":""0198beb4-c60d-7c0c-a7ae-de97d8739853"",""projectId"":""0198be8b-78cf-72d2-ba2b-1e62c78022e0""}","https://test12345.live/?num_scrambled_semantic=8&num_scrambled_causal=4&num_scrambled_schematic=4&participantId=7D7784B916E54053848236BCD32C8727&assignmentId=0198beb4-c60d-7c0c-a7ae-de97d8739853&projectId=0198be8b-78cf-72d2-ba2b-1e62c78022e0","7D7784B916E54053848236BCD32C8727-2025-08-18-20-10-17","","988","","images/semantic_sequence/creative_activities_semantic/creative_activities_semantic_ten.png","0","",""
"","","","","","image-button-response","27","269467","0.0-10.0-1.0-2.0","7D7784B916E54053848236BCD32C8727","7D7784B916E54053848236BCD32C8727","0198beb4-c60d-7c0c-a7ae-de97d8739853","0198be8b-78cf-72d2-ba2b-1e62c78022e0","{""num_scrambled_semantic"":""8"",""num_scrambled_causal"":""4"",""num_scrambled_schematic"":""4"",""participantId"":""7D7784B916E54053848236BCD32C8727"",""assignmentId"":""0198beb4-c60d-7c0c-a7ae-de97d8739853"",""projectId"":""0198be8b-78cf-72d2-ba2b-1e62c78022e0""}","https://test12345.live/?num_scrambled_semantic=8&num_scrambled_causal=4&num_scrambled_schematic=4&participantId=7D7784B916E54053848236BCD32C8727&assignmentId=0198beb4-c60d-7c0c-a7ae-de97d8739853&projectId=0198be8b-78cf-72d2-ba2b-1e62c78022e0","7D7784B916E54053848236BCD32C8727-2025-08-18-20-10-17","","null","","[]","null","",""
"","","","","","image-button-response","28","273969","0.0-10.0-1.0-0.1","7D7784B916E54053848236BCD32C8727","7D7784B916E54053848236BCD32C8727","0198beb4-c60d-7c0c-a7ae-de97d8739853","0198be8b-78cf-72d2-ba2b-1e62c78022e0","{""num_scrambled_semantic"":""8"",""num_scrambled_causal"":""4"",""num_scrambled_schematic"":""4"",""participantId"":""7D7784B916E54053848236BCD32C8727"",""assignmentId"":""0198beb4-c60d-7c0c-a7ae-de97d8739853"",""projectId"":""0198be8b-78cf-72d2-ba2b-1e62c78022e0""}","https://test12345.live/?num_scrambled_semantic=8&num_scrambled_causal=4&num_scrambled_schematic=4&participantId=7D7784B916E54053848236BCD32C8727&assignmentId=0198beb4-c60d-7c0c-a7ae-de97d8739853&projectId=0198be8b-78cf-72d2-ba2b-1e62c78022e0","7D7784B916E54053848236BCD32C8727-2025-08-18-20-10-17","","null","","images/semantic_sequence/creative_activities_semantic/creative_activities_semantic_7.png","null","",""
"","","","","","image-button-response","29","275446","0.0-10.0-1.0-1.1","7D7784B916E54053848236BCD32C8727","7D7784B916E54053848236BCD32C8727","0198beb4-c60d-7c0c-a7ae-de97d8739853","0198be8b-78cf-72d2-ba2b-1e62c78022e0","{""num_scrambled_semantic"":""8"",""num_scrambled_causal"":""4"",""num_scrambled_schematic"":""4"",""participantId"":""7D7784B916E54053848236BCD32C8727"",""assignmentId"":""0198beb4-c60d-7c0c-a7ae-de97d8739853"",""projectId"":""0198be8b-78cf-72d2-ba2b-1e62c78022e0""}","https://test12345.live/?num_scrambled_semantic=8&num_scrambled_causal=4&num_scrambled_schematic=4&participantId=7D7784B916E54053848236BCD32C8727&assignmentId=0198beb4-c60d-7c0c-a7ae-de97d8739853&projectId=0198be8b-78cf-72d2-ba2b-1e62c78022e0","7D7784B916E54053848236BCD32C8727-2025-08-18-20-10-17","","1476","","images/semantic_sequence/creative_activities_semantic/creative_activities_semantic_7.png","0","",""
"","","","","","image-button-response","30","277247","0.0-10.0-1.0-2.1","7D7784B916E54053848236BCD32C8727","7D7784B916E54053848236BCD32C8727","0198beb4-c60d-7c0c-a7ae-de97d8739853","0198be8b-78cf-72d2-ba2b-1e62c78022e0","{""num_scrambled_semantic"":""8"",""num_scrambled_causal"":""4"",""num_scrambled_schematic"":""4"",""participantId"":""7D7784B916E54053848236BCD32C8727"",""assignmentId"":""0198beb4-c60d-7c0c-a7ae-de97d8739853"",""projectId"":""0198be8b-78cf-72d2-ba2b-1e62c78022e0""}","https://test12345.live/?num_scrambled_semantic=8&num_scrambled_causal=4&num_scrambled_schematic=4&participantId=7D7784B916E54053848236BCD32C8727&assignmentId=0198beb4-c60d-7c0c-a7ae-de97d8739853&projectId=0198be8b-78cf-72d2-ba2b-1e62c78022e0","7D7784B916E54053848236BCD32C8727-2025-08-18-20-10-17","","null","","[]","null","",""
"","","","","","image-button-response","31","281749","0.0-10.0-1.0-0.2","7D7784B916E54053848236BCD32C8727","7D7784B916E54053848236BCD32C8727","0198beb4-c60d-7c0c-a7ae-de97d8739853","0198be8b-78cf-72d2-ba2b-1e62c78022e0","{""num_scrambled_semantic"":""8"",""num_scrambled_causal"":""4"",""num_scrambled_schematic"":""4"",""participantId"":""7D7784B916E54053848236BCD32C8727"",""assignmentId"":""0198beb4-c60d-7c0c-a7ae-de97d8739853"",""projectId"":""0198be8b-78cf-72d2-ba2b-1e62c78022e0""}","https://test12345.live/?num_scrambled_semantic=8&num_scrambled_causal=4&num_scrambled_schematic=4&participantId=7D7784B916E54053848236BCD32C8727&assignmentId=0198beb4-c60d-7c0c-a7ae-de97d8739853&projectId=0198be8b-78cf-72d2-ba2b-1e62c78022e0","7D7784B916E54053848236BCD32C8727-2025-08-18-20-10-17","","null","","images/semantic_sequence/creative_activities_semantic/creative_activities_semantic_4.png","null","",""
"","","","","","image-button-response","32","282899","0.0-10.0-1.0-1.2","7D7784B916E54053848236BCD32C8727","7D7784B916E54053848236BCD32C8727","0198beb4-c60d-7c0c-a7ae-de97d8739853","0198be8b-78cf-72d2-ba2b-1e62c78022e0","{""num_scrambled_semantic"":""8"",""num_scrambled_causal"":""4"",""num_scrambled_schematic"":""4"",""participantId"":""7D7784B916E54053848236BCD32C8727"",""assignmentId"":""0198beb4-c60d-7c0c-a7ae-de97d8739853"",""projectId"":""0198be8b-78cf-72d2-ba2b-1e62c78022e0""}","https://test12345.live/?num_scrambled_semantic=8&num_scrambled_causal=4&num_scrambled_schematic=4&participantId=7D7784B916E54053848236BCD32C8727&assignmentId=0198beb4-c60d-7c0c-a7ae-de97d8739853&projectId=0198be8b-78cf-72d2-ba2b-1e62c78022e0","7D7784B916E54053848236BCD32C8727-2025-08-18-20-10-17","","1149","","images/semantic_sequence/creative_activities_semantic/creative_activities_semantic_4.png","0","",""
"","","","","","image-button-response","33","284701","0.0-10.0-1.0-2.2","7D7784B916E54053848236BCD32C8727","7D7784B916E54053848236BCD32C8727","0198beb4-c60d-7c0c-a7ae-de97d8739853","0198be8b-78cf-72d2-ba2b-1e62c78022e0","{""num_scrambled_semantic"":""8"",""num_scrambled_causal"":""4"",""num_scrambled_schematic"":""4"",""participantId"":""7D7784B916E54053848236BCD32C8727"",""assignmentId"":""0198beb4-c60d-7c0c-a7ae-de97d8739853"",""projectId"":""0198be8b-78cf-72d2-ba2b-1e62c78022e0""}","https://test12345.live/?num_scrambled_semantic=8&num_scrambled_causal=4&num_scrambled_schematic=4&participantId=7D7784B916E54053848236BCD32C8727&assignmentId=0198beb4-c60d-7c0c-a7ae-de97d8739853&projectId=0198be8b-78cf-72d2-ba2b-1e62c78022e0","7D7784B916E54053848236BCD32C8727-2025-08-18-20-10-17","","null","","[]","null","",""
"","","","","","image-button-response","34","289202","0.0-10.0-1.0-0.3","7D7784B916E54053848236BCD32C8727","7D7784B916E54053848236BCD32C8727","0198beb4-c60d-7c0c-a7ae-de97d8739853","0198be8b-78cf-72d2-ba2b-1e62c78022e0","{""num_scrambled_semantic"":""8"",""num_scrambled_causal"":""4"",""num_scrambled_schematic"":""4"",""participantId"":""7D7784B916E54053848236BCD32C8727"",""assignmentId"":""0198beb4-c60d-7c0c-a7ae-de97d8739853"",""projectId"":""0198be8b-78cf-72d2-ba2b-1e62c78022e0""}","https://test12345.live/?num_scrambled_semantic=8&num_scrambled_causal=4&num_scrambled_schematic=4&participantId=7D7784B916E54053848236BCD32C8727&assignmentId=0198beb4-c60d-7c0c-a7ae-de97d8739853&projectId=0198be8b-78cf-72d2-ba2b-1e62c78022e0","7D7784B916E54053848236BCD32C8727-2025-08-18-20-10-17","","null","","images/semantic_sequence/creative_activities_semantic/creative_activities_semantic_6.png","null","",""
"","","","","","image-button-response","35","290301","0.0-10.0-1.0-1.3","7D7784B916E54053848236BCD32C8727","7D7784B916E54053848236BCD32C8727","0198beb4-c60d-7c0c-a7ae-de97d8739853","0198be8b-78cf-72d2-ba2b-1e62c78022e0","{""num_scrambled_semantic"":""8"",""num_scrambled_causal"":""4"",""num_scrambled_schematic"":""4"",""participantId"":""7D7784B916E54053848236BCD32C8727"",""assignmentId"":""0198beb4-c60d-7c0c-a7ae-de97d8739853"",""projectId"":""0198be8b-78cf-72d2-ba2b-1e62c78022e0""}","https://test12345.live/?num_scrambled_semantic=8&num_scrambled_causal=4&num_scrambled_schematic=4&participantId=7D7784B916E54053848236BCD32C8727&assignmentId=0198beb4-c60d-7c0c-a7ae-de97d8739853&projectId=0198be8b-78cf-72d2-ba2b-1e62c78022e0","7D7784B916E54053848236BCD32C8727-2025-08-18-20-10-17","","1098","","images/semantic_sequence/creative_activities_semantic/creative_activities_semantic_6.png","0","",""
"","","","","","image-button-response","36","292102","0.0-10.0-1.0-2.3","7D7784B916E54053848236BCD32C8727","7D7784B916E54053848236BCD32C8727","0198beb4-c60d-7c0c-a7ae-de97d8739853","0198be8b-78cf-72d2-ba2b-1e62c78022e0","{""num_scrambled_semantic"":""8"",""num_scrambled_causal"":""4"",""num_scrambled_schematic"":""4"",""participantId"":""7D7784B916E54053848236BCD32C8727"",""assignmentId"":""0198beb4-c60d-7c0c-a7ae-de97d8739853"",""projectId"":""0198be8b-78cf-72d2-ba2b-1e62c78022e0""}","https://test12345.live/?num_scrambled_semantic=8&num_scrambled_causal=4&num_scrambled_schematic=4&participantId=7D7784B916E54053848236BCD32C8727&assignmentId=0198beb4-c60d-7c0c-a7ae-de97d8739853&projectId=0198be8b-78cf-72d2-ba2b-1e62c78022e0","7D7784B916E54053848236BCD32C8727-2025-08-18-20-10-17","","null","","[]","null","",""
"","","","","","image-button-response","37","296604","0.0-10.0-1.0-0.4","7D7784B916E54053848236BCD32C8727","7D7784B916E54053848236BCD32C8727","0198beb4-c60d-7c0c-a7ae-de97d8739853","0198be8b-78cf-72d2-ba2b-1e62c78022e0","{""num_scrambled_semantic"":""8"",""num_scrambled_causal"":""4"",""num_scrambled_schematic"":""4"",""participantId"":""7D7784B916E54053848236BCD32C8727"",""assignmentId"":""0198beb4-c60d-7c0c-a7ae-de97d8739853"",""projectId"":""0198be8b-78cf-72d2-ba2b-1e62c78022e0""}","https://test12345.live/?num_scrambled_semantic=8&num_scrambled_causal=4&num_scrambled_schematic=4&participantId=7D7784B916E54053848236BCD32C8727&assignmentId=0198beb4-c60d-7c0c-a7ae-de97d8739853&projectId=0198be8b-78cf-72d2-ba2b-1e62c78022e0","7D7784B916E54053848236BCD32C8727-2025-08-18-20-10-17","","null","","images/semantic_sequence/creative_activities_semantic/creative_activities_semantic_5.png","null","",""
"","","","","","image-button-response","38","297492","0.0-10.0-1.0-1.4","7D7784B916E54053848236BCD32C8727","7D7784B916E54053848236BCD32C8727","0198beb4-c60d-7c0c-a7ae-de97d8739853","0198be8b-78cf-72d2-ba2b-1e62c78022e0","{""num_scrambled_semantic"":""8"",""num_scrambled_causal"":""4"",""num_scrambled_schematic"":""4"",""participantId"":""7D7784B916E54053848236BCD32C8727"",""assignmentId"":""0198beb4-c60d-7c0c-a7ae-de97d8739853"",""projectId"":""0198be8b-78cf-72d2-ba2b-1e62c78022e0""}","https://test12345.live/?num_scrambled_semantic=8&num_scrambled_causal=4&num_scrambled_schematic=4&participantId=7D7784B916E54053848236BCD32C8727&assignmentId=0198beb4-c60d-7c0c-a7ae-de97d8739853&projectId=0198be8b-78cf-72d2-ba2b-1e62c78022e0","7D7784B916E54053848236BCD32C8727-2025-08-18-20-10-17","","887","","images/semantic_sequence/creative_activities_semantic/creative_activities_semantic_5.png","0","",""
"","","","","","image-button-response","39","299294","0.0-10.0-1.0-2.4","7D7784B916E54053848236BCD32C8727","7D7784B916E54053848236BCD32C8727","0198beb4-c60d-7c0c-a7ae-de97d8739853","0198be8b-78cf-72d2-ba2b-1e62c78022e0","{""num_scrambled_semantic"":""8"",""num_scrambled_causal"":""4"",""num_scrambled_schematic"":""4"",""participantId"":""7D7784B916E54053848236BCD32C8727"",""assignmentId"":""0198beb4-c60d-7c0c-a7ae-de97d8739853"",""projectId"":""0198be8b-78cf-72d2-ba2b-1e62c78022e0""}","https://test12345.live/?num_scrambled_semantic=8&num_scrambled_causal=4&num_scrambled_schematic=4&participantId=7D7784B916E54053848236BCD32C8727&assignmentId=0198beb4-c60d-7c0c-a7ae-de97d8739853&projectId=0198be8b-78cf-72d2-ba2b-1e62c78022e0","7D7784B916E54053848236BCD32C8727-2025-08-18-20-10-17","","null","","[]","null","",""
"","","","","","image-button-response","40","303796","0.0-10.0-1.0-0.5","7D7784B916E54053848236BCD32C8727","7D7784B916E54053848236BCD32C8727","0198beb4-c60d-7c0c-a7ae-de97d8739853","0198be8b-78cf-72d2-ba2b-1e62c78022e0","{""num_scrambled_semantic"":""8"",""num_scrambled_causal"":""4"",""num_scrambled_schematic"":""4"",""participantId"":""7D7784B916E54053848236BCD32C8727"",""assignmentId"":""0198beb4-c60d-7c0c-a7ae-de97d8739853"",""projectId"":""0198be8b-78cf-72d2-ba2b-1e62c78022e0""}","https://test12345.live/?num_scrambled_semantic=8&num_scrambled_causal=4&num_scrambled_schematic=4&participantId=7D7784B916E54053848236BCD32C8727&assignmentId=0198beb4-c60d-7c0c-a7ae-de97d8739853&projectId=0198be8b-78cf-72d2-ba2b-1e62c78022e0","7D7784B916E54053848236BCD32C8727-2025-08-18-20-10-17","","null","","images/semantic_sequence/creative_activities_semantic/creative_activities_semantic_9.png","null","",""
"","","","","","image-button-response","41","304594","0.0-10.0-1.0-1.5","7D7784B916E54053848236BCD32C8727","7D7784B916E54053848236BCD32C8727","0198beb4-c60d-7c0c-a7ae-de97d8739853","0198be8b-78cf-72d2-ba2b-1e62c78022e0","{""num_scrambled_semantic"":""8"",""num_scrambled_causal"":""4"",""num_scrambled_schematic"":""4"",""participantId"":""7D7784B916E54053848236BCD32C8727"",""assignmentId"":""0198beb4-c60d-7c0c-a7ae-de97d8739853"",""projectId"":""0198be8b-78cf-72d2-ba2b-1e62c78022e0""}","https://test12345.live/?num_scrambled_semantic=8&num_scrambled_causal=4&num_scrambled_schematic=4&participantId=7D7784B916E54053848236BCD32C8727&assignmentId=0198beb4-c60d-7c0c-a7ae-de97d8739853&projectId=0198be8b-78cf-72d2-ba2b-1e62c78022e0","7D7784B916E54053848236BCD32C8727-2025-08-18-20-10-17","","798","","images/semantic_sequence/creative_activities_semantic/creative_activities_semantic_9.png","0","",""
"","","","","","image-button-response","42","306395","0.0-10.0-1.0-2.5","7D7784B916E54053848236BCD32C8727","7D7784B916E54053848236BCD32C8727","0198beb4-c60d-7c0c-a7ae-de97d8739853","0198be8b-78cf-72d2-ba2b-1e62c78022e0","{""num_scrambled_semantic"":""8"",""num_scrambled_causal"":""4"",""num_scrambled_schematic"":""4"",""participantId"":""7D7784B916E54053848236BCD32C8727"",""assignmentId"":""0198beb4-c60d-7c0c-a7ae-de97d8739853"",""projectId"":""0198be8b-78cf-72d2-ba2b-1e62c78022e0""}","https://test12345.live/?num_scrambled_semantic=8&num_scrambled_causal=4&num_scrambled_schematic=4&participantId=7D7784B916E54053848236BCD32C8727&assignmentId=0198beb4-c60d-7c0c-a7ae-de97d8739853&projectId=0198be8b-78cf-72d2-ba2b-1e62c78022e0","7D7784B916E54053848236BCD32C8727-2025-08-18-20-10-17","","null","","[]","null","",""
"","","","","","image-button-response","43","310897","0.0-10.0-1.0-0.6","7D7784B916E54053848236BCD32C8727","7D7784B916E54053848236BCD32C8727","0198beb4-c60d-7c0c-a7ae-de97d8739853","0198be8b-78cf-72d2-ba2b-1e62c78022e0","{""num_scrambled_semantic"":""8"",""num_scrambled_causal"":""4"",""num_scrambled_schematic"":""4"",""participantId"":""7D7784B916E54053848236BCD32C8727"",""assignmentId"":""0198beb4-c60d-7c0c-a7ae-de97d8739853"",""projectId"":""0198be8b-78cf-72d2-ba2b-1e62c78022e0""}","https://test12345.live/?num_scrambled_semantic=8&num_scrambled_causal=4&num_scrambled_schematic=4&participantId=7D7784B916E54053848236BCD32C8727&assignmentId=0198beb4-c60d-7c0c-a7ae-de97d8739853&projectId=0198be8b-78cf-72d2-ba2b-1e62c78022e0","7D7784B916E54053848236BCD32C8727-2025-08-18-20-10-17","","null","","images/semantic_sequence/creative_activities_semantic/creative_activities_semantic_2.png","null","",""
"","","","","","image-button-response","44","311636","0.0-10.0-1.0-1.6","7D7784B916E54053848236BCD32C8727","7D7784B916E54053848236BCD32C8727","0198beb4-c60d-7c0c-a7ae-de97d8739853","0198be8b-78cf-72d2-ba2b-1e62c78022e0","{""num_scrambled_semantic"":""8"",""num_scrambled_causal"":""4"",""num_scrambled_schematic"":""4"",""participantId"":""7D7784B916E54053848236BCD32C8727"",""assignmentId"":""0198beb4-c60d-7c0c-a7ae-de97d8739853"",""projectId"":""0198be8b-78cf-72d2-ba2b-1e62c78022e0""}","https://test12345.live/?num_scrambled_semantic=8&num_scrambled_causal=4&num_scrambled_schematic=4&participantId=7D7784B916E54053848236BCD32C8727&assignmentId=0198beb4-c60d-7c0c-a7ae-de97d8739853&projectId=0198be8b-78cf-72d2-ba2b-1e62c78022e0","7D7784B916E54053848236BCD32C8727-2025-08-18-20-10-17","","739","","images/semantic_sequence/creative_activities_semantic/creative_activities_semantic_2.png","0","",""
"","","","","","image-button-response","45","313439","0.0-10.0-1.0-2.6","7D7784B916E54053848236BCD32C8727","7D7784B916E54053848236BCD32C8727","0198beb4-c60d-7c0c-a7ae-de97d8739853","0198be8b-78cf-72d2-ba2b-1e62c78022e0","{""num_scrambled_semantic"":""8"",""num_scrambled_causal"":""4"",""num_scrambled_schematic"":""4"",""participantId"":""7D7784B916E54053848236BCD32C8727"",""assignmentId"":""0198beb4-c60d-7c0c-a7ae-de97d8739853"",""projectId"":""0198be8b-78cf-72d2-ba2b-1e62c78022e0""}","https://test12345.live/?num_scrambled_semantic=8&num_scrambled_causal=4&num_scrambled_schematic=4&participantId=7D7784B916E54053848236BCD32C8727&assignmentId=0198beb4-c60d-7c0c-a7ae-de97d8739853&projectId=0198be8b-78cf-72d2-ba2b-1e62c78022e0","7D7784B916E54053848236BCD32C8727-2025-08-18-20-10-17","","null","","[]","null","",""
"","","","","","image-button-response","46","317941","0.0-10.0-1.0-0.7","7D7784B916E54053848236BCD32C8727","7D7784B916E54053848236BCD32C8727","0198beb4-c60d-7c0c-a7ae-de97d8739853","0198be8b-78cf-72d2-ba2b-1e62c78022e0","{""num_scrambled_semantic"":""8"",""num_scrambled_causal"":""4"",""num_scrambled_schematic"":""4"",""participantId"":""7D7784B916E54053848236BCD32C8727"",""assignmentId"":""0198beb4-c60d-7c0c-a7ae-de97d8739853"",""projectId"":""0198be8b-78cf-72d2-ba2b-1e62c78022e0""}","https://test12345.live/?num_scrambled_semantic=8&num_scrambled_causal=4&num_scrambled_schematic=4&participantId=7D7784B916E54053848236BCD32C8727&assignmentId=0198beb4-c60d-7c0c-a7ae-de97d8739853&projectId=0198be8b-78cf-72d2-ba2b-1e62c78022e0","7D7784B916E54053848236BCD32C8727-2025-08-18-20-10-17","","null","","images/semantic_sequence/creative_activities_semantic/creative_activities_semantic_3.png","null","",""
"","","","","","image-button-response","47","318649","0.0-10.0-1.0-1.7","7D7784B916E54053848236BCD32C8727","7D7784B916E54053848236BCD32C8727","0198beb4-c60d-7c0c-a7ae-de97d8739853","0198be8b-78cf-72d2-ba2b-1e62c78022e0","{""num_scrambled_semantic"":""8"",""num_scrambled_causal"":""4"",""num_scrambled_schematic"":""4"",""participantId"":""7D7784B916E54053848236BCD32C8727"",""assignmentId"":""0198beb4-c60d-7c0c-a7ae-de97d8739853"",""projectId"":""0198be8b-78cf-72d2-ba2b-1e62c78022e0""}","https://test12345.live/?num_scrambled_semantic=8&num_scrambled_causal=4&num_scrambled_schematic=4&participantId=7D7784B916E54053848236BCD32C8727&assignmentId=0198beb4-c60d-7c0c-a7ae-de97d8739853&projectId=0198be8b-78cf-72d2-ba2b-1e62c78022e0","7D7784B916E54053848236BCD32C8727-2025-08-18-20-10-17","","707","","images/semantic_sequence/creative_activities_semantic/creative_activities_semantic_3.png","0","",""
"","","","","","image-button-response","48","320452","0.0-10.0-1.0-2.7","7D7784B916E54053848236BCD32C8727","7D7784B916E54053848236BCD32C8727","0198beb4-c60d-7c0c-a7ae-de97d8739853","0198be8b-78cf-72d2-ba2b-1e62c78022e0","{""num_scrambled_semantic"":""8"",""num_scrambled_causal"":""4"",""num_scrambled_schematic"":""4"",""participantId"":""7D7784B916E54053848236BCD32C8727"",""assignmentId"":""0198beb4-c60d-7c0c-a7ae-de97d8739853"",""projectId"":""0198be8b-78cf-72d2-ba2b-1e62c78022e0""}","https://test12345.live/?num_scrambled_semantic=8&num_scrambled_causal=4&num_scrambled_schematic=4&participantId=7D7784B916E54053848236BCD32C8727&assignmentId=0198beb4-c60d-7c0c-a7ae-de97d8739853&projectId=0198be8b-78cf-72d2-ba2b-1e62c78022e0","7D7784B916E54053848236BCD32C8727-2025-08-18-20-10-17","","null","","[]","null","",""
"","","","","","image-button-response","49","324954","0.0-10.0-1.0-0.8","7D7784B916E54053848236BCD32C8727","7D7784B916E54053848236BCD32C8727","0198beb4-c60d-7c0c-a7ae-de97d8739853","0198be8b-78cf-72d2-ba2b-1e62c78022e0","{""num_scrambled_semantic"":""8"",""num_scrambled_causal"":""4"",""num_scrambled_schematic"":""4"",""participantId"":""7D7784B916E54053848236BCD32C8727"",""assignmentId"":""0198beb4-c60d-7c0c-a7ae-de97d8739853"",""projectId"":""0198be8b-78cf-72d2-ba2b-1e62c78022e0""}","https://test12345.live/?num_scrambled_semantic=8&num_scrambled_causal=4&num_scrambled_schematic=4&participantId=7D7784B916E54053848236BCD32C8727&assignmentId=0198beb4-c60d-7c0c-a7ae-de97d8739853&projectId=0198be8b-78cf-72d2-ba2b-1e62c78022e0","7D7784B916E54053848236BCD32C8727-2025-08-18-20-10-17","","null","","images/semantic_sequence/creative_activities_semantic/creative_activities_semantic_8.png","null","",""
"","","","","","image-button-response","50","325631","0.0-10.0-1.0-1.8","7D7784B916E54053848236BCD32C8727","7D7784B916E54053848236BCD32C8727","0198beb4-c60d-7c0c-a7ae-de97d8739853","0198be8b-78cf-72d2-ba2b-1e62c78022e0","{""num_scrambled_semantic"":""8"",""num_scrambled_causal"":""4"",""num_scrambled_schematic"":""4"",""participantId"":""7D7784B916E54053848236BCD32C8727"",""assignmentId"":""0198beb4-c60d-7c0c-a7ae-de97d8739853"",""projectId"":""0198be8b-78cf-72d2-ba2b-1e62c78022e0""}","https://test12345.live/?num_scrambled_semantic=8&num_scrambled_causal=4&num_scrambled_schematic=4&participantId=7D7784B916E54053848236BCD32C8727&assignmentId=0198beb4-c60d-7c0c-a7ae-de97d8739853&projectId=0198be8b-78cf-72d2-ba2b-1e62c78022e0","7D7784B916E54053848236BCD32C8727-2025-08-18-20-10-17","","675","","images/semantic_sequence/creative_activities_semantic/creative_activities_semantic_8.png","0","",""
"","","","","","image-button-response","51","327435","0.0-10.0-1.0-2.8","7D7784B916E54053848236BCD32C8727","7D7784B916E54053848236BCD32C8727","0198beb4-c60d-7c0c-a7ae-de97d8739853","0198be8b-78cf-72d2-ba2b-1e62c78022e0","{""num_scrambled_semantic"":""8"",""num_scrambled_causal"":""4"",""num_scrambled_schematic"":""4"",""participantId"":""7D7784B916E54053848236BCD32C8727"",""assignmentId"":""0198beb4-c60d-7c0c-a7ae-de97d8739853"",""projectId"":""0198be8b-78cf-72d2-ba2b-1e62c78022e0""}","https://test12345.live/?num_scrambled_semantic=8&num_scrambled_causal=4&num_scrambled_schematic=4&participantId=7D7784B916E54053848236BCD32C8727&assignmentId=0198beb4-c60d-7c0c-a7ae-de97d8739853&projectId=0198be8b-78cf-72d2-ba2b-1e62c78022e0","7D7784B916E54053848236BCD32C8727-2025-08-18-20-10-17","","null","","[]","null","",""
"","","","","","image-button-response","52","331937","0.0-10.0-1.0-0.9","7D7784B916E54053848236BCD32C8727","7D7784B916E54053848236BCD32C8727","0198beb4-c60d-7c0c-a7ae-de97d8739853","0198be8b-78cf-72d2-ba2b-1e62c78022e0","{""num_scrambled_semantic"":""8"",""num_scrambled_causal"":""4"",""num_scrambled_schematic"":""4"",""participantId"":""7D7784B916E54053848236BCD32C8727"",""assignmentId"":""0198beb4-c60d-7c0c-a7ae-de97d8739853"",""projectId"":""0198be8b-78cf-72d2-ba2b-1e62c78022e0""}","https://test12345.live/?num_scrambled_semantic=8&num_scrambled_causal=4&num_scrambled_schematic=4&participantId=7D7784B916E54053848236BCD32C8727&assignmentId=0198beb4-c60d-7c0c-a7ae-de97d8739853&projectId=0198be8b-78cf-72d2-ba2b-1e62c78022e0","7D7784B916E54053848236BCD32C8727-2025-08-18-20-10-17","","null","","images/semantic_sequence/creative_activities_semantic/creative_activities_semantic_1.png","null","",""
"","","","","","image-button-response","53","332693","0.0-10.0-1.0-1.9","7D7784B916E54053848236BCD32C8727","7D7784B916E54053848236BCD32C8727","0198beb4-c60d-7c0c-a7ae-de97d8739853","0198be8b-78cf-72d2-ba2b-1e62c78022e0","{""num_scrambled_semantic"":""8"",""num_scrambled_causal"":""4"",""num_scrambled_schematic"":""4"",""participantId"":""7D7784B916E54053848236BCD32C8727"",""assignmentId"":""0198beb4-c60d-7c0c-a7ae-de97d8739853"",""projectId"":""0198be8b-78cf-72d2-ba2b-1e62c78022e0""}","https://test12345.live/?num_scrambled_semantic=8&num_scrambled_causal=4&num_scrambled_schematic=4&participantId=7D7784B916E54053848236BCD32C8727&assignmentId=0198beb4-c60d-7c0c-a7ae-de97d8739853&projectId=0198be8b-78cf-72d2-ba2b-1e62c78022e0","7D7784B916E54053848236BCD32C8727-2025-08-18-20-10-17","","754","","images/semantic_sequence/creative_activities_semantic/creative_activities_semantic_1.png","0","",""
"","","","","","image-button-response","54","334494","0.0-10.0-1.0-2.9","7D7784B916E54053848236BCD32C8727","7D7784B916E54053848236BCD32C8727","0198beb4-c60d-7c0c-a7ae-de97d8739853","0198be8b-78cf-72d2-ba2b-1e62c78022e0","{""num_scrambled_semantic"":""8"",""num_scrambled_causal"":""4"",""num_scrambled_schematic"":""4"",""participantId"":""7D7784B916E54053848236BCD32C8727"",""assignmentId"":""0198beb4-c60d-7c0c-a7ae-de97d8739853"",""projectId"":""0198be8b-78cf-72d2-ba2b-1e62c78022e0""}","https://test12345.live/?num_scrambled_semantic=8&num_scrambled_causal=4&num_scrambled_schematic=4&participantId=7D7784B916E54053848236BCD32C8727&assignmentId=0198beb4-c60d-7c0c-a7ae-de97d8739853&projectId=0198be8b-78cf-72d2-ba2b-1e62c78022e0","7D7784B916E54053848236BCD32C8727-2025-08-18-20-10-17","","null","","[]","null","",""
"","","","","","html-audio-response","55","362303","0.0-11.0","7D7784B916E54053848236BCD32C8727","7D7784B916E54053848236BCD32C8727","0198beb4-c60d-7c0c-a7ae-de97d8739853","0198be8b-78cf-72d2-ba2b-1e62c78022e0","{""num_scrambled_semantic"":""8"",""num_scrambled_causal"":""4"",""num_scrambled_schematic"":""4"",""participantId"":""7D7784B916E54053848236BCD32C8727"",""assignmentId"":""0198beb4-c60d-7c0c-a7ae-de97d8739853"",""projectId"":""0198be8b-78cf-72d2-ba2b-1e62c78022e0""}","https://test12345.live/?num_scrambled_semantic=8&num_scrambled_causal=4&num_scrambled_schematic=4&participantId=7D7784B916E54053848236BCD32C8727&assignmentId=0198beb4-c60d-7c0c-a7ae-de97d8739853&projectId=0198be8b-78cf-72d2-ba2b-1e62c78022e0","7D7784B916E54053848236BCD32C8727-2025-08-18-20-10-17","","13656","","[""<span style=\""color: red; font-size: 24px\""> NOW RECORDING</span><p>Please say out loud all the images you saw, in the order of the story they create. Try to recall the sequence of events as they appeared in the story, not necessarily the order they were presented on the screen.</p>""]","","1","creative_activities_semantic"
"","","","","","image-button-response","56","368306","0.0-12.0-0.0","7D7784B916E54053848236BCD32C8727","7D7784B916E54053848236BCD32C8727","0198beb4-c60d-7c0c-a7ae-de97d8739853","0198be8b-78cf-72d2-ba2b-1e62c78022e0","{""num_scrambled_semantic"":""8"",""num_scrambled_causal"":""4"",""num_scrambled_schematic"":""4"",""participantId"":""7D7784B916E54053848236BCD32C8727"",""assignmentId"":""0198beb4-c60d-7c0c-a7ae-de97d8739853"",""projectId"":""0198be8b-78cf-72d2-ba2b-1e62c78022e0""}","https://test12345.live/?num_scrambled_semantic=8&num_scrambled_causal=4&num_scrambled_schematic=4&participantId=7D7784B916E54053848236BCD32C8727&assignmentId=0198beb4-c60d-7c0c-a7ae-de97d8739853&projectId=0198be8b-78cf-72d2-ba2b-1e62c78022e0","7D7784B916E54053848236BCD32C8727-2025-08-18-20-10-17","","null","","images/semantic_sequence/housework_semantic/housework_semantic_0.png","null","",""
"","","","","","image-button-response","57","372809","0.0-12.0-1.0-0.0","7D7784B916E54053848236BCD32C8727","7D7784B916E54053848236BCD32C8727","0198beb4-c60d-7c0c-a7ae-de97d8739853","0198be8b-78cf-72d2-ba2b-1e62c78022e0","{""num_scrambled_semantic"":""8"",""num_scrambled_causal"":""4"",""num_scrambled_schematic"":""4"",""participantId"":""7D7784B916E54053848236BCD32C8727"",""assignmentId"":""0198beb4-c60d-7c0c-a7ae-de97d8739853"",""projectId"":""0198be8b-78cf-72d2-ba2b-1e62c78022e0""}","https://test12345.live/?num_scrambled_semantic=8&num_scrambled_causal=4&num_scrambled_schematic=4&participantId=7D7784B916E54053848236BCD32C8727&assignmentId=0198beb4-c60d-7c0c-a7ae-de97d8739853&projectId=0198be8b-78cf-72d2-ba2b-1e62c78022e0","7D7784B916E54053848236BCD32C8727-2025-08-18-20-10-17","","null","","images/semantic_sequence/housework_semantic/housework_semantic_4.png","null","",""
"","","","","","image-button-response","58","374155","0.0-12.0-1.0-1.0","7D7784B916E54053848236BCD32C8727","7D7784B916E54053848236BCD32C8727","0198beb4-c60d-7c0c-a7ae-de97d8739853","0198be8b-78cf-72d2-ba2b-1e62c78022e0","{""num_scrambled_semantic"":""8"",""num_scrambled_causal"":""4"",""num_scrambled_schematic"":""4"",""participantId"":""7D7784B916E54053848236BCD32C8727"",""assignmentId"":""0198beb4-c60d-7c0c-a7ae-de97d8739853"",""projectId"":""0198be8b-78cf-72d2-ba2b-1e62c78022e0""}","https://test12345.live/?num_scrambled_semantic=8&num_scrambled_causal=4&num_scrambled_schematic=4&participantId=7D7784B916E54053848236BCD32C8727&assignmentId=0198beb4-c60d-7c0c-a7ae-de97d8739853&projectId=0198be8b-78cf-72d2-ba2b-1e62c78022e0","7D7784B916E54053848236BCD32C8727-2025-08-18-20-10-17","","1344","","images/semantic_sequence/housework_semantic/housework_semantic_4.png","0","",""
"","","","","","image-button-response","59","375956","0.0-12.0-1.0-2.0","7D7784B916E54053848236BCD32C8727","7D7784B916E54053848236BCD32C8727","0198beb4-c60d-7c0c-a7ae-de97d8739853","0198be8b-78cf-72d2-ba2b-1e62c78022e0","{""num_scrambled_semantic"":""8"",""num_scrambled_causal"":""4"",""num_scrambled_schematic"":""4"",""participantId"":""7D7784B916E54053848236BCD32C8727"",""assignmentId"":""0198beb4-c60d-7c0c-a7ae-de97d8739853"",""projectId"":""0198be8b-78cf-72d2-ba2b-1e62c78022e0""}","https://test12345.live/?num_scrambled_semantic=8&num_scrambled_causal=4&num_scrambled_schematic=4&participantId=7D7784B916E54053848236BCD32C8727&assignmentId=0198beb4-c60d-7c0c-a7ae-de97d8739853&projectId=0198be8b-78cf-72d2-ba2b-1e62c78022e0","7D7784B916E54053848236BCD32C8727-2025-08-18-20-10-17","","null","","[]","null","",""
"","","","","","image-button-response","60","380458","0.0-12.0-1.0-0.1","7D7784B916E54053848236BCD32C8727","7D7784B916E54053848236BCD32C8727","0198beb4-c60d-7c0c-a7ae-de97d8739853","0198be8b-78cf-72d2-ba2b-1e62c78022e0","{""num_scrambled_semantic"":""8"",""num_scrambled_causal"":""4"",""num_scrambled_schematic"":""4"",""participantId"":""7D7784B916E54053848236BCD32C8727"",""assignmentId"":""0198beb4-c60d-7c0c-a7ae-de97d8739853"",""projectId"":""0198be8b-78cf-72d2-ba2b-1e62c78022e0""}","https://test12345.live/?num_scrambled_semantic=8&num_scrambled_causal=4&num_scrambled_schematic=4&participantId=7D7784B916E54053848236BCD32C8727&assignmentId=0198beb4-c60d-7c0c-a7ae-de97d8739853&projectId=0198be8b-78cf-72d2-ba2b-1e62c78022e0","7D7784B916E54053848236BCD32C8727-2025-08-18-20-10-17","","null","","images/semantic_sequence/housework_semantic/housework_semantic_3.png","null","",""
"","","","","","image-button-response","61","381297","0.0-12.0-1.0-1.1","7D7784B916E54053848236BCD32C8727","7D7784B916E54053848236BCD32C8727","0198beb4-c60d-7c0c-a7ae-de97d8739853","0198be8b-78cf-72d2-ba2b-1e62c78022e0","{""num_scrambled_semantic"":""8"",""num_scrambled_causal"":""4"",""num_scrambled_schematic"":""4"",""participantId"":""7D7784B916E54053848236BCD32C8727"",""assignmentId"":""0198beb4-c60d-7c0c-a7ae-de97d8739853"",""projectId"":""0198be8b-78cf-72d2-ba2b-1e62c78022e0""}","https://test12345.live/?num_scrambled_semantic=8&num_scrambled_causal=4&num_scrambled_schematic=4&participantId=7D7784B916E54053848236BCD32C8727&assignmentId=0198beb4-c60d-7c0c-a7ae-de97d8739853&projectId=0198be8b-78cf-72d2-ba2b-1e62c78022e0","7D7784B916E54053848236BCD32C8727-2025-08-18-20-10-17","","838","","images/semantic_sequence/housework_semantic/housework_semantic_3.png","0","",""
"","","","","","image-button-response","62","383099","0.0-12.0-1.0-2.1","7D7784B916E54053848236BCD32C8727","7D7784B916E54053848236BCD32C8727","0198beb4-c60d-7c0c-a7ae-de97d8739853","0198be8b-78cf-72d2-ba2b-1e62c78022e0","{""num_scrambled_semantic"":""8"",""num_scrambled_causal"":""4"",""num_scrambled_schematic"":""4"",""participantId"":""7D7784B916E54053848236BCD32C8727"",""assignmentId"":""0198beb4-c60d-7c0c-a7ae-de97d8739853"",""projectId"":""0198be8b-78cf-72d2-ba2b-1e62c78022e0""}","https://test12345.live/?num_scrambled_semantic=8&num_scrambled_causal=4&num_scrambled_schematic=4&participantId=7D7784B916E54053848236BCD32C8727&assignmentId=0198beb4-c60d-7c0c-a7ae-de97d8739853&projectId=0198be8b-78cf-72d2-ba2b-1e62c78022e0","7D7784B916E54053848236BCD32C8727-2025-08-18-20-10-17","","null","","[]","null","",""
"","","","","","image-button-response","63","387601","0.0-12.0-1.0-0.2","7D7784B916E54053848236BCD32C8727","7D7784B916E54053848236BCD32C8727","0198beb4-c60d-7c0c-a7ae-de97d8739853","0198be8b-78cf-72d2-ba2b-1e62c78022e0","{""num_scrambled_semantic"":""8"",""num_scrambled_causal"":""4"",""num_scrambled_schematic"":""4"",""participantId"":""7D7784B916E54053848236BCD32C8727"",""assignmentId"":""0198beb4-c60d-7c0c-a7ae-de97d8739853"",""projectId"":""0198be8b-78cf-72d2-ba2b-1e62c78022e0""}","https://test12345.live/?num_scrambled_semantic=8&num_scrambled_causal=4&num_scrambled_schematic=4&participantId=7D7784B916E54053848236BCD32C8727&assignmentId=0198beb4-c60d-7c0c-a7ae-de97d8739853&projectId=0198be8b-78cf-72d2-ba2b-1e62c78022e0","7D7784B916E54053848236BCD32C8727-2025-08-18-20-10-17","","null","","images/semantic_sequence/housework_semantic/housework_semantic_5.png","null","",""
"","","","","","image-button-response","64","388319","0.0-12.0-1.0-1.2","7D7784B916E54053848236BCD32C8727","7D7784B916E54053848236BCD32C8727","0198beb4-c60d-7c0c-a7ae-de97d8739853","0198be8b-78cf-72d2-ba2b-1e62c78022e0","{""num_scrambled_semantic"":""8"",""num_scrambled_causal"":""4"",""num_scrambled_schematic"":""4"",""participantId"":""7D7784B916E54053848236BCD32C8727"",""assignmentId"":""0198beb4-c60d-7c0c-a7ae-de97d8739853"",""projectId"":""0198be8b-78cf-72d2-ba2b-1e62c78022e0""}","https://test12345.live/?num_scrambled_semantic=8&num_scrambled_causal=4&num_scrambled_schematic=4&participantId=7D7784B916E54053848236BCD32C8727&assignmentId=0198beb4-c60d-7c0c-a7ae-de97d8739853&projectId=0198be8b-78cf-72d2-ba2b-1e62c78022e0","7D7784B916E54053848236BCD32C8727-2025-08-18-20-10-17","","717","","images/semantic_sequence/housework_semantic/housework_semantic_5.png","0","",""
"","","","","","image-button-response","65","390121","0.0-12.0-1.0-2.2","7D7784B916E54053848236BCD32C8727","7D7784B916E54053848236BCD32C8727","0198beb4-c60d-7c0c-a7ae-de97d8739853","0198be8b-78cf-72d2-ba2b-1e62c78022e0","{""num_scrambled_semantic"":""8"",""num_scrambled_causal"":""4"",""num_scrambled_schematic"":""4"",""participantId"":""7D7784B916E54053848236BCD32C8727"",""assignmentId"":""0198beb4-c60d-7c0c-a7ae-de97d8739853"",""projectId"":""0198be8b-78cf-72d2-ba2b-1e62c78022e0""}","https://test12345.live/?num_scrambled_semantic=8&num_scrambled_causal=4&num_scrambled_schematic=4&participantId=7D7784B916E54053848236BCD32C8727&assignmentId=0198beb4-c60d-7c0c-a7ae-de97d8739853&projectId=0198be8b-78cf-72d2-ba2b-1e62c78022e0","7D7784B916E54053848236BCD32C8727-2025-08-18-20-10-17","","null","","[]","null","",""
"","","","","","image-button-response","66","394622","0.0-12.0-1.0-0.3","7D7784B916E54053848236BCD32C8727","7D7784B916E54053848236BCD32C8727","0198beb4-c60d-7c0c-a7ae-de97d8739853","0198be8b-78cf-72d2-ba2b-1e62c78022e0","{""num_scrambled_semantic"":""8"",""num_scrambled_causal"":""4"",""num_scrambled_schematic"":""4"",""participantId"":""7D7784B916E54053848236BCD32C8727"",""assignmentId"":""0198beb4-c60d-7c0c-a7ae-de97d8739853"",""projectId"":""0198be8b-78cf-72d2-ba2b-1e62c78022e0""}","https://test12345.live/?num_scrambled_semantic=8&num_scrambled_causal=4&num_scrambled_schematic=4&participantId=7D7784B916E54053848236BCD32C8727&assignmentId=0198beb4-c60d-7c0c-a7ae-de97d8739853&projectId=0198be8b-78cf-72d2-ba2b-1e62c78022e0","7D7784B916E54053848236BCD32C8727-2025-08-18-20-10-17","","null","","images/semantic_sequence/housework_semantic/housework_semantic_7.png","null","",""
"","","","","","image-button-response","67","395060","0.0-12.0-1.0-1.3","7D7784B916E54053848236BCD32C8727","7D7784B916E54053848236BCD32C8727","0198beb4-c60d-7c0c-a7ae-de97d8739853","0198be8b-78cf-72d2-ba2b-1e62c78022e0","{""num_scrambled_semantic"":""8"",""num_scrambled_causal"":""4"",""num_scrambled_schematic"":""4"",""participantId"":""7D7784B916E54053848236BCD32C8727"",""assignmentId"":""0198beb4-c60d-7c0c-a7ae-de97d8739853"",""projectId"":""0198be8b-78cf-72d2-ba2b-1e62c78022e0""}","https://test12345.live/?num_scrambled_semantic=8&num_scrambled_causal=4&num_scrambled_schematic=4&participantId=7D7784B916E54053848236BCD32C8727&assignmentId=0198beb4-c60d-7c0c-a7ae-de97d8739853&projectId=0198be8b-78cf-72d2-ba2b-1e62c78022e0","7D7784B916E54053848236BCD32C8727-2025-08-18-20-10-17","","437","","images/semantic_sequence/housework_semantic/housework_semantic_7.png","0","",""
"","","","","","image-button-response","68","396863","0.0-12.0-1.0-2.3","7D7784B916E54053848236BCD32C8727","7D7784B916E54053848236BCD32C8727","0198beb4-c60d-7c0c-a7ae-de97d8739853","0198be8b-78cf-72d2-ba2b-1e62c78022e0","{""num_scrambled_semantic"":""8"",""num_scrambled_causal"":""4"",""num_scrambled_schematic"":""4"",""participantId"":""7D7784B916E54053848236BCD32C8727"",""assignmentId"":""0198beb4-c60d-7c0c-a7ae-de97d8739853"",""projectId"":""0198be8b-78cf-72d2-ba2b-1e62c78022e0""}","https://test12345.live/?num_scrambled_semantic=8&num_scrambled_causal=4&num_scrambled_schematic=4&participantId=7D7784B916E54053848236BCD32C8727&assignmentId=0198beb4-c60d-7c0c-a7ae-de97d8739853&projectId=0198be8b-78cf-72d2-ba2b-1e62c78022e0","7D7784B916E54053848236BCD32C8727-2025-08-18-20-10-17","","null","","[]","null","",""
"","","","","","image-button-response","69","401364","0.0-12.0-1.0-0.4","7D7784B916E54053848236BCD32C8727","7D7784B916E54053848236BCD32C8727","0198beb4-c60d-7c0c-a7ae-de97d8739853","0198be8b-78cf-72d2-ba2b-1e62c78022e0","{""num_scrambled_semantic"":""8"",""num_scrambled_causal"":""4"",""num_scrambled_schematic"":""4"",""participantId"":""7D7784B916E54053848236BCD32C8727"",""assignmentId"":""0198beb4-c60d-7c0c-a7ae-de97d8739853"",""projectId"":""0198be8b-78cf-72d2-ba2b-1e62c78022e0""}","https://test12345.live/?num_scrambled_semantic=8&num_scrambled_causal=4&num_scrambled_schematic=4&participantId=7D7784B916E54053848236BCD32C8727&assignmentId=0198beb4-c60d-7c0c-a7ae-de97d8739853&projectId=0198be8b-78cf-72d2-ba2b-1e62c78022e0","7D7784B916E54053848236BCD32C8727-2025-08-18-20-10-17","","null","","images/semantic_sequence/housework_semantic/housework_semantic_1.png","null","",""
"","","","","","image-button-response","70","401923","0.0-12.0-1.0-1.4","7D7784B916E54053848236BCD32C8727","7D7784B916E54053848236BCD32C8727","0198beb4-c60d-7c0c-a7ae-de97d8739853","0198be8b-78cf-72d2-ba2b-1e62c78022e0","{""num_scrambled_semantic"":""8"",""num_scrambled_causal"":""4"",""num_scrambled_schematic"":""4"",""participantId"":""7D7784B916E54053848236BCD32C8727"",""assignmentId"":""0198beb4-c60d-7c0c-a7ae-de97d8739853"",""projectId"":""0198be8b-78cf-72d2-ba2b-1e62c78022e0""}","https://test12345.live/?num_scrambled_semantic=8&num_scrambled_causal=4&num_scrambled_schematic=4&participantId=7D7784B916E54053848236BCD32C8727&assignmentId=0198beb4-c60d-7c0c-a7ae-de97d8739853&projectId=0198be8b-78cf-72d2-ba2b-1e62c78022e0","7D7784B916E54053848236BCD32C8727-2025-08-18-20-10-17","","557","","images/semantic_sequence/housework_semantic/housework_semantic_1.png","0","",""
"","","","","","image-button-response","71","403725","0.0-12.0-1.0-2.4","7D7784B916E54053848236BCD32C8727","7D7784B916E54053848236BCD32C8727","0198beb4-c60d-7c0c-a7ae-de97d8739853","0198be8b-78cf-72d2-ba2b-1e62c78022e0","{""num_scrambled_semantic"":""8"",""num_scrambled_causal"":""4"",""num_scrambled_schematic"":""4"",""participantId"":""7D7784B916E54053848236BCD32C8727"",""assignmentId"":""0198beb4-c60d-7c0c-a7ae-de97d8739853"",""projectId"":""0198be8b-78cf-72d2-ba2b-1e62c78022e0""}","https://test12345.live/?num_scrambled_semantic=8&num_scrambled_causal=4&num_scrambled_schematic=4&participantId=7D7784B916E54053848236BCD32C8727&assignmentId=0198beb4-c60d-7c0c-a7ae-de97d8739853&projectId=0198be8b-78cf-72d2-ba2b-1e62c78022e0","7D7784B916E54053848236BCD32C8727-2025-08-18-20-10-17","","null","","[]","null","",""
"","","","","","image-button-response","72","408227","0.0-12.0-1.0-0.5","7D7784B916E54053848236BCD32C8727","7D7784B916E54053848236BCD32C8727","0198beb4-c60d-7c0c-a7ae-de97d8739853","0198be8b-78cf-72d2-ba2b-1e62c78022e0","{""num_scrambled_semantic"":""8"",""num_scrambled_causal"":""4"",""num_scrambled_schematic"":""4"",""participantId"":""7D7784B916E54053848236BCD32C8727"",""assignmentId"":""0198beb4-c60d-7c0c-a7ae-de97d8739853"",""projectId"":""0198be8b-78cf-72d2-ba2b-1e62c78022e0""}","https://test12345.live/?num_scrambled_semantic=8&num_scrambled_causal=4&num_scrambled_schematic=4&participantId=7D7784B916E54053848236BCD32C8727&assignmentId=0198beb4-c60d-7c0c-a7ae-de97d8739853&projectId=0198be8b-78cf-72d2-ba2b-1e62c78022e0","7D7784B916E54053848236BCD32C8727-2025-08-18-20-10-17","","null","","images/semantic_sequence/housework_semantic/housework_semantic_9.png","null","",""
"","","","","","image-button-response","73","408935","0.0-12.0-1.0-1.5","7D7784B916E54053848236BCD32C8727","7D7784B916E54053848236BCD32C8727","0198beb4-c60d-7c0c-a7ae-de97d8739853","0198be8b-78cf-72d2-ba2b-1e62c78022e0","{""num_scrambled_semantic"":""8"",""num_scrambled_causal"":""4"",""num_scrambled_schematic"":""4"",""participantId"":""7D7784B916E54053848236BCD32C8727"",""assignmentId"":""0198beb4-c60d-7c0c-a7ae-de97d8739853"",""projectId"":""0198be8b-78cf-72d2-ba2b-1e62c78022e0""}","https://test12345.live/?num_scrambled_semantic=8&num_scrambled_causal=4&num_scrambled_schematic=4&participantId=7D7784B916E54053848236BCD32C8727&assignmentId=0198beb4-c60d-7c0c-a7ae-de97d8739853&projectId=0198be8b-78cf-72d2-ba2b-1e62c78022e0","7D7784B916E54053848236BCD32C8727-2025-08-18-20-10-17","","707","","images/semantic_sequence/housework_semantic/housework_semantic_9.png","0","",""
"","","","","","image-button-response","74","410737","0.0-12.0-1.0-2.5","7D7784B916E54053848236BCD32C8727","7D7784B916E54053848236BCD32C8727","0198beb4-c60d-7c0c-a7ae-de97d8739853","0198be8b-78cf-72d2-ba2b-1e62c78022e0","{""num_scrambled_semantic"":""8"",""num_scrambled_causal"":""4"",""num_scrambled_schematic"":""4"",""participantId"":""7D7784B916E54053848236BCD32C8727"",""assignmentId"":""0198beb4-c60d-7c0c-a7ae-de97d8739853"",""projectId"":""0198be8b-78cf-72d2-ba2b-1e62c78022e0""}","https://test12345.live/?num_scrambled_semantic=8&num_scrambled_causal=4&num_scrambled_schematic=4&participantId=7D7784B916E54053848236BCD32C8727&assignmentId=0198beb4-c60d-7c0c-a7ae-de97d8739853&projectId=0198be8b-78cf-72d2-ba2b-1e62c78022e0","7D7784B916E54053848236BCD32C8727-2025-08-18-20-10-17","","null","","[]","null","",""
"","","","","","image-button-response","75","415239","0.0-12.0-1.0-0.6","7D7784B916E54053848236BCD32C8727","7D7784B916E54053848236BCD32C8727","0198beb4-c60d-7c0c-a7ae-de97d8739853","0198be8b-78cf-72d2-ba2b-1e62c78022e0","{""num_scrambled_semantic"":""8"",""num_scrambled_causal"":""4"",""num_scrambled_schematic"":""4"",""participantId"":""7D7784B916E54053848236BCD32C8727"",""assignmentId"":""0198beb4-c60d-7c0c-a7ae-de97d8739853"",""projectId"":""0198be8b-78cf-72d2-ba2b-1e62c78022e0""}","https://test12345.live/?num_scrambled_semantic=8&num_scrambled_causal=4&num_scrambled_schematic=4&participantId=7D7784B916E54053848236BCD32C8727&assignmentId=0198beb4-c60d-7c0c-a7ae-de97d8739853&projectId=0198be8b-78cf-72d2-ba2b-1e62c78022e0","7D7784B916E54053848236BCD32C8727-2025-08-18-20-10-17","","null","","images/semantic_sequence/housework_semantic/housework_semantic_ten.png","null","",""
"","","","","","image-button-response","76","416427","0.0-12.0-1.0-1.6","7D7784B916E54053848236BCD32C8727","7D7784B916E54053848236BCD32C8727","0198beb4-c60d-7c0c-a7ae-de97d8739853","0198be8b-78cf-72d2-ba2b-1e62c78022e0","{""num_scrambled_semantic"":""8"",""num_scrambled_causal"":""4"",""num_scrambled_schematic"":""4"",""participantId"":""7D7784B916E54053848236BCD32C8727"",""assignmentId"":""0198beb4-c60d-7c0c-a7ae-de97d8739853"",""projectId"":""0198be8b-78cf-72d2-ba2b-1e62c78022e0""}","https://test12345.live/?num_scrambled_semantic=8&num_scrambled_causal=4&num_scrambled_schematic=4&participantId=7D7784B916E54053848236BCD32C8727&assignmentId=0198beb4-c60d-7c0c-a7ae-de97d8739853&projectId=0198be8b-78cf-72d2-ba2b-1e62c78022e0","7D7784B916E54053848236BCD32C8727-2025-08-18-20-10-17","","1187","","images/semantic_sequence/housework_semantic/housework_semantic_ten.png","0","",""
"","","","","","image-button-response","77","418228","0.0-12.0-1.0-2.6","7D7784B916E54053848236BCD32C8727","7D7784B916E54053848236BCD32C8727","0198beb4-c60d-7c0c-a7ae-de97d8739853","0198be8b-78cf-72d2-ba2b-1e62c78022e0","{""num_scrambled_semantic"":""8"",""num_scrambled_causal"":""4"",""num_scrambled_schematic"":""4"",""participantId"":""7D7784B916E54053848236BCD32C8727"",""assignmentId"":""0198beb4-c60d-7c0c-a7ae-de97d8739853"",""projectId"":""0198be8b-78cf-72d2-ba2b-1e62c78022e0""}","https://test12345.live/?num_scrambled_semantic=8&num_scrambled_causal=4&num_scrambled_schematic=4&participantId=7D7784B916E54053848236BCD32C8727&assignmentId=0198beb4-c60d-7c0c-a7ae-de97d8739853&projectId=0198be8b-78cf-72d2-ba2b-1e62c78022e0","7D7784B916E54053848236BCD32C8727-2025-08-18-20-10-17","","null","","[]","null","",""
"","","","","","image-button-response","78","422731","0.0-12.0-1.0-0.7","7D7784B916E54053848236BCD32C8727","7D7784B916E54053848236BCD32C8727","0198beb4-c60d-7c0c-a7ae-de97d8739853","0198be8b-78cf-72d2-ba2b-1e62c78022e0","{""num_scrambled_semantic"":""8"",""num_scrambled_causal"":""4"",""num_scrambled_schematic"":""4"",""participantId"":""7D7784B916E54053848236BCD32C8727"",""assignmentId"":""0198beb4-c60d-7c0c-a7ae-de97d8739853"",""projectId"":""0198be8b-78cf-72d2-ba2b-1e62c78022e0""}","https://test12345.live/?num_scrambled_semantic=8&num_scrambled_causal=4&num_scrambled_schematic=4&participantId=7D7784B916E54053848236BCD32C8727&assignmentId=0198beb4-c60d-7c0c-a7ae-de97d8739853&projectId=0198be8b-78cf-72d2-ba2b-1e62c78022e0","7D7784B916E54053848236BCD32C8727-2025-08-18-20-10-17","","null","","images/semantic_sequence/housework_semantic/housework_semantic_6.png","null","",""
"","","","","","image-button-response","79","423548","0.0-12.0-1.0-1.7","7D7784B916E54053848236BCD32C8727","7D7784B916E54053848236BCD32C8727","0198beb4-c60d-7c0c-a7ae-de97d8739853","0198be8b-78cf-72d2-ba2b-1e62c78022e0","{""num_scrambled_semantic"":""8"",""num_scrambled_causal"":""4"",""num_scrambled_schematic"":""4"",""participantId"":""7D7784B916E54053848236BCD32C8727"",""assignmentId"":""0198beb4-c60d-7c0c-a7ae-de97d8739853"",""projectId"":""0198be8b-78cf-72d2-ba2b-1e62c78022e0""}","https://test12345.live/?num_scrambled_semantic=8&num_scrambled_causal=4&num_scrambled_schematic=4&participantId=7D7784B916E54053848236BCD32C8727&assignmentId=0198beb4-c60d-7c0c-a7ae-de97d8739853&projectId=0198be8b-78cf-72d2-ba2b-1e62c78022e0","7D7784B916E54053848236BCD32C8727-2025-08-18-20-10-17","","817","","images/semantic_sequence/housework_semantic/housework_semantic_6.png","0","",""
"","","","","","image-button-response","80","425350","0.0-12.0-1.0-2.7","7D7784B916E54053848236BCD32C8727","7D7784B916E54053848236BCD32C8727","0198beb4-c60d-7c0c-a7ae-de97d8739853","0198be8b-78cf-72d2-ba2b-1e62c78022e0","{""num_scrambled_semantic"":""8"",""num_scrambled_causal"":""4"",""num_scrambled_schematic"":""4"",""participantId"":""7D7784B916E54053848236BCD32C8727"",""assignmentId"":""0198beb4-c60d-7c0c-a7ae-de97d8739853"",""projectId"":""0198be8b-78cf-72d2-ba2b-1e62c78022e0""}","https://test12345.live/?num_scrambled_semantic=8&num_scrambled_causal=4&num_scrambled_schematic=4&participantId=7D7784B916E54053848236BCD32C8727&assignmentId=0198beb4-c60d-7c0c-a7ae-de97d8739853&projectId=0198be8b-78cf-72d2-ba2b-1e62c78022e0","7D7784B916E54053848236BCD32C8727-2025-08-18-20-10-17","","null","","[]","null","",""
"","","","","","image-button-response","81","429852","0.0-12.0-1.0-0.8","7D7784B916E54053848236BCD32C8727","7D7784B916E54053848236BCD32C8727","0198beb4-c60d-7c0c-a7ae-de97d8739853","0198be8b-78cf-72d2-ba2b-1e62c78022e0","{""num_scrambled_semantic"":""8"",""num_scrambled_causal"":""4"",""num_scrambled_schematic"":""4"",""participantId"":""7D7784B916E54053848236BCD32C8727"",""assignmentId"":""0198beb4-c60d-7c0c-a7ae-de97d8739853"",""projectId"":""0198be8b-78cf-72d2-ba2b-1e62c78022e0""}","https://test12345.live/?num_scrambled_semantic=8&num_scrambled_causal=4&num_scrambled_schematic=4&participantId=7D7784B916E54053848236BCD32C8727&assignmentId=0198beb4-c60d-7c0c-a7ae-de97d8739853&projectId=0198be8b-78cf-72d2-ba2b-1e62c78022e0","7D7784B916E54053848236BCD32C8727-2025-08-18-20-10-17","","null","","images/semantic_sequence/housework_semantic/housework_semantic_2.png","null","",""
"","","","","","image-button-response","82","430480","0.0-12.0-1.0-1.8","7D7784B916E54053848236BCD32C8727","7D7784B916E54053848236BCD32C8727","0198beb4-c60d-7c0c-a7ae-de97d8739853","0198be8b-78cf-72d2-ba2b-1e62c78022e0","{""num_scrambled_semantic"":""8"",""num_scrambled_causal"":""4"",""num_scrambled_schematic"":""4"",""participantId"":""7D7784B916E54053848236BCD32C8727"",""assignmentId"":""0198beb4-c60d-7c0c-a7ae-de97d8739853"",""projectId"":""0198be8b-78cf-72d2-ba2b-1e62c78022e0""}","https://test12345.live/?num_scrambled_semantic=8&num_scrambled_causal=4&num_scrambled_schematic=4&participantId=7D7784B916E54053848236BCD32C8727&assignmentId=0198beb4-c60d-7c0c-a7ae-de97d8739853&projectId=0198be8b-78cf-72d2-ba2b-1e62c78022e0","7D7784B916E54053848236BCD32C8727-2025-08-18-20-10-17","","627","","images/semantic_sequence/housework_semantic/housework_semantic_2.png","0","",""
"","","","","","image-button-response","83","432282","0.0-12.0-1.0-2.8","7D7784B916E54053848236BCD32C8727","7D7784B916E54053848236BCD32C8727","0198beb4-c60d-7c0c-a7ae-de97d8739853","0198be8b-78cf-72d2-ba2b-1e62c78022e0","{""num_scrambled_semantic"":""8"",""num_scrambled_causal"":""4"",""num_scrambled_schematic"":""4"",""participantId"":""7D7784B916E54053848236BCD32C8727"",""assignmentId"":""0198beb4-c60d-7c0c-a7ae-de97d8739853"",""projectId"":""0198be8b-78cf-72d2-ba2b-1e62c78022e0""}","https://test12345.live/?num_scrambled_semantic=8&num_scrambled_causal=4&num_scrambled_schematic=4&participantId=7D7784B916E54053848236BCD32C8727&assignmentId=0198beb4-c60d-7c0c-a7ae-de97d8739853&projectId=0198be8b-78cf-72d2-ba2b-1e62c78022e0","7D7784B916E54053848236BCD32C8727-2025-08-18-20-10-17","","null","","[]","null","",""
"","","","","","image-button-response","84","436784","0.0-12.0-1.0-0.9","7D7784B916E54053848236BCD32C8727","7D7784B916E54053848236BCD32C8727","0198beb4-c60d-7c0c-a7ae-de97d8739853","0198be8b-78cf-72d2-ba2b-1e62c78022e0","{""num_scrambled_semantic"":""8"",""num_scrambled_causal"":""4"",""num_scrambled_schematic"":""4"",""participantId"":""7D7784B916E54053848236BCD32C8727"",""assignmentId"":""0198beb4-c60d-7c0c-a7ae-de97d8739853"",""projectId"":""0198be8b-78cf-72d2-ba2b-1e62c78022e0""}","https://test12345.live/?num_scrambled_semantic=8&num_scrambled_causal=4&num_scrambled_schematic=4&participantId=7D7784B916E54053848236BCD32C8727&assignmentId=0198beb4-c60d-7c0c-a7ae-de97d8739853&projectId=0198be8b-78cf-72d2-ba2b-1e62c78022e0","7D7784B916E54053848236BCD32C8727-2025-08-18-20-10-17","","null","","images/semantic_sequence/housework_semantic/housework_semantic_8.png","null","",""
"","","","","","image-button-response","85","437563","0.0-12.0-1.0-1.9","7D7784B916E54053848236BCD32C8727","7D7784B916E54053848236BCD32C8727","0198beb4-c60d-7c0c-a7ae-de97d8739853","0198be8b-78cf-72d2-ba2b-1e62c78022e0","{""num_scrambled_semantic"":""8"",""num_scrambled_causal"":""4"",""num_scrambled_schematic"":""4"",""participantId"":""7D7784B916E54053848236BCD32C8727"",""assignmentId"":""0198beb4-c60d-7c0c-a7ae-de97d8739853"",""projectId"":""0198be8b-78cf-72d2-ba2b-1e62c78022e0""}","https://test12345.live/?num_scrambled_semantic=8&num_scrambled_causal=4&num_scrambled_schematic=4&participantId=7D7784B916E54053848236BCD32C8727&assignmentId=0198beb4-c60d-7c0c-a7ae-de97d8739853&projectId=0198be8b-78cf-72d2-ba2b-1e62c78022e0","7D7784B916E54053848236BCD32C8727-2025-08-18-20-10-17","","778","","images/semantic_sequence/housework_semantic/housework_semantic_8.png","0","",""
"","","","","","image-button-response","86","439364","0.0-12.0-1.0-2.9","7D7784B916E54053848236BCD32C8727","7D7784B916E54053848236BCD32C8727","0198beb4-c60d-7c0c-a7ae-de97d8739853","0198be8b-78cf-72d2-ba2b-1e62c78022e0","{""num_scrambled_semantic"":""8"",""num_scrambled_causal"":""4"",""num_scrambled_schematic"":""4"",""participantId"":""7D7784B916E54053848236BCD32C8727"",""assignmentId"":""0198beb4-c60d-7c0c-a7ae-de97d8739853"",""projectId"":""0198be8b-78cf-72d2-ba2b-1e62c78022e0""}","https://test12345.live/?num_scrambled_semantic=8&num_scrambled_causal=4&num_scrambled_schematic=4&participantId=7D7784B916E54053848236BCD32C8727&assignmentId=0198beb4-c60d-7c0c-a7ae-de97d8739853&projectId=0198be8b-78cf-72d2-ba2b-1e62c78022e0","7D7784B916E54053848236BCD32C8727-2025-08-18-20-10-17","","null","","[]","null","",""
"","","","","","html-audio-response","87","465161","0.0-13.0","7D7784B916E54053848236BCD32C8727","7D7784B916E54053848236BCD32C8727","0198beb4-c60d-7c0c-a7ae-de97d8739853","0198be8b-78cf-72d2-ba2b-1e62c78022e0","{""num_scrambled_semantic"":""8"",""num_scrambled_causal"":""4"",""num_scrambled_schematic"":""4"",""participantId"":""7D7784B916E54053848236BCD32C8727"",""assignmentId"":""0198beb4-c60d-7c0c-a7ae-de97d8739853"",""projectId"":""0198be8b-78cf-72d2-ba2b-1e62c78022e0""}","https://test12345.live/?num_scrambled_semantic=8&num_scrambled_causal=4&num_scrambled_schematic=4&participantId=7D7784B916E54053848236BCD32C8727&assignmentId=0198beb4-c60d-7c0c-a7ae-de97d8739853&projectId=0198be8b-78cf-72d2-ba2b-1e62c78022e0","7D7784B916E54053848236BCD32C8727-2025-08-18-20-10-17","","16436","","[""<span style=\""color: red; font-size: 24px\""> NOW RECORDING</span><p>Please say out loud all the images you saw, in the order of the story they create. Try to recall the sequence of events as they appeared in the story, not necessarily the order they were presented on the screen.</p>""]","","1","housework_semantic"
"","","","","","image-button-response","88","471164","0.0-14.0-0.0","7D7784B916E54053848236BCD32C8727","7D7784B916E54053848236BCD32C8727","0198beb4-c60d-7c0c-a7ae-de97d8739853","0198be8b-78cf-72d2-ba2b-1e62c78022e0","{""num_scrambled_semantic"":""8"",""num_scrambled_causal"":""4"",""num_scrambled_schematic"":""4"",""participantId"":""7D7784B916E54053848236BCD32C8727"",""assignmentId"":""0198beb4-c60d-7c0c-a7ae-de97d8739853"",""projectId"":""0198be8b-78cf-72d2-ba2b-1e62c78022e0""}","https://test12345.live/?num_scrambled_semantic=8&num_scrambled_causal=4&num_scrambled_schematic=4&participantId=7D7784B916E54053848236BCD32C8727&assignmentId=0198beb4-c60d-7c0c-a7ae-de97d8739853&projectId=0198be8b-78cf-72d2-ba2b-1e62c78022e0","7D7784B916E54053848236BCD32C8727-2025-08-18-20-10-17","","null","","images/semantic_sequence/maintaining_a_car_semantic/maintaining_a_car_semantic_0.png","null","",""
"","","","","","image-button-response","89","475665","0.0-14.0-1.0-0.0","7D7784B916E54053848236BCD32C8727","7D7784B916E54053848236BCD32C8727","0198beb4-c60d-7c0c-a7ae-de97d8739853","0198be8b-78cf-72d2-ba2b-1e62c78022e0","{""num_scrambled_semantic"":""8"",""num_scrambled_causal"":""4"",""num_scrambled_schematic"":""4"",""participantId"":""7D7784B916E54053848236BCD32C8727"",""assignmentId"":""0198beb4-c60d-7c0c-a7ae-de97d8739853"",""projectId"":""0198be8b-78cf-72d2-ba2b-1e62c78022e0""}","https://test12345.live/?num_scrambled_semantic=8&num_scrambled_causal=4&num_scrambled_schematic=4&participantId=7D7784B916E54053848236BCD32C8727&assignmentId=0198beb4-c60d-7c0c-a7ae-de97d8739853&projectId=0198be8b-78cf-72d2-ba2b-1e62c78022e0","7D7784B916E54053848236BCD32C8727-2025-08-18-20-10-17","","null","","images/semantic_sequence/maintaining_a_car_semantic/maintaining_a_car_semantic_7.png","null","",""
"","","","","","image-button-response","90","477653","0.0-14.0-1.0-1.0","7D7784B916E54053848236BCD32C8727","7D7784B916E54053848236BCD32C8727","0198beb4-c60d-7c0c-a7ae-de97d8739853","0198be8b-78cf-72d2-ba2b-1e62c78022e0","{""num_scrambled_semantic"":""8"",""num_scrambled_causal"":""4"",""num_scrambled_schematic"":""4"",""participantId"":""7D7784B916E54053848236BCD32C8727"",""assignmentId"":""0198beb4-c60d-7c0c-a7ae-de97d8739853"",""projectId"":""0198be8b-78cf-72d2-ba2b-1e62c78022e0""}","https://test12345.live/?num_scrambled_semantic=8&num_scrambled_causal=4&num_scrambled_schematic=4&participantId=7D7784B916E54053848236BCD32C8727&assignmentId=0198beb4-c60d-7c0c-a7ae-de97d8739853&projectId=0198be8b-78cf-72d2-ba2b-1e62c78022e0","7D7784B916E54053848236BCD32C8727-2025-08-18-20-10-17","","1986","","images/semantic_sequence/maintaining_a_car_semantic/maintaining_a_car_semantic_7.png","0","",""
"","","","","","image-button-response","91","479455","0.0-14.0-1.0-2.0","7D7784B916E54053848236BCD32C8727","7D7784B916E54053848236BCD32C8727","0198beb4-c60d-7c0c-a7ae-de97d8739853","0198be8b-78cf-72d2-ba2b-1e62c78022e0","{""num_scrambled_semantic"":""8"",""num_scrambled_causal"":""4"",""num_scrambled_schematic"":""4"",""participantId"":""7D7784B916E54053848236BCD32C8727"",""assignmentId"":""0198beb4-c60d-7c0c-a7ae-de97d8739853"",""projectId"":""0198be8b-78cf-72d2-ba2b-1e62c78022e0""}","https://test12345.live/?num_scrambled_semantic=8&num_scrambled_causal=4&num_scrambled_schematic=4&participantId=7D7784B916E54053848236BCD32C8727&assignmentId=0198beb4-c60d-7c0c-a7ae-de97d8739853&projectId=0198be8b-78cf-72d2-ba2b-1e62c78022e0","7D7784B916E54053848236BCD32C8727-2025-08-18-20-10-17","","null","","[]","null","",""
"","","","","","image-button-response","92","483956","0.0-14.0-1.0-0.1","7D7784B916E54053848236BCD32C8727","7D7784B916E54053848236BCD32C8727","0198beb4-c60d-7c0c-a7ae-de97d8739853","0198be8b-78cf-72d2-ba2b-1e62c78022e0","{""num_scrambled_semantic"":""8"",""num_scrambled_causal"":""4"",""num_scrambled_schematic"":""4"",""participantId"":""7D7784B916E54053848236BCD32C8727"",""assignmentId"":""0198beb4-c60d-7c0c-a7ae-de97d8739853"",""projectId"":""0198be8b-78cf-72d2-ba2b-1e62c78022e0""}","https://test12345.live/?num_scrambled_semantic=8&num_scrambled_causal=4&num_scrambled_schematic=4&participantId=7D7784B916E54053848236BCD32C8727&assignmentId=0198beb4-c60d-7c0c-a7ae-de97d8739853&projectId=0198be8b-78cf-72d2-ba2b-1e62c78022e0","7D7784B916E54053848236BCD32C8727-2025-08-18-20-10-17","","null","","images/semantic_sequence/maintaining_a_car_semantic/maintaining_a_car_semantic_9.png","null","",""
"","","","","","image-button-response","93","484724","0.0-14.0-1.0-1.1","7D7784B916E54053848236BCD32C8727","7D7784B916E54053848236BCD32C8727","0198beb4-c60d-7c0c-a7ae-de97d8739853","0198be8b-78cf-72d2-ba2b-1e62c78022e0","{""num_scrambled_semantic"":""8"",""num_scrambled_causal"":""4"",""num_scrambled_schematic"":""4"",""participantId"":""7D7784B916E54053848236BCD32C8727"",""assignmentId"":""0198beb4-c60d-7c0c-a7ae-de97d8739853"",""projectId"":""0198be8b-78cf-72d2-ba2b-1e62c78022e0""}","https://test12345.live/?num_scrambled_semantic=8&num_scrambled_causal=4&num_scrambled_schematic=4&participantId=7D7784B916E54053848236BCD32C8727&assignmentId=0198beb4-c60d-7c0c-a7ae-de97d8739853&projectId=0198be8b-78cf-72d2-ba2b-1e62c78022e0","7D7784B916E54053848236BCD32C8727-2025-08-18-20-10-17","","767","","images/semantic_sequence/maintaining_a_car_semantic/maintaining_a_car_semantic_9.png","0","",""
"","","","","","image-button-response","94","486528","0.0-14.0-1.0-2.1","7D7784B916E54053848236BCD32C8727","7D7784B916E54053848236BCD32C8727","0198beb4-c60d-7c0c-a7ae-de97d8739853","0198be8b-78cf-72d2-ba2b-1e62c78022e0","{""num_scrambled_semantic"":""8"",""num_scrambled_causal"":""4"",""num_scrambled_schematic"":""4"",""participantId"":""7D7784B916E54053848236BCD32C8727"",""assignmentId"":""0198beb4-c60d-7c0c-a7ae-de97d8739853"",""projectId"":""0198be8b-78cf-72d2-ba2b-1e62c78022e0""}","https://test12345.live/?num_scrambled_semantic=8&num_scrambled_causal=4&num_scrambled_schematic=4&participantId=7D7784B916E54053848236BCD32C8727&assignmentId=0198beb4-c60d-7c0c-a7ae-de97d8739853&projectId=0198be8b-78cf-72d2-ba2b-1e62c78022e0","7D7784B916E54053848236BCD32C8727-2025-08-18-20-10-17","","null","","[]","null","",""
"","","","","","image-button-response","95","491030","0.0-14.0-1.0-0.2","7D7784B916E54053848236BCD32C8727","7D7784B916E54053848236BCD32C8727","0198beb4-c60d-7c0c-a7ae-de97d8739853","0198be8b-78cf-72d2-ba2b-1e62c78022e0","{""num_scrambled_semantic"":""8"",""num_scrambled_causal"":""4"",""num_scrambled_schematic"":""4"",""participantId"":""7D7784B916E54053848236BCD32C8727"",""assignmentId"":""0198beb4-c60d-7c0c-a7ae-de97d8739853"",""projectId"":""0198be8b-78cf-72d2-ba2b-1e62c78022e0""}","https://test12345.live/?num_scrambled_semantic=8&num_scrambled_causal=4&num_scrambled_schematic=4&participantId=7D7784B916E54053848236BCD32C8727&assignmentId=0198beb4-c60d-7c0c-a7ae-de97d8739853&projectId=0198be8b-78cf-72d2-ba2b-1e62c78022e0","7D7784B916E54053848236BCD32C8727-2025-08-18-20-10-17","","null","","images/semantic_sequence/maintaining_a_car_semantic/maintaining_a_car_semantic_4.png","null","",""
"","","","","","image-button-response","96","491637","0.0-14.0-1.0-1.2","7D7784B916E54053848236BCD32C8727","7D7784B916E54053848236BCD32C8727","0198beb4-c60d-7c0c-a7ae-de97d8739853","0198be8b-78cf-72d2-ba2b-1e62c78022e0","{""num_scrambled_semantic"":""8"",""num_scrambled_causal"":""4"",""num_scrambled_schematic"":""4"",""participantId"":""7D7784B916E54053848236BCD32C8727"",""assignmentId"":""0198beb4-c60d-7c0c-a7ae-de97d8739853"",""projectId"":""0198be8b-78cf-72d2-ba2b-1e62c78022e0""}","https://test12345.live/?num_scrambled_semantic=8&num_scrambled_causal=4&num_scrambled_schematic=4&participantId=7D7784B916E54053848236BCD32C8727&assignmentId=0198beb4-c60d-7c0c-a7ae-de97d8739853&projectId=0198be8b-78cf-72d2-ba2b-1e62c78022e0","7D7784B916E54053848236BCD32C8727-2025-08-18-20-10-17","","606","","images/semantic_sequence/maintaining_a_car_semantic/maintaining_a_car_semantic_4.png","0","",""
"","","","","","image-button-response","97","493438","0.0-14.0-1.0-2.2","7D7784B916E54053848236BCD32C8727","7D7784B916E54053848236BCD32C8727","0198beb4-c60d-7c0c-a7ae-de97d8739853","0198be8b-78cf-72d2-ba2b-1e62c78022e0","{""num_scrambled_semantic"":""8"",""num_scrambled_causal"":""4"",""num_scrambled_schematic"":""4"",""participantId"":""7D7784B916E54053848236BCD32C8727"",""assignmentId"":""0198beb4-c60d-7c0c-a7ae-de97d8739853"",""projectId"":""0198be8b-78cf-72d2-ba2b-1e62c78022e0""}","https://test12345.live/?num_scrambled_semantic=8&num_scrambled_causal=4&num_scrambled_schematic=4&participantId=7D7784B916E54053848236BCD32C8727&assignmentId=0198beb4-c60d-7c0c-a7ae-de97d8739853&projectId=0198be8b-78cf-72d2-ba2b-1e62c78022e0","7D7784B916E54053848236BCD32C8727-2025-08-18-20-10-17","","null","","[]","null","",""
"","","","","","image-button-response","98","497941","0.0-14.0-1.0-0.3","7D7784B916E54053848236BCD32C8727","7D7784B916E54053848236BCD32C8727","0198beb4-c60d-7c0c-a7ae-de97d8739853","0198be8b-78cf-72d2-ba2b-1e62c78022e0","{""num_scrambled_semantic"":""8"",""num_scrambled_causal"":""4"",""num_scrambled_schematic"":""4"",""participantId"":""7D7784B916E54053848236BCD32C8727"",""assignmentId"":""0198beb4-c60d-7c0c-a7ae-de97d8739853"",""projectId"":""0198be8b-78cf-72d2-ba2b-1e62c78022e0""}","https://test12345.live/?num_scrambled_semantic=8&num_scrambled_causal=4&num_scrambled_schematic=4&participantId=7D7784B916E54053848236BCD32C8727&assignmentId=0198beb4-c60d-7c0c-a7ae-de97d8739853&projectId=0198be8b-78cf-72d2-ba2b-1e62c78022e0","7D7784B916E54053848236BCD32C8727-2025-08-18-20-10-17","","null","","images/semantic_sequence/maintaining_a_car_semantic/maintaining_a_car_semantic_1.png","null","",""
"","","","","","image-button-response","99","498518","0.0-14.0-1.0-1.3","7D7784B916E54053848236BCD32C8727","7D7784B916E54053848236BCD32C8727","0198beb4-c60d-7c0c-a7ae-de97d8739853","0198be8b-78cf-72d2-ba2b-1e62c78022e0","{""num_scrambled_semantic"":""8"",""num_scrambled_causal"":""4"",""num_scrambled_schematic"":""4"",""participantId"":""7D7784B916E54053848236BCD32C8727"",""assignmentId"":""0198beb4-c60d-7c0c-a7ae-de97d8739853"",""projectId"":""0198be8b-78cf-72d2-ba2b-1e62c78022e0""}","https://test12345.live/?num_scrambled_semantic=8&num_scrambled_causal=4&num_scrambled_schematic=4&participantId=7D7784B916E54053848236BCD32C8727&assignmentId=0198beb4-c60d-7c0c-a7ae-de97d8739853&projectId=0198be8b-78cf-72d2-ba2b-1e62c78022e0","7D7784B916E54053848236BCD32C8727-2025-08-18-20-10-17","","576","","images/semantic_sequence/maintaining_a_car_semantic/maintaining_a_car_semantic_1.png","0","",""
"","","","","","image-button-response","100","500320","0.0-14.0-1.0-2.3","7D7784B916E54053848236BCD32C8727","7D7784B916E54053848236BCD32C8727","0198beb4-c60d-7c0c-a7ae-de97d8739853","0198be8b-78cf-72d2-ba2b-1e62c78022e0","{""num_scrambled_semantic"":""8"",""num_scrambled_causal"":""4"",""num_scrambled_schematic"":""4"",""participantId"":""7D7784B916E54053848236BCD32C8727"",""assignmentId"":""0198beb4-c60d-7c0c-a7ae-de97d8739853"",""projectId"":""0198be8b-78cf-72d2-ba2b-1e62c78022e0""}","https://test12345.live/?num_scrambled_semantic=8&num_scrambled_causal=4&num_scrambled_schematic=4&participantId=7D7784B916E54053848236BCD32C8727&assignmentId=0198beb4-c60d-7c0c-a7ae-de97d8739853&projectId=0198be8b-78cf-72d2-ba2b-1e62c78022e0","7D7784B916E54053848236BCD32C8727-2025-08-18-20-10-17","","null","","[]","null","",""
"","","","","","image-button-response","101","504821","0.0-14.0-1.0-0.4","7D7784B916E54053848236BCD32C8727","7D7784B916E54053848236BCD32C8727","0198beb4-c60d-7c0c-a7ae-de97d8739853","0198be8b-78cf-72d2-ba2b-1e62c78022e0","{""num_scrambled_semantic"":""8"",""num_scrambled_causal"":""4"",""num_scrambled_schematic"":""4"",""participantId"":""7D7784B916E54053848236BCD32C8727"",""assignmentId"":""0198beb4-c60d-7c0c-a7ae-de97d8739853"",""projectId"":""0198be8b-78cf-72d2-ba2b-1e62c78022e0""}","https://test12345.live/?num_scrambled_semantic=8&num_scrambled_causal=4&num_scrambled_schematic=4&participantId=7D7784B916E54053848236BCD32C8727&assignmentId=0198beb4-c60d-7c0c-a7ae-de97d8739853&projectId=0198be8b-78cf-72d2-ba2b-1e62c78022e0","7D7784B916E54053848236BCD32C8727-2025-08-18-20-10-17","","null","","images/semantic_sequence/maintaining_a_car_semantic/maintaining_a_car_semantic_5.png","null","",""
"","","","","","image-button-response","102","505620","0.0-14.0-1.0-1.4","7D7784B916E54053848236BCD32C8727","7D7784B916E54053848236BCD32C8727","0198beb4-c60d-7c0c-a7ae-de97d8739853","0198be8b-78cf-72d2-ba2b-1e62c78022e0","{""num_scrambled_semantic"":""8"",""num_scrambled_causal"":""4"",""num_scrambled_schematic"":""4"",""participantId"":""7D7784B916E54053848236BCD32C8727"",""assignmentId"":""0198beb4-c60d-7c0c-a7ae-de97d8739853"",""projectId"":""0198be8b-78cf-72d2-ba2b-1e62c78022e0""}","https://test12345.live/?num_scrambled_semantic=8&num_scrambled_causal=4&num_scrambled_schematic=4&participantId=7D7784B916E54053848236BCD32C8727&assignmentId=0198beb4-c60d-7c0c-a7ae-de97d8739853&projectId=0198be8b-78cf-72d2-ba2b-1e62c78022e0","7D7784B916E54053848236BCD32C8727-2025-08-18-20-10-17","","798","","images/semantic_sequence/maintaining_a_car_semantic/maintaining_a_car_semantic_5.png","0","",""
"","","","","","image-button-response","103","507422","0.0-14.0-1.0-2.4","7D7784B916E54053848236BCD32C8727","7D7784B916E54053848236BCD32C8727","0198beb4-c60d-7c0c-a7ae-de97d8739853","0198be8b-78cf-72d2-ba2b-1e62c78022e0","{""num_scrambled_semantic"":""8"",""num_scrambled_causal"":""4"",""num_scrambled_schematic"":""4"",""participantId"":""7D7784B916E54053848236BCD32C8727"",""assignmentId"":""0198beb4-c60d-7c0c-a7ae-de97d8739853"",""projectId"":""0198be8b-78cf-72d2-ba2b-1e62c78022e0""}","https://test12345.live/?num_scrambled_semantic=8&num_scrambled_causal=4&num_scrambled_schematic=4&participantId=7D7784B916E54053848236BCD32C8727&assignmentId=0198beb4-c60d-7c0c-a7ae-de97d8739853&projectId=0198be8b-78cf-72d2-ba2b-1e62c78022e0","7D7784B916E54053848236BCD32C8727-2025-08-18-20-10-17","","null","","[]","null","",""
"","","","","","image-button-response","104","511923","0.0-14.0-1.0-0.5","7D7784B916E54053848236BCD32C8727","7D7784B916E54053848236BCD32C8727","0198beb4-c60d-7c0c-a7ae-de97d8739853","0198be8b-78cf-72d2-ba2b-1e62c78022e0","{""num_scrambled_semantic"":""8"",""num_scrambled_causal"":""4"",""num_scrambled_schematic"":""4"",""participantId"":""7D7784B916E54053848236BCD32C8727"",""assignmentId"":""0198beb4-c60d-7c0c-a7ae-de97d8739853"",""projectId"":""0198be8b-78cf-72d2-ba2b-1e62c78022e0""}","https://test12345.live/?num_scrambled_semantic=8&num_scrambled_causal=4&num_scrambled_schematic=4&participantId=7D7784B916E54053848236BCD32C8727&assignmentId=0198beb4-c60d-7c0c-a7ae-de97d8739853&projectId=0198be8b-78cf-72d2-ba2b-1e62c78022e0","7D7784B916E54053848236BCD32C8727-2025-08-18-20-10-17","","null","","images/semantic_sequence/maintaining_a_car_semantic/maintaining_a_car_semantic_ten.png","null","",""
"","","","","","image-button-response","105","512663","0.0-14.0-1.0-1.5","7D7784B916E54053848236BCD32C8727","7D7784B916E54053848236BCD32C8727","0198beb4-c60d-7c0c-a7ae-de97d8739853","0198be8b-78cf-72d2-ba2b-1e62c78022e0","{""num_scrambled_semantic"":""8"",""num_scrambled_causal"":""4"",""num_scrambled_schematic"":""4"",""participantId"":""7D7784B916E54053848236BCD32C8727"",""assignmentId"":""0198beb4-c60d-7c0c-a7ae-de97d8739853"",""projectId"":""0198be8b-78cf-72d2-ba2b-1e62c78022e0""}","https://test12345.live/?num_scrambled_semantic=8&num_scrambled_causal=4&num_scrambled_schematic=4&participantId=7D7784B916E54053848236BCD32C8727&assignmentId=0198beb4-c60d-7c0c-a7ae-de97d8739853&projectId=0198be8b-78cf-72d2-ba2b-1e62c78022e0","7D7784B916E54053848236BCD32C8727-2025-08-18-20-10-17","","739","","images/semantic_sequence/maintaining_a_car_semantic/maintaining_a_car_semantic_ten.png","0","",""
"","","","","","image-button-response","106","514465","0.0-14.0-1.0-2.5","7D7784B916E54053848236BCD32C8727","7D7784B916E54053848236BCD32C8727","0198beb4-c60d-7c0c-a7ae-de97d8739853","0198be8b-78cf-72d2-ba2b-1e62c78022e0","{""num_scrambled_semantic"":""8"",""num_scrambled_causal"":""4"",""num_scrambled_schematic"":""4"",""participantId"":""7D7784B916E54053848236BCD32C8727"",""assignmentId"":""0198beb4-c60d-7c0c-a7ae-de97d8739853"",""projectId"":""0198be8b-78cf-72d2-ba2b-1e62c78022e0""}","https://test12345.live/?num_scrambled_semantic=8&num_scrambled_causal=4&num_scrambled_schematic=4&participantId=7D7784B916E54053848236BCD32C8727&assignmentId=0198beb4-c60d-7c0c-a7ae-de97d8739853&projectId=0198be8b-78cf-72d2-ba2b-1e62c78022e0","7D7784B916E54053848236BCD32C8727-2025-08-18-20-10-17","","null","","[]","null","",""
"","","","","","image-button-response","107","518966","0.0-14.0-1.0-0.6","7D7784B916E54053848236BCD32C8727","7D7784B916E54053848236BCD32C8727","0198beb4-c60d-7c0c-a7ae-de97d8739853","0198be8b-78cf-72d2-ba2b-1e62c78022e0","{""num_scrambled_semantic"":""8"",""num_scrambled_causal"":""4"",""num_scrambled_schematic"":""4"",""participantId"":""7D7784B916E54053848236BCD32C8727"",""assignmentId"":""0198beb4-c60d-7c0c-a7ae-de97d8739853"",""projectId"":""0198be8b-78cf-72d2-ba2b-1e62c78022e0""}","https://test12345.live/?num_scrambled_semantic=8&num_scrambled_causal=4&num_scrambled_schematic=4&participantId=7D7784B916E54053848236BCD32C8727&assignmentId=0198beb4-c60d-7c0c-a7ae-de97d8739853&projectId=0198be8b-78cf-72d2-ba2b-1e62c78022e0","7D7784B916E54053848236BCD32C8727-2025-08-18-20-10-17","","null","","images/semantic_sequence/maintaining_a_car_semantic/maintaining_a_car_semantic_6.png","null","",""
"","","","","","image-button-response","108","519794","0.0-14.0-1.0-1.6","7D7784B916E54053848236BCD32C8727","7D7784B916E54053848236BCD32C8727","0198beb4-c60d-7c0c-a7ae-de97d8739853","0198be8b-78cf-72d2-ba2b-1e62c78022e0","{""num_scrambled_semantic"":""8"",""num_scrambled_causal"":""4"",""num_scrambled_schematic"":""4"",""participantId"":""7D7784B916E54053848236BCD32C8727"",""assignmentId"":""0198beb4-c60d-7c0c-a7ae-de97d8739853"",""projectId"":""0198be8b-78cf-72d2-ba2b-1e62c78022e0""}","https://test12345.live/?num_scrambled_semantic=8&num_scrambled_causal=4&num_scrambled_schematic=4&participantId=7D7784B916E54053848236BCD32C8727&assignmentId=0198beb4-c60d-7c0c-a7ae-de97d8739853&projectId=0198be8b-78cf-72d2-ba2b-1e62c78022e0","7D7784B916E54053848236BCD32C8727-2025-08-18-20-10-17","","828","","images/semantic_sequence/maintaining_a_car_semantic/maintaining_a_car_semantic_6.png","0","",""
"","","","","","image-button-response","109","521597","0.0-14.0-1.0-2.6","7D7784B916E54053848236BCD32C8727","7D7784B916E54053848236BCD32C8727","0198beb4-c60d-7c0c-a7ae-de97d8739853","0198be8b-78cf-72d2-ba2b-1e62c78022e0","{""num_scrambled_semantic"":""8"",""num_scrambled_causal"":""4"",""num_scrambled_schematic"":""4"",""participantId"":""7D7784B916E54053848236BCD32C8727"",""assignmentId"":""0198beb4-c60d-7c0c-a7ae-de97d8739853"",""projectId"":""0198be8b-78cf-72d2-ba2b-1e62c78022e0""}","https://test12345.live/?num_scrambled_semantic=8&num_scrambled_causal=4&num_scrambled_schematic=4&participantId=7D7784B916E54053848236BCD32C8727&assignmentId=0198beb4-c60d-7c0c-a7ae-de97d8739853&projectId=0198be8b-78cf-72d2-ba2b-1e62c78022e0","7D7784B916E54053848236BCD32C8727-2025-08-18-20-10-17","","null","","[]","null","",""
"","","","","","image-button-response","110","526098","0.0-14.0-1.0-0.7","7D7784B916E54053848236BCD32C8727","7D7784B916E54053848236BCD32C8727","0198beb4-c60d-7c0c-a7ae-de97d8739853","0198be8b-78cf-72d2-ba2b-1e62c78022e0","{""num_scrambled_semantic"":""8"",""num_scrambled_causal"":""4"",""num_scrambled_schematic"":""4"",""participantId"":""7D7784B916E54053848236BCD32C8727"",""assignmentId"":""0198beb4-c60d-7c0c-a7ae-de97d8739853"",""projectId"":""0198be8b-78cf-72d2-ba2b-1e62c78022e0""}","https://test12345.live/?num_scrambled_semantic=8&num_scrambled_causal=4&num_scrambled_schematic=4&participantId=7D7784B916E54053848236BCD32C8727&assignmentId=0198beb4-c60d-7c0c-a7ae-de97d8739853&projectId=0198be8b-78cf-72d2-ba2b-1e62c78022e0","7D7784B916E54053848236BCD32C8727-2025-08-18-20-10-17","","null","","images/semantic_sequence/maintaining_a_car_semantic/maintaining_a_car_semantic_3.png","null","",""
"","","","","","image-button-response","111","526686","0.0-14.0-1.0-1.7","7D7784B916E54053848236BCD32C8727","7D7784B916E54053848236BCD32C8727","0198beb4-c60d-7c0c-a7ae-de97d8739853","0198be8b-78cf-72d2-ba2b-1e62c78022e0","{""num_scrambled_semantic"":""8"",""num_scrambled_causal"":""4"",""num_scrambled_schematic"":""4"",""participantId"":""7D7784B916E54053848236BCD32C8727"",""assignmentId"":""0198beb4-c60d-7c0c-a7ae-de97d8739853"",""projectId"":""0198be8b-78cf-72d2-ba2b-1e62c78022e0""}","https://test12345.live/?num_scrambled_semantic=8&num_scrambled_causal=4&num_scrambled_schematic=4&participantId=7D7784B916E54053848236BCD32C8727&assignmentId=0198beb4-c60d-7c0c-a7ae-de97d8739853&projectId=0198be8b-78cf-72d2-ba2b-1e62c78022e0","7D7784B916E54053848236BCD32C8727-2025-08-18-20-10-17","","586","","images/semantic_sequence/maintaining_a_car_semantic/maintaining_a_car_semantic_3.png","0","",""
"","","","","","image-button-response","112","528488","0.0-14.0-1.0-2.7","7D7784B916E54053848236BCD32C8727","7D7784B916E54053848236BCD32C8727","0198beb4-c60d-7c0c-a7ae-de97d8739853","0198be8b-78cf-72d2-ba2b-1e62c78022e0","{""num_scrambled_semantic"":""8"",""num_scrambled_causal"":""4"",""num_scrambled_schematic"":""4"",""participantId"":""7D7784B916E54053848236BCD32C8727"",""assignmentId"":""0198beb4-c60d-7c0c-a7ae-de97d8739853"",""projectId"":""0198be8b-78cf-72d2-ba2b-1e62c78022e0""}","https://test12345.live/?num_scrambled_semantic=8&num_scrambled_causal=4&num_scrambled_schematic=4&participantId=7D7784B916E54053848236BCD32C8727&assignmentId=0198beb4-c60d-7c0c-a7ae-de97d8739853&projectId=0198be8b-78cf-72d2-ba2b-1e62c78022e0","7D7784B916E54053848236BCD32C8727-2025-08-18-20-10-17","","null","","[]","null","",""
"","","","","","image-button-response","113","532990","0.0-14.0-1.0-0.8","7D7784B916E54053848236BCD32C8727","7D7784B916E54053848236BCD32C8727","0198beb4-c60d-7c0c-a7ae-de97d8739853","0198be8b-78cf-72d2-ba2b-1e62c78022e0","{""num_scrambled_semantic"":""8"",""num_scrambled_causal"":""4"",""num_scrambled_schematic"":""4"",""participantId"":""7D7784B916E54053848236BCD32C8727"",""assignmentId"":""0198beb4-c60d-7c0c-a7ae-de97d8739853"",""projectId"":""0198be8b-78cf-72d2-ba2b-1e62c78022e0""}","https://test12345.live/?num_scrambled_semantic=8&num_scrambled_causal=4&num_scrambled_schematic=4&participantId=7D7784B916E54053848236BCD32C8727&assignmentId=0198beb4-c60d-7c0c-a7ae-de97d8739853&projectId=0198be8b-78cf-72d2-ba2b-1e62c78022e0","7D7784B916E54053848236BCD32C8727-2025-08-18-20-10-17","","null","","images/semantic_sequence/maintaining_a_car_semantic/maintaining_a_car_semantic_8.png","null","",""
