"success","timeout","failed_images","failed_audio","failed_video","trial_type","trial_index","time_elapsed","internal_node_id","subject","subject_id","study_id","session_id","urlvar","current_url","audio_id","view_history","rt","device_id","stimulus","response","estimated_stimulus_onset","seq_name"
"true","false","[]","[]","[]","preload","0","198","0.0-0.0","7DD0416DB65047FDAA5BCCEDBDF9B817","7DD0416DB65047FDAA5BCCEDBDF9B817","0198be99-7adc-712e-8231-29f45387ae19","0198be8b-78cf-72d2-ba2b-1e62c78022e0","{""num_scrambled_semantic"":""8"",""num_scrambled_causal"":""4"",""num_scrambled_schematic"":""4"",""participantId"":""7DD0416DB65047FDAA5BCCEDBDF9B817"",""assignmentId"":""0198be99-7adc-712e-8231-29f45387ae19"",""projectId"":""0198be8b-78cf-72d2-ba2b-1e62c78022e0""}","https://test12345.live/?num_scrambled_semantic=8&num_scrambled_causal=4&num_scrambled_schematic=4&participantId=7DD0416DB65047FDAA5BCCEDBDF9B817&assignmentId=0198be99-7adc-712e-8231-29f45387ae19&projectId=0198be8b-78cf-72d2-ba2b-1e62c78022e0","7DD0416DB65047FDAA5BCCEDBDF9B817-2025-08-18-20-45-29","","","","","","",""
"","","","","","instructions","1","3189","0.0-1.0","7DD0416DB65047FDAA5BCCEDBDF9B817","7DD0416DB65047FDAA5BCCEDBDF9B817","0198be99-7adc-712e-8231-29f45387ae19","0198be8b-78cf-72d2-ba2b-1e62c78022e0","{""num_scrambled_semantic"":""8"",""num_scrambled_causal"":""4"",""num_scrambled_schematic"":""4"",""participantId"":""7DD0416DB65047FDAA5BCCEDBDF9B817"",""assignmentId"":""0198be99-7adc-712e-8231-29f45387ae19"",""projectId"":""0198be8b-78cf-72d2-ba2b-1e62c78022e0""}","https://test12345.live/?num_scrambled_semantic=8&num_scrambled_causal=4&num_scrambled_schematic=4&participantId=7DD0416DB65047FDAA5BCCEDBDF9B817&assignmentId=0198be99-7adc-712e-8231-29f45387ae19&projectId=0198be8b-78cf-72d2-ba2b-1e62c78022e0","7DD0416DB65047FDAA5BCCEDBDF9B817-2025-08-18-20-45-29","[{""page_index"":0,""viewing_time"":2991}]","2991","","","","",""
"","","","","","instructions","2","4801","0.0-2.0","7DD0416DB65047FDAA5BCCEDBDF9B817","7DD0416DB65047FDAA5BCCEDBDF9B817","0198be99-7adc-712e-8231-29f45387ae19","0198be8b-78cf-72d2-ba2b-1e62c78022e0","{""num_scrambled_semantic"":""8"",""num_scrambled_causal"":""4"",""num_scrambled_schematic"":""4"",""participantId"":""7DD0416DB65047FDAA5BCCEDBDF9B817"",""assignmentId"":""0198be99-7adc-712e-8231-29f45387ae19"",""projectId"":""0198be8b-78cf-72d2-ba2b-1e62c78022e0""}","https://test12345.live/?num_scrambled_semantic=8&num_scrambled_causal=4&num_scrambled_schematic=4&participantId=7DD0416DB65047FDAA5BCCEDBDF9B817&assignmentId=0198be99-7adc-712e-8231-29f45387ae19&projectId=0198be8b-78cf-72d2-ba2b-1e62c78022e0","7DD0416DB65047FDAA5BCCEDBDF9B817-2025-08-18-20-45-29","[{""page_index"":0,""viewing_time"":1611}]","1612","","","","",""
"true","","","","","fullscreen","3","6802","0.0-3.0","7DD0416DB65047FDAA5BCCEDBDF9B817","7DD0416DB65047FDAA5BCCEDBDF9B817","0198be99-7adc-712e-8231-29f45387ae19","0198be8b-78cf-72d2-ba2b-1e62c78022e0","{""num_scrambled_semantic"":""8"",""num_scrambled_causal"":""4"",""num_scrambled_schematic"":""4"",""participantId"":""7DD0416DB65047FDAA5BCCEDBDF9B817"",""assignmentId"":""0198be99-7adc-712e-8231-29f45387ae19"",""projectId"":""0198be8b-78cf-72d2-ba2b-1e62c78022e0""}","https://test12345.live/?num_scrambled_semantic=8&num_scrambled_causal=4&num_scrambled_schematic=4&participantId=7DD0416DB65047FDAA5BCCEDBDF9B817&assignmentId=0198be99-7adc-712e-8231-29f45387ae19&projectId=0198be8b-78cf-72d2-ba2b-1e62c78022e0","7DD0416DB65047FDAA5BCCEDBDF9B817-2025-08-18-20-45-29","","1000","","","","",""
"","","","","","initialize-microphone","4","37443","0.0-4.0-0.0","7DD0416DB65047FDAA5BCCEDBDF9B817","7DD0416DB65047FDAA5BCCEDBDF9B817","0198be99-7adc-712e-8231-29f45387ae19","0198be8b-78cf-72d2-ba2b-1e62c78022e0","{""num_scrambled_semantic"":""8"",""num_scrambled_causal"":""4"",""num_scrambled_schematic"":""4"",""participantId"":""7DD0416DB65047FDAA5BCCEDBDF9B817"",""assignmentId"":""0198be99-7adc-712e-8231-29f45387ae19"",""projectId"":""0198be8b-78cf-72d2-ba2b-1e62c78022e0""}","https://test12345.live/?num_scrambled_semantic=8&num_scrambled_causal=4&num_scrambled_schematic=4&participantId=7DD0416DB65047FDAA5BCCEDBDF9B817&assignmentId=0198be99-7adc-712e-8231-29f45387ae19&projectId=0198be8b-78cf-72d2-ba2b-1e62c78022e0","7DD0416DB65047FDAA5BCCEDBDF9B817-2025-08-18-20-45-29","","","98b53e1e179cb6ce5b2e8318886b58b55970110a5d2dd5eea34f1f09f41d8627","","","",""
"","","","","","html-audio-response","5","95261","0.0-4.0-1.0","7DD0416DB65047FDAA5BCCEDBDF9B817","7DD0416DB65047FDAA5BCCEDBDF9B817","0198be99-7adc-712e-8231-29f45387ae19","0198be8b-78cf-72d2-ba2b-1e62c78022e0","{""num_scrambled_semantic"":""8"",""num_scrambled_causal"":""4"",""num_scrambled_schematic"":""4"",""participantId"":""7DD0416DB65047FDAA5BCCEDBDF9B817"",""assignmentId"":""0198be99-7adc-712e-8231-29f45387ae19"",""projectId"":""0198be8b-78cf-72d2-ba2b-1e62c78022e0""}","https://test12345.live/?num_scrambled_semantic=8&num_scrambled_causal=4&num_scrambled_schematic=4&participantId=7DD0416DB65047FDAA5BCCEDBDF9B817&assignmentId=0198be99-7adc-712e-8231-29f45387ae19&projectId=0198be8b-78cf-72d2-ba2b-1e62c78022e0","7DD0416DB65047FDAA5BCCEDBDF9B817-2025-08-18-20-45-29","","14270","","<span style=""color: red; font-size: 24px""> NOW RECORDING</span>
        <p>Please test Microphone</p>","","7",""
"","","","","","html-button-response","6","96882","0.0-4.0-2.0","7DD0416DB65047FDAA5BCCEDBDF9B817","7DD0416DB65047FDAA5BCCEDBDF9B817","0198be99-7adc-712e-8231-29f45387ae19","0198be8b-78cf-72d2-ba2b-1e62c78022e0","{""num_scrambled_semantic"":""8"",""num_scrambled_causal"":""4"",""num_scrambled_schematic"":""4"",""participantId"":""7DD0416DB65047FDAA5BCCEDBDF9B817"",""assignmentId"":""0198be99-7adc-712e-8231-29f45387ae19"",""projectId"":""0198be8b-78cf-72d2-ba2b-1e62c78022e0""}","https://test12345.live/?num_scrambled_semantic=8&num_scrambled_causal=4&num_scrambled_schematic=4&participantId=7DD0416DB65047FDAA5BCCEDBDF9B817&assignmentId=0198be99-7adc-712e-8231-29f45387ae19&projectId=0198be8b-78cf-72d2-ba2b-1e62c78022e0","7DD0416DB65047FDAA5BCCEDBDF9B817-2025-08-18-20-45-29","","1621","","<p style=""font-size:48px; color:red;"">Is Microphone OK?</p>","0","",""
"","","","","","initialize-microphone","7","97889","0.0-4.1-0.1","7DD0416DB65047FDAA5BCCEDBDF9B817","7DD0416DB65047FDAA5BCCEDBDF9B817","0198be99-7adc-712e-8231-29f45387ae19","0198be8b-78cf-72d2-ba2b-1e62c78022e0","{""num_scrambled_semantic"":""8"",""num_scrambled_causal"":""4"",""num_scrambled_schematic"":""4"",""participantId"":""7DD0416DB65047FDAA5BCCEDBDF9B817"",""assignmentId"":""0198be99-7adc-712e-8231-29f45387ae19"",""projectId"":""0198be8b-78cf-72d2-ba2b-1e62c78022e0""}","https://test12345.live/?num_scrambled_semantic=8&num_scrambled_causal=4&num_scrambled_schematic=4&participantId=7DD0416DB65047FDAA5BCCEDBDF9B817&assignmentId=0198be99-7adc-712e-8231-29f45387ae19&projectId=0198be8b-78cf-72d2-ba2b-1e62c78022e0","7DD0416DB65047FDAA5BCCEDBDF9B817-2025-08-18-20-45-29","","","98b53e1e179cb6ce5b2e8318886b58b55970110a5d2dd5eea34f1f09f41d8627","","","",""
"","","","","","html-audio-response","8","845988","0.0-4.1-1.1","7DD0416DB65047FDAA5BCCEDBDF9B817","7DD0416DB65047FDAA5BCCEDBDF9B817","0198be99-7adc-712e-8231-29f45387ae19","0198be8b-78cf-72d2-ba2b-1e62c78022e0","{""num_scrambled_semantic"":""8"",""num_scrambled_causal"":""4"",""num_scrambled_schematic"":""4"",""participantId"":""7DD0416DB65047FDAA5BCCEDBDF9B817"",""assignmentId"":""0198be99-7adc-712e-8231-29f45387ae19"",""projectId"":""0198be8b-78cf-72d2-ba2b-1e62c78022e0""}","https://test12345.live/?num_scrambled_semantic=8&num_scrambled_causal=4&num_scrambled_schematic=4&participantId=7DD0416DB65047FDAA5BCCEDBDF9B817&assignmentId=0198be99-7adc-712e-8231-29f45387ae19&projectId=0198be8b-78cf-72d2-ba2b-1e62c78022e0","7DD0416DB65047FDAA5BCCEDBDF9B817-2025-08-18-20-45-29","","7910","","<span style=""color: red; font-size: 24px""> NOW RECORDING</span>
        <p>Please test Microphone</p>","","4",""
"","","","","","html-button-response","9","849492","0.0-4.1-2.1","7DD0416DB65047FDAA5BCCEDBDF9B817","7DD0416DB65047FDAA5BCCEDBDF9B817","0198be99-7adc-712e-8231-29f45387ae19","0198be8b-78cf-72d2-ba2b-1e62c78022e0","{""num_scrambled_semantic"":""8"",""num_scrambled_causal"":""4"",""num_scrambled_schematic"":""4"",""participantId"":""7DD0416DB65047FDAA5BCCEDBDF9B817"",""assignmentId"":""0198be99-7adc-712e-8231-29f45387ae19"",""projectId"":""0198be8b-78cf-72d2-ba2b-1e62c78022e0""}","https://test12345.live/?num_scrambled_semantic=8&num_scrambled_causal=4&num_scrambled_schematic=4&participantId=7DD0416DB65047FDAA5BCCEDBDF9B817&assignmentId=0198be99-7adc-712e-8231-29f45387ae19&projectId=0198be8b-78cf-72d2-ba2b-1e62c78022e0","7DD0416DB65047FDAA5BCCEDBDF9B817-2025-08-18-20-45-29","","3503","","<p style=""font-size:48px; color:red;"">Is Microphone OK?</p>","1","",""
"","","","","","instructions","10","853971","0.0-5.0","7DD0416DB65047FDAA5BCCEDBDF9B817","7DD0416DB65047FDAA5BCCEDBDF9B817","0198be99-7adc-712e-8231-29f45387ae19","0198be8b-78cf-72d2-ba2b-1e62c78022e0","{""num_scrambled_semantic"":""8"",""num_scrambled_causal"":""4"",""num_scrambled_schematic"":""4"",""participantId"":""7DD0416DB65047FDAA5BCCEDBDF9B817"",""assignmentId"":""0198be99-7adc-712e-8231-29f45387ae19"",""projectId"":""0198be8b-78cf-72d2-ba2b-1e62c78022e0""}","https://test12345.live/?num_scrambled_semantic=8&num_scrambled_causal=4&num_scrambled_schematic=4&participantId=7DD0416DB65047FDAA5BCCEDBDF9B817&assignmentId=0198be99-7adc-712e-8231-29f45387ae19&projectId=0198be8b-78cf-72d2-ba2b-1e62c78022e0","7DD0416DB65047FDAA5BCCEDBDF9B817-2025-08-18-20-45-29","[{""page_index"":0,""viewing_time"":2185},{""page_index"":1,""viewing_time"":2293}]","4479","","","","",""
"","","","","","image-button-response","11","859975","0.0-6.0-0.0","7DD0416DB65047FDAA5BCCEDBDF9B817","7DD0416DB65047FDAA5BCCEDBDF9B817","0198be99-7adc-712e-8231-29f45387ae19","0198be8b-78cf-72d2-ba2b-1e62c78022e0","{""num_scrambled_semantic"":""8"",""num_scrambled_causal"":""4"",""num_scrambled_schematic"":""4"",""participantId"":""7DD0416DB65047FDAA5BCCEDBDF9B817"",""assignmentId"":""0198be99-7adc-712e-8231-29f45387ae19"",""projectId"":""0198be8b-78cf-72d2-ba2b-1e62c78022e0""}","https://test12345.live/?num_scrambled_semantic=8&num_scrambled_causal=4&num_scrambled_schematic=4&participantId=7DD0416DB65047FDAA5BCCEDBDF9B817&assignmentId=0198be99-7adc-712e-8231-29f45387ae19&projectId=0198be8b-78cf-72d2-ba2b-1e62c78022e0","7DD0416DB65047FDAA5BCCEDBDF9B817-2025-08-18-20-45-29","","null","","images/instructions/movie_0.png","null","",""
"","","","","","image-button-response","12","864477","0.0-6.0-1.0-0.0","7DD0416DB65047FDAA5BCCEDBDF9B817","7DD0416DB65047FDAA5BCCEDBDF9B817","0198be99-7adc-712e-8231-29f45387ae19","0198be8b-78cf-72d2-ba2b-1e62c78022e0","{""num_scrambled_semantic"":""8"",""num_scrambled_causal"":""4"",""num_scrambled_schematic"":""4"",""participantId"":""7DD0416DB65047FDAA5BCCEDBDF9B817"",""assignmentId"":""0198be99-7adc-712e-8231-29f45387ae19"",""projectId"":""0198be8b-78cf-72d2-ba2b-1e62c78022e0""}","https://test12345.live/?num_scrambled_semantic=8&num_scrambled_causal=4&num_scrambled_schematic=4&participantId=7DD0416DB65047FDAA5BCCEDBDF9B817&assignmentId=0198be99-7adc-712e-8231-29f45387ae19&projectId=0198be8b-78cf-72d2-ba2b-1e62c78022e0","7DD0416DB65047FDAA5BCCEDBDF9B817-2025-08-18-20-45-29","","null","","images/instructions/movie_1.png","null","",""
"","","","","","image-button-response","13","865182","0.0-6.0-1.0-1.0","7DD0416DB65047FDAA5BCCEDBDF9B817","7DD0416DB65047FDAA5BCCEDBDF9B817","0198be99-7adc-712e-8231-29f45387ae19","0198be8b-78cf-72d2-ba2b-1e62c78022e0","{""num_scrambled_semantic"":""8"",""num_scrambled_causal"":""4"",""num_scrambled_schematic"":""4"",""participantId"":""7DD0416DB65047FDAA5BCCEDBDF9B817"",""assignmentId"":""0198be99-7adc-712e-8231-29f45387ae19"",""projectId"":""0198be8b-78cf-72d2-ba2b-1e62c78022e0""}","https://test12345.live/?num_scrambled_semantic=8&num_scrambled_causal=4&num_scrambled_schematic=4&participantId=7DD0416DB65047FDAA5BCCEDBDF9B817&assignmentId=0198be99-7adc-712e-8231-29f45387ae19&projectId=0198be8b-78cf-72d2-ba2b-1e62c78022e0","7DD0416DB65047FDAA5BCCEDBDF9B817-2025-08-18-20-45-29","","702","","images/instructions/movie_1.png","0","",""
"","","","","","image-button-response","14","866983","0.0-6.0-1.0-2.0","7DD0416DB65047FDAA5BCCEDBDF9B817","7DD0416DB65047FDAA5BCCEDBDF9B817","0198be99-7adc-712e-8231-29f45387ae19","0198be8b-78cf-72d2-ba2b-1e62c78022e0","{""num_scrambled_semantic"":""8"",""num_scrambled_causal"":""4"",""num_scrambled_schematic"":""4"",""participantId"":""7DD0416DB65047FDAA5BCCEDBDF9B817"",""assignmentId"":""0198be99-7adc-712e-8231-29f45387ae19"",""projectId"":""0198be8b-78cf-72d2-ba2b-1e62c78022e0""}","https://test12345.live/?num_scrambled_semantic=8&num_scrambled_causal=4&num_scrambled_schematic=4&participantId=7DD0416DB65047FDAA5BCCEDBDF9B817&assignmentId=0198be99-7adc-712e-8231-29f45387ae19&projectId=0198be8b-78cf-72d2-ba2b-1e62c78022e0","7DD0416DB65047FDAA5BCCEDBDF9B817-2025-08-18-20-45-29","","null","","[]","null","",""
"","","","","","image-button-response","15","871485","0.0-6.0-1.0-0.1","7DD0416DB65047FDAA5BCCEDBDF9B817","7DD0416DB65047FDAA5BCCEDBDF9B817","0198be99-7adc-712e-8231-29f45387ae19","0198be8b-78cf-72d2-ba2b-1e62c78022e0","{""num_scrambled_semantic"":""8"",""num_scrambled_causal"":""4"",""num_scrambled_schematic"":""4"",""participantId"":""7DD0416DB65047FDAA5BCCEDBDF9B817"",""assignmentId"":""0198be99-7adc-712e-8231-29f45387ae19"",""projectId"":""0198be8b-78cf-72d2-ba2b-1e62c78022e0""}","https://test12345.live/?num_scrambled_semantic=8&num_scrambled_causal=4&num_scrambled_schematic=4&participantId=7DD0416DB65047FDAA5BCCEDBDF9B817&assignmentId=0198be99-7adc-712e-8231-29f45387ae19&projectId=0198be8b-78cf-72d2-ba2b-1e62c78022e0","7DD0416DB65047FDAA5BCCEDBDF9B817-2025-08-18-20-45-29","","null","","images/instructions/movie_2.png","null","",""
"","","","","","image-button-response","16","873463","0.0-6.0-1.0-1.1","7DD0416DB65047FDAA5BCCEDBDF9B817","7DD0416DB65047FDAA5BCCEDBDF9B817","0198be99-7adc-712e-8231-29f45387ae19","0198be8b-78cf-72d2-ba2b-1e62c78022e0","{""num_scrambled_semantic"":""8"",""num_scrambled_causal"":""4"",""num_scrambled_schematic"":""4"",""participantId"":""7DD0416DB65047FDAA5BCCEDBDF9B817"",""assignmentId"":""0198be99-7adc-712e-8231-29f45387ae19"",""projectId"":""0198be8b-78cf-72d2-ba2b-1e62c78022e0""}","https://test12345.live/?num_scrambled_semantic=8&num_scrambled_causal=4&num_scrambled_schematic=4&participantId=7DD0416DB65047FDAA5BCCEDBDF9B817&assignmentId=0198be99-7adc-712e-8231-29f45387ae19&projectId=0198be8b-78cf-72d2-ba2b-1e62c78022e0","7DD0416DB65047FDAA5BCCEDBDF9B817-2025-08-18-20-45-29","","1977","","images/instructions/movie_2.png","1","",""
"","","","","","image-button-response","17","875264","0.0-6.0-1.0-2.1","7DD0416DB65047FDAA5BCCEDBDF9B817","7DD0416DB65047FDAA5BCCEDBDF9B817","0198be99-7adc-712e-8231-29f45387ae19","0198be8b-78cf-72d2-ba2b-1e62c78022e0","{""num_scrambled_semantic"":""8"",""num_scrambled_causal"":""4"",""num_scrambled_schematic"":""4"",""participantId"":""7DD0416DB65047FDAA5BCCEDBDF9B817"",""assignmentId"":""0198be99-7adc-712e-8231-29f45387ae19"",""projectId"":""0198be8b-78cf-72d2-ba2b-1e62c78022e0""}","https://test12345.live/?num_scrambled_semantic=8&num_scrambled_causal=4&num_scrambled_schematic=4&participantId=7DD0416DB65047FDAA5BCCEDBDF9B817&assignmentId=0198be99-7adc-712e-8231-29f45387ae19&projectId=0198be8b-78cf-72d2-ba2b-1e62c78022e0","7DD0416DB65047FDAA5BCCEDBDF9B817-2025-08-18-20-45-29","","null","","[]","null","",""
"","","","","","image-button-response","18","879765","0.0-6.0-1.0-0.2","7DD0416DB65047FDAA5BCCEDBDF9B817","7DD0416DB65047FDAA5BCCEDBDF9B817","0198be99-7adc-712e-8231-29f45387ae19","0198be8b-78cf-72d2-ba2b-1e62c78022e0","{""num_scrambled_semantic"":""8"",""num_scrambled_causal"":""4"",""num_scrambled_schematic"":""4"",""participantId"":""7DD0416DB65047FDAA5BCCEDBDF9B817"",""assignmentId"":""0198be99-7adc-712e-8231-29f45387ae19"",""projectId"":""0198be8b-78cf-72d2-ba2b-1e62c78022e0""}","https://test12345.live/?num_scrambled_semantic=8&num_scrambled_causal=4&num_scrambled_schematic=4&participantId=7DD0416DB65047FDAA5BCCEDBDF9B817&assignmentId=0198be99-7adc-712e-8231-29f45387ae19&projectId=0198be8b-78cf-72d2-ba2b-1e62c78022e0","7DD0416DB65047FDAA5BCCEDBDF9B817-2025-08-18-20-45-29","","null","","images/instructions/movie_3.png","null","",""
"","","","","","image-button-response","19","881539","0.0-6.0-1.0-1.2","7DD0416DB65047FDAA5BCCEDBDF9B817","7DD0416DB65047FDAA5BCCEDBDF9B817","0198be99-7adc-712e-8231-29f45387ae19","0198be8b-78cf-72d2-ba2b-1e62c78022e0","{""num_scrambled_semantic"":""8"",""num_scrambled_causal"":""4"",""num_scrambled_schematic"":""4"",""participantId"":""7DD0416DB65047FDAA5BCCEDBDF9B817"",""assignmentId"":""0198be99-7adc-712e-8231-29f45387ae19"",""projectId"":""0198be8b-78cf-72d2-ba2b-1e62c78022e0""}","https://test12345.live/?num_scrambled_semantic=8&num_scrambled_causal=4&num_scrambled_schematic=4&participantId=7DD0416DB65047FDAA5BCCEDBDF9B817&assignmentId=0198be99-7adc-712e-8231-29f45387ae19&projectId=0198be8b-78cf-72d2-ba2b-1e62c78022e0","7DD0416DB65047FDAA5BCCEDBDF9B817-2025-08-18-20-45-29","","1773","","images/instructions/movie_3.png","0","",""
"","","","","","image-button-response","20","883340","0.0-6.0-1.0-2.2","7DD0416DB65047FDAA5BCCEDBDF9B817","7DD0416DB65047FDAA5BCCEDBDF9B817","0198be99-7adc-712e-8231-29f45387ae19","0198be8b-78cf-72d2-ba2b-1e62c78022e0","{""num_scrambled_semantic"":""8"",""num_scrambled_causal"":""4"",""num_scrambled_schematic"":""4"",""participantId"":""7DD0416DB65047FDAA5BCCEDBDF9B817"",""assignmentId"":""0198be99-7adc-712e-8231-29f45387ae19"",""projectId"":""0198be8b-78cf-72d2-ba2b-1e62c78022e0""}","https://test12345.live/?num_scrambled_semantic=8&num_scrambled_causal=4&num_scrambled_schematic=4&participantId=7DD0416DB65047FDAA5BCCEDBDF9B817&assignmentId=0198be99-7adc-712e-8231-29f45387ae19&projectId=0198be8b-78cf-72d2-ba2b-1e62c78022e0","7DD0416DB65047FDAA5BCCEDBDF9B817-2025-08-18-20-45-29","","null","","[]","null","",""
"","","","","","image-button-response","21","887842","0.0-6.0-1.0-0.3","7DD0416DB65047FDAA5BCCEDBDF9B817","7DD0416DB65047FDAA5BCCEDBDF9B817","0198be99-7adc-712e-8231-29f45387ae19","0198be8b-78cf-72d2-ba2b-1e62c78022e0","{""num_scrambled_semantic"":""8"",""num_scrambled_causal"":""4"",""num_scrambled_schematic"":""4"",""participantId"":""7DD0416DB65047FDAA5BCCEDBDF9B817"",""assignmentId"":""0198be99-7adc-712e-8231-29f45387ae19"",""projectId"":""0198be8b-78cf-72d2-ba2b-1e62c78022e0""}","https://test12345.live/?num_scrambled_semantic=8&num_scrambled_causal=4&num_scrambled_schematic=4&participantId=7DD0416DB65047FDAA5BCCEDBDF9B817&assignmentId=0198be99-7adc-712e-8231-29f45387ae19&projectId=0198be8b-78cf-72d2-ba2b-1e62c78022e0","7DD0416DB65047FDAA5BCCEDBDF9B817-2025-08-18-20-45-29","","null","","images/instructions/movie_4.png","null","",""
"","","","","","image-button-response","22","889786","0.0-6.0-1.0-1.3","7DD0416DB65047FDAA5BCCEDBDF9B817","7DD0416DB65047FDAA5BCCEDBDF9B817","0198be99-7adc-712e-8231-29f45387ae19","0198be8b-78cf-72d2-ba2b-1e62c78022e0","{""num_scrambled_semantic"":""8"",""num_scrambled_causal"":""4"",""num_scrambled_schematic"":""4"",""participantId"":""7DD0416DB65047FDAA5BCCEDBDF9B817"",""assignmentId"":""0198be99-7adc-712e-8231-29f45387ae19"",""projectId"":""0198be8b-78cf-72d2-ba2b-1e62c78022e0""}","https://test12345.live/?num_scrambled_semantic=8&num_scrambled_causal=4&num_scrambled_schematic=4&participantId=7DD0416DB65047FDAA5BCCEDBDF9B817&assignmentId=0198be99-7adc-712e-8231-29f45387ae19&projectId=0198be8b-78cf-72d2-ba2b-1e62c78022e0","7DD0416DB65047FDAA5BCCEDBDF9B817-2025-08-18-20-45-29","","1944","","images/instructions/movie_4.png","0","",""
"","","","","","image-button-response","23","891587","0.0-6.0-1.0-2.3","7DD0416DB65047FDAA5BCCEDBDF9B817","7DD0416DB65047FDAA5BCCEDBDF9B817","0198be99-7adc-712e-8231-29f45387ae19","0198be8b-78cf-72d2-ba2b-1e62c78022e0","{""num_scrambled_semantic"":""8"",""num_scrambled_causal"":""4"",""num_scrambled_schematic"":""4"",""participantId"":""7DD0416DB65047FDAA5BCCEDBDF9B817"",""assignmentId"":""0198be99-7adc-712e-8231-29f45387ae19"",""projectId"":""0198be8b-78cf-72d2-ba2b-1e62c78022e0""}","https://test12345.live/?num_scrambled_semantic=8&num_scrambled_causal=4&num_scrambled_schematic=4&participantId=7DD0416DB65047FDAA5BCCEDBDF9B817&assignmentId=0198be99-7adc-712e-8231-29f45387ae19&projectId=0198be8b-78cf-72d2-ba2b-1e62c78022e0","7DD0416DB65047FDAA5BCCEDBDF9B817-2025-08-18-20-45-29","","null","","[]","null","",""
"","","","","","instructions","24","903030","0.0-7.0","7DD0416DB65047FDAA5BCCEDBDF9B817","7DD0416DB65047FDAA5BCCEDBDF9B817","0198be99-7adc-712e-8231-29f45387ae19","0198be8b-78cf-72d2-ba2b-1e62c78022e0","{""num_scrambled_semantic"":""8"",""num_scrambled_causal"":""4"",""num_scrambled_schematic"":""4"",""participantId"":""7DD0416DB65047FDAA5BCCEDBDF9B817"",""assignmentId"":""0198be99-7adc-712e-8231-29f45387ae19"",""projectId"":""0198be8b-78cf-72d2-ba2b-1e62c78022e0""}","https://test12345.live/?num_scrambled_semantic=8&num_scrambled_causal=4&num_scrambled_schematic=4&participantId=7DD0416DB65047FDAA5BCCEDBDF9B817&assignmentId=0198be99-7adc-712e-8231-29f45387ae19&projectId=0198be8b-78cf-72d2-ba2b-1e62c78022e0","7DD0416DB65047FDAA5BCCEDBDF9B817-2025-08-18-20-45-29","[{""page_index"":0,""viewing_time"":11442}]","11442","","","","",""
"","","","","","html-audio-response","25","1108995","0.0-8.0","7DD0416DB65047FDAA5BCCEDBDF9B817","7DD0416DB65047FDAA5BCCEDBDF9B817","0198be99-7adc-712e-8231-29f45387ae19","0198be8b-78cf-72d2-ba2b-1e62c78022e0","{""num_scrambled_semantic"":""8"",""num_scrambled_causal"":""4"",""num_scrambled_schematic"":""4"",""participantId"":""7DD0416DB65047FDAA5BCCEDBDF9B817"",""assignmentId"":""0198be99-7adc-712e-8231-29f45387ae19"",""projectId"":""0198be8b-78cf-72d2-ba2b-1e62c78022e0""}","https://test12345.live/?num_scrambled_semantic=8&num_scrambled_causal=4&num_scrambled_schematic=4&participantId=7DD0416DB65047FDAA5BCCEDBDF9B817&assignmentId=0198be99-7adc-712e-8231-29f45387ae19&projectId=0198be8b-78cf-72d2-ba2b-1e62c78022e0","7DD0416DB65047FDAA5BCCEDBDF9B817-2025-08-18-20-45-29","","33799","","[""<span style=\""color: red; font-size: 24px\""> NOW RECORDING</span><p>Please say out loud all the images you saw, in the order of the story they create. Try to recall the sequence of events as they appeared in the story, not necessarily the order they were presented on the screen.</p>""]","","2",""
"","","","","","instructions","26","1110203","0.0-9.0","7DD0416DB65047FDAA5BCCEDBDF9B817","7DD0416DB65047FDAA5BCCEDBDF9B817","0198be99-7adc-712e-8231-29f45387ae19","0198be8b-78cf-72d2-ba2b-1e62c78022e0","{""num_scrambled_semantic"":""8"",""num_scrambled_causal"":""4"",""num_scrambled_schematic"":""4"",""participantId"":""7DD0416DB65047FDAA5BCCEDBDF9B817"",""assignmentId"":""0198be99-7adc-712e-8231-29f45387ae19"",""projectId"":""0198be8b-78cf-72d2-ba2b-1e62c78022e0""}","https://test12345.live/?num_scrambled_semantic=8&num_scrambled_causal=4&num_scrambled_schematic=4&participantId=7DD0416DB65047FDAA5BCCEDBDF9B817&assignmentId=0198be99-7adc-712e-8231-29f45387ae19&projectId=0198be8b-78cf-72d2-ba2b-1e62c78022e0","7DD0416DB65047FDAA5BCCEDBDF9B817-2025-08-18-20-45-29","[{""page_index"":0,""viewing_time"":1203}]","1204","","","","",""
"","","","","","image-button-response","27","1116205","0.0-10.0-0.0","7DD0416DB65047FDAA5BCCEDBDF9B817","7DD0416DB65047FDAA5BCCEDBDF9B817","0198be99-7adc-712e-8231-29f45387ae19","0198be8b-78cf-72d2-ba2b-1e62c78022e0","{""num_scrambled_semantic"":""8"",""num_scrambled_causal"":""4"",""num_scrambled_schematic"":""4"",""participantId"":""7DD0416DB65047FDAA5BCCEDBDF9B817"",""assignmentId"":""0198be99-7adc-712e-8231-29f45387ae19"",""projectId"":""0198be8b-78cf-72d2-ba2b-1e62c78022e0""}","https://test12345.live/?num_scrambled_semantic=8&num_scrambled_causal=4&num_scrambled_schematic=4&participantId=7DD0416DB65047FDAA5BCCEDBDF9B817&assignmentId=0198be99-7adc-712e-8231-29f45387ae19&projectId=0198be8b-78cf-72d2-ba2b-1e62c78022e0","7DD0416DB65047FDAA5BCCEDBDF9B817-2025-08-18-20-45-29","","null","","images/semantic_sequence/cat_care_semantic/cat_care_semantic_0.png","null","",""
"","","","","","image-button-response","28","1120706","0.0-10.0-1.0-0.0","7DD0416DB65047FDAA5BCCEDBDF9B817","7DD0416DB65047FDAA5BCCEDBDF9B817","0198be99-7adc-712e-8231-29f45387ae19","0198be8b-78cf-72d2-ba2b-1e62c78022e0","{""num_scrambled_semantic"":""8"",""num_scrambled_causal"":""4"",""num_scrambled_schematic"":""4"",""participantId"":""7DD0416DB65047FDAA5BCCEDBDF9B817"",""assignmentId"":""0198be99-7adc-712e-8231-29f45387ae19"",""projectId"":""0198be8b-78cf-72d2-ba2b-1e62c78022e0""}","https://test12345.live/?num_scrambled_semantic=8&num_scrambled_causal=4&num_scrambled_schematic=4&participantId=7DD0416DB65047FDAA5BCCEDBDF9B817&assignmentId=0198be99-7adc-712e-8231-29f45387ae19&projectId=0198be8b-78cf-72d2-ba2b-1e62c78022e0","7DD0416DB65047FDAA5BCCEDBDF9B817-2025-08-18-20-45-29","","null","","images/semantic_sequence/cat_care_semantic/cat_care_semantic_8.png","null","",""
"","","","","","image-button-response","29","1122373","0.0-10.0-1.0-1.0","7DD0416DB65047FDAA5BCCEDBDF9B817","7DD0416DB65047FDAA5BCCEDBDF9B817","0198be99-7adc-712e-8231-29f45387ae19","0198be8b-78cf-72d2-ba2b-1e62c78022e0","{""num_scrambled_semantic"":""8"",""num_scrambled_causal"":""4"",""num_scrambled_schematic"":""4"",""participantId"":""7DD0416DB65047FDAA5BCCEDBDF9B817"",""assignmentId"":""0198be99-7adc-712e-8231-29f45387ae19"",""projectId"":""0198be8b-78cf-72d2-ba2b-1e62c78022e0""}","https://test12345.live/?num_scrambled_semantic=8&num_scrambled_causal=4&num_scrambled_schematic=4&participantId=7DD0416DB65047FDAA5BCCEDBDF9B817&assignmentId=0198be99-7adc-712e-8231-29f45387ae19&projectId=0198be8b-78cf-72d2-ba2b-1e62c78022e0","7DD0416DB65047FDAA5BCCEDBDF9B817-2025-08-18-20-45-29","","1666","","images/semantic_sequence/cat_care_semantic/cat_care_semantic_8.png","0","",""
"","","","","","image-button-response","30","1124174","0.0-10.0-1.0-2.0","7DD0416DB65047FDAA5BCCEDBDF9B817","7DD0416DB65047FDAA5BCCEDBDF9B817","0198be99-7adc-712e-8231-29f45387ae19","0198be8b-78cf-72d2-ba2b-1e62c78022e0","{""num_scrambled_semantic"":""8"",""num_scrambled_causal"":""4"",""num_scrambled_schematic"":""4"",""participantId"":""7DD0416DB65047FDAA5BCCEDBDF9B817"",""assignmentId"":""0198be99-7adc-712e-8231-29f45387ae19"",""projectId"":""0198be8b-78cf-72d2-ba2b-1e62c78022e0""}","https://test12345.live/?num_scrambled_semantic=8&num_scrambled_causal=4&num_scrambled_schematic=4&participantId=7DD0416DB65047FDAA5BCCEDBDF9B817&assignmentId=0198be99-7adc-712e-8231-29f45387ae19&projectId=0198be8b-78cf-72d2-ba2b-1e62c78022e0","7DD0416DB65047FDAA5BCCEDBDF9B817-2025-08-18-20-45-29","","null","","[]","null","",""
"","","","","","image-button-response","31","1128675","0.0-10.0-1.0-0.1","7DD0416DB65047FDAA5BCCEDBDF9B817","7DD0416DB65047FDAA5BCCEDBDF9B817","0198be99-7adc-712e-8231-29f45387ae19","0198be8b-78cf-72d2-ba2b-1e62c78022e0","{""num_scrambled_semantic"":""8"",""num_scrambled_causal"":""4"",""num_scrambled_schematic"":""4"",""participantId"":""7DD0416DB65047FDAA5BCCEDBDF9B817"",""assignmentId"":""0198be99-7adc-712e-8231-29f45387ae19"",""projectId"":""0198be8b-78cf-72d2-ba2b-1e62c78022e0""}","https://test12345.live/?num_scrambled_semantic=8&num_scrambled_causal=4&num_scrambled_schematic=4&participantId=7DD0416DB65047FDAA5BCCEDBDF9B817&assignmentId=0198be99-7adc-712e-8231-29f45387ae19&projectId=0198be8b-78cf-72d2-ba2b-1e62c78022e0","7DD0416DB65047FDAA5BCCEDBDF9B817-2025-08-18-20-45-29","","null","","images/semantic_sequence/cat_care_semantic/cat_care_semantic_9.png","null","",""
"","","","","","image-button-response","32","1129645","0.0-10.0-1.0-1.1","7DD0416DB65047FDAA5BCCEDBDF9B817","7DD0416DB65047FDAA5BCCEDBDF9B817","0198be99-7adc-712e-8231-29f45387ae19","0198be8b-78cf-72d2-ba2b-1e62c78022e0","{""num_scrambled_semantic"":""8"",""num_scrambled_causal"":""4"",""num_scrambled_schematic"":""4"",""participantId"":""7DD0416DB65047FDAA5BCCEDBDF9B817"",""assignmentId"":""0198be99-7adc-712e-8231-29f45387ae19"",""projectId"":""0198be8b-78cf-72d2-ba2b-1e62c78022e0""}","https://test12345.live/?num_scrambled_semantic=8&num_scrambled_causal=4&num_scrambled_schematic=4&participantId=7DD0416DB65047FDAA5BCCEDBDF9B817&assignmentId=0198be99-7adc-712e-8231-29f45387ae19&projectId=0198be8b-78cf-72d2-ba2b-1e62c78022e0","7DD0416DB65047FDAA5BCCEDBDF9B817-2025-08-18-20-45-29","","969","","images/semantic_sequence/cat_care_semantic/cat_care_semantic_9.png","0","",""
"","","","","","image-button-response","33","1131446","0.0-10.0-1.0-2.1","7DD0416DB65047FDAA5BCCEDBDF9B817","7DD0416DB65047FDAA5BCCEDBDF9B817","0198be99-7adc-712e-8231-29f45387ae19","0198be8b-78cf-72d2-ba2b-1e62c78022e0","{""num_scrambled_semantic"":""8"",""num_scrambled_causal"":""4"",""num_scrambled_schematic"":""4"",""participantId"":""7DD0416DB65047FDAA5BCCEDBDF9B817"",""assignmentId"":""0198be99-7adc-712e-8231-29f45387ae19"",""projectId"":""0198be8b-78cf-72d2-ba2b-1e62c78022e0""}","https://test12345.live/?num_scrambled_semantic=8&num_scrambled_causal=4&num_scrambled_schematic=4&participantId=7DD0416DB65047FDAA5BCCEDBDF9B817&assignmentId=0198be99-7adc-712e-8231-29f45387ae19&projectId=0198be8b-78cf-72d2-ba2b-1e62c78022e0","7DD0416DB65047FDAA5BCCEDBDF9B817-2025-08-18-20-45-29","","null","","[]","null","",""
"","","","","","image-button-response","34","1135947","0.0-10.0-1.0-0.2","7DD0416DB65047FDAA5BCCEDBDF9B817","7DD0416DB65047FDAA5BCCEDBDF9B817","0198be99-7adc-712e-8231-29f45387ae19","0198be8b-78cf-72d2-ba2b-1e62c78022e0","{""num_scrambled_semantic"":""8"",""num_scrambled_causal"":""4"",""num_scrambled_schematic"":""4"",""participantId"":""7DD0416DB65047FDAA5BCCEDBDF9B817"",""assignmentId"":""0198be99-7adc-712e-8231-29f45387ae19"",""projectId"":""0198be8b-78cf-72d2-ba2b-1e62c78022e0""}","https://test12345.live/?num_scrambled_semantic=8&num_scrambled_causal=4&num_scrambled_schematic=4&participantId=7DD0416DB65047FDAA5BCCEDBDF9B817&assignmentId=0198be99-7adc-712e-8231-29f45387ae19&projectId=0198be8b-78cf-72d2-ba2b-1e62c78022e0","7DD0416DB65047FDAA5BCCEDBDF9B817-2025-08-18-20-45-29","","null","","images/semantic_sequence/cat_care_semantic/cat_care_semantic_2.png","null","",""
"","","","","","image-button-response","35","1137740","0.0-10.0-1.0-1.2","7DD0416DB65047FDAA5BCCEDBDF9B817","7DD0416DB65047FDAA5BCCEDBDF9B817","0198be99-7adc-712e-8231-29f45387ae19","0198be8b-78cf-72d2-ba2b-1e62c78022e0","{""num_scrambled_semantic"":""8"",""num_scrambled_causal"":""4"",""num_scrambled_schematic"":""4"",""participantId"":""7DD0416DB65047FDAA5BCCEDBDF9B817"",""assignmentId"":""0198be99-7adc-712e-8231-29f45387ae19"",""projectId"":""0198be8b-78cf-72d2-ba2b-1e62c78022e0""}","https://test12345.live/?num_scrambled_semantic=8&num_scrambled_causal=4&num_scrambled_schematic=4&participantId=7DD0416DB65047FDAA5BCCEDBDF9B817&assignmentId=0198be99-7adc-712e-8231-29f45387ae19&projectId=0198be8b-78cf-72d2-ba2b-1e62c78022e0","7DD0416DB65047FDAA5BCCEDBDF9B817-2025-08-18-20-45-29","","1792","","images/semantic_sequence/cat_care_semantic/cat_care_semantic_2.png","0","",""
"","","","","","image-button-response","36","1139541","0.0-10.0-1.0-2.2","7DD0416DB65047FDAA5BCCEDBDF9B817","7DD0416DB65047FDAA5BCCEDBDF9B817","0198be99-7adc-712e-8231-29f45387ae19","0198be8b-78cf-72d2-ba2b-1e62c78022e0","{""num_scrambled_semantic"":""8"",""num_scrambled_causal"":""4"",""num_scrambled_schematic"":""4"",""participantId"":""7DD0416DB65047FDAA5BCCEDBDF9B817"",""assignmentId"":""0198be99-7adc-712e-8231-29f45387ae19"",""projectId"":""0198be8b-78cf-72d2-ba2b-1e62c78022e0""}","https://test12345.live/?num_scrambled_semantic=8&num_scrambled_causal=4&num_scrambled_schematic=4&participantId=7DD0416DB65047FDAA5BCCEDBDF9B817&assignmentId=0198be99-7adc-712e-8231-29f45387ae19&projectId=0198be8b-78cf-72d2-ba2b-1e62c78022e0","7DD0416DB65047FDAA5BCCEDBDF9B817-2025-08-18-20-45-29","","null","","[]","null","",""
"","","","","","image-button-response","37","1144043","0.0-10.0-1.0-0.3","7DD0416DB65047FDAA5BCCEDBDF9B817","7DD0416DB65047FDAA5BCCEDBDF9B817","0198be99-7adc-712e-8231-29f45387ae19","0198be8b-78cf-72d2-ba2b-1e62c78022e0","{""num_scrambled_semantic"":""8"",""num_scrambled_causal"":""4"",""num_scrambled_schematic"":""4"",""participantId"":""7DD0416DB65047FDAA5BCCEDBDF9B817"",""assignmentId"":""0198be99-7adc-712e-8231-29f45387ae19"",""projectId"":""0198be8b-78cf-72d2-ba2b-1e62c78022e0""}","https://test12345.live/?num_scrambled_semantic=8&num_scrambled_causal=4&num_scrambled_schematic=4&participantId=7DD0416DB65047FDAA5BCCEDBDF9B817&assignmentId=0198be99-7adc-712e-8231-29f45387ae19&projectId=0198be8b-78cf-72d2-ba2b-1e62c78022e0","7DD0416DB65047FDAA5BCCEDBDF9B817-2025-08-18-20-45-29","","null","","images/semantic_sequence/cat_care_semantic/cat_care_semantic_7.png","null","",""
"","","","","","image-button-response","38","1145582","0.0-10.0-1.0-1.3","7DD0416DB65047FDAA5BCCEDBDF9B817","7DD0416DB65047FDAA5BCCEDBDF9B817","0198be99-7adc-712e-8231-29f45387ae19","0198be8b-78cf-72d2-ba2b-1e62c78022e0","{""num_scrambled_semantic"":""8"",""num_scrambled_causal"":""4"",""num_scrambled_schematic"":""4"",""participantId"":""7DD0416DB65047FDAA5BCCEDBDF9B817"",""assignmentId"":""0198be99-7adc-712e-8231-29f45387ae19"",""projectId"":""0198be8b-78cf-72d2-ba2b-1e62c78022e0""}","https://test12345.live/?num_scrambled_semantic=8&num_scrambled_causal=4&num_scrambled_schematic=4&participantId=7DD0416DB65047FDAA5BCCEDBDF9B817&assignmentId=0198be99-7adc-712e-8231-29f45387ae19&projectId=0198be8b-78cf-72d2-ba2b-1e62c78022e0","7DD0416DB65047FDAA5BCCEDBDF9B817-2025-08-18-20-45-29","","1538","","images/semantic_sequence/cat_care_semantic/cat_care_semantic_7.png","0","",""
"","","","","","image-button-response","39","1147384","0.0-10.0-1.0-2.3","7DD0416DB65047FDAA5BCCEDBDF9B817","7DD0416DB65047FDAA5BCCEDBDF9B817","0198be99-7adc-712e-8231-29f45387ae19","0198be8b-78cf-72d2-ba2b-1e62c78022e0","{""num_scrambled_semantic"":""8"",""num_scrambled_causal"":""4"",""num_scrambled_schematic"":""4"",""participantId"":""7DD0416DB65047FDAA5BCCEDBDF9B817"",""assignmentId"":""0198be99-7adc-712e-8231-29f45387ae19"",""projectId"":""0198be8b-78cf-72d2-ba2b-1e62c78022e0""}","https://test12345.live/?num_scrambled_semantic=8&num_scrambled_causal=4&num_scrambled_schematic=4&participantId=7DD0416DB65047FDAA5BCCEDBDF9B817&assignmentId=0198be99-7adc-712e-8231-29f45387ae19&projectId=0198be8b-78cf-72d2-ba2b-1e62c78022e0","7DD0416DB65047FDAA5BCCEDBDF9B817-2025-08-18-20-45-29","","null","","[]","null","",""
"","","","","","image-button-response","40","1151885","0.0-10.0-1.0-0.4","7DD0416DB65047FDAA5BCCEDBDF9B817","7DD0416DB65047FDAA5BCCEDBDF9B817","0198be99-7adc-712e-8231-29f45387ae19","0198be8b-78cf-72d2-ba2b-1e62c78022e0","{""num_scrambled_semantic"":""8"",""num_scrambled_causal"":""4"",""num_scrambled_schematic"":""4"",""participantId"":""7DD0416DB65047FDAA5BCCEDBDF9B817"",""assignmentId"":""0198be99-7adc-712e-8231-29f45387ae19"",""projectId"":""0198be8b-78cf-72d2-ba2b-1e62c78022e0""}","https://test12345.live/?num_scrambled_semantic=8&num_scrambled_causal=4&num_scrambled_schematic=4&participantId=7DD0416DB65047FDAA5BCCEDBDF9B817&assignmentId=0198be99-7adc-712e-8231-29f45387ae19&projectId=0198be8b-78cf-72d2-ba2b-1e62c78022e0","7DD0416DB65047FDAA5BCCEDBDF9B817-2025-08-18-20-45-29","","null","","images/semantic_sequence/cat_care_semantic/cat_care_semantic_1.png","null","",""
"","","","","","image-button-response","41","1153580","0.0-10.0-1.0-1.4","7DD0416DB65047FDAA5BCCEDBDF9B817","7DD0416DB65047FDAA5BCCEDBDF9B817","0198be99-7adc-712e-8231-29f45387ae19","0198be8b-78cf-72d2-ba2b-1e62c78022e0","{""num_scrambled_semantic"":""8"",""num_scrambled_causal"":""4"",""num_scrambled_schematic"":""4"",""participantId"":""7DD0416DB65047FDAA5BCCEDBDF9B817"",""assignmentId"":""0198be99-7adc-712e-8231-29f45387ae19"",""projectId"":""0198be8b-78cf-72d2-ba2b-1e62c78022e0""}","https://test12345.live/?num_scrambled_semantic=8&num_scrambled_causal=4&num_scrambled_schematic=4&participantId=7DD0416DB65047FDAA5BCCEDBDF9B817&assignmentId=0198be99-7adc-712e-8231-29f45387ae19&projectId=0198be8b-78cf-72d2-ba2b-1e62c78022e0","7DD0416DB65047FDAA5BCCEDBDF9B817-2025-08-18-20-45-29","","1695","","images/semantic_sequence/cat_care_semantic/cat_care_semantic_1.png","0","",""
"","","","","","image-button-response","42","1155382","0.0-10.0-1.0-2.4","7DD0416DB65047FDAA5BCCEDBDF9B817","7DD0416DB65047FDAA5BCCEDBDF9B817","0198be99-7adc-712e-8231-29f45387ae19","0198be8b-78cf-72d2-ba2b-1e62c78022e0","{""num_scrambled_semantic"":""8"",""num_scrambled_causal"":""4"",""num_scrambled_schematic"":""4"",""participantId"":""7DD0416DB65047FDAA5BCCEDBDF9B817"",""assignmentId"":""0198be99-7adc-712e-8231-29f45387ae19"",""projectId"":""0198be8b-78cf-72d2-ba2b-1e62c78022e0""}","https://test12345.live/?num_scrambled_semantic=8&num_scrambled_causal=4&num_scrambled_schematic=4&participantId=7DD0416DB65047FDAA5BCCEDBDF9B817&assignmentId=0198be99-7adc-712e-8231-29f45387ae19&projectId=0198be8b-78cf-72d2-ba2b-1e62c78022e0","7DD0416DB65047FDAA5BCCEDBDF9B817-2025-08-18-20-45-29","","null","","[]","null","",""
"","","","","","image-button-response","43","1159883","0.0-10.0-1.0-0.5","7DD0416DB65047FDAA5BCCEDBDF9B817","7DD0416DB65047FDAA5BCCEDBDF9B817","0198be99-7adc-712e-8231-29f45387ae19","0198be8b-78cf-72d2-ba2b-1e62c78022e0","{""num_scrambled_semantic"":""8"",""num_scrambled_causal"":""4"",""num_scrambled_schematic"":""4"",""participantId"":""7DD0416DB65047FDAA5BCCEDBDF9B817"",""assignmentId"":""0198be99-7adc-712e-8231-29f45387ae19"",""projectId"":""0198be8b-78cf-72d2-ba2b-1e62c78022e0""}","https://test12345.live/?num_scrambled_semantic=8&num_scrambled_causal=4&num_scrambled_schematic=4&participantId=7DD0416DB65047FDAA5BCCEDBDF9B817&assignmentId=0198be99-7adc-712e-8231-29f45387ae19&projectId=0198be8b-78cf-72d2-ba2b-1e62c78022e0","7DD0416DB65047FDAA5BCCEDBDF9B817-2025-08-18-20-45-29","","null","","images/semantic_sequence/cat_care_semantic/cat_care_semantic_5.png","null","",""
"","","","","","image-button-response","44","1161691","0.0-10.0-1.0-1.5","7DD0416DB65047FDAA5BCCEDBDF9B817","7DD0416DB65047FDAA5BCCEDBDF9B817","0198be99-7adc-712e-8231-29f45387ae19","0198be8b-78cf-72d2-ba2b-1e62c78022e0","{""num_scrambled_semantic"":""8"",""num_scrambled_causal"":""4"",""num_scrambled_schematic"":""4"",""participantId"":""7DD0416DB65047FDAA5BCCEDBDF9B817"",""assignmentId"":""0198be99-7adc-712e-8231-29f45387ae19"",""projectId"":""0198be8b-78cf-72d2-ba2b-1e62c78022e0""}","https://test12345.live/?num_scrambled_semantic=8&num_scrambled_causal=4&num_scrambled_schematic=4&participantId=7DD0416DB65047FDAA5BCCEDBDF9B817&assignmentId=0198be99-7adc-712e-8231-29f45387ae19&projectId=0198be8b-78cf-72d2-ba2b-1e62c78022e0","7DD0416DB65047FDAA5BCCEDBDF9B817-2025-08-18-20-45-29","","1808","","images/semantic_sequence/cat_care_semantic/cat_care_semantic_5.png","0","",""
"","","","","","image-button-response","45","1163492","0.0-10.0-1.0-2.5","7DD0416DB65047FDAA5BCCEDBDF9B817","7DD0416DB65047FDAA5BCCEDBDF9B817","0198be99-7adc-712e-8231-29f45387ae19","0198be8b-78cf-72d2-ba2b-1e62c78022e0","{""num_scrambled_semantic"":""8"",""num_scrambled_causal"":""4"",""num_scrambled_schematic"":""4"",""participantId"":""7DD0416DB65047FDAA5BCCEDBDF9B817"",""assignmentId"":""0198be99-7adc-712e-8231-29f45387ae19"",""projectId"":""0198be8b-78cf-72d2-ba2b-1e62c78022e0""}","https://test12345.live/?num_scrambled_semantic=8&num_scrambled_causal=4&num_scrambled_schematic=4&participantId=7DD0416DB65047FDAA5BCCEDBDF9B817&assignmentId=0198be99-7adc-712e-8231-29f45387ae19&projectId=0198be8b-78cf-72d2-ba2b-1e62c78022e0","7DD0416DB65047FDAA5BCCEDBDF9B817-2025-08-18-20-45-29","","null","","[]","null","",""
"","","","","","image-button-response","46","1167995","0.0-10.0-1.0-0.6","7DD0416DB65047FDAA5BCCEDBDF9B817","7DD0416DB65047FDAA5BCCEDBDF9B817","0198be99-7adc-712e-8231-29f45387ae19","0198be8b-78cf-72d2-ba2b-1e62c78022e0","{""num_scrambled_semantic"":""8"",""num_scrambled_causal"":""4"",""num_scrambled_schematic"":""4"",""participantId"":""7DD0416DB65047FDAA5BCCEDBDF9B817"",""assignmentId"":""0198be99-7adc-712e-8231-29f45387ae19"",""projectId"":""0198be8b-78cf-72d2-ba2b-1e62c78022e0""}","https://test12345.live/?num_scrambled_semantic=8&num_scrambled_causal=4&num_scrambled_schematic=4&participantId=7DD0416DB65047FDAA5BCCEDBDF9B817&assignmentId=0198be99-7adc-712e-8231-29f45387ae19&projectId=0198be8b-78cf-72d2-ba2b-1e62c78022e0","7DD0416DB65047FDAA5BCCEDBDF9B817-2025-08-18-20-45-29","","null","","images/semantic_sequence/cat_care_semantic/cat_care_semantic_6.png","null","",""
"","","","","","image-button-response","47","1170184","0.0-10.0-1.0-1.6","7DD0416DB65047FDAA5BCCEDBDF9B817","7DD0416DB65047FDAA5BCCEDBDF9B817","0198be99-7adc-712e-8231-29f45387ae19","0198be8b-78cf-72d2-ba2b-1e62c78022e0","{""num_scrambled_semantic"":""8"",""num_scrambled_causal"":""4"",""num_scrambled_schematic"":""4"",""participantId"":""7DD0416DB65047FDAA5BCCEDBDF9B817"",""assignmentId"":""0198be99-7adc-712e-8231-29f45387ae19"",""projectId"":""0198be8b-78cf-72d2-ba2b-1e62c78022e0""}","https://test12345.live/?num_scrambled_semantic=8&num_scrambled_causal=4&num_scrambled_schematic=4&participantId=7DD0416DB65047FDAA5BCCEDBDF9B817&assignmentId=0198be99-7adc-712e-8231-29f45387ae19&projectId=0198be8b-78cf-72d2-ba2b-1e62c78022e0","7DD0416DB65047FDAA5BCCEDBDF9B817-2025-08-18-20-45-29","","2188","","images/semantic_sequence/cat_care_semantic/cat_care_semantic_6.png","0","",""
"","","","","","image-button-response","48","1171985","0.0-10.0-1.0-2.6","7DD0416DB65047FDAA5BCCEDBDF9B817","7DD0416DB65047FDAA5BCCEDBDF9B817","0198be99-7adc-712e-8231-29f45387ae19","0198be8b-78cf-72d2-ba2b-1e62c78022e0","{""num_scrambled_semantic"":""8"",""num_scrambled_causal"":""4"",""num_scrambled_schematic"":""4"",""participantId"":""7DD0416DB65047FDAA5BCCEDBDF9B817"",""assignmentId"":""0198be99-7adc-712e-8231-29f45387ae19"",""projectId"":""0198be8b-78cf-72d2-ba2b-1e62c78022e0""}","https://test12345.live/?num_scrambled_semantic=8&num_scrambled_causal=4&num_scrambled_schematic=4&participantId=7DD0416DB65047FDAA5BCCEDBDF9B817&assignmentId=0198be99-7adc-712e-8231-29f45387ae19&projectId=0198be8b-78cf-72d2-ba2b-1e62c78022e0","7DD0416DB65047FDAA5BCCEDBDF9B817-2025-08-18-20-45-29","","null","","[]","null","",""
"","","","","","image-button-response","49","1176487","0.0-10.0-1.0-0.7","7DD0416DB65047FDAA5BCCEDBDF9B817","7DD0416DB65047FDAA5BCCEDBDF9B817","0198be99-7adc-712e-8231-29f45387ae19","0198be8b-78cf-72d2-ba2b-1e62c78022e0","{""num_scrambled_semantic"":""8"",""num_scrambled_causal"":""4"",""num_scrambled_schematic"":""4"",""participantId"":""7DD0416DB65047FDAA5BCCEDBDF9B817"",""assignmentId"":""0198be99-7adc-712e-8231-29f45387ae19"",""projectId"":""0198be8b-78cf-72d2-ba2b-1e62c78022e0""}","https://test12345.live/?num_scrambled_semantic=8&num_scrambled_causal=4&num_scrambled_schematic=4&participantId=7DD0416DB65047FDAA5BCCEDBDF9B817&assignmentId=0198be99-7adc-712e-8231-29f45387ae19&projectId=0198be8b-78cf-72d2-ba2b-1e62c78022e0","7DD0416DB65047FDAA5BCCEDBDF9B817-2025-08-18-20-45-29","","null","","images/semantic_sequence/cat_care_semantic/cat_care_semantic_ten.png","null","",""
"","","","","","image-button-response","50","1178199","0.0-10.0-1.0-1.7","7DD0416DB65047FDAA5BCCEDBDF9B817","7DD0416DB65047FDAA5BCCEDBDF9B817","0198be99-7adc-712e-8231-29f45387ae19","0198be8b-78cf-72d2-ba2b-1e62c78022e0","{""num_scrambled_semantic"":""8"",""num_scrambled_causal"":""4"",""num_scrambled_schematic"":""4"",""participantId"":""7DD0416DB65047FDAA5BCCEDBDF9B817"",""assignmentId"":""0198be99-7adc-712e-8231-29f45387ae19"",""projectId"":""0198be8b-78cf-72d2-ba2b-1e62c78022e0""}","https://test12345.live/?num_scrambled_semantic=8&num_scrambled_causal=4&num_scrambled_schematic=4&participantId=7DD0416DB65047FDAA5BCCEDBDF9B817&assignmentId=0198be99-7adc-712e-8231-29f45387ae19&projectId=0198be8b-78cf-72d2-ba2b-1e62c78022e0","7DD0416DB65047FDAA5BCCEDBDF9B817-2025-08-18-20-45-29","","1712","","images/semantic_sequence/cat_care_semantic/cat_care_semantic_ten.png","0","",""
"","","","","","image-button-response","51","1180000","0.0-10.0-1.0-2.7","7DD0416DB65047FDAA5BCCEDBDF9B817","7DD0416DB65047FDAA5BCCEDBDF9B817","0198be99-7adc-712e-8231-29f45387ae19","0198be8b-78cf-72d2-ba2b-1e62c78022e0","{""num_scrambled_semantic"":""8"",""num_scrambled_causal"":""4"",""num_scrambled_schematic"":""4"",""participantId"":""7DD0416DB65047FDAA5BCCEDBDF9B817"",""assignmentId"":""0198be99-7adc-712e-8231-29f45387ae19"",""projectId"":""0198be8b-78cf-72d2-ba2b-1e62c78022e0""}","https://test12345.live/?num_scrambled_semantic=8&num_scrambled_causal=4&num_scrambled_schematic=4&participantId=7DD0416DB65047FDAA5BCCEDBDF9B817&assignmentId=0198be99-7adc-712e-8231-29f45387ae19&projectId=0198be8b-78cf-72d2-ba2b-1e62c78022e0","7DD0416DB65047FDAA5BCCEDBDF9B817-2025-08-18-20-45-29","","null","","[]","null","",""
"","","","","","image-button-response","52","1184503","0.0-10.0-1.0-0.8","7DD0416DB65047FDAA5BCCEDBDF9B817","7DD0416DB65047FDAA5BCCEDBDF9B817","0198be99-7adc-712e-8231-29f45387ae19","0198be8b-78cf-72d2-ba2b-1e62c78022e0","{""num_scrambled_semantic"":""8"",""num_scrambled_causal"":""4"",""num_scrambled_schematic"":""4"",""participantId"":""7DD0416DB65047FDAA5BCCEDBDF9B817"",""assignmentId"":""0198be99-7adc-712e-8231-29f45387ae19"",""projectId"":""0198be8b-78cf-72d2-ba2b-1e62c78022e0""}","https://test12345.live/?num_scrambled_semantic=8&num_scrambled_causal=4&num_scrambled_schematic=4&participantId=7DD0416DB65047FDAA5BCCEDBDF9B817&assignmentId=0198be99-7adc-712e-8231-29f45387ae19&projectId=0198be8b-78cf-72d2-ba2b-1e62c78022e0","7DD0416DB65047FDAA5BCCEDBDF9B817-2025-08-18-20-45-29","","null","","images/semantic_sequence/cat_care_semantic/cat_care_semantic_3.png","null","",""
"","","","","","image-button-response","53","1186263","0.0-10.0-1.0-1.8","7DD0416DB65047FDAA5BCCEDBDF9B817","7DD0416DB65047FDAA5BCCEDBDF9B817","0198be99-7adc-712e-8231-29f45387ae19","0198be8b-78cf-72d2-ba2b-1e62c78022e0","{""num_scrambled_semantic"":""8"",""num_scrambled_causal"":""4"",""num_scrambled_schematic"":""4"",""participantId"":""7DD0416DB65047FDAA5BCCEDBDF9B817"",""assignmentId"":""0198be99-7adc-712e-8231-29f45387ae19"",""projectId"":""0198be8b-78cf-72d2-ba2b-1e62c78022e0""}","https://test12345.live/?num_scrambled_semantic=8&num_scrambled_causal=4&num_scrambled_schematic=4&participantId=7DD0416DB65047FDAA5BCCEDBDF9B817&assignmentId=0198be99-7adc-712e-8231-29f45387ae19&projectId=0198be8b-78cf-72d2-ba2b-1e62c78022e0","7DD0416DB65047FDAA5BCCEDBDF9B817-2025-08-18-20-45-29","","1759","","images/semantic_sequence/cat_care_semantic/cat_care_semantic_3.png","0","",""
"","","","","","image-button-response","54","1188065","0.0-10.0-1.0-2.8","7DD0416DB65047FDAA5BCCEDBDF9B817","7DD0416DB65047FDAA5BCCEDBDF9B817","0198be99-7adc-712e-8231-29f45387ae19","0198be8b-78cf-72d2-ba2b-1e62c78022e0","{""num_scrambled_semantic"":""8"",""num_scrambled_causal"":""4"",""num_scrambled_schematic"":""4"",""participantId"":""7DD0416DB65047FDAA5BCCEDBDF9B817"",""assignmentId"":""0198be99-7adc-712e-8231-29f45387ae19"",""projectId"":""0198be8b-78cf-72d2-ba2b-1e62c78022e0""}","https://test12345.live/?num_scrambled_semantic=8&num_scrambled_causal=4&num_scrambled_schematic=4&participantId=7DD0416DB65047FDAA5BCCEDBDF9B817&assignmentId=0198be99-7adc-712e-8231-29f45387ae19&projectId=0198be8b-78cf-72d2-ba2b-1e62c78022e0","7DD0416DB65047FDAA5BCCEDBDF9B817-2025-08-18-20-45-29","","null","","[]","null","",""
"","","","","","image-button-response","55","1192566","0.0-10.0-1.0-0.9","7DD0416DB65047FDAA5BCCEDBDF9B817","7DD0416DB65047FDAA5BCCEDBDF9B817","0198be99-7adc-712e-8231-29f45387ae19","0198be8b-78cf-72d2-ba2b-1e62c78022e0","{""num_scrambled_semantic"":""8"",""num_scrambled_causal"":""4"",""num_scrambled_schematic"":""4"",""participantId"":""7DD0416DB65047FDAA5BCCEDBDF9B817"",""assignmentId"":""0198be99-7adc-712e-8231-29f45387ae19"",""projectId"":""0198be8b-78cf-72d2-ba2b-1e62c78022e0""}","https://test12345.live/?num_scrambled_semantic=8&num_scrambled_causal=4&num_scrambled_schematic=4&participantId=7DD0416DB65047FDAA5BCCEDBDF9B817&assignmentId=0198be99-7adc-712e-8231-29f45387ae19&projectId=0198be8b-78cf-72d2-ba2b-1e62c78022e0","7DD0416DB65047FDAA5BCCEDBDF9B817-2025-08-18-20-45-29","","null","","images/semantic_sequence/cat_care_semantic/cat_care_semantic_4.png","null","",""
"","","","","","image-button-response","56","1194190","0.0-10.0-1.0-1.9","7DD0416DB65047FDAA5BCCEDBDF9B817","7DD0416DB65047FDAA5BCCEDBDF9B817","0198be99-7adc-712e-8231-29f45387ae19","0198be8b-78cf-72d2-ba2b-1e62c78022e0","{""num_scrambled_semantic"":""8"",""num_scrambled_causal"":""4"",""num_scrambled_schematic"":""4"",""participantId"":""7DD0416DB65047FDAA5BCCEDBDF9B817"",""assignmentId"":""0198be99-7adc-712e-8231-29f45387ae19"",""projectId"":""0198be8b-78cf-72d2-ba2b-1e62c78022e0""}","https://test12345.live/?num_scrambled_semantic=8&num_scrambled_causal=4&num_scrambled_schematic=4&participantId=7DD0416DB65047FDAA5BCCEDBDF9B817&assignmentId=0198be99-7adc-712e-8231-29f45387ae19&projectId=0198be8b-78cf-72d2-ba2b-1e62c78022e0","7DD0416DB65047FDAA5BCCEDBDF9B817-2025-08-18-20-45-29","","1624","","images/semantic_sequence/cat_care_semantic/cat_care_semantic_4.png","0","",""
"","","","","","image-button-response","57","1195991","0.0-10.0-1.0-2.9","7DD0416DB65047FDAA5BCCEDBDF9B817","7DD0416DB65047FDAA5BCCEDBDF9B817","0198be99-7adc-712e-8231-29f45387ae19","0198be8b-78cf-72d2-ba2b-1e62c78022e0","{""num_scrambled_semantic"":""8"",""num_scrambled_causal"":""4"",""num_scrambled_schematic"":""4"",""participantId"":""7DD0416DB65047FDAA5BCCEDBDF9B817"",""assignmentId"":""0198be99-7adc-712e-8231-29f45387ae19"",""projectId"":""0198be8b-78cf-72d2-ba2b-1e62c78022e0""}","https://test12345.live/?num_scrambled_semantic=8&num_scrambled_causal=4&num_scrambled_schematic=4&participantId=7DD0416DB65047FDAA5BCCEDBDF9B817&assignmentId=0198be99-7adc-712e-8231-29f45387ae19&projectId=0198be8b-78cf-72d2-ba2b-1e62c78022e0","7DD0416DB65047FDAA5BCCEDBDF9B817-2025-08-18-20-45-29","","null","","[]","null","",""
"","","","","","html-audio-response","58","1327779","0.0-11.0","7DD0416DB65047FDAA5BCCEDBDF9B817","7DD0416DB65047FDAA5BCCEDBDF9B817","0198be99-7adc-712e-8231-29f45387ae19","0198be8b-78cf-72d2-ba2b-1e62c78022e0","{""num_scrambled_semantic"":""8"",""num_scrambled_causal"":""4"",""num_scrambled_schematic"":""4"",""participantId"":""7DD0416DB65047FDAA5BCCEDBDF9B817"",""assignmentId"":""0198be99-7adc-712e-8231-29f45387ae19"",""projectId"":""0198be8b-78cf-72d2-ba2b-1e62c78022e0""}","https://test12345.live/?num_scrambled_semantic=8&num_scrambled_causal=4&num_scrambled_schematic=4&participantId=7DD0416DB65047FDAA5BCCEDBDF9B817&assignmentId=0198be99-7adc-712e-8231-29f45387ae19&projectId=0198be8b-78cf-72d2-ba2b-1e62c78022e0","7DD0416DB65047FDAA5BCCEDBDF9B817-2025-08-18-20-45-29","","30321","","[""<span style=\""color: red; font-size: 24px\""> NOW RECORDING</span><p>Please say out loud all the images you saw, in the order of the story they create. Try to recall the sequence of events as they appeared in the story, not necessarily the order they were presented on the screen.</p>""]","","1","cat_care_semantic"
"","","","","","image-button-response","59","1333783","0.0-12.0-0.0","7DD0416DB65047FDAA5BCCEDBDF9B817","7DD0416DB65047FDAA5BCCEDBDF9B817","0198be99-7adc-712e-8231-29f45387ae19","0198be8b-78cf-72d2-ba2b-1e62c78022e0","{""num_scrambled_semantic"":""8"",""num_scrambled_causal"":""4"",""num_scrambled_schematic"":""4"",""participantId"":""7DD0416DB65047FDAA5BCCEDBDF9B817"",""assignmentId"":""0198be99-7adc-712e-8231-29f45387ae19"",""projectId"":""0198be8b-78cf-72d2-ba2b-1e62c78022e0""}","https://test12345.live/?num_scrambled_semantic=8&num_scrambled_causal=4&num_scrambled_schematic=4&participantId=7DD0416DB65047FDAA5BCCEDBDF9B817&assignmentId=0198be99-7adc-712e-8231-29f45387ae19&projectId=0198be8b-78cf-72d2-ba2b-1e62c78022e0","7DD0416DB65047FDAA5BCCEDBDF9B817-2025-08-18-20-45-29","","null","","images/causal_sequence/dog_causal/dog_causal_0.png","null","",""
"","","","","","image-button-response","60","1338285","0.0-12.0-1.0-0.0","7DD0416DB65047FDAA5BCCEDBDF9B817","7DD0416DB65047FDAA5BCCEDBDF9B817","0198be99-7adc-712e-8231-29f45387ae19","0198be8b-78cf-72d2-ba2b-1e62c78022e0","{""num_scrambled_semantic"":""8"",""num_scrambled_causal"":""4"",""num_scrambled_schematic"":""4"",""participantId"":""7DD0416DB65047FDAA5BCCEDBDF9B817"",""assignmentId"":""0198be99-7adc-712e-8231-29f45387ae19"",""projectId"":""0198be8b-78cf-72d2-ba2b-1e62c78022e0""}","https://test12345.live/?num_scrambled_semantic=8&num_scrambled_causal=4&num_scrambled_schematic=4&participantId=7DD0416DB65047FDAA5BCCEDBDF9B817&assignmentId=0198be99-7adc-712e-8231-29f45387ae19&projectId=0198be8b-78cf-72d2-ba2b-1e62c78022e0","7DD0416DB65047FDAA5BCCEDBDF9B817-2025-08-18-20-45-29","","null","","images/causal_sequence/dog_causal/dog_causal_4.png","null","",""
"","","","","","image-button-response","61","1339817","0.0-12.0-1.0-1.0","7DD0416DB65047FDAA5BCCEDBDF9B817","7DD0416DB65047FDAA5BCCEDBDF9B817","0198be99-7adc-712e-8231-29f45387ae19","0198be8b-78cf-72d2-ba2b-1e62c78022e0","{""num_scrambled_semantic"":""8"",""num_scrambled_causal"":""4"",""num_scrambled_schematic"":""4"",""participantId"":""7DD0416DB65047FDAA5BCCEDBDF9B817"",""assignmentId"":""0198be99-7adc-712e-8231-29f45387ae19"",""projectId"":""0198be8b-78cf-72d2-ba2b-1e62c78022e0""}","https://test12345.live/?num_scrambled_semantic=8&num_scrambled_causal=4&num_scrambled_schematic=4&participantId=7DD0416DB65047FDAA5BCCEDBDF9B817&assignmentId=0198be99-7adc-712e-8231-29f45387ae19&projectId=0198be8b-78cf-72d2-ba2b-1e62c78022e0","7DD0416DB65047FDAA5BCCEDBDF9B817-2025-08-18-20-45-29","","1530","","images/causal_sequence/dog_causal/dog_causal_4.png","0","",""
"","","","","","image-button-response","62","1341618","0.0-12.0-1.0-2.0","7DD0416DB65047FDAA5BCCEDBDF9B817","7DD0416DB65047FDAA5BCCEDBDF9B817","0198be99-7adc-712e-8231-29f45387ae19","0198be8b-78cf-72d2-ba2b-1e62c78022e0","{""num_scrambled_semantic"":""8"",""num_scrambled_causal"":""4"",""num_scrambled_schematic"":""4"",""participantId"":""7DD0416DB65047FDAA5BCCEDBDF9B817"",""assignmentId"":""0198be99-7adc-712e-8231-29f45387ae19"",""projectId"":""0198be8b-78cf-72d2-ba2b-1e62c78022e0""}","https://test12345.live/?num_scrambled_semantic=8&num_scrambled_causal=4&num_scrambled_schematic=4&participantId=7DD0416DB65047FDAA5BCCEDBDF9B817&assignmentId=0198be99-7adc-712e-8231-29f45387ae19&projectId=0198be8b-78cf-72d2-ba2b-1e62c78022e0","7DD0416DB65047FDAA5BCCEDBDF9B817-2025-08-18-20-45-29","","null","","[]","null","",""
"","","","","","image-button-response","63","1346118","0.0-12.0-1.0-0.1","7DD0416DB65047FDAA5BCCEDBDF9B817","7DD0416DB65047FDAA5BCCEDBDF9B817","0198be99-7adc-712e-8231-29f45387ae19","0198be8b-78cf-72d2-ba2b-1e62c78022e0","{""num_scrambled_semantic"":""8"",""num_scrambled_causal"":""4"",""num_scrambled_schematic"":""4"",""participantId"":""7DD0416DB65047FDAA5BCCEDBDF9B817"",""assignmentId"":""0198be99-7adc-712e-8231-29f45387ae19"",""projectId"":""0198be8b-78cf-72d2-ba2b-1e62c78022e0""}","https://test12345.live/?num_scrambled_semantic=8&num_scrambled_causal=4&num_scrambled_schematic=4&participantId=7DD0416DB65047FDAA5BCCEDBDF9B817&assignmentId=0198be99-7adc-712e-8231-29f45387ae19&projectId=0198be8b-78cf-72d2-ba2b-1e62c78022e0","7DD0416DB65047FDAA5BCCEDBDF9B817-2025-08-18-20-45-29","","null","","images/causal_sequence/dog_causal/dog_causal_7.png","null","",""
"","","","","","image-button-response","64","1348087","0.0-12.0-1.0-1.1","7DD0416DB65047FDAA5BCCEDBDF9B817","7DD0416DB65047FDAA5BCCEDBDF9B817","0198be99-7adc-712e-8231-29f45387ae19","0198be8b-78cf-72d2-ba2b-1e62c78022e0","{""num_scrambled_semantic"":""8"",""num_scrambled_causal"":""4"",""num_scrambled_schematic"":""4"",""participantId"":""7DD0416DB65047FDAA5BCCEDBDF9B817"",""assignmentId"":""0198be99-7adc-712e-8231-29f45387ae19"",""projectId"":""0198be8b-78cf-72d2-ba2b-1e62c78022e0""}","https://test12345.live/?num_scrambled_semantic=8&num_scrambled_causal=4&num_scrambled_schematic=4&participantId=7DD0416DB65047FDAA5BCCEDBDF9B817&assignmentId=0198be99-7adc-712e-8231-29f45387ae19&projectId=0198be8b-78cf-72d2-ba2b-1e62c78022e0","7DD0416DB65047FDAA5BCCEDBDF9B817-2025-08-18-20-45-29","","1968","","images/causal_sequence/dog_causal/dog_causal_7.png","0","",""
"","","","","","image-button-response","65","1349888","0.0-12.0-1.0-2.1","7DD0416DB65047FDAA5BCCEDBDF9B817","7DD0416DB65047FDAA5BCCEDBDF9B817","0198be99-7adc-712e-8231-29f45387ae19","0198be8b-78cf-72d2-ba2b-1e62c78022e0","{""num_scrambled_semantic"":""8"",""num_scrambled_causal"":""4"",""num_scrambled_schematic"":""4"",""participantId"":""7DD0416DB65047FDAA5BCCEDBDF9B817"",""assignmentId"":""0198be99-7adc-712e-8231-29f45387ae19"",""projectId"":""0198be8b-78cf-72d2-ba2b-1e62c78022e0""}","https://test12345.live/?num_scrambled_semantic=8&num_scrambled_causal=4&num_scrambled_schematic=4&participantId=7DD0416DB65047FDAA5BCCEDBDF9B817&assignmentId=0198be99-7adc-712e-8231-29f45387ae19&projectId=0198be8b-78cf-72d2-ba2b-1e62c78022e0","7DD0416DB65047FDAA5BCCEDBDF9B817-2025-08-18-20-45-29","","null","","[]","null","",""
"","","","","","image-button-response","66","1354389","0.0-12.0-1.0-0.2","7DD0416DB65047FDAA5BCCEDBDF9B817","7DD0416DB65047FDAA5BCCEDBDF9B817","0198be99-7adc-712e-8231-29f45387ae19","0198be8b-78cf-72d2-ba2b-1e62c78022e0","{""num_scrambled_semantic"":""8"",""num_scrambled_causal"":""4"",""num_scrambled_schematic"":""4"",""participantId"":""7DD0416DB65047FDAA5BCCEDBDF9B817"",""assignmentId"":""0198be99-7adc-712e-8231-29f45387ae19"",""projectId"":""0198be8b-78cf-72d2-ba2b-1e62c78022e0""}","https://test12345.live/?num_scrambled_semantic=8&num_scrambled_causal=4&num_scrambled_schematic=4&participantId=7DD0416DB65047FDAA5BCCEDBDF9B817&assignmentId=0198be99-7adc-712e-8231-29f45387ae19&projectId=0198be8b-78cf-72d2-ba2b-1e62c78022e0","7DD0416DB65047FDAA5BCCEDBDF9B817-2025-08-18-20-45-29","","null","","images/causal_sequence/dog_causal/dog_causal_2.png","null","",""
"","","","","","image-button-response","67","1357701","0.0-12.0-1.0-1.2","7DD0416DB65047FDAA5BCCEDBDF9B817","7DD0416DB65047FDAA5BCCEDBDF9B817","0198be99-7adc-712e-8231-29f45387ae19","0198be8b-78cf-72d2-ba2b-1e62c78022e0","{""num_scrambled_semantic"":""8"",""num_scrambled_causal"":""4"",""num_scrambled_schematic"":""4"",""participantId"":""7DD0416DB65047FDAA5BCCEDBDF9B817"",""assignmentId"":""0198be99-7adc-712e-8231-29f45387ae19"",""projectId"":""0198be8b-78cf-72d2-ba2b-1e62c78022e0""}","https://test12345.live/?num_scrambled_semantic=8&num_scrambled_causal=4&num_scrambled_schematic=4&participantId=7DD0416DB65047FDAA5BCCEDBDF9B817&assignmentId=0198be99-7adc-712e-8231-29f45387ae19&projectId=0198be8b-78cf-72d2-ba2b-1e62c78022e0","7DD0416DB65047FDAA5BCCEDBDF9B817-2025-08-18-20-45-29","","3311","","images/causal_sequence/dog_causal/dog_causal_2.png","0","",""
"","","","","","image-button-response","68","1359503","0.0-12.0-1.0-2.2","7DD0416DB65047FDAA5BCCEDBDF9B817","7DD0416DB65047FDAA5BCCEDBDF9B817","0198be99-7adc-712e-8231-29f45387ae19","0198be8b-78cf-72d2-ba2b-1e62c78022e0","{""num_scrambled_semantic"":""8"",""num_scrambled_causal"":""4"",""num_scrambled_schematic"":""4"",""participantId"":""7DD0416DB65047FDAA5BCCEDBDF9B817"",""assignmentId"":""0198be99-7adc-712e-8231-29f45387ae19"",""projectId"":""0198be8b-78cf-72d2-ba2b-1e62c78022e0""}","https://test12345.live/?num_scrambled_semantic=8&num_scrambled_causal=4&num_scrambled_schematic=4&participantId=7DD0416DB65047FDAA5BCCEDBDF9B817&assignmentId=0198be99-7adc-712e-8231-29f45387ae19&projectId=0198be8b-78cf-72d2-ba2b-1e62c78022e0","7DD0416DB65047FDAA5BCCEDBDF9B817-2025-08-18-20-45-29","","null","","[]","null","",""
"","","","","","image-button-response","69","1364005","0.0-12.0-1.0-0.3","7DD0416DB65047FDAA5BCCEDBDF9B817","7DD0416DB65047FDAA5BCCEDBDF9B817","0198be99-7adc-712e-8231-29f45387ae19","0198be8b-78cf-72d2-ba2b-1e62c78022e0","{""num_scrambled_semantic"":""8"",""num_scrambled_causal"":""4"",""num_scrambled_schematic"":""4"",""participantId"":""7DD0416DB65047FDAA5BCCEDBDF9B817"",""assignmentId"":""0198be99-7adc-712e-8231-29f45387ae19"",""projectId"":""0198be8b-78cf-72d2-ba2b-1e62c78022e0""}","https://test12345.live/?num_scrambled_semantic=8&num_scrambled_causal=4&num_scrambled_schematic=4&participantId=7DD0416DB65047FDAA5BCCEDBDF9B817&assignmentId=0198be99-7adc-712e-8231-29f45387ae19&projectId=0198be8b-78cf-72d2-ba2b-1e62c78022e0","7DD0416DB65047FDAA5BCCEDBDF9B817-2025-08-18-20-45-29","","null","","images/causal_sequence/dog_causal/dog_causal_5.png","null","",""
"","","","","","image-button-response","70","1366097","0.0-12.0-1.0-1.3","7DD0416DB65047FDAA5BCCEDBDF9B817","7DD0416DB65047FDAA5BCCEDBDF9B817","0198be99-7adc-712e-8231-29f45387ae19","0198be8b-78cf-72d2-ba2b-1e62c78022e0","{""num_scrambled_semantic"":""8"",""num_scrambled_causal"":""4"",""num_scrambled_schematic"":""4"",""participantId"":""7DD0416DB65047FDAA5BCCEDBDF9B817"",""assignmentId"":""0198be99-7adc-712e-8231-29f45387ae19"",""projectId"":""0198be8b-78cf-72d2-ba2b-1e62c78022e0""}","https://test12345.live/?num_scrambled_semantic=8&num_scrambled_causal=4&num_scrambled_schematic=4&participantId=7DD0416DB65047FDAA5BCCEDBDF9B817&assignmentId=0198be99-7adc-712e-8231-29f45387ae19&projectId=0198be8b-78cf-72d2-ba2b-1e62c78022e0","7DD0416DB65047FDAA5BCCEDBDF9B817-2025-08-18-20-45-29","","2091","","images/causal_sequence/dog_causal/dog_causal_5.png","0","",""
"","","","","","image-button-response","71","1367899","0.0-12.0-1.0-2.3","7DD0416DB65047FDAA5BCCEDBDF9B817","7DD0416DB65047FDAA5BCCEDBDF9B817","0198be99-7adc-712e-8231-29f45387ae19","0198be8b-78cf-72d2-ba2b-1e62c78022e0","{""num_scrambled_semantic"":""8"",""num_scrambled_causal"":""4"",""num_scrambled_schematic"":""4"",""participantId"":""7DD0416DB65047FDAA5BCCEDBDF9B817"",""assignmentId"":""0198be99-7adc-712e-8231-29f45387ae19"",""projectId"":""0198be8b-78cf-72d2-ba2b-1e62c78022e0""}","https://test12345.live/?num_scrambled_semantic=8&num_scrambled_causal=4&num_scrambled_schematic=4&participantId=7DD0416DB65047FDAA5BCCEDBDF9B817&assignmentId=0198be99-7adc-712e-8231-29f45387ae19&projectId=0198be8b-78cf-72d2-ba2b-1e62c78022e0","7DD0416DB65047FDAA5BCCEDBDF9B817-2025-08-18-20-45-29","","null","","[]","null","",""
"","","","","","image-button-response","72","1372399","0.0-12.0-1.0-0.4","7DD0416DB65047FDAA5BCCEDBDF9B817","7DD0416DB65047FDAA5BCCEDBDF9B817","0198be99-7adc-712e-8231-29f45387ae19","0198be8b-78cf-72d2-ba2b-1e62c78022e0","{""num_scrambled_semantic"":""8"",""num_scrambled_causal"":""4"",""num_scrambled_schematic"":""4"",""participantId"":""7DD0416DB65047FDAA5BCCEDBDF9B817"",""assignmentId"":""0198be99-7adc-712e-8231-29f45387ae19"",""projectId"":""0198be8b-78cf-72d2-ba2b-1e62c78022e0""}","https://test12345.live/?num_scrambled_semantic=8&num_scrambled_causal=4&num_scrambled_schematic=4&participantId=7DD0416DB65047FDAA5BCCEDBDF9B817&assignmentId=0198be99-7adc-712e-8231-29f45387ae19&projectId=0198be8b-78cf-72d2-ba2b-1e62c78022e0","7DD0416DB65047FDAA5BCCEDBDF9B817-2025-08-18-20-45-29","","null","","images/causal_sequence/dog_causal/dog_causal_9.png","null","",""
"","","","","","image-button-response","73","1374613","0.0-12.0-1.0-1.4","7DD0416DB65047FDAA5BCCEDBDF9B817","7DD0416DB65047FDAA5BCCEDBDF9B817","0198be99-7adc-712e-8231-29f45387ae19","0198be8b-78cf-72d2-ba2b-1e62c78022e0","{""num_scrambled_semantic"":""8"",""num_scrambled_causal"":""4"",""num_scrambled_schematic"":""4"",""participantId"":""7DD0416DB65047FDAA5BCCEDBDF9B817"",""assignmentId"":""0198be99-7adc-712e-8231-29f45387ae19"",""projectId"":""0198be8b-78cf-72d2-ba2b-1e62c78022e0""}","https://test12345.live/?num_scrambled_semantic=8&num_scrambled_causal=4&num_scrambled_schematic=4&participantId=7DD0416DB65047FDAA5BCCEDBDF9B817&assignmentId=0198be99-7adc-712e-8231-29f45387ae19&projectId=0198be8b-78cf-72d2-ba2b-1e62c78022e0","7DD0416DB65047FDAA5BCCEDBDF9B817-2025-08-18-20-45-29","","2213","","images/causal_sequence/dog_causal/dog_causal_9.png","0","",""
"","","","","","image-button-response","74","1376414","0.0-12.0-1.0-2.4","7DD0416DB65047FDAA5BCCEDBDF9B817","7DD0416DB65047FDAA5BCCEDBDF9B817","0198be99-7adc-712e-8231-29f45387ae19","0198be8b-78cf-72d2-ba2b-1e62c78022e0","{""num_scrambled_semantic"":""8"",""num_scrambled_causal"":""4"",""num_scrambled_schematic"":""4"",""participantId"":""7DD0416DB65047FDAA5BCCEDBDF9B817"",""assignmentId"":""0198be99-7adc-712e-8231-29f45387ae19"",""projectId"":""0198be8b-78cf-72d2-ba2b-1e62c78022e0""}","https://test12345.live/?num_scrambled_semantic=8&num_scrambled_causal=4&num_scrambled_schematic=4&participantId=7DD0416DB65047FDAA5BCCEDBDF9B817&assignmentId=0198be99-7adc-712e-8231-29f45387ae19&projectId=0198be8b-78cf-72d2-ba2b-1e62c78022e0","7DD0416DB65047FDAA5BCCEDBDF9B817-2025-08-18-20-45-29","","null","","[]","null","",""
"","","","","","image-button-response","75","1380916","0.0-12.0-1.0-0.5","7DD0416DB65047FDAA5BCCEDBDF9B817","7DD0416DB65047FDAA5BCCEDBDF9B817","0198be99-7adc-712e-8231-29f45387ae19","0198be8b-78cf-72d2-ba2b-1e62c78022e0","{""num_scrambled_semantic"":""8"",""num_scrambled_causal"":""4"",""num_scrambled_schematic"":""4"",""participantId"":""7DD0416DB65047FDAA5BCCEDBDF9B817"",""assignmentId"":""0198be99-7adc-712e-8231-29f45387ae19"",""projectId"":""0198be8b-78cf-72d2-ba2b-1e62c78022e0""}","https://test12345.live/?num_scrambled_semantic=8&num_scrambled_causal=4&num_scrambled_schematic=4&participantId=7DD0416DB65047FDAA5BCCEDBDF9B817&assignmentId=0198be99-7adc-712e-8231-29f45387ae19&projectId=0198be8b-78cf-72d2-ba2b-1e62c78022e0","7DD0416DB65047FDAA5BCCEDBDF9B817-2025-08-18-20-45-29","","null","","images/causal_sequence/dog_causal/dog_causal_8.png","null","",""
"","","","","","image-button-response","76","1382785","0.0-12.0-1.0-1.5","7DD0416DB65047FDAA5BCCEDBDF9B817","7DD0416DB65047FDAA5BCCEDBDF9B817","0198be99-7adc-712e-8231-29f45387ae19","0198be8b-78cf-72d2-ba2b-1e62c78022e0","{""num_scrambled_semantic"":""8"",""num_scrambled_causal"":""4"",""num_scrambled_schematic"":""4"",""participantId"":""7DD0416DB65047FDAA5BCCEDBDF9B817"",""assignmentId"":""0198be99-7adc-712e-8231-29f45387ae19"",""projectId"":""0198be8b-78cf-72d2-ba2b-1e62c78022e0""}","https://test12345.live/?num_scrambled_semantic=8&num_scrambled_causal=4&num_scrambled_schematic=4&participantId=7DD0416DB65047FDAA5BCCEDBDF9B817&assignmentId=0198be99-7adc-712e-8231-29f45387ae19&projectId=0198be8b-78cf-72d2-ba2b-1e62c78022e0","7DD0416DB65047FDAA5BCCEDBDF9B817-2025-08-18-20-45-29","","1869","","images/causal_sequence/dog_causal/dog_causal_8.png","0","",""
"","","","","","image-button-response","77","1384587","0.0-12.0-1.0-2.5","7DD0416DB65047FDAA5BCCEDBDF9B817","7DD0416DB65047FDAA5BCCEDBDF9B817","0198be99-7adc-712e-8231-29f45387ae19","0198be8b-78cf-72d2-ba2b-1e62c78022e0","{""num_scrambled_semantic"":""8"",""num_scrambled_causal"":""4"",""num_scrambled_schematic"":""4"",""participantId"":""7DD0416DB65047FDAA5BCCEDBDF9B817"",""assignmentId"":""0198be99-7adc-712e-8231-29f45387ae19"",""projectId"":""0198be8b-78cf-72d2-ba2b-1e62c78022e0""}","https://test12345.live/?num_scrambled_semantic=8&num_scrambled_causal=4&num_scrambled_schematic=4&participantId=7DD0416DB65047FDAA5BCCEDBDF9B817&assignmentId=0198be99-7adc-712e-8231-29f45387ae19&projectId=0198be8b-78cf-72d2-ba2b-1e62c78022e0","7DD0416DB65047FDAA5BCCEDBDF9B817-2025-08-18-20-45-29","","null","","[]","null","",""
"","","","","","image-button-response","78","1389088","0.0-12.0-1.0-0.6","7DD0416DB65047FDAA5BCCEDBDF9B817","7DD0416DB65047FDAA5BCCEDBDF9B817","0198be99-7adc-712e-8231-29f45387ae19","0198be8b-78cf-72d2-ba2b-1e62c78022e0","{""num_scrambled_semantic"":""8"",""num_scrambled_causal"":""4"",""num_scrambled_schematic"":""4"",""participantId"":""7DD0416DB65047FDAA5BCCEDBDF9B817"",""assignmentId"":""0198be99-7adc-712e-8231-29f45387ae19"",""projectId"":""0198be8b-78cf-72d2-ba2b-1e62c78022e0""}","https://test12345.live/?num_scrambled_semantic=8&num_scrambled_causal=4&num_scrambled_schematic=4&participantId=7DD0416DB65047FDAA5BCCEDBDF9B817&assignmentId=0198be99-7adc-712e-8231-29f45387ae19&projectId=0198be8b-78cf-72d2-ba2b-1e62c78022e0","7DD0416DB65047FDAA5BCCEDBDF9B817-2025-08-18-20-45-29","","null","","images/causal_sequence/dog_causal/dog_causal_3.png","null","",""
"","","","","","image-button-response","79","1390843","0.0-12.0-1.0-1.6","7DD0416DB65047FDAA5BCCEDBDF9B817","7DD0416DB65047FDAA5BCCEDBDF9B817","0198be99-7adc-712e-8231-29f45387ae19","0198be8b-78cf-72d2-ba2b-1e62c78022e0","{""num_scrambled_semantic"":""8"",""num_scrambled_causal"":""4"",""num_scrambled_schematic"":""4"",""participantId"":""7DD0416DB65047FDAA5BCCEDBDF9B817"",""assignmentId"":""0198be99-7adc-712e-8231-29f45387ae19"",""projectId"":""0198be8b-78cf-72d2-ba2b-1e62c78022e0""}","https://test12345.live/?num_scrambled_semantic=8&num_scrambled_causal=4&num_scrambled_schematic=4&participantId=7DD0416DB65047FDAA5BCCEDBDF9B817&assignmentId=0198be99-7adc-712e-8231-29f45387ae19&projectId=0198be8b-78cf-72d2-ba2b-1e62c78022e0","7DD0416DB65047FDAA5BCCEDBDF9B817-2025-08-18-20-45-29","","1754","","images/causal_sequence/dog_causal/dog_causal_3.png","0","",""
"","","","","","image-button-response","80","1392644","0.0-12.0-1.0-2.6","7DD0416DB65047FDAA5BCCEDBDF9B817","7DD0416DB65047FDAA5BCCEDBDF9B817","0198be99-7adc-712e-8231-29f45387ae19","0198be8b-78cf-72d2-ba2b-1e62c78022e0","{""num_scrambled_semantic"":""8"",""num_scrambled_causal"":""4"",""num_scrambled_schematic"":""4"",""participantId"":""7DD0416DB65047FDAA5BCCEDBDF9B817"",""assignmentId"":""0198be99-7adc-712e-8231-29f45387ae19"",""projectId"":""0198be8b-78cf-72d2-ba2b-1e62c78022e0""}","https://test12345.live/?num_scrambled_semantic=8&num_scrambled_causal=4&num_scrambled_schematic=4&participantId=7DD0416DB65047FDAA5BCCEDBDF9B817&assignmentId=0198be99-7adc-712e-8231-29f45387ae19&projectId=0198be8b-78cf-72d2-ba2b-1e62c78022e0","7DD0416DB65047FDAA5BCCEDBDF9B817-2025-08-18-20-45-29","","null","","[]","null","",""
"","","","","","image-button-response","81","1397145","0.0-12.0-1.0-0.7","7DD0416DB65047FDAA5BCCEDBDF9B817","7DD0416DB65047FDAA5BCCEDBDF9B817","0198be99-7adc-712e-8231-29f45387ae19","0198be8b-78cf-72d2-ba2b-1e62c78022e0","{""num_scrambled_semantic"":""8"",""num_scrambled_causal"":""4"",""num_scrambled_schematic"":""4"",""participantId"":""7DD0416DB65047FDAA5BCCEDBDF9B817"",""assignmentId"":""0198be99-7adc-712e-8231-29f45387ae19"",""projectId"":""0198be8b-78cf-72d2-ba2b-1e62c78022e0""}","https://test12345.live/?num_scrambled_semantic=8&num_scrambled_causal=4&num_scrambled_schematic=4&participantId=7DD0416DB65047FDAA5BCCEDBDF9B817&assignmentId=0198be99-7adc-712e-8231-29f45387ae19&projectId=0198be8b-78cf-72d2-ba2b-1e62c78022e0","7DD0416DB65047FDAA5BCCEDBDF9B817-2025-08-18-20-45-29","","null","","images/causal_sequence/dog_causal/dog_causal_ten.png","null","",""
"","","","","","image-button-response","82","1399276","0.0-12.0-1.0-1.7","7DD0416DB65047FDAA5BCCEDBDF9B817","7DD0416DB65047FDAA5BCCEDBDF9B817","0198be99-7adc-712e-8231-29f45387ae19","0198be8b-78cf-72d2-ba2b-1e62c78022e0","{""num_scrambled_semantic"":""8"",""num_scrambled_causal"":""4"",""num_scrambled_schematic"":""4"",""participantId"":""7DD0416DB65047FDAA5BCCEDBDF9B817"",""assignmentId"":""0198be99-7adc-712e-8231-29f45387ae19"",""projectId"":""0198be8b-78cf-72d2-ba2b-1e62c78022e0""}","https://test12345.live/?num_scrambled_semantic=8&num_scrambled_causal=4&num_scrambled_schematic=4&participantId=7DD0416DB65047FDAA5BCCEDBDF9B817&assignmentId=0198be99-7adc-712e-8231-29f45387ae19&projectId=0198be8b-78cf-72d2-ba2b-1e62c78022e0","7DD0416DB65047FDAA5BCCEDBDF9B817-2025-08-18-20-45-29","","2130","","images/causal_sequence/dog_causal/dog_causal_ten.png","0","",""
"","","","","","image-button-response","83","1401078","0.0-12.0-1.0-2.7","7DD0416DB65047FDAA5BCCEDBDF9B817","7DD0416DB65047FDAA5BCCEDBDF9B817","0198be99-7adc-712e-8231-29f45387ae19","0198be8b-78cf-72d2-ba2b-1e62c78022e0","{""num_scrambled_semantic"":""8"",""num_scrambled_causal"":""4"",""num_scrambled_schematic"":""4"",""participantId"":""7DD0416DB65047FDAA5BCCEDBDF9B817"",""assignmentId"":""0198be99-7adc-712e-8231-29f45387ae19"",""projectId"":""0198be8b-78cf-72d2-ba2b-1e62c78022e0""}","https://test12345.live/?num_scrambled_semantic=8&num_scrambled_causal=4&num_scrambled_schematic=4&participantId=7DD0416DB65047FDAA5BCCEDBDF9B817&assignmentId=0198be99-7adc-712e-8231-29f45387ae19&projectId=0198be8b-78cf-72d2-ba2b-1e62c78022e0","7DD0416DB65047FDAA5BCCEDBDF9B817-2025-08-18-20-45-29","","null","","[]","null","",""
"","","","","","image-button-response","84","1405579","0.0-12.0-1.0-0.8","7DD0416DB65047FDAA5BCCEDBDF9B817","7DD0416DB65047FDAA5BCCEDBDF9B817","0198be99-7adc-712e-8231-29f45387ae19","0198be8b-78cf-72d2-ba2b-1e62c78022e0","{""num_scrambled_semantic"":""8"",""num_scrambled_causal"":""4"",""num_scrambled_schematic"":""4"",""participantId"":""7DD0416DB65047FDAA5BCCEDBDF9B817"",""assignmentId"":""0198be99-7adc-712e-8231-29f45387ae19"",""projectId"":""0198be8b-78cf-72d2-ba2b-1e62c78022e0""}","https://test12345.live/?num_scrambled_semantic=8&num_scrambled_causal=4&num_scrambled_schematic=4&participantId=7DD0416DB65047FDAA5BCCEDBDF9B817&assignmentId=0198be99-7adc-712e-8231-29f45387ae19&projectId=0198be8b-78cf-72d2-ba2b-1e62c78022e0","7DD0416DB65047FDAA5BCCEDBDF9B817-2025-08-18-20-45-29","","null","","images/causal_sequence/dog_causal/dog_causal_1.png","null","",""
"","","","","","image-button-response","85","1407578","0.0-12.0-1.0-1.8","7DD0416DB65047FDAA5BCCEDBDF9B817","7DD0416DB65047FDAA5BCCEDBDF9B817","0198be99-7adc-712e-8231-29f45387ae19","0198be8b-78cf-72d2-ba2b-1e62c78022e0","{""num_scrambled_semantic"":""8"",""num_scrambled_causal"":""4"",""num_scrambled_schematic"":""4"",""participantId"":""7DD0416DB65047FDAA5BCCEDBDF9B817"",""assignmentId"":""0198be99-7adc-712e-8231-29f45387ae19"",""projectId"":""0198be8b-78cf-72d2-ba2b-1e62c78022e0""}","https://test12345.live/?num_scrambled_semantic=8&num_scrambled_causal=4&num_scrambled_schematic=4&participantId=7DD0416DB65047FDAA5BCCEDBDF9B817&assignmentId=0198be99-7adc-712e-8231-29f45387ae19&projectId=0198be8b-78cf-72d2-ba2b-1e62c78022e0","7DD0416DB65047FDAA5BCCEDBDF9B817-2025-08-18-20-45-29","","1998","","images/causal_sequence/dog_causal/dog_causal_1.png","0","",""
"","","","","","image-button-response","86","1409379","0.0-12.0-1.0-2.8","7DD0416DB65047FDAA5BCCEDBDF9B817","7DD0416DB65047FDAA5BCCEDBDF9B817","0198be99-7adc-712e-8231-29f45387ae19","0198be8b-78cf-72d2-ba2b-1e62c78022e0","{""num_scrambled_semantic"":""8"",""num_scrambled_causal"":""4"",""num_scrambled_schematic"":""4"",""participantId"":""7DD0416DB65047FDAA5BCCEDBDF9B817"",""assignmentId"":""0198be99-7adc-712e-8231-29f45387ae19"",""projectId"":""0198be8b-78cf-72d2-ba2b-1e62c78022e0""}","https://test12345.live/?num_scrambled_semantic=8&num_scrambled_causal=4&num_scrambled_schematic=4&participantId=7DD0416DB65047FDAA5BCCEDBDF9B817&assignmentId=0198be99-7adc-712e-8231-29f45387ae19&projectId=0198be8b-78cf-72d2-ba2b-1e62c78022e0","7DD0416DB65047FDAA5BCCEDBDF9B817-2025-08-18-20-45-29","","null","","[]","null","",""
"","","","","","image-button-response","87","1413880","0.0-12.0-1.0-0.9","7DD0416DB65047FDAA5BCCEDBDF9B817","7DD0416DB65047FDAA5BCCEDBDF9B817","0198be99-7adc-712e-8231-29f45387ae19","0198be8b-78cf-72d2-ba2b-1e62c78022e0","{""num_scrambled_semantic"":""8"",""num_scrambled_causal"":""4"",""num_scrambled_schematic"":""4"",""participantId"":""7DD0416DB65047FDAA5BCCEDBDF9B817"",""assignmentId"":""0198be99-7adc-712e-8231-29f45387ae19"",""projectId"":""0198be8b-78cf-72d2-ba2b-1e62c78022e0""}","https://test12345.live/?num_scrambled_semantic=8&num_scrambled_causal=4&num_scrambled_schematic=4&participantId=7DD0416DB65047FDAA5BCCEDBDF9B817&assignmentId=0198be99-7adc-712e-8231-29f45387ae19&projectId=0198be8b-78cf-72d2-ba2b-1e62c78022e0","7DD0416DB65047FDAA5BCCEDBDF9B817-2025-08-18-20-45-29","","null","","images/causal_sequence/dog_causal/dog_causal_6.png","null","",""
"","","","","","image-button-response","88","1416675","0.0-12.0-1.0-1.9","7DD0416DB65047FDAA5BCCEDBDF9B817","7DD0416DB65047FDAA5BCCEDBDF9B817","0198be99-7adc-712e-8231-29f45387ae19","0198be8b-78cf-72d2-ba2b-1e62c78022e0","{""num_scrambled_semantic"":""8"",""num_scrambled_causal"":""4"",""num_scrambled_schematic"":""4"",""participantId"":""7DD0416DB65047FDAA5BCCEDBDF9B817"",""assignmentId"":""0198be99-7adc-712e-8231-29f45387ae19"",""projectId"":""0198be8b-78cf-72d2-ba2b-1e62c78022e0""}","https://test12345.live/?num_scrambled_semantic=8&num_scrambled_causal=4&num_scrambled_schematic=4&participantId=7DD0416DB65047FDAA5BCCEDBDF9B817&assignmentId=0198be99-7adc-712e-8231-29f45387ae19&projectId=0198be8b-78cf-72d2-ba2b-1e62c78022e0","7DD0416DB65047FDAA5BCCEDBDF9B817-2025-08-18-20-45-29","","2794","","images/causal_sequence/dog_causal/dog_causal_6.png","0","",""
"","","","","","image-button-response","89","1418476","0.0-12.0-1.0-2.9","7DD0416DB65047FDAA5BCCEDBDF9B817","7DD0416DB65047FDAA5BCCEDBDF9B817","0198be99-7adc-712e-8231-29f45387ae19","0198be8b-78cf-72d2-ba2b-1e62c78022e0","{""num_scrambled_semantic"":""8"",""num_scrambled_causal"":""4"",""num_scrambled_schematic"":""4"",""participantId"":""7DD0416DB65047FDAA5BCCEDBDF9B817"",""assignmentId"":""0198be99-7adc-712e-8231-29f45387ae19"",""projectId"":""0198be8b-78cf-72d2-ba2b-1e62c78022e0""}","https://test12345.live/?num_scrambled_semantic=8&num_scrambled_causal=4&num_scrambled_schematic=4&participantId=7DD0416DB65047FDAA5BCCEDBDF9B817&assignmentId=0198be99-7adc-712e-8231-29f45387ae19&projectId=0198be8b-78cf-72d2-ba2b-1e62c78022e0","7DD0416DB65047FDAA5BCCEDBDF9B817-2025-08-18-20-45-29","","null","","[]","null","",""
"","","","","","html-audio-response","90","1632734","0.0-13.0","7DD0416DB65047FDAA5BCCEDBDF9B817","7DD0416DB65047FDAA5BCCEDBDF9B817","0198be99-7adc-712e-8231-29f45387ae19","0198be8b-78cf-72d2-ba2b-1e62c78022e0","{""num_scrambled_semantic"":""8"",""num_scrambled_causal"":""4"",""num_scrambled_schematic"":""4"",""participantId"":""7DD0416DB65047FDAA5BCCEDBDF9B817"",""assignmentId"":""0198be99-7adc-712e-8231-29f45387ae19"",""projectId"":""0198be8b-78cf-72d2-ba2b-1e62c78022e0""}","https://test12345.live/?num_scrambled_semantic=8&num_scrambled_causal=4&num_scrambled_schematic=4&participantId=7DD0416DB65047FDAA5BCCEDBDF9B817&assignmentId=0198be99-7adc-712e-8231-29f45387ae19&projectId=0198be8b-78cf-72d2-ba2b-1e62c78022e0","7DD0416DB65047FDAA5BCCEDBDF9B817-2025-08-18-20-45-29","","4034","","[""<span style=\""color: red; font-size: 24px\""> NOW RECORDING</span><p>Please say out loud all the images you saw, in the order of the story they create. Try to recall the sequence of events as they appeared in the story, not necessarily the order they were presented on the screen.</p>""]","","3","dog_causal"
"","","","","","image-button-response","91","1638739","0.0-14.0-0.0","7DD0416DB65047FDAA5BCCEDBDF9B817","7DD0416DB65047FDAA5BCCEDBDF9B817","0198be99-7adc-712e-8231-29f45387ae19","0198be8b-78cf-72d2-ba2b-1e62c78022e0","{""num_scrambled_semantic"":""8"",""num_scrambled_causal"":""4"",""num_scrambled_schematic"":""4"",""participantId"":""7DD0416DB65047FDAA5BCCEDBDF9B817"",""assignmentId"":""0198be99-7adc-712e-8231-29f45387ae19"",""projectId"":""0198be8b-78cf-72d2-ba2b-1e62c78022e0""}","https://test12345.live/?num_scrambled_semantic=8&num_scrambled_causal=4&num_scrambled_schematic=4&participantId=7DD0416DB65047FDAA5BCCEDBDF9B817&assignmentId=0198be99-7adc-712e-8231-29f45387ae19&projectId=0198be8b-78cf-72d2-ba2b-1e62c78022e0","7DD0416DB65047FDAA5BCCEDBDF9B817-2025-08-18-20-45-29","","null","","images/causal_sequence/museum_causal/museum_causal_0.png","null","",""
"","","","","","image-button-response","92","1643240","0.0-14.0-1.0-0.0","7DD0416DB65047FDAA5BCCEDBDF9B817","7DD0416DB65047FDAA5BCCEDBDF9B817","0198be99-7adc-712e-8231-29f45387ae19","0198be8b-78cf-72d2-ba2b-1e62c78022e0","{""num_scrambled_semantic"":""8"",""num_scrambled_causal"":""4"",""num_scrambled_schematic"":""4"",""participantId"":""7DD0416DB65047FDAA5BCCEDBDF9B817"",""assignmentId"":""0198be99-7adc-712e-8231-29f45387ae19"",""projectId"":""0198be8b-78cf-72d2-ba2b-1e62c78022e0""}","https://test12345.live/?num_scrambled_semantic=8&num_scrambled_causal=4&num_scrambled_schematic=4&participantId=7DD0416DB65047FDAA5BCCEDBDF9B817&assignmentId=0198be99-7adc-712e-8231-29f45387ae19&projectId=0198be8b-78cf-72d2-ba2b-1e62c78022e0","7DD0416DB65047FDAA5BCCEDBDF9B817-2025-08-18-20-45-29","","null","","images/causal_sequence/museum_causal/museum_causal_6.png","null","",""
"","","","","","image-button-response","93","1645696","0.0-14.0-1.0-1.0","7DD0416DB65047FDAA5BCCEDBDF9B817","7DD0416DB65047FDAA5BCCEDBDF9B817","0198be99-7adc-712e-8231-29f45387ae19","0198be8b-78cf-72d2-ba2b-1e62c78022e0","{""num_scrambled_semantic"":""8"",""num_scrambled_causal"":""4"",""num_scrambled_schematic"":""4"",""participantId"":""7DD0416DB65047FDAA5BCCEDBDF9B817"",""assignmentId"":""0198be99-7adc-712e-8231-29f45387ae19"",""projectId"":""0198be8b-78cf-72d2-ba2b-1e62c78022e0""}","https://test12345.live/?num_scrambled_semantic=8&num_scrambled_causal=4&num_scrambled_schematic=4&participantId=7DD0416DB65047FDAA5BCCEDBDF9B817&assignmentId=0198be99-7adc-712e-8231-29f45387ae19&projectId=0198be8b-78cf-72d2-ba2b-1e62c78022e0","7DD0416DB65047FDAA5BCCEDBDF9B817-2025-08-18-20-45-29","","2455","","images/causal_sequence/museum_causal/museum_causal_6.png","0","",""
"","","","","","image-button-response","94","1647497","0.0-14.0-1.0-2.0","7DD0416DB65047FDAA5BCCEDBDF9B817","7DD0416DB65047FDAA5BCCEDBDF9B817","0198be99-7adc-712e-8231-29f45387ae19","0198be8b-78cf-72d2-ba2b-1e62c78022e0","{""num_scrambled_semantic"":""8"",""num_scrambled_causal"":""4"",""num_scrambled_schematic"":""4"",""participantId"":""7DD0416DB65047FDAA5BCCEDBDF9B817"",""assignmentId"":""0198be99-7adc-712e-8231-29f45387ae19"",""projectId"":""0198be8b-78cf-72d2-ba2b-1e62c78022e0""}","https://test12345.live/?num_scrambled_semantic=8&num_scrambled_causal=4&num_scrambled_schematic=4&participantId=7DD0416DB65047FDAA5BCCEDBDF9B817&assignmentId=0198be99-7adc-712e-8231-29f45387ae19&projectId=0198be8b-78cf-72d2-ba2b-1e62c78022e0","7DD0416DB65047FDAA5BCCEDBDF9B817-2025-08-18-20-45-29","","null","","[]","null","",""
"","","","","","image-button-response","95","1651999","0.0-14.0-1.0-0.1","7DD0416DB65047FDAA5BCCEDBDF9B817","7DD0416DB65047FDAA5BCCEDBDF9B817","0198be99-7adc-712e-8231-29f45387ae19","0198be8b-78cf-72d2-ba2b-1e62c78022e0","{""num_scrambled_semantic"":""8"",""num_scrambled_causal"":""4"",""num_scrambled_schematic"":""4"",""participantId"":""7DD0416DB65047FDAA5BCCEDBDF9B817"",""assignmentId"":""0198be99-7adc-712e-8231-29f45387ae19"",""projectId"":""0198be8b-78cf-72d2-ba2b-1e62c78022e0""}","https://test12345.live/?num_scrambled_semantic=8&num_scrambled_causal=4&num_scrambled_schematic=4&participantId=7DD0416DB65047FDAA5BCCEDBDF9B817&assignmentId=0198be99-7adc-712e-8231-29f45387ae19&projectId=0198be8b-78cf-72d2-ba2b-1e62c78022e0","7DD0416DB65047FDAA5BCCEDBDF9B817-2025-08-18-20-45-29","","null","","images/causal_sequence/museum_causal/museum_causal_ten.png","null","",""
"","","","","","image-button-response","96","1652778","0.0-14.0-1.0-1.1","7DD0416DB65047FDAA5BCCEDBDF9B817","7DD0416DB65047FDAA5BCCEDBDF9B817","0198be99-7adc-712e-8231-29f45387ae19","0198be8b-78cf-72d2-ba2b-1e62c78022e0","{""num_scrambled_semantic"":""8"",""num_scrambled_causal"":""4"",""num_scrambled_schematic"":""4"",""participantId"":""7DD0416DB65047FDAA5BCCEDBDF9B817"",""assignmentId"":""0198be99-7adc-712e-8231-29f45387ae19"",""projectId"":""0198be8b-78cf-72d2-ba2b-1e62c78022e0""}","https://test12345.live/?num_scrambled_semantic=8&num_scrambled_causal=4&num_scrambled_schematic=4&participantId=7DD0416DB65047FDAA5BCCEDBDF9B817&assignmentId=0198be99-7adc-712e-8231-29f45387ae19&projectId=0198be8b-78cf-72d2-ba2b-1e62c78022e0","7DD0416DB65047FDAA5BCCEDBDF9B817-2025-08-18-20-45-29","","778","","images/causal_sequence/museum_causal/museum_causal_ten.png","0","",""
"","","","","","image-button-response","97","1654579","0.0-14.0-1.0-2.1","7DD0416DB65047FDAA5BCCEDBDF9B817","7DD0416DB65047FDAA5BCCEDBDF9B817","0198be99-7adc-712e-8231-29f45387ae19","0198be8b-78cf-72d2-ba2b-1e62c78022e0","{""num_scrambled_semantic"":""8"",""num_scrambled_causal"":""4"",""num_scrambled_schematic"":""4"",""participantId"":""7DD0416DB65047FDAA5BCCEDBDF9B817"",""assignmentId"":""0198be99-7adc-712e-8231-29f45387ae19"",""projectId"":""0198be8b-78cf-72d2-ba2b-1e62c78022e0""}","https://test12345.live/?num_scrambled_semantic=8&num_scrambled_causal=4&num_scrambled_schematic=4&participantId=7DD0416DB65047FDAA5BCCEDBDF9B817&assignmentId=0198be99-7adc-712e-8231-29f45387ae19&projectId=0198be8b-78cf-72d2-ba2b-1e62c78022e0","7DD0416DB65047FDAA5BCCEDBDF9B817-2025-08-18-20-45-29","","null","","[]","null","",""
"","","","","","image-button-response","98","1659081","0.0-14.0-1.0-0.2","7DD0416DB65047FDAA5BCCEDBDF9B817","7DD0416DB65047FDAA5BCCEDBDF9B817","0198be99-7adc-712e-8231-29f45387ae19","0198be8b-78cf-72d2-ba2b-1e62c78022e0","{""num_scrambled_semantic"":""8"",""num_scrambled_causal"":""4"",""num_scrambled_schematic"":""4"",""participantId"":""7DD0416DB65047FDAA5BCCEDBDF9B817"",""assignmentId"":""0198be99-7adc-712e-8231-29f45387ae19"",""projectId"":""0198be8b-78cf-72d2-ba2b-1e62c78022e0""}","https://test12345.live/?num_scrambled_semantic=8&num_scrambled_causal=4&num_scrambled_schematic=4&participantId=7DD0416DB65047FDAA5BCCEDBDF9B817&assignmentId=0198be99-7adc-712e-8231-29f45387ae19&projectId=0198be8b-78cf-72d2-ba2b-1e62c78022e0","7DD0416DB65047FDAA5BCCEDBDF9B817-2025-08-18-20-45-29","","null","","images/causal_sequence/museum_causal/museum_causal_4.png","null","",""
"","","","","","image-button-response","99","1661398","0.0-14.0-1.0-1.2","7DD0416DB65047FDAA5BCCEDBDF9B817","7DD0416DB65047FDAA5BCCEDBDF9B817","0198be99-7adc-712e-8231-29f45387ae19","0198be8b-78cf-72d2-ba2b-1e62c78022e0","{""num_scrambled_semantic"":""8"",""num_scrambled_causal"":""4"",""num_scrambled_schematic"":""4"",""participantId"":""7DD0416DB65047FDAA5BCCEDBDF9B817"",""assignmentId"":""0198be99-7adc-712e-8231-29f45387ae19"",""projectId"":""0198be8b-78cf-72d2-ba2b-1e62c78022e0""}","https://test12345.live/?num_scrambled_semantic=8&num_scrambled_causal=4&num_scrambled_schematic=4&participantId=7DD0416DB65047FDAA5BCCEDBDF9B817&assignmentId=0198be99-7adc-712e-8231-29f45387ae19&projectId=0198be8b-78cf-72d2-ba2b-1e62c78022e0","7DD0416DB65047FDAA5BCCEDBDF9B817-2025-08-18-20-45-29","","2317","","images/causal_sequence/museum_causal/museum_causal_4.png","1","",""
"","","","","","image-button-response","100","1663199","0.0-14.0-1.0-2.2","7DD0416DB65047FDAA5BCCEDBDF9B817","7DD0416DB65047FDAA5BCCEDBDF9B817","0198be99-7adc-712e-8231-29f45387ae19","0198be8b-78cf-72d2-ba2b-1e62c78022e0","{""num_scrambled_semantic"":""8"",""num_scrambled_causal"":""4"",""num_scrambled_schematic"":""4"",""participantId"":""7DD0416DB65047FDAA5BCCEDBDF9B817"",""assignmentId"":""0198be99-7adc-712e-8231-29f45387ae19"",""projectId"":""0198be8b-78cf-72d2-ba2b-1e62c78022e0""}","https://test12345.live/?num_scrambled_semantic=8&num_scrambled_causal=4&num_scrambled_schematic=4&participantId=7DD0416DB65047FDAA5BCCEDBDF9B817&assignmentId=0198be99-7adc-712e-8231-29f45387ae19&projectId=0198be8b-78cf-72d2-ba2b-1e62c78022e0","7DD0416DB65047FDAA5BCCEDBDF9B817-2025-08-18-20-45-29","","null","","[]","null","",""
"","","","","","image-button-response","101","1667701","0.0-14.0-1.0-0.3","7DD0416DB65047FDAA5BCCEDBDF9B817","7DD0416DB65047FDAA5BCCEDBDF9B817","0198be99-7adc-712e-8231-29f45387ae19","0198be8b-78cf-72d2-ba2b-1e62c78022e0","{""num_scrambled_semantic"":""8"",""num_scrambled_causal"":""4"",""num_scrambled_schematic"":""4"",""participantId"":""7DD0416DB65047FDAA5BCCEDBDF9B817"",""assignmentId"":""0198be99-7adc-712e-8231-29f45387ae19"",""projectId"":""0198be8b-78cf-72d2-ba2b-1e62c78022e0""}","https://test12345.live/?num_scrambled_semantic=8&num_scrambled_causal=4&num_scrambled_schematic=4&participantId=7DD0416DB65047FDAA5BCCEDBDF9B817&assignmentId=0198be99-7adc-712e-8231-29f45387ae19&projectId=0198be8b-78cf-72d2-ba2b-1e62c78022e0","7DD0416DB65047FDAA5BCCEDBDF9B817-2025-08-18-20-45-29","","null","","images/causal_sequence/museum_causal/museum_causal_9.png","null","",""
"","","","","","image-button-response","102","1669141","0.0-14.0-1.0-1.3","7DD0416DB65047FDAA5BCCEDBDF9B817","7DD0416DB65047FDAA5BCCEDBDF9B817","0198be99-7adc-712e-8231-29f45387ae19","0198be8b-78cf-72d2-ba2b-1e62c78022e0","{""num_scrambled_semantic"":""8"",""num_scrambled_causal"":""4"",""num_scrambled_schematic"":""4"",""participantId"":""7DD0416DB65047FDAA5BCCEDBDF9B817"",""assignmentId"":""0198be99-7adc-712e-8231-29f45387ae19"",""projectId"":""0198be8b-78cf-72d2-ba2b-1e62c78022e0""}","https://test12345.live/?num_scrambled_semantic=8&num_scrambled_causal=4&num_scrambled_schematic=4&participantId=7DD0416DB65047FDAA5BCCEDBDF9B817&assignmentId=0198be99-7adc-712e-8231-29f45387ae19&projectId=0198be8b-78cf-72d2-ba2b-1e62c78022e0","7DD0416DB65047FDAA5BCCEDBDF9B817-2025-08-18-20-45-29","","1440","","images/causal_sequence/museum_causal/museum_causal_9.png","1","",""
"","","","","","image-button-response","103","1670942","0.0-14.0-1.0-2.3","7DD0416DB65047FDAA5BCCEDBDF9B817","7DD0416DB65047FDAA5BCCEDBDF9B817","0198be99-7adc-712e-8231-29f45387ae19","0198be8b-78cf-72d2-ba2b-1e62c78022e0","{""num_scrambled_semantic"":""8"",""num_scrambled_causal"":""4"",""num_scrambled_schematic"":""4"",""participantId"":""7DD0416DB65047FDAA5BCCEDBDF9B817"",""assignmentId"":""0198be99-7adc-712e-8231-29f45387ae19"",""projectId"":""0198be8b-78cf-72d2-ba2b-1e62c78022e0""}","https://test12345.live/?num_scrambled_semantic=8&num_scrambled_causal=4&num_scrambled_schematic=4&participantId=7DD0416DB65047FDAA5BCCEDBDF9B817&assignmentId=0198be99-7adc-712e-8231-29f45387ae19&projectId=0198be8b-78cf-72d2-ba2b-1e62c78022e0","7DD0416DB65047FDAA5BCCEDBDF9B817-2025-08-18-20-45-29","","null","","[]","null","",""
"","","","","","image-button-response","104","1675443","0.0-14.0-1.0-0.4","7DD0416DB65047FDAA5BCCEDBDF9B817","7DD0416DB65047FDAA5BCCEDBDF9B817","0198be99-7adc-712e-8231-29f45387ae19","0198be8b-78cf-72d2-ba2b-1e62c78022e0","{""num_scrambled_semantic"":""8"",""num_scrambled_causal"":""4"",""num_scrambled_schematic"":""4"",""participantId"":""7DD0416DB65047FDAA5BCCEDBDF9B817"",""assignmentId"":""0198be99-7adc-712e-8231-29f45387ae19"",""projectId"":""0198be8b-78cf-72d2-ba2b-1e62c78022e0""}","https://test12345.live/?num_scrambled_semantic=8&num_scrambled_causal=4&num_scrambled_schematic=4&participantId=7DD0416DB65047FDAA5BCCEDBDF9B817&assignmentId=0198be99-7adc-712e-8231-29f45387ae19&projectId=0198be8b-78cf-72d2-ba2b-1e62c78022e0","7DD0416DB65047FDAA5BCCEDBDF9B817-2025-08-18-20-45-29","","null","","images/causal_sequence/museum_causal/museum_causal_3.png","null","",""
"","","","","","image-button-response","105","1676315","0.0-14.0-1.0-1.4","7DD0416DB65047FDAA5BCCEDBDF9B817","7DD0416DB65047FDAA5BCCEDBDF9B817","0198be99-7adc-712e-8231-29f45387ae19","0198be8b-78cf-72d2-ba2b-1e62c78022e0","{""num_scrambled_semantic"":""8"",""num_scrambled_causal"":""4"",""num_scrambled_schematic"":""4"",""participantId"":""7DD0416DB65047FDAA5BCCEDBDF9B817"",""assignmentId"":""0198be99-7adc-712e-8231-29f45387ae19"",""projectId"":""0198be8b-78cf-72d2-ba2b-1e62c78022e0""}","https://test12345.live/?num_scrambled_semantic=8&num_scrambled_causal=4&num_scrambled_schematic=4&participantId=7DD0416DB65047FDAA5BCCEDBDF9B817&assignmentId=0198be99-7adc-712e-8231-29f45387ae19&projectId=0198be8b-78cf-72d2-ba2b-1e62c78022e0","7DD0416DB65047FDAA5BCCEDBDF9B817-2025-08-18-20-45-29","","871","","images/causal_sequence/museum_causal/museum_causal_3.png","0","",""
"","","","","","image-button-response","106","1678116","0.0-14.0-1.0-2.4","7DD0416DB65047FDAA5BCCEDBDF9B817","7DD0416DB65047FDAA5BCCEDBDF9B817","0198be99-7adc-712e-8231-29f45387ae19","0198be8b-78cf-72d2-ba2b-1e62c78022e0","{""num_scrambled_semantic"":""8"",""num_scrambled_causal"":""4"",""num_scrambled_schematic"":""4"",""participantId"":""7DD0416DB65047FDAA5BCCEDBDF9B817"",""assignmentId"":""0198be99-7adc-712e-8231-29f45387ae19"",""projectId"":""0198be8b-78cf-72d2-ba2b-1e62c78022e0""}","https://test12345.live/?num_scrambled_semantic=8&num_scrambled_causal=4&num_scrambled_schematic=4&participantId=7DD0416DB65047FDAA5BCCEDBDF9B817&assignmentId=0198be99-7adc-712e-8231-29f45387ae19&projectId=0198be8b-78cf-72d2-ba2b-1e62c78022e0","7DD0416DB65047FDAA5BCCEDBDF9B817-2025-08-18-20-45-29","","null","","[]","null","",""
"","","","","","image-button-response","107","1682618","0.0-14.0-1.0-0.5","7DD0416DB65047FDAA5BCCEDBDF9B817","7DD0416DB65047FDAA5BCCEDBDF9B817","0198be99-7adc-712e-8231-29f45387ae19","0198be8b-78cf-72d2-ba2b-1e62c78022e0","{""num_scrambled_semantic"":""8"",""num_scrambled_causal"":""4"",""num_scrambled_schematic"":""4"",""participantId"":""7DD0416DB65047FDAA5BCCEDBDF9B817"",""assignmentId"":""0198be99-7adc-712e-8231-29f45387ae19"",""projectId"":""0198be8b-78cf-72d2-ba2b-1e62c78022e0""}","https://test12345.live/?num_scrambled_semantic=8&num_scrambled_causal=4&num_scrambled_schematic=4&participantId=7DD0416DB65047FDAA5BCCEDBDF9B817&assignmentId=0198be99-7adc-712e-8231-29f45387ae19&projectId=0198be8b-78cf-72d2-ba2b-1e62c78022e0","7DD0416DB65047FDAA5BCCEDBDF9B817-2025-08-18-20-45-29","","null","","images/causal_sequence/museum_causal/museum_causal_2.png","null","",""
"","","","","","image-button-response","108","1685222","0.0-14.0-1.0-1.5","7DD0416DB65047FDAA5BCCEDBDF9B817","7DD0416DB65047FDAA5BCCEDBDF9B817","0198be99-7adc-712e-8231-29f45387ae19","0198be8b-78cf-72d2-ba2b-1e62c78022e0","{""num_scrambled_semantic"":""8"",""num_scrambled_causal"":""4"",""num_scrambled_schematic"":""4"",""participantId"":""7DD0416DB65047FDAA5BCCEDBDF9B817"",""assignmentId"":""0198be99-7adc-712e-8231-29f45387ae19"",""projectId"":""0198be8b-78cf-72d2-ba2b-1e62c78022e0""}","https://test12345.live/?num_scrambled_semantic=8&num_scrambled_causal=4&num_scrambled_schematic=4&participantId=7DD0416DB65047FDAA5BCCEDBDF9B817&assignmentId=0198be99-7adc-712e-8231-29f45387ae19&projectId=0198be8b-78cf-72d2-ba2b-1e62c78022e0","7DD0416DB65047FDAA5BCCEDBDF9B817-2025-08-18-20-45-29","","2604","","images/causal_sequence/museum_causal/museum_causal_2.png","0","",""
"","","","","","image-button-response","109","1687023","0.0-14.0-1.0-2.5","7DD0416DB65047FDAA5BCCEDBDF9B817","7DD0416DB65047FDAA5BCCEDBDF9B817","0198be99-7adc-712e-8231-29f45387ae19","0198be8b-78cf-72d2-ba2b-1e62c78022e0","{""num_scrambled_semantic"":""8"",""num_scrambled_causal"":""4"",""num_scrambled_schematic"":""4"",""participantId"":""7DD0416DB65047FDAA5BCCEDBDF9B817"",""assignmentId"":""0198be99-7adc-712e-8231-29f45387ae19"",""projectId"":""0198be8b-78cf-72d2-ba2b-1e62c78022e0""}","https://test12345.live/?num_scrambled_semantic=8&num_scrambled_causal=4&num_scrambled_schematic=4&participantId=7DD0416DB65047FDAA5BCCEDBDF9B817&assignmentId=0198be99-7adc-712e-8231-29f45387ae19&projectId=0198be8b-78cf-72d2-ba2b-1e62c78022e0","7DD0416DB65047FDAA5BCCEDBDF9B817-2025-08-18-20-45-29","","null","","[]","null","",""
"","","","","","image-button-response","110","1691525","0.0-14.0-1.0-0.6","7DD0416DB65047FDAA5BCCEDBDF9B817","7DD0416DB65047FDAA5BCCEDBDF9B817","0198be99-7adc-712e-8231-29f45387ae19","0198be8b-78cf-72d2-ba2b-1e62c78022e0","{""num_scrambled_semantic"":""8"",""num_scrambled_causal"":""4"",""num_scrambled_schematic"":""4"",""participantId"":""7DD0416DB65047FDAA5BCCEDBDF9B817"",""assignmentId"":""0198be99-7adc-712e-8231-29f45387ae19"",""projectId"":""0198be8b-78cf-72d2-ba2b-1e62c78022e0""}","https://test12345.live/?num_scrambled_semantic=8&num_scrambled_causal=4&num_scrambled_schematic=4&participantId=7DD0416DB65047FDAA5BCCEDBDF9B817&assignmentId=0198be99-7adc-712e-8231-29f45387ae19&projectId=0198be8b-78cf-72d2-ba2b-1e62c78022e0","7DD0416DB65047FDAA5BCCEDBDF9B817-2025-08-18-20-45-29","","null","","images/causal_sequence/museum_causal/museum_causal_7.png","null","",""
"","","","","","image-button-response","111","1692888","0.0-14.0-1.0-1.6","7DD0416DB65047FDAA5BCCEDBDF9B817","7DD0416DB65047FDAA5BCCEDBDF9B817","0198be99-7adc-712e-8231-29f45387ae19","0198be8b-78cf-72d2-ba2b-1e62c78022e0","{""num_scrambled_semantic"":""8"",""num_scrambled_causal"":""4"",""num_scrambled_schematic"":""4"",""participantId"":""7DD0416DB65047FDAA5BCCEDBDF9B817"",""assignmentId"":""0198be99-7adc-712e-8231-29f45387ae19"",""projectId"":""0198be8b-78cf-72d2-ba2b-1e62c78022e0""}","https://test12345.live/?num_scrambled_semantic=8&num_scrambled_causal=4&num_scrambled_schematic=4&participantId=7DD0416DB65047FDAA5BCCEDBDF9B817&assignmentId=0198be99-7adc-712e-8231-29f45387ae19&projectId=0198be8b-78cf-72d2-ba2b-1e62c78022e0","7DD0416DB65047FDAA5BCCEDBDF9B817-2025-08-18-20-45-29","","1362","","images/causal_sequence/museum_causal/museum_causal_7.png","1","",""
"","","","","","image-button-response","112","1694689","0.0-14.0-1.0-2.6","7DD0416DB65047FDAA5BCCEDBDF9B817","7DD0416DB65047FDAA5BCCEDBDF9B817","0198be99-7adc-712e-8231-29f45387ae19","0198be8b-78cf-72d2-ba2b-1e62c78022e0","{""num_scrambled_semantic"":""8"",""num_scrambled_causal"":""4"",""num_scrambled_schematic"":""4"",""participantId"":""7DD0416DB65047FDAA5BCCEDBDF9B817"",""assignmentId"":""0198be99-7adc-712e-8231-29f45387ae19"",""projectId"":""0198be8b-78cf-72d2-ba2b-1e62c78022e0""}","https://test12345.live/?num_scrambled_semantic=8&num_scrambled_causal=4&num_scrambled_schematic=4&participantId=7DD0416DB65047FDAA5BCCEDBDF9B817&assignmentId=0198be99-7adc-712e-8231-29f45387ae19&projectId=0198be8b-78cf-72d2-ba2b-1e62c78022e0","7DD0416DB65047FDAA5BCCEDBDF9B817-2025-08-18-20-45-29","","null","","[]","null","",""
"","","","","","image-button-response","113","1699191","0.0-14.0-1.0-0.7","7DD0416DB65047FDAA5BCCEDBDF9B817","7DD0416DB65047FDAA5BCCEDBDF9B817","0198be99-7adc-712e-8231-29f45387ae19","0198be8b-78cf-72d2-ba2b-1e62c78022e0","{""num_scrambled_semantic"":""8"",""num_scrambled_causal"":""4"",""num_scrambled_schematic"":""4"",""participantId"":""7DD0416DB65047FDAA5BCCEDBDF9B817"",""assignmentId"":""0198be99-7adc-712e-8231-29f45387ae19"",""projectId"":""0198be8b-78cf-72d2-ba2b-1e62c78022e0""}","https://test12345.live/?num_scrambled_semantic=8&num_scrambled_causal=4&num_scrambled_schematic=4&participantId=7DD0416DB65047FDAA5BCCEDBDF9B817&assignmentId=0198be99-7adc-712e-8231-29f45387ae19&projectId=0198be8b-78cf-72d2-ba2b-1e62c78022e0","7DD0416DB65047FDAA5BCCEDBDF9B817-2025-08-18-20-45-29","","null","","images/causal_sequence/museum_causal/museum_causal_1.png","null","",""
"","","","","","image-button-response","114","1701916","0.0-14.0-1.0-1.7","7DD0416DB65047FDAA5BCCEDBDF9B817","7DD0416DB65047FDAA5BCCEDBDF9B817","0198be99-7adc-712e-8231-29f45387ae19","0198be8b-78cf-72d2-ba2b-1e62c78022e0","{""num_scrambled_semantic"":""8"",""num_scrambled_causal"":""4"",""num_scrambled_schematic"":""4"",""participantId"":""7DD0416DB65047FDAA5BCCEDBDF9B817"",""assignmentId"":""0198be99-7adc-712e-8231-29f45387ae19"",""projectId"":""0198be8b-78cf-72d2-ba2b-1e62c78022e0""}","https://test12345.live/?num_scrambled_semantic=8&num_scrambled_causal=4&num_scrambled_schematic=4&participantId=7DD0416DB65047FDAA5BCCEDBDF9B817&assignmentId=0198be99-7adc-712e-8231-29f45387ae19&projectId=0198be8b-78cf-72d2-ba2b-1e62c78022e0","7DD0416DB65047FDAA5BCCEDBDF9B817-2025-08-18-20-45-29","","2724","","images/causal_sequence/museum_causal/museum_causal_1.png","0","",""
