"success","timeout","failed_images","failed_audio","failed_video","trial_type","trial_index","time_elapsed","internal_node_id","subject","subject_id","study_id","session_id","urlvar","current_url","audio_id","view_history","rt","device_id","stimulus","response","estimated_stimulus_onset","seq_name"
"true","false","[]","[]","[]","preload","0","5512","0.0-0.0","83841FDF09C34415B9D0D2D8A33AABB4","83841FDF09C34415B9D0D2D8A33AABB4","0b218094-27f8-45ec-91b0-336954ba4bd6","051c06f1-75cc-4548-856d-4923ddaba0dc","{""num_scrambled_semantic"":""8"",""num_scrambled_causal"":""4"",""num_scrambled_schematic"":""4"",""participantId"":""83841FDF09C34415B9D0D2D8A33AABB4"",""assignmentId"":""0b218094-27f8-45ec-91b0-336954ba4bd6"",""projectId"":""051c06f1-75cc-4548-856d-4923ddaba0dc""}","https://test12345.live/?num_scrambled_semantic=8&num_scrambled_causal=4&num_scrambled_schematic=4&participantId=83841FDF09C34415B9D0D2D8A33AABB4&assignmentId=0b218094-27f8-45ec-91b0-336954ba4bd6&projectId=051c06f1-75cc-4548-856d-4923ddaba0dc","83841FDF09C34415B9D0D2D8A33AABB4-2025-05-15-20-33-23","","","","","","",""
"","","","","","instructions","1","17997","0.0-1.0","83841FDF09C34415B9D0D2D8A33AABB4","83841FDF09C34415B9D0D2D8A33AABB4","0b218094-27f8-45ec-91b0-336954ba4bd6","051c06f1-75cc-4548-856d-4923ddaba0dc","{""num_scrambled_semantic"":""8"",""num_scrambled_causal"":""4"",""num_scrambled_schematic"":""4"",""participantId"":""83841FDF09C34415B9D0D2D8A33AABB4"",""assignmentId"":""0b218094-27f8-45ec-91b0-336954ba4bd6"",""projectId"":""051c06f1-75cc-4548-856d-4923ddaba0dc""}","https://test12345.live/?num_scrambled_semantic=8&num_scrambled_causal=4&num_scrambled_schematic=4&participantId=83841FDF09C34415B9D0D2D8A33AABB4&assignmentId=0b218094-27f8-45ec-91b0-336954ba4bd6&projectId=051c06f1-75cc-4548-856d-4923ddaba0dc","83841FDF09C34415B9D0D2D8A33AABB4-2025-05-15-20-33-23","[{""page_index"":0,""viewing_time"":12485}]","12485","","","","",""
"","","","","","instructions","2","20185","0.0-2.0","83841FDF09C34415B9D0D2D8A33AABB4","83841FDF09C34415B9D0D2D8A33AABB4","0b218094-27f8-45ec-91b0-336954ba4bd6","051c06f1-75cc-4548-856d-4923ddaba0dc","{""num_scrambled_semantic"":""8"",""num_scrambled_causal"":""4"",""num_scrambled_schematic"":""4"",""participantId"":""83841FDF09C34415B9D0D2D8A33AABB4"",""assignmentId"":""0b218094-27f8-45ec-91b0-336954ba4bd6"",""projectId"":""051c06f1-75cc-4548-856d-4923ddaba0dc""}","https://test12345.live/?num_scrambled_semantic=8&num_scrambled_causal=4&num_scrambled_schematic=4&participantId=83841FDF09C34415B9D0D2D8A33AABB4&assignmentId=0b218094-27f8-45ec-91b0-336954ba4bd6&projectId=051c06f1-75cc-4548-856d-4923ddaba0dc","83841FDF09C34415B9D0D2D8A33AABB4-2025-05-15-20-33-23","[{""page_index"":0,""viewing_time"":2187}]","2187","","","","",""
"true","","","","","fullscreen","3","25206","0.0-3.0","83841FDF09C34415B9D0D2D8A33AABB4","83841FDF09C34415B9D0D2D8A33AABB4","0b218094-27f8-45ec-91b0-336954ba4bd6","051c06f1-75cc-4548-856d-4923ddaba0dc","{""num_scrambled_semantic"":""8"",""num_scrambled_causal"":""4"",""num_scrambled_schematic"":""4"",""participantId"":""83841FDF09C34415B9D0D2D8A33AABB4"",""assignmentId"":""0b218094-27f8-45ec-91b0-336954ba4bd6"",""projectId"":""051c06f1-75cc-4548-856d-4923ddaba0dc""}","https://test12345.live/?num_scrambled_semantic=8&num_scrambled_causal=4&num_scrambled_schematic=4&participantId=83841FDF09C34415B9D0D2D8A33AABB4&assignmentId=0b218094-27f8-45ec-91b0-336954ba4bd6&projectId=051c06f1-75cc-4548-856d-4923ddaba0dc","83841FDF09C34415B9D0D2D8A33AABB4-2025-05-15-20-33-23","","4019","","","","",""
"","","","","","initialize-microphone","4","34720","0.0-4.0-0.0","83841FDF09C34415B9D0D2D8A33AABB4","83841FDF09C34415B9D0D2D8A33AABB4","0b218094-27f8-45ec-91b0-336954ba4bd6","051c06f1-75cc-4548-856d-4923ddaba0dc","{""num_scrambled_semantic"":""8"",""num_scrambled_causal"":""4"",""num_scrambled_schematic"":""4"",""participantId"":""83841FDF09C34415B9D0D2D8A33AABB4"",""assignmentId"":""0b218094-27f8-45ec-91b0-336954ba4bd6"",""projectId"":""051c06f1-75cc-4548-856d-4923ddaba0dc""}","https://test12345.live/?num_scrambled_semantic=8&num_scrambled_causal=4&num_scrambled_schematic=4&participantId=83841FDF09C34415B9D0D2D8A33AABB4&assignmentId=0b218094-27f8-45ec-91b0-336954ba4bd6&projectId=051c06f1-75cc-4548-856d-4923ddaba0dc","83841FDF09C34415B9D0D2D8A33AABB4-2025-05-15-20-33-23","","","a717a8701bc8b612afb89c188c38d1a89b5952fb6fee544ea13294e78fa96385","","","",""
"","","","","","html-audio-response","5","43730","0.0-4.0-1.0","83841FDF09C34415B9D0D2D8A33AABB4","83841FDF09C34415B9D0D2D8A33AABB4","0b218094-27f8-45ec-91b0-336954ba4bd6","051c06f1-75cc-4548-856d-4923ddaba0dc","{""num_scrambled_semantic"":""8"",""num_scrambled_causal"":""4"",""num_scrambled_schematic"":""4"",""participantId"":""83841FDF09C34415B9D0D2D8A33AABB4"",""assignmentId"":""0b218094-27f8-45ec-91b0-336954ba4bd6"",""projectId"":""051c06f1-75cc-4548-856d-4923ddaba0dc""}","https://test12345.live/?num_scrambled_semantic=8&num_scrambled_causal=4&num_scrambled_schematic=4&participantId=83841FDF09C34415B9D0D2D8A33AABB4&assignmentId=0b218094-27f8-45ec-91b0-336954ba4bd6&projectId=051c06f1-75cc-4548-856d-4923ddaba0dc","83841FDF09C34415B9D0D2D8A33AABB4-2025-05-15-20-33-23","","3298","","<span style=""color: red; font-size: 24px""> NOW RECORDING</span>
        <p>Please test Microphone</p>","","1",""
"","","","","","html-button-response","6","45086","0.0-4.0-2.0","83841FDF09C34415B9D0D2D8A33AABB4","83841FDF09C34415B9D0D2D8A33AABB4","0b218094-27f8-45ec-91b0-336954ba4bd6","051c06f1-75cc-4548-856d-4923ddaba0dc","{""num_scrambled_semantic"":""8"",""num_scrambled_causal"":""4"",""num_scrambled_schematic"":""4"",""participantId"":""83841FDF09C34415B9D0D2D8A33AABB4"",""assignmentId"":""0b218094-27f8-45ec-91b0-336954ba4bd6"",""projectId"":""051c06f1-75cc-4548-856d-4923ddaba0dc""}","https://test12345.live/?num_scrambled_semantic=8&num_scrambled_causal=4&num_scrambled_schematic=4&participantId=83841FDF09C34415B9D0D2D8A33AABB4&assignmentId=0b218094-27f8-45ec-91b0-336954ba4bd6&projectId=051c06f1-75cc-4548-856d-4923ddaba0dc","83841FDF09C34415B9D0D2D8A33AABB4-2025-05-15-20-33-23","","1355","","<p style=""font-size:48px; color:red;"">Is Microphone OK?</p>","1","",""
"","","","","","instructions","7","55135","0.0-5.0","83841FDF09C34415B9D0D2D8A33AABB4","83841FDF09C34415B9D0D2D8A33AABB4","0b218094-27f8-45ec-91b0-336954ba4bd6","051c06f1-75cc-4548-856d-4923ddaba0dc","{""num_scrambled_semantic"":""8"",""num_scrambled_causal"":""4"",""num_scrambled_schematic"":""4"",""participantId"":""83841FDF09C34415B9D0D2D8A33AABB4"",""assignmentId"":""0b218094-27f8-45ec-91b0-336954ba4bd6"",""projectId"":""051c06f1-75cc-4548-856d-4923ddaba0dc""}","https://test12345.live/?num_scrambled_semantic=8&num_scrambled_causal=4&num_scrambled_schematic=4&participantId=83841FDF09C34415B9D0D2D8A33AABB4&assignmentId=0b218094-27f8-45ec-91b0-336954ba4bd6&projectId=051c06f1-75cc-4548-856d-4923ddaba0dc","83841FDF09C34415B9D0D2D8A33AABB4-2025-05-15-20-33-23","[{""page_index"":0,""viewing_time"":2643},{""page_index"":1,""viewing_time"":7406}]","10049","","","","",""
"","","","","","image-button-response","8","61143","0.0-6.0-0.0","83841FDF09C34415B9D0D2D8A33AABB4","83841FDF09C34415B9D0D2D8A33AABB4","0b218094-27f8-45ec-91b0-336954ba4bd6","051c06f1-75cc-4548-856d-4923ddaba0dc","{""num_scrambled_semantic"":""8"",""num_scrambled_causal"":""4"",""num_scrambled_schematic"":""4"",""participantId"":""83841FDF09C34415B9D0D2D8A33AABB4"",""assignmentId"":""0b218094-27f8-45ec-91b0-336954ba4bd6"",""projectId"":""051c06f1-75cc-4548-856d-4923ddaba0dc""}","https://test12345.live/?num_scrambled_semantic=8&num_scrambled_causal=4&num_scrambled_schematic=4&participantId=83841FDF09C34415B9D0D2D8A33AABB4&assignmentId=0b218094-27f8-45ec-91b0-336954ba4bd6&projectId=051c06f1-75cc-4548-856d-4923ddaba0dc","83841FDF09C34415B9D0D2D8A33AABB4-2025-05-15-20-33-23","","null","","images/instructions/movie_0.png","null","",""
"","","","","","image-button-response","9","65647","0.0-6.0-1.0-0.0","83841FDF09C34415B9D0D2D8A33AABB4","83841FDF09C34415B9D0D2D8A33AABB4","0b218094-27f8-45ec-91b0-336954ba4bd6","051c06f1-75cc-4548-856d-4923ddaba0dc","{""num_scrambled_semantic"":""8"",""num_scrambled_causal"":""4"",""num_scrambled_schematic"":""4"",""participantId"":""83841FDF09C34415B9D0D2D8A33AABB4"",""assignmentId"":""0b218094-27f8-45ec-91b0-336954ba4bd6"",""projectId"":""051c06f1-75cc-4548-856d-4923ddaba0dc""}","https://test12345.live/?num_scrambled_semantic=8&num_scrambled_causal=4&num_scrambled_schematic=4&participantId=83841FDF09C34415B9D0D2D8A33AABB4&assignmentId=0b218094-27f8-45ec-91b0-336954ba4bd6&projectId=051c06f1-75cc-4548-856d-4923ddaba0dc","83841FDF09C34415B9D0D2D8A33AABB4-2025-05-15-20-33-23","","null","","images/instructions/movie_1.png","null","",""
"","","","","","image-button-response","10","68039","0.0-6.0-1.0-1.0","83841FDF09C34415B9D0D2D8A33AABB4","83841FDF09C34415B9D0D2D8A33AABB4","0b218094-27f8-45ec-91b0-336954ba4bd6","051c06f1-75cc-4548-856d-4923ddaba0dc","{""num_scrambled_semantic"":""8"",""num_scrambled_causal"":""4"",""num_scrambled_schematic"":""4"",""participantId"":""83841FDF09C34415B9D0D2D8A33AABB4"",""assignmentId"":""0b218094-27f8-45ec-91b0-336954ba4bd6"",""projectId"":""051c06f1-75cc-4548-856d-4923ddaba0dc""}","https://test12345.live/?num_scrambled_semantic=8&num_scrambled_causal=4&num_scrambled_schematic=4&participantId=83841FDF09C34415B9D0D2D8A33AABB4&assignmentId=0b218094-27f8-45ec-91b0-336954ba4bd6&projectId=051c06f1-75cc-4548-856d-4923ddaba0dc","83841FDF09C34415B9D0D2D8A33AABB4-2025-05-15-20-33-23","","2389","","images/instructions/movie_1.png","0","",""
"","","","","","image-button-response","11","69843","0.0-6.0-1.0-2.0","83841FDF09C34415B9D0D2D8A33AABB4","83841FDF09C34415B9D0D2D8A33AABB4","0b218094-27f8-45ec-91b0-336954ba4bd6","051c06f1-75cc-4548-856d-4923ddaba0dc","{""num_scrambled_semantic"":""8"",""num_scrambled_causal"":""4"",""num_scrambled_schematic"":""4"",""participantId"":""83841FDF09C34415B9D0D2D8A33AABB4"",""assignmentId"":""0b218094-27f8-45ec-91b0-336954ba4bd6"",""projectId"":""051c06f1-75cc-4548-856d-4923ddaba0dc""}","https://test12345.live/?num_scrambled_semantic=8&num_scrambled_causal=4&num_scrambled_schematic=4&participantId=83841FDF09C34415B9D0D2D8A33AABB4&assignmentId=0b218094-27f8-45ec-91b0-336954ba4bd6&projectId=051c06f1-75cc-4548-856d-4923ddaba0dc","83841FDF09C34415B9D0D2D8A33AABB4-2025-05-15-20-33-23","","null","","[]","null","",""
"","","","","","image-button-response","12","74348","0.0-6.0-1.0-0.1","83841FDF09C34415B9D0D2D8A33AABB4","83841FDF09C34415B9D0D2D8A33AABB4","0b218094-27f8-45ec-91b0-336954ba4bd6","051c06f1-75cc-4548-856d-4923ddaba0dc","{""num_scrambled_semantic"":""8"",""num_scrambled_causal"":""4"",""num_scrambled_schematic"":""4"",""participantId"":""83841FDF09C34415B9D0D2D8A33AABB4"",""assignmentId"":""0b218094-27f8-45ec-91b0-336954ba4bd6"",""projectId"":""051c06f1-75cc-4548-856d-4923ddaba0dc""}","https://test12345.live/?num_scrambled_semantic=8&num_scrambled_causal=4&num_scrambled_schematic=4&participantId=83841FDF09C34415B9D0D2D8A33AABB4&assignmentId=0b218094-27f8-45ec-91b0-336954ba4bd6&projectId=051c06f1-75cc-4548-856d-4923ddaba0dc","83841FDF09C34415B9D0D2D8A33AABB4-2025-05-15-20-33-23","","null","","images/instructions/movie_2.png","null","",""
"","","","","","image-button-response","13","77055","0.0-6.0-1.0-1.1","83841FDF09C34415B9D0D2D8A33AABB4","83841FDF09C34415B9D0D2D8A33AABB4","0b218094-27f8-45ec-91b0-336954ba4bd6","051c06f1-75cc-4548-856d-4923ddaba0dc","{""num_scrambled_semantic"":""8"",""num_scrambled_causal"":""4"",""num_scrambled_schematic"":""4"",""participantId"":""83841FDF09C34415B9D0D2D8A33AABB4"",""assignmentId"":""0b218094-27f8-45ec-91b0-336954ba4bd6"",""projectId"":""051c06f1-75cc-4548-856d-4923ddaba0dc""}","https://test12345.live/?num_scrambled_semantic=8&num_scrambled_causal=4&num_scrambled_schematic=4&participantId=83841FDF09C34415B9D0D2D8A33AABB4&assignmentId=0b218094-27f8-45ec-91b0-336954ba4bd6&projectId=051c06f1-75cc-4548-856d-4923ddaba0dc","83841FDF09C34415B9D0D2D8A33AABB4-2025-05-15-20-33-23","","2705","","images/instructions/movie_2.png","1","",""
"","","","","","image-button-response","14","78861","0.0-6.0-1.0-2.1","83841FDF09C34415B9D0D2D8A33AABB4","83841FDF09C34415B9D0D2D8A33AABB4","0b218094-27f8-45ec-91b0-336954ba4bd6","051c06f1-75cc-4548-856d-4923ddaba0dc","{""num_scrambled_semantic"":""8"",""num_scrambled_causal"":""4"",""num_scrambled_schematic"":""4"",""participantId"":""83841FDF09C34415B9D0D2D8A33AABB4"",""assignmentId"":""0b218094-27f8-45ec-91b0-336954ba4bd6"",""projectId"":""051c06f1-75cc-4548-856d-4923ddaba0dc""}","https://test12345.live/?num_scrambled_semantic=8&num_scrambled_causal=4&num_scrambled_schematic=4&participantId=83841FDF09C34415B9D0D2D8A33AABB4&assignmentId=0b218094-27f8-45ec-91b0-336954ba4bd6&projectId=051c06f1-75cc-4548-856d-4923ddaba0dc","83841FDF09C34415B9D0D2D8A33AABB4-2025-05-15-20-33-23","","null","","[]","null","",""
"","","","","","image-button-response","15","83364","0.0-6.0-1.0-0.2","83841FDF09C34415B9D0D2D8A33AABB4","83841FDF09C34415B9D0D2D8A33AABB4","0b218094-27f8-45ec-91b0-336954ba4bd6","051c06f1-75cc-4548-856d-4923ddaba0dc","{""num_scrambled_semantic"":""8"",""num_scrambled_causal"":""4"",""num_scrambled_schematic"":""4"",""participantId"":""83841FDF09C34415B9D0D2D8A33AABB4"",""assignmentId"":""0b218094-27f8-45ec-91b0-336954ba4bd6"",""projectId"":""051c06f1-75cc-4548-856d-4923ddaba0dc""}","https://test12345.live/?num_scrambled_semantic=8&num_scrambled_causal=4&num_scrambled_schematic=4&participantId=83841FDF09C34415B9D0D2D8A33AABB4&assignmentId=0b218094-27f8-45ec-91b0-336954ba4bd6&projectId=051c06f1-75cc-4548-856d-4923ddaba0dc","83841FDF09C34415B9D0D2D8A33AABB4-2025-05-15-20-33-23","","null","","images/instructions/movie_3.png","null","",""
"","","","","","image-button-response","16","85161","0.0-6.0-1.0-1.2","83841FDF09C34415B9D0D2D8A33AABB4","83841FDF09C34415B9D0D2D8A33AABB4","0b218094-27f8-45ec-91b0-336954ba4bd6","051c06f1-75cc-4548-856d-4923ddaba0dc","{""num_scrambled_semantic"":""8"",""num_scrambled_causal"":""4"",""num_scrambled_schematic"":""4"",""participantId"":""83841FDF09C34415B9D0D2D8A33AABB4"",""assignmentId"":""0b218094-27f8-45ec-91b0-336954ba4bd6"",""projectId"":""051c06f1-75cc-4548-856d-4923ddaba0dc""}","https://test12345.live/?num_scrambled_semantic=8&num_scrambled_causal=4&num_scrambled_schematic=4&participantId=83841FDF09C34415B9D0D2D8A33AABB4&assignmentId=0b218094-27f8-45ec-91b0-336954ba4bd6&projectId=051c06f1-75cc-4548-856d-4923ddaba0dc","83841FDF09C34415B9D0D2D8A33AABB4-2025-05-15-20-33-23","","1796","","images/instructions/movie_3.png","0","",""
"","","","","","image-button-response","17","86964","0.0-6.0-1.0-2.2","83841FDF09C34415B9D0D2D8A33AABB4","83841FDF09C34415B9D0D2D8A33AABB4","0b218094-27f8-45ec-91b0-336954ba4bd6","051c06f1-75cc-4548-856d-4923ddaba0dc","{""num_scrambled_semantic"":""8"",""num_scrambled_causal"":""4"",""num_scrambled_schematic"":""4"",""participantId"":""83841FDF09C34415B9D0D2D8A33AABB4"",""assignmentId"":""0b218094-27f8-45ec-91b0-336954ba4bd6"",""projectId"":""051c06f1-75cc-4548-856d-4923ddaba0dc""}","https://test12345.live/?num_scrambled_semantic=8&num_scrambled_causal=4&num_scrambled_schematic=4&participantId=83841FDF09C34415B9D0D2D8A33AABB4&assignmentId=0b218094-27f8-45ec-91b0-336954ba4bd6&projectId=051c06f1-75cc-4548-856d-4923ddaba0dc","83841FDF09C34415B9D0D2D8A33AABB4-2025-05-15-20-33-23","","null","","[]","null","",""
"","","","","","image-button-response","18","91470","0.0-6.0-1.0-0.3","83841FDF09C34415B9D0D2D8A33AABB4","83841FDF09C34415B9D0D2D8A33AABB4","0b218094-27f8-45ec-91b0-336954ba4bd6","051c06f1-75cc-4548-856d-4923ddaba0dc","{""num_scrambled_semantic"":""8"",""num_scrambled_causal"":""4"",""num_scrambled_schematic"":""4"",""participantId"":""83841FDF09C34415B9D0D2D8A33AABB4"",""assignmentId"":""0b218094-27f8-45ec-91b0-336954ba4bd6"",""projectId"":""051c06f1-75cc-4548-856d-4923ddaba0dc""}","https://test12345.live/?num_scrambled_semantic=8&num_scrambled_causal=4&num_scrambled_schematic=4&participantId=83841FDF09C34415B9D0D2D8A33AABB4&assignmentId=0b218094-27f8-45ec-91b0-336954ba4bd6&projectId=051c06f1-75cc-4548-856d-4923ddaba0dc","83841FDF09C34415B9D0D2D8A33AABB4-2025-05-15-20-33-23","","null","","images/instructions/movie_4.png","null","",""
"","","","","","image-button-response","19","92725","0.0-6.0-1.0-1.3","83841FDF09C34415B9D0D2D8A33AABB4","83841FDF09C34415B9D0D2D8A33AABB4","0b218094-27f8-45ec-91b0-336954ba4bd6","051c06f1-75cc-4548-856d-4923ddaba0dc","{""num_scrambled_semantic"":""8"",""num_scrambled_causal"":""4"",""num_scrambled_schematic"":""4"",""participantId"":""83841FDF09C34415B9D0D2D8A33AABB4"",""assignmentId"":""0b218094-27f8-45ec-91b0-336954ba4bd6"",""projectId"":""051c06f1-75cc-4548-856d-4923ddaba0dc""}","https://test12345.live/?num_scrambled_semantic=8&num_scrambled_causal=4&num_scrambled_schematic=4&participantId=83841FDF09C34415B9D0D2D8A33AABB4&assignmentId=0b218094-27f8-45ec-91b0-336954ba4bd6&projectId=051c06f1-75cc-4548-856d-4923ddaba0dc","83841FDF09C34415B9D0D2D8A33AABB4-2025-05-15-20-33-23","","1253","","images/instructions/movie_4.png","0","",""
"","","","","","image-button-response","20","94529","0.0-6.0-1.0-2.3","83841FDF09C34415B9D0D2D8A33AABB4","83841FDF09C34415B9D0D2D8A33AABB4","0b218094-27f8-45ec-91b0-336954ba4bd6","051c06f1-75cc-4548-856d-4923ddaba0dc","{""num_scrambled_semantic"":""8"",""num_scrambled_causal"":""4"",""num_scrambled_schematic"":""4"",""participantId"":""83841FDF09C34415B9D0D2D8A33AABB4"",""assignmentId"":""0b218094-27f8-45ec-91b0-336954ba4bd6"",""projectId"":""051c06f1-75cc-4548-856d-4923ddaba0dc""}","https://test12345.live/?num_scrambled_semantic=8&num_scrambled_causal=4&num_scrambled_schematic=4&participantId=83841FDF09C34415B9D0D2D8A33AABB4&assignmentId=0b218094-27f8-45ec-91b0-336954ba4bd6&projectId=051c06f1-75cc-4548-856d-4923ddaba0dc","83841FDF09C34415B9D0D2D8A33AABB4-2025-05-15-20-33-23","","null","","[]","null","",""
"","","","","","instructions","21","101190","0.0-7.0","83841FDF09C34415B9D0D2D8A33AABB4","83841FDF09C34415B9D0D2D8A33AABB4","0b218094-27f8-45ec-91b0-336954ba4bd6","051c06f1-75cc-4548-856d-4923ddaba0dc","{""num_scrambled_semantic"":""8"",""num_scrambled_causal"":""4"",""num_scrambled_schematic"":""4"",""participantId"":""83841FDF09C34415B9D0D2D8A33AABB4"",""assignmentId"":""0b218094-27f8-45ec-91b0-336954ba4bd6"",""projectId"":""051c06f1-75cc-4548-856d-4923ddaba0dc""}","https://test12345.live/?num_scrambled_semantic=8&num_scrambled_causal=4&num_scrambled_schematic=4&participantId=83841FDF09C34415B9D0D2D8A33AABB4&assignmentId=0b218094-27f8-45ec-91b0-336954ba4bd6&projectId=051c06f1-75cc-4548-856d-4923ddaba0dc","83841FDF09C34415B9D0D2D8A33AABB4-2025-05-15-20-33-23","[{""page_index"":0,""viewing_time"":5671},{""page_index"":1,""viewing_time"":990}]","6661","","","","",""
"","","","","","html-audio-response","22","113746","0.0-8.0","83841FDF09C34415B9D0D2D8A33AABB4","83841FDF09C34415B9D0D2D8A33AABB4","0b218094-27f8-45ec-91b0-336954ba4bd6","051c06f1-75cc-4548-856d-4923ddaba0dc","{""num_scrambled_semantic"":""8"",""num_scrambled_causal"":""4"",""num_scrambled_schematic"":""4"",""participantId"":""83841FDF09C34415B9D0D2D8A33AABB4"",""assignmentId"":""0b218094-27f8-45ec-91b0-336954ba4bd6"",""projectId"":""051c06f1-75cc-4548-856d-4923ddaba0dc""}","https://test12345.live/?num_scrambled_semantic=8&num_scrambled_causal=4&num_scrambled_schematic=4&participantId=83841FDF09C34415B9D0D2D8A33AABB4&assignmentId=0b218094-27f8-45ec-91b0-336954ba4bd6&projectId=051c06f1-75cc-4548-856d-4923ddaba0dc","83841FDF09C34415B9D0D2D8A33AABB4-2025-05-15-20-33-23","","11170","","[""<span style=\""color: red; font-size: 24px\""> NOW RECORDING</span><p>Please say out loud all the images you saw, as many as you can remember. The images can be said in any order.</p>""]","","1",""
"","","","","","instructions","23","115905","0.0-9.0","83841FDF09C34415B9D0D2D8A33AABB4","83841FDF09C34415B9D0D2D8A33AABB4","0b218094-27f8-45ec-91b0-336954ba4bd6","051c06f1-75cc-4548-856d-4923ddaba0dc","{""num_scrambled_semantic"":""8"",""num_scrambled_causal"":""4"",""num_scrambled_schematic"":""4"",""participantId"":""83841FDF09C34415B9D0D2D8A33AABB4"",""assignmentId"":""0b218094-27f8-45ec-91b0-336954ba4bd6"",""projectId"":""051c06f1-75cc-4548-856d-4923ddaba0dc""}","https://test12345.live/?num_scrambled_semantic=8&num_scrambled_causal=4&num_scrambled_schematic=4&participantId=83841FDF09C34415B9D0D2D8A33AABB4&assignmentId=0b218094-27f8-45ec-91b0-336954ba4bd6&projectId=051c06f1-75cc-4548-856d-4923ddaba0dc","83841FDF09C34415B9D0D2D8A33AABB4-2025-05-15-20-33-23","[{""page_index"":0,""viewing_time"":2157}]","2157","","","","",""
"","","","","","image-button-response","24","121908","0.0-10.0-0.0","83841FDF09C34415B9D0D2D8A33AABB4","83841FDF09C34415B9D0D2D8A33AABB4","0b218094-27f8-45ec-91b0-336954ba4bd6","051c06f1-75cc-4548-856d-4923ddaba0dc","{""num_scrambled_semantic"":""8"",""num_scrambled_causal"":""4"",""num_scrambled_schematic"":""4"",""participantId"":""83841FDF09C34415B9D0D2D8A33AABB4"",""assignmentId"":""0b218094-27f8-45ec-91b0-336954ba4bd6"",""projectId"":""051c06f1-75cc-4548-856d-4923ddaba0dc""}","https://test12345.live/?num_scrambled_semantic=8&num_scrambled_causal=4&num_scrambled_schematic=4&participantId=83841FDF09C34415B9D0D2D8A33AABB4&assignmentId=0b218094-27f8-45ec-91b0-336954ba4bd6&projectId=051c06f1-75cc-4548-856d-4923ddaba0dc","83841FDF09C34415B9D0D2D8A33AABB4-2025-05-15-20-33-23","","null","","images/causal_sequence/museum_causal/museum_causal_0.png","null","",""
"","","","","","image-button-response","25","126417","0.0-10.0-1.0-0.0","83841FDF09C34415B9D0D2D8A33AABB4","83841FDF09C34415B9D0D2D8A33AABB4","0b218094-27f8-45ec-91b0-336954ba4bd6","051c06f1-75cc-4548-856d-4923ddaba0dc","{""num_scrambled_semantic"":""8"",""num_scrambled_causal"":""4"",""num_scrambled_schematic"":""4"",""participantId"":""83841FDF09C34415B9D0D2D8A33AABB4"",""assignmentId"":""0b218094-27f8-45ec-91b0-336954ba4bd6"",""projectId"":""051c06f1-75cc-4548-856d-4923ddaba0dc""}","https://test12345.live/?num_scrambled_semantic=8&num_scrambled_causal=4&num_scrambled_schematic=4&participantId=83841FDF09C34415B9D0D2D8A33AABB4&assignmentId=0b218094-27f8-45ec-91b0-336954ba4bd6&projectId=051c06f1-75cc-4548-856d-4923ddaba0dc","83841FDF09C34415B9D0D2D8A33AABB4-2025-05-15-20-33-23","","null","","images/causal_sequence/museum_causal/museum_causal_2.png","null","",""
"","","","","","image-button-response","26","128118","0.0-10.0-1.0-1.0","83841FDF09C34415B9D0D2D8A33AABB4","83841FDF09C34415B9D0D2D8A33AABB4","0b218094-27f8-45ec-91b0-336954ba4bd6","051c06f1-75cc-4548-856d-4923ddaba0dc","{""num_scrambled_semantic"":""8"",""num_scrambled_causal"":""4"",""num_scrambled_schematic"":""4"",""participantId"":""83841FDF09C34415B9D0D2D8A33AABB4"",""assignmentId"":""0b218094-27f8-45ec-91b0-336954ba4bd6"",""projectId"":""051c06f1-75cc-4548-856d-4923ddaba0dc""}","https://test12345.live/?num_scrambled_semantic=8&num_scrambled_causal=4&num_scrambled_schematic=4&participantId=83841FDF09C34415B9D0D2D8A33AABB4&assignmentId=0b218094-27f8-45ec-91b0-336954ba4bd6&projectId=051c06f1-75cc-4548-856d-4923ddaba0dc","83841FDF09C34415B9D0D2D8A33AABB4-2025-05-15-20-33-23","","1699","","images/causal_sequence/museum_causal/museum_causal_2.png","1","",""
"","","","","","image-button-response","27","129924","0.0-10.0-1.0-2.0","83841FDF09C34415B9D0D2D8A33AABB4","83841FDF09C34415B9D0D2D8A33AABB4","0b218094-27f8-45ec-91b0-336954ba4bd6","051c06f1-75cc-4548-856d-4923ddaba0dc","{""num_scrambled_semantic"":""8"",""num_scrambled_causal"":""4"",""num_scrambled_schematic"":""4"",""participantId"":""83841FDF09C34415B9D0D2D8A33AABB4"",""assignmentId"":""0b218094-27f8-45ec-91b0-336954ba4bd6"",""projectId"":""051c06f1-75cc-4548-856d-4923ddaba0dc""}","https://test12345.live/?num_scrambled_semantic=8&num_scrambled_causal=4&num_scrambled_schematic=4&participantId=83841FDF09C34415B9D0D2D8A33AABB4&assignmentId=0b218094-27f8-45ec-91b0-336954ba4bd6&projectId=051c06f1-75cc-4548-856d-4923ddaba0dc","83841FDF09C34415B9D0D2D8A33AABB4-2025-05-15-20-33-23","","null","","[]","null","",""
"","","","","","image-button-response","28","134431","0.0-10.0-1.0-0.1","83841FDF09C34415B9D0D2D8A33AABB4","83841FDF09C34415B9D0D2D8A33AABB4","0b218094-27f8-45ec-91b0-336954ba4bd6","051c06f1-75cc-4548-856d-4923ddaba0dc","{""num_scrambled_semantic"":""8"",""num_scrambled_causal"":""4"",""num_scrambled_schematic"":""4"",""participantId"":""83841FDF09C34415B9D0D2D8A33AABB4"",""assignmentId"":""0b218094-27f8-45ec-91b0-336954ba4bd6"",""projectId"":""051c06f1-75cc-4548-856d-4923ddaba0dc""}","https://test12345.live/?num_scrambled_semantic=8&num_scrambled_causal=4&num_scrambled_schematic=4&participantId=83841FDF09C34415B9D0D2D8A33AABB4&assignmentId=0b218094-27f8-45ec-91b0-336954ba4bd6&projectId=051c06f1-75cc-4548-856d-4923ddaba0dc","83841FDF09C34415B9D0D2D8A33AABB4-2025-05-15-20-33-23","","null","","images/causal_sequence/museum_causal/museum_causal_3.png","null","",""
"","","","","","image-button-response","29","136650","0.0-10.0-1.0-1.1","83841FDF09C34415B9D0D2D8A33AABB4","83841FDF09C34415B9D0D2D8A33AABB4","0b218094-27f8-45ec-91b0-336954ba4bd6","051c06f1-75cc-4548-856d-4923ddaba0dc","{""num_scrambled_semantic"":""8"",""num_scrambled_causal"":""4"",""num_scrambled_schematic"":""4"",""participantId"":""83841FDF09C34415B9D0D2D8A33AABB4"",""assignmentId"":""0b218094-27f8-45ec-91b0-336954ba4bd6"",""projectId"":""051c06f1-75cc-4548-856d-4923ddaba0dc""}","https://test12345.live/?num_scrambled_semantic=8&num_scrambled_causal=4&num_scrambled_schematic=4&participantId=83841FDF09C34415B9D0D2D8A33AABB4&assignmentId=0b218094-27f8-45ec-91b0-336954ba4bd6&projectId=051c06f1-75cc-4548-856d-4923ddaba0dc","83841FDF09C34415B9D0D2D8A33AABB4-2025-05-15-20-33-23","","2218","","images/causal_sequence/museum_causal/museum_causal_3.png","0","",""
"","","","","","image-button-response","30","138454","0.0-10.0-1.0-2.1","83841FDF09C34415B9D0D2D8A33AABB4","83841FDF09C34415B9D0D2D8A33AABB4","0b218094-27f8-45ec-91b0-336954ba4bd6","051c06f1-75cc-4548-856d-4923ddaba0dc","{""num_scrambled_semantic"":""8"",""num_scrambled_causal"":""4"",""num_scrambled_schematic"":""4"",""participantId"":""83841FDF09C34415B9D0D2D8A33AABB4"",""assignmentId"":""0b218094-27f8-45ec-91b0-336954ba4bd6"",""projectId"":""051c06f1-75cc-4548-856d-4923ddaba0dc""}","https://test12345.live/?num_scrambled_semantic=8&num_scrambled_causal=4&num_scrambled_schematic=4&participantId=83841FDF09C34415B9D0D2D8A33AABB4&assignmentId=0b218094-27f8-45ec-91b0-336954ba4bd6&projectId=051c06f1-75cc-4548-856d-4923ddaba0dc","83841FDF09C34415B9D0D2D8A33AABB4-2025-05-15-20-33-23","","null","","[]","null","",""
"","","","","","image-button-response","31","142960","0.0-10.0-1.0-0.2","83841FDF09C34415B9D0D2D8A33AABB4","83841FDF09C34415B9D0D2D8A33AABB4","0b218094-27f8-45ec-91b0-336954ba4bd6","051c06f1-75cc-4548-856d-4923ddaba0dc","{""num_scrambled_semantic"":""8"",""num_scrambled_causal"":""4"",""num_scrambled_schematic"":""4"",""participantId"":""83841FDF09C34415B9D0D2D8A33AABB4"",""assignmentId"":""0b218094-27f8-45ec-91b0-336954ba4bd6"",""projectId"":""051c06f1-75cc-4548-856d-4923ddaba0dc""}","https://test12345.live/?num_scrambled_semantic=8&num_scrambled_causal=4&num_scrambled_schematic=4&participantId=83841FDF09C34415B9D0D2D8A33AABB4&assignmentId=0b218094-27f8-45ec-91b0-336954ba4bd6&projectId=051c06f1-75cc-4548-856d-4923ddaba0dc","83841FDF09C34415B9D0D2D8A33AABB4-2025-05-15-20-33-23","","null","","images/causal_sequence/museum_causal/museum_causal_ten.png","null","",""
"","","","","","image-button-response","32","145173","0.0-10.0-1.0-1.2","83841FDF09C34415B9D0D2D8A33AABB4","83841FDF09C34415B9D0D2D8A33AABB4","0b218094-27f8-45ec-91b0-336954ba4bd6","051c06f1-75cc-4548-856d-4923ddaba0dc","{""num_scrambled_semantic"":""8"",""num_scrambled_causal"":""4"",""num_scrambled_schematic"":""4"",""participantId"":""83841FDF09C34415B9D0D2D8A33AABB4"",""assignmentId"":""0b218094-27f8-45ec-91b0-336954ba4bd6"",""projectId"":""051c06f1-75cc-4548-856d-4923ddaba0dc""}","https://test12345.live/?num_scrambled_semantic=8&num_scrambled_causal=4&num_scrambled_schematic=4&participantId=83841FDF09C34415B9D0D2D8A33AABB4&assignmentId=0b218094-27f8-45ec-91b0-336954ba4bd6&projectId=051c06f1-75cc-4548-856d-4923ddaba0dc","83841FDF09C34415B9D0D2D8A33AABB4-2025-05-15-20-33-23","","2212","","images/causal_sequence/museum_causal/museum_causal_ten.png","0","",""
"","","","","","image-button-response","33","146979","0.0-10.0-1.0-2.2","83841FDF09C34415B9D0D2D8A33AABB4","83841FDF09C34415B9D0D2D8A33AABB4","0b218094-27f8-45ec-91b0-336954ba4bd6","051c06f1-75cc-4548-856d-4923ddaba0dc","{""num_scrambled_semantic"":""8"",""num_scrambled_causal"":""4"",""num_scrambled_schematic"":""4"",""participantId"":""83841FDF09C34415B9D0D2D8A33AABB4"",""assignmentId"":""0b218094-27f8-45ec-91b0-336954ba4bd6"",""projectId"":""051c06f1-75cc-4548-856d-4923ddaba0dc""}","https://test12345.live/?num_scrambled_semantic=8&num_scrambled_causal=4&num_scrambled_schematic=4&participantId=83841FDF09C34415B9D0D2D8A33AABB4&assignmentId=0b218094-27f8-45ec-91b0-336954ba4bd6&projectId=051c06f1-75cc-4548-856d-4923ddaba0dc","83841FDF09C34415B9D0D2D8A33AABB4-2025-05-15-20-33-23","","null","","[]","null","",""
"","","","","","image-button-response","34","151483","0.0-10.0-1.0-0.3","83841FDF09C34415B9D0D2D8A33AABB4","83841FDF09C34415B9D0D2D8A33AABB4","0b218094-27f8-45ec-91b0-336954ba4bd6","051c06f1-75cc-4548-856d-4923ddaba0dc","{""num_scrambled_semantic"":""8"",""num_scrambled_causal"":""4"",""num_scrambled_schematic"":""4"",""participantId"":""83841FDF09C34415B9D0D2D8A33AABB4"",""assignmentId"":""0b218094-27f8-45ec-91b0-336954ba4bd6"",""projectId"":""051c06f1-75cc-4548-856d-4923ddaba0dc""}","https://test12345.live/?num_scrambled_semantic=8&num_scrambled_causal=4&num_scrambled_schematic=4&participantId=83841FDF09C34415B9D0D2D8A33AABB4&assignmentId=0b218094-27f8-45ec-91b0-336954ba4bd6&projectId=051c06f1-75cc-4548-856d-4923ddaba0dc","83841FDF09C34415B9D0D2D8A33AABB4-2025-05-15-20-33-23","","null","","images/causal_sequence/museum_causal/museum_causal_6.png","null","",""
"","","","","","image-button-response","35","153213","0.0-10.0-1.0-1.3","83841FDF09C34415B9D0D2D8A33AABB4","83841FDF09C34415B9D0D2D8A33AABB4","0b218094-27f8-45ec-91b0-336954ba4bd6","051c06f1-75cc-4548-856d-4923ddaba0dc","{""num_scrambled_semantic"":""8"",""num_scrambled_causal"":""4"",""num_scrambled_schematic"":""4"",""participantId"":""83841FDF09C34415B9D0D2D8A33AABB4"",""assignmentId"":""0b218094-27f8-45ec-91b0-336954ba4bd6"",""projectId"":""051c06f1-75cc-4548-856d-4923ddaba0dc""}","https://test12345.live/?num_scrambled_semantic=8&num_scrambled_causal=4&num_scrambled_schematic=4&participantId=83841FDF09C34415B9D0D2D8A33AABB4&assignmentId=0b218094-27f8-45ec-91b0-336954ba4bd6&projectId=051c06f1-75cc-4548-856d-4923ddaba0dc","83841FDF09C34415B9D0D2D8A33AABB4-2025-05-15-20-33-23","","1728","","images/causal_sequence/museum_causal/museum_causal_6.png","0","",""
"","","","","","image-button-response","36","155018","0.0-10.0-1.0-2.3","83841FDF09C34415B9D0D2D8A33AABB4","83841FDF09C34415B9D0D2D8A33AABB4","0b218094-27f8-45ec-91b0-336954ba4bd6","051c06f1-75cc-4548-856d-4923ddaba0dc","{""num_scrambled_semantic"":""8"",""num_scrambled_causal"":""4"",""num_scrambled_schematic"":""4"",""participantId"":""83841FDF09C34415B9D0D2D8A33AABB4"",""assignmentId"":""0b218094-27f8-45ec-91b0-336954ba4bd6"",""projectId"":""051c06f1-75cc-4548-856d-4923ddaba0dc""}","https://test12345.live/?num_scrambled_semantic=8&num_scrambled_causal=4&num_scrambled_schematic=4&participantId=83841FDF09C34415B9D0D2D8A33AABB4&assignmentId=0b218094-27f8-45ec-91b0-336954ba4bd6&projectId=051c06f1-75cc-4548-856d-4923ddaba0dc","83841FDF09C34415B9D0D2D8A33AABB4-2025-05-15-20-33-23","","null","","[]","null","",""
"","","","","","image-button-response","37","159524","0.0-10.0-1.0-0.4","83841FDF09C34415B9D0D2D8A33AABB4","83841FDF09C34415B9D0D2D8A33AABB4","0b218094-27f8-45ec-91b0-336954ba4bd6","051c06f1-75cc-4548-856d-4923ddaba0dc","{""num_scrambled_semantic"":""8"",""num_scrambled_causal"":""4"",""num_scrambled_schematic"":""4"",""participantId"":""83841FDF09C34415B9D0D2D8A33AABB4"",""assignmentId"":""0b218094-27f8-45ec-91b0-336954ba4bd6"",""projectId"":""051c06f1-75cc-4548-856d-4923ddaba0dc""}","https://test12345.live/?num_scrambled_semantic=8&num_scrambled_causal=4&num_scrambled_schematic=4&participantId=83841FDF09C34415B9D0D2D8A33AABB4&assignmentId=0b218094-27f8-45ec-91b0-336954ba4bd6&projectId=051c06f1-75cc-4548-856d-4923ddaba0dc","83841FDF09C34415B9D0D2D8A33AABB4-2025-05-15-20-33-23","","null","","images/causal_sequence/museum_causal/museum_causal_5.png","null","",""
"","","","","","image-button-response","38","161257","0.0-10.0-1.0-1.4","83841FDF09C34415B9D0D2D8A33AABB4","83841FDF09C34415B9D0D2D8A33AABB4","0b218094-27f8-45ec-91b0-336954ba4bd6","051c06f1-75cc-4548-856d-4923ddaba0dc","{""num_scrambled_semantic"":""8"",""num_scrambled_causal"":""4"",""num_scrambled_schematic"":""4"",""participantId"":""83841FDF09C34415B9D0D2D8A33AABB4"",""assignmentId"":""0b218094-27f8-45ec-91b0-336954ba4bd6"",""projectId"":""051c06f1-75cc-4548-856d-4923ddaba0dc""}","https://test12345.live/?num_scrambled_semantic=8&num_scrambled_causal=4&num_scrambled_schematic=4&participantId=83841FDF09C34415B9D0D2D8A33AABB4&assignmentId=0b218094-27f8-45ec-91b0-336954ba4bd6&projectId=051c06f1-75cc-4548-856d-4923ddaba0dc","83841FDF09C34415B9D0D2D8A33AABB4-2025-05-15-20-33-23","","1731","","images/causal_sequence/museum_causal/museum_causal_5.png","0","",""
"","","","","","image-button-response","39","163058","0.0-10.0-1.0-2.4","83841FDF09C34415B9D0D2D8A33AABB4","83841FDF09C34415B9D0D2D8A33AABB4","0b218094-27f8-45ec-91b0-336954ba4bd6","051c06f1-75cc-4548-856d-4923ddaba0dc","{""num_scrambled_semantic"":""8"",""num_scrambled_causal"":""4"",""num_scrambled_schematic"":""4"",""participantId"":""83841FDF09C34415B9D0D2D8A33AABB4"",""assignmentId"":""0b218094-27f8-45ec-91b0-336954ba4bd6"",""projectId"":""051c06f1-75cc-4548-856d-4923ddaba0dc""}","https://test12345.live/?num_scrambled_semantic=8&num_scrambled_causal=4&num_scrambled_schematic=4&participantId=83841FDF09C34415B9D0D2D8A33AABB4&assignmentId=0b218094-27f8-45ec-91b0-336954ba4bd6&projectId=051c06f1-75cc-4548-856d-4923ddaba0dc","83841FDF09C34415B9D0D2D8A33AABB4-2025-05-15-20-33-23","","null","","[]","null","",""
"","","","","","image-button-response","40","167565","0.0-10.0-1.0-0.5","83841FDF09C34415B9D0D2D8A33AABB4","83841FDF09C34415B9D0D2D8A33AABB4","0b218094-27f8-45ec-91b0-336954ba4bd6","051c06f1-75cc-4548-856d-4923ddaba0dc","{""num_scrambled_semantic"":""8"",""num_scrambled_causal"":""4"",""num_scrambled_schematic"":""4"",""participantId"":""83841FDF09C34415B9D0D2D8A33AABB4"",""assignmentId"":""0b218094-27f8-45ec-91b0-336954ba4bd6"",""projectId"":""051c06f1-75cc-4548-856d-4923ddaba0dc""}","https://test12345.live/?num_scrambled_semantic=8&num_scrambled_causal=4&num_scrambled_schematic=4&participantId=83841FDF09C34415B9D0D2D8A33AABB4&assignmentId=0b218094-27f8-45ec-91b0-336954ba4bd6&projectId=051c06f1-75cc-4548-856d-4923ddaba0dc","83841FDF09C34415B9D0D2D8A33AABB4-2025-05-15-20-33-23","","null","","images/causal_sequence/museum_causal/museum_causal_4.png","null","",""
"","","","","","image-button-response","41","169824","0.0-10.0-1.0-1.5","83841FDF09C34415B9D0D2D8A33AABB4","83841FDF09C34415B9D0D2D8A33AABB4","0b218094-27f8-45ec-91b0-336954ba4bd6","051c06f1-75cc-4548-856d-4923ddaba0dc","{""num_scrambled_semantic"":""8"",""num_scrambled_causal"":""4"",""num_scrambled_schematic"":""4"",""participantId"":""83841FDF09C34415B9D0D2D8A33AABB4"",""assignmentId"":""0b218094-27f8-45ec-91b0-336954ba4bd6"",""projectId"":""051c06f1-75cc-4548-856d-4923ddaba0dc""}","https://test12345.live/?num_scrambled_semantic=8&num_scrambled_causal=4&num_scrambled_schematic=4&participantId=83841FDF09C34415B9D0D2D8A33AABB4&assignmentId=0b218094-27f8-45ec-91b0-336954ba4bd6&projectId=051c06f1-75cc-4548-856d-4923ddaba0dc","83841FDF09C34415B9D0D2D8A33AABB4-2025-05-15-20-33-23","","2258","","images/causal_sequence/museum_causal/museum_causal_4.png","1","",""
"","","","","","image-button-response","42","171631","0.0-10.0-1.0-2.5","83841FDF09C34415B9D0D2D8A33AABB4","83841FDF09C34415B9D0D2D8A33AABB4","0b218094-27f8-45ec-91b0-336954ba4bd6","051c06f1-75cc-4548-856d-4923ddaba0dc","{""num_scrambled_semantic"":""8"",""num_scrambled_causal"":""4"",""num_scrambled_schematic"":""4"",""participantId"":""83841FDF09C34415B9D0D2D8A33AABB4"",""assignmentId"":""0b218094-27f8-45ec-91b0-336954ba4bd6"",""projectId"":""051c06f1-75cc-4548-856d-4923ddaba0dc""}","https://test12345.live/?num_scrambled_semantic=8&num_scrambled_causal=4&num_scrambled_schematic=4&participantId=83841FDF09C34415B9D0D2D8A33AABB4&assignmentId=0b218094-27f8-45ec-91b0-336954ba4bd6&projectId=051c06f1-75cc-4548-856d-4923ddaba0dc","83841FDF09C34415B9D0D2D8A33AABB4-2025-05-15-20-33-23","","null","","[]","null","",""
"","","","","","image-button-response","43","176137","0.0-10.0-1.0-0.6","83841FDF09C34415B9D0D2D8A33AABB4","83841FDF09C34415B9D0D2D8A33AABB4","0b218094-27f8-45ec-91b0-336954ba4bd6","051c06f1-75cc-4548-856d-4923ddaba0dc","{""num_scrambled_semantic"":""8"",""num_scrambled_causal"":""4"",""num_scrambled_schematic"":""4"",""participantId"":""83841FDF09C34415B9D0D2D8A33AABB4"",""assignmentId"":""0b218094-27f8-45ec-91b0-336954ba4bd6"",""projectId"":""051c06f1-75cc-4548-856d-4923ddaba0dc""}","https://test12345.live/?num_scrambled_semantic=8&num_scrambled_causal=4&num_scrambled_schematic=4&participantId=83841FDF09C34415B9D0D2D8A33AABB4&assignmentId=0b218094-27f8-45ec-91b0-336954ba4bd6&projectId=051c06f1-75cc-4548-856d-4923ddaba0dc","83841FDF09C34415B9D0D2D8A33AABB4-2025-05-15-20-33-23","","null","","images/causal_sequence/museum_causal/museum_causal_8.png","null","",""
"","","","","","image-button-response","44","178231","0.0-10.0-1.0-1.6","83841FDF09C34415B9D0D2D8A33AABB4","83841FDF09C34415B9D0D2D8A33AABB4","0b218094-27f8-45ec-91b0-336954ba4bd6","051c06f1-75cc-4548-856d-4923ddaba0dc","{""num_scrambled_semantic"":""8"",""num_scrambled_causal"":""4"",""num_scrambled_schematic"":""4"",""participantId"":""83841FDF09C34415B9D0D2D8A33AABB4"",""assignmentId"":""0b218094-27f8-45ec-91b0-336954ba4bd6"",""projectId"":""051c06f1-75cc-4548-856d-4923ddaba0dc""}","https://test12345.live/?num_scrambled_semantic=8&num_scrambled_causal=4&num_scrambled_schematic=4&participantId=83841FDF09C34415B9D0D2D8A33AABB4&assignmentId=0b218094-27f8-45ec-91b0-336954ba4bd6&projectId=051c06f1-75cc-4548-856d-4923ddaba0dc","83841FDF09C34415B9D0D2D8A33AABB4-2025-05-15-20-33-23","","2094","","images/causal_sequence/museum_causal/museum_causal_8.png","0","",""
"","","","","","image-button-response","45","180037","0.0-10.0-1.0-2.6","83841FDF09C34415B9D0D2D8A33AABB4","83841FDF09C34415B9D0D2D8A33AABB4","0b218094-27f8-45ec-91b0-336954ba4bd6","051c06f1-75cc-4548-856d-4923ddaba0dc","{""num_scrambled_semantic"":""8"",""num_scrambled_causal"":""4"",""num_scrambled_schematic"":""4"",""participantId"":""83841FDF09C34415B9D0D2D8A33AABB4"",""assignmentId"":""0b218094-27f8-45ec-91b0-336954ba4bd6"",""projectId"":""051c06f1-75cc-4548-856d-4923ddaba0dc""}","https://test12345.live/?num_scrambled_semantic=8&num_scrambled_causal=4&num_scrambled_schematic=4&participantId=83841FDF09C34415B9D0D2D8A33AABB4&assignmentId=0b218094-27f8-45ec-91b0-336954ba4bd6&projectId=051c06f1-75cc-4548-856d-4923ddaba0dc","83841FDF09C34415B9D0D2D8A33AABB4-2025-05-15-20-33-23","","null","","[]","null","",""
"","","","","","image-button-response","46","184544","0.0-10.0-1.0-0.7","83841FDF09C34415B9D0D2D8A33AABB4","83841FDF09C34415B9D0D2D8A33AABB4","0b218094-27f8-45ec-91b0-336954ba4bd6","051c06f1-75cc-4548-856d-4923ddaba0dc","{""num_scrambled_semantic"":""8"",""num_scrambled_causal"":""4"",""num_scrambled_schematic"":""4"",""participantId"":""83841FDF09C34415B9D0D2D8A33AABB4"",""assignmentId"":""0b218094-27f8-45ec-91b0-336954ba4bd6"",""projectId"":""051c06f1-75cc-4548-856d-4923ddaba0dc""}","https://test12345.live/?num_scrambled_semantic=8&num_scrambled_causal=4&num_scrambled_schematic=4&participantId=83841FDF09C34415B9D0D2D8A33AABB4&assignmentId=0b218094-27f8-45ec-91b0-336954ba4bd6&projectId=051c06f1-75cc-4548-856d-4923ddaba0dc","83841FDF09C34415B9D0D2D8A33AABB4-2025-05-15-20-33-23","","null","","images/causal_sequence/museum_causal/museum_causal_1.png","null","",""
"","","","","","image-button-response","47","188322","0.0-10.0-1.0-1.7","83841FDF09C34415B9D0D2D8A33AABB4","83841FDF09C34415B9D0D2D8A33AABB4","0b218094-27f8-45ec-91b0-336954ba4bd6","051c06f1-75cc-4548-856d-4923ddaba0dc","{""num_scrambled_semantic"":""8"",""num_scrambled_causal"":""4"",""num_scrambled_schematic"":""4"",""participantId"":""83841FDF09C34415B9D0D2D8A33AABB4"",""assignmentId"":""0b218094-27f8-45ec-91b0-336954ba4bd6"",""projectId"":""051c06f1-75cc-4548-856d-4923ddaba0dc""}","https://test12345.live/?num_scrambled_semantic=8&num_scrambled_causal=4&num_scrambled_schematic=4&participantId=83841FDF09C34415B9D0D2D8A33AABB4&assignmentId=0b218094-27f8-45ec-91b0-336954ba4bd6&projectId=051c06f1-75cc-4548-856d-4923ddaba0dc","83841FDF09C34415B9D0D2D8A33AABB4-2025-05-15-20-33-23","","3776","","images/causal_sequence/museum_causal/museum_causal_1.png","0","",""
"","","","","","image-button-response","48","190124","0.0-10.0-1.0-2.7","83841FDF09C34415B9D0D2D8A33AABB4","83841FDF09C34415B9D0D2D8A33AABB4","0b218094-27f8-45ec-91b0-336954ba4bd6","051c06f1-75cc-4548-856d-4923ddaba0dc","{""num_scrambled_semantic"":""8"",""num_scrambled_causal"":""4"",""num_scrambled_schematic"":""4"",""participantId"":""83841FDF09C34415B9D0D2D8A33AABB4"",""assignmentId"":""0b218094-27f8-45ec-91b0-336954ba4bd6"",""projectId"":""051c06f1-75cc-4548-856d-4923ddaba0dc""}","https://test12345.live/?num_scrambled_semantic=8&num_scrambled_causal=4&num_scrambled_schematic=4&participantId=83841FDF09C34415B9D0D2D8A33AABB4&assignmentId=0b218094-27f8-45ec-91b0-336954ba4bd6&projectId=051c06f1-75cc-4548-856d-4923ddaba0dc","83841FDF09C34415B9D0D2D8A33AABB4-2025-05-15-20-33-23","","null","","[]","null","",""
"","","","","","image-button-response","49","194628","0.0-10.0-1.0-0.8","83841FDF09C34415B9D0D2D8A33AABB4","83841FDF09C34415B9D0D2D8A33AABB4","0b218094-27f8-45ec-91b0-336954ba4bd6","051c06f1-75cc-4548-856d-4923ddaba0dc","{""num_scrambled_semantic"":""8"",""num_scrambled_causal"":""4"",""num_scrambled_schematic"":""4"",""participantId"":""83841FDF09C34415B9D0D2D8A33AABB4"",""assignmentId"":""0b218094-27f8-45ec-91b0-336954ba4bd6"",""projectId"":""051c06f1-75cc-4548-856d-4923ddaba0dc""}","https://test12345.live/?num_scrambled_semantic=8&num_scrambled_causal=4&num_scrambled_schematic=4&participantId=83841FDF09C34415B9D0D2D8A33AABB4&assignmentId=0b218094-27f8-45ec-91b0-336954ba4bd6&projectId=051c06f1-75cc-4548-856d-4923ddaba0dc","83841FDF09C34415B9D0D2D8A33AABB4-2025-05-15-20-33-23","","null","","images/causal_sequence/museum_causal/museum_causal_9.png","null","",""
"","","","","","image-button-response","50","195211","0.0-10.0-1.0-1.8","83841FDF09C34415B9D0D2D8A33AABB4","83841FDF09C34415B9D0D2D8A33AABB4","0b218094-27f8-45ec-91b0-336954ba4bd6","051c06f1-75cc-4548-856d-4923ddaba0dc","{""num_scrambled_semantic"":""8"",""num_scrambled_causal"":""4"",""num_scrambled_schematic"":""4"",""participantId"":""83841FDF09C34415B9D0D2D8A33AABB4"",""assignmentId"":""0b218094-27f8-45ec-91b0-336954ba4bd6"",""projectId"":""051c06f1-75cc-4548-856d-4923ddaba0dc""}","https://test12345.live/?num_scrambled_semantic=8&num_scrambled_causal=4&num_scrambled_schematic=4&participantId=83841FDF09C34415B9D0D2D8A33AABB4&assignmentId=0b218094-27f8-45ec-91b0-336954ba4bd6&projectId=051c06f1-75cc-4548-856d-4923ddaba0dc","83841FDF09C34415B9D0D2D8A33AABB4-2025-05-15-20-33-23","","582","","images/causal_sequence/museum_causal/museum_causal_9.png","0","",""
"","","","","","image-button-response","51","197014","0.0-10.0-1.0-2.8","83841FDF09C34415B9D0D2D8A33AABB4","83841FDF09C34415B9D0D2D8A33AABB4","0b218094-27f8-45ec-91b0-336954ba4bd6","051c06f1-75cc-4548-856d-4923ddaba0dc","{""num_scrambled_semantic"":""8"",""num_scrambled_causal"":""4"",""num_scrambled_schematic"":""4"",""participantId"":""83841FDF09C34415B9D0D2D8A33AABB4"",""assignmentId"":""0b218094-27f8-45ec-91b0-336954ba4bd6"",""projectId"":""051c06f1-75cc-4548-856d-4923ddaba0dc""}","https://test12345.live/?num_scrambled_semantic=8&num_scrambled_causal=4&num_scrambled_schematic=4&participantId=83841FDF09C34415B9D0D2D8A33AABB4&assignmentId=0b218094-27f8-45ec-91b0-336954ba4bd6&projectId=051c06f1-75cc-4548-856d-4923ddaba0dc","83841FDF09C34415B9D0D2D8A33AABB4-2025-05-15-20-33-23","","null","","[]","null","",""
"","","","","","image-button-response","52","201521","0.0-10.0-1.0-0.9","83841FDF09C34415B9D0D2D8A33AABB4","83841FDF09C34415B9D0D2D8A33AABB4","0b218094-27f8-45ec-91b0-336954ba4bd6","051c06f1-75cc-4548-856d-4923ddaba0dc","{""num_scrambled_semantic"":""8"",""num_scrambled_causal"":""4"",""num_scrambled_schematic"":""4"",""participantId"":""83841FDF09C34415B9D0D2D8A33AABB4"",""assignmentId"":""0b218094-27f8-45ec-91b0-336954ba4bd6"",""projectId"":""051c06f1-75cc-4548-856d-4923ddaba0dc""}","https://test12345.live/?num_scrambled_semantic=8&num_scrambled_causal=4&num_scrambled_schematic=4&participantId=83841FDF09C34415B9D0D2D8A33AABB4&assignmentId=0b218094-27f8-45ec-91b0-336954ba4bd6&projectId=051c06f1-75cc-4548-856d-4923ddaba0dc","83841FDF09C34415B9D0D2D8A33AABB4-2025-05-15-20-33-23","","null","","images/causal_sequence/museum_causal/museum_causal_7.png","null","",""
"","","","","","image-button-response","53","203195","0.0-10.0-1.0-1.9","83841FDF09C34415B9D0D2D8A33AABB4","83841FDF09C34415B9D0D2D8A33AABB4","0b218094-27f8-45ec-91b0-336954ba4bd6","051c06f1-75cc-4548-856d-4923ddaba0dc","{""num_scrambled_semantic"":""8"",""num_scrambled_causal"":""4"",""num_scrambled_schematic"":""4"",""participantId"":""83841FDF09C34415B9D0D2D8A33AABB4"",""assignmentId"":""0b218094-27f8-45ec-91b0-336954ba4bd6"",""projectId"":""051c06f1-75cc-4548-856d-4923ddaba0dc""}","https://test12345.live/?num_scrambled_semantic=8&num_scrambled_causal=4&num_scrambled_schematic=4&participantId=83841FDF09C34415B9D0D2D8A33AABB4&assignmentId=0b218094-27f8-45ec-91b0-336954ba4bd6&projectId=051c06f1-75cc-4548-856d-4923ddaba0dc","83841FDF09C34415B9D0D2D8A33AABB4-2025-05-15-20-33-23","","1673","","images/causal_sequence/museum_causal/museum_causal_7.png","1","",""
"","","","","","image-button-response","54","205001","0.0-10.0-1.0-2.9","83841FDF09C34415B9D0D2D8A33AABB4","83841FDF09C34415B9D0D2D8A33AABB4","0b218094-27f8-45ec-91b0-336954ba4bd6","051c06f1-75cc-4548-856d-4923ddaba0dc","{""num_scrambled_semantic"":""8"",""num_scrambled_causal"":""4"",""num_scrambled_schematic"":""4"",""participantId"":""83841FDF09C34415B9D0D2D8A33AABB4"",""assignmentId"":""0b218094-27f8-45ec-91b0-336954ba4bd6"",""projectId"":""051c06f1-75cc-4548-856d-4923ddaba0dc""}","https://test12345.live/?num_scrambled_semantic=8&num_scrambled_causal=4&num_scrambled_schematic=4&participantId=83841FDF09C34415B9D0D2D8A33AABB4&assignmentId=0b218094-27f8-45ec-91b0-336954ba4bd6&projectId=051c06f1-75cc-4548-856d-4923ddaba0dc","83841FDF09C34415B9D0D2D8A33AABB4-2025-05-15-20-33-23","","null","","[]","null","",""
"","","","","","html-audio-response","55","227647","0.0-11.0","83841FDF09C34415B9D0D2D8A33AABB4","83841FDF09C34415B9D0D2D8A33AABB4","0b218094-27f8-45ec-91b0-336954ba4bd6","051c06f1-75cc-4548-856d-4923ddaba0dc","{""num_scrambled_semantic"":""8"",""num_scrambled_causal"":""4"",""num_scrambled_schematic"":""4"",""participantId"":""83841FDF09C34415B9D0D2D8A33AABB4"",""assignmentId"":""0b218094-27f8-45ec-91b0-336954ba4bd6"",""projectId"":""051c06f1-75cc-4548-856d-4923ddaba0dc""}","https://test12345.live/?num_scrambled_semantic=8&num_scrambled_causal=4&num_scrambled_schematic=4&participantId=83841FDF09C34415B9D0D2D8A33AABB4&assignmentId=0b218094-27f8-45ec-91b0-336954ba4bd6&projectId=051c06f1-75cc-4548-856d-4923ddaba0dc","83841FDF09C34415B9D0D2D8A33AABB4-2025-05-15-20-33-23","","14008","","[""<span style=\""color: red; font-size: 24px\""> NOW RECORDING</span><p>Please say out loud all the images you saw, as many as you can remember. The images can be said in any order.</p>""]","","1","museum_causal"
"","","","","","image-button-response","56","233654","0.0-12.0-0.0","83841FDF09C34415B9D0D2D8A33AABB4","83841FDF09C34415B9D0D2D8A33AABB4","0b218094-27f8-45ec-91b0-336954ba4bd6","051c06f1-75cc-4548-856d-4923ddaba0dc","{""num_scrambled_semantic"":""8"",""num_scrambled_causal"":""4"",""num_scrambled_schematic"":""4"",""participantId"":""83841FDF09C34415B9D0D2D8A33AABB4"",""assignmentId"":""0b218094-27f8-45ec-91b0-336954ba4bd6"",""projectId"":""051c06f1-75cc-4548-856d-4923ddaba0dc""}","https://test12345.live/?num_scrambled_semantic=8&num_scrambled_causal=4&num_scrambled_schematic=4&participantId=83841FDF09C34415B9D0D2D8A33AABB4&assignmentId=0b218094-27f8-45ec-91b0-336954ba4bd6&projectId=051c06f1-75cc-4548-856d-4923ddaba0dc","83841FDF09C34415B9D0D2D8A33AABB4-2025-05-15-20-33-23","","null","","images/semantic_sequence/maintaining_a_car_semantic/maintaining_a_car_semantic_0.png","null","",""
"","","","","","image-button-response","57","238156","0.0-12.0-1.0-0.0","83841FDF09C34415B9D0D2D8A33AABB4","83841FDF09C34415B9D0D2D8A33AABB4","0b218094-27f8-45ec-91b0-336954ba4bd6","051c06f1-75cc-4548-856d-4923ddaba0dc","{""num_scrambled_semantic"":""8"",""num_scrambled_causal"":""4"",""num_scrambled_schematic"":""4"",""participantId"":""83841FDF09C34415B9D0D2D8A33AABB4"",""assignmentId"":""0b218094-27f8-45ec-91b0-336954ba4bd6"",""projectId"":""051c06f1-75cc-4548-856d-4923ddaba0dc""}","https://test12345.live/?num_scrambled_semantic=8&num_scrambled_causal=4&num_scrambled_schematic=4&participantId=83841FDF09C34415B9D0D2D8A33AABB4&assignmentId=0b218094-27f8-45ec-91b0-336954ba4bd6&projectId=051c06f1-75cc-4548-856d-4923ddaba0dc","83841FDF09C34415B9D0D2D8A33AABB4-2025-05-15-20-33-23","","null","","images/semantic_sequence/maintaining_a_car_semantic/maintaining_a_car_semantic_4.png","null","",""
"","","","","","image-button-response","58","239535","0.0-12.0-1.0-1.0","83841FDF09C34415B9D0D2D8A33AABB4","83841FDF09C34415B9D0D2D8A33AABB4","0b218094-27f8-45ec-91b0-336954ba4bd6","051c06f1-75cc-4548-856d-4923ddaba0dc","{""num_scrambled_semantic"":""8"",""num_scrambled_causal"":""4"",""num_scrambled_schematic"":""4"",""participantId"":""83841FDF09C34415B9D0D2D8A33AABB4"",""assignmentId"":""0b218094-27f8-45ec-91b0-336954ba4bd6"",""projectId"":""051c06f1-75cc-4548-856d-4923ddaba0dc""}","https://test12345.live/?num_scrambled_semantic=8&num_scrambled_causal=4&num_scrambled_schematic=4&participantId=83841FDF09C34415B9D0D2D8A33AABB4&assignmentId=0b218094-27f8-45ec-91b0-336954ba4bd6&projectId=051c06f1-75cc-4548-856d-4923ddaba0dc","83841FDF09C34415B9D0D2D8A33AABB4-2025-05-15-20-33-23","","1379","","images/semantic_sequence/maintaining_a_car_semantic/maintaining_a_car_semantic_4.png","0","",""
"","","","","","image-button-response","59","241342","0.0-12.0-1.0-2.0","83841FDF09C34415B9D0D2D8A33AABB4","83841FDF09C34415B9D0D2D8A33AABB4","0b218094-27f8-45ec-91b0-336954ba4bd6","051c06f1-75cc-4548-856d-4923ddaba0dc","{""num_scrambled_semantic"":""8"",""num_scrambled_causal"":""4"",""num_scrambled_schematic"":""4"",""participantId"":""83841FDF09C34415B9D0D2D8A33AABB4"",""assignmentId"":""0b218094-27f8-45ec-91b0-336954ba4bd6"",""projectId"":""051c06f1-75cc-4548-856d-4923ddaba0dc""}","https://test12345.live/?num_scrambled_semantic=8&num_scrambled_causal=4&num_scrambled_schematic=4&participantId=83841FDF09C34415B9D0D2D8A33AABB4&assignmentId=0b218094-27f8-45ec-91b0-336954ba4bd6&projectId=051c06f1-75cc-4548-856d-4923ddaba0dc","83841FDF09C34415B9D0D2D8A33AABB4-2025-05-15-20-33-23","","null","","[]","null","",""
"","","","","","image-button-response","60","245848","0.0-12.0-1.0-0.1","83841FDF09C34415B9D0D2D8A33AABB4","83841FDF09C34415B9D0D2D8A33AABB4","0b218094-27f8-45ec-91b0-336954ba4bd6","051c06f1-75cc-4548-856d-4923ddaba0dc","{""num_scrambled_semantic"":""8"",""num_scrambled_causal"":""4"",""num_scrambled_schematic"":""4"",""participantId"":""83841FDF09C34415B9D0D2D8A33AABB4"",""assignmentId"":""0b218094-27f8-45ec-91b0-336954ba4bd6"",""projectId"":""051c06f1-75cc-4548-856d-4923ddaba0dc""}","https://test12345.live/?num_scrambled_semantic=8&num_scrambled_causal=4&num_scrambled_schematic=4&participantId=83841FDF09C34415B9D0D2D8A33AABB4&assignmentId=0b218094-27f8-45ec-91b0-336954ba4bd6&projectId=051c06f1-75cc-4548-856d-4923ddaba0dc","83841FDF09C34415B9D0D2D8A33AABB4-2025-05-15-20-33-23","","null","","images/semantic_sequence/maintaining_a_car_semantic/maintaining_a_car_semantic_1.png","null","",""
"","","","","","image-button-response","61","247055","0.0-12.0-1.0-1.1","83841FDF09C34415B9D0D2D8A33AABB4","83841FDF09C34415B9D0D2D8A33AABB4","0b218094-27f8-45ec-91b0-336954ba4bd6","051c06f1-75cc-4548-856d-4923ddaba0dc","{""num_scrambled_semantic"":""8"",""num_scrambled_causal"":""4"",""num_scrambled_schematic"":""4"",""participantId"":""83841FDF09C34415B9D0D2D8A33AABB4"",""assignmentId"":""0b218094-27f8-45ec-91b0-336954ba4bd6"",""projectId"":""051c06f1-75cc-4548-856d-4923ddaba0dc""}","https://test12345.live/?num_scrambled_semantic=8&num_scrambled_causal=4&num_scrambled_schematic=4&participantId=83841FDF09C34415B9D0D2D8A33AABB4&assignmentId=0b218094-27f8-45ec-91b0-336954ba4bd6&projectId=051c06f1-75cc-4548-856d-4923ddaba0dc","83841FDF09C34415B9D0D2D8A33AABB4-2025-05-15-20-33-23","","1205","","images/semantic_sequence/maintaining_a_car_semantic/maintaining_a_car_semantic_1.png","0","",""
"","","","","","image-button-response","62","248860","0.0-12.0-1.0-2.1","83841FDF09C34415B9D0D2D8A33AABB4","83841FDF09C34415B9D0D2D8A33AABB4","0b218094-27f8-45ec-91b0-336954ba4bd6","051c06f1-75cc-4548-856d-4923ddaba0dc","{""num_scrambled_semantic"":""8"",""num_scrambled_causal"":""4"",""num_scrambled_schematic"":""4"",""participantId"":""83841FDF09C34415B9D0D2D8A33AABB4"",""assignmentId"":""0b218094-27f8-45ec-91b0-336954ba4bd6"",""projectId"":""051c06f1-75cc-4548-856d-4923ddaba0dc""}","https://test12345.live/?num_scrambled_semantic=8&num_scrambled_causal=4&num_scrambled_schematic=4&participantId=83841FDF09C34415B9D0D2D8A33AABB4&assignmentId=0b218094-27f8-45ec-91b0-336954ba4bd6&projectId=051c06f1-75cc-4548-856d-4923ddaba0dc","83841FDF09C34415B9D0D2D8A33AABB4-2025-05-15-20-33-23","","null","","[]","null","",""
"","","","","","image-button-response","63","253364","0.0-12.0-1.0-0.2","83841FDF09C34415B9D0D2D8A33AABB4","83841FDF09C34415B9D0D2D8A33AABB4","0b218094-27f8-45ec-91b0-336954ba4bd6","051c06f1-75cc-4548-856d-4923ddaba0dc","{""num_scrambled_semantic"":""8"",""num_scrambled_causal"":""4"",""num_scrambled_schematic"":""4"",""participantId"":""83841FDF09C34415B9D0D2D8A33AABB4"",""assignmentId"":""0b218094-27f8-45ec-91b0-336954ba4bd6"",""projectId"":""051c06f1-75cc-4548-856d-4923ddaba0dc""}","https://test12345.live/?num_scrambled_semantic=8&num_scrambled_causal=4&num_scrambled_schematic=4&participantId=83841FDF09C34415B9D0D2D8A33AABB4&assignmentId=0b218094-27f8-45ec-91b0-336954ba4bd6&projectId=051c06f1-75cc-4548-856d-4923ddaba0dc","83841FDF09C34415B9D0D2D8A33AABB4-2025-05-15-20-33-23","","null","","images/semantic_sequence/maintaining_a_car_semantic/maintaining_a_car_semantic_7.png","null","",""
"","","","","","image-button-response","64","257368","0.0-12.0-1.0-1.2","83841FDF09C34415B9D0D2D8A33AABB4","83841FDF09C34415B9D0D2D8A33AABB4","0b218094-27f8-45ec-91b0-336954ba4bd6","051c06f1-75cc-4548-856d-4923ddaba0dc","{""num_scrambled_semantic"":""8"",""num_scrambled_causal"":""4"",""num_scrambled_schematic"":""4"",""participantId"":""83841FDF09C34415B9D0D2D8A33AABB4"",""assignmentId"":""0b218094-27f8-45ec-91b0-336954ba4bd6"",""projectId"":""051c06f1-75cc-4548-856d-4923ddaba0dc""}","https://test12345.live/?num_scrambled_semantic=8&num_scrambled_causal=4&num_scrambled_schematic=4&participantId=83841FDF09C34415B9D0D2D8A33AABB4&assignmentId=0b218094-27f8-45ec-91b0-336954ba4bd6&projectId=051c06f1-75cc-4548-856d-4923ddaba0dc","83841FDF09C34415B9D0D2D8A33AABB4-2025-05-15-20-33-23","","null","","images/semantic_sequence/maintaining_a_car_semantic/maintaining_a_car_semantic_7.png","null","",""
"","","","","","image-button-response","65","259172","0.0-12.0-1.0-2.2","83841FDF09C34415B9D0D2D8A33AABB4","83841FDF09C34415B9D0D2D8A33AABB4","0b218094-27f8-45ec-91b0-336954ba4bd6","051c06f1-75cc-4548-856d-4923ddaba0dc","{""num_scrambled_semantic"":""8"",""num_scrambled_causal"":""4"",""num_scrambled_schematic"":""4"",""participantId"":""83841FDF09C34415B9D0D2D8A33AABB4"",""assignmentId"":""0b218094-27f8-45ec-91b0-336954ba4bd6"",""projectId"":""051c06f1-75cc-4548-856d-4923ddaba0dc""}","https://test12345.live/?num_scrambled_semantic=8&num_scrambled_causal=4&num_scrambled_schematic=4&participantId=83841FDF09C34415B9D0D2D8A33AABB4&assignmentId=0b218094-27f8-45ec-91b0-336954ba4bd6&projectId=051c06f1-75cc-4548-856d-4923ddaba0dc","83841FDF09C34415B9D0D2D8A33AABB4-2025-05-15-20-33-23","","null","","[]","null","",""
"","","","","","image-button-response","66","263680","0.0-12.0-1.0-0.3","83841FDF09C34415B9D0D2D8A33AABB4","83841FDF09C34415B9D0D2D8A33AABB4","0b218094-27f8-45ec-91b0-336954ba4bd6","051c06f1-75cc-4548-856d-4923ddaba0dc","{""num_scrambled_semantic"":""8"",""num_scrambled_causal"":""4"",""num_scrambled_schematic"":""4"",""participantId"":""83841FDF09C34415B9D0D2D8A33AABB4"",""assignmentId"":""0b218094-27f8-45ec-91b0-336954ba4bd6"",""projectId"":""051c06f1-75cc-4548-856d-4923ddaba0dc""}","https://test12345.live/?num_scrambled_semantic=8&num_scrambled_causal=4&num_scrambled_schematic=4&participantId=83841FDF09C34415B9D0D2D8A33AABB4&assignmentId=0b218094-27f8-45ec-91b0-336954ba4bd6&projectId=051c06f1-75cc-4548-856d-4923ddaba0dc","83841FDF09C34415B9D0D2D8A33AABB4-2025-05-15-20-33-23","","null","","images/semantic_sequence/maintaining_a_car_semantic/maintaining_a_car_semantic_8.png","null","",""
"","","","","","image-button-response","67","267684","0.0-12.0-1.0-1.3","83841FDF09C34415B9D0D2D8A33AABB4","83841FDF09C34415B9D0D2D8A33AABB4","0b218094-27f8-45ec-91b0-336954ba4bd6","051c06f1-75cc-4548-856d-4923ddaba0dc","{""num_scrambled_semantic"":""8"",""num_scrambled_causal"":""4"",""num_scrambled_schematic"":""4"",""participantId"":""83841FDF09C34415B9D0D2D8A33AABB4"",""assignmentId"":""0b218094-27f8-45ec-91b0-336954ba4bd6"",""projectId"":""051c06f1-75cc-4548-856d-4923ddaba0dc""}","https://test12345.live/?num_scrambled_semantic=8&num_scrambled_causal=4&num_scrambled_schematic=4&participantId=83841FDF09C34415B9D0D2D8A33AABB4&assignmentId=0b218094-27f8-45ec-91b0-336954ba4bd6&projectId=051c06f1-75cc-4548-856d-4923ddaba0dc","83841FDF09C34415B9D0D2D8A33AABB4-2025-05-15-20-33-23","","null","","images/semantic_sequence/maintaining_a_car_semantic/maintaining_a_car_semantic_8.png","null","",""
"","","","","","image-button-response","68","269489","0.0-12.0-1.0-2.3","83841FDF09C34415B9D0D2D8A33AABB4","83841FDF09C34415B9D0D2D8A33AABB4","0b218094-27f8-45ec-91b0-336954ba4bd6","051c06f1-75cc-4548-856d-4923ddaba0dc","{""num_scrambled_semantic"":""8"",""num_scrambled_causal"":""4"",""num_scrambled_schematic"":""4"",""participantId"":""83841FDF09C34415B9D0D2D8A33AABB4"",""assignmentId"":""0b218094-27f8-45ec-91b0-336954ba4bd6"",""projectId"":""051c06f1-75cc-4548-856d-4923ddaba0dc""}","https://test12345.live/?num_scrambled_semantic=8&num_scrambled_causal=4&num_scrambled_schematic=4&participantId=83841FDF09C34415B9D0D2D8A33AABB4&assignmentId=0b218094-27f8-45ec-91b0-336954ba4bd6&projectId=051c06f1-75cc-4548-856d-4923ddaba0dc","83841FDF09C34415B9D0D2D8A33AABB4-2025-05-15-20-33-23","","null","","[]","null","",""
"","","","","","image-button-response","69","273996","0.0-12.0-1.0-0.4","83841FDF09C34415B9D0D2D8A33AABB4","83841FDF09C34415B9D0D2D8A33AABB4","0b218094-27f8-45ec-91b0-336954ba4bd6","051c06f1-75cc-4548-856d-4923ddaba0dc","{""num_scrambled_semantic"":""8"",""num_scrambled_causal"":""4"",""num_scrambled_schematic"":""4"",""participantId"":""83841FDF09C34415B9D0D2D8A33AABB4"",""assignmentId"":""0b218094-27f8-45ec-91b0-336954ba4bd6"",""projectId"":""051c06f1-75cc-4548-856d-4923ddaba0dc""}","https://test12345.live/?num_scrambled_semantic=8&num_scrambled_causal=4&num_scrambled_schematic=4&participantId=83841FDF09C34415B9D0D2D8A33AABB4&assignmentId=0b218094-27f8-45ec-91b0-336954ba4bd6&projectId=051c06f1-75cc-4548-856d-4923ddaba0dc","83841FDF09C34415B9D0D2D8A33AABB4-2025-05-15-20-33-23","","null","","images/semantic_sequence/maintaining_a_car_semantic/maintaining_a_car_semantic_ten.png","null","",""
"","","","","","image-button-response","70","274957","0.0-12.0-1.0-1.4","83841FDF09C34415B9D0D2D8A33AABB4","83841FDF09C34415B9D0D2D8A33AABB4","0b218094-27f8-45ec-91b0-336954ba4bd6","051c06f1-75cc-4548-856d-4923ddaba0dc","{""num_scrambled_semantic"":""8"",""num_scrambled_causal"":""4"",""num_scrambled_schematic"":""4"",""participantId"":""83841FDF09C34415B9D0D2D8A33AABB4"",""assignmentId"":""0b218094-27f8-45ec-91b0-336954ba4bd6"",""projectId"":""051c06f1-75cc-4548-856d-4923ddaba0dc""}","https://test12345.live/?num_scrambled_semantic=8&num_scrambled_causal=4&num_scrambled_schematic=4&participantId=83841FDF09C34415B9D0D2D8A33AABB4&assignmentId=0b218094-27f8-45ec-91b0-336954ba4bd6&projectId=051c06f1-75cc-4548-856d-4923ddaba0dc","83841FDF09C34415B9D0D2D8A33AABB4-2025-05-15-20-33-23","","959","","images/semantic_sequence/maintaining_a_car_semantic/maintaining_a_car_semantic_ten.png","0","",""
"","","","","","image-button-response","71","276762","0.0-12.0-1.0-2.4","83841FDF09C34415B9D0D2D8A33AABB4","83841FDF09C34415B9D0D2D8A33AABB4","0b218094-27f8-45ec-91b0-336954ba4bd6","051c06f1-75cc-4548-856d-4923ddaba0dc","{""num_scrambled_semantic"":""8"",""num_scrambled_causal"":""4"",""num_scrambled_schematic"":""4"",""participantId"":""83841FDF09C34415B9D0D2D8A33AABB4"",""assignmentId"":""0b218094-27f8-45ec-91b0-336954ba4bd6"",""projectId"":""051c06f1-75cc-4548-856d-4923ddaba0dc""}","https://test12345.live/?num_scrambled_semantic=8&num_scrambled_causal=4&num_scrambled_schematic=4&participantId=83841FDF09C34415B9D0D2D8A33AABB4&assignmentId=0b218094-27f8-45ec-91b0-336954ba4bd6&projectId=051c06f1-75cc-4548-856d-4923ddaba0dc","83841FDF09C34415B9D0D2D8A33AABB4-2025-05-15-20-33-23","","null","","[]","null","",""
"","","","","","image-button-response","72","281268","0.0-12.0-1.0-0.5","83841FDF09C34415B9D0D2D8A33AABB4","83841FDF09C34415B9D0D2D8A33AABB4","0b218094-27f8-45ec-91b0-336954ba4bd6","051c06f1-75cc-4548-856d-4923ddaba0dc","{""num_scrambled_semantic"":""8"",""num_scrambled_causal"":""4"",""num_scrambled_schematic"":""4"",""participantId"":""83841FDF09C34415B9D0D2D8A33AABB4"",""assignmentId"":""0b218094-27f8-45ec-91b0-336954ba4bd6"",""projectId"":""051c06f1-75cc-4548-856d-4923ddaba0dc""}","https://test12345.live/?num_scrambled_semantic=8&num_scrambled_causal=4&num_scrambled_schematic=4&participantId=83841FDF09C34415B9D0D2D8A33AABB4&assignmentId=0b218094-27f8-45ec-91b0-336954ba4bd6&projectId=051c06f1-75cc-4548-856d-4923ddaba0dc","83841FDF09C34415B9D0D2D8A33AABB4-2025-05-15-20-33-23","","null","","images/semantic_sequence/maintaining_a_car_semantic/maintaining_a_car_semantic_2.png","null","",""
"","","","","","image-button-response","73","282523","0.0-12.0-1.0-1.5","83841FDF09C34415B9D0D2D8A33AABB4","83841FDF09C34415B9D0D2D8A33AABB4","0b218094-27f8-45ec-91b0-336954ba4bd6","051c06f1-75cc-4548-856d-4923ddaba0dc","{""num_scrambled_semantic"":""8"",""num_scrambled_causal"":""4"",""num_scrambled_schematic"":""4"",""participantId"":""83841FDF09C34415B9D0D2D8A33AABB4"",""assignmentId"":""0b218094-27f8-45ec-91b0-336954ba4bd6"",""projectId"":""051c06f1-75cc-4548-856d-4923ddaba0dc""}","https://test12345.live/?num_scrambled_semantic=8&num_scrambled_causal=4&num_scrambled_schematic=4&participantId=83841FDF09C34415B9D0D2D8A33AABB4&assignmentId=0b218094-27f8-45ec-91b0-336954ba4bd6&projectId=051c06f1-75cc-4548-856d-4923ddaba0dc","83841FDF09C34415B9D0D2D8A33AABB4-2025-05-15-20-33-23","","1253","","images/semantic_sequence/maintaining_a_car_semantic/maintaining_a_car_semantic_2.png","0","",""
"","","","","","image-button-response","74","284325","0.0-12.0-1.0-2.5","83841FDF09C34415B9D0D2D8A33AABB4","83841FDF09C34415B9D0D2D8A33AABB4","0b218094-27f8-45ec-91b0-336954ba4bd6","051c06f1-75cc-4548-856d-4923ddaba0dc","{""num_scrambled_semantic"":""8"",""num_scrambled_causal"":""4"",""num_scrambled_schematic"":""4"",""participantId"":""83841FDF09C34415B9D0D2D8A33AABB4"",""assignmentId"":""0b218094-27f8-45ec-91b0-336954ba4bd6"",""projectId"":""051c06f1-75cc-4548-856d-4923ddaba0dc""}","https://test12345.live/?num_scrambled_semantic=8&num_scrambled_causal=4&num_scrambled_schematic=4&participantId=83841FDF09C34415B9D0D2D8A33AABB4&assignmentId=0b218094-27f8-45ec-91b0-336954ba4bd6&projectId=051c06f1-75cc-4548-856d-4923ddaba0dc","83841FDF09C34415B9D0D2D8A33AABB4-2025-05-15-20-33-23","","null","","[]","null","",""
"","","","","","image-button-response","75","288828","0.0-12.0-1.0-0.6","83841FDF09C34415B9D0D2D8A33AABB4","83841FDF09C34415B9D0D2D8A33AABB4","0b218094-27f8-45ec-91b0-336954ba4bd6","051c06f1-75cc-4548-856d-4923ddaba0dc","{""num_scrambled_semantic"":""8"",""num_scrambled_causal"":""4"",""num_scrambled_schematic"":""4"",""participantId"":""83841FDF09C34415B9D0D2D8A33AABB4"",""assignmentId"":""0b218094-27f8-45ec-91b0-336954ba4bd6"",""projectId"":""051c06f1-75cc-4548-856d-4923ddaba0dc""}","https://test12345.live/?num_scrambled_semantic=8&num_scrambled_causal=4&num_scrambled_schematic=4&participantId=83841FDF09C34415B9D0D2D8A33AABB4&assignmentId=0b218094-27f8-45ec-91b0-336954ba4bd6&projectId=051c06f1-75cc-4548-856d-4923ddaba0dc","83841FDF09C34415B9D0D2D8A33AABB4-2025-05-15-20-33-23","","null","","images/semantic_sequence/maintaining_a_car_semantic/maintaining_a_car_semantic_6.png","null","",""
"","","","","","image-button-response","76","290083","0.0-12.0-1.0-1.6","83841FDF09C34415B9D0D2D8A33AABB4","83841FDF09C34415B9D0D2D8A33AABB4","0b218094-27f8-45ec-91b0-336954ba4bd6","051c06f1-75cc-4548-856d-4923ddaba0dc","{""num_scrambled_semantic"":""8"",""num_scrambled_causal"":""4"",""num_scrambled_schematic"":""4"",""participantId"":""83841FDF09C34415B9D0D2D8A33AABB4"",""assignmentId"":""0b218094-27f8-45ec-91b0-336954ba4bd6"",""projectId"":""051c06f1-75cc-4548-856d-4923ddaba0dc""}","https://test12345.live/?num_scrambled_semantic=8&num_scrambled_causal=4&num_scrambled_schematic=4&participantId=83841FDF09C34415B9D0D2D8A33AABB4&assignmentId=0b218094-27f8-45ec-91b0-336954ba4bd6&projectId=051c06f1-75cc-4548-856d-4923ddaba0dc","83841FDF09C34415B9D0D2D8A33AABB4-2025-05-15-20-33-23","","1253","","images/semantic_sequence/maintaining_a_car_semantic/maintaining_a_car_semantic_6.png","0","",""
"","","","","","image-button-response","77","291888","0.0-12.0-1.0-2.6","83841FDF09C34415B9D0D2D8A33AABB4","83841FDF09C34415B9D0D2D8A33AABB4","0b218094-27f8-45ec-91b0-336954ba4bd6","051c06f1-75cc-4548-856d-4923ddaba0dc","{""num_scrambled_semantic"":""8"",""num_scrambled_causal"":""4"",""num_scrambled_schematic"":""4"",""participantId"":""83841FDF09C34415B9D0D2D8A33AABB4"",""assignmentId"":""0b218094-27f8-45ec-91b0-336954ba4bd6"",""projectId"":""051c06f1-75cc-4548-856d-4923ddaba0dc""}","https://test12345.live/?num_scrambled_semantic=8&num_scrambled_causal=4&num_scrambled_schematic=4&participantId=83841FDF09C34415B9D0D2D8A33AABB4&assignmentId=0b218094-27f8-45ec-91b0-336954ba4bd6&projectId=051c06f1-75cc-4548-856d-4923ddaba0dc","83841FDF09C34415B9D0D2D8A33AABB4-2025-05-15-20-33-23","","null","","[]","null","",""
"","","","","","image-button-response","78","296395","0.0-12.0-1.0-0.7","83841FDF09C34415B9D0D2D8A33AABB4","83841FDF09C34415B9D0D2D8A33AABB4","0b218094-27f8-45ec-91b0-336954ba4bd6","051c06f1-75cc-4548-856d-4923ddaba0dc","{""num_scrambled_semantic"":""8"",""num_scrambled_causal"":""4"",""num_scrambled_schematic"":""4"",""participantId"":""83841FDF09C34415B9D0D2D8A33AABB4"",""assignmentId"":""0b218094-27f8-45ec-91b0-336954ba4bd6"",""projectId"":""051c06f1-75cc-4548-856d-4923ddaba0dc""}","https://test12345.live/?num_scrambled_semantic=8&num_scrambled_causal=4&num_scrambled_schematic=4&participantId=83841FDF09C34415B9D0D2D8A33AABB4&assignmentId=0b218094-27f8-45ec-91b0-336954ba4bd6&projectId=051c06f1-75cc-4548-856d-4923ddaba0dc","83841FDF09C34415B9D0D2D8A33AABB4-2025-05-15-20-33-23","","null","","images/semantic_sequence/maintaining_a_car_semantic/maintaining_a_car_semantic_9.png","null","",""
"","","","","","image-button-response","79","297382","0.0-12.0-1.0-1.7","83841FDF09C34415B9D0D2D8A33AABB4","83841FDF09C34415B9D0D2D8A33AABB4","0b218094-27f8-45ec-91b0-336954ba4bd6","051c06f1-75cc-4548-856d-4923ddaba0dc","{""num_scrambled_semantic"":""8"",""num_scrambled_causal"":""4"",""num_scrambled_schematic"":""4"",""participantId"":""83841FDF09C34415B9D0D2D8A33AABB4"",""assignmentId"":""0b218094-27f8-45ec-91b0-336954ba4bd6"",""projectId"":""051c06f1-75cc-4548-856d-4923ddaba0dc""}","https://test12345.live/?num_scrambled_semantic=8&num_scrambled_causal=4&num_scrambled_schematic=4&participantId=83841FDF09C34415B9D0D2D8A33AABB4&assignmentId=0b218094-27f8-45ec-91b0-336954ba4bd6&projectId=051c06f1-75cc-4548-856d-4923ddaba0dc","83841FDF09C34415B9D0D2D8A33AABB4-2025-05-15-20-33-23","","985","","images/semantic_sequence/maintaining_a_car_semantic/maintaining_a_car_semantic_9.png","0","",""
"","","","","","image-button-response","80","299183","0.0-12.0-1.0-2.7","83841FDF09C34415B9D0D2D8A33AABB4","83841FDF09C34415B9D0D2D8A33AABB4","0b218094-27f8-45ec-91b0-336954ba4bd6","051c06f1-75cc-4548-856d-4923ddaba0dc","{""num_scrambled_semantic"":""8"",""num_scrambled_causal"":""4"",""num_scrambled_schematic"":""4"",""participantId"":""83841FDF09C34415B9D0D2D8A33AABB4"",""assignmentId"":""0b218094-27f8-45ec-91b0-336954ba4bd6"",""projectId"":""051c06f1-75cc-4548-856d-4923ddaba0dc""}","https://test12345.live/?num_scrambled_semantic=8&num_scrambled_causal=4&num_scrambled_schematic=4&participantId=83841FDF09C34415B9D0D2D8A33AABB4&assignmentId=0b218094-27f8-45ec-91b0-336954ba4bd6&projectId=051c06f1-75cc-4548-856d-4923ddaba0dc","83841FDF09C34415B9D0D2D8A33AABB4-2025-05-15-20-33-23","","null","","[]","null","",""
"","","","","","image-button-response","81","303688","0.0-12.0-1.0-0.8","83841FDF09C34415B9D0D2D8A33AABB4","83841FDF09C34415B9D0D2D8A33AABB4","0b218094-27f8-45ec-91b0-336954ba4bd6","051c06f1-75cc-4548-856d-4923ddaba0dc","{""num_scrambled_semantic"":""8"",""num_scrambled_causal"":""4"",""num_scrambled_schematic"":""4"",""participantId"":""83841FDF09C34415B9D0D2D8A33AABB4"",""assignmentId"":""0b218094-27f8-45ec-91b0-336954ba4bd6"",""projectId"":""051c06f1-75cc-4548-856d-4923ddaba0dc""}","https://test12345.live/?num_scrambled_semantic=8&num_scrambled_causal=4&num_scrambled_schematic=4&participantId=83841FDF09C34415B9D0D2D8A33AABB4&assignmentId=0b218094-27f8-45ec-91b0-336954ba4bd6&projectId=051c06f1-75cc-4548-856d-4923ddaba0dc","83841FDF09C34415B9D0D2D8A33AABB4-2025-05-15-20-33-23","","null","","images/semantic_sequence/maintaining_a_car_semantic/maintaining_a_car_semantic_5.png","null","",""
"","","","","","image-button-response","82","305107","0.0-12.0-1.0-1.8","83841FDF09C34415B9D0D2D8A33AABB4","83841FDF09C34415B9D0D2D8A33AABB4","0b218094-27f8-45ec-91b0-336954ba4bd6","051c06f1-75cc-4548-856d-4923ddaba0dc","{""num_scrambled_semantic"":""8"",""num_scrambled_causal"":""4"",""num_scrambled_schematic"":""4"",""participantId"":""83841FDF09C34415B9D0D2D8A33AABB4"",""assignmentId"":""0b218094-27f8-45ec-91b0-336954ba4bd6"",""projectId"":""051c06f1-75cc-4548-856d-4923ddaba0dc""}","https://test12345.live/?num_scrambled_semantic=8&num_scrambled_causal=4&num_scrambled_schematic=4&participantId=83841FDF09C34415B9D0D2D8A33AABB4&assignmentId=0b218094-27f8-45ec-91b0-336954ba4bd6&projectId=051c06f1-75cc-4548-856d-4923ddaba0dc","83841FDF09C34415B9D0D2D8A33AABB4-2025-05-15-20-33-23","","1417","","images/semantic_sequence/maintaining_a_car_semantic/maintaining_a_car_semantic_5.png","0","",""
"","","","","","image-button-response","83","306913","0.0-12.0-1.0-2.8","83841FDF09C34415B9D0D2D8A33AABB4","83841FDF09C34415B9D0D2D8A33AABB4","0b218094-27f8-45ec-91b0-336954ba4bd6","051c06f1-75cc-4548-856d-4923ddaba0dc","{""num_scrambled_semantic"":""8"",""num_scrambled_causal"":""4"",""num_scrambled_schematic"":""4"",""participantId"":""83841FDF09C34415B9D0D2D8A33AABB4"",""assignmentId"":""0b218094-27f8-45ec-91b0-336954ba4bd6"",""projectId"":""051c06f1-75cc-4548-856d-4923ddaba0dc""}","https://test12345.live/?num_scrambled_semantic=8&num_scrambled_causal=4&num_scrambled_schematic=4&participantId=83841FDF09C34415B9D0D2D8A33AABB4&assignmentId=0b218094-27f8-45ec-91b0-336954ba4bd6&projectId=051c06f1-75cc-4548-856d-4923ddaba0dc","83841FDF09C34415B9D0D2D8A33AABB4-2025-05-15-20-33-23","","null","","[]","null","",""
"","","","","","image-button-response","84","311418","0.0-12.0-1.0-0.9","83841FDF09C34415B9D0D2D8A33AABB4","83841FDF09C34415B9D0D2D8A33AABB4","0b218094-27f8-45ec-91b0-336954ba4bd6","051c06f1-75cc-4548-856d-4923ddaba0dc","{""num_scrambled_semantic"":""8"",""num_scrambled_causal"":""4"",""num_scrambled_schematic"":""4"",""participantId"":""83841FDF09C34415B9D0D2D8A33AABB4"",""assignmentId"":""0b218094-27f8-45ec-91b0-336954ba4bd6"",""projectId"":""051c06f1-75cc-4548-856d-4923ddaba0dc""}","https://test12345.live/?num_scrambled_semantic=8&num_scrambled_causal=4&num_scrambled_schematic=4&participantId=83841FDF09C34415B9D0D2D8A33AABB4&assignmentId=0b218094-27f8-45ec-91b0-336954ba4bd6&projectId=051c06f1-75cc-4548-856d-4923ddaba0dc","83841FDF09C34415B9D0D2D8A33AABB4-2025-05-15-20-33-23","","null","","images/semantic_sequence/maintaining_a_car_semantic/maintaining_a_car_semantic_3.png","null","",""
"","","","","","image-button-response","85","312468","0.0-12.0-1.0-1.9","83841FDF09C34415B9D0D2D8A33AABB4","83841FDF09C34415B9D0D2D8A33AABB4","0b218094-27f8-45ec-91b0-336954ba4bd6","051c06f1-75cc-4548-856d-4923ddaba0dc","{""num_scrambled_semantic"":""8"",""num_scrambled_causal"":""4"",""num_scrambled_schematic"":""4"",""participantId"":""83841FDF09C34415B9D0D2D8A33AABB4"",""assignmentId"":""0b218094-27f8-45ec-91b0-336954ba4bd6"",""projectId"":""051c06f1-75cc-4548-856d-4923ddaba0dc""}","https://test12345.live/?num_scrambled_semantic=8&num_scrambled_causal=4&num_scrambled_schematic=4&participantId=83841FDF09C34415B9D0D2D8A33AABB4&assignmentId=0b218094-27f8-45ec-91b0-336954ba4bd6&projectId=051c06f1-75cc-4548-856d-4923ddaba0dc","83841FDF09C34415B9D0D2D8A33AABB4-2025-05-15-20-33-23","","1049","","images/semantic_sequence/maintaining_a_car_semantic/maintaining_a_car_semantic_3.png","0","",""
"","","","","","image-button-response","86","314274","0.0-12.0-1.0-2.9","83841FDF09C34415B9D0D2D8A33AABB4","83841FDF09C34415B9D0D2D8A33AABB4","0b218094-27f8-45ec-91b0-336954ba4bd6","051c06f1-75cc-4548-856d-4923ddaba0dc","{""num_scrambled_semantic"":""8"",""num_scrambled_causal"":""4"",""num_scrambled_schematic"":""4"",""participantId"":""83841FDF09C34415B9D0D2D8A33AABB4"",""assignmentId"":""0b218094-27f8-45ec-91b0-336954ba4bd6"",""projectId"":""051c06f1-75cc-4548-856d-4923ddaba0dc""}","https://test12345.live/?num_scrambled_semantic=8&num_scrambled_causal=4&num_scrambled_schematic=4&participantId=83841FDF09C34415B9D0D2D8A33AABB4&assignmentId=0b218094-27f8-45ec-91b0-336954ba4bd6&projectId=051c06f1-75cc-4548-856d-4923ddaba0dc","83841FDF09C34415B9D0D2D8A33AABB4-2025-05-15-20-33-23","","null","","[]","null","",""
"","","","","","html-audio-response","87","325848","0.0-13.0","83841FDF09C34415B9D0D2D8A33AABB4","83841FDF09C34415B9D0D2D8A33AABB4","0b218094-27f8-45ec-91b0-336954ba4bd6","051c06f1-75cc-4548-856d-4923ddaba0dc","{""num_scrambled_semantic"":""8"",""num_scrambled_causal"":""4"",""num_scrambled_schematic"":""4"",""participantId"":""83841FDF09C34415B9D0D2D8A33AABB4"",""assignmentId"":""0b218094-27f8-45ec-91b0-336954ba4bd6"",""projectId"":""051c06f1-75cc-4548-856d-4923ddaba0dc""}","https://test12345.live/?num_scrambled_semantic=8&num_scrambled_causal=4&num_scrambled_schematic=4&participantId=83841FDF09C34415B9D0D2D8A33AABB4&assignmentId=0b218094-27f8-45ec-91b0-336954ba4bd6&projectId=051c06f1-75cc-4548-856d-4923ddaba0dc","83841FDF09C34415B9D0D2D8A33AABB4-2025-05-15-20-33-23","","10294","","[""<span style=\""color: red; font-size: 24px\""> NOW RECORDING</span><p>Please say out loud all the images you saw, as many as you can remember. The images can be said in any order.</p>""]","","2","maintaining_a_car_semantic"
"","","","","","image-button-response","88","331856","0.0-14.0-0.0","83841FDF09C34415B9D0D2D8A33AABB4","83841FDF09C34415B9D0D2D8A33AABB4","0b218094-27f8-45ec-91b0-336954ba4bd6","051c06f1-75cc-4548-856d-4923ddaba0dc","{""num_scrambled_semantic"":""8"",""num_scrambled_causal"":""4"",""num_scrambled_schematic"":""4"",""participantId"":""83841FDF09C34415B9D0D2D8A33AABB4"",""assignmentId"":""0b218094-27f8-45ec-91b0-336954ba4bd6"",""projectId"":""051c06f1-75cc-4548-856d-4923ddaba0dc""}","https://test12345.live/?num_scrambled_semantic=8&num_scrambled_causal=4&num_scrambled_schematic=4&participantId=83841FDF09C34415B9D0D2D8A33AABB4&assignmentId=0b218094-27f8-45ec-91b0-336954ba4bd6&projectId=051c06f1-75cc-4548-856d-4923ddaba0dc","83841FDF09C34415B9D0D2D8A33AABB4-2025-05-15-20-33-23","","null","","images/schematic_sequence/dinner_party_scheme/dinner_party_scheme_0.png","null","",""
"","","","","","image-button-response","89","336362","0.0-14.0-1.0-0.0","83841FDF09C34415B9D0D2D8A33AABB4","83841FDF09C34415B9D0D2D8A33AABB4","0b218094-27f8-45ec-91b0-336954ba4bd6","051c06f1-75cc-4548-856d-4923ddaba0dc","{""num_scrambled_semantic"":""8"",""num_scrambled_causal"":""4"",""num_scrambled_schematic"":""4"",""participantId"":""83841FDF09C34415B9D0D2D8A33AABB4"",""assignmentId"":""0b218094-27f8-45ec-91b0-336954ba4bd6"",""projectId"":""051c06f1-75cc-4548-856d-4923ddaba0dc""}","https://test12345.live/?num_scrambled_semantic=8&num_scrambled_causal=4&num_scrambled_schematic=4&participantId=83841FDF09C34415B9D0D2D8A33AABB4&assignmentId=0b218094-27f8-45ec-91b0-336954ba4bd6&projectId=051c06f1-75cc-4548-856d-4923ddaba0dc","83841FDF09C34415B9D0D2D8A33AABB4-2025-05-15-20-33-23","","null","","images/schematic_sequence/dinner_party_scheme/dinner_party_scheme_3.png","null","",""
"","","","","","image-button-response","90","340366","0.0-14.0-1.0-1.0","83841FDF09C34415B9D0D2D8A33AABB4","83841FDF09C34415B9D0D2D8A33AABB4","0b218094-27f8-45ec-91b0-336954ba4bd6","051c06f1-75cc-4548-856d-4923ddaba0dc","{""num_scrambled_semantic"":""8"",""num_scrambled_causal"":""4"",""num_scrambled_schematic"":""4"",""participantId"":""83841FDF09C34415B9D0D2D8A33AABB4"",""assignmentId"":""0b218094-27f8-45ec-91b0-336954ba4bd6"",""projectId"":""051c06f1-75cc-4548-856d-4923ddaba0dc""}","https://test12345.live/?num_scrambled_semantic=8&num_scrambled_causal=4&num_scrambled_schematic=4&participantId=83841FDF09C34415B9D0D2D8A33AABB4&assignmentId=0b218094-27f8-45ec-91b0-336954ba4bd6&projectId=051c06f1-75cc-4548-856d-4923ddaba0dc","83841FDF09C34415B9D0D2D8A33AABB4-2025-05-15-20-33-23","","null","","images/schematic_sequence/dinner_party_scheme/dinner_party_scheme_3.png","null","",""
"","","","","","image-button-response","91","342172","0.0-14.0-1.0-2.0","83841FDF09C34415B9D0D2D8A33AABB4","83841FDF09C34415B9D0D2D8A33AABB4","0b218094-27f8-45ec-91b0-336954ba4bd6","051c06f1-75cc-4548-856d-4923ddaba0dc","{""num_scrambled_semantic"":""8"",""num_scrambled_causal"":""4"",""num_scrambled_schematic"":""4"",""participantId"":""83841FDF09C34415B9D0D2D8A33AABB4"",""assignmentId"":""0b218094-27f8-45ec-91b0-336954ba4bd6"",""projectId"":""051c06f1-75cc-4548-856d-4923ddaba0dc""}","https://test12345.live/?num_scrambled_semantic=8&num_scrambled_causal=4&num_scrambled_schematic=4&participantId=83841FDF09C34415B9D0D2D8A33AABB4&assignmentId=0b218094-27f8-45ec-91b0-336954ba4bd6&projectId=051c06f1-75cc-4548-856d-4923ddaba0dc","83841FDF09C34415B9D0D2D8A33AABB4-2025-05-15-20-33-23","","null","","[]","null","",""
"","","","","","image-button-response","92","346678","0.0-14.0-1.0-0.1","83841FDF09C34415B9D0D2D8A33AABB4","83841FDF09C34415B9D0D2D8A33AABB4","0b218094-27f8-45ec-91b0-336954ba4bd6","051c06f1-75cc-4548-856d-4923ddaba0dc","{""num_scrambled_semantic"":""8"",""num_scrambled_causal"":""4"",""num_scrambled_schematic"":""4"",""participantId"":""83841FDF09C34415B9D0D2D8A33AABB4"",""assignmentId"":""0b218094-27f8-45ec-91b0-336954ba4bd6"",""projectId"":""051c06f1-75cc-4548-856d-4923ddaba0dc""}","https://test12345.live/?num_scrambled_semantic=8&num_scrambled_causal=4&num_scrambled_schematic=4&participantId=83841FDF09C34415B9D0D2D8A33AABB4&assignmentId=0b218094-27f8-45ec-91b0-336954ba4bd6&projectId=051c06f1-75cc-4548-856d-4923ddaba0dc","83841FDF09C34415B9D0D2D8A33AABB4-2025-05-15-20-33-23","","null","","images/schematic_sequence/dinner_party_scheme/dinner_party_scheme_2.png","null","",""
"","","","","","image-button-response","93","347404","0.0-14.0-1.0-1.1","83841FDF09C34415B9D0D2D8A33AABB4","83841FDF09C34415B9D0D2D8A33AABB4","0b218094-27f8-45ec-91b0-336954ba4bd6","051c06f1-75cc-4548-856d-4923ddaba0dc","{""num_scrambled_semantic"":""8"",""num_scrambled_causal"":""4"",""num_scrambled_schematic"":""4"",""participantId"":""83841FDF09C34415B9D0D2D8A33AABB4"",""assignmentId"":""0b218094-27f8-45ec-91b0-336954ba4bd6"",""projectId"":""051c06f1-75cc-4548-856d-4923ddaba0dc""}","https://test12345.live/?num_scrambled_semantic=8&num_scrambled_causal=4&num_scrambled_schematic=4&participantId=83841FDF09C34415B9D0D2D8A33AABB4&assignmentId=0b218094-27f8-45ec-91b0-336954ba4bd6&projectId=051c06f1-75cc-4548-856d-4923ddaba0dc","83841FDF09C34415B9D0D2D8A33AABB4-2025-05-15-20-33-23","","724","","images/schematic_sequence/dinner_party_scheme/dinner_party_scheme_2.png","1","",""
"","","","","","image-button-response","94","349210","0.0-14.0-1.0-2.1","83841FDF09C34415B9D0D2D8A33AABB4","83841FDF09C34415B9D0D2D8A33AABB4","0b218094-27f8-45ec-91b0-336954ba4bd6","051c06f1-75cc-4548-856d-4923ddaba0dc","{""num_scrambled_semantic"":""8"",""num_scrambled_causal"":""4"",""num_scrambled_schematic"":""4"",""participantId"":""83841FDF09C34415B9D0D2D8A33AABB4"",""assignmentId"":""0b218094-27f8-45ec-91b0-336954ba4bd6"",""projectId"":""051c06f1-75cc-4548-856d-4923ddaba0dc""}","https://test12345.live/?num_scrambled_semantic=8&num_scrambled_causal=4&num_scrambled_schematic=4&participantId=83841FDF09C34415B9D0D2D8A33AABB4&assignmentId=0b218094-27f8-45ec-91b0-336954ba4bd6&projectId=051c06f1-75cc-4548-856d-4923ddaba0dc","83841FDF09C34415B9D0D2D8A33AABB4-2025-05-15-20-33-23","","null","","[]","null","",""
"","","","","","image-button-response","95","353717","0.0-14.0-1.0-0.2","83841FDF09C34415B9D0D2D8A33AABB4","83841FDF09C34415B9D0D2D8A33AABB4","0b218094-27f8-45ec-91b0-336954ba4bd6","051c06f1-75cc-4548-856d-4923ddaba0dc","{""num_scrambled_semantic"":""8"",""num_scrambled_causal"":""4"",""num_scrambled_schematic"":""4"",""participantId"":""83841FDF09C34415B9D0D2D8A33AABB4"",""assignmentId"":""0b218094-27f8-45ec-91b0-336954ba4bd6"",""projectId"":""051c06f1-75cc-4548-856d-4923ddaba0dc""}","https://test12345.live/?num_scrambled_semantic=8&num_scrambled_causal=4&num_scrambled_schematic=4&participantId=83841FDF09C34415B9D0D2D8A33AABB4&assignmentId=0b218094-27f8-45ec-91b0-336954ba4bd6&projectId=051c06f1-75cc-4548-856d-4923ddaba0dc","83841FDF09C34415B9D0D2D8A33AABB4-2025-05-15-20-33-23","","null","","images/schematic_sequence/dinner_party_scheme/dinner_party_scheme_5.png","null","",""
"","","","","","image-button-response","96","354713","0.0-14.0-1.0-1.2","83841FDF09C34415B9D0D2D8A33AABB4","83841FDF09C34415B9D0D2D8A33AABB4","0b218094-27f8-45ec-91b0-336954ba4bd6","051c06f1-75cc-4548-856d-4923ddaba0dc","{""num_scrambled_semantic"":""8"",""num_scrambled_causal"":""4"",""num_scrambled_schematic"":""4"",""participantId"":""83841FDF09C34415B9D0D2D8A33AABB4"",""assignmentId"":""0b218094-27f8-45ec-91b0-336954ba4bd6"",""projectId"":""051c06f1-75cc-4548-856d-4923ddaba0dc""}","https://test12345.live/?num_scrambled_semantic=8&num_scrambled_causal=4&num_scrambled_schematic=4&participantId=83841FDF09C34415B9D0D2D8A33AABB4&assignmentId=0b218094-27f8-45ec-91b0-336954ba4bd6&projectId=051c06f1-75cc-4548-856d-4923ddaba0dc","83841FDF09C34415B9D0D2D8A33AABB4-2025-05-15-20-33-23","","994","","images/schematic_sequence/dinner_party_scheme/dinner_party_scheme_5.png","0","",""
"","","","","","image-button-response","97","356519","0.0-14.0-1.0-2.2","83841FDF09C34415B9D0D2D8A33AABB4","83841FDF09C34415B9D0D2D8A33AABB4","0b218094-27f8-45ec-91b0-336954ba4bd6","051c06f1-75cc-4548-856d-4923ddaba0dc","{""num_scrambled_semantic"":""8"",""num_scrambled_causal"":""4"",""num_scrambled_schematic"":""4"",""participantId"":""83841FDF09C34415B9D0D2D8A33AABB4"",""assignmentId"":""0b218094-27f8-45ec-91b0-336954ba4bd6"",""projectId"":""051c06f1-75cc-4548-856d-4923ddaba0dc""}","https://test12345.live/?num_scrambled_semantic=8&num_scrambled_causal=4&num_scrambled_schematic=4&participantId=83841FDF09C34415B9D0D2D8A33AABB4&assignmentId=0b218094-27f8-45ec-91b0-336954ba4bd6&projectId=051c06f1-75cc-4548-856d-4923ddaba0dc","83841FDF09C34415B9D0D2D8A33AABB4-2025-05-15-20-33-23","","null","","[]","null","",""
"","","","","","image-button-response","98","361026","0.0-14.0-1.0-0.3","83841FDF09C34415B9D0D2D8A33AABB4","83841FDF09C34415B9D0D2D8A33AABB4","0b218094-27f8-45ec-91b0-336954ba4bd6","051c06f1-75cc-4548-856d-4923ddaba0dc","{""num_scrambled_semantic"":""8"",""num_scrambled_causal"":""4"",""num_scrambled_schematic"":""4"",""participantId"":""83841FDF09C34415B9D0D2D8A33AABB4"",""assignmentId"":""0b218094-27f8-45ec-91b0-336954ba4bd6"",""projectId"":""051c06f1-75cc-4548-856d-4923ddaba0dc""}","https://test12345.live/?num_scrambled_semantic=8&num_scrambled_causal=4&num_scrambled_schematic=4&participantId=83841FDF09C34415B9D0D2D8A33AABB4&assignmentId=0b218094-27f8-45ec-91b0-336954ba4bd6&projectId=051c06f1-75cc-4548-856d-4923ddaba0dc","83841FDF09C34415B9D0D2D8A33AABB4-2025-05-15-20-33-23","","null","","images/schematic_sequence/dinner_party_scheme/dinner_party_scheme_4.png","null","",""
"","","","","","image-button-response","99","362066","0.0-14.0-1.0-1.3","83841FDF09C34415B9D0D2D8A33AABB4","83841FDF09C34415B9D0D2D8A33AABB4","0b218094-27f8-45ec-91b0-336954ba4bd6","051c06f1-75cc-4548-856d-4923ddaba0dc","{""num_scrambled_semantic"":""8"",""num_scrambled_causal"":""4"",""num_scrambled_schematic"":""4"",""participantId"":""83841FDF09C34415B9D0D2D8A33AABB4"",""assignmentId"":""0b218094-27f8-45ec-91b0-336954ba4bd6"",""projectId"":""051c06f1-75cc-4548-856d-4923ddaba0dc""}","https://test12345.live/?num_scrambled_semantic=8&num_scrambled_causal=4&num_scrambled_schematic=4&participantId=83841FDF09C34415B9D0D2D8A33AABB4&assignmentId=0b218094-27f8-45ec-91b0-336954ba4bd6&projectId=051c06f1-75cc-4548-856d-4923ddaba0dc","83841FDF09C34415B9D0D2D8A33AABB4-2025-05-15-20-33-23","","1039","","images/schematic_sequence/dinner_party_scheme/dinner_party_scheme_4.png","0","",""
"","","","","","image-button-response","100","363868","0.0-14.0-1.0-2.3","83841FDF09C34415B9D0D2D8A33AABB4","83841FDF09C34415B9D0D2D8A33AABB4","0b218094-27f8-45ec-91b0-336954ba4bd6","051c06f1-75cc-4548-856d-4923ddaba0dc","{""num_scrambled_semantic"":""8"",""num_scrambled_causal"":""4"",""num_scrambled_schematic"":""4"",""participantId"":""83841FDF09C34415B9D0D2D8A33AABB4"",""assignmentId"":""0b218094-27f8-45ec-91b0-336954ba4bd6"",""projectId"":""051c06f1-75cc-4548-856d-4923ddaba0dc""}","https://test12345.live/?num_scrambled_semantic=8&num_scrambled_causal=4&num_scrambled_schematic=4&participantId=83841FDF09C34415B9D0D2D8A33AABB4&assignmentId=0b218094-27f8-45ec-91b0-336954ba4bd6&projectId=051c06f1-75cc-4548-856d-4923ddaba0dc","83841FDF09C34415B9D0D2D8A33AABB4-2025-05-15-20-33-23","","null","","[]","null","",""
"","","","","","image-button-response","101","368372","0.0-14.0-1.0-0.4","83841FDF09C34415B9D0D2D8A33AABB4","83841FDF09C34415B9D0D2D8A33AABB4","0b218094-27f8-45ec-91b0-336954ba4bd6","051c06f1-75cc-4548-856d-4923ddaba0dc","{""num_scrambled_semantic"":""8"",""num_scrambled_causal"":""4"",""num_scrambled_schematic"":""4"",""participantId"":""83841FDF09C34415B9D0D2D8A33AABB4"",""assignmentId"":""0b218094-27f8-45ec-91b0-336954ba4bd6"",""projectId"":""051c06f1-75cc-4548-856d-4923ddaba0dc""}","https://test12345.live/?num_scrambled_semantic=8&num_scrambled_causal=4&num_scrambled_schematic=4&participantId=83841FDF09C34415B9D0D2D8A33AABB4&assignmentId=0b218094-27f8-45ec-91b0-336954ba4bd6&projectId=051c06f1-75cc-4548-856d-4923ddaba0dc","83841FDF09C34415B9D0D2D8A33AABB4-2025-05-15-20-33-23","","null","","images/schematic_sequence/dinner_party_scheme/dinner_party_scheme_6.png","null","",""
"","","","","","image-button-response","102","370690","0.0-14.0-1.0-1.4","83841FDF09C34415B9D0D2D8A33AABB4","83841FDF09C34415B9D0D2D8A33AABB4","0b218094-27f8-45ec-91b0-336954ba4bd6","051c06f1-75cc-4548-856d-4923ddaba0dc","{""num_scrambled_semantic"":""8"",""num_scrambled_causal"":""4"",""num_scrambled_schematic"":""4"",""participantId"":""83841FDF09C34415B9D0D2D8A33AABB4"",""assignmentId"":""0b218094-27f8-45ec-91b0-336954ba4bd6"",""projectId"":""051c06f1-75cc-4548-856d-4923ddaba0dc""}","https://test12345.live/?num_scrambled_semantic=8&num_scrambled_causal=4&num_scrambled_schematic=4&participantId=83841FDF09C34415B9D0D2D8A33AABB4&assignmentId=0b218094-27f8-45ec-91b0-336954ba4bd6&projectId=051c06f1-75cc-4548-856d-4923ddaba0dc","83841FDF09C34415B9D0D2D8A33AABB4-2025-05-15-20-33-23","","2316","","images/schematic_sequence/dinner_party_scheme/dinner_party_scheme_6.png","0","",""
"","","","","","image-button-response","103","372495","0.0-14.0-1.0-2.4","83841FDF09C34415B9D0D2D8A33AABB4","83841FDF09C34415B9D0D2D8A33AABB4","0b218094-27f8-45ec-91b0-336954ba4bd6","051c06f1-75cc-4548-856d-4923ddaba0dc","{""num_scrambled_semantic"":""8"",""num_scrambled_causal"":""4"",""num_scrambled_schematic"":""4"",""participantId"":""83841FDF09C34415B9D0D2D8A33AABB4"",""assignmentId"":""0b218094-27f8-45ec-91b0-336954ba4bd6"",""projectId"":""051c06f1-75cc-4548-856d-4923ddaba0dc""}","https://test12345.live/?num_scrambled_semantic=8&num_scrambled_causal=4&num_scrambled_schematic=4&participantId=83841FDF09C34415B9D0D2D8A33AABB4&assignmentId=0b218094-27f8-45ec-91b0-336954ba4bd6&projectId=051c06f1-75cc-4548-856d-4923ddaba0dc","83841FDF09C34415B9D0D2D8A33AABB4-2025-05-15-20-33-23","","null","","[]","null","",""
"","","","","","image-button-response","104","377002","0.0-14.0-1.0-0.5","83841FDF09C34415B9D0D2D8A33AABB4","83841FDF09C34415B9D0D2D8A33AABB4","0b218094-27f8-45ec-91b0-336954ba4bd6","051c06f1-75cc-4548-856d-4923ddaba0dc","{""num_scrambled_semantic"":""8"",""num_scrambled_causal"":""4"",""num_scrambled_schematic"":""4"",""participantId"":""83841FDF09C34415B9D0D2D8A33AABB4"",""assignmentId"":""0b218094-27f8-45ec-91b0-336954ba4bd6"",""projectId"":""051c06f1-75cc-4548-856d-4923ddaba0dc""}","https://test12345.live/?num_scrambled_semantic=8&num_scrambled_causal=4&num_scrambled_schematic=4&participantId=83841FDF09C34415B9D0D2D8A33AABB4&assignmentId=0b218094-27f8-45ec-91b0-336954ba4bd6&projectId=051c06f1-75cc-4548-856d-4923ddaba0dc","83841FDF09C34415B9D0D2D8A33AABB4-2025-05-15-20-33-23","","null","","images/schematic_sequence/dinner_party_scheme/dinner_party_scheme_1.png","null","",""
"","","","","","image-button-response","105","378345","0.0-14.0-1.0-1.5","83841FDF09C34415B9D0D2D8A33AABB4","83841FDF09C34415B9D0D2D8A33AABB4","0b218094-27f8-45ec-91b0-336954ba4bd6","051c06f1-75cc-4548-856d-4923ddaba0dc","{""num_scrambled_semantic"":""8"",""num_scrambled_causal"":""4"",""num_scrambled_schematic"":""4"",""participantId"":""83841FDF09C34415B9D0D2D8A33AABB4"",""assignmentId"":""0b218094-27f8-45ec-91b0-336954ba4bd6"",""projectId"":""051c06f1-75cc-4548-856d-4923ddaba0dc""}","https://test12345.live/?num_scrambled_semantic=8&num_scrambled_causal=4&num_scrambled_schematic=4&participantId=83841FDF09C34415B9D0D2D8A33AABB4&assignmentId=0b218094-27f8-45ec-91b0-336954ba4bd6&projectId=051c06f1-75cc-4548-856d-4923ddaba0dc","83841FDF09C34415B9D0D2D8A33AABB4-2025-05-15-20-33-23","","1342","","images/schematic_sequence/dinner_party_scheme/dinner_party_scheme_1.png","0","",""
"","","","","","image-button-response","106","380152","0.0-14.0-1.0-2.5","83841FDF09C34415B9D0D2D8A33AABB4","83841FDF09C34415B9D0D2D8A33AABB4","0b218094-27f8-45ec-91b0-336954ba4bd6","051c06f1-75cc-4548-856d-4923ddaba0dc","{""num_scrambled_semantic"":""8"",""num_scrambled_causal"":""4"",""num_scrambled_schematic"":""4"",""participantId"":""83841FDF09C34415B9D0D2D8A33AABB4"",""assignmentId"":""0b218094-27f8-45ec-91b0-336954ba4bd6"",""projectId"":""051c06f1-75cc-4548-856d-4923ddaba0dc""}","https://test12345.live/?num_scrambled_semantic=8&num_scrambled_causal=4&num_scrambled_schematic=4&participantId=83841FDF09C34415B9D0D2D8A33AABB4&assignmentId=0b218094-27f8-45ec-91b0-336954ba4bd6&projectId=051c06f1-75cc-4548-856d-4923ddaba0dc","83841FDF09C34415B9D0D2D8A33AABB4-2025-05-15-20-33-23","","null","","[]","null","",""
"","","","","","image-button-response","107","384655","0.0-14.0-1.0-0.6","83841FDF09C34415B9D0D2D8A33AABB4","83841FDF09C34415B9D0D2D8A33AABB4","0b218094-27f8-45ec-91b0-336954ba4bd6","051c06f1-75cc-4548-856d-4923ddaba0dc","{""num_scrambled_semantic"":""8"",""num_scrambled_causal"":""4"",""num_scrambled_schematic"":""4"",""participantId"":""83841FDF09C34415B9D0D2D8A33AABB4"",""assignmentId"":""0b218094-27f8-45ec-91b0-336954ba4bd6"",""projectId"":""051c06f1-75cc-4548-856d-4923ddaba0dc""}","https://test12345.live/?num_scrambled_semantic=8&num_scrambled_causal=4&num_scrambled_schematic=4&participantId=83841FDF09C34415B9D0D2D8A33AABB4&assignmentId=0b218094-27f8-45ec-91b0-336954ba4bd6&projectId=051c06f1-75cc-4548-856d-4923ddaba0dc","83841FDF09C34415B9D0D2D8A33AABB4-2025-05-15-20-33-23","","null","","images/schematic_sequence/dinner_party_scheme/dinner_party_scheme_ten.png","null","",""
"","","","","","image-button-response","108","386614","0.0-14.0-1.0-1.6","83841FDF09C34415B9D0D2D8A33AABB4","83841FDF09C34415B9D0D2D8A33AABB4","0b218094-27f8-45ec-91b0-336954ba4bd6","051c06f1-75cc-4548-856d-4923ddaba0dc","{""num_scrambled_semantic"":""8"",""num_scrambled_causal"":""4"",""num_scrambled_schematic"":""4"",""participantId"":""83841FDF09C34415B9D0D2D8A33AABB4"",""assignmentId"":""0b218094-27f8-45ec-91b0-336954ba4bd6"",""projectId"":""051c06f1-75cc-4548-856d-4923ddaba0dc""}","https://test12345.live/?num_scrambled_semantic=8&num_scrambled_causal=4&num_scrambled_schematic=4&participantId=83841FDF09C34415B9D0D2D8A33AABB4&assignmentId=0b218094-27f8-45ec-91b0-336954ba4bd6&projectId=051c06f1-75cc-4548-856d-4923ddaba0dc","83841FDF09C34415B9D0D2D8A33AABB4-2025-05-15-20-33-23","","1957","","images/schematic_sequence/dinner_party_scheme/dinner_party_scheme_ten.png","0","",""
"","","","","","image-button-response","109","388420","0.0-14.0-1.0-2.6","83841FDF09C34415B9D0D2D8A33AABB4","83841FDF09C34415B9D0D2D8A33AABB4","0b218094-27f8-45ec-91b0-336954ba4bd6","051c06f1-75cc-4548-856d-4923ddaba0dc","{""num_scrambled_semantic"":""8"",""num_scrambled_causal"":""4"",""num_scrambled_schematic"":""4"",""participantId"":""83841FDF09C34415B9D0D2D8A33AABB4"",""assignmentId"":""0b218094-27f8-45ec-91b0-336954ba4bd6"",""projectId"":""051c06f1-75cc-4548-856d-4923ddaba0dc""}","https://test12345.live/?num_scrambled_semantic=8&num_scrambled_causal=4&num_scrambled_schematic=4&participantId=83841FDF09C34415B9D0D2D8A33AABB4&assignmentId=0b218094-27f8-45ec-91b0-336954ba4bd6&projectId=051c06f1-75cc-4548-856d-4923ddaba0dc","83841FDF09C34415B9D0D2D8A33AABB4-2025-05-15-20-33-23","","null","","[]","null","",""
"","","","","","image-button-response","110","392927","0.0-14.0-1.0-0.7","83841FDF09C34415B9D0D2D8A33AABB4","83841FDF09C34415B9D0D2D8A33AABB4","0b218094-27f8-45ec-91b0-336954ba4bd6","051c06f1-75cc-4548-856d-4923ddaba0dc","{""num_scrambled_semantic"":""8"",""num_scrambled_causal"":""4"",""num_scrambled_schematic"":""4"",""participantId"":""83841FDF09C34415B9D0D2D8A33AABB4"",""assignmentId"":""0b218094-27f8-45ec-91b0-336954ba4bd6"",""projectId"":""051c06f1-75cc-4548-856d-4923ddaba0dc""}","https://test12345.live/?num_scrambled_semantic=8&num_scrambled_causal=4&num_scrambled_schematic=4&participantId=83841FDF09C34415B9D0D2D8A33AABB4&assignmentId=0b218094-27f8-45ec-91b0-336954ba4bd6&projectId=051c06f1-75cc-4548-856d-4923ddaba0dc","83841FDF09C34415B9D0D2D8A33AABB4-2025-05-15-20-33-23","","null","","images/schematic_sequence/dinner_party_scheme/dinner_party_scheme_8.png","null","",""
"","","","","","image-button-response","111","396022","0.0-14.0-1.0-1.7","83841FDF09C34415B9D0D2D8A33AABB4","83841FDF09C34415B9D0D2D8A33AABB4","0b218094-27f8-45ec-91b0-336954ba4bd6","051c06f1-75cc-4548-856d-4923ddaba0dc","{""num_scrambled_semantic"":""8"",""num_scrambled_causal"":""4"",""num_scrambled_schematic"":""4"",""participantId"":""83841FDF09C34415B9D0D2D8A33AABB4"",""assignmentId"":""0b218094-27f8-45ec-91b0-336954ba4bd6"",""projectId"":""051c06f1-75cc-4548-856d-4923ddaba0dc""}","https://test12345.live/?num_scrambled_semantic=8&num_scrambled_causal=4&num_scrambled_schematic=4&participantId=83841FDF09C34415B9D0D2D8A33AABB4&assignmentId=0b218094-27f8-45ec-91b0-336954ba4bd6&projectId=051c06f1-75cc-4548-856d-4923ddaba0dc","83841FDF09C34415B9D0D2D8A33AABB4-2025-05-15-20-33-23","","3094","","images/schematic_sequence/dinner_party_scheme/dinner_party_scheme_8.png","0","",""
"","","","","","image-button-response","112","397828","0.0-14.0-1.0-2.7","83841FDF09C34415B9D0D2D8A33AABB4","83841FDF09C34415B9D0D2D8A33AABB4","0b218094-27f8-45ec-91b0-336954ba4bd6","051c06f1-75cc-4548-856d-4923ddaba0dc","{""num_scrambled_semantic"":""8"",""num_scrambled_causal"":""4"",""num_scrambled_schematic"":""4"",""participantId"":""83841FDF09C34415B9D0D2D8A33AABB4"",""assignmentId"":""0b218094-27f8-45ec-91b0-336954ba4bd6"",""projectId"":""051c06f1-75cc-4548-856d-4923ddaba0dc""}","https://test12345.live/?num_scrambled_semantic=8&num_scrambled_causal=4&num_scrambled_schematic=4&participantId=83841FDF09C34415B9D0D2D8A33AABB4&assignmentId=0b218094-27f8-45ec-91b0-336954ba4bd6&projectId=051c06f1-75cc-4548-856d-4923ddaba0dc","83841FDF09C34415B9D0D2D8A33AABB4-2025-05-15-20-33-23","","null","","[]","null","",""
"","","","","","image-button-response","113","402334","0.0-14.0-1.0-0.8","83841FDF09C34415B9D0D2D8A33AABB4","83841FDF09C34415B9D0D2D8A33AABB4","0b218094-27f8-45ec-91b0-336954ba4bd6","051c06f1-75cc-4548-856d-4923ddaba0dc","{""num_scrambled_semantic"":""8"",""num_scrambled_causal"":""4"",""num_scrambled_schematic"":""4"",""participantId"":""83841FDF09C34415B9D0D2D8A33AABB4"",""assignmentId"":""0b218094-27f8-45ec-91b0-336954ba4bd6"",""projectId"":""051c06f1-75cc-4548-856d-4923ddaba0dc""}","https://test12345.live/?num_scrambled_semantic=8&num_scrambled_causal=4&num_scrambled_schematic=4&participantId=83841FDF09C34415B9D0D2D8A33AABB4&assignmentId=0b218094-27f8-45ec-91b0-336954ba4bd6&projectId=051c06f1-75cc-4548-856d-4923ddaba0dc","83841FDF09C34415B9D0D2D8A33AABB4-2025-05-15-20-33-23","","null","","images/schematic_sequence/dinner_party_scheme/dinner_party_scheme_9.png","null","",""
"","","","","","image-button-response","114","403849","0.0-14.0-1.0-1.8","83841FDF09C34415B9D0D2D8A33AABB4","83841FDF09C34415B9D0D2D8A33AABB4","0b218094-27f8-45ec-91b0-336954ba4bd6","051c06f1-75cc-4548-856d-4923ddaba0dc","{""num_scrambled_semantic"":""8"",""num_scrambled_causal"":""4"",""num_scrambled_schematic"":""4"",""participantId"":""83841FDF09C34415B9D0D2D8A33AABB4"",""assignmentId"":""0b218094-27f8-45ec-91b0-336954ba4bd6"",""projectId"":""051c06f1-75cc-4548-856d-4923ddaba0dc""}","https://test12345.live/?num_scrambled_semantic=8&num_scrambled_causal=4&num_scrambled_schematic=4&participantId=83841FDF09C34415B9D0D2D8A33AABB4&assignmentId=0b218094-27f8-45ec-91b0-336954ba4bd6&projectId=051c06f1-75cc-4548-856d-4923ddaba0dc","83841FDF09C34415B9D0D2D8A33AABB4-2025-05-15-20-33-23","","1513","","images/schematic_sequence/dinner_party_scheme/dinner_party_scheme_9.png","0","",""
