"success","timeout","failed_images","failed_audio","failed_video","trial_type","trial_index","time_elapsed","internal_node_id","subject","subject_id","study_id","session_id","urlvar","current_url","audio_id","view_history","rt","device_id","stimulus","response","estimated_stimulus_onset","seq_name"
"true","false","[]","[]","[]","preload","0","2266","0.0-0.0","85EE103965C74C56A466C4C7FE4F1AD6","85EE103965C74C56A466C4C7FE4F1AD6","0198ba0e-05e3-77db-a658-3102f11b4fdd","0198b9d0-29d4-7df3-8625-4b4515841beb","{""num_scrambled_semantic"":""8"",""num_scrambled_causal"":""4"",""num_scrambled_schematic"":""4"",""participantId"":""85EE103965C74C56A466C4C7FE4F1AD6"",""assignmentId"":""0198ba0e-05e3-77db-a658-3102f11b4fdd"",""projectId"":""0198b9d0-29d4-7df3-8625-4b4515841beb""}","https://test12345.live/?num_scrambled_semantic=8&num_scrambled_causal=4&num_scrambled_schematic=4&participantId=85EE103965C74C56A466C4C7FE4F1AD6&assignmentId=0198ba0e-05e3-77db-a658-3102f11b4fdd&projectId=0198b9d0-29d4-7df3-8625-4b4515841beb","85EE103965C74C56A466C4C7FE4F1AD6-2025-08-17-22-38-05","","","","","","",""
"","","","","","instructions","1","13748","0.0-1.0","85EE103965C74C56A466C4C7FE4F1AD6","85EE103965C74C56A466C4C7FE4F1AD6","0198ba0e-05e3-77db-a658-3102f11b4fdd","0198b9d0-29d4-7df3-8625-4b4515841beb","{""num_scrambled_semantic"":""8"",""num_scrambled_causal"":""4"",""num_scrambled_schematic"":""4"",""participantId"":""85EE103965C74C56A466C4C7FE4F1AD6"",""assignmentId"":""0198ba0e-05e3-77db-a658-3102f11b4fdd"",""projectId"":""0198b9d0-29d4-7df3-8625-4b4515841beb""}","https://test12345.live/?num_scrambled_semantic=8&num_scrambled_causal=4&num_scrambled_schematic=4&participantId=85EE103965C74C56A466C4C7FE4F1AD6&assignmentId=0198ba0e-05e3-77db-a658-3102f11b4fdd&projectId=0198b9d0-29d4-7df3-8625-4b4515841beb","85EE103965C74C56A466C4C7FE4F1AD6-2025-08-17-22-38-05","[{""page_index"":0,""viewing_time"":11482}]","11482","","","","",""
"","","","","","instructions","2","16631","0.0-2.0","85EE103965C74C56A466C4C7FE4F1AD6","85EE103965C74C56A466C4C7FE4F1AD6","0198ba0e-05e3-77db-a658-3102f11b4fdd","0198b9d0-29d4-7df3-8625-4b4515841beb","{""num_scrambled_semantic"":""8"",""num_scrambled_causal"":""4"",""num_scrambled_schematic"":""4"",""participantId"":""85EE103965C74C56A466C4C7FE4F1AD6"",""assignmentId"":""0198ba0e-05e3-77db-a658-3102f11b4fdd"",""projectId"":""0198b9d0-29d4-7df3-8625-4b4515841beb""}","https://test12345.live/?num_scrambled_semantic=8&num_scrambled_causal=4&num_scrambled_schematic=4&participantId=85EE103965C74C56A466C4C7FE4F1AD6&assignmentId=0198ba0e-05e3-77db-a658-3102f11b4fdd&projectId=0198b9d0-29d4-7df3-8625-4b4515841beb","85EE103965C74C56A466C4C7FE4F1AD6-2025-08-17-22-38-05","[{""page_index"":0,""viewing_time"":2881}]","2881","","","","",""
"true","","","","","fullscreen","3","18933","0.0-3.0","85EE103965C74C56A466C4C7FE4F1AD6","85EE103965C74C56A466C4C7FE4F1AD6","0198ba0e-05e3-77db-a658-3102f11b4fdd","0198b9d0-29d4-7df3-8625-4b4515841beb","{""num_scrambled_semantic"":""8"",""num_scrambled_causal"":""4"",""num_scrambled_schematic"":""4"",""participantId"":""85EE103965C74C56A466C4C7FE4F1AD6"",""assignmentId"":""0198ba0e-05e3-77db-a658-3102f11b4fdd"",""projectId"":""0198b9d0-29d4-7df3-8625-4b4515841beb""}","https://test12345.live/?num_scrambled_semantic=8&num_scrambled_causal=4&num_scrambled_schematic=4&participantId=85EE103965C74C56A466C4C7FE4F1AD6&assignmentId=0198ba0e-05e3-77db-a658-3102f11b4fdd&projectId=0198b9d0-29d4-7df3-8625-4b4515841beb","85EE103965C74C56A466C4C7FE4F1AD6-2025-08-17-22-38-05","","1298","","","","",""
"","","","","","initialize-microphone","4","23576","0.0-4.0-0.0","85EE103965C74C56A466C4C7FE4F1AD6","85EE103965C74C56A466C4C7FE4F1AD6","0198ba0e-05e3-77db-a658-3102f11b4fdd","0198b9d0-29d4-7df3-8625-4b4515841beb","{""num_scrambled_semantic"":""8"",""num_scrambled_causal"":""4"",""num_scrambled_schematic"":""4"",""participantId"":""85EE103965C74C56A466C4C7FE4F1AD6"",""assignmentId"":""0198ba0e-05e3-77db-a658-3102f11b4fdd"",""projectId"":""0198b9d0-29d4-7df3-8625-4b4515841beb""}","https://test12345.live/?num_scrambled_semantic=8&num_scrambled_causal=4&num_scrambled_schematic=4&participantId=85EE103965C74C56A466C4C7FE4F1AD6&assignmentId=0198ba0e-05e3-77db-a658-3102f11b4fdd&projectId=0198b9d0-29d4-7df3-8625-4b4515841beb","85EE103965C74C56A466C4C7FE4F1AD6-2025-08-17-22-38-05","","","42b1e9c2fef4cc00070455a06a070f511d2b50464a61b9e2803134b55775930f","","","",""
"","","","","","html-audio-response","5","32614","0.0-4.0-1.0","85EE103965C74C56A466C4C7FE4F1AD6","85EE103965C74C56A466C4C7FE4F1AD6","0198ba0e-05e3-77db-a658-3102f11b4fdd","0198b9d0-29d4-7df3-8625-4b4515841beb","{""num_scrambled_semantic"":""8"",""num_scrambled_causal"":""4"",""num_scrambled_schematic"":""4"",""participantId"":""85EE103965C74C56A466C4C7FE4F1AD6"",""assignmentId"":""0198ba0e-05e3-77db-a658-3102f11b4fdd"",""projectId"":""0198b9d0-29d4-7df3-8625-4b4515841beb""}","https://test12345.live/?num_scrambled_semantic=8&num_scrambled_causal=4&num_scrambled_schematic=4&participantId=85EE103965C74C56A466C4C7FE4F1AD6&assignmentId=0198ba0e-05e3-77db-a658-3102f11b4fdd&projectId=0198b9d0-29d4-7df3-8625-4b4515841beb","85EE103965C74C56A466C4C7FE4F1AD6-2025-08-17-22-38-05","","3546","","<span style=""color: red; font-size: 24px""> NOW RECORDING</span>
        <p>Please test Microphone</p>","","1",""
"","","","","","html-button-response","6","34130","0.0-4.0-2.0","85EE103965C74C56A466C4C7FE4F1AD6","85EE103965C74C56A466C4C7FE4F1AD6","0198ba0e-05e3-77db-a658-3102f11b4fdd","0198b9d0-29d4-7df3-8625-4b4515841beb","{""num_scrambled_semantic"":""8"",""num_scrambled_causal"":""4"",""num_scrambled_schematic"":""4"",""participantId"":""85EE103965C74C56A466C4C7FE4F1AD6"",""assignmentId"":""0198ba0e-05e3-77db-a658-3102f11b4fdd"",""projectId"":""0198b9d0-29d4-7df3-8625-4b4515841beb""}","https://test12345.live/?num_scrambled_semantic=8&num_scrambled_causal=4&num_scrambled_schematic=4&participantId=85EE103965C74C56A466C4C7FE4F1AD6&assignmentId=0198ba0e-05e3-77db-a658-3102f11b4fdd&projectId=0198b9d0-29d4-7df3-8625-4b4515841beb","85EE103965C74C56A466C4C7FE4F1AD6-2025-08-17-22-38-05","","1514","","<p style=""font-size:48px; color:red;"">Is Microphone OK?</p>","1","",""
"","","","","","instructions","7","42063","0.0-5.0","85EE103965C74C56A466C4C7FE4F1AD6","85EE103965C74C56A466C4C7FE4F1AD6","0198ba0e-05e3-77db-a658-3102f11b4fdd","0198b9d0-29d4-7df3-8625-4b4515841beb","{""num_scrambled_semantic"":""8"",""num_scrambled_causal"":""4"",""num_scrambled_schematic"":""4"",""participantId"":""85EE103965C74C56A466C4C7FE4F1AD6"",""assignmentId"":""0198ba0e-05e3-77db-a658-3102f11b4fdd"",""projectId"":""0198b9d0-29d4-7df3-8625-4b4515841beb""}","https://test12345.live/?num_scrambled_semantic=8&num_scrambled_causal=4&num_scrambled_schematic=4&participantId=85EE103965C74C56A466C4C7FE4F1AD6&assignmentId=0198ba0e-05e3-77db-a658-3102f11b4fdd&projectId=0198b9d0-29d4-7df3-8625-4b4515841beb","85EE103965C74C56A466C4C7FE4F1AD6-2025-08-17-22-38-05","[{""page_index"":0,""viewing_time"":3250},{""page_index"":1,""viewing_time"":4683}]","7934","","","","",""
"","","","","","image-button-response","8","48077","0.0-6.0-0.0","85EE103965C74C56A466C4C7FE4F1AD6","85EE103965C74C56A466C4C7FE4F1AD6","0198ba0e-05e3-77db-a658-3102f11b4fdd","0198b9d0-29d4-7df3-8625-4b4515841beb","{""num_scrambled_semantic"":""8"",""num_scrambled_causal"":""4"",""num_scrambled_schematic"":""4"",""participantId"":""85EE103965C74C56A466C4C7FE4F1AD6"",""assignmentId"":""0198ba0e-05e3-77db-a658-3102f11b4fdd"",""projectId"":""0198b9d0-29d4-7df3-8625-4b4515841beb""}","https://test12345.live/?num_scrambled_semantic=8&num_scrambled_causal=4&num_scrambled_schematic=4&participantId=85EE103965C74C56A466C4C7FE4F1AD6&assignmentId=0198ba0e-05e3-77db-a658-3102f11b4fdd&projectId=0198b9d0-29d4-7df3-8625-4b4515841beb","85EE103965C74C56A466C4C7FE4F1AD6-2025-08-17-22-38-05","","null","","images/instructions/movie_0.png","null","",""
"","","","","","image-button-response","9","52583","0.0-6.0-1.0-0.0","85EE103965C74C56A466C4C7FE4F1AD6","85EE103965C74C56A466C4C7FE4F1AD6","0198ba0e-05e3-77db-a658-3102f11b4fdd","0198b9d0-29d4-7df3-8625-4b4515841beb","{""num_scrambled_semantic"":""8"",""num_scrambled_causal"":""4"",""num_scrambled_schematic"":""4"",""participantId"":""85EE103965C74C56A466C4C7FE4F1AD6"",""assignmentId"":""0198ba0e-05e3-77db-a658-3102f11b4fdd"",""projectId"":""0198b9d0-29d4-7df3-8625-4b4515841beb""}","https://test12345.live/?num_scrambled_semantic=8&num_scrambled_causal=4&num_scrambled_schematic=4&participantId=85EE103965C74C56A466C4C7FE4F1AD6&assignmentId=0198ba0e-05e3-77db-a658-3102f11b4fdd&projectId=0198b9d0-29d4-7df3-8625-4b4515841beb","85EE103965C74C56A466C4C7FE4F1AD6-2025-08-17-22-38-05","","null","","images/instructions/movie_1.png","null","",""
"","","","","","image-button-response","10","54547","0.0-6.0-1.0-1.0","85EE103965C74C56A466C4C7FE4F1AD6","85EE103965C74C56A466C4C7FE4F1AD6","0198ba0e-05e3-77db-a658-3102f11b4fdd","0198b9d0-29d4-7df3-8625-4b4515841beb","{""num_scrambled_semantic"":""8"",""num_scrambled_causal"":""4"",""num_scrambled_schematic"":""4"",""participantId"":""85EE103965C74C56A466C4C7FE4F1AD6"",""assignmentId"":""0198ba0e-05e3-77db-a658-3102f11b4fdd"",""projectId"":""0198b9d0-29d4-7df3-8625-4b4515841beb""}","https://test12345.live/?num_scrambled_semantic=8&num_scrambled_causal=4&num_scrambled_schematic=4&participantId=85EE103965C74C56A466C4C7FE4F1AD6&assignmentId=0198ba0e-05e3-77db-a658-3102f11b4fdd&projectId=0198b9d0-29d4-7df3-8625-4b4515841beb","85EE103965C74C56A466C4C7FE4F1AD6-2025-08-17-22-38-05","","1961","","images/instructions/movie_1.png","0","",""
"","","","","","image-button-response","11","59955","0.0-6.0-1.0-2.0","85EE103965C74C56A466C4C7FE4F1AD6","85EE103965C74C56A466C4C7FE4F1AD6","0198ba0e-05e3-77db-a658-3102f11b4fdd","0198b9d0-29d4-7df3-8625-4b4515841beb","{""num_scrambled_semantic"":""8"",""num_scrambled_causal"":""4"",""num_scrambled_schematic"":""4"",""participantId"":""85EE103965C74C56A466C4C7FE4F1AD6"",""assignmentId"":""0198ba0e-05e3-77db-a658-3102f11b4fdd"",""projectId"":""0198b9d0-29d4-7df3-8625-4b4515841beb""}","https://test12345.live/?num_scrambled_semantic=8&num_scrambled_causal=4&num_scrambled_schematic=4&participantId=85EE103965C74C56A466C4C7FE4F1AD6&assignmentId=0198ba0e-05e3-77db-a658-3102f11b4fdd&projectId=0198b9d0-29d4-7df3-8625-4b4515841beb","85EE103965C74C56A466C4C7FE4F1AD6-2025-08-17-22-38-05","","null","","[]","null","",""
"","","","","","image-button-response","12","64463","0.0-6.0-1.0-0.1","85EE103965C74C56A466C4C7FE4F1AD6","85EE103965C74C56A466C4C7FE4F1AD6","0198ba0e-05e3-77db-a658-3102f11b4fdd","0198b9d0-29d4-7df3-8625-4b4515841beb","{""num_scrambled_semantic"":""8"",""num_scrambled_causal"":""4"",""num_scrambled_schematic"":""4"",""participantId"":""85EE103965C74C56A466C4C7FE4F1AD6"",""assignmentId"":""0198ba0e-05e3-77db-a658-3102f11b4fdd"",""projectId"":""0198b9d0-29d4-7df3-8625-4b4515841beb""}","https://test12345.live/?num_scrambled_semantic=8&num_scrambled_causal=4&num_scrambled_schematic=4&participantId=85EE103965C74C56A466C4C7FE4F1AD6&assignmentId=0198ba0e-05e3-77db-a658-3102f11b4fdd&projectId=0198b9d0-29d4-7df3-8625-4b4515841beb","85EE103965C74C56A466C4C7FE4F1AD6-2025-08-17-22-38-05","","null","","images/instructions/movie_2.png","null","",""
"","","","","","image-button-response","13","65598","0.0-6.0-1.0-1.1","85EE103965C74C56A466C4C7FE4F1AD6","85EE103965C74C56A466C4C7FE4F1AD6","0198ba0e-05e3-77db-a658-3102f11b4fdd","0198b9d0-29d4-7df3-8625-4b4515841beb","{""num_scrambled_semantic"":""8"",""num_scrambled_causal"":""4"",""num_scrambled_schematic"":""4"",""participantId"":""85EE103965C74C56A466C4C7FE4F1AD6"",""assignmentId"":""0198ba0e-05e3-77db-a658-3102f11b4fdd"",""projectId"":""0198b9d0-29d4-7df3-8625-4b4515841beb""}","https://test12345.live/?num_scrambled_semantic=8&num_scrambled_causal=4&num_scrambled_schematic=4&participantId=85EE103965C74C56A466C4C7FE4F1AD6&assignmentId=0198ba0e-05e3-77db-a658-3102f11b4fdd&projectId=0198b9d0-29d4-7df3-8625-4b4515841beb","85EE103965C74C56A466C4C7FE4F1AD6-2025-08-17-22-38-05","","1133","","images/instructions/movie_2.png","0","",""
"","","","","","image-button-response","14","71002","0.0-6.0-1.0-2.1","85EE103965C74C56A466C4C7FE4F1AD6","85EE103965C74C56A466C4C7FE4F1AD6","0198ba0e-05e3-77db-a658-3102f11b4fdd","0198b9d0-29d4-7df3-8625-4b4515841beb","{""num_scrambled_semantic"":""8"",""num_scrambled_causal"":""4"",""num_scrambled_schematic"":""4"",""participantId"":""85EE103965C74C56A466C4C7FE4F1AD6"",""assignmentId"":""0198ba0e-05e3-77db-a658-3102f11b4fdd"",""projectId"":""0198b9d0-29d4-7df3-8625-4b4515841beb""}","https://test12345.live/?num_scrambled_semantic=8&num_scrambled_causal=4&num_scrambled_schematic=4&participantId=85EE103965C74C56A466C4C7FE4F1AD6&assignmentId=0198ba0e-05e3-77db-a658-3102f11b4fdd&projectId=0198b9d0-29d4-7df3-8625-4b4515841beb","85EE103965C74C56A466C4C7FE4F1AD6-2025-08-17-22-38-05","","null","","[]","null","",""
"","","","","","image-button-response","15","75506","0.0-6.0-1.0-0.2","85EE103965C74C56A466C4C7FE4F1AD6","85EE103965C74C56A466C4C7FE4F1AD6","0198ba0e-05e3-77db-a658-3102f11b4fdd","0198b9d0-29d4-7df3-8625-4b4515841beb","{""num_scrambled_semantic"":""8"",""num_scrambled_causal"":""4"",""num_scrambled_schematic"":""4"",""participantId"":""85EE103965C74C56A466C4C7FE4F1AD6"",""assignmentId"":""0198ba0e-05e3-77db-a658-3102f11b4fdd"",""projectId"":""0198b9d0-29d4-7df3-8625-4b4515841beb""}","https://test12345.live/?num_scrambled_semantic=8&num_scrambled_causal=4&num_scrambled_schematic=4&participantId=85EE103965C74C56A466C4C7FE4F1AD6&assignmentId=0198ba0e-05e3-77db-a658-3102f11b4fdd&projectId=0198b9d0-29d4-7df3-8625-4b4515841beb","85EE103965C74C56A466C4C7FE4F1AD6-2025-08-17-22-38-05","","null","","images/instructions/movie_3.png","null","",""
"","","","","","image-button-response","16","76281","0.0-6.0-1.0-1.2","85EE103965C74C56A466C4C7FE4F1AD6","85EE103965C74C56A466C4C7FE4F1AD6","0198ba0e-05e3-77db-a658-3102f11b4fdd","0198b9d0-29d4-7df3-8625-4b4515841beb","{""num_scrambled_semantic"":""8"",""num_scrambled_causal"":""4"",""num_scrambled_schematic"":""4"",""participantId"":""85EE103965C74C56A466C4C7FE4F1AD6"",""assignmentId"":""0198ba0e-05e3-77db-a658-3102f11b4fdd"",""projectId"":""0198b9d0-29d4-7df3-8625-4b4515841beb""}","https://test12345.live/?num_scrambled_semantic=8&num_scrambled_causal=4&num_scrambled_schematic=4&participantId=85EE103965C74C56A466C4C7FE4F1AD6&assignmentId=0198ba0e-05e3-77db-a658-3102f11b4fdd&projectId=0198b9d0-29d4-7df3-8625-4b4515841beb","85EE103965C74C56A466C4C7FE4F1AD6-2025-08-17-22-38-05","","772","","images/instructions/movie_3.png","0","",""
"","","","","","image-button-response","17","81688","0.0-6.0-1.0-2.2","85EE103965C74C56A466C4C7FE4F1AD6","85EE103965C74C56A466C4C7FE4F1AD6","0198ba0e-05e3-77db-a658-3102f11b4fdd","0198b9d0-29d4-7df3-8625-4b4515841beb","{""num_scrambled_semantic"":""8"",""num_scrambled_causal"":""4"",""num_scrambled_schematic"":""4"",""participantId"":""85EE103965C74C56A466C4C7FE4F1AD6"",""assignmentId"":""0198ba0e-05e3-77db-a658-3102f11b4fdd"",""projectId"":""0198b9d0-29d4-7df3-8625-4b4515841beb""}","https://test12345.live/?num_scrambled_semantic=8&num_scrambled_causal=4&num_scrambled_schematic=4&participantId=85EE103965C74C56A466C4C7FE4F1AD6&assignmentId=0198ba0e-05e3-77db-a658-3102f11b4fdd&projectId=0198b9d0-29d4-7df3-8625-4b4515841beb","85EE103965C74C56A466C4C7FE4F1AD6-2025-08-17-22-38-05","","null","","[]","null","",""
"","","","","","image-button-response","18","86191","0.0-6.0-1.0-0.3","85EE103965C74C56A466C4C7FE4F1AD6","85EE103965C74C56A466C4C7FE4F1AD6","0198ba0e-05e3-77db-a658-3102f11b4fdd","0198b9d0-29d4-7df3-8625-4b4515841beb","{""num_scrambled_semantic"":""8"",""num_scrambled_causal"":""4"",""num_scrambled_schematic"":""4"",""participantId"":""85EE103965C74C56A466C4C7FE4F1AD6"",""assignmentId"":""0198ba0e-05e3-77db-a658-3102f11b4fdd"",""projectId"":""0198b9d0-29d4-7df3-8625-4b4515841beb""}","https://test12345.live/?num_scrambled_semantic=8&num_scrambled_causal=4&num_scrambled_schematic=4&participantId=85EE103965C74C56A466C4C7FE4F1AD6&assignmentId=0198ba0e-05e3-77db-a658-3102f11b4fdd&projectId=0198b9d0-29d4-7df3-8625-4b4515841beb","85EE103965C74C56A466C4C7FE4F1AD6-2025-08-17-22-38-05","","null","","images/instructions/movie_4.png","null","",""
"","","","","","image-button-response","19","86964","0.0-6.0-1.0-1.3","85EE103965C74C56A466C4C7FE4F1AD6","85EE103965C74C56A466C4C7FE4F1AD6","0198ba0e-05e3-77db-a658-3102f11b4fdd","0198b9d0-29d4-7df3-8625-4b4515841beb","{""num_scrambled_semantic"":""8"",""num_scrambled_causal"":""4"",""num_scrambled_schematic"":""4"",""participantId"":""85EE103965C74C56A466C4C7FE4F1AD6"",""assignmentId"":""0198ba0e-05e3-77db-a658-3102f11b4fdd"",""projectId"":""0198b9d0-29d4-7df3-8625-4b4515841beb""}","https://test12345.live/?num_scrambled_semantic=8&num_scrambled_causal=4&num_scrambled_schematic=4&participantId=85EE103965C74C56A466C4C7FE4F1AD6&assignmentId=0198ba0e-05e3-77db-a658-3102f11b4fdd&projectId=0198b9d0-29d4-7df3-8625-4b4515841beb","85EE103965C74C56A466C4C7FE4F1AD6-2025-08-17-22-38-05","","771","","images/instructions/movie_4.png","0","",""
"","","","","","image-button-response","20","92367","0.0-6.0-1.0-2.3","85EE103965C74C56A466C4C7FE4F1AD6","85EE103965C74C56A466C4C7FE4F1AD6","0198ba0e-05e3-77db-a658-3102f11b4fdd","0198b9d0-29d4-7df3-8625-4b4515841beb","{""num_scrambled_semantic"":""8"",""num_scrambled_causal"":""4"",""num_scrambled_schematic"":""4"",""participantId"":""85EE103965C74C56A466C4C7FE4F1AD6"",""assignmentId"":""0198ba0e-05e3-77db-a658-3102f11b4fdd"",""projectId"":""0198b9d0-29d4-7df3-8625-4b4515841beb""}","https://test12345.live/?num_scrambled_semantic=8&num_scrambled_causal=4&num_scrambled_schematic=4&participantId=85EE103965C74C56A466C4C7FE4F1AD6&assignmentId=0198ba0e-05e3-77db-a658-3102f11b4fdd&projectId=0198b9d0-29d4-7df3-8625-4b4515841beb","85EE103965C74C56A466C4C7FE4F1AD6-2025-08-17-22-38-05","","null","","[]","null","",""
"","","","","","instructions","21","99447","0.0-7.0","85EE103965C74C56A466C4C7FE4F1AD6","85EE103965C74C56A466C4C7FE4F1AD6","0198ba0e-05e3-77db-a658-3102f11b4fdd","0198b9d0-29d4-7df3-8625-4b4515841beb","{""num_scrambled_semantic"":""8"",""num_scrambled_causal"":""4"",""num_scrambled_schematic"":""4"",""participantId"":""85EE103965C74C56A466C4C7FE4F1AD6"",""assignmentId"":""0198ba0e-05e3-77db-a658-3102f11b4fdd"",""projectId"":""0198b9d0-29d4-7df3-8625-4b4515841beb""}","https://test12345.live/?num_scrambled_semantic=8&num_scrambled_causal=4&num_scrambled_schematic=4&participantId=85EE103965C74C56A466C4C7FE4F1AD6&assignmentId=0198ba0e-05e3-77db-a658-3102f11b4fdd&projectId=0198b9d0-29d4-7df3-8625-4b4515841beb","85EE103965C74C56A466C4C7FE4F1AD6-2025-08-17-22-38-05","[{""page_index"":0,""viewing_time"":5930},{""page_index"":1,""viewing_time"":1149}]","7080","","","","",""
"","","","","","html-audio-response","22","138281","0.0-8.0","85EE103965C74C56A466C4C7FE4F1AD6","85EE103965C74C56A466C4C7FE4F1AD6","0198ba0e-05e3-77db-a658-3102f11b4fdd","0198b9d0-29d4-7df3-8625-4b4515841beb","{""num_scrambled_semantic"":""8"",""num_scrambled_causal"":""4"",""num_scrambled_schematic"":""4"",""participantId"":""85EE103965C74C56A466C4C7FE4F1AD6"",""assignmentId"":""0198ba0e-05e3-77db-a658-3102f11b4fdd"",""projectId"":""0198b9d0-29d4-7df3-8625-4b4515841beb""}","https://test12345.live/?num_scrambled_semantic=8&num_scrambled_causal=4&num_scrambled_schematic=4&participantId=85EE103965C74C56A466C4C7FE4F1AD6&assignmentId=0198ba0e-05e3-77db-a658-3102f11b4fdd&projectId=0198b9d0-29d4-7df3-8625-4b4515841beb","85EE103965C74C56A466C4C7FE4F1AD6-2025-08-17-22-38-05","","13937","","[""<span style=\""color: red; font-size: 24px\""> NOW RECORDING</span><p>Please say out loud all the images you saw, as many as you can remember. The images can be said in any order.</p>""]","","3",""
"","","","","","instructions","23","139298","0.0-9.0","85EE103965C74C56A466C4C7FE4F1AD6","85EE103965C74C56A466C4C7FE4F1AD6","0198ba0e-05e3-77db-a658-3102f11b4fdd","0198b9d0-29d4-7df3-8625-4b4515841beb","{""num_scrambled_semantic"":""8"",""num_scrambled_causal"":""4"",""num_scrambled_schematic"":""4"",""participantId"":""85EE103965C74C56A466C4C7FE4F1AD6"",""assignmentId"":""0198ba0e-05e3-77db-a658-3102f11b4fdd"",""projectId"":""0198b9d0-29d4-7df3-8625-4b4515841beb""}","https://test12345.live/?num_scrambled_semantic=8&num_scrambled_causal=4&num_scrambled_schematic=4&participantId=85EE103965C74C56A466C4C7FE4F1AD6&assignmentId=0198ba0e-05e3-77db-a658-3102f11b4fdd&projectId=0198b9d0-29d4-7df3-8625-4b4515841beb","85EE103965C74C56A466C4C7FE4F1AD6-2025-08-17-22-38-05","[{""page_index"":0,""viewing_time"":1011}]","1012","","","","",""
"","","","","","image-button-response","24","145305","0.0-10.0-0.0","85EE103965C74C56A466C4C7FE4F1AD6","85EE103965C74C56A466C4C7FE4F1AD6","0198ba0e-05e3-77db-a658-3102f11b4fdd","0198b9d0-29d4-7df3-8625-4b4515841beb","{""num_scrambled_semantic"":""8"",""num_scrambled_causal"":""4"",""num_scrambled_schematic"":""4"",""participantId"":""85EE103965C74C56A466C4C7FE4F1AD6"",""assignmentId"":""0198ba0e-05e3-77db-a658-3102f11b4fdd"",""projectId"":""0198b9d0-29d4-7df3-8625-4b4515841beb""}","https://test12345.live/?num_scrambled_semantic=8&num_scrambled_causal=4&num_scrambled_schematic=4&participantId=85EE103965C74C56A466C4C7FE4F1AD6&assignmentId=0198ba0e-05e3-77db-a658-3102f11b4fdd&projectId=0198b9d0-29d4-7df3-8625-4b4515841beb","85EE103965C74C56A466C4C7FE4F1AD6-2025-08-17-22-38-05","","null","","images/semantic_sequence/physical_activity_semantic/physical_activity_semantic_0.png","null","",""
"","","","","","image-button-response","25","149812","0.0-10.0-1.0-0.0","85EE103965C74C56A466C4C7FE4F1AD6","85EE103965C74C56A466C4C7FE4F1AD6","0198ba0e-05e3-77db-a658-3102f11b4fdd","0198b9d0-29d4-7df3-8625-4b4515841beb","{""num_scrambled_semantic"":""8"",""num_scrambled_causal"":""4"",""num_scrambled_schematic"":""4"",""participantId"":""85EE103965C74C56A466C4C7FE4F1AD6"",""assignmentId"":""0198ba0e-05e3-77db-a658-3102f11b4fdd"",""projectId"":""0198b9d0-29d4-7df3-8625-4b4515841beb""}","https://test12345.live/?num_scrambled_semantic=8&num_scrambled_causal=4&num_scrambled_schematic=4&participantId=85EE103965C74C56A466C4C7FE4F1AD6&assignmentId=0198ba0e-05e3-77db-a658-3102f11b4fdd&projectId=0198b9d0-29d4-7df3-8625-4b4515841beb","85EE103965C74C56A466C4C7FE4F1AD6-2025-08-17-22-38-05","","null","","images/semantic_sequence/physical_activity_semantic/physical_activity_semantic_1.png","null","",""
"","","","","","image-button-response","26","153047","0.0-10.0-1.0-1.0","85EE103965C74C56A466C4C7FE4F1AD6","85EE103965C74C56A466C4C7FE4F1AD6","0198ba0e-05e3-77db-a658-3102f11b4fdd","0198b9d0-29d4-7df3-8625-4b4515841beb","{""num_scrambled_semantic"":""8"",""num_scrambled_causal"":""4"",""num_scrambled_schematic"":""4"",""participantId"":""85EE103965C74C56A466C4C7FE4F1AD6"",""assignmentId"":""0198ba0e-05e3-77db-a658-3102f11b4fdd"",""projectId"":""0198b9d0-29d4-7df3-8625-4b4515841beb""}","https://test12345.live/?num_scrambled_semantic=8&num_scrambled_causal=4&num_scrambled_schematic=4&participantId=85EE103965C74C56A466C4C7FE4F1AD6&assignmentId=0198ba0e-05e3-77db-a658-3102f11b4fdd&projectId=0198b9d0-29d4-7df3-8625-4b4515841beb","85EE103965C74C56A466C4C7FE4F1AD6-2025-08-17-22-38-05","","3233","","images/semantic_sequence/physical_activity_semantic/physical_activity_semantic_1.png","0","",""
"","","","","","image-button-response","27","158449","0.0-10.0-1.0-2.0","85EE103965C74C56A466C4C7FE4F1AD6","85EE103965C74C56A466C4C7FE4F1AD6","0198ba0e-05e3-77db-a658-3102f11b4fdd","0198b9d0-29d4-7df3-8625-4b4515841beb","{""num_scrambled_semantic"":""8"",""num_scrambled_causal"":""4"",""num_scrambled_schematic"":""4"",""participantId"":""85EE103965C74C56A466C4C7FE4F1AD6"",""assignmentId"":""0198ba0e-05e3-77db-a658-3102f11b4fdd"",""projectId"":""0198b9d0-29d4-7df3-8625-4b4515841beb""}","https://test12345.live/?num_scrambled_semantic=8&num_scrambled_causal=4&num_scrambled_schematic=4&participantId=85EE103965C74C56A466C4C7FE4F1AD6&assignmentId=0198ba0e-05e3-77db-a658-3102f11b4fdd&projectId=0198b9d0-29d4-7df3-8625-4b4515841beb","85EE103965C74C56A466C4C7FE4F1AD6-2025-08-17-22-38-05","","null","","[]","null","",""
"","","","","","image-button-response","28","162951","0.0-10.0-1.0-0.1","85EE103965C74C56A466C4C7FE4F1AD6","85EE103965C74C56A466C4C7FE4F1AD6","0198ba0e-05e3-77db-a658-3102f11b4fdd","0198b9d0-29d4-7df3-8625-4b4515841beb","{""num_scrambled_semantic"":""8"",""num_scrambled_causal"":""4"",""num_scrambled_schematic"":""4"",""participantId"":""85EE103965C74C56A466C4C7FE4F1AD6"",""assignmentId"":""0198ba0e-05e3-77db-a658-3102f11b4fdd"",""projectId"":""0198b9d0-29d4-7df3-8625-4b4515841beb""}","https://test12345.live/?num_scrambled_semantic=8&num_scrambled_causal=4&num_scrambled_schematic=4&participantId=85EE103965C74C56A466C4C7FE4F1AD6&assignmentId=0198ba0e-05e3-77db-a658-3102f11b4fdd&projectId=0198b9d0-29d4-7df3-8625-4b4515841beb","85EE103965C74C56A466C4C7FE4F1AD6-2025-08-17-22-38-05","","null","","images/semantic_sequence/physical_activity_semantic/physical_activity_semantic_7.png","null","",""
"","","","","","image-button-response","29","164031","0.0-10.0-1.0-1.1","85EE103965C74C56A466C4C7FE4F1AD6","85EE103965C74C56A466C4C7FE4F1AD6","0198ba0e-05e3-77db-a658-3102f11b4fdd","0198b9d0-29d4-7df3-8625-4b4515841beb","{""num_scrambled_semantic"":""8"",""num_scrambled_causal"":""4"",""num_scrambled_schematic"":""4"",""participantId"":""85EE103965C74C56A466C4C7FE4F1AD6"",""assignmentId"":""0198ba0e-05e3-77db-a658-3102f11b4fdd"",""projectId"":""0198b9d0-29d4-7df3-8625-4b4515841beb""}","https://test12345.live/?num_scrambled_semantic=8&num_scrambled_causal=4&num_scrambled_schematic=4&participantId=85EE103965C74C56A466C4C7FE4F1AD6&assignmentId=0198ba0e-05e3-77db-a658-3102f11b4fdd&projectId=0198b9d0-29d4-7df3-8625-4b4515841beb","85EE103965C74C56A466C4C7FE4F1AD6-2025-08-17-22-38-05","","1078","","images/semantic_sequence/physical_activity_semantic/physical_activity_semantic_7.png","0","",""
"","","","","","image-button-response","30","169438","0.0-10.0-1.0-2.1","85EE103965C74C56A466C4C7FE4F1AD6","85EE103965C74C56A466C4C7FE4F1AD6","0198ba0e-05e3-77db-a658-3102f11b4fdd","0198b9d0-29d4-7df3-8625-4b4515841beb","{""num_scrambled_semantic"":""8"",""num_scrambled_causal"":""4"",""num_scrambled_schematic"":""4"",""participantId"":""85EE103965C74C56A466C4C7FE4F1AD6"",""assignmentId"":""0198ba0e-05e3-77db-a658-3102f11b4fdd"",""projectId"":""0198b9d0-29d4-7df3-8625-4b4515841beb""}","https://test12345.live/?num_scrambled_semantic=8&num_scrambled_causal=4&num_scrambled_schematic=4&participantId=85EE103965C74C56A466C4C7FE4F1AD6&assignmentId=0198ba0e-05e3-77db-a658-3102f11b4fdd&projectId=0198b9d0-29d4-7df3-8625-4b4515841beb","85EE103965C74C56A466C4C7FE4F1AD6-2025-08-17-22-38-05","","null","","[]","null","",""
"","","","","","image-button-response","31","173941","0.0-10.0-1.0-0.2","85EE103965C74C56A466C4C7FE4F1AD6","85EE103965C74C56A466C4C7FE4F1AD6","0198ba0e-05e3-77db-a658-3102f11b4fdd","0198b9d0-29d4-7df3-8625-4b4515841beb","{""num_scrambled_semantic"":""8"",""num_scrambled_causal"":""4"",""num_scrambled_schematic"":""4"",""participantId"":""85EE103965C74C56A466C4C7FE4F1AD6"",""assignmentId"":""0198ba0e-05e3-77db-a658-3102f11b4fdd"",""projectId"":""0198b9d0-29d4-7df3-8625-4b4515841beb""}","https://test12345.live/?num_scrambled_semantic=8&num_scrambled_causal=4&num_scrambled_schematic=4&participantId=85EE103965C74C56A466C4C7FE4F1AD6&assignmentId=0198ba0e-05e3-77db-a658-3102f11b4fdd&projectId=0198b9d0-29d4-7df3-8625-4b4515841beb","85EE103965C74C56A466C4C7FE4F1AD6-2025-08-17-22-38-05","","null","","images/semantic_sequence/physical_activity_semantic/physical_activity_semantic_5.png","null","",""
"","","","","","image-button-response","32","174981","0.0-10.0-1.0-1.2","85EE103965C74C56A466C4C7FE4F1AD6","85EE103965C74C56A466C4C7FE4F1AD6","0198ba0e-05e3-77db-a658-3102f11b4fdd","0198b9d0-29d4-7df3-8625-4b4515841beb","{""num_scrambled_semantic"":""8"",""num_scrambled_causal"":""4"",""num_scrambled_schematic"":""4"",""participantId"":""85EE103965C74C56A466C4C7FE4F1AD6"",""assignmentId"":""0198ba0e-05e3-77db-a658-3102f11b4fdd"",""projectId"":""0198b9d0-29d4-7df3-8625-4b4515841beb""}","https://test12345.live/?num_scrambled_semantic=8&num_scrambled_causal=4&num_scrambled_schematic=4&participantId=85EE103965C74C56A466C4C7FE4F1AD6&assignmentId=0198ba0e-05e3-77db-a658-3102f11b4fdd&projectId=0198b9d0-29d4-7df3-8625-4b4515841beb","85EE103965C74C56A466C4C7FE4F1AD6-2025-08-17-22-38-05","","1038","","images/semantic_sequence/physical_activity_semantic/physical_activity_semantic_5.png","0","",""
"","","","","","image-button-response","33","180387","0.0-10.0-1.0-2.2","85EE103965C74C56A466C4C7FE4F1AD6","85EE103965C74C56A466C4C7FE4F1AD6","0198ba0e-05e3-77db-a658-3102f11b4fdd","0198b9d0-29d4-7df3-8625-4b4515841beb","{""num_scrambled_semantic"":""8"",""num_scrambled_causal"":""4"",""num_scrambled_schematic"":""4"",""participantId"":""85EE103965C74C56A466C4C7FE4F1AD6"",""assignmentId"":""0198ba0e-05e3-77db-a658-3102f11b4fdd"",""projectId"":""0198b9d0-29d4-7df3-8625-4b4515841beb""}","https://test12345.live/?num_scrambled_semantic=8&num_scrambled_causal=4&num_scrambled_schematic=4&participantId=85EE103965C74C56A466C4C7FE4F1AD6&assignmentId=0198ba0e-05e3-77db-a658-3102f11b4fdd&projectId=0198b9d0-29d4-7df3-8625-4b4515841beb","85EE103965C74C56A466C4C7FE4F1AD6-2025-08-17-22-38-05","","null","","[]","null","",""
"","","","","","image-button-response","34","184894","0.0-10.0-1.0-0.3","85EE103965C74C56A466C4C7FE4F1AD6","85EE103965C74C56A466C4C7FE4F1AD6","0198ba0e-05e3-77db-a658-3102f11b4fdd","0198b9d0-29d4-7df3-8625-4b4515841beb","{""num_scrambled_semantic"":""8"",""num_scrambled_causal"":""4"",""num_scrambled_schematic"":""4"",""participantId"":""85EE103965C74C56A466C4C7FE4F1AD6"",""assignmentId"":""0198ba0e-05e3-77db-a658-3102f11b4fdd"",""projectId"":""0198b9d0-29d4-7df3-8625-4b4515841beb""}","https://test12345.live/?num_scrambled_semantic=8&num_scrambled_causal=4&num_scrambled_schematic=4&participantId=85EE103965C74C56A466C4C7FE4F1AD6&assignmentId=0198ba0e-05e3-77db-a658-3102f11b4fdd&projectId=0198b9d0-29d4-7df3-8625-4b4515841beb","85EE103965C74C56A466C4C7FE4F1AD6-2025-08-17-22-38-05","","null","","images/semantic_sequence/physical_activity_semantic/physical_activity_semantic_2.png","null","",""
"","","","","","image-button-response","35","186131","0.0-10.0-1.0-1.3","85EE103965C74C56A466C4C7FE4F1AD6","85EE103965C74C56A466C4C7FE4F1AD6","0198ba0e-05e3-77db-a658-3102f11b4fdd","0198b9d0-29d4-7df3-8625-4b4515841beb","{""num_scrambled_semantic"":""8"",""num_scrambled_causal"":""4"",""num_scrambled_schematic"":""4"",""participantId"":""85EE103965C74C56A466C4C7FE4F1AD6"",""assignmentId"":""0198ba0e-05e3-77db-a658-3102f11b4fdd"",""projectId"":""0198b9d0-29d4-7df3-8625-4b4515841beb""}","https://test12345.live/?num_scrambled_semantic=8&num_scrambled_causal=4&num_scrambled_schematic=4&participantId=85EE103965C74C56A466C4C7FE4F1AD6&assignmentId=0198ba0e-05e3-77db-a658-3102f11b4fdd&projectId=0198b9d0-29d4-7df3-8625-4b4515841beb","85EE103965C74C56A466C4C7FE4F1AD6-2025-08-17-22-38-05","","1235","","images/semantic_sequence/physical_activity_semantic/physical_activity_semantic_2.png","0","",""
"","","","","","image-button-response","36","191537","0.0-10.0-1.0-2.3","85EE103965C74C56A466C4C7FE4F1AD6","85EE103965C74C56A466C4C7FE4F1AD6","0198ba0e-05e3-77db-a658-3102f11b4fdd","0198b9d0-29d4-7df3-8625-4b4515841beb","{""num_scrambled_semantic"":""8"",""num_scrambled_causal"":""4"",""num_scrambled_schematic"":""4"",""participantId"":""85EE103965C74C56A466C4C7FE4F1AD6"",""assignmentId"":""0198ba0e-05e3-77db-a658-3102f11b4fdd"",""projectId"":""0198b9d0-29d4-7df3-8625-4b4515841beb""}","https://test12345.live/?num_scrambled_semantic=8&num_scrambled_causal=4&num_scrambled_schematic=4&participantId=85EE103965C74C56A466C4C7FE4F1AD6&assignmentId=0198ba0e-05e3-77db-a658-3102f11b4fdd&projectId=0198b9d0-29d4-7df3-8625-4b4515841beb","85EE103965C74C56A466C4C7FE4F1AD6-2025-08-17-22-38-05","","null","","[]","null","",""
"","","","","","image-button-response","37","196042","0.0-10.0-1.0-0.4","85EE103965C74C56A466C4C7FE4F1AD6","85EE103965C74C56A466C4C7FE4F1AD6","0198ba0e-05e3-77db-a658-3102f11b4fdd","0198b9d0-29d4-7df3-8625-4b4515841beb","{""num_scrambled_semantic"":""8"",""num_scrambled_causal"":""4"",""num_scrambled_schematic"":""4"",""participantId"":""85EE103965C74C56A466C4C7FE4F1AD6"",""assignmentId"":""0198ba0e-05e3-77db-a658-3102f11b4fdd"",""projectId"":""0198b9d0-29d4-7df3-8625-4b4515841beb""}","https://test12345.live/?num_scrambled_semantic=8&num_scrambled_causal=4&num_scrambled_schematic=4&participantId=85EE103965C74C56A466C4C7FE4F1AD6&assignmentId=0198ba0e-05e3-77db-a658-3102f11b4fdd&projectId=0198b9d0-29d4-7df3-8625-4b4515841beb","85EE103965C74C56A466C4C7FE4F1AD6-2025-08-17-22-38-05","","null","","images/semantic_sequence/physical_activity_semantic/physical_activity_semantic_9.png","null","",""
"","","","","","image-button-response","38","197864","0.0-10.0-1.0-1.4","85EE103965C74C56A466C4C7FE4F1AD6","85EE103965C74C56A466C4C7FE4F1AD6","0198ba0e-05e3-77db-a658-3102f11b4fdd","0198b9d0-29d4-7df3-8625-4b4515841beb","{""num_scrambled_semantic"":""8"",""num_scrambled_causal"":""4"",""num_scrambled_schematic"":""4"",""participantId"":""85EE103965C74C56A466C4C7FE4F1AD6"",""assignmentId"":""0198ba0e-05e3-77db-a658-3102f11b4fdd"",""projectId"":""0198b9d0-29d4-7df3-8625-4b4515841beb""}","https://test12345.live/?num_scrambled_semantic=8&num_scrambled_causal=4&num_scrambled_schematic=4&participantId=85EE103965C74C56A466C4C7FE4F1AD6&assignmentId=0198ba0e-05e3-77db-a658-3102f11b4fdd&projectId=0198b9d0-29d4-7df3-8625-4b4515841beb","85EE103965C74C56A466C4C7FE4F1AD6-2025-08-17-22-38-05","","1820","","images/semantic_sequence/physical_activity_semantic/physical_activity_semantic_9.png","0","",""
"","","","","","image-button-response","39","203269","0.0-10.0-1.0-2.4","85EE103965C74C56A466C4C7FE4F1AD6","85EE103965C74C56A466C4C7FE4F1AD6","0198ba0e-05e3-77db-a658-3102f11b4fdd","0198b9d0-29d4-7df3-8625-4b4515841beb","{""num_scrambled_semantic"":""8"",""num_scrambled_causal"":""4"",""num_scrambled_schematic"":""4"",""participantId"":""85EE103965C74C56A466C4C7FE4F1AD6"",""assignmentId"":""0198ba0e-05e3-77db-a658-3102f11b4fdd"",""projectId"":""0198b9d0-29d4-7df3-8625-4b4515841beb""}","https://test12345.live/?num_scrambled_semantic=8&num_scrambled_causal=4&num_scrambled_schematic=4&participantId=85EE103965C74C56A466C4C7FE4F1AD6&assignmentId=0198ba0e-05e3-77db-a658-3102f11b4fdd&projectId=0198b9d0-29d4-7df3-8625-4b4515841beb","85EE103965C74C56A466C4C7FE4F1AD6-2025-08-17-22-38-05","","null","","[]","null","",""
"","","","","","image-button-response","40","207772","0.0-10.0-1.0-0.5","85EE103965C74C56A466C4C7FE4F1AD6","85EE103965C74C56A466C4C7FE4F1AD6","0198ba0e-05e3-77db-a658-3102f11b4fdd","0198b9d0-29d4-7df3-8625-4b4515841beb","{""num_scrambled_semantic"":""8"",""num_scrambled_causal"":""4"",""num_scrambled_schematic"":""4"",""participantId"":""85EE103965C74C56A466C4C7FE4F1AD6"",""assignmentId"":""0198ba0e-05e3-77db-a658-3102f11b4fdd"",""projectId"":""0198b9d0-29d4-7df3-8625-4b4515841beb""}","https://test12345.live/?num_scrambled_semantic=8&num_scrambled_causal=4&num_scrambled_schematic=4&participantId=85EE103965C74C56A466C4C7FE4F1AD6&assignmentId=0198ba0e-05e3-77db-a658-3102f11b4fdd&projectId=0198b9d0-29d4-7df3-8625-4b4515841beb","85EE103965C74C56A466C4C7FE4F1AD6-2025-08-17-22-38-05","","null","","images/semantic_sequence/physical_activity_semantic/physical_activity_semantic_4.png","null","",""
"","","","","","image-button-response","41","208431","0.0-10.0-1.0-1.5","85EE103965C74C56A466C4C7FE4F1AD6","85EE103965C74C56A466C4C7FE4F1AD6","0198ba0e-05e3-77db-a658-3102f11b4fdd","0198b9d0-29d4-7df3-8625-4b4515841beb","{""num_scrambled_semantic"":""8"",""num_scrambled_causal"":""4"",""num_scrambled_schematic"":""4"",""participantId"":""85EE103965C74C56A466C4C7FE4F1AD6"",""assignmentId"":""0198ba0e-05e3-77db-a658-3102f11b4fdd"",""projectId"":""0198b9d0-29d4-7df3-8625-4b4515841beb""}","https://test12345.live/?num_scrambled_semantic=8&num_scrambled_causal=4&num_scrambled_schematic=4&participantId=85EE103965C74C56A466C4C7FE4F1AD6&assignmentId=0198ba0e-05e3-77db-a658-3102f11b4fdd&projectId=0198b9d0-29d4-7df3-8625-4b4515841beb","85EE103965C74C56A466C4C7FE4F1AD6-2025-08-17-22-38-05","","657","","images/semantic_sequence/physical_activity_semantic/physical_activity_semantic_4.png","0","",""
"","","","","","image-button-response","42","213837","0.0-10.0-1.0-2.5","85EE103965C74C56A466C4C7FE4F1AD6","85EE103965C74C56A466C4C7FE4F1AD6","0198ba0e-05e3-77db-a658-3102f11b4fdd","0198b9d0-29d4-7df3-8625-4b4515841beb","{""num_scrambled_semantic"":""8"",""num_scrambled_causal"":""4"",""num_scrambled_schematic"":""4"",""participantId"":""85EE103965C74C56A466C4C7FE4F1AD6"",""assignmentId"":""0198ba0e-05e3-77db-a658-3102f11b4fdd"",""projectId"":""0198b9d0-29d4-7df3-8625-4b4515841beb""}","https://test12345.live/?num_scrambled_semantic=8&num_scrambled_causal=4&num_scrambled_schematic=4&participantId=85EE103965C74C56A466C4C7FE4F1AD6&assignmentId=0198ba0e-05e3-77db-a658-3102f11b4fdd&projectId=0198b9d0-29d4-7df3-8625-4b4515841beb","85EE103965C74C56A466C4C7FE4F1AD6-2025-08-17-22-38-05","","null","","[]","null","",""
"","","","","","image-button-response","43","218342","0.0-10.0-1.0-0.6","85EE103965C74C56A466C4C7FE4F1AD6","85EE103965C74C56A466C4C7FE4F1AD6","0198ba0e-05e3-77db-a658-3102f11b4fdd","0198b9d0-29d4-7df3-8625-4b4515841beb","{""num_scrambled_semantic"":""8"",""num_scrambled_causal"":""4"",""num_scrambled_schematic"":""4"",""participantId"":""85EE103965C74C56A466C4C7FE4F1AD6"",""assignmentId"":""0198ba0e-05e3-77db-a658-3102f11b4fdd"",""projectId"":""0198b9d0-29d4-7df3-8625-4b4515841beb""}","https://test12345.live/?num_scrambled_semantic=8&num_scrambled_causal=4&num_scrambled_schematic=4&participantId=85EE103965C74C56A466C4C7FE4F1AD6&assignmentId=0198ba0e-05e3-77db-a658-3102f11b4fdd&projectId=0198b9d0-29d4-7df3-8625-4b4515841beb","85EE103965C74C56A466C4C7FE4F1AD6-2025-08-17-22-38-05","","null","","images/semantic_sequence/physical_activity_semantic/physical_activity_semantic_ten.png","null","",""
"","","","","","image-button-response","44","219381","0.0-10.0-1.0-1.6","85EE103965C74C56A466C4C7FE4F1AD6","85EE103965C74C56A466C4C7FE4F1AD6","0198ba0e-05e3-77db-a658-3102f11b4fdd","0198b9d0-29d4-7df3-8625-4b4515841beb","{""num_scrambled_semantic"":""8"",""num_scrambled_causal"":""4"",""num_scrambled_schematic"":""4"",""participantId"":""85EE103965C74C56A466C4C7FE4F1AD6"",""assignmentId"":""0198ba0e-05e3-77db-a658-3102f11b4fdd"",""projectId"":""0198b9d0-29d4-7df3-8625-4b4515841beb""}","https://test12345.live/?num_scrambled_semantic=8&num_scrambled_causal=4&num_scrambled_schematic=4&participantId=85EE103965C74C56A466C4C7FE4F1AD6&assignmentId=0198ba0e-05e3-77db-a658-3102f11b4fdd&projectId=0198b9d0-29d4-7df3-8625-4b4515841beb","85EE103965C74C56A466C4C7FE4F1AD6-2025-08-17-22-38-05","","1037","","images/semantic_sequence/physical_activity_semantic/physical_activity_semantic_ten.png","0","",""
"","","","","","image-button-response","45","224784","0.0-10.0-1.0-2.6","85EE103965C74C56A466C4C7FE4F1AD6","85EE103965C74C56A466C4C7FE4F1AD6","0198ba0e-05e3-77db-a658-3102f11b4fdd","0198b9d0-29d4-7df3-8625-4b4515841beb","{""num_scrambled_semantic"":""8"",""num_scrambled_causal"":""4"",""num_scrambled_schematic"":""4"",""participantId"":""85EE103965C74C56A466C4C7FE4F1AD6"",""assignmentId"":""0198ba0e-05e3-77db-a658-3102f11b4fdd"",""projectId"":""0198b9d0-29d4-7df3-8625-4b4515841beb""}","https://test12345.live/?num_scrambled_semantic=8&num_scrambled_causal=4&num_scrambled_schematic=4&participantId=85EE103965C74C56A466C4C7FE4F1AD6&assignmentId=0198ba0e-05e3-77db-a658-3102f11b4fdd&projectId=0198b9d0-29d4-7df3-8625-4b4515841beb","85EE103965C74C56A466C4C7FE4F1AD6-2025-08-17-22-38-05","","null","","[]","null","",""
"","","","","","image-button-response","46","229291","0.0-10.0-1.0-0.7","85EE103965C74C56A466C4C7FE4F1AD6","85EE103965C74C56A466C4C7FE4F1AD6","0198ba0e-05e3-77db-a658-3102f11b4fdd","0198b9d0-29d4-7df3-8625-4b4515841beb","{""num_scrambled_semantic"":""8"",""num_scrambled_causal"":""4"",""num_scrambled_schematic"":""4"",""participantId"":""85EE103965C74C56A466C4C7FE4F1AD6"",""assignmentId"":""0198ba0e-05e3-77db-a658-3102f11b4fdd"",""projectId"":""0198b9d0-29d4-7df3-8625-4b4515841beb""}","https://test12345.live/?num_scrambled_semantic=8&num_scrambled_causal=4&num_scrambled_schematic=4&participantId=85EE103965C74C56A466C4C7FE4F1AD6&assignmentId=0198ba0e-05e3-77db-a658-3102f11b4fdd&projectId=0198b9d0-29d4-7df3-8625-4b4515841beb","85EE103965C74C56A466C4C7FE4F1AD6-2025-08-17-22-38-05","","null","","images/semantic_sequence/physical_activity_semantic/physical_activity_semantic_6.png","null","",""
"","","","","","image-button-response","47","230148","0.0-10.0-1.0-1.7","85EE103965C74C56A466C4C7FE4F1AD6","85EE103965C74C56A466C4C7FE4F1AD6","0198ba0e-05e3-77db-a658-3102f11b4fdd","0198b9d0-29d4-7df3-8625-4b4515841beb","{""num_scrambled_semantic"":""8"",""num_scrambled_causal"":""4"",""num_scrambled_schematic"":""4"",""participantId"":""85EE103965C74C56A466C4C7FE4F1AD6"",""assignmentId"":""0198ba0e-05e3-77db-a658-3102f11b4fdd"",""projectId"":""0198b9d0-29d4-7df3-8625-4b4515841beb""}","https://test12345.live/?num_scrambled_semantic=8&num_scrambled_causal=4&num_scrambled_schematic=4&participantId=85EE103965C74C56A466C4C7FE4F1AD6&assignmentId=0198ba0e-05e3-77db-a658-3102f11b4fdd&projectId=0198b9d0-29d4-7df3-8625-4b4515841beb","85EE103965C74C56A466C4C7FE4F1AD6-2025-08-17-22-38-05","","855","","images/semantic_sequence/physical_activity_semantic/physical_activity_semantic_6.png","0","",""
"","","","","","image-button-response","48","235552","0.0-10.0-1.0-2.7","85EE103965C74C56A466C4C7FE4F1AD6","85EE103965C74C56A466C4C7FE4F1AD6","0198ba0e-05e3-77db-a658-3102f11b4fdd","0198b9d0-29d4-7df3-8625-4b4515841beb","{""num_scrambled_semantic"":""8"",""num_scrambled_causal"":""4"",""num_scrambled_schematic"":""4"",""participantId"":""85EE103965C74C56A466C4C7FE4F1AD6"",""assignmentId"":""0198ba0e-05e3-77db-a658-3102f11b4fdd"",""projectId"":""0198b9d0-29d4-7df3-8625-4b4515841beb""}","https://test12345.live/?num_scrambled_semantic=8&num_scrambled_causal=4&num_scrambled_schematic=4&participantId=85EE103965C74C56A466C4C7FE4F1AD6&assignmentId=0198ba0e-05e3-77db-a658-3102f11b4fdd&projectId=0198b9d0-29d4-7df3-8625-4b4515841beb","85EE103965C74C56A466C4C7FE4F1AD6-2025-08-17-22-38-05","","null","","[]","null","",""
"","","","","","image-button-response","49","240059","0.0-10.0-1.0-0.8","85EE103965C74C56A466C4C7FE4F1AD6","85EE103965C74C56A466C4C7FE4F1AD6","0198ba0e-05e3-77db-a658-3102f11b4fdd","0198b9d0-29d4-7df3-8625-4b4515841beb","{""num_scrambled_semantic"":""8"",""num_scrambled_causal"":""4"",""num_scrambled_schematic"":""4"",""participantId"":""85EE103965C74C56A466C4C7FE4F1AD6"",""assignmentId"":""0198ba0e-05e3-77db-a658-3102f11b4fdd"",""projectId"":""0198b9d0-29d4-7df3-8625-4b4515841beb""}","https://test12345.live/?num_scrambled_semantic=8&num_scrambled_causal=4&num_scrambled_schematic=4&participantId=85EE103965C74C56A466C4C7FE4F1AD6&assignmentId=0198ba0e-05e3-77db-a658-3102f11b4fdd&projectId=0198b9d0-29d4-7df3-8625-4b4515841beb","85EE103965C74C56A466C4C7FE4F1AD6-2025-08-17-22-38-05","","null","","images/semantic_sequence/physical_activity_semantic/physical_activity_semantic_3.png","null","",""
"","","","","","image-button-response","50","240614","0.0-10.0-1.0-1.8","85EE103965C74C56A466C4C7FE4F1AD6","85EE103965C74C56A466C4C7FE4F1AD6","0198ba0e-05e3-77db-a658-3102f11b4fdd","0198b9d0-29d4-7df3-8625-4b4515841beb","{""num_scrambled_semantic"":""8"",""num_scrambled_causal"":""4"",""num_scrambled_schematic"":""4"",""participantId"":""85EE103965C74C56A466C4C7FE4F1AD6"",""assignmentId"":""0198ba0e-05e3-77db-a658-3102f11b4fdd"",""projectId"":""0198b9d0-29d4-7df3-8625-4b4515841beb""}","https://test12345.live/?num_scrambled_semantic=8&num_scrambled_causal=4&num_scrambled_schematic=4&participantId=85EE103965C74C56A466C4C7FE4F1AD6&assignmentId=0198ba0e-05e3-77db-a658-3102f11b4fdd&projectId=0198b9d0-29d4-7df3-8625-4b4515841beb","85EE103965C74C56A466C4C7FE4F1AD6-2025-08-17-22-38-05","","553","","images/semantic_sequence/physical_activity_semantic/physical_activity_semantic_3.png","0","",""
"","","","","","image-button-response","51","246020","0.0-10.0-1.0-2.8","85EE103965C74C56A466C4C7FE4F1AD6","85EE103965C74C56A466C4C7FE4F1AD6","0198ba0e-05e3-77db-a658-3102f11b4fdd","0198b9d0-29d4-7df3-8625-4b4515841beb","{""num_scrambled_semantic"":""8"",""num_scrambled_causal"":""4"",""num_scrambled_schematic"":""4"",""participantId"":""85EE103965C74C56A466C4C7FE4F1AD6"",""assignmentId"":""0198ba0e-05e3-77db-a658-3102f11b4fdd"",""projectId"":""0198b9d0-29d4-7df3-8625-4b4515841beb""}","https://test12345.live/?num_scrambled_semantic=8&num_scrambled_causal=4&num_scrambled_schematic=4&participantId=85EE103965C74C56A466C4C7FE4F1AD6&assignmentId=0198ba0e-05e3-77db-a658-3102f11b4fdd&projectId=0198b9d0-29d4-7df3-8625-4b4515841beb","85EE103965C74C56A466C4C7FE4F1AD6-2025-08-17-22-38-05","","null","","[]","null","",""
"","","","","","image-button-response","52","250525","0.0-10.0-1.0-0.9","85EE103965C74C56A466C4C7FE4F1AD6","85EE103965C74C56A466C4C7FE4F1AD6","0198ba0e-05e3-77db-a658-3102f11b4fdd","0198b9d0-29d4-7df3-8625-4b4515841beb","{""num_scrambled_semantic"":""8"",""num_scrambled_causal"":""4"",""num_scrambled_schematic"":""4"",""participantId"":""85EE103965C74C56A466C4C7FE4F1AD6"",""assignmentId"":""0198ba0e-05e3-77db-a658-3102f11b4fdd"",""projectId"":""0198b9d0-29d4-7df3-8625-4b4515841beb""}","https://test12345.live/?num_scrambled_semantic=8&num_scrambled_causal=4&num_scrambled_schematic=4&participantId=85EE103965C74C56A466C4C7FE4F1AD6&assignmentId=0198ba0e-05e3-77db-a658-3102f11b4fdd&projectId=0198b9d0-29d4-7df3-8625-4b4515841beb","85EE103965C74C56A466C4C7FE4F1AD6-2025-08-17-22-38-05","","null","","images/semantic_sequence/physical_activity_semantic/physical_activity_semantic_8.png","null","",""
"","","","","","image-button-response","53","251464","0.0-10.0-1.0-1.9","85EE103965C74C56A466C4C7FE4F1AD6","85EE103965C74C56A466C4C7FE4F1AD6","0198ba0e-05e3-77db-a658-3102f11b4fdd","0198b9d0-29d4-7df3-8625-4b4515841beb","{""num_scrambled_semantic"":""8"",""num_scrambled_causal"":""4"",""num_scrambled_schematic"":""4"",""participantId"":""85EE103965C74C56A466C4C7FE4F1AD6"",""assignmentId"":""0198ba0e-05e3-77db-a658-3102f11b4fdd"",""projectId"":""0198b9d0-29d4-7df3-8625-4b4515841beb""}","https://test12345.live/?num_scrambled_semantic=8&num_scrambled_causal=4&num_scrambled_schematic=4&participantId=85EE103965C74C56A466C4C7FE4F1AD6&assignmentId=0198ba0e-05e3-77db-a658-3102f11b4fdd&projectId=0198b9d0-29d4-7df3-8625-4b4515841beb","85EE103965C74C56A466C4C7FE4F1AD6-2025-08-17-22-38-05","","937","","images/semantic_sequence/physical_activity_semantic/physical_activity_semantic_8.png","0","",""
"","","","","","image-button-response","54","256870","0.0-10.0-1.0-2.9","85EE103965C74C56A466C4C7FE4F1AD6","85EE103965C74C56A466C4C7FE4F1AD6","0198ba0e-05e3-77db-a658-3102f11b4fdd","0198b9d0-29d4-7df3-8625-4b4515841beb","{""num_scrambled_semantic"":""8"",""num_scrambled_causal"":""4"",""num_scrambled_schematic"":""4"",""participantId"":""85EE103965C74C56A466C4C7FE4F1AD6"",""assignmentId"":""0198ba0e-05e3-77db-a658-3102f11b4fdd"",""projectId"":""0198b9d0-29d4-7df3-8625-4b4515841beb""}","https://test12345.live/?num_scrambled_semantic=8&num_scrambled_causal=4&num_scrambled_schematic=4&participantId=85EE103965C74C56A466C4C7FE4F1AD6&assignmentId=0198ba0e-05e3-77db-a658-3102f11b4fdd&projectId=0198b9d0-29d4-7df3-8625-4b4515841beb","85EE103965C74C56A466C4C7FE4F1AD6-2025-08-17-22-38-05","","null","","[]","null","",""
"","","","","","html-audio-response","55","292949","0.0-11.0","85EE103965C74C56A466C4C7FE4F1AD6","85EE103965C74C56A466C4C7FE4F1AD6","0198ba0e-05e3-77db-a658-3102f11b4fdd","0198b9d0-29d4-7df3-8625-4b4515841beb","{""num_scrambled_semantic"":""8"",""num_scrambled_causal"":""4"",""num_scrambled_schematic"":""4"",""participantId"":""85EE103965C74C56A466C4C7FE4F1AD6"",""assignmentId"":""0198ba0e-05e3-77db-a658-3102f11b4fdd"",""projectId"":""0198b9d0-29d4-7df3-8625-4b4515841beb""}","https://test12345.live/?num_scrambled_semantic=8&num_scrambled_causal=4&num_scrambled_schematic=4&participantId=85EE103965C74C56A466C4C7FE4F1AD6&assignmentId=0198ba0e-05e3-77db-a658-3102f11b4fdd&projectId=0198b9d0-29d4-7df3-8625-4b4515841beb","85EE103965C74C56A466C4C7FE4F1AD6-2025-08-17-22-38-05","","27604","","[""<span style=\""color: red; font-size: 24px\""> NOW RECORDING</span><p>Please say out loud all the images you saw, as many as you can remember. The images can be said in any order.</p>""]","","2","physical_activity_semantic"
"","","","","","image-button-response","56","298960","0.0-12.0-0.0","85EE103965C74C56A466C4C7FE4F1AD6","85EE103965C74C56A466C4C7FE4F1AD6","0198ba0e-05e3-77db-a658-3102f11b4fdd","0198b9d0-29d4-7df3-8625-4b4515841beb","{""num_scrambled_semantic"":""8"",""num_scrambled_causal"":""4"",""num_scrambled_schematic"":""4"",""participantId"":""85EE103965C74C56A466C4C7FE4F1AD6"",""assignmentId"":""0198ba0e-05e3-77db-a658-3102f11b4fdd"",""projectId"":""0198b9d0-29d4-7df3-8625-4b4515841beb""}","https://test12345.live/?num_scrambled_semantic=8&num_scrambled_causal=4&num_scrambled_schematic=4&participantId=85EE103965C74C56A466C4C7FE4F1AD6&assignmentId=0198ba0e-05e3-77db-a658-3102f11b4fdd&projectId=0198b9d0-29d4-7df3-8625-4b4515841beb","85EE103965C74C56A466C4C7FE4F1AD6-2025-08-17-22-38-05","","null","","images/causal_sequence/package_causal/package_causal_0.png","null","",""
"","","","","","image-button-response","57","303463","0.0-12.0-1.0-0.0","85EE103965C74C56A466C4C7FE4F1AD6","85EE103965C74C56A466C4C7FE4F1AD6","0198ba0e-05e3-77db-a658-3102f11b4fdd","0198b9d0-29d4-7df3-8625-4b4515841beb","{""num_scrambled_semantic"":""8"",""num_scrambled_causal"":""4"",""num_scrambled_schematic"":""4"",""participantId"":""85EE103965C74C56A466C4C7FE4F1AD6"",""assignmentId"":""0198ba0e-05e3-77db-a658-3102f11b4fdd"",""projectId"":""0198b9d0-29d4-7df3-8625-4b4515841beb""}","https://test12345.live/?num_scrambled_semantic=8&num_scrambled_causal=4&num_scrambled_schematic=4&participantId=85EE103965C74C56A466C4C7FE4F1AD6&assignmentId=0198ba0e-05e3-77db-a658-3102f11b4fdd&projectId=0198b9d0-29d4-7df3-8625-4b4515841beb","85EE103965C74C56A466C4C7FE4F1AD6-2025-08-17-22-38-05","","null","","images/causal_sequence/package_causal/package_causal_4.png","null","",""
"","","","","","image-button-response","58","304731","0.0-12.0-1.0-1.0","85EE103965C74C56A466C4C7FE4F1AD6","85EE103965C74C56A466C4C7FE4F1AD6","0198ba0e-05e3-77db-a658-3102f11b4fdd","0198b9d0-29d4-7df3-8625-4b4515841beb","{""num_scrambled_semantic"":""8"",""num_scrambled_causal"":""4"",""num_scrambled_schematic"":""4"",""participantId"":""85EE103965C74C56A466C4C7FE4F1AD6"",""assignmentId"":""0198ba0e-05e3-77db-a658-3102f11b4fdd"",""projectId"":""0198b9d0-29d4-7df3-8625-4b4515841beb""}","https://test12345.live/?num_scrambled_semantic=8&num_scrambled_causal=4&num_scrambled_schematic=4&participantId=85EE103965C74C56A466C4C7FE4F1AD6&assignmentId=0198ba0e-05e3-77db-a658-3102f11b4fdd&projectId=0198b9d0-29d4-7df3-8625-4b4515841beb","85EE103965C74C56A466C4C7FE4F1AD6-2025-08-17-22-38-05","","1266","","images/causal_sequence/package_causal/package_causal_4.png","1","",""
"","","","","","image-button-response","59","310137","0.0-12.0-1.0-2.0","85EE103965C74C56A466C4C7FE4F1AD6","85EE103965C74C56A466C4C7FE4F1AD6","0198ba0e-05e3-77db-a658-3102f11b4fdd","0198b9d0-29d4-7df3-8625-4b4515841beb","{""num_scrambled_semantic"":""8"",""num_scrambled_causal"":""4"",""num_scrambled_schematic"":""4"",""participantId"":""85EE103965C74C56A466C4C7FE4F1AD6"",""assignmentId"":""0198ba0e-05e3-77db-a658-3102f11b4fdd"",""projectId"":""0198b9d0-29d4-7df3-8625-4b4515841beb""}","https://test12345.live/?num_scrambled_semantic=8&num_scrambled_causal=4&num_scrambled_schematic=4&participantId=85EE103965C74C56A466C4C7FE4F1AD6&assignmentId=0198ba0e-05e3-77db-a658-3102f11b4fdd&projectId=0198b9d0-29d4-7df3-8625-4b4515841beb","85EE103965C74C56A466C4C7FE4F1AD6-2025-08-17-22-38-05","","null","","[]","null","",""
"","","","","","image-button-response","60","314644","0.0-12.0-1.0-0.1","85EE103965C74C56A466C4C7FE4F1AD6","85EE103965C74C56A466C4C7FE4F1AD6","0198ba0e-05e3-77db-a658-3102f11b4fdd","0198b9d0-29d4-7df3-8625-4b4515841beb","{""num_scrambled_semantic"":""8"",""num_scrambled_causal"":""4"",""num_scrambled_schematic"":""4"",""participantId"":""85EE103965C74C56A466C4C7FE4F1AD6"",""assignmentId"":""0198ba0e-05e3-77db-a658-3102f11b4fdd"",""projectId"":""0198b9d0-29d4-7df3-8625-4b4515841beb""}","https://test12345.live/?num_scrambled_semantic=8&num_scrambled_causal=4&num_scrambled_schematic=4&participantId=85EE103965C74C56A466C4C7FE4F1AD6&assignmentId=0198ba0e-05e3-77db-a658-3102f11b4fdd&projectId=0198b9d0-29d4-7df3-8625-4b4515841beb","85EE103965C74C56A466C4C7FE4F1AD6-2025-08-17-22-38-05","","null","","images/causal_sequence/package_causal/package_causal_3.png","null","",""
"","","","","","image-button-response","61","315731","0.0-12.0-1.0-1.1","85EE103965C74C56A466C4C7FE4F1AD6","85EE103965C74C56A466C4C7FE4F1AD6","0198ba0e-05e3-77db-a658-3102f11b4fdd","0198b9d0-29d4-7df3-8625-4b4515841beb","{""num_scrambled_semantic"":""8"",""num_scrambled_causal"":""4"",""num_scrambled_schematic"":""4"",""participantId"":""85EE103965C74C56A466C4C7FE4F1AD6"",""assignmentId"":""0198ba0e-05e3-77db-a658-3102f11b4fdd"",""projectId"":""0198b9d0-29d4-7df3-8625-4b4515841beb""}","https://test12345.live/?num_scrambled_semantic=8&num_scrambled_causal=4&num_scrambled_schematic=4&participantId=85EE103965C74C56A466C4C7FE4F1AD6&assignmentId=0198ba0e-05e3-77db-a658-3102f11b4fdd&projectId=0198b9d0-29d4-7df3-8625-4b4515841beb","85EE103965C74C56A466C4C7FE4F1AD6-2025-08-17-22-38-05","","1085","","images/causal_sequence/package_causal/package_causal_3.png","0","",""
"","","","","","image-button-response","62","321138","0.0-12.0-1.0-2.1","85EE103965C74C56A466C4C7FE4F1AD6","85EE103965C74C56A466C4C7FE4F1AD6","0198ba0e-05e3-77db-a658-3102f11b4fdd","0198b9d0-29d4-7df3-8625-4b4515841beb","{""num_scrambled_semantic"":""8"",""num_scrambled_causal"":""4"",""num_scrambled_schematic"":""4"",""participantId"":""85EE103965C74C56A466C4C7FE4F1AD6"",""assignmentId"":""0198ba0e-05e3-77db-a658-3102f11b4fdd"",""projectId"":""0198b9d0-29d4-7df3-8625-4b4515841beb""}","https://test12345.live/?num_scrambled_semantic=8&num_scrambled_causal=4&num_scrambled_schematic=4&participantId=85EE103965C74C56A466C4C7FE4F1AD6&assignmentId=0198ba0e-05e3-77db-a658-3102f11b4fdd&projectId=0198b9d0-29d4-7df3-8625-4b4515841beb","85EE103965C74C56A466C4C7FE4F1AD6-2025-08-17-22-38-05","","null","","[]","null","",""
"","","","","","image-button-response","63","325645","0.0-12.0-1.0-0.2","85EE103965C74C56A466C4C7FE4F1AD6","85EE103965C74C56A466C4C7FE4F1AD6","0198ba0e-05e3-77db-a658-3102f11b4fdd","0198b9d0-29d4-7df3-8625-4b4515841beb","{""num_scrambled_semantic"":""8"",""num_scrambled_causal"":""4"",""num_scrambled_schematic"":""4"",""participantId"":""85EE103965C74C56A466C4C7FE4F1AD6"",""assignmentId"":""0198ba0e-05e3-77db-a658-3102f11b4fdd"",""projectId"":""0198b9d0-29d4-7df3-8625-4b4515841beb""}","https://test12345.live/?num_scrambled_semantic=8&num_scrambled_causal=4&num_scrambled_schematic=4&participantId=85EE103965C74C56A466C4C7FE4F1AD6&assignmentId=0198ba0e-05e3-77db-a658-3102f11b4fdd&projectId=0198b9d0-29d4-7df3-8625-4b4515841beb","85EE103965C74C56A466C4C7FE4F1AD6-2025-08-17-22-38-05","","null","","images/causal_sequence/package_causal/package_causal_8.png","null","",""
"","","","","","image-button-response","64","326697","0.0-12.0-1.0-1.2","85EE103965C74C56A466C4C7FE4F1AD6","85EE103965C74C56A466C4C7FE4F1AD6","0198ba0e-05e3-77db-a658-3102f11b4fdd","0198b9d0-29d4-7df3-8625-4b4515841beb","{""num_scrambled_semantic"":""8"",""num_scrambled_causal"":""4"",""num_scrambled_schematic"":""4"",""participantId"":""85EE103965C74C56A466C4C7FE4F1AD6"",""assignmentId"":""0198ba0e-05e3-77db-a658-3102f11b4fdd"",""projectId"":""0198b9d0-29d4-7df3-8625-4b4515841beb""}","https://test12345.live/?num_scrambled_semantic=8&num_scrambled_causal=4&num_scrambled_schematic=4&participantId=85EE103965C74C56A466C4C7FE4F1AD6&assignmentId=0198ba0e-05e3-77db-a658-3102f11b4fdd&projectId=0198b9d0-29d4-7df3-8625-4b4515841beb","85EE103965C74C56A466C4C7FE4F1AD6-2025-08-17-22-38-05","","1050","","images/causal_sequence/package_causal/package_causal_8.png","0","",""
"","","","","","image-button-response","65","332102","0.0-12.0-1.0-2.2","85EE103965C74C56A466C4C7FE4F1AD6","85EE103965C74C56A466C4C7FE4F1AD6","0198ba0e-05e3-77db-a658-3102f11b4fdd","0198b9d0-29d4-7df3-8625-4b4515841beb","{""num_scrambled_semantic"":""8"",""num_scrambled_causal"":""4"",""num_scrambled_schematic"":""4"",""participantId"":""85EE103965C74C56A466C4C7FE4F1AD6"",""assignmentId"":""0198ba0e-05e3-77db-a658-3102f11b4fdd"",""projectId"":""0198b9d0-29d4-7df3-8625-4b4515841beb""}","https://test12345.live/?num_scrambled_semantic=8&num_scrambled_causal=4&num_scrambled_schematic=4&participantId=85EE103965C74C56A466C4C7FE4F1AD6&assignmentId=0198ba0e-05e3-77db-a658-3102f11b4fdd&projectId=0198b9d0-29d4-7df3-8625-4b4515841beb","85EE103965C74C56A466C4C7FE4F1AD6-2025-08-17-22-38-05","","null","","[]","null","",""
"","","","","","image-button-response","66","336609","0.0-12.0-1.0-0.3","85EE103965C74C56A466C4C7FE4F1AD6","85EE103965C74C56A466C4C7FE4F1AD6","0198ba0e-05e3-77db-a658-3102f11b4fdd","0198b9d0-29d4-7df3-8625-4b4515841beb","{""num_scrambled_semantic"":""8"",""num_scrambled_causal"":""4"",""num_scrambled_schematic"":""4"",""participantId"":""85EE103965C74C56A466C4C7FE4F1AD6"",""assignmentId"":""0198ba0e-05e3-77db-a658-3102f11b4fdd"",""projectId"":""0198b9d0-29d4-7df3-8625-4b4515841beb""}","https://test12345.live/?num_scrambled_semantic=8&num_scrambled_causal=4&num_scrambled_schematic=4&participantId=85EE103965C74C56A466C4C7FE4F1AD6&assignmentId=0198ba0e-05e3-77db-a658-3102f11b4fdd&projectId=0198b9d0-29d4-7df3-8625-4b4515841beb","85EE103965C74C56A466C4C7FE4F1AD6-2025-08-17-22-38-05","","null","","images/causal_sequence/package_causal/package_causal_ten.png","null","",""
"","","","","","image-button-response","67","337748","0.0-12.0-1.0-1.3","85EE103965C74C56A466C4C7FE4F1AD6","85EE103965C74C56A466C4C7FE4F1AD6","0198ba0e-05e3-77db-a658-3102f11b4fdd","0198b9d0-29d4-7df3-8625-4b4515841beb","{""num_scrambled_semantic"":""8"",""num_scrambled_causal"":""4"",""num_scrambled_schematic"":""4"",""participantId"":""85EE103965C74C56A466C4C7FE4F1AD6"",""assignmentId"":""0198ba0e-05e3-77db-a658-3102f11b4fdd"",""projectId"":""0198b9d0-29d4-7df3-8625-4b4515841beb""}","https://test12345.live/?num_scrambled_semantic=8&num_scrambled_causal=4&num_scrambled_schematic=4&participantId=85EE103965C74C56A466C4C7FE4F1AD6&assignmentId=0198ba0e-05e3-77db-a658-3102f11b4fdd&projectId=0198b9d0-29d4-7df3-8625-4b4515841beb","85EE103965C74C56A466C4C7FE4F1AD6-2025-08-17-22-38-05","","1136","","images/causal_sequence/package_causal/package_causal_ten.png","0","",""
"","","","","","image-button-response","68","343152","0.0-12.0-1.0-2.3","85EE103965C74C56A466C4C7FE4F1AD6","85EE103965C74C56A466C4C7FE4F1AD6","0198ba0e-05e3-77db-a658-3102f11b4fdd","0198b9d0-29d4-7df3-8625-4b4515841beb","{""num_scrambled_semantic"":""8"",""num_scrambled_causal"":""4"",""num_scrambled_schematic"":""4"",""participantId"":""85EE103965C74C56A466C4C7FE4F1AD6"",""assignmentId"":""0198ba0e-05e3-77db-a658-3102f11b4fdd"",""projectId"":""0198b9d0-29d4-7df3-8625-4b4515841beb""}","https://test12345.live/?num_scrambled_semantic=8&num_scrambled_causal=4&num_scrambled_schematic=4&participantId=85EE103965C74C56A466C4C7FE4F1AD6&assignmentId=0198ba0e-05e3-77db-a658-3102f11b4fdd&projectId=0198b9d0-29d4-7df3-8625-4b4515841beb","85EE103965C74C56A466C4C7FE4F1AD6-2025-08-17-22-38-05","","null","","[]","null","",""
"","","","","","image-button-response","69","347656","0.0-12.0-1.0-0.4","85EE103965C74C56A466C4C7FE4F1AD6","85EE103965C74C56A466C4C7FE4F1AD6","0198ba0e-05e3-77db-a658-3102f11b4fdd","0198b9d0-29d4-7df3-8625-4b4515841beb","{""num_scrambled_semantic"":""8"",""num_scrambled_causal"":""4"",""num_scrambled_schematic"":""4"",""participantId"":""85EE103965C74C56A466C4C7FE4F1AD6"",""assignmentId"":""0198ba0e-05e3-77db-a658-3102f11b4fdd"",""projectId"":""0198b9d0-29d4-7df3-8625-4b4515841beb""}","https://test12345.live/?num_scrambled_semantic=8&num_scrambled_causal=4&num_scrambled_schematic=4&participantId=85EE103965C74C56A466C4C7FE4F1AD6&assignmentId=0198ba0e-05e3-77db-a658-3102f11b4fdd&projectId=0198b9d0-29d4-7df3-8625-4b4515841beb","85EE103965C74C56A466C4C7FE4F1AD6-2025-08-17-22-38-05","","null","","images/causal_sequence/package_causal/package_causal_9.png","null","",""
"","","","","","image-button-response","70","348531","0.0-12.0-1.0-1.4","85EE103965C74C56A466C4C7FE4F1AD6","85EE103965C74C56A466C4C7FE4F1AD6","0198ba0e-05e3-77db-a658-3102f11b4fdd","0198b9d0-29d4-7df3-8625-4b4515841beb","{""num_scrambled_semantic"":""8"",""num_scrambled_causal"":""4"",""num_scrambled_schematic"":""4"",""participantId"":""85EE103965C74C56A466C4C7FE4F1AD6"",""assignmentId"":""0198ba0e-05e3-77db-a658-3102f11b4fdd"",""projectId"":""0198b9d0-29d4-7df3-8625-4b4515841beb""}","https://test12345.live/?num_scrambled_semantic=8&num_scrambled_causal=4&num_scrambled_schematic=4&participantId=85EE103965C74C56A466C4C7FE4F1AD6&assignmentId=0198ba0e-05e3-77db-a658-3102f11b4fdd&projectId=0198b9d0-29d4-7df3-8625-4b4515841beb","85EE103965C74C56A466C4C7FE4F1AD6-2025-08-17-22-38-05","","873","","images/causal_sequence/package_causal/package_causal_9.png","0","",""
"","","","","","image-button-response","71","353938","0.0-12.0-1.0-2.4","85EE103965C74C56A466C4C7FE4F1AD6","85EE103965C74C56A466C4C7FE4F1AD6","0198ba0e-05e3-77db-a658-3102f11b4fdd","0198b9d0-29d4-7df3-8625-4b4515841beb","{""num_scrambled_semantic"":""8"",""num_scrambled_causal"":""4"",""num_scrambled_schematic"":""4"",""participantId"":""85EE103965C74C56A466C4C7FE4F1AD6"",""assignmentId"":""0198ba0e-05e3-77db-a658-3102f11b4fdd"",""projectId"":""0198b9d0-29d4-7df3-8625-4b4515841beb""}","https://test12345.live/?num_scrambled_semantic=8&num_scrambled_causal=4&num_scrambled_schematic=4&participantId=85EE103965C74C56A466C4C7FE4F1AD6&assignmentId=0198ba0e-05e3-77db-a658-3102f11b4fdd&projectId=0198b9d0-29d4-7df3-8625-4b4515841beb","85EE103965C74C56A466C4C7FE4F1AD6-2025-08-17-22-38-05","","null","","[]","null","",""
"","","","","","image-button-response","72","358441","0.0-12.0-1.0-0.5","85EE103965C74C56A466C4C7FE4F1AD6","85EE103965C74C56A466C4C7FE4F1AD6","0198ba0e-05e3-77db-a658-3102f11b4fdd","0198b9d0-29d4-7df3-8625-4b4515841beb","{""num_scrambled_semantic"":""8"",""num_scrambled_causal"":""4"",""num_scrambled_schematic"":""4"",""participantId"":""85EE103965C74C56A466C4C7FE4F1AD6"",""assignmentId"":""0198ba0e-05e3-77db-a658-3102f11b4fdd"",""projectId"":""0198b9d0-29d4-7df3-8625-4b4515841beb""}","https://test12345.live/?num_scrambled_semantic=8&num_scrambled_causal=4&num_scrambled_schematic=4&participantId=85EE103965C74C56A466C4C7FE4F1AD6&assignmentId=0198ba0e-05e3-77db-a658-3102f11b4fdd&projectId=0198b9d0-29d4-7df3-8625-4b4515841beb","85EE103965C74C56A466C4C7FE4F1AD6-2025-08-17-22-38-05","","null","","images/causal_sequence/package_causal/package_causal_1.png","null","",""
"","","","","","image-button-response","73","359215","0.0-12.0-1.0-1.5","85EE103965C74C56A466C4C7FE4F1AD6","85EE103965C74C56A466C4C7FE4F1AD6","0198ba0e-05e3-77db-a658-3102f11b4fdd","0198b9d0-29d4-7df3-8625-4b4515841beb","{""num_scrambled_semantic"":""8"",""num_scrambled_causal"":""4"",""num_scrambled_schematic"":""4"",""participantId"":""85EE103965C74C56A466C4C7FE4F1AD6"",""assignmentId"":""0198ba0e-05e3-77db-a658-3102f11b4fdd"",""projectId"":""0198b9d0-29d4-7df3-8625-4b4515841beb""}","https://test12345.live/?num_scrambled_semantic=8&num_scrambled_causal=4&num_scrambled_schematic=4&participantId=85EE103965C74C56A466C4C7FE4F1AD6&assignmentId=0198ba0e-05e3-77db-a658-3102f11b4fdd&projectId=0198b9d0-29d4-7df3-8625-4b4515841beb","85EE103965C74C56A466C4C7FE4F1AD6-2025-08-17-22-38-05","","772","","images/causal_sequence/package_causal/package_causal_1.png","0","",""
"","","","","","image-button-response","74","364621","0.0-12.0-1.0-2.5","85EE103965C74C56A466C4C7FE4F1AD6","85EE103965C74C56A466C4C7FE4F1AD6","0198ba0e-05e3-77db-a658-3102f11b4fdd","0198b9d0-29d4-7df3-8625-4b4515841beb","{""num_scrambled_semantic"":""8"",""num_scrambled_causal"":""4"",""num_scrambled_schematic"":""4"",""participantId"":""85EE103965C74C56A466C4C7FE4F1AD6"",""assignmentId"":""0198ba0e-05e3-77db-a658-3102f11b4fdd"",""projectId"":""0198b9d0-29d4-7df3-8625-4b4515841beb""}","https://test12345.live/?num_scrambled_semantic=8&num_scrambled_causal=4&num_scrambled_schematic=4&participantId=85EE103965C74C56A466C4C7FE4F1AD6&assignmentId=0198ba0e-05e3-77db-a658-3102f11b4fdd&projectId=0198b9d0-29d4-7df3-8625-4b4515841beb","85EE103965C74C56A466C4C7FE4F1AD6-2025-08-17-22-38-05","","null","","[]","null","",""
"","","","","","image-button-response","75","369126","0.0-12.0-1.0-0.6","85EE103965C74C56A466C4C7FE4F1AD6","85EE103965C74C56A466C4C7FE4F1AD6","0198ba0e-05e3-77db-a658-3102f11b4fdd","0198b9d0-29d4-7df3-8625-4b4515841beb","{""num_scrambled_semantic"":""8"",""num_scrambled_causal"":""4"",""num_scrambled_schematic"":""4"",""participantId"":""85EE103965C74C56A466C4C7FE4F1AD6"",""assignmentId"":""0198ba0e-05e3-77db-a658-3102f11b4fdd"",""projectId"":""0198b9d0-29d4-7df3-8625-4b4515841beb""}","https://test12345.live/?num_scrambled_semantic=8&num_scrambled_causal=4&num_scrambled_schematic=4&participantId=85EE103965C74C56A466C4C7FE4F1AD6&assignmentId=0198ba0e-05e3-77db-a658-3102f11b4fdd&projectId=0198b9d0-29d4-7df3-8625-4b4515841beb","85EE103965C74C56A466C4C7FE4F1AD6-2025-08-17-22-38-05","","null","","images/causal_sequence/package_causal/package_causal_2.png","null","",""
"","","","","","image-button-response","76","370265","0.0-12.0-1.0-1.6","85EE103965C74C56A466C4C7FE4F1AD6","85EE103965C74C56A466C4C7FE4F1AD6","0198ba0e-05e3-77db-a658-3102f11b4fdd","0198b9d0-29d4-7df3-8625-4b4515841beb","{""num_scrambled_semantic"":""8"",""num_scrambled_causal"":""4"",""num_scrambled_schematic"":""4"",""participantId"":""85EE103965C74C56A466C4C7FE4F1AD6"",""assignmentId"":""0198ba0e-05e3-77db-a658-3102f11b4fdd"",""projectId"":""0198b9d0-29d4-7df3-8625-4b4515841beb""}","https://test12345.live/?num_scrambled_semantic=8&num_scrambled_causal=4&num_scrambled_schematic=4&participantId=85EE103965C74C56A466C4C7FE4F1AD6&assignmentId=0198ba0e-05e3-77db-a658-3102f11b4fdd&projectId=0198b9d0-29d4-7df3-8625-4b4515841beb","85EE103965C74C56A466C4C7FE4F1AD6-2025-08-17-22-38-05","","1136","","images/causal_sequence/package_causal/package_causal_2.png","0","",""
"","","","","","image-button-response","77","375671","0.0-12.0-1.0-2.6","85EE103965C74C56A466C4C7FE4F1AD6","85EE103965C74C56A466C4C7FE4F1AD6","0198ba0e-05e3-77db-a658-3102f11b4fdd","0198b9d0-29d4-7df3-8625-4b4515841beb","{""num_scrambled_semantic"":""8"",""num_scrambled_causal"":""4"",""num_scrambled_schematic"":""4"",""participantId"":""85EE103965C74C56A466C4C7FE4F1AD6"",""assignmentId"":""0198ba0e-05e3-77db-a658-3102f11b4fdd"",""projectId"":""0198b9d0-29d4-7df3-8625-4b4515841beb""}","https://test12345.live/?num_scrambled_semantic=8&num_scrambled_causal=4&num_scrambled_schematic=4&participantId=85EE103965C74C56A466C4C7FE4F1AD6&assignmentId=0198ba0e-05e3-77db-a658-3102f11b4fdd&projectId=0198b9d0-29d4-7df3-8625-4b4515841beb","85EE103965C74C56A466C4C7FE4F1AD6-2025-08-17-22-38-05","","null","","[]","null","",""
"","","","","","image-button-response","78","380179","0.0-12.0-1.0-0.7","85EE103965C74C56A466C4C7FE4F1AD6","85EE103965C74C56A466C4C7FE4F1AD6","0198ba0e-05e3-77db-a658-3102f11b4fdd","0198b9d0-29d4-7df3-8625-4b4515841beb","{""num_scrambled_semantic"":""8"",""num_scrambled_causal"":""4"",""num_scrambled_schematic"":""4"",""participantId"":""85EE103965C74C56A466C4C7FE4F1AD6"",""assignmentId"":""0198ba0e-05e3-77db-a658-3102f11b4fdd"",""projectId"":""0198b9d0-29d4-7df3-8625-4b4515841beb""}","https://test12345.live/?num_scrambled_semantic=8&num_scrambled_causal=4&num_scrambled_schematic=4&participantId=85EE103965C74C56A466C4C7FE4F1AD6&assignmentId=0198ba0e-05e3-77db-a658-3102f11b4fdd&projectId=0198b9d0-29d4-7df3-8625-4b4515841beb","85EE103965C74C56A466C4C7FE4F1AD6-2025-08-17-22-38-05","","null","","images/causal_sequence/package_causal/package_causal_7.png","null","",""
"","","","","","image-button-response","79","381598","0.0-12.0-1.0-1.7","85EE103965C74C56A466C4C7FE4F1AD6","85EE103965C74C56A466C4C7FE4F1AD6","0198ba0e-05e3-77db-a658-3102f11b4fdd","0198b9d0-29d4-7df3-8625-4b4515841beb","{""num_scrambled_semantic"":""8"",""num_scrambled_causal"":""4"",""num_scrambled_schematic"":""4"",""participantId"":""85EE103965C74C56A466C4C7FE4F1AD6"",""assignmentId"":""0198ba0e-05e3-77db-a658-3102f11b4fdd"",""projectId"":""0198b9d0-29d4-7df3-8625-4b4515841beb""}","https://test12345.live/?num_scrambled_semantic=8&num_scrambled_causal=4&num_scrambled_schematic=4&participantId=85EE103965C74C56A466C4C7FE4F1AD6&assignmentId=0198ba0e-05e3-77db-a658-3102f11b4fdd&projectId=0198b9d0-29d4-7df3-8625-4b4515841beb","85EE103965C74C56A466C4C7FE4F1AD6-2025-08-17-22-38-05","","1417","","images/causal_sequence/package_causal/package_causal_7.png","0","",""
"","","","","","image-button-response","80","387004","0.0-12.0-1.0-2.7","85EE103965C74C56A466C4C7FE4F1AD6","85EE103965C74C56A466C4C7FE4F1AD6","0198ba0e-05e3-77db-a658-3102f11b4fdd","0198b9d0-29d4-7df3-8625-4b4515841beb","{""num_scrambled_semantic"":""8"",""num_scrambled_causal"":""4"",""num_scrambled_schematic"":""4"",""participantId"":""85EE103965C74C56A466C4C7FE4F1AD6"",""assignmentId"":""0198ba0e-05e3-77db-a658-3102f11b4fdd"",""projectId"":""0198b9d0-29d4-7df3-8625-4b4515841beb""}","https://test12345.live/?num_scrambled_semantic=8&num_scrambled_causal=4&num_scrambled_schematic=4&participantId=85EE103965C74C56A466C4C7FE4F1AD6&assignmentId=0198ba0e-05e3-77db-a658-3102f11b4fdd&projectId=0198b9d0-29d4-7df3-8625-4b4515841beb","85EE103965C74C56A466C4C7FE4F1AD6-2025-08-17-22-38-05","","null","","[]","null","",""
"","","","","","image-button-response","81","391512","0.0-12.0-1.0-0.8","85EE103965C74C56A466C4C7FE4F1AD6","85EE103965C74C56A466C4C7FE4F1AD6","0198ba0e-05e3-77db-a658-3102f11b4fdd","0198b9d0-29d4-7df3-8625-4b4515841beb","{""num_scrambled_semantic"":""8"",""num_scrambled_causal"":""4"",""num_scrambled_schematic"":""4"",""participantId"":""85EE103965C74C56A466C4C7FE4F1AD6"",""assignmentId"":""0198ba0e-05e3-77db-a658-3102f11b4fdd"",""projectId"":""0198b9d0-29d4-7df3-8625-4b4515841beb""}","https://test12345.live/?num_scrambled_semantic=8&num_scrambled_causal=4&num_scrambled_schematic=4&participantId=85EE103965C74C56A466C4C7FE4F1AD6&assignmentId=0198ba0e-05e3-77db-a658-3102f11b4fdd&projectId=0198b9d0-29d4-7df3-8625-4b4515841beb","85EE103965C74C56A466C4C7FE4F1AD6-2025-08-17-22-38-05","","null","","images/causal_sequence/package_causal/package_causal_5.png","null","",""
"","","","","","image-button-response","82","392663","0.0-12.0-1.0-1.8","85EE103965C74C56A466C4C7FE4F1AD6","85EE103965C74C56A466C4C7FE4F1AD6","0198ba0e-05e3-77db-a658-3102f11b4fdd","0198b9d0-29d4-7df3-8625-4b4515841beb","{""num_scrambled_semantic"":""8"",""num_scrambled_causal"":""4"",""num_scrambled_schematic"":""4"",""participantId"":""85EE103965C74C56A466C4C7FE4F1AD6"",""assignmentId"":""0198ba0e-05e3-77db-a658-3102f11b4fdd"",""projectId"":""0198b9d0-29d4-7df3-8625-4b4515841beb""}","https://test12345.live/?num_scrambled_semantic=8&num_scrambled_causal=4&num_scrambled_schematic=4&participantId=85EE103965C74C56A466C4C7FE4F1AD6&assignmentId=0198ba0e-05e3-77db-a658-3102f11b4fdd&projectId=0198b9d0-29d4-7df3-8625-4b4515841beb","85EE103965C74C56A466C4C7FE4F1AD6-2025-08-17-22-38-05","","1150","","images/causal_sequence/package_causal/package_causal_5.png","0","",""
"","","","","","image-button-response","83","398069","0.0-12.0-1.0-2.8","85EE103965C74C56A466C4C7FE4F1AD6","85EE103965C74C56A466C4C7FE4F1AD6","0198ba0e-05e3-77db-a658-3102f11b4fdd","0198b9d0-29d4-7df3-8625-4b4515841beb","{""num_scrambled_semantic"":""8"",""num_scrambled_causal"":""4"",""num_scrambled_schematic"":""4"",""participantId"":""85EE103965C74C56A466C4C7FE4F1AD6"",""assignmentId"":""0198ba0e-05e3-77db-a658-3102f11b4fdd"",""projectId"":""0198b9d0-29d4-7df3-8625-4b4515841beb""}","https://test12345.live/?num_scrambled_semantic=8&num_scrambled_causal=4&num_scrambled_schematic=4&participantId=85EE103965C74C56A466C4C7FE4F1AD6&assignmentId=0198ba0e-05e3-77db-a658-3102f11b4fdd&projectId=0198b9d0-29d4-7df3-8625-4b4515841beb","85EE103965C74C56A466C4C7FE4F1AD6-2025-08-17-22-38-05","","null","","[]","null","",""
"","","","","","image-button-response","84","402576","0.0-12.0-1.0-0.9","85EE103965C74C56A466C4C7FE4F1AD6","85EE103965C74C56A466C4C7FE4F1AD6","0198ba0e-05e3-77db-a658-3102f11b4fdd","0198b9d0-29d4-7df3-8625-4b4515841beb","{""num_scrambled_semantic"":""8"",""num_scrambled_causal"":""4"",""num_scrambled_schematic"":""4"",""participantId"":""85EE103965C74C56A466C4C7FE4F1AD6"",""assignmentId"":""0198ba0e-05e3-77db-a658-3102f11b4fdd"",""projectId"":""0198b9d0-29d4-7df3-8625-4b4515841beb""}","https://test12345.live/?num_scrambled_semantic=8&num_scrambled_causal=4&num_scrambled_schematic=4&participantId=85EE103965C74C56A466C4C7FE4F1AD6&assignmentId=0198ba0e-05e3-77db-a658-3102f11b4fdd&projectId=0198b9d0-29d4-7df3-8625-4b4515841beb","85EE103965C74C56A466C4C7FE4F1AD6-2025-08-17-22-38-05","","null","","images/causal_sequence/package_causal/package_causal_6.png","null","",""
"","","","","","image-button-response","85","403554","0.0-12.0-1.0-1.9","85EE103965C74C56A466C4C7FE4F1AD6","85EE103965C74C56A466C4C7FE4F1AD6","0198ba0e-05e3-77db-a658-3102f11b4fdd","0198b9d0-29d4-7df3-8625-4b4515841beb","{""num_scrambled_semantic"":""8"",""num_scrambled_causal"":""4"",""num_scrambled_schematic"":""4"",""participantId"":""85EE103965C74C56A466C4C7FE4F1AD6"",""assignmentId"":""0198ba0e-05e3-77db-a658-3102f11b4fdd"",""projectId"":""0198b9d0-29d4-7df3-8625-4b4515841beb""}","https://test12345.live/?num_scrambled_semantic=8&num_scrambled_causal=4&num_scrambled_schematic=4&participantId=85EE103965C74C56A466C4C7FE4F1AD6&assignmentId=0198ba0e-05e3-77db-a658-3102f11b4fdd&projectId=0198b9d0-29d4-7df3-8625-4b4515841beb","85EE103965C74C56A466C4C7FE4F1AD6-2025-08-17-22-38-05","","974","","images/causal_sequence/package_causal/package_causal_6.png","0","",""
"","","","","","image-button-response","86","408969","0.0-12.0-1.0-2.9","85EE103965C74C56A466C4C7FE4F1AD6","85EE103965C74C56A466C4C7FE4F1AD6","0198ba0e-05e3-77db-a658-3102f11b4fdd","0198b9d0-29d4-7df3-8625-4b4515841beb","{""num_scrambled_semantic"":""8"",""num_scrambled_causal"":""4"",""num_scrambled_schematic"":""4"",""participantId"":""85EE103965C74C56A466C4C7FE4F1AD6"",""assignmentId"":""0198ba0e-05e3-77db-a658-3102f11b4fdd"",""projectId"":""0198b9d0-29d4-7df3-8625-4b4515841beb""}","https://test12345.live/?num_scrambled_semantic=8&num_scrambled_causal=4&num_scrambled_schematic=4&participantId=85EE103965C74C56A466C4C7FE4F1AD6&assignmentId=0198ba0e-05e3-77db-a658-3102f11b4fdd&projectId=0198b9d0-29d4-7df3-8625-4b4515841beb","85EE103965C74C56A466C4C7FE4F1AD6-2025-08-17-22-38-05","","null","","[]","null","",""
"","","","","","html-audio-response","87","502999","0.0-13.0","85EE103965C74C56A466C4C7FE4F1AD6","85EE103965C74C56A466C4C7FE4F1AD6","0198ba0e-05e3-77db-a658-3102f11b4fdd","0198b9d0-29d4-7df3-8625-4b4515841beb","{""num_scrambled_semantic"":""8"",""num_scrambled_causal"":""4"",""num_scrambled_schematic"":""4"",""participantId"":""85EE103965C74C56A466C4C7FE4F1AD6"",""assignmentId"":""0198ba0e-05e3-77db-a658-3102f11b4fdd"",""projectId"":""0198b9d0-29d4-7df3-8625-4b4515841beb""}","https://test12345.live/?num_scrambled_semantic=8&num_scrambled_causal=4&num_scrambled_schematic=4&participantId=85EE103965C74C56A466C4C7FE4F1AD6&assignmentId=0198ba0e-05e3-77db-a658-3102f11b4fdd&projectId=0198b9d0-29d4-7df3-8625-4b4515841beb","85EE103965C74C56A466C4C7FE4F1AD6-2025-08-17-22-38-05","","34726","","[""<span style=\""color: red; font-size: 24px\""> NOW RECORDING</span><p>Please say out loud all the images you saw, as many as you can remember. The images can be said in any order.</p>""]","","2","package_causal"
"","","","","","image-button-response","88","509008","0.0-14.0-0.0","85EE103965C74C56A466C4C7FE4F1AD6","85EE103965C74C56A466C4C7FE4F1AD6","0198ba0e-05e3-77db-a658-3102f11b4fdd","0198b9d0-29d4-7df3-8625-4b4515841beb","{""num_scrambled_semantic"":""8"",""num_scrambled_causal"":""4"",""num_scrambled_schematic"":""4"",""participantId"":""85EE103965C74C56A466C4C7FE4F1AD6"",""assignmentId"":""0198ba0e-05e3-77db-a658-3102f11b4fdd"",""projectId"":""0198b9d0-29d4-7df3-8625-4b4515841beb""}","https://test12345.live/?num_scrambled_semantic=8&num_scrambled_causal=4&num_scrambled_schematic=4&participantId=85EE103965C74C56A466C4C7FE4F1AD6&assignmentId=0198ba0e-05e3-77db-a658-3102f11b4fdd&projectId=0198b9d0-29d4-7df3-8625-4b4515841beb","85EE103965C74C56A466C4C7FE4F1AD6-2025-08-17-22-38-05","","null","","images/semantic_sequence/creative_activities_semantic/creative_activities_semantic_0.png","null","",""
"","","","","","image-button-response","89","513515","0.0-14.0-1.0-0.0","85EE103965C74C56A466C4C7FE4F1AD6","85EE103965C74C56A466C4C7FE4F1AD6","0198ba0e-05e3-77db-a658-3102f11b4fdd","0198b9d0-29d4-7df3-8625-4b4515841beb","{""num_scrambled_semantic"":""8"",""num_scrambled_causal"":""4"",""num_scrambled_schematic"":""4"",""participantId"":""85EE103965C74C56A466C4C7FE4F1AD6"",""assignmentId"":""0198ba0e-05e3-77db-a658-3102f11b4fdd"",""projectId"":""0198b9d0-29d4-7df3-8625-4b4515841beb""}","https://test12345.live/?num_scrambled_semantic=8&num_scrambled_causal=4&num_scrambled_schematic=4&participantId=85EE103965C74C56A466C4C7FE4F1AD6&assignmentId=0198ba0e-05e3-77db-a658-3102f11b4fdd&projectId=0198b9d0-29d4-7df3-8625-4b4515841beb","85EE103965C74C56A466C4C7FE4F1AD6-2025-08-17-22-38-05","","null","","images/semantic_sequence/creative_activities_semantic/creative_activities_semantic_1.png","null","",""
"","","","","","image-button-response","90","514766","0.0-14.0-1.0-1.0","85EE103965C74C56A466C4C7FE4F1AD6","85EE103965C74C56A466C4C7FE4F1AD6","0198ba0e-05e3-77db-a658-3102f11b4fdd","0198b9d0-29d4-7df3-8625-4b4515841beb","{""num_scrambled_semantic"":""8"",""num_scrambled_causal"":""4"",""num_scrambled_schematic"":""4"",""participantId"":""85EE103965C74C56A466C4C7FE4F1AD6"",""assignmentId"":""0198ba0e-05e3-77db-a658-3102f11b4fdd"",""projectId"":""0198b9d0-29d4-7df3-8625-4b4515841beb""}","https://test12345.live/?num_scrambled_semantic=8&num_scrambled_causal=4&num_scrambled_schematic=4&participantId=85EE103965C74C56A466C4C7FE4F1AD6&assignmentId=0198ba0e-05e3-77db-a658-3102f11b4fdd&projectId=0198b9d0-29d4-7df3-8625-4b4515841beb","85EE103965C74C56A466C4C7FE4F1AD6-2025-08-17-22-38-05","","1249","","images/semantic_sequence/creative_activities_semantic/creative_activities_semantic_1.png","0","",""
"","","","","","image-button-response","91","520173","0.0-14.0-1.0-2.0","85EE103965C74C56A466C4C7FE4F1AD6","85EE103965C74C56A466C4C7FE4F1AD6","0198ba0e-05e3-77db-a658-3102f11b4fdd","0198b9d0-29d4-7df3-8625-4b4515841beb","{""num_scrambled_semantic"":""8"",""num_scrambled_causal"":""4"",""num_scrambled_schematic"":""4"",""participantId"":""85EE103965C74C56A466C4C7FE4F1AD6"",""assignmentId"":""0198ba0e-05e3-77db-a658-3102f11b4fdd"",""projectId"":""0198b9d0-29d4-7df3-8625-4b4515841beb""}","https://test12345.live/?num_scrambled_semantic=8&num_scrambled_causal=4&num_scrambled_schematic=4&participantId=85EE103965C74C56A466C4C7FE4F1AD6&assignmentId=0198ba0e-05e3-77db-a658-3102f11b4fdd&projectId=0198b9d0-29d4-7df3-8625-4b4515841beb","85EE103965C74C56A466C4C7FE4F1AD6-2025-08-17-22-38-05","","null","","[]","null","",""
"","","","","","image-button-response","92","524680","0.0-14.0-1.0-0.1","85EE103965C74C56A466C4C7FE4F1AD6","85EE103965C74C56A466C4C7FE4F1AD6","0198ba0e-05e3-77db-a658-3102f11b4fdd","0198b9d0-29d4-7df3-8625-4b4515841beb","{""num_scrambled_semantic"":""8"",""num_scrambled_causal"":""4"",""num_scrambled_schematic"":""4"",""participantId"":""85EE103965C74C56A466C4C7FE4F1AD6"",""assignmentId"":""0198ba0e-05e3-77db-a658-3102f11b4fdd"",""projectId"":""0198b9d0-29d4-7df3-8625-4b4515841beb""}","https://test12345.live/?num_scrambled_semantic=8&num_scrambled_causal=4&num_scrambled_schematic=4&participantId=85EE103965C74C56A466C4C7FE4F1AD6&assignmentId=0198ba0e-05e3-77db-a658-3102f11b4fdd&projectId=0198b9d0-29d4-7df3-8625-4b4515841beb","85EE103965C74C56A466C4C7FE4F1AD6-2025-08-17-22-38-05","","null","","images/semantic_sequence/creative_activities_semantic/creative_activities_semantic_3.png","null","",""
"","","","","","image-button-response","93","525667","0.0-14.0-1.0-1.1","85EE103965C74C56A466C4C7FE4F1AD6","85EE103965C74C56A466C4C7FE4F1AD6","0198ba0e-05e3-77db-a658-3102f11b4fdd","0198b9d0-29d4-7df3-8625-4b4515841beb","{""num_scrambled_semantic"":""8"",""num_scrambled_causal"":""4"",""num_scrambled_schematic"":""4"",""participantId"":""85EE103965C74C56A466C4C7FE4F1AD6"",""assignmentId"":""0198ba0e-05e3-77db-a658-3102f11b4fdd"",""projectId"":""0198b9d0-29d4-7df3-8625-4b4515841beb""}","https://test12345.live/?num_scrambled_semantic=8&num_scrambled_causal=4&num_scrambled_schematic=4&participantId=85EE103965C74C56A466C4C7FE4F1AD6&assignmentId=0198ba0e-05e3-77db-a658-3102f11b4fdd&projectId=0198b9d0-29d4-7df3-8625-4b4515841beb","85EE103965C74C56A466C4C7FE4F1AD6-2025-08-17-22-38-05","","985","","images/semantic_sequence/creative_activities_semantic/creative_activities_semantic_3.png","0","",""
"","","","","","image-button-response","94","531074","0.0-14.0-1.0-2.1","85EE103965C74C56A466C4C7FE4F1AD6","85EE103965C74C56A466C4C7FE4F1AD6","0198ba0e-05e3-77db-a658-3102f11b4fdd","0198b9d0-29d4-7df3-8625-4b4515841beb","{""num_scrambled_semantic"":""8"",""num_scrambled_causal"":""4"",""num_scrambled_schematic"":""4"",""participantId"":""85EE103965C74C56A466C4C7FE4F1AD6"",""assignmentId"":""0198ba0e-05e3-77db-a658-3102f11b4fdd"",""projectId"":""0198b9d0-29d4-7df3-8625-4b4515841beb""}","https://test12345.live/?num_scrambled_semantic=8&num_scrambled_causal=4&num_scrambled_schematic=4&participantId=85EE103965C74C56A466C4C7FE4F1AD6&assignmentId=0198ba0e-05e3-77db-a658-3102f11b4fdd&projectId=0198b9d0-29d4-7df3-8625-4b4515841beb","85EE103965C74C56A466C4C7FE4F1AD6-2025-08-17-22-38-05","","null","","[]","null","",""
"","","","","","image-button-response","95","535577","0.0-14.0-1.0-0.2","85EE103965C74C56A466C4C7FE4F1AD6","85EE103965C74C56A466C4C7FE4F1AD6","0198ba0e-05e3-77db-a658-3102f11b4fdd","0198b9d0-29d4-7df3-8625-4b4515841beb","{""num_scrambled_semantic"":""8"",""num_scrambled_causal"":""4"",""num_scrambled_schematic"":""4"",""participantId"":""85EE103965C74C56A466C4C7FE4F1AD6"",""assignmentId"":""0198ba0e-05e3-77db-a658-3102f11b4fdd"",""projectId"":""0198b9d0-29d4-7df3-8625-4b4515841beb""}","https://test12345.live/?num_scrambled_semantic=8&num_scrambled_causal=4&num_scrambled_schematic=4&participantId=85EE103965C74C56A466C4C7FE4F1AD6&assignmentId=0198ba0e-05e3-77db-a658-3102f11b4fdd&projectId=0198b9d0-29d4-7df3-8625-4b4515841beb","85EE103965C74C56A466C4C7FE4F1AD6-2025-08-17-22-38-05","","null","","images/semantic_sequence/creative_activities_semantic/creative_activities_semantic_9.png","null","",""
"","","","","","image-button-response","96","539582","0.0-14.0-1.0-1.2","85EE103965C74C56A466C4C7FE4F1AD6","85EE103965C74C56A466C4C7FE4F1AD6","0198ba0e-05e3-77db-a658-3102f11b4fdd","0198b9d0-29d4-7df3-8625-4b4515841beb","{""num_scrambled_semantic"":""8"",""num_scrambled_causal"":""4"",""num_scrambled_schematic"":""4"",""participantId"":""85EE103965C74C56A466C4C7FE4F1AD6"",""assignmentId"":""0198ba0e-05e3-77db-a658-3102f11b4fdd"",""projectId"":""0198b9d0-29d4-7df3-8625-4b4515841beb""}","https://test12345.live/?num_scrambled_semantic=8&num_scrambled_causal=4&num_scrambled_schematic=4&participantId=85EE103965C74C56A466C4C7FE4F1AD6&assignmentId=0198ba0e-05e3-77db-a658-3102f11b4fdd&projectId=0198b9d0-29d4-7df3-8625-4b4515841beb","85EE103965C74C56A466C4C7FE4F1AD6-2025-08-17-22-38-05","","null","","images/semantic_sequence/creative_activities_semantic/creative_activities_semantic_9.png","null","",""
"","","","","","image-button-response","97","544988","0.0-14.0-1.0-2.2","85EE103965C74C56A466C4C7FE4F1AD6","85EE103965C74C56A466C4C7FE4F1AD6","0198ba0e-05e3-77db-a658-3102f11b4fdd","0198b9d0-29d4-7df3-8625-4b4515841beb","{""num_scrambled_semantic"":""8"",""num_scrambled_causal"":""4"",""num_scrambled_schematic"":""4"",""participantId"":""85EE103965C74C56A466C4C7FE4F1AD6"",""assignmentId"":""0198ba0e-05e3-77db-a658-3102f11b4fdd"",""projectId"":""0198b9d0-29d4-7df3-8625-4b4515841beb""}","https://test12345.live/?num_scrambled_semantic=8&num_scrambled_causal=4&num_scrambled_schematic=4&participantId=85EE103965C74C56A466C4C7FE4F1AD6&assignmentId=0198ba0e-05e3-77db-a658-3102f11b4fdd&projectId=0198b9d0-29d4-7df3-8625-4b4515841beb","85EE103965C74C56A466C4C7FE4F1AD6-2025-08-17-22-38-05","","null","","[]","null","",""
"","","","","","image-button-response","98","549493","0.0-14.0-1.0-0.3","85EE103965C74C56A466C4C7FE4F1AD6","85EE103965C74C56A466C4C7FE4F1AD6","0198ba0e-05e3-77db-a658-3102f11b4fdd","0198b9d0-29d4-7df3-8625-4b4515841beb","{""num_scrambled_semantic"":""8"",""num_scrambled_causal"":""4"",""num_scrambled_schematic"":""4"",""participantId"":""85EE103965C74C56A466C4C7FE4F1AD6"",""assignmentId"":""0198ba0e-05e3-77db-a658-3102f11b4fdd"",""projectId"":""0198b9d0-29d4-7df3-8625-4b4515841beb""}","https://test12345.live/?num_scrambled_semantic=8&num_scrambled_causal=4&num_scrambled_schematic=4&participantId=85EE103965C74C56A466C4C7FE4F1AD6&assignmentId=0198ba0e-05e3-77db-a658-3102f11b4fdd&projectId=0198b9d0-29d4-7df3-8625-4b4515841beb","85EE103965C74C56A466C4C7FE4F1AD6-2025-08-17-22-38-05","","null","","images/semantic_sequence/creative_activities_semantic/creative_activities_semantic_8.png","null","",""
"","","","","","image-button-response","99","550166","0.0-14.0-1.0-1.3","85EE103965C74C56A466C4C7FE4F1AD6","85EE103965C74C56A466C4C7FE4F1AD6","0198ba0e-05e3-77db-a658-3102f11b4fdd","0198b9d0-29d4-7df3-8625-4b4515841beb","{""num_scrambled_semantic"":""8"",""num_scrambled_causal"":""4"",""num_scrambled_schematic"":""4"",""participantId"":""85EE103965C74C56A466C4C7FE4F1AD6"",""assignmentId"":""0198ba0e-05e3-77db-a658-3102f11b4fdd"",""projectId"":""0198b9d0-29d4-7df3-8625-4b4515841beb""}","https://test12345.live/?num_scrambled_semantic=8&num_scrambled_causal=4&num_scrambled_schematic=4&participantId=85EE103965C74C56A466C4C7FE4F1AD6&assignmentId=0198ba0e-05e3-77db-a658-3102f11b4fdd&projectId=0198b9d0-29d4-7df3-8625-4b4515841beb","85EE103965C74C56A466C4C7FE4F1AD6-2025-08-17-22-38-05","","671","","images/semantic_sequence/creative_activities_semantic/creative_activities_semantic_8.png","0","",""
"","","","","","image-button-response","100","555572","0.0-14.0-1.0-2.3","85EE103965C74C56A466C4C7FE4F1AD6","85EE103965C74C56A466C4C7FE4F1AD6","0198ba0e-05e3-77db-a658-3102f11b4fdd","0198b9d0-29d4-7df3-8625-4b4515841beb","{""num_scrambled_semantic"":""8"",""num_scrambled_causal"":""4"",""num_scrambled_schematic"":""4"",""participantId"":""85EE103965C74C56A466C4C7FE4F1AD6"",""assignmentId"":""0198ba0e-05e3-77db-a658-3102f11b4fdd"",""projectId"":""0198b9d0-29d4-7df3-8625-4b4515841beb""}","https://test12345.live/?num_scrambled_semantic=8&num_scrambled_causal=4&num_scrambled_schematic=4&participantId=85EE103965C74C56A466C4C7FE4F1AD6&assignmentId=0198ba0e-05e3-77db-a658-3102f11b4fdd&projectId=0198b9d0-29d4-7df3-8625-4b4515841beb","85EE103965C74C56A466C4C7FE4F1AD6-2025-08-17-22-38-05","","null","","[]","null","",""
"","","","","","image-button-response","101","560078","0.0-14.0-1.0-0.4","85EE103965C74C56A466C4C7FE4F1AD6","85EE103965C74C56A466C4C7FE4F1AD6","0198ba0e-05e3-77db-a658-3102f11b4fdd","0198b9d0-29d4-7df3-8625-4b4515841beb","{""num_scrambled_semantic"":""8"",""num_scrambled_causal"":""4"",""num_scrambled_schematic"":""4"",""participantId"":""85EE103965C74C56A466C4C7FE4F1AD6"",""assignmentId"":""0198ba0e-05e3-77db-a658-3102f11b4fdd"",""projectId"":""0198b9d0-29d4-7df3-8625-4b4515841beb""}","https://test12345.live/?num_scrambled_semantic=8&num_scrambled_causal=4&num_scrambled_schematic=4&participantId=85EE103965C74C56A466C4C7FE4F1AD6&assignmentId=0198ba0e-05e3-77db-a658-3102f11b4fdd&projectId=0198b9d0-29d4-7df3-8625-4b4515841beb","85EE103965C74C56A466C4C7FE4F1AD6-2025-08-17-22-38-05","","null","","images/semantic_sequence/creative_activities_semantic/creative_activities_semantic_4.png","null","",""
"","","","","","image-button-response","102","560683","0.0-14.0-1.0-1.4","85EE103965C74C56A466C4C7FE4F1AD6","85EE103965C74C56A466C4C7FE4F1AD6","0198ba0e-05e3-77db-a658-3102f11b4fdd","0198b9d0-29d4-7df3-8625-4b4515841beb","{""num_scrambled_semantic"":""8"",""num_scrambled_causal"":""4"",""num_scrambled_schematic"":""4"",""participantId"":""85EE103965C74C56A466C4C7FE4F1AD6"",""assignmentId"":""0198ba0e-05e3-77db-a658-3102f11b4fdd"",""projectId"":""0198b9d0-29d4-7df3-8625-4b4515841beb""}","https://test12345.live/?num_scrambled_semantic=8&num_scrambled_causal=4&num_scrambled_schematic=4&participantId=85EE103965C74C56A466C4C7FE4F1AD6&assignmentId=0198ba0e-05e3-77db-a658-3102f11b4fdd&projectId=0198b9d0-29d4-7df3-8625-4b4515841beb","85EE103965C74C56A466C4C7FE4F1AD6-2025-08-17-22-38-05","","603","","images/semantic_sequence/creative_activities_semantic/creative_activities_semantic_4.png","0","",""
"","","","","","image-button-response","103","566089","0.0-14.0-1.0-2.4","85EE103965C74C56A466C4C7FE4F1AD6","85EE103965C74C56A466C4C7FE4F1AD6","0198ba0e-05e3-77db-a658-3102f11b4fdd","0198b9d0-29d4-7df3-8625-4b4515841beb","{""num_scrambled_semantic"":""8"",""num_scrambled_causal"":""4"",""num_scrambled_schematic"":""4"",""participantId"":""85EE103965C74C56A466C4C7FE4F1AD6"",""assignmentId"":""0198ba0e-05e3-77db-a658-3102f11b4fdd"",""projectId"":""0198b9d0-29d4-7df3-8625-4b4515841beb""}","https://test12345.live/?num_scrambled_semantic=8&num_scrambled_causal=4&num_scrambled_schematic=4&participantId=85EE103965C74C56A466C4C7FE4F1AD6&assignmentId=0198ba0e-05e3-77db-a658-3102f11b4fdd&projectId=0198b9d0-29d4-7df3-8625-4b4515841beb","85EE103965C74C56A466C4C7FE4F1AD6-2025-08-17-22-38-05","","null","","[]","null","",""
"","","","","","image-button-response","104","570592","0.0-14.0-1.0-0.5","85EE103965C74C56A466C4C7FE4F1AD6","85EE103965C74C56A466C4C7FE4F1AD6","0198ba0e-05e3-77db-a658-3102f11b4fdd","0198b9d0-29d4-7df3-8625-4b4515841beb","{""num_scrambled_semantic"":""8"",""num_scrambled_causal"":""4"",""num_scrambled_schematic"":""4"",""participantId"":""85EE103965C74C56A466C4C7FE4F1AD6"",""assignmentId"":""0198ba0e-05e3-77db-a658-3102f11b4fdd"",""projectId"":""0198b9d0-29d4-7df3-8625-4b4515841beb""}","https://test12345.live/?num_scrambled_semantic=8&num_scrambled_causal=4&num_scrambled_schematic=4&participantId=85EE103965C74C56A466C4C7FE4F1AD6&assignmentId=0198ba0e-05e3-77db-a658-3102f11b4fdd&projectId=0198b9d0-29d4-7df3-8625-4b4515841beb","85EE103965C74C56A466C4C7FE4F1AD6-2025-08-17-22-38-05","","null","","images/semantic_sequence/creative_activities_semantic/creative_activities_semantic_2.png","null","",""
"","","","","","image-button-response","105","571284","0.0-14.0-1.0-1.5","85EE103965C74C56A466C4C7FE4F1AD6","85EE103965C74C56A466C4C7FE4F1AD6","0198ba0e-05e3-77db-a658-3102f11b4fdd","0198b9d0-29d4-7df3-8625-4b4515841beb","{""num_scrambled_semantic"":""8"",""num_scrambled_causal"":""4"",""num_scrambled_schematic"":""4"",""participantId"":""85EE103965C74C56A466C4C7FE4F1AD6"",""assignmentId"":""0198ba0e-05e3-77db-a658-3102f11b4fdd"",""projectId"":""0198b9d0-29d4-7df3-8625-4b4515841beb""}","https://test12345.live/?num_scrambled_semantic=8&num_scrambled_causal=4&num_scrambled_schematic=4&participantId=85EE103965C74C56A466C4C7FE4F1AD6&assignmentId=0198ba0e-05e3-77db-a658-3102f11b4fdd&projectId=0198b9d0-29d4-7df3-8625-4b4515841beb","85EE103965C74C56A466C4C7FE4F1AD6-2025-08-17-22-38-05","","690","","images/semantic_sequence/creative_activities_semantic/creative_activities_semantic_2.png","0","",""
"","","","","","image-button-response","106","576687","0.0-14.0-1.0-2.5","85EE103965C74C56A466C4C7FE4F1AD6","85EE103965C74C56A466C4C7FE4F1AD6","0198ba0e-05e3-77db-a658-3102f11b4fdd","0198b9d0-29d4-7df3-8625-4b4515841beb","{""num_scrambled_semantic"":""8"",""num_scrambled_causal"":""4"",""num_scrambled_schematic"":""4"",""participantId"":""85EE103965C74C56A466C4C7FE4F1AD6"",""assignmentId"":""0198ba0e-05e3-77db-a658-3102f11b4fdd"",""projectId"":""0198b9d0-29d4-7df3-8625-4b4515841beb""}","https://test12345.live/?num_scrambled_semantic=8&num_scrambled_causal=4&num_scrambled_schematic=4&participantId=85EE103965C74C56A466C4C7FE4F1AD6&assignmentId=0198ba0e-05e3-77db-a658-3102f11b4fdd&projectId=0198b9d0-29d4-7df3-8625-4b4515841beb","85EE103965C74C56A466C4C7FE4F1AD6-2025-08-17-22-38-05","","null","","[]","null","",""
"","","","","","image-button-response","107","581193","0.0-14.0-1.0-0.6","85EE103965C74C56A466C4C7FE4F1AD6","85EE103965C74C56A466C4C7FE4F1AD6","0198ba0e-05e3-77db-a658-3102f11b4fdd","0198b9d0-29d4-7df3-8625-4b4515841beb","{""num_scrambled_semantic"":""8"",""num_scrambled_causal"":""4"",""num_scrambled_schematic"":""4"",""participantId"":""85EE103965C74C56A466C4C7FE4F1AD6"",""assignmentId"":""0198ba0e-05e3-77db-a658-3102f11b4fdd"",""projectId"":""0198b9d0-29d4-7df3-8625-4b4515841beb""}","https://test12345.live/?num_scrambled_semantic=8&num_scrambled_causal=4&num_scrambled_schematic=4&participantId=85EE103965C74C56A466C4C7FE4F1AD6&assignmentId=0198ba0e-05e3-77db-a658-3102f11b4fdd&projectId=0198b9d0-29d4-7df3-8625-4b4515841beb","85EE103965C74C56A466C4C7FE4F1AD6-2025-08-17-22-38-05","","null","","images/semantic_sequence/creative_activities_semantic/creative_activities_semantic_5.png","null","",""
"","","","","","image-button-response","108","581818","0.0-14.0-1.0-1.6","85EE103965C74C56A466C4C7FE4F1AD6","85EE103965C74C56A466C4C7FE4F1AD6","0198ba0e-05e3-77db-a658-3102f11b4fdd","0198b9d0-29d4-7df3-8625-4b4515841beb","{""num_scrambled_semantic"":""8"",""num_scrambled_causal"":""4"",""num_scrambled_schematic"":""4"",""participantId"":""85EE103965C74C56A466C4C7FE4F1AD6"",""assignmentId"":""0198ba0e-05e3-77db-a658-3102f11b4fdd"",""projectId"":""0198b9d0-29d4-7df3-8625-4b4515841beb""}","https://test12345.live/?num_scrambled_semantic=8&num_scrambled_causal=4&num_scrambled_schematic=4&participantId=85EE103965C74C56A466C4C7FE4F1AD6&assignmentId=0198ba0e-05e3-77db-a658-3102f11b4fdd&projectId=0198b9d0-29d4-7df3-8625-4b4515841beb","85EE103965C74C56A466C4C7FE4F1AD6-2025-08-17-22-38-05","","623","","images/semantic_sequence/creative_activities_semantic/creative_activities_semantic_5.png","0","",""
"","","","","","image-button-response","109","587222","0.0-14.0-1.0-2.6","85EE103965C74C56A466C4C7FE4F1AD6","85EE103965C74C56A466C4C7FE4F1AD6","0198ba0e-05e3-77db-a658-3102f11b4fdd","0198b9d0-29d4-7df3-8625-4b4515841beb","{""num_scrambled_semantic"":""8"",""num_scrambled_causal"":""4"",""num_scrambled_schematic"":""4"",""participantId"":""85EE103965C74C56A466C4C7FE4F1AD6"",""assignmentId"":""0198ba0e-05e3-77db-a658-3102f11b4fdd"",""projectId"":""0198b9d0-29d4-7df3-8625-4b4515841beb""}","https://test12345.live/?num_scrambled_semantic=8&num_scrambled_causal=4&num_scrambled_schematic=4&participantId=85EE103965C74C56A466C4C7FE4F1AD6&assignmentId=0198ba0e-05e3-77db-a658-3102f11b4fdd&projectId=0198b9d0-29d4-7df3-8625-4b4515841beb","85EE103965C74C56A466C4C7FE4F1AD6-2025-08-17-22-38-05","","null","","[]","null","",""
"","","","","","image-button-response","110","591726","0.0-14.0-1.0-0.7","85EE103965C74C56A466C4C7FE4F1AD6","85EE103965C74C56A466C4C7FE4F1AD6","0198ba0e-05e3-77db-a658-3102f11b4fdd","0198b9d0-29d4-7df3-8625-4b4515841beb","{""num_scrambled_semantic"":""8"",""num_scrambled_causal"":""4"",""num_scrambled_schematic"":""4"",""participantId"":""85EE103965C74C56A466C4C7FE4F1AD6"",""assignmentId"":""0198ba0e-05e3-77db-a658-3102f11b4fdd"",""projectId"":""0198b9d0-29d4-7df3-8625-4b4515841beb""}","https://test12345.live/?num_scrambled_semantic=8&num_scrambled_causal=4&num_scrambled_schematic=4&participantId=85EE103965C74C56A466C4C7FE4F1AD6&assignmentId=0198ba0e-05e3-77db-a658-3102f11b4fdd&projectId=0198b9d0-29d4-7df3-8625-4b4515841beb","85EE103965C74C56A466C4C7FE4F1AD6-2025-08-17-22-38-05","","null","","images/semantic_sequence/creative_activities_semantic/creative_activities_semantic_ten.png","null","",""
"","","","","","image-button-response","111","592317","0.0-14.0-1.0-1.7","85EE103965C74C56A466C4C7FE4F1AD6","85EE103965C74C56A466C4C7FE4F1AD6","0198ba0e-05e3-77db-a658-3102f11b4fdd","0198b9d0-29d4-7df3-8625-4b4515841beb","{""num_scrambled_semantic"":""8"",""num_scrambled_causal"":""4"",""num_scrambled_schematic"":""4"",""participantId"":""85EE103965C74C56A466C4C7FE4F1AD6"",""assignmentId"":""0198ba0e-05e3-77db-a658-3102f11b4fdd"",""projectId"":""0198b9d0-29d4-7df3-8625-4b4515841beb""}","https://test12345.live/?num_scrambled_semantic=8&num_scrambled_causal=4&num_scrambled_schematic=4&participantId=85EE103965C74C56A466C4C7FE4F1AD6&assignmentId=0198ba0e-05e3-77db-a658-3102f11b4fdd&projectId=0198b9d0-29d4-7df3-8625-4b4515841beb","85EE103965C74C56A466C4C7FE4F1AD6-2025-08-17-22-38-05","","584","","images/semantic_sequence/creative_activities_semantic/creative_activities_semantic_ten.png","0","",""
"","","","","","image-button-response","112","597720","0.0-14.0-1.0-2.7","85EE103965C74C56A466C4C7FE4F1AD6","85EE103965C74C56A466C4C7FE4F1AD6","0198ba0e-05e3-77db-a658-3102f11b4fdd","0198b9d0-29d4-7df3-8625-4b4515841beb","{""num_scrambled_semantic"":""8"",""num_scrambled_causal"":""4"",""num_scrambled_schematic"":""4"",""participantId"":""85EE103965C74C56A466C4C7FE4F1AD6"",""assignmentId"":""0198ba0e-05e3-77db-a658-3102f11b4fdd"",""projectId"":""0198b9d0-29d4-7df3-8625-4b4515841beb""}","https://test12345.live/?num_scrambled_semantic=8&num_scrambled_causal=4&num_scrambled_schematic=4&participantId=85EE103965C74C56A466C4C7FE4F1AD6&assignmentId=0198ba0e-05e3-77db-a658-3102f11b4fdd&projectId=0198b9d0-29d4-7df3-8625-4b4515841beb","85EE103965C74C56A466C4C7FE4F1AD6-2025-08-17-22-38-05","","null","","[]","null","",""
"","","","","","image-button-response","113","602222","0.0-14.0-1.0-0.8","85EE103965C74C56A466C4C7FE4F1AD6","85EE103965C74C56A466C4C7FE4F1AD6","0198ba0e-05e3-77db-a658-3102f11b4fdd","0198b9d0-29d4-7df3-8625-4b4515841beb","{""num_scrambled_semantic"":""8"",""num_scrambled_causal"":""4"",""num_scrambled_schematic"":""4"",""participantId"":""85EE103965C74C56A466C4C7FE4F1AD6"",""assignmentId"":""0198ba0e-05e3-77db-a658-3102f11b4fdd"",""projectId"":""0198b9d0-29d4-7df3-8625-4b4515841beb""}","https://test12345.live/?num_scrambled_semantic=8&num_scrambled_causal=4&num_scrambled_schematic=4&participantId=85EE103965C74C56A466C4C7FE4F1AD6&assignmentId=0198ba0e-05e3-77db-a658-3102f11b4fdd&projectId=0198b9d0-29d4-7df3-8625-4b4515841beb","85EE103965C74C56A466C4C7FE4F1AD6-2025-08-17-22-38-05","","null","","images/semantic_sequence/creative_activities_semantic/creative_activities_semantic_7.png","null","",""
