"success","timeout","failed_images","failed_audio","failed_video","trial_type","trial_index","time_elapsed","internal_node_id","subject","subject_id","study_id","session_id","urlvar","current_url","audio_id","view_history","rt","device_id","stimulus","response","estimated_stimulus_onset","seq_name"
"true","false","[]","[]","[]","preload","0","248969","0.0-0.0","85FF1ECF890543F286510B62FA7079D0","85FF1ECF890543F286510B62FA7079D0","0198ee49-34b7-76e9-9f4d-43a6b1ecfb61","0198ee3c-27ac-7803-a9ea-f3b4ad4ad678","{""num_scrambled_semantic"":""8"",""num_scrambled_causal"":""4"",""num_scrambled_schematic"":""4"",""participantId"":""85FF1ECF890543F286510B62FA7079D0"",""assignmentId"":""0198ee49-34b7-76e9-9f4d-43a6b1ecfb61"",""projectId"":""0198ee3c-27ac-7803-a9ea-f3b4ad4ad678""}","https://test12345.live/?num_scrambled_semantic=8&num_scrambled_causal=4&num_scrambled_schematic=4&participantId=85FF1ECF890543F286510B62FA7079D0&assignmentId=0198ee49-34b7-76e9-9f4d-43a6b1ecfb61&projectId=0198ee3c-27ac-7803-a9ea-f3b4ad4ad678","85FF1ECF890543F286510B62FA7079D0-2025-08-28-02-27-47","","","","","","",""
"","","","","","instructions","1","307669","0.0-1.0","85FF1ECF890543F286510B62FA7079D0","85FF1ECF890543F286510B62FA7079D0","0198ee49-34b7-76e9-9f4d-43a6b1ecfb61","0198ee3c-27ac-7803-a9ea-f3b4ad4ad678","{""num_scrambled_semantic"":""8"",""num_scrambled_causal"":""4"",""num_scrambled_schematic"":""4"",""participantId"":""85FF1ECF890543F286510B62FA7079D0"",""assignmentId"":""0198ee49-34b7-76e9-9f4d-43a6b1ecfb61"",""projectId"":""0198ee3c-27ac-7803-a9ea-f3b4ad4ad678""}","https://test12345.live/?num_scrambled_semantic=8&num_scrambled_causal=4&num_scrambled_schematic=4&participantId=85FF1ECF890543F286510B62FA7079D0&assignmentId=0198ee49-34b7-76e9-9f4d-43a6b1ecfb61&projectId=0198ee3c-27ac-7803-a9ea-f3b4ad4ad678","85FF1ECF890543F286510B62FA7079D0-2025-08-28-02-27-47","[{""page_index"":0,""viewing_time"":58699}]","58699","","","","",""
"","","","","","instructions","2","318020","0.0-2.0","85FF1ECF890543F286510B62FA7079D0","85FF1ECF890543F286510B62FA7079D0","0198ee49-34b7-76e9-9f4d-43a6b1ecfb61","0198ee3c-27ac-7803-a9ea-f3b4ad4ad678","{""num_scrambled_semantic"":""8"",""num_scrambled_causal"":""4"",""num_scrambled_schematic"":""4"",""participantId"":""85FF1ECF890543F286510B62FA7079D0"",""assignmentId"":""0198ee49-34b7-76e9-9f4d-43a6b1ecfb61"",""projectId"":""0198ee3c-27ac-7803-a9ea-f3b4ad4ad678""}","https://test12345.live/?num_scrambled_semantic=8&num_scrambled_causal=4&num_scrambled_schematic=4&participantId=85FF1ECF890543F286510B62FA7079D0&assignmentId=0198ee49-34b7-76e9-9f4d-43a6b1ecfb61&projectId=0198ee3c-27ac-7803-a9ea-f3b4ad4ad678","85FF1ECF890543F286510B62FA7079D0-2025-08-28-02-27-47","[{""page_index"":0,""viewing_time"":10351}]","10351","","","","",""
"true","","","","","fullscreen","3","320603","0.0-3.0","85FF1ECF890543F286510B62FA7079D0","85FF1ECF890543F286510B62FA7079D0","0198ee49-34b7-76e9-9f4d-43a6b1ecfb61","0198ee3c-27ac-7803-a9ea-f3b4ad4ad678","{""num_scrambled_semantic"":""8"",""num_scrambled_causal"":""4"",""num_scrambled_schematic"":""4"",""participantId"":""85FF1ECF890543F286510B62FA7079D0"",""assignmentId"":""0198ee49-34b7-76e9-9f4d-43a6b1ecfb61"",""projectId"":""0198ee3c-27ac-7803-a9ea-f3b4ad4ad678""}","https://test12345.live/?num_scrambled_semantic=8&num_scrambled_causal=4&num_scrambled_schematic=4&participantId=85FF1ECF890543F286510B62FA7079D0&assignmentId=0198ee49-34b7-76e9-9f4d-43a6b1ecfb61&projectId=0198ee3c-27ac-7803-a9ea-f3b4ad4ad678","85FF1ECF890543F286510B62FA7079D0-2025-08-28-02-27-47","","1575","","","","",""
"","","","","","initialize-microphone","4","348331","0.0-4.0-0.0","85FF1ECF890543F286510B62FA7079D0","85FF1ECF890543F286510B62FA7079D0","0198ee49-34b7-76e9-9f4d-43a6b1ecfb61","0198ee3c-27ac-7803-a9ea-f3b4ad4ad678","{""num_scrambled_semantic"":""8"",""num_scrambled_causal"":""4"",""num_scrambled_schematic"":""4"",""participantId"":""85FF1ECF890543F286510B62FA7079D0"",""assignmentId"":""0198ee49-34b7-76e9-9f4d-43a6b1ecfb61"",""projectId"":""0198ee3c-27ac-7803-a9ea-f3b4ad4ad678""}","https://test12345.live/?num_scrambled_semantic=8&num_scrambled_causal=4&num_scrambled_schematic=4&participantId=85FF1ECF890543F286510B62FA7079D0&assignmentId=0198ee49-34b7-76e9-9f4d-43a6b1ecfb61&projectId=0198ee3c-27ac-7803-a9ea-f3b4ad4ad678","85FF1ECF890543F286510B62FA7079D0-2025-08-28-02-27-47","","","f5db902eff3706e2f6728871e484d063c985cb3e099446794bc7c2346cb71bbf","","","",""
"","","","","","html-audio-response","5","398525","0.0-4.0-1.0","85FF1ECF890543F286510B62FA7079D0","85FF1ECF890543F286510B62FA7079D0","0198ee49-34b7-76e9-9f4d-43a6b1ecfb61","0198ee3c-27ac-7803-a9ea-f3b4ad4ad678","{""num_scrambled_semantic"":""8"",""num_scrambled_causal"":""4"",""num_scrambled_schematic"":""4"",""participantId"":""85FF1ECF890543F286510B62FA7079D0"",""assignmentId"":""0198ee49-34b7-76e9-9f4d-43a6b1ecfb61"",""projectId"":""0198ee3c-27ac-7803-a9ea-f3b4ad4ad678""}","https://test12345.live/?num_scrambled_semantic=8&num_scrambled_causal=4&num_scrambled_schematic=4&participantId=85FF1ECF890543F286510B62FA7079D0&assignmentId=0198ee49-34b7-76e9-9f4d-43a6b1ecfb61&projectId=0198ee3c-27ac-7803-a9ea-f3b4ad4ad678","85FF1ECF890543F286510B62FA7079D0-2025-08-28-02-27-47","","6453","","<span style=""color: red; font-size: 24px""> NOW RECORDING</span>
        <p>Please test Microphone</p>","","5",""
"","","","","","html-button-response","6","399396","0.0-4.0-2.0","85FF1ECF890543F286510B62FA7079D0","85FF1ECF890543F286510B62FA7079D0","0198ee49-34b7-76e9-9f4d-43a6b1ecfb61","0198ee3c-27ac-7803-a9ea-f3b4ad4ad678","{""num_scrambled_semantic"":""8"",""num_scrambled_causal"":""4"",""num_scrambled_schematic"":""4"",""participantId"":""85FF1ECF890543F286510B62FA7079D0"",""assignmentId"":""0198ee49-34b7-76e9-9f4d-43a6b1ecfb61"",""projectId"":""0198ee3c-27ac-7803-a9ea-f3b4ad4ad678""}","https://test12345.live/?num_scrambled_semantic=8&num_scrambled_causal=4&num_scrambled_schematic=4&participantId=85FF1ECF890543F286510B62FA7079D0&assignmentId=0198ee49-34b7-76e9-9f4d-43a6b1ecfb61&projectId=0198ee3c-27ac-7803-a9ea-f3b4ad4ad678","85FF1ECF890543F286510B62FA7079D0-2025-08-28-02-27-47","","871","","<p style=""font-size:48px; color:red;"">Is Microphone OK?</p>","1","",""
"","","","","","instructions","7","403340","0.0-5.0","85FF1ECF890543F286510B62FA7079D0","85FF1ECF890543F286510B62FA7079D0","0198ee49-34b7-76e9-9f4d-43a6b1ecfb61","0198ee3c-27ac-7803-a9ea-f3b4ad4ad678","{""num_scrambled_semantic"":""8"",""num_scrambled_causal"":""4"",""num_scrambled_schematic"":""4"",""participantId"":""85FF1ECF890543F286510B62FA7079D0"",""assignmentId"":""0198ee49-34b7-76e9-9f4d-43a6b1ecfb61"",""projectId"":""0198ee3c-27ac-7803-a9ea-f3b4ad4ad678""}","https://test12345.live/?num_scrambled_semantic=8&num_scrambled_causal=4&num_scrambled_schematic=4&participantId=85FF1ECF890543F286510B62FA7079D0&assignmentId=0198ee49-34b7-76e9-9f4d-43a6b1ecfb61&projectId=0198ee3c-27ac-7803-a9ea-f3b4ad4ad678","85FF1ECF890543F286510B62FA7079D0-2025-08-28-02-27-47","[{""page_index"":0,""viewing_time"":1927},{""page_index"":1,""viewing_time"":2016}]","3943","","","","",""
"","","","","","image-button-response","8","409343","0.0-6.0-0.0","85FF1ECF890543F286510B62FA7079D0","85FF1ECF890543F286510B62FA7079D0","0198ee49-34b7-76e9-9f4d-43a6b1ecfb61","0198ee3c-27ac-7803-a9ea-f3b4ad4ad678","{""num_scrambled_semantic"":""8"",""num_scrambled_causal"":""4"",""num_scrambled_schematic"":""4"",""participantId"":""85FF1ECF890543F286510B62FA7079D0"",""assignmentId"":""0198ee49-34b7-76e9-9f4d-43a6b1ecfb61"",""projectId"":""0198ee3c-27ac-7803-a9ea-f3b4ad4ad678""}","https://test12345.live/?num_scrambled_semantic=8&num_scrambled_causal=4&num_scrambled_schematic=4&participantId=85FF1ECF890543F286510B62FA7079D0&assignmentId=0198ee49-34b7-76e9-9f4d-43a6b1ecfb61&projectId=0198ee3c-27ac-7803-a9ea-f3b4ad4ad678","85FF1ECF890543F286510B62FA7079D0-2025-08-28-02-27-47","","null","","images/instructions/movie_0.png","null","",""
"","","","","","image-button-response","9","413847","0.0-6.0-1.0-0.0","85FF1ECF890543F286510B62FA7079D0","85FF1ECF890543F286510B62FA7079D0","0198ee49-34b7-76e9-9f4d-43a6b1ecfb61","0198ee3c-27ac-7803-a9ea-f3b4ad4ad678","{""num_scrambled_semantic"":""8"",""num_scrambled_causal"":""4"",""num_scrambled_schematic"":""4"",""participantId"":""85FF1ECF890543F286510B62FA7079D0"",""assignmentId"":""0198ee49-34b7-76e9-9f4d-43a6b1ecfb61"",""projectId"":""0198ee3c-27ac-7803-a9ea-f3b4ad4ad678""}","https://test12345.live/?num_scrambled_semantic=8&num_scrambled_causal=4&num_scrambled_schematic=4&participantId=85FF1ECF890543F286510B62FA7079D0&assignmentId=0198ee49-34b7-76e9-9f4d-43a6b1ecfb61&projectId=0198ee3c-27ac-7803-a9ea-f3b4ad4ad678","85FF1ECF890543F286510B62FA7079D0-2025-08-28-02-27-47","","null","","images/instructions/movie_1.png","null","",""
"","","","","","image-button-response","10","415172","0.0-6.0-1.0-1.0","85FF1ECF890543F286510B62FA7079D0","85FF1ECF890543F286510B62FA7079D0","0198ee49-34b7-76e9-9f4d-43a6b1ecfb61","0198ee3c-27ac-7803-a9ea-f3b4ad4ad678","{""num_scrambled_semantic"":""8"",""num_scrambled_causal"":""4"",""num_scrambled_schematic"":""4"",""participantId"":""85FF1ECF890543F286510B62FA7079D0"",""assignmentId"":""0198ee49-34b7-76e9-9f4d-43a6b1ecfb61"",""projectId"":""0198ee3c-27ac-7803-a9ea-f3b4ad4ad678""}","https://test12345.live/?num_scrambled_semantic=8&num_scrambled_causal=4&num_scrambled_schematic=4&participantId=85FF1ECF890543F286510B62FA7079D0&assignmentId=0198ee49-34b7-76e9-9f4d-43a6b1ecfb61&projectId=0198ee3c-27ac-7803-a9ea-f3b4ad4ad678","85FF1ECF890543F286510B62FA7079D0-2025-08-28-02-27-47","","1324","","images/instructions/movie_1.png","0","",""
"","","","","","image-button-response","11","416982","0.0-6.0-1.0-2.0","85FF1ECF890543F286510B62FA7079D0","85FF1ECF890543F286510B62FA7079D0","0198ee49-34b7-76e9-9f4d-43a6b1ecfb61","0198ee3c-27ac-7803-a9ea-f3b4ad4ad678","{""num_scrambled_semantic"":""8"",""num_scrambled_causal"":""4"",""num_scrambled_schematic"":""4"",""participantId"":""85FF1ECF890543F286510B62FA7079D0"",""assignmentId"":""0198ee49-34b7-76e9-9f4d-43a6b1ecfb61"",""projectId"":""0198ee3c-27ac-7803-a9ea-f3b4ad4ad678""}","https://test12345.live/?num_scrambled_semantic=8&num_scrambled_causal=4&num_scrambled_schematic=4&participantId=85FF1ECF890543F286510B62FA7079D0&assignmentId=0198ee49-34b7-76e9-9f4d-43a6b1ecfb61&projectId=0198ee3c-27ac-7803-a9ea-f3b4ad4ad678","85FF1ECF890543F286510B62FA7079D0-2025-08-28-02-27-47","","null","","[]","null","",""
"","","","","","image-button-response","12","421491","0.0-6.0-1.0-0.1","85FF1ECF890543F286510B62FA7079D0","85FF1ECF890543F286510B62FA7079D0","0198ee49-34b7-76e9-9f4d-43a6b1ecfb61","0198ee3c-27ac-7803-a9ea-f3b4ad4ad678","{""num_scrambled_semantic"":""8"",""num_scrambled_causal"":""4"",""num_scrambled_schematic"":""4"",""participantId"":""85FF1ECF890543F286510B62FA7079D0"",""assignmentId"":""0198ee49-34b7-76e9-9f4d-43a6b1ecfb61"",""projectId"":""0198ee3c-27ac-7803-a9ea-f3b4ad4ad678""}","https://test12345.live/?num_scrambled_semantic=8&num_scrambled_causal=4&num_scrambled_schematic=4&participantId=85FF1ECF890543F286510B62FA7079D0&assignmentId=0198ee49-34b7-76e9-9f4d-43a6b1ecfb61&projectId=0198ee3c-27ac-7803-a9ea-f3b4ad4ad678","85FF1ECF890543F286510B62FA7079D0-2025-08-28-02-27-47","","null","","images/instructions/movie_2.png","null","",""
"","","","","","image-button-response","13","423372","0.0-6.0-1.0-1.1","85FF1ECF890543F286510B62FA7079D0","85FF1ECF890543F286510B62FA7079D0","0198ee49-34b7-76e9-9f4d-43a6b1ecfb61","0198ee3c-27ac-7803-a9ea-f3b4ad4ad678","{""num_scrambled_semantic"":""8"",""num_scrambled_causal"":""4"",""num_scrambled_schematic"":""4"",""participantId"":""85FF1ECF890543F286510B62FA7079D0"",""assignmentId"":""0198ee49-34b7-76e9-9f4d-43a6b1ecfb61"",""projectId"":""0198ee3c-27ac-7803-a9ea-f3b4ad4ad678""}","https://test12345.live/?num_scrambled_semantic=8&num_scrambled_causal=4&num_scrambled_schematic=4&participantId=85FF1ECF890543F286510B62FA7079D0&assignmentId=0198ee49-34b7-76e9-9f4d-43a6b1ecfb61&projectId=0198ee3c-27ac-7803-a9ea-f3b4ad4ad678","85FF1ECF890543F286510B62FA7079D0-2025-08-28-02-27-47","","1881","","images/instructions/movie_2.png","0","",""
"","","","","","image-button-response","14","425173","0.0-6.0-1.0-2.1","85FF1ECF890543F286510B62FA7079D0","85FF1ECF890543F286510B62FA7079D0","0198ee49-34b7-76e9-9f4d-43a6b1ecfb61","0198ee3c-27ac-7803-a9ea-f3b4ad4ad678","{""num_scrambled_semantic"":""8"",""num_scrambled_causal"":""4"",""num_scrambled_schematic"":""4"",""participantId"":""85FF1ECF890543F286510B62FA7079D0"",""assignmentId"":""0198ee49-34b7-76e9-9f4d-43a6b1ecfb61"",""projectId"":""0198ee3c-27ac-7803-a9ea-f3b4ad4ad678""}","https://test12345.live/?num_scrambled_semantic=8&num_scrambled_causal=4&num_scrambled_schematic=4&participantId=85FF1ECF890543F286510B62FA7079D0&assignmentId=0198ee49-34b7-76e9-9f4d-43a6b1ecfb61&projectId=0198ee3c-27ac-7803-a9ea-f3b4ad4ad678","85FF1ECF890543F286510B62FA7079D0-2025-08-28-02-27-47","","null","","[]","null","",""
"","","","","","image-button-response","15","429675","0.0-6.0-1.0-0.2","85FF1ECF890543F286510B62FA7079D0","85FF1ECF890543F286510B62FA7079D0","0198ee49-34b7-76e9-9f4d-43a6b1ecfb61","0198ee3c-27ac-7803-a9ea-f3b4ad4ad678","{""num_scrambled_semantic"":""8"",""num_scrambled_causal"":""4"",""num_scrambled_schematic"":""4"",""participantId"":""85FF1ECF890543F286510B62FA7079D0"",""assignmentId"":""0198ee49-34b7-76e9-9f4d-43a6b1ecfb61"",""projectId"":""0198ee3c-27ac-7803-a9ea-f3b4ad4ad678""}","https://test12345.live/?num_scrambled_semantic=8&num_scrambled_causal=4&num_scrambled_schematic=4&participantId=85FF1ECF890543F286510B62FA7079D0&assignmentId=0198ee49-34b7-76e9-9f4d-43a6b1ecfb61&projectId=0198ee3c-27ac-7803-a9ea-f3b4ad4ad678","85FF1ECF890543F286510B62FA7079D0-2025-08-28-02-27-47","","null","","images/instructions/movie_3.png","null","",""
"","","","","","image-button-response","16","430820","0.0-6.0-1.0-1.2","85FF1ECF890543F286510B62FA7079D0","85FF1ECF890543F286510B62FA7079D0","0198ee49-34b7-76e9-9f4d-43a6b1ecfb61","0198ee3c-27ac-7803-a9ea-f3b4ad4ad678","{""num_scrambled_semantic"":""8"",""num_scrambled_causal"":""4"",""num_scrambled_schematic"":""4"",""participantId"":""85FF1ECF890543F286510B62FA7079D0"",""assignmentId"":""0198ee49-34b7-76e9-9f4d-43a6b1ecfb61"",""projectId"":""0198ee3c-27ac-7803-a9ea-f3b4ad4ad678""}","https://test12345.live/?num_scrambled_semantic=8&num_scrambled_causal=4&num_scrambled_schematic=4&participantId=85FF1ECF890543F286510B62FA7079D0&assignmentId=0198ee49-34b7-76e9-9f4d-43a6b1ecfb61&projectId=0198ee3c-27ac-7803-a9ea-f3b4ad4ad678","85FF1ECF890543F286510B62FA7079D0-2025-08-28-02-27-47","","1144","","images/instructions/movie_3.png","0","",""
"","","","","","image-button-response","17","432634","0.0-6.0-1.0-2.2","85FF1ECF890543F286510B62FA7079D0","85FF1ECF890543F286510B62FA7079D0","0198ee49-34b7-76e9-9f4d-43a6b1ecfb61","0198ee3c-27ac-7803-a9ea-f3b4ad4ad678","{""num_scrambled_semantic"":""8"",""num_scrambled_causal"":""4"",""num_scrambled_schematic"":""4"",""participantId"":""85FF1ECF890543F286510B62FA7079D0"",""assignmentId"":""0198ee49-34b7-76e9-9f4d-43a6b1ecfb61"",""projectId"":""0198ee3c-27ac-7803-a9ea-f3b4ad4ad678""}","https://test12345.live/?num_scrambled_semantic=8&num_scrambled_causal=4&num_scrambled_schematic=4&participantId=85FF1ECF890543F286510B62FA7079D0&assignmentId=0198ee49-34b7-76e9-9f4d-43a6b1ecfb61&projectId=0198ee3c-27ac-7803-a9ea-f3b4ad4ad678","85FF1ECF890543F286510B62FA7079D0-2025-08-28-02-27-47","","null","","[]","null","",""
"","","","","","image-button-response","18","437147","0.0-6.0-1.0-0.3","85FF1ECF890543F286510B62FA7079D0","85FF1ECF890543F286510B62FA7079D0","0198ee49-34b7-76e9-9f4d-43a6b1ecfb61","0198ee3c-27ac-7803-a9ea-f3b4ad4ad678","{""num_scrambled_semantic"":""8"",""num_scrambled_causal"":""4"",""num_scrambled_schematic"":""4"",""participantId"":""85FF1ECF890543F286510B62FA7079D0"",""assignmentId"":""0198ee49-34b7-76e9-9f4d-43a6b1ecfb61"",""projectId"":""0198ee3c-27ac-7803-a9ea-f3b4ad4ad678""}","https://test12345.live/?num_scrambled_semantic=8&num_scrambled_causal=4&num_scrambled_schematic=4&participantId=85FF1ECF890543F286510B62FA7079D0&assignmentId=0198ee49-34b7-76e9-9f4d-43a6b1ecfb61&projectId=0198ee3c-27ac-7803-a9ea-f3b4ad4ad678","85FF1ECF890543F286510B62FA7079D0-2025-08-28-02-27-47","","null","","images/instructions/movie_4.png","null","",""
"","","","","","image-button-response","19","438132","0.0-6.0-1.0-1.3","85FF1ECF890543F286510B62FA7079D0","85FF1ECF890543F286510B62FA7079D0","0198ee49-34b7-76e9-9f4d-43a6b1ecfb61","0198ee3c-27ac-7803-a9ea-f3b4ad4ad678","{""num_scrambled_semantic"":""8"",""num_scrambled_causal"":""4"",""num_scrambled_schematic"":""4"",""participantId"":""85FF1ECF890543F286510B62FA7079D0"",""assignmentId"":""0198ee49-34b7-76e9-9f4d-43a6b1ecfb61"",""projectId"":""0198ee3c-27ac-7803-a9ea-f3b4ad4ad678""}","https://test12345.live/?num_scrambled_semantic=8&num_scrambled_causal=4&num_scrambled_schematic=4&participantId=85FF1ECF890543F286510B62FA7079D0&assignmentId=0198ee49-34b7-76e9-9f4d-43a6b1ecfb61&projectId=0198ee3c-27ac-7803-a9ea-f3b4ad4ad678","85FF1ECF890543F286510B62FA7079D0-2025-08-28-02-27-47","","984","","images/instructions/movie_4.png","0","",""
"","","","","","image-button-response","20","439933","0.0-6.0-1.0-2.3","85FF1ECF890543F286510B62FA7079D0","85FF1ECF890543F286510B62FA7079D0","0198ee49-34b7-76e9-9f4d-43a6b1ecfb61","0198ee3c-27ac-7803-a9ea-f3b4ad4ad678","{""num_scrambled_semantic"":""8"",""num_scrambled_causal"":""4"",""num_scrambled_schematic"":""4"",""participantId"":""85FF1ECF890543F286510B62FA7079D0"",""assignmentId"":""0198ee49-34b7-76e9-9f4d-43a6b1ecfb61"",""projectId"":""0198ee3c-27ac-7803-a9ea-f3b4ad4ad678""}","https://test12345.live/?num_scrambled_semantic=8&num_scrambled_causal=4&num_scrambled_schematic=4&participantId=85FF1ECF890543F286510B62FA7079D0&assignmentId=0198ee49-34b7-76e9-9f4d-43a6b1ecfb61&projectId=0198ee3c-27ac-7803-a9ea-f3b4ad4ad678","85FF1ECF890543F286510B62FA7079D0-2025-08-28-02-27-47","","null","","[]","null","",""
"","","","","","instructions","21","444524","0.0-7.0","85FF1ECF890543F286510B62FA7079D0","85FF1ECF890543F286510B62FA7079D0","0198ee49-34b7-76e9-9f4d-43a6b1ecfb61","0198ee3c-27ac-7803-a9ea-f3b4ad4ad678","{""num_scrambled_semantic"":""8"",""num_scrambled_causal"":""4"",""num_scrambled_schematic"":""4"",""participantId"":""85FF1ECF890543F286510B62FA7079D0"",""assignmentId"":""0198ee49-34b7-76e9-9f4d-43a6b1ecfb61"",""projectId"":""0198ee3c-27ac-7803-a9ea-f3b4ad4ad678""}","https://test12345.live/?num_scrambled_semantic=8&num_scrambled_causal=4&num_scrambled_schematic=4&participantId=85FF1ECF890543F286510B62FA7079D0&assignmentId=0198ee49-34b7-76e9-9f4d-43a6b1ecfb61&projectId=0198ee3c-27ac-7803-a9ea-f3b4ad4ad678","85FF1ECF890543F286510B62FA7079D0-2025-08-28-02-27-47","[{""page_index"":0,""viewing_time"":4591}]","4591","","","","",""
"","","","","","html-audio-response","22","488204","0.0-8.0","85FF1ECF890543F286510B62FA7079D0","85FF1ECF890543F286510B62FA7079D0","0198ee49-34b7-76e9-9f4d-43a6b1ecfb61","0198ee3c-27ac-7803-a9ea-f3b4ad4ad678","{""num_scrambled_semantic"":""8"",""num_scrambled_causal"":""4"",""num_scrambled_schematic"":""4"",""participantId"":""85FF1ECF890543F286510B62FA7079D0"",""assignmentId"":""0198ee49-34b7-76e9-9f4d-43a6b1ecfb61"",""projectId"":""0198ee3c-27ac-7803-a9ea-f3b4ad4ad678""}","https://test12345.live/?num_scrambled_semantic=8&num_scrambled_causal=4&num_scrambled_schematic=4&participantId=85FF1ECF890543F286510B62FA7079D0&assignmentId=0198ee49-34b7-76e9-9f4d-43a6b1ecfb61&projectId=0198ee3c-27ac-7803-a9ea-f3b4ad4ad678","85FF1ECF890543F286510B62FA7079D0-2025-08-28-02-27-47","","18666","","[""<span style=\""color: red; font-size: 24px\""> NOW RECORDING</span><p>Please say out loud all the images you saw, in the order of the story they create. Try to recall the sequence of events as they appeared in the story, not necessarily the order they were presented on the screen.</p>""]","","1",""
"","","","","","instructions","23","489069","0.0-9.0","85FF1ECF890543F286510B62FA7079D0","85FF1ECF890543F286510B62FA7079D0","0198ee49-34b7-76e9-9f4d-43a6b1ecfb61","0198ee3c-27ac-7803-a9ea-f3b4ad4ad678","{""num_scrambled_semantic"":""8"",""num_scrambled_causal"":""4"",""num_scrambled_schematic"":""4"",""participantId"":""85FF1ECF890543F286510B62FA7079D0"",""assignmentId"":""0198ee49-34b7-76e9-9f4d-43a6b1ecfb61"",""projectId"":""0198ee3c-27ac-7803-a9ea-f3b4ad4ad678""}","https://test12345.live/?num_scrambled_semantic=8&num_scrambled_causal=4&num_scrambled_schematic=4&participantId=85FF1ECF890543F286510B62FA7079D0&assignmentId=0198ee49-34b7-76e9-9f4d-43a6b1ecfb61&projectId=0198ee3c-27ac-7803-a9ea-f3b4ad4ad678","85FF1ECF890543F286510B62FA7079D0-2025-08-28-02-27-47","[{""page_index"":0,""viewing_time"":860}]","860","","","","",""
"","","","","","image-button-response","24","495083","0.0-10.0-0.0","85FF1ECF890543F286510B62FA7079D0","85FF1ECF890543F286510B62FA7079D0","0198ee49-34b7-76e9-9f4d-43a6b1ecfb61","0198ee3c-27ac-7803-a9ea-f3b4ad4ad678","{""num_scrambled_semantic"":""8"",""num_scrambled_causal"":""4"",""num_scrambled_schematic"":""4"",""participantId"":""85FF1ECF890543F286510B62FA7079D0"",""assignmentId"":""0198ee49-34b7-76e9-9f4d-43a6b1ecfb61"",""projectId"":""0198ee3c-27ac-7803-a9ea-f3b4ad4ad678""}","https://test12345.live/?num_scrambled_semantic=8&num_scrambled_causal=4&num_scrambled_schematic=4&participantId=85FF1ECF890543F286510B62FA7079D0&assignmentId=0198ee49-34b7-76e9-9f4d-43a6b1ecfb61&projectId=0198ee3c-27ac-7803-a9ea-f3b4ad4ad678","85FF1ECF890543F286510B62FA7079D0-2025-08-28-02-27-47","","null","","images/schematic_sequence/hotel_scheme/hotel_scheme_0.png","null","",""
"","","","","","image-button-response","25","499593","0.0-10.0-1.0-0.0","85FF1ECF890543F286510B62FA7079D0","85FF1ECF890543F286510B62FA7079D0","0198ee49-34b7-76e9-9f4d-43a6b1ecfb61","0198ee3c-27ac-7803-a9ea-f3b4ad4ad678","{""num_scrambled_semantic"":""8"",""num_scrambled_causal"":""4"",""num_scrambled_schematic"":""4"",""participantId"":""85FF1ECF890543F286510B62FA7079D0"",""assignmentId"":""0198ee49-34b7-76e9-9f4d-43a6b1ecfb61"",""projectId"":""0198ee3c-27ac-7803-a9ea-f3b4ad4ad678""}","https://test12345.live/?num_scrambled_semantic=8&num_scrambled_causal=4&num_scrambled_schematic=4&participantId=85FF1ECF890543F286510B62FA7079D0&assignmentId=0198ee49-34b7-76e9-9f4d-43a6b1ecfb61&projectId=0198ee3c-27ac-7803-a9ea-f3b4ad4ad678","85FF1ECF890543F286510B62FA7079D0-2025-08-28-02-27-47","","null","","images/schematic_sequence/hotel_scheme/hotel_scheme_3.png","null","",""
"","","","","","image-button-response","26","503596","0.0-10.0-1.0-1.0","85FF1ECF890543F286510B62FA7079D0","85FF1ECF890543F286510B62FA7079D0","0198ee49-34b7-76e9-9f4d-43a6b1ecfb61","0198ee3c-27ac-7803-a9ea-f3b4ad4ad678","{""num_scrambled_semantic"":""8"",""num_scrambled_causal"":""4"",""num_scrambled_schematic"":""4"",""participantId"":""85FF1ECF890543F286510B62FA7079D0"",""assignmentId"":""0198ee49-34b7-76e9-9f4d-43a6b1ecfb61"",""projectId"":""0198ee3c-27ac-7803-a9ea-f3b4ad4ad678""}","https://test12345.live/?num_scrambled_semantic=8&num_scrambled_causal=4&num_scrambled_schematic=4&participantId=85FF1ECF890543F286510B62FA7079D0&assignmentId=0198ee49-34b7-76e9-9f4d-43a6b1ecfb61&projectId=0198ee3c-27ac-7803-a9ea-f3b4ad4ad678","85FF1ECF890543F286510B62FA7079D0-2025-08-28-02-27-47","","null","","images/schematic_sequence/hotel_scheme/hotel_scheme_3.png","null","",""
"","","","","","image-button-response","27","505405","0.0-10.0-1.0-2.0","85FF1ECF890543F286510B62FA7079D0","85FF1ECF890543F286510B62FA7079D0","0198ee49-34b7-76e9-9f4d-43a6b1ecfb61","0198ee3c-27ac-7803-a9ea-f3b4ad4ad678","{""num_scrambled_semantic"":""8"",""num_scrambled_causal"":""4"",""num_scrambled_schematic"":""4"",""participantId"":""85FF1ECF890543F286510B62FA7079D0"",""assignmentId"":""0198ee49-34b7-76e9-9f4d-43a6b1ecfb61"",""projectId"":""0198ee3c-27ac-7803-a9ea-f3b4ad4ad678""}","https://test12345.live/?num_scrambled_semantic=8&num_scrambled_causal=4&num_scrambled_schematic=4&participantId=85FF1ECF890543F286510B62FA7079D0&assignmentId=0198ee49-34b7-76e9-9f4d-43a6b1ecfb61&projectId=0198ee3c-27ac-7803-a9ea-f3b4ad4ad678","85FF1ECF890543F286510B62FA7079D0-2025-08-28-02-27-47","","null","","[]","null","",""
"","","","","","image-button-response","28","509911","0.0-10.0-1.0-0.1","85FF1ECF890543F286510B62FA7079D0","85FF1ECF890543F286510B62FA7079D0","0198ee49-34b7-76e9-9f4d-43a6b1ecfb61","0198ee3c-27ac-7803-a9ea-f3b4ad4ad678","{""num_scrambled_semantic"":""8"",""num_scrambled_causal"":""4"",""num_scrambled_schematic"":""4"",""participantId"":""85FF1ECF890543F286510B62FA7079D0"",""assignmentId"":""0198ee49-34b7-76e9-9f4d-43a6b1ecfb61"",""projectId"":""0198ee3c-27ac-7803-a9ea-f3b4ad4ad678""}","https://test12345.live/?num_scrambled_semantic=8&num_scrambled_causal=4&num_scrambled_schematic=4&participantId=85FF1ECF890543F286510B62FA7079D0&assignmentId=0198ee49-34b7-76e9-9f4d-43a6b1ecfb61&projectId=0198ee3c-27ac-7803-a9ea-f3b4ad4ad678","85FF1ECF890543F286510B62FA7079D0-2025-08-28-02-27-47","","null","","images/schematic_sequence/hotel_scheme/hotel_scheme_ten.png","null","",""
"","","","","","image-button-response","29","510812","0.0-10.0-1.0-1.1","85FF1ECF890543F286510B62FA7079D0","85FF1ECF890543F286510B62FA7079D0","0198ee49-34b7-76e9-9f4d-43a6b1ecfb61","0198ee3c-27ac-7803-a9ea-f3b4ad4ad678","{""num_scrambled_semantic"":""8"",""num_scrambled_causal"":""4"",""num_scrambled_schematic"":""4"",""participantId"":""85FF1ECF890543F286510B62FA7079D0"",""assignmentId"":""0198ee49-34b7-76e9-9f4d-43a6b1ecfb61"",""projectId"":""0198ee3c-27ac-7803-a9ea-f3b4ad4ad678""}","https://test12345.live/?num_scrambled_semantic=8&num_scrambled_causal=4&num_scrambled_schematic=4&participantId=85FF1ECF890543F286510B62FA7079D0&assignmentId=0198ee49-34b7-76e9-9f4d-43a6b1ecfb61&projectId=0198ee3c-27ac-7803-a9ea-f3b4ad4ad678","85FF1ECF890543F286510B62FA7079D0-2025-08-28-02-27-47","","900","","images/schematic_sequence/hotel_scheme/hotel_scheme_ten.png","0","",""
"","","","","","image-button-response","30","512613","0.0-10.0-1.0-2.1","85FF1ECF890543F286510B62FA7079D0","85FF1ECF890543F286510B62FA7079D0","0198ee49-34b7-76e9-9f4d-43a6b1ecfb61","0198ee3c-27ac-7803-a9ea-f3b4ad4ad678","{""num_scrambled_semantic"":""8"",""num_scrambled_causal"":""4"",""num_scrambled_schematic"":""4"",""participantId"":""85FF1ECF890543F286510B62FA7079D0"",""assignmentId"":""0198ee49-34b7-76e9-9f4d-43a6b1ecfb61"",""projectId"":""0198ee3c-27ac-7803-a9ea-f3b4ad4ad678""}","https://test12345.live/?num_scrambled_semantic=8&num_scrambled_causal=4&num_scrambled_schematic=4&participantId=85FF1ECF890543F286510B62FA7079D0&assignmentId=0198ee49-34b7-76e9-9f4d-43a6b1ecfb61&projectId=0198ee3c-27ac-7803-a9ea-f3b4ad4ad678","85FF1ECF890543F286510B62FA7079D0-2025-08-28-02-27-47","","null","","[]","null","",""
"","","","","","image-button-response","31","517123","0.0-10.0-1.0-0.2","85FF1ECF890543F286510B62FA7079D0","85FF1ECF890543F286510B62FA7079D0","0198ee49-34b7-76e9-9f4d-43a6b1ecfb61","0198ee3c-27ac-7803-a9ea-f3b4ad4ad678","{""num_scrambled_semantic"":""8"",""num_scrambled_causal"":""4"",""num_scrambled_schematic"":""4"",""participantId"":""85FF1ECF890543F286510B62FA7079D0"",""assignmentId"":""0198ee49-34b7-76e9-9f4d-43a6b1ecfb61"",""projectId"":""0198ee3c-27ac-7803-a9ea-f3b4ad4ad678""}","https://test12345.live/?num_scrambled_semantic=8&num_scrambled_causal=4&num_scrambled_schematic=4&participantId=85FF1ECF890543F286510B62FA7079D0&assignmentId=0198ee49-34b7-76e9-9f4d-43a6b1ecfb61&projectId=0198ee3c-27ac-7803-a9ea-f3b4ad4ad678","85FF1ECF890543F286510B62FA7079D0-2025-08-28-02-27-47","","null","","images/schematic_sequence/hotel_scheme/hotel_scheme_2.png","null","",""
"","","","","","image-button-response","32","518212","0.0-10.0-1.0-1.2","85FF1ECF890543F286510B62FA7079D0","85FF1ECF890543F286510B62FA7079D0","0198ee49-34b7-76e9-9f4d-43a6b1ecfb61","0198ee3c-27ac-7803-a9ea-f3b4ad4ad678","{""num_scrambled_semantic"":""8"",""num_scrambled_causal"":""4"",""num_scrambled_schematic"":""4"",""participantId"":""85FF1ECF890543F286510B62FA7079D0"",""assignmentId"":""0198ee49-34b7-76e9-9f4d-43a6b1ecfb61"",""projectId"":""0198ee3c-27ac-7803-a9ea-f3b4ad4ad678""}","https://test12345.live/?num_scrambled_semantic=8&num_scrambled_causal=4&num_scrambled_schematic=4&participantId=85FF1ECF890543F286510B62FA7079D0&assignmentId=0198ee49-34b7-76e9-9f4d-43a6b1ecfb61&projectId=0198ee3c-27ac-7803-a9ea-f3b4ad4ad678","85FF1ECF890543F286510B62FA7079D0-2025-08-28-02-27-47","","1088","","images/schematic_sequence/hotel_scheme/hotel_scheme_2.png","0","",""
"","","","","","image-button-response","33","520023","0.0-10.0-1.0-2.2","85FF1ECF890543F286510B62FA7079D0","85FF1ECF890543F286510B62FA7079D0","0198ee49-34b7-76e9-9f4d-43a6b1ecfb61","0198ee3c-27ac-7803-a9ea-f3b4ad4ad678","{""num_scrambled_semantic"":""8"",""num_scrambled_causal"":""4"",""num_scrambled_schematic"":""4"",""participantId"":""85FF1ECF890543F286510B62FA7079D0"",""assignmentId"":""0198ee49-34b7-76e9-9f4d-43a6b1ecfb61"",""projectId"":""0198ee3c-27ac-7803-a9ea-f3b4ad4ad678""}","https://test12345.live/?num_scrambled_semantic=8&num_scrambled_causal=4&num_scrambled_schematic=4&participantId=85FF1ECF890543F286510B62FA7079D0&assignmentId=0198ee49-34b7-76e9-9f4d-43a6b1ecfb61&projectId=0198ee3c-27ac-7803-a9ea-f3b4ad4ad678","85FF1ECF890543F286510B62FA7079D0-2025-08-28-02-27-47","","null","","[]","null","",""
"","","","","","image-button-response","34","524524","0.0-10.0-1.0-0.3","85FF1ECF890543F286510B62FA7079D0","85FF1ECF890543F286510B62FA7079D0","0198ee49-34b7-76e9-9f4d-43a6b1ecfb61","0198ee3c-27ac-7803-a9ea-f3b4ad4ad678","{""num_scrambled_semantic"":""8"",""num_scrambled_causal"":""4"",""num_scrambled_schematic"":""4"",""participantId"":""85FF1ECF890543F286510B62FA7079D0"",""assignmentId"":""0198ee49-34b7-76e9-9f4d-43a6b1ecfb61"",""projectId"":""0198ee3c-27ac-7803-a9ea-f3b4ad4ad678""}","https://test12345.live/?num_scrambled_semantic=8&num_scrambled_causal=4&num_scrambled_schematic=4&participantId=85FF1ECF890543F286510B62FA7079D0&assignmentId=0198ee49-34b7-76e9-9f4d-43a6b1ecfb61&projectId=0198ee3c-27ac-7803-a9ea-f3b4ad4ad678","85FF1ECF890543F286510B62FA7079D0-2025-08-28-02-27-47","","null","","images/schematic_sequence/hotel_scheme/hotel_scheme_5.png","null","",""
"","","","","","image-button-response","35","525548","0.0-10.0-1.0-1.3","85FF1ECF890543F286510B62FA7079D0","85FF1ECF890543F286510B62FA7079D0","0198ee49-34b7-76e9-9f4d-43a6b1ecfb61","0198ee3c-27ac-7803-a9ea-f3b4ad4ad678","{""num_scrambled_semantic"":""8"",""num_scrambled_causal"":""4"",""num_scrambled_schematic"":""4"",""participantId"":""85FF1ECF890543F286510B62FA7079D0"",""assignmentId"":""0198ee49-34b7-76e9-9f4d-43a6b1ecfb61"",""projectId"":""0198ee3c-27ac-7803-a9ea-f3b4ad4ad678""}","https://test12345.live/?num_scrambled_semantic=8&num_scrambled_causal=4&num_scrambled_schematic=4&participantId=85FF1ECF890543F286510B62FA7079D0&assignmentId=0198ee49-34b7-76e9-9f4d-43a6b1ecfb61&projectId=0198ee3c-27ac-7803-a9ea-f3b4ad4ad678","85FF1ECF890543F286510B62FA7079D0-2025-08-28-02-27-47","","1023","","images/schematic_sequence/hotel_scheme/hotel_scheme_5.png","0","",""
"","","","","","image-button-response","36","527351","0.0-10.0-1.0-2.3","85FF1ECF890543F286510B62FA7079D0","85FF1ECF890543F286510B62FA7079D0","0198ee49-34b7-76e9-9f4d-43a6b1ecfb61","0198ee3c-27ac-7803-a9ea-f3b4ad4ad678","{""num_scrambled_semantic"":""8"",""num_scrambled_causal"":""4"",""num_scrambled_schematic"":""4"",""participantId"":""85FF1ECF890543F286510B62FA7079D0"",""assignmentId"":""0198ee49-34b7-76e9-9f4d-43a6b1ecfb61"",""projectId"":""0198ee3c-27ac-7803-a9ea-f3b4ad4ad678""}","https://test12345.live/?num_scrambled_semantic=8&num_scrambled_causal=4&num_scrambled_schematic=4&participantId=85FF1ECF890543F286510B62FA7079D0&assignmentId=0198ee49-34b7-76e9-9f4d-43a6b1ecfb61&projectId=0198ee3c-27ac-7803-a9ea-f3b4ad4ad678","85FF1ECF890543F286510B62FA7079D0-2025-08-28-02-27-47","","null","","[]","null","",""
"","","","","","image-button-response","37","531864","0.0-10.0-1.0-0.4","85FF1ECF890543F286510B62FA7079D0","85FF1ECF890543F286510B62FA7079D0","0198ee49-34b7-76e9-9f4d-43a6b1ecfb61","0198ee3c-27ac-7803-a9ea-f3b4ad4ad678","{""num_scrambled_semantic"":""8"",""num_scrambled_causal"":""4"",""num_scrambled_schematic"":""4"",""participantId"":""85FF1ECF890543F286510B62FA7079D0"",""assignmentId"":""0198ee49-34b7-76e9-9f4d-43a6b1ecfb61"",""projectId"":""0198ee3c-27ac-7803-a9ea-f3b4ad4ad678""}","https://test12345.live/?num_scrambled_semantic=8&num_scrambled_causal=4&num_scrambled_schematic=4&participantId=85FF1ECF890543F286510B62FA7079D0&assignmentId=0198ee49-34b7-76e9-9f4d-43a6b1ecfb61&projectId=0198ee3c-27ac-7803-a9ea-f3b4ad4ad678","85FF1ECF890543F286510B62FA7079D0-2025-08-28-02-27-47","","null","","images/schematic_sequence/hotel_scheme/hotel_scheme_9.png","null","",""
"","","","","","image-button-response","38","533452","0.0-10.0-1.0-1.4","85FF1ECF890543F286510B62FA7079D0","85FF1ECF890543F286510B62FA7079D0","0198ee49-34b7-76e9-9f4d-43a6b1ecfb61","0198ee3c-27ac-7803-a9ea-f3b4ad4ad678","{""num_scrambled_semantic"":""8"",""num_scrambled_causal"":""4"",""num_scrambled_schematic"":""4"",""participantId"":""85FF1ECF890543F286510B62FA7079D0"",""assignmentId"":""0198ee49-34b7-76e9-9f4d-43a6b1ecfb61"",""projectId"":""0198ee3c-27ac-7803-a9ea-f3b4ad4ad678""}","https://test12345.live/?num_scrambled_semantic=8&num_scrambled_causal=4&num_scrambled_schematic=4&participantId=85FF1ECF890543F286510B62FA7079D0&assignmentId=0198ee49-34b7-76e9-9f4d-43a6b1ecfb61&projectId=0198ee3c-27ac-7803-a9ea-f3b4ad4ad678","85FF1ECF890543F286510B62FA7079D0-2025-08-28-02-27-47","","1587","","images/schematic_sequence/hotel_scheme/hotel_scheme_9.png","0","",""
"","","","","","image-button-response","39","535267","0.0-10.0-1.0-2.4","85FF1ECF890543F286510B62FA7079D0","85FF1ECF890543F286510B62FA7079D0","0198ee49-34b7-76e9-9f4d-43a6b1ecfb61","0198ee3c-27ac-7803-a9ea-f3b4ad4ad678","{""num_scrambled_semantic"":""8"",""num_scrambled_causal"":""4"",""num_scrambled_schematic"":""4"",""participantId"":""85FF1ECF890543F286510B62FA7079D0"",""assignmentId"":""0198ee49-34b7-76e9-9f4d-43a6b1ecfb61"",""projectId"":""0198ee3c-27ac-7803-a9ea-f3b4ad4ad678""}","https://test12345.live/?num_scrambled_semantic=8&num_scrambled_causal=4&num_scrambled_schematic=4&participantId=85FF1ECF890543F286510B62FA7079D0&assignmentId=0198ee49-34b7-76e9-9f4d-43a6b1ecfb61&projectId=0198ee3c-27ac-7803-a9ea-f3b4ad4ad678","85FF1ECF890543F286510B62FA7079D0-2025-08-28-02-27-47","","null","","[]","null","",""
"","","","","","image-button-response","40","539776","0.0-10.0-1.0-0.5","85FF1ECF890543F286510B62FA7079D0","85FF1ECF890543F286510B62FA7079D0","0198ee49-34b7-76e9-9f4d-43a6b1ecfb61","0198ee3c-27ac-7803-a9ea-f3b4ad4ad678","{""num_scrambled_semantic"":""8"",""num_scrambled_causal"":""4"",""num_scrambled_schematic"":""4"",""participantId"":""85FF1ECF890543F286510B62FA7079D0"",""assignmentId"":""0198ee49-34b7-76e9-9f4d-43a6b1ecfb61"",""projectId"":""0198ee3c-27ac-7803-a9ea-f3b4ad4ad678""}","https://test12345.live/?num_scrambled_semantic=8&num_scrambled_causal=4&num_scrambled_schematic=4&participantId=85FF1ECF890543F286510B62FA7079D0&assignmentId=0198ee49-34b7-76e9-9f4d-43a6b1ecfb61&projectId=0198ee3c-27ac-7803-a9ea-f3b4ad4ad678","85FF1ECF890543F286510B62FA7079D0-2025-08-28-02-27-47","","null","","images/schematic_sequence/hotel_scheme/hotel_scheme_7.png","null","",""
"","","","","","image-button-response","41","540860","0.0-10.0-1.0-1.5","85FF1ECF890543F286510B62FA7079D0","85FF1ECF890543F286510B62FA7079D0","0198ee49-34b7-76e9-9f4d-43a6b1ecfb61","0198ee3c-27ac-7803-a9ea-f3b4ad4ad678","{""num_scrambled_semantic"":""8"",""num_scrambled_causal"":""4"",""num_scrambled_schematic"":""4"",""participantId"":""85FF1ECF890543F286510B62FA7079D0"",""assignmentId"":""0198ee49-34b7-76e9-9f4d-43a6b1ecfb61"",""projectId"":""0198ee3c-27ac-7803-a9ea-f3b4ad4ad678""}","https://test12345.live/?num_scrambled_semantic=8&num_scrambled_causal=4&num_scrambled_schematic=4&participantId=85FF1ECF890543F286510B62FA7079D0&assignmentId=0198ee49-34b7-76e9-9f4d-43a6b1ecfb61&projectId=0198ee3c-27ac-7803-a9ea-f3b4ad4ad678","85FF1ECF890543F286510B62FA7079D0-2025-08-28-02-27-47","","1084","","images/schematic_sequence/hotel_scheme/hotel_scheme_7.png","0","",""
"","","","","","image-button-response","42","542677","0.0-10.0-1.0-2.5","85FF1ECF890543F286510B62FA7079D0","85FF1ECF890543F286510B62FA7079D0","0198ee49-34b7-76e9-9f4d-43a6b1ecfb61","0198ee3c-27ac-7803-a9ea-f3b4ad4ad678","{""num_scrambled_semantic"":""8"",""num_scrambled_causal"":""4"",""num_scrambled_schematic"":""4"",""participantId"":""85FF1ECF890543F286510B62FA7079D0"",""assignmentId"":""0198ee49-34b7-76e9-9f4d-43a6b1ecfb61"",""projectId"":""0198ee3c-27ac-7803-a9ea-f3b4ad4ad678""}","https://test12345.live/?num_scrambled_semantic=8&num_scrambled_causal=4&num_scrambled_schematic=4&participantId=85FF1ECF890543F286510B62FA7079D0&assignmentId=0198ee49-34b7-76e9-9f4d-43a6b1ecfb61&projectId=0198ee3c-27ac-7803-a9ea-f3b4ad4ad678","85FF1ECF890543F286510B62FA7079D0-2025-08-28-02-27-47","","null","","[]","null","",""
"","","","","","image-button-response","43","547192","0.0-10.0-1.0-0.6","85FF1ECF890543F286510B62FA7079D0","85FF1ECF890543F286510B62FA7079D0","0198ee49-34b7-76e9-9f4d-43a6b1ecfb61","0198ee3c-27ac-7803-a9ea-f3b4ad4ad678","{""num_scrambled_semantic"":""8"",""num_scrambled_causal"":""4"",""num_scrambled_schematic"":""4"",""participantId"":""85FF1ECF890543F286510B62FA7079D0"",""assignmentId"":""0198ee49-34b7-76e9-9f4d-43a6b1ecfb61"",""projectId"":""0198ee3c-27ac-7803-a9ea-f3b4ad4ad678""}","https://test12345.live/?num_scrambled_semantic=8&num_scrambled_causal=4&num_scrambled_schematic=4&participantId=85FF1ECF890543F286510B62FA7079D0&assignmentId=0198ee49-34b7-76e9-9f4d-43a6b1ecfb61&projectId=0198ee3c-27ac-7803-a9ea-f3b4ad4ad678","85FF1ECF890543F286510B62FA7079D0-2025-08-28-02-27-47","","null","","images/schematic_sequence/hotel_scheme/hotel_scheme_1.png","null","",""
"","","","","","image-button-response","44","547988","0.0-10.0-1.0-1.6","85FF1ECF890543F286510B62FA7079D0","85FF1ECF890543F286510B62FA7079D0","0198ee49-34b7-76e9-9f4d-43a6b1ecfb61","0198ee3c-27ac-7803-a9ea-f3b4ad4ad678","{""num_scrambled_semantic"":""8"",""num_scrambled_causal"":""4"",""num_scrambled_schematic"":""4"",""participantId"":""85FF1ECF890543F286510B62FA7079D0"",""assignmentId"":""0198ee49-34b7-76e9-9f4d-43a6b1ecfb61"",""projectId"":""0198ee3c-27ac-7803-a9ea-f3b4ad4ad678""}","https://test12345.live/?num_scrambled_semantic=8&num_scrambled_causal=4&num_scrambled_schematic=4&participantId=85FF1ECF890543F286510B62FA7079D0&assignmentId=0198ee49-34b7-76e9-9f4d-43a6b1ecfb61&projectId=0198ee3c-27ac-7803-a9ea-f3b4ad4ad678","85FF1ECF890543F286510B62FA7079D0-2025-08-28-02-27-47","","796","","images/schematic_sequence/hotel_scheme/hotel_scheme_1.png","0","",""
"","","","","","image-button-response","45","549791","0.0-10.0-1.0-2.6","85FF1ECF890543F286510B62FA7079D0","85FF1ECF890543F286510B62FA7079D0","0198ee49-34b7-76e9-9f4d-43a6b1ecfb61","0198ee3c-27ac-7803-a9ea-f3b4ad4ad678","{""num_scrambled_semantic"":""8"",""num_scrambled_causal"":""4"",""num_scrambled_schematic"":""4"",""participantId"":""85FF1ECF890543F286510B62FA7079D0"",""assignmentId"":""0198ee49-34b7-76e9-9f4d-43a6b1ecfb61"",""projectId"":""0198ee3c-27ac-7803-a9ea-f3b4ad4ad678""}","https://test12345.live/?num_scrambled_semantic=8&num_scrambled_causal=4&num_scrambled_schematic=4&participantId=85FF1ECF890543F286510B62FA7079D0&assignmentId=0198ee49-34b7-76e9-9f4d-43a6b1ecfb61&projectId=0198ee3c-27ac-7803-a9ea-f3b4ad4ad678","85FF1ECF890543F286510B62FA7079D0-2025-08-28-02-27-47","","null","","[]","null","",""
"","","","","","image-button-response","46","554295","0.0-10.0-1.0-0.7","85FF1ECF890543F286510B62FA7079D0","85FF1ECF890543F286510B62FA7079D0","0198ee49-34b7-76e9-9f4d-43a6b1ecfb61","0198ee3c-27ac-7803-a9ea-f3b4ad4ad678","{""num_scrambled_semantic"":""8"",""num_scrambled_causal"":""4"",""num_scrambled_schematic"":""4"",""participantId"":""85FF1ECF890543F286510B62FA7079D0"",""assignmentId"":""0198ee49-34b7-76e9-9f4d-43a6b1ecfb61"",""projectId"":""0198ee3c-27ac-7803-a9ea-f3b4ad4ad678""}","https://test12345.live/?num_scrambled_semantic=8&num_scrambled_causal=4&num_scrambled_schematic=4&participantId=85FF1ECF890543F286510B62FA7079D0&assignmentId=0198ee49-34b7-76e9-9f4d-43a6b1ecfb61&projectId=0198ee3c-27ac-7803-a9ea-f3b4ad4ad678","85FF1ECF890543F286510B62FA7079D0-2025-08-28-02-27-47","","null","","images/schematic_sequence/hotel_scheme/hotel_scheme_8.png","null","",""
"","","","","","image-button-response","47","555013","0.0-10.0-1.0-1.7","85FF1ECF890543F286510B62FA7079D0","85FF1ECF890543F286510B62FA7079D0","0198ee49-34b7-76e9-9f4d-43a6b1ecfb61","0198ee3c-27ac-7803-a9ea-f3b4ad4ad678","{""num_scrambled_semantic"":""8"",""num_scrambled_causal"":""4"",""num_scrambled_schematic"":""4"",""participantId"":""85FF1ECF890543F286510B62FA7079D0"",""assignmentId"":""0198ee49-34b7-76e9-9f4d-43a6b1ecfb61"",""projectId"":""0198ee3c-27ac-7803-a9ea-f3b4ad4ad678""}","https://test12345.live/?num_scrambled_semantic=8&num_scrambled_causal=4&num_scrambled_schematic=4&participantId=85FF1ECF890543F286510B62FA7079D0&assignmentId=0198ee49-34b7-76e9-9f4d-43a6b1ecfb61&projectId=0198ee3c-27ac-7803-a9ea-f3b4ad4ad678","85FF1ECF890543F286510B62FA7079D0-2025-08-28-02-27-47","","718","","images/schematic_sequence/hotel_scheme/hotel_scheme_8.png","0","",""
"","","","","","image-button-response","48","556818","0.0-10.0-1.0-2.7","85FF1ECF890543F286510B62FA7079D0","85FF1ECF890543F286510B62FA7079D0","0198ee49-34b7-76e9-9f4d-43a6b1ecfb61","0198ee3c-27ac-7803-a9ea-f3b4ad4ad678","{""num_scrambled_semantic"":""8"",""num_scrambled_causal"":""4"",""num_scrambled_schematic"":""4"",""participantId"":""85FF1ECF890543F286510B62FA7079D0"",""assignmentId"":""0198ee49-34b7-76e9-9f4d-43a6b1ecfb61"",""projectId"":""0198ee3c-27ac-7803-a9ea-f3b4ad4ad678""}","https://test12345.live/?num_scrambled_semantic=8&num_scrambled_causal=4&num_scrambled_schematic=4&participantId=85FF1ECF890543F286510B62FA7079D0&assignmentId=0198ee49-34b7-76e9-9f4d-43a6b1ecfb61&projectId=0198ee3c-27ac-7803-a9ea-f3b4ad4ad678","85FF1ECF890543F286510B62FA7079D0-2025-08-28-02-27-47","","null","","[]","null","",""
"","","","","","image-button-response","49","561324","0.0-10.0-1.0-0.8","85FF1ECF890543F286510B62FA7079D0","85FF1ECF890543F286510B62FA7079D0","0198ee49-34b7-76e9-9f4d-43a6b1ecfb61","0198ee3c-27ac-7803-a9ea-f3b4ad4ad678","{""num_scrambled_semantic"":""8"",""num_scrambled_causal"":""4"",""num_scrambled_schematic"":""4"",""participantId"":""85FF1ECF890543F286510B62FA7079D0"",""assignmentId"":""0198ee49-34b7-76e9-9f4d-43a6b1ecfb61"",""projectId"":""0198ee3c-27ac-7803-a9ea-f3b4ad4ad678""}","https://test12345.live/?num_scrambled_semantic=8&num_scrambled_causal=4&num_scrambled_schematic=4&participantId=85FF1ECF890543F286510B62FA7079D0&assignmentId=0198ee49-34b7-76e9-9f4d-43a6b1ecfb61&projectId=0198ee3c-27ac-7803-a9ea-f3b4ad4ad678","85FF1ECF890543F286510B62FA7079D0-2025-08-28-02-27-47","","null","","images/schematic_sequence/hotel_scheme/hotel_scheme_4.png","null","",""
"","","","","","image-button-response","50","562044","0.0-10.0-1.0-1.8","85FF1ECF890543F286510B62FA7079D0","85FF1ECF890543F286510B62FA7079D0","0198ee49-34b7-76e9-9f4d-43a6b1ecfb61","0198ee3c-27ac-7803-a9ea-f3b4ad4ad678","{""num_scrambled_semantic"":""8"",""num_scrambled_causal"":""4"",""num_scrambled_schematic"":""4"",""participantId"":""85FF1ECF890543F286510B62FA7079D0"",""assignmentId"":""0198ee49-34b7-76e9-9f4d-43a6b1ecfb61"",""projectId"":""0198ee3c-27ac-7803-a9ea-f3b4ad4ad678""}","https://test12345.live/?num_scrambled_semantic=8&num_scrambled_causal=4&num_scrambled_schematic=4&participantId=85FF1ECF890543F286510B62FA7079D0&assignmentId=0198ee49-34b7-76e9-9f4d-43a6b1ecfb61&projectId=0198ee3c-27ac-7803-a9ea-f3b4ad4ad678","85FF1ECF890543F286510B62FA7079D0-2025-08-28-02-27-47","","720","","images/schematic_sequence/hotel_scheme/hotel_scheme_4.png","0","",""
"","","","","","image-button-response","51","563849","0.0-10.0-1.0-2.8","85FF1ECF890543F286510B62FA7079D0","85FF1ECF890543F286510B62FA7079D0","0198ee49-34b7-76e9-9f4d-43a6b1ecfb61","0198ee3c-27ac-7803-a9ea-f3b4ad4ad678","{""num_scrambled_semantic"":""8"",""num_scrambled_causal"":""4"",""num_scrambled_schematic"":""4"",""participantId"":""85FF1ECF890543F286510B62FA7079D0"",""assignmentId"":""0198ee49-34b7-76e9-9f4d-43a6b1ecfb61"",""projectId"":""0198ee3c-27ac-7803-a9ea-f3b4ad4ad678""}","https://test12345.live/?num_scrambled_semantic=8&num_scrambled_causal=4&num_scrambled_schematic=4&participantId=85FF1ECF890543F286510B62FA7079D0&assignmentId=0198ee49-34b7-76e9-9f4d-43a6b1ecfb61&projectId=0198ee3c-27ac-7803-a9ea-f3b4ad4ad678","85FF1ECF890543F286510B62FA7079D0-2025-08-28-02-27-47","","null","","[]","null","",""
"","","","","","image-button-response","52","568364","0.0-10.0-1.0-0.9","85FF1ECF890543F286510B62FA7079D0","85FF1ECF890543F286510B62FA7079D0","0198ee49-34b7-76e9-9f4d-43a6b1ecfb61","0198ee3c-27ac-7803-a9ea-f3b4ad4ad678","{""num_scrambled_semantic"":""8"",""num_scrambled_causal"":""4"",""num_scrambled_schematic"":""4"",""participantId"":""85FF1ECF890543F286510B62FA7079D0"",""assignmentId"":""0198ee49-34b7-76e9-9f4d-43a6b1ecfb61"",""projectId"":""0198ee3c-27ac-7803-a9ea-f3b4ad4ad678""}","https://test12345.live/?num_scrambled_semantic=8&num_scrambled_causal=4&num_scrambled_schematic=4&participantId=85FF1ECF890543F286510B62FA7079D0&assignmentId=0198ee49-34b7-76e9-9f4d-43a6b1ecfb61&projectId=0198ee3c-27ac-7803-a9ea-f3b4ad4ad678","85FF1ECF890543F286510B62FA7079D0-2025-08-28-02-27-47","","null","","images/schematic_sequence/hotel_scheme/hotel_scheme_6.png","null","",""
"","","","","","image-button-response","53","569156","0.0-10.0-1.0-1.9","85FF1ECF890543F286510B62FA7079D0","85FF1ECF890543F286510B62FA7079D0","0198ee49-34b7-76e9-9f4d-43a6b1ecfb61","0198ee3c-27ac-7803-a9ea-f3b4ad4ad678","{""num_scrambled_semantic"":""8"",""num_scrambled_causal"":""4"",""num_scrambled_schematic"":""4"",""participantId"":""85FF1ECF890543F286510B62FA7079D0"",""assignmentId"":""0198ee49-34b7-76e9-9f4d-43a6b1ecfb61"",""projectId"":""0198ee3c-27ac-7803-a9ea-f3b4ad4ad678""}","https://test12345.live/?num_scrambled_semantic=8&num_scrambled_causal=4&num_scrambled_schematic=4&participantId=85FF1ECF890543F286510B62FA7079D0&assignmentId=0198ee49-34b7-76e9-9f4d-43a6b1ecfb61&projectId=0198ee3c-27ac-7803-a9ea-f3b4ad4ad678","85FF1ECF890543F286510B62FA7079D0-2025-08-28-02-27-47","","791","","images/schematic_sequence/hotel_scheme/hotel_scheme_6.png","0","",""
"","","","","","image-button-response","54","570973","0.0-10.0-1.0-2.9","85FF1ECF890543F286510B62FA7079D0","85FF1ECF890543F286510B62FA7079D0","0198ee49-34b7-76e9-9f4d-43a6b1ecfb61","0198ee3c-27ac-7803-a9ea-f3b4ad4ad678","{""num_scrambled_semantic"":""8"",""num_scrambled_causal"":""4"",""num_scrambled_schematic"":""4"",""participantId"":""85FF1ECF890543F286510B62FA7079D0"",""assignmentId"":""0198ee49-34b7-76e9-9f4d-43a6b1ecfb61"",""projectId"":""0198ee3c-27ac-7803-a9ea-f3b4ad4ad678""}","https://test12345.live/?num_scrambled_semantic=8&num_scrambled_causal=4&num_scrambled_schematic=4&participantId=85FF1ECF890543F286510B62FA7079D0&assignmentId=0198ee49-34b7-76e9-9f4d-43a6b1ecfb61&projectId=0198ee3c-27ac-7803-a9ea-f3b4ad4ad678","85FF1ECF890543F286510B62FA7079D0-2025-08-28-02-27-47","","null","","[]","null","",""
"","","","","","html-audio-response","55","618108","0.0-11.0","85FF1ECF890543F286510B62FA7079D0","85FF1ECF890543F286510B62FA7079D0","0198ee49-34b7-76e9-9f4d-43a6b1ecfb61","0198ee3c-27ac-7803-a9ea-f3b4ad4ad678","{""num_scrambled_semantic"":""8"",""num_scrambled_causal"":""4"",""num_scrambled_schematic"":""4"",""participantId"":""85FF1ECF890543F286510B62FA7079D0"",""assignmentId"":""0198ee49-34b7-76e9-9f4d-43a6b1ecfb61"",""projectId"":""0198ee3c-27ac-7803-a9ea-f3b4ad4ad678""}","https://test12345.live/?num_scrambled_semantic=8&num_scrambled_causal=4&num_scrambled_schematic=4&participantId=85FF1ECF890543F286510B62FA7079D0&assignmentId=0198ee49-34b7-76e9-9f4d-43a6b1ecfb61&projectId=0198ee3c-27ac-7803-a9ea-f3b4ad4ad678","85FF1ECF890543F286510B62FA7079D0-2025-08-28-02-27-47","","36847","","[""<span style=\""color: red; font-size: 24px\""> NOW RECORDING</span><p>Please say out loud all the images you saw, in the order of the story they create. Try to recall the sequence of events as they appeared in the story, not necessarily the order they were presented on the screen.</p>""]","","3","hotel_scheme"
"","","","","","image-button-response","56","624128","0.0-12.0-0.0","85FF1ECF890543F286510B62FA7079D0","85FF1ECF890543F286510B62FA7079D0","0198ee49-34b7-76e9-9f4d-43a6b1ecfb61","0198ee3c-27ac-7803-a9ea-f3b4ad4ad678","{""num_scrambled_semantic"":""8"",""num_scrambled_causal"":""4"",""num_scrambled_schematic"":""4"",""participantId"":""85FF1ECF890543F286510B62FA7079D0"",""assignmentId"":""0198ee49-34b7-76e9-9f4d-43a6b1ecfb61"",""projectId"":""0198ee3c-27ac-7803-a9ea-f3b4ad4ad678""}","https://test12345.live/?num_scrambled_semantic=8&num_scrambled_causal=4&num_scrambled_schematic=4&participantId=85FF1ECF890543F286510B62FA7079D0&assignmentId=0198ee49-34b7-76e9-9f4d-43a6b1ecfb61&projectId=0198ee3c-27ac-7803-a9ea-f3b4ad4ad678","85FF1ECF890543F286510B62FA7079D0-2025-08-28-02-27-47","","null","","images/causal_sequence/dog_causal/dog_causal_0.png","null","",""
"","","","","","image-button-response","57","628634","0.0-12.0-1.0-0.0","85FF1ECF890543F286510B62FA7079D0","85FF1ECF890543F286510B62FA7079D0","0198ee49-34b7-76e9-9f4d-43a6b1ecfb61","0198ee3c-27ac-7803-a9ea-f3b4ad4ad678","{""num_scrambled_semantic"":""8"",""num_scrambled_causal"":""4"",""num_scrambled_schematic"":""4"",""participantId"":""85FF1ECF890543F286510B62FA7079D0"",""assignmentId"":""0198ee49-34b7-76e9-9f4d-43a6b1ecfb61"",""projectId"":""0198ee3c-27ac-7803-a9ea-f3b4ad4ad678""}","https://test12345.live/?num_scrambled_semantic=8&num_scrambled_causal=4&num_scrambled_schematic=4&participantId=85FF1ECF890543F286510B62FA7079D0&assignmentId=0198ee49-34b7-76e9-9f4d-43a6b1ecfb61&projectId=0198ee3c-27ac-7803-a9ea-f3b4ad4ad678","85FF1ECF890543F286510B62FA7079D0-2025-08-28-02-27-47","","null","","images/causal_sequence/dog_causal/dog_causal_4.png","null","",""
"","","","","","image-button-response","58","630036","0.0-12.0-1.0-1.0","85FF1ECF890543F286510B62FA7079D0","85FF1ECF890543F286510B62FA7079D0","0198ee49-34b7-76e9-9f4d-43a6b1ecfb61","0198ee3c-27ac-7803-a9ea-f3b4ad4ad678","{""num_scrambled_semantic"":""8"",""num_scrambled_causal"":""4"",""num_scrambled_schematic"":""4"",""participantId"":""85FF1ECF890543F286510B62FA7079D0"",""assignmentId"":""0198ee49-34b7-76e9-9f4d-43a6b1ecfb61"",""projectId"":""0198ee3c-27ac-7803-a9ea-f3b4ad4ad678""}","https://test12345.live/?num_scrambled_semantic=8&num_scrambled_causal=4&num_scrambled_schematic=4&participantId=85FF1ECF890543F286510B62FA7079D0&assignmentId=0198ee49-34b7-76e9-9f4d-43a6b1ecfb61&projectId=0198ee3c-27ac-7803-a9ea-f3b4ad4ad678","85FF1ECF890543F286510B62FA7079D0-2025-08-28-02-27-47","","1401","","images/causal_sequence/dog_causal/dog_causal_4.png","0","",""
"","","","","","image-button-response","59","631840","0.0-12.0-1.0-2.0","85FF1ECF890543F286510B62FA7079D0","85FF1ECF890543F286510B62FA7079D0","0198ee49-34b7-76e9-9f4d-43a6b1ecfb61","0198ee3c-27ac-7803-a9ea-f3b4ad4ad678","{""num_scrambled_semantic"":""8"",""num_scrambled_causal"":""4"",""num_scrambled_schematic"":""4"",""participantId"":""85FF1ECF890543F286510B62FA7079D0"",""assignmentId"":""0198ee49-34b7-76e9-9f4d-43a6b1ecfb61"",""projectId"":""0198ee3c-27ac-7803-a9ea-f3b4ad4ad678""}","https://test12345.live/?num_scrambled_semantic=8&num_scrambled_causal=4&num_scrambled_schematic=4&participantId=85FF1ECF890543F286510B62FA7079D0&assignmentId=0198ee49-34b7-76e9-9f4d-43a6b1ecfb61&projectId=0198ee3c-27ac-7803-a9ea-f3b4ad4ad678","85FF1ECF890543F286510B62FA7079D0-2025-08-28-02-27-47","","null","","[]","null","",""
"","","","","","image-button-response","60","636350","0.0-12.0-1.0-0.1","85FF1ECF890543F286510B62FA7079D0","85FF1ECF890543F286510B62FA7079D0","0198ee49-34b7-76e9-9f4d-43a6b1ecfb61","0198ee3c-27ac-7803-a9ea-f3b4ad4ad678","{""num_scrambled_semantic"":""8"",""num_scrambled_causal"":""4"",""num_scrambled_schematic"":""4"",""participantId"":""85FF1ECF890543F286510B62FA7079D0"",""assignmentId"":""0198ee49-34b7-76e9-9f4d-43a6b1ecfb61"",""projectId"":""0198ee3c-27ac-7803-a9ea-f3b4ad4ad678""}","https://test12345.live/?num_scrambled_semantic=8&num_scrambled_causal=4&num_scrambled_schematic=4&participantId=85FF1ECF890543F286510B62FA7079D0&assignmentId=0198ee49-34b7-76e9-9f4d-43a6b1ecfb61&projectId=0198ee3c-27ac-7803-a9ea-f3b4ad4ad678","85FF1ECF890543F286510B62FA7079D0-2025-08-28-02-27-47","","null","","images/causal_sequence/dog_causal/dog_causal_8.png","null","",""
"","","","","","image-button-response","61","637236","0.0-12.0-1.0-1.1","85FF1ECF890543F286510B62FA7079D0","85FF1ECF890543F286510B62FA7079D0","0198ee49-34b7-76e9-9f4d-43a6b1ecfb61","0198ee3c-27ac-7803-a9ea-f3b4ad4ad678","{""num_scrambled_semantic"":""8"",""num_scrambled_causal"":""4"",""num_scrambled_schematic"":""4"",""participantId"":""85FF1ECF890543F286510B62FA7079D0"",""assignmentId"":""0198ee49-34b7-76e9-9f4d-43a6b1ecfb61"",""projectId"":""0198ee3c-27ac-7803-a9ea-f3b4ad4ad678""}","https://test12345.live/?num_scrambled_semantic=8&num_scrambled_causal=4&num_scrambled_schematic=4&participantId=85FF1ECF890543F286510B62FA7079D0&assignmentId=0198ee49-34b7-76e9-9f4d-43a6b1ecfb61&projectId=0198ee3c-27ac-7803-a9ea-f3b4ad4ad678","85FF1ECF890543F286510B62FA7079D0-2025-08-28-02-27-47","","885","","images/causal_sequence/dog_causal/dog_causal_8.png","0","",""
"","","","","","image-button-response","62","639051","0.0-12.0-1.0-2.1","85FF1ECF890543F286510B62FA7079D0","85FF1ECF890543F286510B62FA7079D0","0198ee49-34b7-76e9-9f4d-43a6b1ecfb61","0198ee3c-27ac-7803-a9ea-f3b4ad4ad678","{""num_scrambled_semantic"":""8"",""num_scrambled_causal"":""4"",""num_scrambled_schematic"":""4"",""participantId"":""85FF1ECF890543F286510B62FA7079D0"",""assignmentId"":""0198ee49-34b7-76e9-9f4d-43a6b1ecfb61"",""projectId"":""0198ee3c-27ac-7803-a9ea-f3b4ad4ad678""}","https://test12345.live/?num_scrambled_semantic=8&num_scrambled_causal=4&num_scrambled_schematic=4&participantId=85FF1ECF890543F286510B62FA7079D0&assignmentId=0198ee49-34b7-76e9-9f4d-43a6b1ecfb61&projectId=0198ee3c-27ac-7803-a9ea-f3b4ad4ad678","85FF1ECF890543F286510B62FA7079D0-2025-08-28-02-27-47","","null","","[]","null","",""
"","","","","","image-button-response","63","643553","0.0-12.0-1.0-0.2","85FF1ECF890543F286510B62FA7079D0","85FF1ECF890543F286510B62FA7079D0","0198ee49-34b7-76e9-9f4d-43a6b1ecfb61","0198ee3c-27ac-7803-a9ea-f3b4ad4ad678","{""num_scrambled_semantic"":""8"",""num_scrambled_causal"":""4"",""num_scrambled_schematic"":""4"",""participantId"":""85FF1ECF890543F286510B62FA7079D0"",""assignmentId"":""0198ee49-34b7-76e9-9f4d-43a6b1ecfb61"",""projectId"":""0198ee3c-27ac-7803-a9ea-f3b4ad4ad678""}","https://test12345.live/?num_scrambled_semantic=8&num_scrambled_causal=4&num_scrambled_schematic=4&participantId=85FF1ECF890543F286510B62FA7079D0&assignmentId=0198ee49-34b7-76e9-9f4d-43a6b1ecfb61&projectId=0198ee3c-27ac-7803-a9ea-f3b4ad4ad678","85FF1ECF890543F286510B62FA7079D0-2025-08-28-02-27-47","","null","","images/causal_sequence/dog_causal/dog_causal_6.png","null","",""
"","","","","","image-button-response","64","644476","0.0-12.0-1.0-1.2","85FF1ECF890543F286510B62FA7079D0","85FF1ECF890543F286510B62FA7079D0","0198ee49-34b7-76e9-9f4d-43a6b1ecfb61","0198ee3c-27ac-7803-a9ea-f3b4ad4ad678","{""num_scrambled_semantic"":""8"",""num_scrambled_causal"":""4"",""num_scrambled_schematic"":""4"",""participantId"":""85FF1ECF890543F286510B62FA7079D0"",""assignmentId"":""0198ee49-34b7-76e9-9f4d-43a6b1ecfb61"",""projectId"":""0198ee3c-27ac-7803-a9ea-f3b4ad4ad678""}","https://test12345.live/?num_scrambled_semantic=8&num_scrambled_causal=4&num_scrambled_schematic=4&participantId=85FF1ECF890543F286510B62FA7079D0&assignmentId=0198ee49-34b7-76e9-9f4d-43a6b1ecfb61&projectId=0198ee3c-27ac-7803-a9ea-f3b4ad4ad678","85FF1ECF890543F286510B62FA7079D0-2025-08-28-02-27-47","","923","","images/causal_sequence/dog_causal/dog_causal_6.png","0","",""
"","","","","","image-button-response","65","646293","0.0-12.0-1.0-2.2","85FF1ECF890543F286510B62FA7079D0","85FF1ECF890543F286510B62FA7079D0","0198ee49-34b7-76e9-9f4d-43a6b1ecfb61","0198ee3c-27ac-7803-a9ea-f3b4ad4ad678","{""num_scrambled_semantic"":""8"",""num_scrambled_causal"":""4"",""num_scrambled_schematic"":""4"",""participantId"":""85FF1ECF890543F286510B62FA7079D0"",""assignmentId"":""0198ee49-34b7-76e9-9f4d-43a6b1ecfb61"",""projectId"":""0198ee3c-27ac-7803-a9ea-f3b4ad4ad678""}","https://test12345.live/?num_scrambled_semantic=8&num_scrambled_causal=4&num_scrambled_schematic=4&participantId=85FF1ECF890543F286510B62FA7079D0&assignmentId=0198ee49-34b7-76e9-9f4d-43a6b1ecfb61&projectId=0198ee3c-27ac-7803-a9ea-f3b4ad4ad678","85FF1ECF890543F286510B62FA7079D0-2025-08-28-02-27-47","","null","","[]","null","",""
"","","","","","image-button-response","66","650804","0.0-12.0-1.0-0.3","85FF1ECF890543F286510B62FA7079D0","85FF1ECF890543F286510B62FA7079D0","0198ee49-34b7-76e9-9f4d-43a6b1ecfb61","0198ee3c-27ac-7803-a9ea-f3b4ad4ad678","{""num_scrambled_semantic"":""8"",""num_scrambled_causal"":""4"",""num_scrambled_schematic"":""4"",""participantId"":""85FF1ECF890543F286510B62FA7079D0"",""assignmentId"":""0198ee49-34b7-76e9-9f4d-43a6b1ecfb61"",""projectId"":""0198ee3c-27ac-7803-a9ea-f3b4ad4ad678""}","https://test12345.live/?num_scrambled_semantic=8&num_scrambled_causal=4&num_scrambled_schematic=4&participantId=85FF1ECF890543F286510B62FA7079D0&assignmentId=0198ee49-34b7-76e9-9f4d-43a6b1ecfb61&projectId=0198ee3c-27ac-7803-a9ea-f3b4ad4ad678","85FF1ECF890543F286510B62FA7079D0-2025-08-28-02-27-47","","null","","images/causal_sequence/dog_causal/dog_causal_9.png","null","",""
"","","","","","image-button-response","67","651540","0.0-12.0-1.0-1.3","85FF1ECF890543F286510B62FA7079D0","85FF1ECF890543F286510B62FA7079D0","0198ee49-34b7-76e9-9f4d-43a6b1ecfb61","0198ee3c-27ac-7803-a9ea-f3b4ad4ad678","{""num_scrambled_semantic"":""8"",""num_scrambled_causal"":""4"",""num_scrambled_schematic"":""4"",""participantId"":""85FF1ECF890543F286510B62FA7079D0"",""assignmentId"":""0198ee49-34b7-76e9-9f4d-43a6b1ecfb61"",""projectId"":""0198ee3c-27ac-7803-a9ea-f3b4ad4ad678""}","https://test12345.live/?num_scrambled_semantic=8&num_scrambled_causal=4&num_scrambled_schematic=4&participantId=85FF1ECF890543F286510B62FA7079D0&assignmentId=0198ee49-34b7-76e9-9f4d-43a6b1ecfb61&projectId=0198ee3c-27ac-7803-a9ea-f3b4ad4ad678","85FF1ECF890543F286510B62FA7079D0-2025-08-28-02-27-47","","735","","images/causal_sequence/dog_causal/dog_causal_9.png","0","",""
"","","","","","image-button-response","68","653345","0.0-12.0-1.0-2.3","85FF1ECF890543F286510B62FA7079D0","85FF1ECF890543F286510B62FA7079D0","0198ee49-34b7-76e9-9f4d-43a6b1ecfb61","0198ee3c-27ac-7803-a9ea-f3b4ad4ad678","{""num_scrambled_semantic"":""8"",""num_scrambled_causal"":""4"",""num_scrambled_schematic"":""4"",""participantId"":""85FF1ECF890543F286510B62FA7079D0"",""assignmentId"":""0198ee49-34b7-76e9-9f4d-43a6b1ecfb61"",""projectId"":""0198ee3c-27ac-7803-a9ea-f3b4ad4ad678""}","https://test12345.live/?num_scrambled_semantic=8&num_scrambled_causal=4&num_scrambled_schematic=4&participantId=85FF1ECF890543F286510B62FA7079D0&assignmentId=0198ee49-34b7-76e9-9f4d-43a6b1ecfb61&projectId=0198ee3c-27ac-7803-a9ea-f3b4ad4ad678","85FF1ECF890543F286510B62FA7079D0-2025-08-28-02-27-47","","null","","[]","null","",""
"","","","","","image-button-response","69","657850","0.0-12.0-1.0-0.4","85FF1ECF890543F286510B62FA7079D0","85FF1ECF890543F286510B62FA7079D0","0198ee49-34b7-76e9-9f4d-43a6b1ecfb61","0198ee3c-27ac-7803-a9ea-f3b4ad4ad678","{""num_scrambled_semantic"":""8"",""num_scrambled_causal"":""4"",""num_scrambled_schematic"":""4"",""participantId"":""85FF1ECF890543F286510B62FA7079D0"",""assignmentId"":""0198ee49-34b7-76e9-9f4d-43a6b1ecfb61"",""projectId"":""0198ee3c-27ac-7803-a9ea-f3b4ad4ad678""}","https://test12345.live/?num_scrambled_semantic=8&num_scrambled_causal=4&num_scrambled_schematic=4&participantId=85FF1ECF890543F286510B62FA7079D0&assignmentId=0198ee49-34b7-76e9-9f4d-43a6b1ecfb61&projectId=0198ee3c-27ac-7803-a9ea-f3b4ad4ad678","85FF1ECF890543F286510B62FA7079D0-2025-08-28-02-27-47","","null","","images/causal_sequence/dog_causal/dog_causal_3.png","null","",""
"","","","","","image-button-response","70","658276","0.0-12.0-1.0-1.4","85FF1ECF890543F286510B62FA7079D0","85FF1ECF890543F286510B62FA7079D0","0198ee49-34b7-76e9-9f4d-43a6b1ecfb61","0198ee3c-27ac-7803-a9ea-f3b4ad4ad678","{""num_scrambled_semantic"":""8"",""num_scrambled_causal"":""4"",""num_scrambled_schematic"":""4"",""participantId"":""85FF1ECF890543F286510B62FA7079D0"",""assignmentId"":""0198ee49-34b7-76e9-9f4d-43a6b1ecfb61"",""projectId"":""0198ee3c-27ac-7803-a9ea-f3b4ad4ad678""}","https://test12345.live/?num_scrambled_semantic=8&num_scrambled_causal=4&num_scrambled_schematic=4&participantId=85FF1ECF890543F286510B62FA7079D0&assignmentId=0198ee49-34b7-76e9-9f4d-43a6b1ecfb61&projectId=0198ee3c-27ac-7803-a9ea-f3b4ad4ad678","85FF1ECF890543F286510B62FA7079D0-2025-08-28-02-27-47","","425","","images/causal_sequence/dog_causal/dog_causal_3.png","0","",""
"","","","","","image-button-response","71","660084","0.0-12.0-1.0-2.4","85FF1ECF890543F286510B62FA7079D0","85FF1ECF890543F286510B62FA7079D0","0198ee49-34b7-76e9-9f4d-43a6b1ecfb61","0198ee3c-27ac-7803-a9ea-f3b4ad4ad678","{""num_scrambled_semantic"":""8"",""num_scrambled_causal"":""4"",""num_scrambled_schematic"":""4"",""participantId"":""85FF1ECF890543F286510B62FA7079D0"",""assignmentId"":""0198ee49-34b7-76e9-9f4d-43a6b1ecfb61"",""projectId"":""0198ee3c-27ac-7803-a9ea-f3b4ad4ad678""}","https://test12345.live/?num_scrambled_semantic=8&num_scrambled_causal=4&num_scrambled_schematic=4&participantId=85FF1ECF890543F286510B62FA7079D0&assignmentId=0198ee49-34b7-76e9-9f4d-43a6b1ecfb61&projectId=0198ee3c-27ac-7803-a9ea-f3b4ad4ad678","85FF1ECF890543F286510B62FA7079D0-2025-08-28-02-27-47","","null","","[]","null","",""
"","","","","","image-button-response","72","664590","0.0-12.0-1.0-0.5","85FF1ECF890543F286510B62FA7079D0","85FF1ECF890543F286510B62FA7079D0","0198ee49-34b7-76e9-9f4d-43a6b1ecfb61","0198ee3c-27ac-7803-a9ea-f3b4ad4ad678","{""num_scrambled_semantic"":""8"",""num_scrambled_causal"":""4"",""num_scrambled_schematic"":""4"",""participantId"":""85FF1ECF890543F286510B62FA7079D0"",""assignmentId"":""0198ee49-34b7-76e9-9f4d-43a6b1ecfb61"",""projectId"":""0198ee3c-27ac-7803-a9ea-f3b4ad4ad678""}","https://test12345.live/?num_scrambled_semantic=8&num_scrambled_causal=4&num_scrambled_schematic=4&participantId=85FF1ECF890543F286510B62FA7079D0&assignmentId=0198ee49-34b7-76e9-9f4d-43a6b1ecfb61&projectId=0198ee3c-27ac-7803-a9ea-f3b4ad4ad678","85FF1ECF890543F286510B62FA7079D0-2025-08-28-02-27-47","","null","","images/causal_sequence/dog_causal/dog_causal_ten.png","null","",""
"","","","","","image-button-response","73","665356","0.0-12.0-1.0-1.5","85FF1ECF890543F286510B62FA7079D0","85FF1ECF890543F286510B62FA7079D0","0198ee49-34b7-76e9-9f4d-43a6b1ecfb61","0198ee3c-27ac-7803-a9ea-f3b4ad4ad678","{""num_scrambled_semantic"":""8"",""num_scrambled_causal"":""4"",""num_scrambled_schematic"":""4"",""participantId"":""85FF1ECF890543F286510B62FA7079D0"",""assignmentId"":""0198ee49-34b7-76e9-9f4d-43a6b1ecfb61"",""projectId"":""0198ee3c-27ac-7803-a9ea-f3b4ad4ad678""}","https://test12345.live/?num_scrambled_semantic=8&num_scrambled_causal=4&num_scrambled_schematic=4&participantId=85FF1ECF890543F286510B62FA7079D0&assignmentId=0198ee49-34b7-76e9-9f4d-43a6b1ecfb61&projectId=0198ee3c-27ac-7803-a9ea-f3b4ad4ad678","85FF1ECF890543F286510B62FA7079D0-2025-08-28-02-27-47","","765","","images/causal_sequence/dog_causal/dog_causal_ten.png","0","",""
"","","","","","image-button-response","74","667163","0.0-12.0-1.0-2.5","85FF1ECF890543F286510B62FA7079D0","85FF1ECF890543F286510B62FA7079D0","0198ee49-34b7-76e9-9f4d-43a6b1ecfb61","0198ee3c-27ac-7803-a9ea-f3b4ad4ad678","{""num_scrambled_semantic"":""8"",""num_scrambled_causal"":""4"",""num_scrambled_schematic"":""4"",""participantId"":""85FF1ECF890543F286510B62FA7079D0"",""assignmentId"":""0198ee49-34b7-76e9-9f4d-43a6b1ecfb61"",""projectId"":""0198ee3c-27ac-7803-a9ea-f3b4ad4ad678""}","https://test12345.live/?num_scrambled_semantic=8&num_scrambled_causal=4&num_scrambled_schematic=4&participantId=85FF1ECF890543F286510B62FA7079D0&assignmentId=0198ee49-34b7-76e9-9f4d-43a6b1ecfb61&projectId=0198ee3c-27ac-7803-a9ea-f3b4ad4ad678","85FF1ECF890543F286510B62FA7079D0-2025-08-28-02-27-47","","null","","[]","null","",""
"","","","","","image-button-response","75","671668","0.0-12.0-1.0-0.6","85FF1ECF890543F286510B62FA7079D0","85FF1ECF890543F286510B62FA7079D0","0198ee49-34b7-76e9-9f4d-43a6b1ecfb61","0198ee3c-27ac-7803-a9ea-f3b4ad4ad678","{""num_scrambled_semantic"":""8"",""num_scrambled_causal"":""4"",""num_scrambled_schematic"":""4"",""participantId"":""85FF1ECF890543F286510B62FA7079D0"",""assignmentId"":""0198ee49-34b7-76e9-9f4d-43a6b1ecfb61"",""projectId"":""0198ee3c-27ac-7803-a9ea-f3b4ad4ad678""}","https://test12345.live/?num_scrambled_semantic=8&num_scrambled_causal=4&num_scrambled_schematic=4&participantId=85FF1ECF890543F286510B62FA7079D0&assignmentId=0198ee49-34b7-76e9-9f4d-43a6b1ecfb61&projectId=0198ee3c-27ac-7803-a9ea-f3b4ad4ad678","85FF1ECF890543F286510B62FA7079D0-2025-08-28-02-27-47","","null","","images/causal_sequence/dog_causal/dog_causal_5.png","null","",""
"","","","","","image-button-response","76","672388","0.0-12.0-1.0-1.6","85FF1ECF890543F286510B62FA7079D0","85FF1ECF890543F286510B62FA7079D0","0198ee49-34b7-76e9-9f4d-43a6b1ecfb61","0198ee3c-27ac-7803-a9ea-f3b4ad4ad678","{""num_scrambled_semantic"":""8"",""num_scrambled_causal"":""4"",""num_scrambled_schematic"":""4"",""participantId"":""85FF1ECF890543F286510B62FA7079D0"",""assignmentId"":""0198ee49-34b7-76e9-9f4d-43a6b1ecfb61"",""projectId"":""0198ee3c-27ac-7803-a9ea-f3b4ad4ad678""}","https://test12345.live/?num_scrambled_semantic=8&num_scrambled_causal=4&num_scrambled_schematic=4&participantId=85FF1ECF890543F286510B62FA7079D0&assignmentId=0198ee49-34b7-76e9-9f4d-43a6b1ecfb61&projectId=0198ee3c-27ac-7803-a9ea-f3b4ad4ad678","85FF1ECF890543F286510B62FA7079D0-2025-08-28-02-27-47","","719","","images/causal_sequence/dog_causal/dog_causal_5.png","0","",""
"","","","","","image-button-response","77","674191","0.0-12.0-1.0-2.6","85FF1ECF890543F286510B62FA7079D0","85FF1ECF890543F286510B62FA7079D0","0198ee49-34b7-76e9-9f4d-43a6b1ecfb61","0198ee3c-27ac-7803-a9ea-f3b4ad4ad678","{""num_scrambled_semantic"":""8"",""num_scrambled_causal"":""4"",""num_scrambled_schematic"":""4"",""participantId"":""85FF1ECF890543F286510B62FA7079D0"",""assignmentId"":""0198ee49-34b7-76e9-9f4d-43a6b1ecfb61"",""projectId"":""0198ee3c-27ac-7803-a9ea-f3b4ad4ad678""}","https://test12345.live/?num_scrambled_semantic=8&num_scrambled_causal=4&num_scrambled_schematic=4&participantId=85FF1ECF890543F286510B62FA7079D0&assignmentId=0198ee49-34b7-76e9-9f4d-43a6b1ecfb61&projectId=0198ee3c-27ac-7803-a9ea-f3b4ad4ad678","85FF1ECF890543F286510B62FA7079D0-2025-08-28-02-27-47","","null","","[]","null","",""
"","","","","","image-button-response","78","678707","0.0-12.0-1.0-0.7","85FF1ECF890543F286510B62FA7079D0","85FF1ECF890543F286510B62FA7079D0","0198ee49-34b7-76e9-9f4d-43a6b1ecfb61","0198ee3c-27ac-7803-a9ea-f3b4ad4ad678","{""num_scrambled_semantic"":""8"",""num_scrambled_causal"":""4"",""num_scrambled_schematic"":""4"",""participantId"":""85FF1ECF890543F286510B62FA7079D0"",""assignmentId"":""0198ee49-34b7-76e9-9f4d-43a6b1ecfb61"",""projectId"":""0198ee3c-27ac-7803-a9ea-f3b4ad4ad678""}","https://test12345.live/?num_scrambled_semantic=8&num_scrambled_causal=4&num_scrambled_schematic=4&participantId=85FF1ECF890543F286510B62FA7079D0&assignmentId=0198ee49-34b7-76e9-9f4d-43a6b1ecfb61&projectId=0198ee3c-27ac-7803-a9ea-f3b4ad4ad678","85FF1ECF890543F286510B62FA7079D0-2025-08-28-02-27-47","","null","","images/causal_sequence/dog_causal/dog_causal_2.png","null","",""
"","","","","","image-button-response","79","679276","0.0-12.0-1.0-1.7","85FF1ECF890543F286510B62FA7079D0","85FF1ECF890543F286510B62FA7079D0","0198ee49-34b7-76e9-9f4d-43a6b1ecfb61","0198ee3c-27ac-7803-a9ea-f3b4ad4ad678","{""num_scrambled_semantic"":""8"",""num_scrambled_causal"":""4"",""num_scrambled_schematic"":""4"",""participantId"":""85FF1ECF890543F286510B62FA7079D0"",""assignmentId"":""0198ee49-34b7-76e9-9f4d-43a6b1ecfb61"",""projectId"":""0198ee3c-27ac-7803-a9ea-f3b4ad4ad678""}","https://test12345.live/?num_scrambled_semantic=8&num_scrambled_causal=4&num_scrambled_schematic=4&participantId=85FF1ECF890543F286510B62FA7079D0&assignmentId=0198ee49-34b7-76e9-9f4d-43a6b1ecfb61&projectId=0198ee3c-27ac-7803-a9ea-f3b4ad4ad678","85FF1ECF890543F286510B62FA7079D0-2025-08-28-02-27-47","","568","","images/causal_sequence/dog_causal/dog_causal_2.png","0","",""
"","","","","","image-button-response","80","681080","0.0-12.0-1.0-2.7","85FF1ECF890543F286510B62FA7079D0","85FF1ECF890543F286510B62FA7079D0","0198ee49-34b7-76e9-9f4d-43a6b1ecfb61","0198ee3c-27ac-7803-a9ea-f3b4ad4ad678","{""num_scrambled_semantic"":""8"",""num_scrambled_causal"":""4"",""num_scrambled_schematic"":""4"",""participantId"":""85FF1ECF890543F286510B62FA7079D0"",""assignmentId"":""0198ee49-34b7-76e9-9f4d-43a6b1ecfb61"",""projectId"":""0198ee3c-27ac-7803-a9ea-f3b4ad4ad678""}","https://test12345.live/?num_scrambled_semantic=8&num_scrambled_causal=4&num_scrambled_schematic=4&participantId=85FF1ECF890543F286510B62FA7079D0&assignmentId=0198ee49-34b7-76e9-9f4d-43a6b1ecfb61&projectId=0198ee3c-27ac-7803-a9ea-f3b4ad4ad678","85FF1ECF890543F286510B62FA7079D0-2025-08-28-02-27-47","","null","","[]","null","",""
"","","","","","image-button-response","81","685581","0.0-12.0-1.0-0.8","85FF1ECF890543F286510B62FA7079D0","85FF1ECF890543F286510B62FA7079D0","0198ee49-34b7-76e9-9f4d-43a6b1ecfb61","0198ee3c-27ac-7803-a9ea-f3b4ad4ad678","{""num_scrambled_semantic"":""8"",""num_scrambled_causal"":""4"",""num_scrambled_schematic"":""4"",""participantId"":""85FF1ECF890543F286510B62FA7079D0"",""assignmentId"":""0198ee49-34b7-76e9-9f4d-43a6b1ecfb61"",""projectId"":""0198ee3c-27ac-7803-a9ea-f3b4ad4ad678""}","https://test12345.live/?num_scrambled_semantic=8&num_scrambled_causal=4&num_scrambled_schematic=4&participantId=85FF1ECF890543F286510B62FA7079D0&assignmentId=0198ee49-34b7-76e9-9f4d-43a6b1ecfb61&projectId=0198ee3c-27ac-7803-a9ea-f3b4ad4ad678","85FF1ECF890543F286510B62FA7079D0-2025-08-28-02-27-47","","null","","images/causal_sequence/dog_causal/dog_causal_7.png","null","",""
"","","","","","image-button-response","82","686724","0.0-12.0-1.0-1.8","85FF1ECF890543F286510B62FA7079D0","85FF1ECF890543F286510B62FA7079D0","0198ee49-34b7-76e9-9f4d-43a6b1ecfb61","0198ee3c-27ac-7803-a9ea-f3b4ad4ad678","{""num_scrambled_semantic"":""8"",""num_scrambled_causal"":""4"",""num_scrambled_schematic"":""4"",""participantId"":""85FF1ECF890543F286510B62FA7079D0"",""assignmentId"":""0198ee49-34b7-76e9-9f4d-43a6b1ecfb61"",""projectId"":""0198ee3c-27ac-7803-a9ea-f3b4ad4ad678""}","https://test12345.live/?num_scrambled_semantic=8&num_scrambled_causal=4&num_scrambled_schematic=4&participantId=85FF1ECF890543F286510B62FA7079D0&assignmentId=0198ee49-34b7-76e9-9f4d-43a6b1ecfb61&projectId=0198ee3c-27ac-7803-a9ea-f3b4ad4ad678","85FF1ECF890543F286510B62FA7079D0-2025-08-28-02-27-47","","1142","","images/causal_sequence/dog_causal/dog_causal_7.png","0","",""
"","","","","","image-button-response","83","688541","0.0-12.0-1.0-2.8","85FF1ECF890543F286510B62FA7079D0","85FF1ECF890543F286510B62FA7079D0","0198ee49-34b7-76e9-9f4d-43a6b1ecfb61","0198ee3c-27ac-7803-a9ea-f3b4ad4ad678","{""num_scrambled_semantic"":""8"",""num_scrambled_causal"":""4"",""num_scrambled_schematic"":""4"",""participantId"":""85FF1ECF890543F286510B62FA7079D0"",""assignmentId"":""0198ee49-34b7-76e9-9f4d-43a6b1ecfb61"",""projectId"":""0198ee3c-27ac-7803-a9ea-f3b4ad4ad678""}","https://test12345.live/?num_scrambled_semantic=8&num_scrambled_causal=4&num_scrambled_schematic=4&participantId=85FF1ECF890543F286510B62FA7079D0&assignmentId=0198ee49-34b7-76e9-9f4d-43a6b1ecfb61&projectId=0198ee3c-27ac-7803-a9ea-f3b4ad4ad678","85FF1ECF890543F286510B62FA7079D0-2025-08-28-02-27-47","","null","","[]","null","",""
"","","","","","image-button-response","84","693042","0.0-12.0-1.0-0.9","85FF1ECF890543F286510B62FA7079D0","85FF1ECF890543F286510B62FA7079D0","0198ee49-34b7-76e9-9f4d-43a6b1ecfb61","0198ee3c-27ac-7803-a9ea-f3b4ad4ad678","{""num_scrambled_semantic"":""8"",""num_scrambled_causal"":""4"",""num_scrambled_schematic"":""4"",""participantId"":""85FF1ECF890543F286510B62FA7079D0"",""assignmentId"":""0198ee49-34b7-76e9-9f4d-43a6b1ecfb61"",""projectId"":""0198ee3c-27ac-7803-a9ea-f3b4ad4ad678""}","https://test12345.live/?num_scrambled_semantic=8&num_scrambled_causal=4&num_scrambled_schematic=4&participantId=85FF1ECF890543F286510B62FA7079D0&assignmentId=0198ee49-34b7-76e9-9f4d-43a6b1ecfb61&projectId=0198ee3c-27ac-7803-a9ea-f3b4ad4ad678","85FF1ECF890543F286510B62FA7079D0-2025-08-28-02-27-47","","null","","images/causal_sequence/dog_causal/dog_causal_1.png","null","",""
"","","","","","image-button-response","85","694188","0.0-12.0-1.0-1.9","85FF1ECF890543F286510B62FA7079D0","85FF1ECF890543F286510B62FA7079D0","0198ee49-34b7-76e9-9f4d-43a6b1ecfb61","0198ee3c-27ac-7803-a9ea-f3b4ad4ad678","{""num_scrambled_semantic"":""8"",""num_scrambled_causal"":""4"",""num_scrambled_schematic"":""4"",""participantId"":""85FF1ECF890543F286510B62FA7079D0"",""assignmentId"":""0198ee49-34b7-76e9-9f4d-43a6b1ecfb61"",""projectId"":""0198ee3c-27ac-7803-a9ea-f3b4ad4ad678""}","https://test12345.live/?num_scrambled_semantic=8&num_scrambled_causal=4&num_scrambled_schematic=4&participantId=85FF1ECF890543F286510B62FA7079D0&assignmentId=0198ee49-34b7-76e9-9f4d-43a6b1ecfb61&projectId=0198ee3c-27ac-7803-a9ea-f3b4ad4ad678","85FF1ECF890543F286510B62FA7079D0-2025-08-28-02-27-47","","1145","","images/causal_sequence/dog_causal/dog_causal_1.png","0","",""
"","","","","","image-button-response","86","696004","0.0-12.0-1.0-2.9","85FF1ECF890543F286510B62FA7079D0","85FF1ECF890543F286510B62FA7079D0","0198ee49-34b7-76e9-9f4d-43a6b1ecfb61","0198ee3c-27ac-7803-a9ea-f3b4ad4ad678","{""num_scrambled_semantic"":""8"",""num_scrambled_causal"":""4"",""num_scrambled_schematic"":""4"",""participantId"":""85FF1ECF890543F286510B62FA7079D0"",""assignmentId"":""0198ee49-34b7-76e9-9f4d-43a6b1ecfb61"",""projectId"":""0198ee3c-27ac-7803-a9ea-f3b4ad4ad678""}","https://test12345.live/?num_scrambled_semantic=8&num_scrambled_causal=4&num_scrambled_schematic=4&participantId=85FF1ECF890543F286510B62FA7079D0&assignmentId=0198ee49-34b7-76e9-9f4d-43a6b1ecfb61&projectId=0198ee3c-27ac-7803-a9ea-f3b4ad4ad678","85FF1ECF890543F286510B62FA7079D0-2025-08-28-02-27-47","","null","","[]","null","",""
"","","","","","html-audio-response","87","745668","0.0-13.0","85FF1ECF890543F286510B62FA7079D0","85FF1ECF890543F286510B62FA7079D0","0198ee49-34b7-76e9-9f4d-43a6b1ecfb61","0198ee3c-27ac-7803-a9ea-f3b4ad4ad678","{""num_scrambled_semantic"":""8"",""num_scrambled_causal"":""4"",""num_scrambled_schematic"":""4"",""participantId"":""85FF1ECF890543F286510B62FA7079D0"",""assignmentId"":""0198ee49-34b7-76e9-9f4d-43a6b1ecfb61"",""projectId"":""0198ee3c-27ac-7803-a9ea-f3b4ad4ad678""}","https://test12345.live/?num_scrambled_semantic=8&num_scrambled_causal=4&num_scrambled_schematic=4&participantId=85FF1ECF890543F286510B62FA7079D0&assignmentId=0198ee49-34b7-76e9-9f4d-43a6b1ecfb61&projectId=0198ee3c-27ac-7803-a9ea-f3b4ad4ad678","85FF1ECF890543F286510B62FA7079D0-2025-08-28-02-27-47","","45433","","[""<span style=\""color: red; font-size: 24px\""> NOW RECORDING</span><p>Please say out loud all the images you saw, in the order of the story they create. Try to recall the sequence of events as they appeared in the story, not necessarily the order they were presented on the screen.</p>""]","","1","dog_causal"
"","","","","","image-button-response","88","751684","0.0-14.0-0.0","85FF1ECF890543F286510B62FA7079D0","85FF1ECF890543F286510B62FA7079D0","0198ee49-34b7-76e9-9f4d-43a6b1ecfb61","0198ee3c-27ac-7803-a9ea-f3b4ad4ad678","{""num_scrambled_semantic"":""8"",""num_scrambled_causal"":""4"",""num_scrambled_schematic"":""4"",""participantId"":""85FF1ECF890543F286510B62FA7079D0"",""assignmentId"":""0198ee49-34b7-76e9-9f4d-43a6b1ecfb61"",""projectId"":""0198ee3c-27ac-7803-a9ea-f3b4ad4ad678""}","https://test12345.live/?num_scrambled_semantic=8&num_scrambled_causal=4&num_scrambled_schematic=4&participantId=85FF1ECF890543F286510B62FA7079D0&assignmentId=0198ee49-34b7-76e9-9f4d-43a6b1ecfb61&projectId=0198ee3c-27ac-7803-a9ea-f3b4ad4ad678","85FF1ECF890543F286510B62FA7079D0-2025-08-28-02-27-47","","null","","images/semantic_sequence/housework_semantic/housework_semantic_0.png","null","",""
"","","","","","image-button-response","89","756199","0.0-14.0-1.0-0.0","85FF1ECF890543F286510B62FA7079D0","85FF1ECF890543F286510B62FA7079D0","0198ee49-34b7-76e9-9f4d-43a6b1ecfb61","0198ee3c-27ac-7803-a9ea-f3b4ad4ad678","{""num_scrambled_semantic"":""8"",""num_scrambled_causal"":""4"",""num_scrambled_schematic"":""4"",""participantId"":""85FF1ECF890543F286510B62FA7079D0"",""assignmentId"":""0198ee49-34b7-76e9-9f4d-43a6b1ecfb61"",""projectId"":""0198ee3c-27ac-7803-a9ea-f3b4ad4ad678""}","https://test12345.live/?num_scrambled_semantic=8&num_scrambled_causal=4&num_scrambled_schematic=4&participantId=85FF1ECF890543F286510B62FA7079D0&assignmentId=0198ee49-34b7-76e9-9f4d-43a6b1ecfb61&projectId=0198ee3c-27ac-7803-a9ea-f3b4ad4ad678","85FF1ECF890543F286510B62FA7079D0-2025-08-28-02-27-47","","null","","images/semantic_sequence/housework_semantic/housework_semantic_7.png","null","",""
"","","","","","image-button-response","90","757900","0.0-14.0-1.0-1.0","85FF1ECF890543F286510B62FA7079D0","85FF1ECF890543F286510B62FA7079D0","0198ee49-34b7-76e9-9f4d-43a6b1ecfb61","0198ee3c-27ac-7803-a9ea-f3b4ad4ad678","{""num_scrambled_semantic"":""8"",""num_scrambled_causal"":""4"",""num_scrambled_schematic"":""4"",""participantId"":""85FF1ECF890543F286510B62FA7079D0"",""assignmentId"":""0198ee49-34b7-76e9-9f4d-43a6b1ecfb61"",""projectId"":""0198ee3c-27ac-7803-a9ea-f3b4ad4ad678""}","https://test12345.live/?num_scrambled_semantic=8&num_scrambled_causal=4&num_scrambled_schematic=4&participantId=85FF1ECF890543F286510B62FA7079D0&assignmentId=0198ee49-34b7-76e9-9f4d-43a6b1ecfb61&projectId=0198ee3c-27ac-7803-a9ea-f3b4ad4ad678","85FF1ECF890543F286510B62FA7079D0-2025-08-28-02-27-47","","1700","","images/semantic_sequence/housework_semantic/housework_semantic_7.png","1","",""
"","","","","","image-button-response","91","759706","0.0-14.0-1.0-2.0","85FF1ECF890543F286510B62FA7079D0","85FF1ECF890543F286510B62FA7079D0","0198ee49-34b7-76e9-9f4d-43a6b1ecfb61","0198ee3c-27ac-7803-a9ea-f3b4ad4ad678","{""num_scrambled_semantic"":""8"",""num_scrambled_causal"":""4"",""num_scrambled_schematic"":""4"",""participantId"":""85FF1ECF890543F286510B62FA7079D0"",""assignmentId"":""0198ee49-34b7-76e9-9f4d-43a6b1ecfb61"",""projectId"":""0198ee3c-27ac-7803-a9ea-f3b4ad4ad678""}","https://test12345.live/?num_scrambled_semantic=8&num_scrambled_causal=4&num_scrambled_schematic=4&participantId=85FF1ECF890543F286510B62FA7079D0&assignmentId=0198ee49-34b7-76e9-9f4d-43a6b1ecfb61&projectId=0198ee3c-27ac-7803-a9ea-f3b4ad4ad678","85FF1ECF890543F286510B62FA7079D0-2025-08-28-02-27-47","","null","","[]","null","",""
"","","","","","image-button-response","92","764207","0.0-14.0-1.0-0.1","85FF1ECF890543F286510B62FA7079D0","85FF1ECF890543F286510B62FA7079D0","0198ee49-34b7-76e9-9f4d-43a6b1ecfb61","0198ee3c-27ac-7803-a9ea-f3b4ad4ad678","{""num_scrambled_semantic"":""8"",""num_scrambled_causal"":""4"",""num_scrambled_schematic"":""4"",""participantId"":""85FF1ECF890543F286510B62FA7079D0"",""assignmentId"":""0198ee49-34b7-76e9-9f4d-43a6b1ecfb61"",""projectId"":""0198ee3c-27ac-7803-a9ea-f3b4ad4ad678""}","https://test12345.live/?num_scrambled_semantic=8&num_scrambled_causal=4&num_scrambled_schematic=4&participantId=85FF1ECF890543F286510B62FA7079D0&assignmentId=0198ee49-34b7-76e9-9f4d-43a6b1ecfb61&projectId=0198ee3c-27ac-7803-a9ea-f3b4ad4ad678","85FF1ECF890543F286510B62FA7079D0-2025-08-28-02-27-47","","null","","images/semantic_sequence/housework_semantic/housework_semantic_3.png","null","",""
"","","","","","image-button-response","93","765412","0.0-14.0-1.0-1.1","85FF1ECF890543F286510B62FA7079D0","85FF1ECF890543F286510B62FA7079D0","0198ee49-34b7-76e9-9f4d-43a6b1ecfb61","0198ee3c-27ac-7803-a9ea-f3b4ad4ad678","{""num_scrambled_semantic"":""8"",""num_scrambled_causal"":""4"",""num_scrambled_schematic"":""4"",""participantId"":""85FF1ECF890543F286510B62FA7079D0"",""assignmentId"":""0198ee49-34b7-76e9-9f4d-43a6b1ecfb61"",""projectId"":""0198ee3c-27ac-7803-a9ea-f3b4ad4ad678""}","https://test12345.live/?num_scrambled_semantic=8&num_scrambled_causal=4&num_scrambled_schematic=4&participantId=85FF1ECF890543F286510B62FA7079D0&assignmentId=0198ee49-34b7-76e9-9f4d-43a6b1ecfb61&projectId=0198ee3c-27ac-7803-a9ea-f3b4ad4ad678","85FF1ECF890543F286510B62FA7079D0-2025-08-28-02-27-47","","1204","","images/semantic_sequence/housework_semantic/housework_semantic_3.png","0","",""
"","","","","","image-button-response","94","767220","0.0-14.0-1.0-2.1","85FF1ECF890543F286510B62FA7079D0","85FF1ECF890543F286510B62FA7079D0","0198ee49-34b7-76e9-9f4d-43a6b1ecfb61","0198ee3c-27ac-7803-a9ea-f3b4ad4ad678","{""num_scrambled_semantic"":""8"",""num_scrambled_causal"":""4"",""num_scrambled_schematic"":""4"",""participantId"":""85FF1ECF890543F286510B62FA7079D0"",""assignmentId"":""0198ee49-34b7-76e9-9f4d-43a6b1ecfb61"",""projectId"":""0198ee3c-27ac-7803-a9ea-f3b4ad4ad678""}","https://test12345.live/?num_scrambled_semantic=8&num_scrambled_causal=4&num_scrambled_schematic=4&participantId=85FF1ECF890543F286510B62FA7079D0&assignmentId=0198ee49-34b7-76e9-9f4d-43a6b1ecfb61&projectId=0198ee3c-27ac-7803-a9ea-f3b4ad4ad678","85FF1ECF890543F286510B62FA7079D0-2025-08-28-02-27-47","","null","","[]","null","",""
"","","","","","image-button-response","95","771723","0.0-14.0-1.0-0.2","85FF1ECF890543F286510B62FA7079D0","85FF1ECF890543F286510B62FA7079D0","0198ee49-34b7-76e9-9f4d-43a6b1ecfb61","0198ee3c-27ac-7803-a9ea-f3b4ad4ad678","{""num_scrambled_semantic"":""8"",""num_scrambled_causal"":""4"",""num_scrambled_schematic"":""4"",""participantId"":""85FF1ECF890543F286510B62FA7079D0"",""assignmentId"":""0198ee49-34b7-76e9-9f4d-43a6b1ecfb61"",""projectId"":""0198ee3c-27ac-7803-a9ea-f3b4ad4ad678""}","https://test12345.live/?num_scrambled_semantic=8&num_scrambled_causal=4&num_scrambled_schematic=4&participantId=85FF1ECF890543F286510B62FA7079D0&assignmentId=0198ee49-34b7-76e9-9f4d-43a6b1ecfb61&projectId=0198ee3c-27ac-7803-a9ea-f3b4ad4ad678","85FF1ECF890543F286510B62FA7079D0-2025-08-28-02-27-47","","null","","images/semantic_sequence/housework_semantic/housework_semantic_8.png","null","",""
"","","","","","image-button-response","96","773116","0.0-14.0-1.0-1.2","85FF1ECF890543F286510B62FA7079D0","85FF1ECF890543F286510B62FA7079D0","0198ee49-34b7-76e9-9f4d-43a6b1ecfb61","0198ee3c-27ac-7803-a9ea-f3b4ad4ad678","{""num_scrambled_semantic"":""8"",""num_scrambled_causal"":""4"",""num_scrambled_schematic"":""4"",""participantId"":""85FF1ECF890543F286510B62FA7079D0"",""assignmentId"":""0198ee49-34b7-76e9-9f4d-43a6b1ecfb61"",""projectId"":""0198ee3c-27ac-7803-a9ea-f3b4ad4ad678""}","https://test12345.live/?num_scrambled_semantic=8&num_scrambled_causal=4&num_scrambled_schematic=4&participantId=85FF1ECF890543F286510B62FA7079D0&assignmentId=0198ee49-34b7-76e9-9f4d-43a6b1ecfb61&projectId=0198ee3c-27ac-7803-a9ea-f3b4ad4ad678","85FF1ECF890543F286510B62FA7079D0-2025-08-28-02-27-47","","1392","","images/semantic_sequence/housework_semantic/housework_semantic_8.png","0","",""
"","","","","","image-button-response","97","774919","0.0-14.0-1.0-2.2","85FF1ECF890543F286510B62FA7079D0","85FF1ECF890543F286510B62FA7079D0","0198ee49-34b7-76e9-9f4d-43a6b1ecfb61","0198ee3c-27ac-7803-a9ea-f3b4ad4ad678","{""num_scrambled_semantic"":""8"",""num_scrambled_causal"":""4"",""num_scrambled_schematic"":""4"",""participantId"":""85FF1ECF890543F286510B62FA7079D0"",""assignmentId"":""0198ee49-34b7-76e9-9f4d-43a6b1ecfb61"",""projectId"":""0198ee3c-27ac-7803-a9ea-f3b4ad4ad678""}","https://test12345.live/?num_scrambled_semantic=8&num_scrambled_causal=4&num_scrambled_schematic=4&participantId=85FF1ECF890543F286510B62FA7079D0&assignmentId=0198ee49-34b7-76e9-9f4d-43a6b1ecfb61&projectId=0198ee3c-27ac-7803-a9ea-f3b4ad4ad678","85FF1ECF890543F286510B62FA7079D0-2025-08-28-02-27-47","","null","","[]","null","",""
"","","","","","image-button-response","98","779420","0.0-14.0-1.0-0.3","85FF1ECF890543F286510B62FA7079D0","85FF1ECF890543F286510B62FA7079D0","0198ee49-34b7-76e9-9f4d-43a6b1ecfb61","0198ee3c-27ac-7803-a9ea-f3b4ad4ad678","{""num_scrambled_semantic"":""8"",""num_scrambled_causal"":""4"",""num_scrambled_schematic"":""4"",""participantId"":""85FF1ECF890543F286510B62FA7079D0"",""assignmentId"":""0198ee49-34b7-76e9-9f4d-43a6b1ecfb61"",""projectId"":""0198ee3c-27ac-7803-a9ea-f3b4ad4ad678""}","https://test12345.live/?num_scrambled_semantic=8&num_scrambled_causal=4&num_scrambled_schematic=4&participantId=85FF1ECF890543F286510B62FA7079D0&assignmentId=0198ee49-34b7-76e9-9f4d-43a6b1ecfb61&projectId=0198ee3c-27ac-7803-a9ea-f3b4ad4ad678","85FF1ECF890543F286510B62FA7079D0-2025-08-28-02-27-47","","null","","images/semantic_sequence/housework_semantic/housework_semantic_2.png","null","",""
"","","","","","image-button-response","99","780156","0.0-14.0-1.0-1.3","85FF1ECF890543F286510B62FA7079D0","85FF1ECF890543F286510B62FA7079D0","0198ee49-34b7-76e9-9f4d-43a6b1ecfb61","0198ee3c-27ac-7803-a9ea-f3b4ad4ad678","{""num_scrambled_semantic"":""8"",""num_scrambled_causal"":""4"",""num_scrambled_schematic"":""4"",""participantId"":""85FF1ECF890543F286510B62FA7079D0"",""assignmentId"":""0198ee49-34b7-76e9-9f4d-43a6b1ecfb61"",""projectId"":""0198ee3c-27ac-7803-a9ea-f3b4ad4ad678""}","https://test12345.live/?num_scrambled_semantic=8&num_scrambled_causal=4&num_scrambled_schematic=4&participantId=85FF1ECF890543F286510B62FA7079D0&assignmentId=0198ee49-34b7-76e9-9f4d-43a6b1ecfb61&projectId=0198ee3c-27ac-7803-a9ea-f3b4ad4ad678","85FF1ECF890543F286510B62FA7079D0-2025-08-28-02-27-47","","735","","images/semantic_sequence/housework_semantic/housework_semantic_2.png","0","",""
"","","","","","image-button-response","100","781960","0.0-14.0-1.0-2.3","85FF1ECF890543F286510B62FA7079D0","85FF1ECF890543F286510B62FA7079D0","0198ee49-34b7-76e9-9f4d-43a6b1ecfb61","0198ee3c-27ac-7803-a9ea-f3b4ad4ad678","{""num_scrambled_semantic"":""8"",""num_scrambled_causal"":""4"",""num_scrambled_schematic"":""4"",""participantId"":""85FF1ECF890543F286510B62FA7079D0"",""assignmentId"":""0198ee49-34b7-76e9-9f4d-43a6b1ecfb61"",""projectId"":""0198ee3c-27ac-7803-a9ea-f3b4ad4ad678""}","https://test12345.live/?num_scrambled_semantic=8&num_scrambled_causal=4&num_scrambled_schematic=4&participantId=85FF1ECF890543F286510B62FA7079D0&assignmentId=0198ee49-34b7-76e9-9f4d-43a6b1ecfb61&projectId=0198ee3c-27ac-7803-a9ea-f3b4ad4ad678","85FF1ECF890543F286510B62FA7079D0-2025-08-28-02-27-47","","null","","[]","null","",""
"","","","","","image-button-response","101","786468","0.0-14.0-1.0-0.4","85FF1ECF890543F286510B62FA7079D0","85FF1ECF890543F286510B62FA7079D0","0198ee49-34b7-76e9-9f4d-43a6b1ecfb61","0198ee3c-27ac-7803-a9ea-f3b4ad4ad678","{""num_scrambled_semantic"":""8"",""num_scrambled_causal"":""4"",""num_scrambled_schematic"":""4"",""participantId"":""85FF1ECF890543F286510B62FA7079D0"",""assignmentId"":""0198ee49-34b7-76e9-9f4d-43a6b1ecfb61"",""projectId"":""0198ee3c-27ac-7803-a9ea-f3b4ad4ad678""}","https://test12345.live/?num_scrambled_semantic=8&num_scrambled_causal=4&num_scrambled_schematic=4&participantId=85FF1ECF890543F286510B62FA7079D0&assignmentId=0198ee49-34b7-76e9-9f4d-43a6b1ecfb61&projectId=0198ee3c-27ac-7803-a9ea-f3b4ad4ad678","85FF1ECF890543F286510B62FA7079D0-2025-08-28-02-27-47","","null","","images/semantic_sequence/housework_semantic/housework_semantic_ten.png","null","",""
"","","","","","image-button-response","102","787276","0.0-14.0-1.0-1.4","85FF1ECF890543F286510B62FA7079D0","85FF1ECF890543F286510B62FA7079D0","0198ee49-34b7-76e9-9f4d-43a6b1ecfb61","0198ee3c-27ac-7803-a9ea-f3b4ad4ad678","{""num_scrambled_semantic"":""8"",""num_scrambled_causal"":""4"",""num_scrambled_schematic"":""4"",""participantId"":""85FF1ECF890543F286510B62FA7079D0"",""assignmentId"":""0198ee49-34b7-76e9-9f4d-43a6b1ecfb61"",""projectId"":""0198ee3c-27ac-7803-a9ea-f3b4ad4ad678""}","https://test12345.live/?num_scrambled_semantic=8&num_scrambled_causal=4&num_scrambled_schematic=4&participantId=85FF1ECF890543F286510B62FA7079D0&assignmentId=0198ee49-34b7-76e9-9f4d-43a6b1ecfb61&projectId=0198ee3c-27ac-7803-a9ea-f3b4ad4ad678","85FF1ECF890543F286510B62FA7079D0-2025-08-28-02-27-47","","807","","images/semantic_sequence/housework_semantic/housework_semantic_ten.png","0","",""
"","","","","","image-button-response","103","789092","0.0-14.0-1.0-2.4","85FF1ECF890543F286510B62FA7079D0","85FF1ECF890543F286510B62FA7079D0","0198ee49-34b7-76e9-9f4d-43a6b1ecfb61","0198ee3c-27ac-7803-a9ea-f3b4ad4ad678","{""num_scrambled_semantic"":""8"",""num_scrambled_causal"":""4"",""num_scrambled_schematic"":""4"",""participantId"":""85FF1ECF890543F286510B62FA7079D0"",""assignmentId"":""0198ee49-34b7-76e9-9f4d-43a6b1ecfb61"",""projectId"":""0198ee3c-27ac-7803-a9ea-f3b4ad4ad678""}","https://test12345.live/?num_scrambled_semantic=8&num_scrambled_causal=4&num_scrambled_schematic=4&participantId=85FF1ECF890543F286510B62FA7079D0&assignmentId=0198ee49-34b7-76e9-9f4d-43a6b1ecfb61&projectId=0198ee3c-27ac-7803-a9ea-f3b4ad4ad678","85FF1ECF890543F286510B62FA7079D0-2025-08-28-02-27-47","","null","","[]","null","",""
"","","","","","image-button-response","104","793597","0.0-14.0-1.0-0.5","85FF1ECF890543F286510B62FA7079D0","85FF1ECF890543F286510B62FA7079D0","0198ee49-34b7-76e9-9f4d-43a6b1ecfb61","0198ee3c-27ac-7803-a9ea-f3b4ad4ad678","{""num_scrambled_semantic"":""8"",""num_scrambled_causal"":""4"",""num_scrambled_schematic"":""4"",""participantId"":""85FF1ECF890543F286510B62FA7079D0"",""assignmentId"":""0198ee49-34b7-76e9-9f4d-43a6b1ecfb61"",""projectId"":""0198ee3c-27ac-7803-a9ea-f3b4ad4ad678""}","https://test12345.live/?num_scrambled_semantic=8&num_scrambled_causal=4&num_scrambled_schematic=4&participantId=85FF1ECF890543F286510B62FA7079D0&assignmentId=0198ee49-34b7-76e9-9f4d-43a6b1ecfb61&projectId=0198ee3c-27ac-7803-a9ea-f3b4ad4ad678","85FF1ECF890543F286510B62FA7079D0-2025-08-28-02-27-47","","null","","images/semantic_sequence/housework_semantic/housework_semantic_5.png","null","",""
"","","","","","image-button-response","105","794220","0.0-14.0-1.0-1.5","85FF1ECF890543F286510B62FA7079D0","85FF1ECF890543F286510B62FA7079D0","0198ee49-34b7-76e9-9f4d-43a6b1ecfb61","0198ee3c-27ac-7803-a9ea-f3b4ad4ad678","{""num_scrambled_semantic"":""8"",""num_scrambled_causal"":""4"",""num_scrambled_schematic"":""4"",""participantId"":""85FF1ECF890543F286510B62FA7079D0"",""assignmentId"":""0198ee49-34b7-76e9-9f4d-43a6b1ecfb61"",""projectId"":""0198ee3c-27ac-7803-a9ea-f3b4ad4ad678""}","https://test12345.live/?num_scrambled_semantic=8&num_scrambled_causal=4&num_scrambled_schematic=4&participantId=85FF1ECF890543F286510B62FA7079D0&assignmentId=0198ee49-34b7-76e9-9f4d-43a6b1ecfb61&projectId=0198ee3c-27ac-7803-a9ea-f3b4ad4ad678","85FF1ECF890543F286510B62FA7079D0-2025-08-28-02-27-47","","622","","images/semantic_sequence/housework_semantic/housework_semantic_5.png","0","",""
"","","","","","image-button-response","106","796027","0.0-14.0-1.0-2.5","85FF1ECF890543F286510B62FA7079D0","85FF1ECF890543F286510B62FA7079D0","0198ee49-34b7-76e9-9f4d-43a6b1ecfb61","0198ee3c-27ac-7803-a9ea-f3b4ad4ad678","{""num_scrambled_semantic"":""8"",""num_scrambled_causal"":""4"",""num_scrambled_schematic"":""4"",""participantId"":""85FF1ECF890543F286510B62FA7079D0"",""assignmentId"":""0198ee49-34b7-76e9-9f4d-43a6b1ecfb61"",""projectId"":""0198ee3c-27ac-7803-a9ea-f3b4ad4ad678""}","https://test12345.live/?num_scrambled_semantic=8&num_scrambled_causal=4&num_scrambled_schematic=4&participantId=85FF1ECF890543F286510B62FA7079D0&assignmentId=0198ee49-34b7-76e9-9f4d-43a6b1ecfb61&projectId=0198ee3c-27ac-7803-a9ea-f3b4ad4ad678","85FF1ECF890543F286510B62FA7079D0-2025-08-28-02-27-47","","null","","[]","null","",""
"","","","","","image-button-response","107","800529","0.0-14.0-1.0-0.6","85FF1ECF890543F286510B62FA7079D0","85FF1ECF890543F286510B62FA7079D0","0198ee49-34b7-76e9-9f4d-43a6b1ecfb61","0198ee3c-27ac-7803-a9ea-f3b4ad4ad678","{""num_scrambled_semantic"":""8"",""num_scrambled_causal"":""4"",""num_scrambled_schematic"":""4"",""participantId"":""85FF1ECF890543F286510B62FA7079D0"",""assignmentId"":""0198ee49-34b7-76e9-9f4d-43a6b1ecfb61"",""projectId"":""0198ee3c-27ac-7803-a9ea-f3b4ad4ad678""}","https://test12345.live/?num_scrambled_semantic=8&num_scrambled_causal=4&num_scrambled_schematic=4&participantId=85FF1ECF890543F286510B62FA7079D0&assignmentId=0198ee49-34b7-76e9-9f4d-43a6b1ecfb61&projectId=0198ee3c-27ac-7803-a9ea-f3b4ad4ad678","85FF1ECF890543F286510B62FA7079D0-2025-08-28-02-27-47","","null","","images/semantic_sequence/housework_semantic/housework_semantic_9.png","null","",""
"","","","","","image-button-response","108","801140","0.0-14.0-1.0-1.6","85FF1ECF890543F286510B62FA7079D0","85FF1ECF890543F286510B62FA7079D0","0198ee49-34b7-76e9-9f4d-43a6b1ecfb61","0198ee3c-27ac-7803-a9ea-f3b4ad4ad678","{""num_scrambled_semantic"":""8"",""num_scrambled_causal"":""4"",""num_scrambled_schematic"":""4"",""participantId"":""85FF1ECF890543F286510B62FA7079D0"",""assignmentId"":""0198ee49-34b7-76e9-9f4d-43a6b1ecfb61"",""projectId"":""0198ee3c-27ac-7803-a9ea-f3b4ad4ad678""}","https://test12345.live/?num_scrambled_semantic=8&num_scrambled_causal=4&num_scrambled_schematic=4&participantId=85FF1ECF890543F286510B62FA7079D0&assignmentId=0198ee49-34b7-76e9-9f4d-43a6b1ecfb61&projectId=0198ee3c-27ac-7803-a9ea-f3b4ad4ad678","85FF1ECF890543F286510B62FA7079D0-2025-08-28-02-27-47","","610","","images/semantic_sequence/housework_semantic/housework_semantic_9.png","0","",""
"","","","","","image-button-response","109","802946","0.0-14.0-1.0-2.6","85FF1ECF890543F286510B62FA7079D0","85FF1ECF890543F286510B62FA7079D0","0198ee49-34b7-76e9-9f4d-43a6b1ecfb61","0198ee3c-27ac-7803-a9ea-f3b4ad4ad678","{""num_scrambled_semantic"":""8"",""num_scrambled_causal"":""4"",""num_scrambled_schematic"":""4"",""participantId"":""85FF1ECF890543F286510B62FA7079D0"",""assignmentId"":""0198ee49-34b7-76e9-9f4d-43a6b1ecfb61"",""projectId"":""0198ee3c-27ac-7803-a9ea-f3b4ad4ad678""}","https://test12345.live/?num_scrambled_semantic=8&num_scrambled_causal=4&num_scrambled_schematic=4&participantId=85FF1ECF890543F286510B62FA7079D0&assignmentId=0198ee49-34b7-76e9-9f4d-43a6b1ecfb61&projectId=0198ee3c-27ac-7803-a9ea-f3b4ad4ad678","85FF1ECF890543F286510B62FA7079D0-2025-08-28-02-27-47","","null","","[]","null","",""
"","","","","","image-button-response","110","807458","0.0-14.0-1.0-0.7","85FF1ECF890543F286510B62FA7079D0","85FF1ECF890543F286510B62FA7079D0","0198ee49-34b7-76e9-9f4d-43a6b1ecfb61","0198ee3c-27ac-7803-a9ea-f3b4ad4ad678","{""num_scrambled_semantic"":""8"",""num_scrambled_causal"":""4"",""num_scrambled_schematic"":""4"",""participantId"":""85FF1ECF890543F286510B62FA7079D0"",""assignmentId"":""0198ee49-34b7-76e9-9f4d-43a6b1ecfb61"",""projectId"":""0198ee3c-27ac-7803-a9ea-f3b4ad4ad678""}","https://test12345.live/?num_scrambled_semantic=8&num_scrambled_causal=4&num_scrambled_schematic=4&participantId=85FF1ECF890543F286510B62FA7079D0&assignmentId=0198ee49-34b7-76e9-9f4d-43a6b1ecfb61&projectId=0198ee3c-27ac-7803-a9ea-f3b4ad4ad678","85FF1ECF890543F286510B62FA7079D0-2025-08-28-02-27-47","","null","","images/semantic_sequence/housework_semantic/housework_semantic_4.png","null","",""
"","","","","","image-button-response","111","808516","0.0-14.0-1.0-1.7","85FF1ECF890543F286510B62FA7079D0","85FF1ECF890543F286510B62FA7079D0","0198ee49-34b7-76e9-9f4d-43a6b1ecfb61","0198ee3c-27ac-7803-a9ea-f3b4ad4ad678","{""num_scrambled_semantic"":""8"",""num_scrambled_causal"":""4"",""num_scrambled_schematic"":""4"",""participantId"":""85FF1ECF890543F286510B62FA7079D0"",""assignmentId"":""0198ee49-34b7-76e9-9f4d-43a6b1ecfb61"",""projectId"":""0198ee3c-27ac-7803-a9ea-f3b4ad4ad678""}","https://test12345.live/?num_scrambled_semantic=8&num_scrambled_causal=4&num_scrambled_schematic=4&participantId=85FF1ECF890543F286510B62FA7079D0&assignmentId=0198ee49-34b7-76e9-9f4d-43a6b1ecfb61&projectId=0198ee3c-27ac-7803-a9ea-f3b4ad4ad678","85FF1ECF890543F286510B62FA7079D0-2025-08-28-02-27-47","","1057","","images/semantic_sequence/housework_semantic/housework_semantic_4.png","0","",""
"","","","","","image-button-response","112","810323","0.0-14.0-1.0-2.7","85FF1ECF890543F286510B62FA7079D0","85FF1ECF890543F286510B62FA7079D0","0198ee49-34b7-76e9-9f4d-43a6b1ecfb61","0198ee3c-27ac-7803-a9ea-f3b4ad4ad678","{""num_scrambled_semantic"":""8"",""num_scrambled_causal"":""4"",""num_scrambled_schematic"":""4"",""participantId"":""85FF1ECF890543F286510B62FA7079D0"",""assignmentId"":""0198ee49-34b7-76e9-9f4d-43a6b1ecfb61"",""projectId"":""0198ee3c-27ac-7803-a9ea-f3b4ad4ad678""}","https://test12345.live/?num_scrambled_semantic=8&num_scrambled_causal=4&num_scrambled_schematic=4&participantId=85FF1ECF890543F286510B62FA7079D0&assignmentId=0198ee49-34b7-76e9-9f4d-43a6b1ecfb61&projectId=0198ee3c-27ac-7803-a9ea-f3b4ad4ad678","85FF1ECF890543F286510B62FA7079D0-2025-08-28-02-27-47","","null","","[]","null","",""
"","","","","","image-button-response","113","814829","0.0-14.0-1.0-0.8","85FF1ECF890543F286510B62FA7079D0","85FF1ECF890543F286510B62FA7079D0","0198ee49-34b7-76e9-9f4d-43a6b1ecfb61","0198ee3c-27ac-7803-a9ea-f3b4ad4ad678","{""num_scrambled_semantic"":""8"",""num_scrambled_causal"":""4"",""num_scrambled_schematic"":""4"",""participantId"":""85FF1ECF890543F286510B62FA7079D0"",""assignmentId"":""0198ee49-34b7-76e9-9f4d-43a6b1ecfb61"",""projectId"":""0198ee3c-27ac-7803-a9ea-f3b4ad4ad678""}","https://test12345.live/?num_scrambled_semantic=8&num_scrambled_causal=4&num_scrambled_schematic=4&participantId=85FF1ECF890543F286510B62FA7079D0&assignmentId=0198ee49-34b7-76e9-9f4d-43a6b1ecfb61&projectId=0198ee3c-27ac-7803-a9ea-f3b4ad4ad678","85FF1ECF890543F286510B62FA7079D0-2025-08-28-02-27-47","","null","","images/semantic_sequence/housework_semantic/housework_semantic_6.png","null","",""
"","","","","","image-button-response","114","815388","0.0-14.0-1.0-1.8","85FF1ECF890543F286510B62FA7079D0","85FF1ECF890543F286510B62FA7079D0","0198ee49-34b7-76e9-9f4d-43a6b1ecfb61","0198ee3c-27ac-7803-a9ea-f3b4ad4ad678","{""num_scrambled_semantic"":""8"",""num_scrambled_causal"":""4"",""num_scrambled_schematic"":""4"",""participantId"":""85FF1ECF890543F286510B62FA7079D0"",""assignmentId"":""0198ee49-34b7-76e9-9f4d-43a6b1ecfb61"",""projectId"":""0198ee3c-27ac-7803-a9ea-f3b4ad4ad678""}","https://test12345.live/?num_scrambled_semantic=8&num_scrambled_causal=4&num_scrambled_schematic=4&participantId=85FF1ECF890543F286510B62FA7079D0&assignmentId=0198ee49-34b7-76e9-9f4d-43a6b1ecfb61&projectId=0198ee3c-27ac-7803-a9ea-f3b4ad4ad678","85FF1ECF890543F286510B62FA7079D0-2025-08-28-02-27-47","","559","","images/semantic_sequence/housework_semantic/housework_semantic_6.png","0","",""
