"success","timeout","failed_images","failed_audio","failed_video","trial_type","trial_index","time_elapsed","internal_node_id","subject","subject_id","study_id","session_id","urlvar","current_url","audio_id","view_history","rt","device_id","stimulus","response","estimated_stimulus_onset","seq_name"
"true","false","[]","[]","[]","preload","0","8995","0.0-0.0","879E34425DB343C1990ACDF765F0D7F3","879E34425DB343C1990ACDF765F0D7F3","0198be2c-b300-7f2c-8bca-6a64410d7370","0198be1d-574a-752e-ae53-1d263a30e856","{""num_scrambled_semantic"":""8"",""num_scrambled_causal"":""4"",""num_scrambled_schematic"":""4"",""participantId"":""879E34425DB343C1990ACDF765F0D7F3"",""assignmentId"":""0198be2c-b300-7f2c-8bca-6a64410d7370"",""projectId"":""0198be1d-574a-752e-ae53-1d263a30e856""}","https://test12345.live/?num_scrambled_semantic=8&num_scrambled_causal=4&num_scrambled_schematic=4&participantId=879E34425DB343C1990ACDF765F0D7F3&assignmentId=0198be2c-b300-7f2c-8bca-6a64410d7370&projectId=0198be1d-574a-752e-ae53-1d263a30e856","879E34425DB343C1990ACDF765F0D7F3-2025-08-18-17-54-45","","","","","","",""
"","","","","","instructions","1","54710","0.0-1.0","879E34425DB343C1990ACDF765F0D7F3","879E34425DB343C1990ACDF765F0D7F3","0198be2c-b300-7f2c-8bca-6a64410d7370","0198be1d-574a-752e-ae53-1d263a30e856","{""num_scrambled_semantic"":""8"",""num_scrambled_causal"":""4"",""num_scrambled_schematic"":""4"",""participantId"":""879E34425DB343C1990ACDF765F0D7F3"",""assignmentId"":""0198be2c-b300-7f2c-8bca-6a64410d7370"",""projectId"":""0198be1d-574a-752e-ae53-1d263a30e856""}","https://test12345.live/?num_scrambled_semantic=8&num_scrambled_causal=4&num_scrambled_schematic=4&participantId=879E34425DB343C1990ACDF765F0D7F3&assignmentId=0198be2c-b300-7f2c-8bca-6a64410d7370&projectId=0198be1d-574a-752e-ae53-1d263a30e856","879E34425DB343C1990ACDF765F0D7F3-2025-08-18-17-54-45","[{""page_index"":0,""viewing_time"":45714}]","45715","","","","",""
"","","","","","instructions","2","102048","0.0-2.0","879E34425DB343C1990ACDF765F0D7F3","879E34425DB343C1990ACDF765F0D7F3","0198be2c-b300-7f2c-8bca-6a64410d7370","0198be1d-574a-752e-ae53-1d263a30e856","{""num_scrambled_semantic"":""8"",""num_scrambled_causal"":""4"",""num_scrambled_schematic"":""4"",""participantId"":""879E34425DB343C1990ACDF765F0D7F3"",""assignmentId"":""0198be2c-b300-7f2c-8bca-6a64410d7370"",""projectId"":""0198be1d-574a-752e-ae53-1d263a30e856""}","https://test12345.live/?num_scrambled_semantic=8&num_scrambled_causal=4&num_scrambled_schematic=4&participantId=879E34425DB343C1990ACDF765F0D7F3&assignmentId=0198be2c-b300-7f2c-8bca-6a64410d7370&projectId=0198be1d-574a-752e-ae53-1d263a30e856","879E34425DB343C1990ACDF765F0D7F3-2025-08-18-17-54-45","[{""page_index"":0,""viewing_time"":47337}]","47337","","","","",""
"true","","","","","fullscreen","3","105755","0.0-3.0","879E34425DB343C1990ACDF765F0D7F3","879E34425DB343C1990ACDF765F0D7F3","0198be2c-b300-7f2c-8bca-6a64410d7370","0198be1d-574a-752e-ae53-1d263a30e856","{""num_scrambled_semantic"":""8"",""num_scrambled_causal"":""4"",""num_scrambled_schematic"":""4"",""participantId"":""879E34425DB343C1990ACDF765F0D7F3"",""assignmentId"":""0198be2c-b300-7f2c-8bca-6a64410d7370"",""projectId"":""0198be1d-574a-752e-ae53-1d263a30e856""}","https://test12345.live/?num_scrambled_semantic=8&num_scrambled_causal=4&num_scrambled_schematic=4&participantId=879E34425DB343C1990ACDF765F0D7F3&assignmentId=0198be2c-b300-7f2c-8bca-6a64410d7370&projectId=0198be1d-574a-752e-ae53-1d263a30e856","879E34425DB343C1990ACDF765F0D7F3-2025-08-18-17-54-45","","2698","","","","",""
"","","","","","initialize-microphone","4","183974","0.0-4.0-0.0","879E34425DB343C1990ACDF765F0D7F3","879E34425DB343C1990ACDF765F0D7F3","0198be2c-b300-7f2c-8bca-6a64410d7370","0198be1d-574a-752e-ae53-1d263a30e856","{""num_scrambled_semantic"":""8"",""num_scrambled_causal"":""4"",""num_scrambled_schematic"":""4"",""participantId"":""879E34425DB343C1990ACDF765F0D7F3"",""assignmentId"":""0198be2c-b300-7f2c-8bca-6a64410d7370"",""projectId"":""0198be1d-574a-752e-ae53-1d263a30e856""}","https://test12345.live/?num_scrambled_semantic=8&num_scrambled_causal=4&num_scrambled_schematic=4&participantId=879E34425DB343C1990ACDF765F0D7F3&assignmentId=0198be2c-b300-7f2c-8bca-6a64410d7370&projectId=0198be1d-574a-752e-ae53-1d263a30e856","879E34425DB343C1990ACDF765F0D7F3-2025-08-18-17-54-45","","","5404eb78759e6a29e34f64582edfde75d2659156bcda1220cd4240ec46a9dd39","","","",""
"","","","","","html-audio-response","5","211888","0.0-4.0-1.0","879E34425DB343C1990ACDF765F0D7F3","879E34425DB343C1990ACDF765F0D7F3","0198be2c-b300-7f2c-8bca-6a64410d7370","0198be1d-574a-752e-ae53-1d263a30e856","{""num_scrambled_semantic"":""8"",""num_scrambled_causal"":""4"",""num_scrambled_schematic"":""4"",""participantId"":""879E34425DB343C1990ACDF765F0D7F3"",""assignmentId"":""0198be2c-b300-7f2c-8bca-6a64410d7370"",""projectId"":""0198be1d-574a-752e-ae53-1d263a30e856""}","https://test12345.live/?num_scrambled_semantic=8&num_scrambled_causal=4&num_scrambled_schematic=4&participantId=879E34425DB343C1990ACDF765F0D7F3&assignmentId=0198be2c-b300-7f2c-8bca-6a64410d7370&projectId=0198be1d-574a-752e-ae53-1d263a30e856","879E34425DB343C1990ACDF765F0D7F3-2025-08-18-17-54-45","","8649","","<span style=""color: red; font-size: 24px""> NOW RECORDING</span>
        <p>Please test Microphone</p>","","6",""
"","","","","","html-button-response","6","214411","0.0-4.0-2.0","879E34425DB343C1990ACDF765F0D7F3","879E34425DB343C1990ACDF765F0D7F3","0198be2c-b300-7f2c-8bca-6a64410d7370","0198be1d-574a-752e-ae53-1d263a30e856","{""num_scrambled_semantic"":""8"",""num_scrambled_causal"":""4"",""num_scrambled_schematic"":""4"",""participantId"":""879E34425DB343C1990ACDF765F0D7F3"",""assignmentId"":""0198be2c-b300-7f2c-8bca-6a64410d7370"",""projectId"":""0198be1d-574a-752e-ae53-1d263a30e856""}","https://test12345.live/?num_scrambled_semantic=8&num_scrambled_causal=4&num_scrambled_schematic=4&participantId=879E34425DB343C1990ACDF765F0D7F3&assignmentId=0198be2c-b300-7f2c-8bca-6a64410d7370&projectId=0198be1d-574a-752e-ae53-1d263a30e856","879E34425DB343C1990ACDF765F0D7F3-2025-08-18-17-54-45","","2521","","<p style=""font-size:48px; color:red;"">Is Microphone OK?</p>","1","",""
"","","","","","instructions","7","225410","0.0-5.0","879E34425DB343C1990ACDF765F0D7F3","879E34425DB343C1990ACDF765F0D7F3","0198be2c-b300-7f2c-8bca-6a64410d7370","0198be1d-574a-752e-ae53-1d263a30e856","{""num_scrambled_semantic"":""8"",""num_scrambled_causal"":""4"",""num_scrambled_schematic"":""4"",""participantId"":""879E34425DB343C1990ACDF765F0D7F3"",""assignmentId"":""0198be2c-b300-7f2c-8bca-6a64410d7370"",""projectId"":""0198be1d-574a-752e-ae53-1d263a30e856""}","https://test12345.live/?num_scrambled_semantic=8&num_scrambled_causal=4&num_scrambled_schematic=4&participantId=879E34425DB343C1990ACDF765F0D7F3&assignmentId=0198be2c-b300-7f2c-8bca-6a64410d7370&projectId=0198be1d-574a-752e-ae53-1d263a30e856","879E34425DB343C1990ACDF765F0D7F3-2025-08-18-17-54-45","[{""page_index"":0,""viewing_time"":4099},{""page_index"":1,""viewing_time"":6900}]","10999","","","","",""
"","","","","","image-button-response","8","231417","0.0-6.0-0.0","879E34425DB343C1990ACDF765F0D7F3","879E34425DB343C1990ACDF765F0D7F3","0198be2c-b300-7f2c-8bca-6a64410d7370","0198be1d-574a-752e-ae53-1d263a30e856","{""num_scrambled_semantic"":""8"",""num_scrambled_causal"":""4"",""num_scrambled_schematic"":""4"",""participantId"":""879E34425DB343C1990ACDF765F0D7F3"",""assignmentId"":""0198be2c-b300-7f2c-8bca-6a64410d7370"",""projectId"":""0198be1d-574a-752e-ae53-1d263a30e856""}","https://test12345.live/?num_scrambled_semantic=8&num_scrambled_causal=4&num_scrambled_schematic=4&participantId=879E34425DB343C1990ACDF765F0D7F3&assignmentId=0198be2c-b300-7f2c-8bca-6a64410d7370&projectId=0198be1d-574a-752e-ae53-1d263a30e856","879E34425DB343C1990ACDF765F0D7F3-2025-08-18-17-54-45","","null","","images/instructions/movie_0.png","null","",""
"","","","","","image-button-response","9","235937","0.0-6.0-1.0-0.0","879E34425DB343C1990ACDF765F0D7F3","879E34425DB343C1990ACDF765F0D7F3","0198be2c-b300-7f2c-8bca-6a64410d7370","0198be1d-574a-752e-ae53-1d263a30e856","{""num_scrambled_semantic"":""8"",""num_scrambled_causal"":""4"",""num_scrambled_schematic"":""4"",""participantId"":""879E34425DB343C1990ACDF765F0D7F3"",""assignmentId"":""0198be2c-b300-7f2c-8bca-6a64410d7370"",""projectId"":""0198be1d-574a-752e-ae53-1d263a30e856""}","https://test12345.live/?num_scrambled_semantic=8&num_scrambled_causal=4&num_scrambled_schematic=4&participantId=879E34425DB343C1990ACDF765F0D7F3&assignmentId=0198be2c-b300-7f2c-8bca-6a64410d7370&projectId=0198be1d-574a-752e-ae53-1d263a30e856","879E34425DB343C1990ACDF765F0D7F3-2025-08-18-17-54-45","","null","","images/instructions/movie_1.png","null","",""
"","","","","","image-button-response","10","239781","0.0-6.0-1.0-1.0","879E34425DB343C1990ACDF765F0D7F3","879E34425DB343C1990ACDF765F0D7F3","0198be2c-b300-7f2c-8bca-6a64410d7370","0198be1d-574a-752e-ae53-1d263a30e856","{""num_scrambled_semantic"":""8"",""num_scrambled_causal"":""4"",""num_scrambled_schematic"":""4"",""participantId"":""879E34425DB343C1990ACDF765F0D7F3"",""assignmentId"":""0198be2c-b300-7f2c-8bca-6a64410d7370"",""projectId"":""0198be1d-574a-752e-ae53-1d263a30e856""}","https://test12345.live/?num_scrambled_semantic=8&num_scrambled_causal=4&num_scrambled_schematic=4&participantId=879E34425DB343C1990ACDF765F0D7F3&assignmentId=0198be2c-b300-7f2c-8bca-6a64410d7370&projectId=0198be1d-574a-752e-ae53-1d263a30e856","879E34425DB343C1990ACDF765F0D7F3-2025-08-18-17-54-45","","3842","","images/instructions/movie_1.png","0","",""
"","","","","","image-button-response","11","250597","0.0-6.0-1.0-2.0","879E34425DB343C1990ACDF765F0D7F3","879E34425DB343C1990ACDF765F0D7F3","0198be2c-b300-7f2c-8bca-6a64410d7370","0198be1d-574a-752e-ae53-1d263a30e856","{""num_scrambled_semantic"":""8"",""num_scrambled_causal"":""4"",""num_scrambled_schematic"":""4"",""participantId"":""879E34425DB343C1990ACDF765F0D7F3"",""assignmentId"":""0198be2c-b300-7f2c-8bca-6a64410d7370"",""projectId"":""0198be1d-574a-752e-ae53-1d263a30e856""}","https://test12345.live/?num_scrambled_semantic=8&num_scrambled_causal=4&num_scrambled_schematic=4&participantId=879E34425DB343C1990ACDF765F0D7F3&assignmentId=0198be2c-b300-7f2c-8bca-6a64410d7370&projectId=0198be1d-574a-752e-ae53-1d263a30e856","879E34425DB343C1990ACDF765F0D7F3-2025-08-18-17-54-45","","null","","[]","null","",""
"","","","","","image-button-response","12","255107","0.0-6.0-1.0-0.1","879E34425DB343C1990ACDF765F0D7F3","879E34425DB343C1990ACDF765F0D7F3","0198be2c-b300-7f2c-8bca-6a64410d7370","0198be1d-574a-752e-ae53-1d263a30e856","{""num_scrambled_semantic"":""8"",""num_scrambled_causal"":""4"",""num_scrambled_schematic"":""4"",""participantId"":""879E34425DB343C1990ACDF765F0D7F3"",""assignmentId"":""0198be2c-b300-7f2c-8bca-6a64410d7370"",""projectId"":""0198be1d-574a-752e-ae53-1d263a30e856""}","https://test12345.live/?num_scrambled_semantic=8&num_scrambled_causal=4&num_scrambled_schematic=4&participantId=879E34425DB343C1990ACDF765F0D7F3&assignmentId=0198be2c-b300-7f2c-8bca-6a64410d7370&projectId=0198be1d-574a-752e-ae53-1d263a30e856","879E34425DB343C1990ACDF765F0D7F3-2025-08-18-17-54-45","","null","","images/instructions/movie_2.png","null","",""
"","","","","","image-button-response","13","258311","0.0-6.0-1.0-1.1","879E34425DB343C1990ACDF765F0D7F3","879E34425DB343C1990ACDF765F0D7F3","0198be2c-b300-7f2c-8bca-6a64410d7370","0198be1d-574a-752e-ae53-1d263a30e856","{""num_scrambled_semantic"":""8"",""num_scrambled_causal"":""4"",""num_scrambled_schematic"":""4"",""participantId"":""879E34425DB343C1990ACDF765F0D7F3"",""assignmentId"":""0198be2c-b300-7f2c-8bca-6a64410d7370"",""projectId"":""0198be1d-574a-752e-ae53-1d263a30e856""}","https://test12345.live/?num_scrambled_semantic=8&num_scrambled_causal=4&num_scrambled_schematic=4&participantId=879E34425DB343C1990ACDF765F0D7F3&assignmentId=0198be2c-b300-7f2c-8bca-6a64410d7370&projectId=0198be1d-574a-752e-ae53-1d263a30e856","879E34425DB343C1990ACDF765F0D7F3-2025-08-18-17-54-45","","3202","","images/instructions/movie_2.png","0","",""
"","","","","","image-button-response","14","269117","0.0-6.0-1.0-2.1","879E34425DB343C1990ACDF765F0D7F3","879E34425DB343C1990ACDF765F0D7F3","0198be2c-b300-7f2c-8bca-6a64410d7370","0198be1d-574a-752e-ae53-1d263a30e856","{""num_scrambled_semantic"":""8"",""num_scrambled_causal"":""4"",""num_scrambled_schematic"":""4"",""participantId"":""879E34425DB343C1990ACDF765F0D7F3"",""assignmentId"":""0198be2c-b300-7f2c-8bca-6a64410d7370"",""projectId"":""0198be1d-574a-752e-ae53-1d263a30e856""}","https://test12345.live/?num_scrambled_semantic=8&num_scrambled_causal=4&num_scrambled_schematic=4&participantId=879E34425DB343C1990ACDF765F0D7F3&assignmentId=0198be2c-b300-7f2c-8bca-6a64410d7370&projectId=0198be1d-574a-752e-ae53-1d263a30e856","879E34425DB343C1990ACDF765F0D7F3-2025-08-18-17-54-45","","null","","[]","null","",""
"","","","","","image-button-response","15","273627","0.0-6.0-1.0-0.2","879E34425DB343C1990ACDF765F0D7F3","879E34425DB343C1990ACDF765F0D7F3","0198be2c-b300-7f2c-8bca-6a64410d7370","0198be1d-574a-752e-ae53-1d263a30e856","{""num_scrambled_semantic"":""8"",""num_scrambled_causal"":""4"",""num_scrambled_schematic"":""4"",""participantId"":""879E34425DB343C1990ACDF765F0D7F3"",""assignmentId"":""0198be2c-b300-7f2c-8bca-6a64410d7370"",""projectId"":""0198be1d-574a-752e-ae53-1d263a30e856""}","https://test12345.live/?num_scrambled_semantic=8&num_scrambled_causal=4&num_scrambled_schematic=4&participantId=879E34425DB343C1990ACDF765F0D7F3&assignmentId=0198be2c-b300-7f2c-8bca-6a64410d7370&projectId=0198be1d-574a-752e-ae53-1d263a30e856","879E34425DB343C1990ACDF765F0D7F3-2025-08-18-17-54-45","","null","","images/instructions/movie_3.png","null","",""
"","","","","","image-button-response","16","275195","0.0-6.0-1.0-1.2","879E34425DB343C1990ACDF765F0D7F3","879E34425DB343C1990ACDF765F0D7F3","0198be2c-b300-7f2c-8bca-6a64410d7370","0198be1d-574a-752e-ae53-1d263a30e856","{""num_scrambled_semantic"":""8"",""num_scrambled_causal"":""4"",""num_scrambled_schematic"":""4"",""participantId"":""879E34425DB343C1990ACDF765F0D7F3"",""assignmentId"":""0198be2c-b300-7f2c-8bca-6a64410d7370"",""projectId"":""0198be1d-574a-752e-ae53-1d263a30e856""}","https://test12345.live/?num_scrambled_semantic=8&num_scrambled_causal=4&num_scrambled_schematic=4&participantId=879E34425DB343C1990ACDF765F0D7F3&assignmentId=0198be2c-b300-7f2c-8bca-6a64410d7370&projectId=0198be1d-574a-752e-ae53-1d263a30e856","879E34425DB343C1990ACDF765F0D7F3-2025-08-18-17-54-45","","1567","","images/instructions/movie_3.png","0","",""
"","","","","","image-button-response","17","286012","0.0-6.0-1.0-2.2","879E34425DB343C1990ACDF765F0D7F3","879E34425DB343C1990ACDF765F0D7F3","0198be2c-b300-7f2c-8bca-6a64410d7370","0198be1d-574a-752e-ae53-1d263a30e856","{""num_scrambled_semantic"":""8"",""num_scrambled_causal"":""4"",""num_scrambled_schematic"":""4"",""participantId"":""879E34425DB343C1990ACDF765F0D7F3"",""assignmentId"":""0198be2c-b300-7f2c-8bca-6a64410d7370"",""projectId"":""0198be1d-574a-752e-ae53-1d263a30e856""}","https://test12345.live/?num_scrambled_semantic=8&num_scrambled_causal=4&num_scrambled_schematic=4&participantId=879E34425DB343C1990ACDF765F0D7F3&assignmentId=0198be2c-b300-7f2c-8bca-6a64410d7370&projectId=0198be1d-574a-752e-ae53-1d263a30e856","879E34425DB343C1990ACDF765F0D7F3-2025-08-18-17-54-45","","null","","[]","null","",""
"","","","","","image-button-response","18","290517","0.0-6.0-1.0-0.3","879E34425DB343C1990ACDF765F0D7F3","879E34425DB343C1990ACDF765F0D7F3","0198be2c-b300-7f2c-8bca-6a64410d7370","0198be1d-574a-752e-ae53-1d263a30e856","{""num_scrambled_semantic"":""8"",""num_scrambled_causal"":""4"",""num_scrambled_schematic"":""4"",""participantId"":""879E34425DB343C1990ACDF765F0D7F3"",""assignmentId"":""0198be2c-b300-7f2c-8bca-6a64410d7370"",""projectId"":""0198be1d-574a-752e-ae53-1d263a30e856""}","https://test12345.live/?num_scrambled_semantic=8&num_scrambled_causal=4&num_scrambled_schematic=4&participantId=879E34425DB343C1990ACDF765F0D7F3&assignmentId=0198be2c-b300-7f2c-8bca-6a64410d7370&projectId=0198be1d-574a-752e-ae53-1d263a30e856","879E34425DB343C1990ACDF765F0D7F3-2025-08-18-17-54-45","","null","","images/instructions/movie_4.png","null","",""
"","","","","","image-button-response","19","294526","0.0-6.0-1.0-1.3","879E34425DB343C1990ACDF765F0D7F3","879E34425DB343C1990ACDF765F0D7F3","0198be2c-b300-7f2c-8bca-6a64410d7370","0198be1d-574a-752e-ae53-1d263a30e856","{""num_scrambled_semantic"":""8"",""num_scrambled_causal"":""4"",""num_scrambled_schematic"":""4"",""participantId"":""879E34425DB343C1990ACDF765F0D7F3"",""assignmentId"":""0198be2c-b300-7f2c-8bca-6a64410d7370"",""projectId"":""0198be1d-574a-752e-ae53-1d263a30e856""}","https://test12345.live/?num_scrambled_semantic=8&num_scrambled_causal=4&num_scrambled_schematic=4&participantId=879E34425DB343C1990ACDF765F0D7F3&assignmentId=0198be2c-b300-7f2c-8bca-6a64410d7370&projectId=0198be1d-574a-752e-ae53-1d263a30e856","879E34425DB343C1990ACDF765F0D7F3-2025-08-18-17-54-45","","null","","images/instructions/movie_4.png","null","",""
"","","","","","image-button-response","20","305342","0.0-6.0-1.0-2.3","879E34425DB343C1990ACDF765F0D7F3","879E34425DB343C1990ACDF765F0D7F3","0198be2c-b300-7f2c-8bca-6a64410d7370","0198be1d-574a-752e-ae53-1d263a30e856","{""num_scrambled_semantic"":""8"",""num_scrambled_causal"":""4"",""num_scrambled_schematic"":""4"",""participantId"":""879E34425DB343C1990ACDF765F0D7F3"",""assignmentId"":""0198be2c-b300-7f2c-8bca-6a64410d7370"",""projectId"":""0198be1d-574a-752e-ae53-1d263a30e856""}","https://test12345.live/?num_scrambled_semantic=8&num_scrambled_causal=4&num_scrambled_schematic=4&participantId=879E34425DB343C1990ACDF765F0D7F3&assignmentId=0198be2c-b300-7f2c-8bca-6a64410d7370&projectId=0198be1d-574a-752e-ae53-1d263a30e856","879E34425DB343C1990ACDF765F0D7F3-2025-08-18-17-54-45","","null","","[]","null","",""
"","","","","","instructions","21","321890","0.0-7.0","879E34425DB343C1990ACDF765F0D7F3","879E34425DB343C1990ACDF765F0D7F3","0198be2c-b300-7f2c-8bca-6a64410d7370","0198be1d-574a-752e-ae53-1d263a30e856","{""num_scrambled_semantic"":""8"",""num_scrambled_causal"":""4"",""num_scrambled_schematic"":""4"",""participantId"":""879E34425DB343C1990ACDF765F0D7F3"",""assignmentId"":""0198be2c-b300-7f2c-8bca-6a64410d7370"",""projectId"":""0198be1d-574a-752e-ae53-1d263a30e856""}","https://test12345.live/?num_scrambled_semantic=8&num_scrambled_causal=4&num_scrambled_schematic=4&participantId=879E34425DB343C1990ACDF765F0D7F3&assignmentId=0198be2c-b300-7f2c-8bca-6a64410d7370&projectId=0198be1d-574a-752e-ae53-1d263a30e856","879E34425DB343C1990ACDF765F0D7F3-2025-08-18-17-54-45","[{""page_index"":0,""viewing_time"":14367},{""page_index"":1,""viewing_time"":2180}]","16548","","","","",""
"","","","","","html-audio-response","22","351948","0.0-8.0","879E34425DB343C1990ACDF765F0D7F3","879E34425DB343C1990ACDF765F0D7F3","0198be2c-b300-7f2c-8bca-6a64410d7370","0198be1d-574a-752e-ae53-1d263a30e856","{""num_scrambled_semantic"":""8"",""num_scrambled_causal"":""4"",""num_scrambled_schematic"":""4"",""participantId"":""879E34425DB343C1990ACDF765F0D7F3"",""assignmentId"":""0198be2c-b300-7f2c-8bca-6a64410d7370"",""projectId"":""0198be1d-574a-752e-ae53-1d263a30e856""}","https://test12345.live/?num_scrambled_semantic=8&num_scrambled_causal=4&num_scrambled_schematic=4&participantId=879E34425DB343C1990ACDF765F0D7F3&assignmentId=0198be2c-b300-7f2c-8bca-6a64410d7370&projectId=0198be1d-574a-752e-ae53-1d263a30e856","879E34425DB343C1990ACDF765F0D7F3-2025-08-18-17-54-45","","9223","","[""<span style=\""color: red; font-size: 24px\""> NOW RECORDING</span><p>Please say out loud all the images you saw in the exact order you saw them. Try to recall as many images as you can, but remember: getting the order right is more important than the number of images you recall.</p>""]","","2",""
"","","","","","instructions","23","356099","0.0-9.0","879E34425DB343C1990ACDF765F0D7F3","879E34425DB343C1990ACDF765F0D7F3","0198be2c-b300-7f2c-8bca-6a64410d7370","0198be1d-574a-752e-ae53-1d263a30e856","{""num_scrambled_semantic"":""8"",""num_scrambled_causal"":""4"",""num_scrambled_schematic"":""4"",""participantId"":""879E34425DB343C1990ACDF765F0D7F3"",""assignmentId"":""0198be2c-b300-7f2c-8bca-6a64410d7370"",""projectId"":""0198be1d-574a-752e-ae53-1d263a30e856""}","https://test12345.live/?num_scrambled_semantic=8&num_scrambled_causal=4&num_scrambled_schematic=4&participantId=879E34425DB343C1990ACDF765F0D7F3&assignmentId=0198be2c-b300-7f2c-8bca-6a64410d7370&projectId=0198be1d-574a-752e-ae53-1d263a30e856","879E34425DB343C1990ACDF765F0D7F3-2025-08-18-17-54-45","[{""page_index"":0,""viewing_time"":4146}]","4147","","","","",""
"","","","","","image-button-response","24","362116","0.0-10.0-0.0","879E34425DB343C1990ACDF765F0D7F3","879E34425DB343C1990ACDF765F0D7F3","0198be2c-b300-7f2c-8bca-6a64410d7370","0198be1d-574a-752e-ae53-1d263a30e856","{""num_scrambled_semantic"":""8"",""num_scrambled_causal"":""4"",""num_scrambled_schematic"":""4"",""participantId"":""879E34425DB343C1990ACDF765F0D7F3"",""assignmentId"":""0198be2c-b300-7f2c-8bca-6a64410d7370"",""projectId"":""0198be1d-574a-752e-ae53-1d263a30e856""}","https://test12345.live/?num_scrambled_semantic=8&num_scrambled_causal=4&num_scrambled_schematic=4&participantId=879E34425DB343C1990ACDF765F0D7F3&assignmentId=0198be2c-b300-7f2c-8bca-6a64410d7370&projectId=0198be1d-574a-752e-ae53-1d263a30e856","879E34425DB343C1990ACDF765F0D7F3-2025-08-18-17-54-45","","null","","images/causal_sequence/package_causal/package_causal_0.png","null","",""
"","","","","","image-button-response","25","366626","0.0-10.0-1.0-0.0","879E34425DB343C1990ACDF765F0D7F3","879E34425DB343C1990ACDF765F0D7F3","0198be2c-b300-7f2c-8bca-6a64410d7370","0198be1d-574a-752e-ae53-1d263a30e856","{""num_scrambled_semantic"":""8"",""num_scrambled_causal"":""4"",""num_scrambled_schematic"":""4"",""participantId"":""879E34425DB343C1990ACDF765F0D7F3"",""assignmentId"":""0198be2c-b300-7f2c-8bca-6a64410d7370"",""projectId"":""0198be1d-574a-752e-ae53-1d263a30e856""}","https://test12345.live/?num_scrambled_semantic=8&num_scrambled_causal=4&num_scrambled_schematic=4&participantId=879E34425DB343C1990ACDF765F0D7F3&assignmentId=0198be2c-b300-7f2c-8bca-6a64410d7370&projectId=0198be1d-574a-752e-ae53-1d263a30e856","879E34425DB343C1990ACDF765F0D7F3-2025-08-18-17-54-45","","null","","images/causal_sequence/package_causal/package_causal_4.png","null","",""
"","","","","","image-button-response","26","370646","0.0-10.0-1.0-1.0","879E34425DB343C1990ACDF765F0D7F3","879E34425DB343C1990ACDF765F0D7F3","0198be2c-b300-7f2c-8bca-6a64410d7370","0198be1d-574a-752e-ae53-1d263a30e856","{""num_scrambled_semantic"":""8"",""num_scrambled_causal"":""4"",""num_scrambled_schematic"":""4"",""participantId"":""879E34425DB343C1990ACDF765F0D7F3"",""assignmentId"":""0198be2c-b300-7f2c-8bca-6a64410d7370"",""projectId"":""0198be1d-574a-752e-ae53-1d263a30e856""}","https://test12345.live/?num_scrambled_semantic=8&num_scrambled_causal=4&num_scrambled_schematic=4&participantId=879E34425DB343C1990ACDF765F0D7F3&assignmentId=0198be2c-b300-7f2c-8bca-6a64410d7370&projectId=0198be1d-574a-752e-ae53-1d263a30e856","879E34425DB343C1990ACDF765F0D7F3-2025-08-18-17-54-45","","null","","images/causal_sequence/package_causal/package_causal_4.png","null","",""
"","","","","","image-button-response","27","381463","0.0-10.0-1.0-2.0","879E34425DB343C1990ACDF765F0D7F3","879E34425DB343C1990ACDF765F0D7F3","0198be2c-b300-7f2c-8bca-6a64410d7370","0198be1d-574a-752e-ae53-1d263a30e856","{""num_scrambled_semantic"":""8"",""num_scrambled_causal"":""4"",""num_scrambled_schematic"":""4"",""participantId"":""879E34425DB343C1990ACDF765F0D7F3"",""assignmentId"":""0198be2c-b300-7f2c-8bca-6a64410d7370"",""projectId"":""0198be1d-574a-752e-ae53-1d263a30e856""}","https://test12345.live/?num_scrambled_semantic=8&num_scrambled_causal=4&num_scrambled_schematic=4&participantId=879E34425DB343C1990ACDF765F0D7F3&assignmentId=0198be2c-b300-7f2c-8bca-6a64410d7370&projectId=0198be1d-574a-752e-ae53-1d263a30e856","879E34425DB343C1990ACDF765F0D7F3-2025-08-18-17-54-45","","null","","[]","null","",""
"","","","","","image-button-response","28","385966","0.0-10.0-1.0-0.1","879E34425DB343C1990ACDF765F0D7F3","879E34425DB343C1990ACDF765F0D7F3","0198be2c-b300-7f2c-8bca-6a64410d7370","0198be1d-574a-752e-ae53-1d263a30e856","{""num_scrambled_semantic"":""8"",""num_scrambled_causal"":""4"",""num_scrambled_schematic"":""4"",""participantId"":""879E34425DB343C1990ACDF765F0D7F3"",""assignmentId"":""0198be2c-b300-7f2c-8bca-6a64410d7370"",""projectId"":""0198be1d-574a-752e-ae53-1d263a30e856""}","https://test12345.live/?num_scrambled_semantic=8&num_scrambled_causal=4&num_scrambled_schematic=4&participantId=879E34425DB343C1990ACDF765F0D7F3&assignmentId=0198be2c-b300-7f2c-8bca-6a64410d7370&projectId=0198be1d-574a-752e-ae53-1d263a30e856","879E34425DB343C1990ACDF765F0D7F3-2025-08-18-17-54-45","","null","","images/causal_sequence/package_causal/package_causal_2.png","null","",""
"","","","","","image-button-response","29","388910","0.0-10.0-1.0-1.1","879E34425DB343C1990ACDF765F0D7F3","879E34425DB343C1990ACDF765F0D7F3","0198be2c-b300-7f2c-8bca-6a64410d7370","0198be1d-574a-752e-ae53-1d263a30e856","{""num_scrambled_semantic"":""8"",""num_scrambled_causal"":""4"",""num_scrambled_schematic"":""4"",""participantId"":""879E34425DB343C1990ACDF765F0D7F3"",""assignmentId"":""0198be2c-b300-7f2c-8bca-6a64410d7370"",""projectId"":""0198be1d-574a-752e-ae53-1d263a30e856""}","https://test12345.live/?num_scrambled_semantic=8&num_scrambled_causal=4&num_scrambled_schematic=4&participantId=879E34425DB343C1990ACDF765F0D7F3&assignmentId=0198be2c-b300-7f2c-8bca-6a64410d7370&projectId=0198be1d-574a-752e-ae53-1d263a30e856","879E34425DB343C1990ACDF765F0D7F3-2025-08-18-17-54-45","","2943","","images/causal_sequence/package_causal/package_causal_2.png","0","",""
"","","","","","image-button-response","30","399716","0.0-10.0-1.0-2.1","879E34425DB343C1990ACDF765F0D7F3","879E34425DB343C1990ACDF765F0D7F3","0198be2c-b300-7f2c-8bca-6a64410d7370","0198be1d-574a-752e-ae53-1d263a30e856","{""num_scrambled_semantic"":""8"",""num_scrambled_causal"":""4"",""num_scrambled_schematic"":""4"",""participantId"":""879E34425DB343C1990ACDF765F0D7F3"",""assignmentId"":""0198be2c-b300-7f2c-8bca-6a64410d7370"",""projectId"":""0198be1d-574a-752e-ae53-1d263a30e856""}","https://test12345.live/?num_scrambled_semantic=8&num_scrambled_causal=4&num_scrambled_schematic=4&participantId=879E34425DB343C1990ACDF765F0D7F3&assignmentId=0198be2c-b300-7f2c-8bca-6a64410d7370&projectId=0198be1d-574a-752e-ae53-1d263a30e856","879E34425DB343C1990ACDF765F0D7F3-2025-08-18-17-54-45","","null","","[]","null","",""
"","","","","","image-button-response","31","404224","0.0-10.0-1.0-0.2","879E34425DB343C1990ACDF765F0D7F3","879E34425DB343C1990ACDF765F0D7F3","0198be2c-b300-7f2c-8bca-6a64410d7370","0198be1d-574a-752e-ae53-1d263a30e856","{""num_scrambled_semantic"":""8"",""num_scrambled_causal"":""4"",""num_scrambled_schematic"":""4"",""participantId"":""879E34425DB343C1990ACDF765F0D7F3"",""assignmentId"":""0198be2c-b300-7f2c-8bca-6a64410d7370"",""projectId"":""0198be1d-574a-752e-ae53-1d263a30e856""}","https://test12345.live/?num_scrambled_semantic=8&num_scrambled_causal=4&num_scrambled_schematic=4&participantId=879E34425DB343C1990ACDF765F0D7F3&assignmentId=0198be2c-b300-7f2c-8bca-6a64410d7370&projectId=0198be1d-574a-752e-ae53-1d263a30e856","879E34425DB343C1990ACDF765F0D7F3-2025-08-18-17-54-45","","null","","images/causal_sequence/package_causal/package_causal_ten.png","null","",""
"","","","","","image-button-response","32","406710","0.0-10.0-1.0-1.2","879E34425DB343C1990ACDF765F0D7F3","879E34425DB343C1990ACDF765F0D7F3","0198be2c-b300-7f2c-8bca-6a64410d7370","0198be1d-574a-752e-ae53-1d263a30e856","{""num_scrambled_semantic"":""8"",""num_scrambled_causal"":""4"",""num_scrambled_schematic"":""4"",""participantId"":""879E34425DB343C1990ACDF765F0D7F3"",""assignmentId"":""0198be2c-b300-7f2c-8bca-6a64410d7370"",""projectId"":""0198be1d-574a-752e-ae53-1d263a30e856""}","https://test12345.live/?num_scrambled_semantic=8&num_scrambled_causal=4&num_scrambled_schematic=4&participantId=879E34425DB343C1990ACDF765F0D7F3&assignmentId=0198be2c-b300-7f2c-8bca-6a64410d7370&projectId=0198be1d-574a-752e-ae53-1d263a30e856","879E34425DB343C1990ACDF765F0D7F3-2025-08-18-17-54-45","","2484","","images/causal_sequence/package_causal/package_causal_ten.png","0","",""
"","","","","","image-button-response","33","417516","0.0-10.0-1.0-2.2","879E34425DB343C1990ACDF765F0D7F3","879E34425DB343C1990ACDF765F0D7F3","0198be2c-b300-7f2c-8bca-6a64410d7370","0198be1d-574a-752e-ae53-1d263a30e856","{""num_scrambled_semantic"":""8"",""num_scrambled_causal"":""4"",""num_scrambled_schematic"":""4"",""participantId"":""879E34425DB343C1990ACDF765F0D7F3"",""assignmentId"":""0198be2c-b300-7f2c-8bca-6a64410d7370"",""projectId"":""0198be1d-574a-752e-ae53-1d263a30e856""}","https://test12345.live/?num_scrambled_semantic=8&num_scrambled_causal=4&num_scrambled_schematic=4&participantId=879E34425DB343C1990ACDF765F0D7F3&assignmentId=0198be2c-b300-7f2c-8bca-6a64410d7370&projectId=0198be1d-574a-752e-ae53-1d263a30e856","879E34425DB343C1990ACDF765F0D7F3-2025-08-18-17-54-45","","null","","[]","null","",""
"","","","","","image-button-response","34","422025","0.0-10.0-1.0-0.3","879E34425DB343C1990ACDF765F0D7F3","879E34425DB343C1990ACDF765F0D7F3","0198be2c-b300-7f2c-8bca-6a64410d7370","0198be1d-574a-752e-ae53-1d263a30e856","{""num_scrambled_semantic"":""8"",""num_scrambled_causal"":""4"",""num_scrambled_schematic"":""4"",""participantId"":""879E34425DB343C1990ACDF765F0D7F3"",""assignmentId"":""0198be2c-b300-7f2c-8bca-6a64410d7370"",""projectId"":""0198be1d-574a-752e-ae53-1d263a30e856""}","https://test12345.live/?num_scrambled_semantic=8&num_scrambled_causal=4&num_scrambled_schematic=4&participantId=879E34425DB343C1990ACDF765F0D7F3&assignmentId=0198be2c-b300-7f2c-8bca-6a64410d7370&projectId=0198be1d-574a-752e-ae53-1d263a30e856","879E34425DB343C1990ACDF765F0D7F3-2025-08-18-17-54-45","","null","","images/causal_sequence/package_causal/package_causal_6.png","null","",""
"","","","","","image-button-response","35","424129","0.0-10.0-1.0-1.3","879E34425DB343C1990ACDF765F0D7F3","879E34425DB343C1990ACDF765F0D7F3","0198be2c-b300-7f2c-8bca-6a64410d7370","0198be1d-574a-752e-ae53-1d263a30e856","{""num_scrambled_semantic"":""8"",""num_scrambled_causal"":""4"",""num_scrambled_schematic"":""4"",""participantId"":""879E34425DB343C1990ACDF765F0D7F3"",""assignmentId"":""0198be2c-b300-7f2c-8bca-6a64410d7370"",""projectId"":""0198be1d-574a-752e-ae53-1d263a30e856""}","https://test12345.live/?num_scrambled_semantic=8&num_scrambled_causal=4&num_scrambled_schematic=4&participantId=879E34425DB343C1990ACDF765F0D7F3&assignmentId=0198be2c-b300-7f2c-8bca-6a64410d7370&projectId=0198be1d-574a-752e-ae53-1d263a30e856","879E34425DB343C1990ACDF765F0D7F3-2025-08-18-17-54-45","","2102","","images/causal_sequence/package_causal/package_causal_6.png","0","",""
"","","","","","image-button-response","36","434946","0.0-10.0-1.0-2.3","879E34425DB343C1990ACDF765F0D7F3","879E34425DB343C1990ACDF765F0D7F3","0198be2c-b300-7f2c-8bca-6a64410d7370","0198be1d-574a-752e-ae53-1d263a30e856","{""num_scrambled_semantic"":""8"",""num_scrambled_causal"":""4"",""num_scrambled_schematic"":""4"",""participantId"":""879E34425DB343C1990ACDF765F0D7F3"",""assignmentId"":""0198be2c-b300-7f2c-8bca-6a64410d7370"",""projectId"":""0198be1d-574a-752e-ae53-1d263a30e856""}","https://test12345.live/?num_scrambled_semantic=8&num_scrambled_causal=4&num_scrambled_schematic=4&participantId=879E34425DB343C1990ACDF765F0D7F3&assignmentId=0198be2c-b300-7f2c-8bca-6a64410d7370&projectId=0198be1d-574a-752e-ae53-1d263a30e856","879E34425DB343C1990ACDF765F0D7F3-2025-08-18-17-54-45","","null","","[]","null","",""
"","","","","","image-button-response","37","439448","0.0-10.0-1.0-0.4","879E34425DB343C1990ACDF765F0D7F3","879E34425DB343C1990ACDF765F0D7F3","0198be2c-b300-7f2c-8bca-6a64410d7370","0198be1d-574a-752e-ae53-1d263a30e856","{""num_scrambled_semantic"":""8"",""num_scrambled_causal"":""4"",""num_scrambled_schematic"":""4"",""participantId"":""879E34425DB343C1990ACDF765F0D7F3"",""assignmentId"":""0198be2c-b300-7f2c-8bca-6a64410d7370"",""projectId"":""0198be1d-574a-752e-ae53-1d263a30e856""}","https://test12345.live/?num_scrambled_semantic=8&num_scrambled_causal=4&num_scrambled_schematic=4&participantId=879E34425DB343C1990ACDF765F0D7F3&assignmentId=0198be2c-b300-7f2c-8bca-6a64410d7370&projectId=0198be1d-574a-752e-ae53-1d263a30e856","879E34425DB343C1990ACDF765F0D7F3-2025-08-18-17-54-45","","null","","images/causal_sequence/package_causal/package_causal_8.png","null","",""
"","","","","","image-button-response","38","441789","0.0-10.0-1.0-1.4","879E34425DB343C1990ACDF765F0D7F3","879E34425DB343C1990ACDF765F0D7F3","0198be2c-b300-7f2c-8bca-6a64410d7370","0198be1d-574a-752e-ae53-1d263a30e856","{""num_scrambled_semantic"":""8"",""num_scrambled_causal"":""4"",""num_scrambled_schematic"":""4"",""participantId"":""879E34425DB343C1990ACDF765F0D7F3"",""assignmentId"":""0198be2c-b300-7f2c-8bca-6a64410d7370"",""projectId"":""0198be1d-574a-752e-ae53-1d263a30e856""}","https://test12345.live/?num_scrambled_semantic=8&num_scrambled_causal=4&num_scrambled_schematic=4&participantId=879E34425DB343C1990ACDF765F0D7F3&assignmentId=0198be2c-b300-7f2c-8bca-6a64410d7370&projectId=0198be1d-574a-752e-ae53-1d263a30e856","879E34425DB343C1990ACDF765F0D7F3-2025-08-18-17-54-45","","2340","","images/causal_sequence/package_causal/package_causal_8.png","0","",""
"","","","","","image-button-response","39","452600","0.0-10.0-1.0-2.4","879E34425DB343C1990ACDF765F0D7F3","879E34425DB343C1990ACDF765F0D7F3","0198be2c-b300-7f2c-8bca-6a64410d7370","0198be1d-574a-752e-ae53-1d263a30e856","{""num_scrambled_semantic"":""8"",""num_scrambled_causal"":""4"",""num_scrambled_schematic"":""4"",""participantId"":""879E34425DB343C1990ACDF765F0D7F3"",""assignmentId"":""0198be2c-b300-7f2c-8bca-6a64410d7370"",""projectId"":""0198be1d-574a-752e-ae53-1d263a30e856""}","https://test12345.live/?num_scrambled_semantic=8&num_scrambled_causal=4&num_scrambled_schematic=4&participantId=879E34425DB343C1990ACDF765F0D7F3&assignmentId=0198be2c-b300-7f2c-8bca-6a64410d7370&projectId=0198be1d-574a-752e-ae53-1d263a30e856","879E34425DB343C1990ACDF765F0D7F3-2025-08-18-17-54-45","","null","","[]","null","",""
"","","","","","image-button-response","40","457110","0.0-10.0-1.0-0.5","879E34425DB343C1990ACDF765F0D7F3","879E34425DB343C1990ACDF765F0D7F3","0198be2c-b300-7f2c-8bca-6a64410d7370","0198be1d-574a-752e-ae53-1d263a30e856","{""num_scrambled_semantic"":""8"",""num_scrambled_causal"":""4"",""num_scrambled_schematic"":""4"",""participantId"":""879E34425DB343C1990ACDF765F0D7F3"",""assignmentId"":""0198be2c-b300-7f2c-8bca-6a64410d7370"",""projectId"":""0198be1d-574a-752e-ae53-1d263a30e856""}","https://test12345.live/?num_scrambled_semantic=8&num_scrambled_causal=4&num_scrambled_schematic=4&participantId=879E34425DB343C1990ACDF765F0D7F3&assignmentId=0198be2c-b300-7f2c-8bca-6a64410d7370&projectId=0198be1d-574a-752e-ae53-1d263a30e856","879E34425DB343C1990ACDF765F0D7F3-2025-08-18-17-54-45","","null","","images/causal_sequence/package_causal/package_causal_7.png","null","",""
"","","","","","image-button-response","41","459308","0.0-10.0-1.0-1.5","879E34425DB343C1990ACDF765F0D7F3","879E34425DB343C1990ACDF765F0D7F3","0198be2c-b300-7f2c-8bca-6a64410d7370","0198be1d-574a-752e-ae53-1d263a30e856","{""num_scrambled_semantic"":""8"",""num_scrambled_causal"":""4"",""num_scrambled_schematic"":""4"",""participantId"":""879E34425DB343C1990ACDF765F0D7F3"",""assignmentId"":""0198be2c-b300-7f2c-8bca-6a64410d7370"",""projectId"":""0198be1d-574a-752e-ae53-1d263a30e856""}","https://test12345.live/?num_scrambled_semantic=8&num_scrambled_causal=4&num_scrambled_schematic=4&participantId=879E34425DB343C1990ACDF765F0D7F3&assignmentId=0198be2c-b300-7f2c-8bca-6a64410d7370&projectId=0198be1d-574a-752e-ae53-1d263a30e856","879E34425DB343C1990ACDF765F0D7F3-2025-08-18-17-54-45","","2197","","images/causal_sequence/package_causal/package_causal_7.png","0","",""
"","","","","","image-button-response","42","470125","0.0-10.0-1.0-2.5","879E34425DB343C1990ACDF765F0D7F3","879E34425DB343C1990ACDF765F0D7F3","0198be2c-b300-7f2c-8bca-6a64410d7370","0198be1d-574a-752e-ae53-1d263a30e856","{""num_scrambled_semantic"":""8"",""num_scrambled_causal"":""4"",""num_scrambled_schematic"":""4"",""participantId"":""879E34425DB343C1990ACDF765F0D7F3"",""assignmentId"":""0198be2c-b300-7f2c-8bca-6a64410d7370"",""projectId"":""0198be1d-574a-752e-ae53-1d263a30e856""}","https://test12345.live/?num_scrambled_semantic=8&num_scrambled_causal=4&num_scrambled_schematic=4&participantId=879E34425DB343C1990ACDF765F0D7F3&assignmentId=0198be2c-b300-7f2c-8bca-6a64410d7370&projectId=0198be1d-574a-752e-ae53-1d263a30e856","879E34425DB343C1990ACDF765F0D7F3-2025-08-18-17-54-45","","null","","[]","null","",""
"","","","","","image-button-response","43","474633","0.0-10.0-1.0-0.6","879E34425DB343C1990ACDF765F0D7F3","879E34425DB343C1990ACDF765F0D7F3","0198be2c-b300-7f2c-8bca-6a64410d7370","0198be1d-574a-752e-ae53-1d263a30e856","{""num_scrambled_semantic"":""8"",""num_scrambled_causal"":""4"",""num_scrambled_schematic"":""4"",""participantId"":""879E34425DB343C1990ACDF765F0D7F3"",""assignmentId"":""0198be2c-b300-7f2c-8bca-6a64410d7370"",""projectId"":""0198be1d-574a-752e-ae53-1d263a30e856""}","https://test12345.live/?num_scrambled_semantic=8&num_scrambled_causal=4&num_scrambled_schematic=4&participantId=879E34425DB343C1990ACDF765F0D7F3&assignmentId=0198be2c-b300-7f2c-8bca-6a64410d7370&projectId=0198be1d-574a-752e-ae53-1d263a30e856","879E34425DB343C1990ACDF765F0D7F3-2025-08-18-17-54-45","","null","","images/causal_sequence/package_causal/package_causal_1.png","null","",""
"","","","","","image-button-response","44","476134","0.0-10.0-1.0-1.6","879E34425DB343C1990ACDF765F0D7F3","879E34425DB343C1990ACDF765F0D7F3","0198be2c-b300-7f2c-8bca-6a64410d7370","0198be1d-574a-752e-ae53-1d263a30e856","{""num_scrambled_semantic"":""8"",""num_scrambled_causal"":""4"",""num_scrambled_schematic"":""4"",""participantId"":""879E34425DB343C1990ACDF765F0D7F3"",""assignmentId"":""0198be2c-b300-7f2c-8bca-6a64410d7370"",""projectId"":""0198be1d-574a-752e-ae53-1d263a30e856""}","https://test12345.live/?num_scrambled_semantic=8&num_scrambled_causal=4&num_scrambled_schematic=4&participantId=879E34425DB343C1990ACDF765F0D7F3&assignmentId=0198be2c-b300-7f2c-8bca-6a64410d7370&projectId=0198be1d-574a-752e-ae53-1d263a30e856","879E34425DB343C1990ACDF765F0D7F3-2025-08-18-17-54-45","","1500","","images/causal_sequence/package_causal/package_causal_1.png","0","",""
"","","","","","image-button-response","45","486935","0.0-10.0-1.0-2.6","879E34425DB343C1990ACDF765F0D7F3","879E34425DB343C1990ACDF765F0D7F3","0198be2c-b300-7f2c-8bca-6a64410d7370","0198be1d-574a-752e-ae53-1d263a30e856","{""num_scrambled_semantic"":""8"",""num_scrambled_causal"":""4"",""num_scrambled_schematic"":""4"",""participantId"":""879E34425DB343C1990ACDF765F0D7F3"",""assignmentId"":""0198be2c-b300-7f2c-8bca-6a64410d7370"",""projectId"":""0198be1d-574a-752e-ae53-1d263a30e856""}","https://test12345.live/?num_scrambled_semantic=8&num_scrambled_causal=4&num_scrambled_schematic=4&participantId=879E34425DB343C1990ACDF765F0D7F3&assignmentId=0198be2c-b300-7f2c-8bca-6a64410d7370&projectId=0198be1d-574a-752e-ae53-1d263a30e856","879E34425DB343C1990ACDF765F0D7F3-2025-08-18-17-54-45","","null","","[]","null","",""
"","","","","","image-button-response","46","491450","0.0-10.0-1.0-0.7","879E34425DB343C1990ACDF765F0D7F3","879E34425DB343C1990ACDF765F0D7F3","0198be2c-b300-7f2c-8bca-6a64410d7370","0198be1d-574a-752e-ae53-1d263a30e856","{""num_scrambled_semantic"":""8"",""num_scrambled_causal"":""4"",""num_scrambled_schematic"":""4"",""participantId"":""879E34425DB343C1990ACDF765F0D7F3"",""assignmentId"":""0198be2c-b300-7f2c-8bca-6a64410d7370"",""projectId"":""0198be1d-574a-752e-ae53-1d263a30e856""}","https://test12345.live/?num_scrambled_semantic=8&num_scrambled_causal=4&num_scrambled_schematic=4&participantId=879E34425DB343C1990ACDF765F0D7F3&assignmentId=0198be2c-b300-7f2c-8bca-6a64410d7370&projectId=0198be1d-574a-752e-ae53-1d263a30e856","879E34425DB343C1990ACDF765F0D7F3-2025-08-18-17-54-45","","null","","images/causal_sequence/package_causal/package_causal_5.png","null","",""
"","","","","","image-button-response","47","493474","0.0-10.0-1.0-1.7","879E34425DB343C1990ACDF765F0D7F3","879E34425DB343C1990ACDF765F0D7F3","0198be2c-b300-7f2c-8bca-6a64410d7370","0198be1d-574a-752e-ae53-1d263a30e856","{""num_scrambled_semantic"":""8"",""num_scrambled_causal"":""4"",""num_scrambled_schematic"":""4"",""participantId"":""879E34425DB343C1990ACDF765F0D7F3"",""assignmentId"":""0198be2c-b300-7f2c-8bca-6a64410d7370"",""projectId"":""0198be1d-574a-752e-ae53-1d263a30e856""}","https://test12345.live/?num_scrambled_semantic=8&num_scrambled_causal=4&num_scrambled_schematic=4&participantId=879E34425DB343C1990ACDF765F0D7F3&assignmentId=0198be2c-b300-7f2c-8bca-6a64410d7370&projectId=0198be1d-574a-752e-ae53-1d263a30e856","879E34425DB343C1990ACDF765F0D7F3-2025-08-18-17-54-45","","2022","","images/causal_sequence/package_causal/package_causal_5.png","0","",""
"","","","","","image-button-response","48","504279","0.0-10.0-1.0-2.7","879E34425DB343C1990ACDF765F0D7F3","879E34425DB343C1990ACDF765F0D7F3","0198be2c-b300-7f2c-8bca-6a64410d7370","0198be1d-574a-752e-ae53-1d263a30e856","{""num_scrambled_semantic"":""8"",""num_scrambled_causal"":""4"",""num_scrambled_schematic"":""4"",""participantId"":""879E34425DB343C1990ACDF765F0D7F3"",""assignmentId"":""0198be2c-b300-7f2c-8bca-6a64410d7370"",""projectId"":""0198be1d-574a-752e-ae53-1d263a30e856""}","https://test12345.live/?num_scrambled_semantic=8&num_scrambled_causal=4&num_scrambled_schematic=4&participantId=879E34425DB343C1990ACDF765F0D7F3&assignmentId=0198be2c-b300-7f2c-8bca-6a64410d7370&projectId=0198be1d-574a-752e-ae53-1d263a30e856","879E34425DB343C1990ACDF765F0D7F3-2025-08-18-17-54-45","","null","","[]","null","",""
"","","","","","image-button-response","49","508783","0.0-10.0-1.0-0.8","879E34425DB343C1990ACDF765F0D7F3","879E34425DB343C1990ACDF765F0D7F3","0198be2c-b300-7f2c-8bca-6a64410d7370","0198be1d-574a-752e-ae53-1d263a30e856","{""num_scrambled_semantic"":""8"",""num_scrambled_causal"":""4"",""num_scrambled_schematic"":""4"",""participantId"":""879E34425DB343C1990ACDF765F0D7F3"",""assignmentId"":""0198be2c-b300-7f2c-8bca-6a64410d7370"",""projectId"":""0198be1d-574a-752e-ae53-1d263a30e856""}","https://test12345.live/?num_scrambled_semantic=8&num_scrambled_causal=4&num_scrambled_schematic=4&participantId=879E34425DB343C1990ACDF765F0D7F3&assignmentId=0198be2c-b300-7f2c-8bca-6a64410d7370&projectId=0198be1d-574a-752e-ae53-1d263a30e856","879E34425DB343C1990ACDF765F0D7F3-2025-08-18-17-54-45","","null","","images/causal_sequence/package_causal/package_causal_3.png","null","",""
"","","","","","image-button-response","50","510786","0.0-10.0-1.0-1.8","879E34425DB343C1990ACDF765F0D7F3","879E34425DB343C1990ACDF765F0D7F3","0198be2c-b300-7f2c-8bca-6a64410d7370","0198be1d-574a-752e-ae53-1d263a30e856","{""num_scrambled_semantic"":""8"",""num_scrambled_causal"":""4"",""num_scrambled_schematic"":""4"",""participantId"":""879E34425DB343C1990ACDF765F0D7F3"",""assignmentId"":""0198be2c-b300-7f2c-8bca-6a64410d7370"",""projectId"":""0198be1d-574a-752e-ae53-1d263a30e856""}","https://test12345.live/?num_scrambled_semantic=8&num_scrambled_causal=4&num_scrambled_schematic=4&participantId=879E34425DB343C1990ACDF765F0D7F3&assignmentId=0198be2c-b300-7f2c-8bca-6a64410d7370&projectId=0198be1d-574a-752e-ae53-1d263a30e856","879E34425DB343C1990ACDF765F0D7F3-2025-08-18-17-54-45","","2001","","images/causal_sequence/package_causal/package_causal_3.png","0","",""
"","","","","","image-button-response","51","521595","0.0-10.0-1.0-2.8","879E34425DB343C1990ACDF765F0D7F3","879E34425DB343C1990ACDF765F0D7F3","0198be2c-b300-7f2c-8bca-6a64410d7370","0198be1d-574a-752e-ae53-1d263a30e856","{""num_scrambled_semantic"":""8"",""num_scrambled_causal"":""4"",""num_scrambled_schematic"":""4"",""participantId"":""879E34425DB343C1990ACDF765F0D7F3"",""assignmentId"":""0198be2c-b300-7f2c-8bca-6a64410d7370"",""projectId"":""0198be1d-574a-752e-ae53-1d263a30e856""}","https://test12345.live/?num_scrambled_semantic=8&num_scrambled_causal=4&num_scrambled_schematic=4&participantId=879E34425DB343C1990ACDF765F0D7F3&assignmentId=0198be2c-b300-7f2c-8bca-6a64410d7370&projectId=0198be1d-574a-752e-ae53-1d263a30e856","879E34425DB343C1990ACDF765F0D7F3-2025-08-18-17-54-45","","null","","[]","null","",""
"","","","","","image-button-response","52","526105","0.0-10.0-1.0-0.9","879E34425DB343C1990ACDF765F0D7F3","879E34425DB343C1990ACDF765F0D7F3","0198be2c-b300-7f2c-8bca-6a64410d7370","0198be1d-574a-752e-ae53-1d263a30e856","{""num_scrambled_semantic"":""8"",""num_scrambled_causal"":""4"",""num_scrambled_schematic"":""4"",""participantId"":""879E34425DB343C1990ACDF765F0D7F3"",""assignmentId"":""0198be2c-b300-7f2c-8bca-6a64410d7370"",""projectId"":""0198be1d-574a-752e-ae53-1d263a30e856""}","https://test12345.live/?num_scrambled_semantic=8&num_scrambled_causal=4&num_scrambled_schematic=4&participantId=879E34425DB343C1990ACDF765F0D7F3&assignmentId=0198be2c-b300-7f2c-8bca-6a64410d7370&projectId=0198be1d-574a-752e-ae53-1d263a30e856","879E34425DB343C1990ACDF765F0D7F3-2025-08-18-17-54-45","","null","","images/causal_sequence/package_causal/package_causal_9.png","null","",""
"","","","","","image-button-response","53","527918","0.0-10.0-1.0-1.9","879E34425DB343C1990ACDF765F0D7F3","879E34425DB343C1990ACDF765F0D7F3","0198be2c-b300-7f2c-8bca-6a64410d7370","0198be1d-574a-752e-ae53-1d263a30e856","{""num_scrambled_semantic"":""8"",""num_scrambled_causal"":""4"",""num_scrambled_schematic"":""4"",""participantId"":""879E34425DB343C1990ACDF765F0D7F3"",""assignmentId"":""0198be2c-b300-7f2c-8bca-6a64410d7370"",""projectId"":""0198be1d-574a-752e-ae53-1d263a30e856""}","https://test12345.live/?num_scrambled_semantic=8&num_scrambled_causal=4&num_scrambled_schematic=4&participantId=879E34425DB343C1990ACDF765F0D7F3&assignmentId=0198be2c-b300-7f2c-8bca-6a64410d7370&projectId=0198be1d-574a-752e-ae53-1d263a30e856","879E34425DB343C1990ACDF765F0D7F3-2025-08-18-17-54-45","","1812","","images/causal_sequence/package_causal/package_causal_9.png","0","",""
"","","","","","image-button-response","54","538735","0.0-10.0-1.0-2.9","879E34425DB343C1990ACDF765F0D7F3","879E34425DB343C1990ACDF765F0D7F3","0198be2c-b300-7f2c-8bca-6a64410d7370","0198be1d-574a-752e-ae53-1d263a30e856","{""num_scrambled_semantic"":""8"",""num_scrambled_causal"":""4"",""num_scrambled_schematic"":""4"",""participantId"":""879E34425DB343C1990ACDF765F0D7F3"",""assignmentId"":""0198be2c-b300-7f2c-8bca-6a64410d7370"",""projectId"":""0198be1d-574a-752e-ae53-1d263a30e856""}","https://test12345.live/?num_scrambled_semantic=8&num_scrambled_causal=4&num_scrambled_schematic=4&participantId=879E34425DB343C1990ACDF765F0D7F3&assignmentId=0198be2c-b300-7f2c-8bca-6a64410d7370&projectId=0198be1d-574a-752e-ae53-1d263a30e856","879E34425DB343C1990ACDF765F0D7F3-2025-08-18-17-54-45","","null","","[]","null","",""
"","","","","","html-audio-response","55","667372","0.0-11.0","879E34425DB343C1990ACDF765F0D7F3","879E34425DB343C1990ACDF765F0D7F3","0198be2c-b300-7f2c-8bca-6a64410d7370","0198be1d-574a-752e-ae53-1d263a30e856","{""num_scrambled_semantic"":""8"",""num_scrambled_causal"":""4"",""num_scrambled_schematic"":""4"",""participantId"":""879E34425DB343C1990ACDF765F0D7F3"",""assignmentId"":""0198be2c-b300-7f2c-8bca-6a64410d7370"",""projectId"":""0198be1d-574a-752e-ae53-1d263a30e856""}","https://test12345.live/?num_scrambled_semantic=8&num_scrambled_causal=4&num_scrambled_schematic=4&participantId=879E34425DB343C1990ACDF765F0D7F3&assignmentId=0198be2c-b300-7f2c-8bca-6a64410d7370&projectId=0198be1d-574a-752e-ae53-1d263a30e856","879E34425DB343C1990ACDF765F0D7F3-2025-08-18-17-54-45","","23717","","[""<span style=\""color: red; font-size: 24px\""> NOW RECORDING</span><p>Please say out loud all the images you saw, in the exact order you saw them. Try to recall as many images as you can, but remember: getting the order right is more important than the number of images you recall.</p>""]","","2","package_causal"
"","","","","","image-button-response","56","673384","0.0-12.0-0.0","879E34425DB343C1990ACDF765F0D7F3","879E34425DB343C1990ACDF765F0D7F3","0198be2c-b300-7f2c-8bca-6a64410d7370","0198be1d-574a-752e-ae53-1d263a30e856","{""num_scrambled_semantic"":""8"",""num_scrambled_causal"":""4"",""num_scrambled_schematic"":""4"",""participantId"":""879E34425DB343C1990ACDF765F0D7F3"",""assignmentId"":""0198be2c-b300-7f2c-8bca-6a64410d7370"",""projectId"":""0198be1d-574a-752e-ae53-1d263a30e856""}","https://test12345.live/?num_scrambled_semantic=8&num_scrambled_causal=4&num_scrambled_schematic=4&participantId=879E34425DB343C1990ACDF765F0D7F3&assignmentId=0198be2c-b300-7f2c-8bca-6a64410d7370&projectId=0198be1d-574a-752e-ae53-1d263a30e856","879E34425DB343C1990ACDF765F0D7F3-2025-08-18-17-54-45","","null","","images/causal_sequence/coin_causal/coin_causal_0.png","null","",""
"","","","","","image-button-response","57","677894","0.0-12.0-1.0-0.0","879E34425DB343C1990ACDF765F0D7F3","879E34425DB343C1990ACDF765F0D7F3","0198be2c-b300-7f2c-8bca-6a64410d7370","0198be1d-574a-752e-ae53-1d263a30e856","{""num_scrambled_semantic"":""8"",""num_scrambled_causal"":""4"",""num_scrambled_schematic"":""4"",""participantId"":""879E34425DB343C1990ACDF765F0D7F3"",""assignmentId"":""0198be2c-b300-7f2c-8bca-6a64410d7370"",""projectId"":""0198be1d-574a-752e-ae53-1d263a30e856""}","https://test12345.live/?num_scrambled_semantic=8&num_scrambled_causal=4&num_scrambled_schematic=4&participantId=879E34425DB343C1990ACDF765F0D7F3&assignmentId=0198be2c-b300-7f2c-8bca-6a64410d7370&projectId=0198be1d-574a-752e-ae53-1d263a30e856","879E34425DB343C1990ACDF765F0D7F3-2025-08-18-17-54-45","","null","","images/causal_sequence/coin_causal/coin_causal_6.png","null","",""
"","","","","","image-button-response","58","679597","0.0-12.0-1.0-1.0","879E34425DB343C1990ACDF765F0D7F3","879E34425DB343C1990ACDF765F0D7F3","0198be2c-b300-7f2c-8bca-6a64410d7370","0198be1d-574a-752e-ae53-1d263a30e856","{""num_scrambled_semantic"":""8"",""num_scrambled_causal"":""4"",""num_scrambled_schematic"":""4"",""participantId"":""879E34425DB343C1990ACDF765F0D7F3"",""assignmentId"":""0198be2c-b300-7f2c-8bca-6a64410d7370"",""projectId"":""0198be1d-574a-752e-ae53-1d263a30e856""}","https://test12345.live/?num_scrambled_semantic=8&num_scrambled_causal=4&num_scrambled_schematic=4&participantId=879E34425DB343C1990ACDF765F0D7F3&assignmentId=0198be2c-b300-7f2c-8bca-6a64410d7370&projectId=0198be1d-574a-752e-ae53-1d263a30e856","879E34425DB343C1990ACDF765F0D7F3-2025-08-18-17-54-45","","1702","","images/causal_sequence/coin_causal/coin_causal_6.png","0","",""
"","","","","","image-button-response","59","690414","0.0-12.0-1.0-2.0","879E34425DB343C1990ACDF765F0D7F3","879E34425DB343C1990ACDF765F0D7F3","0198be2c-b300-7f2c-8bca-6a64410d7370","0198be1d-574a-752e-ae53-1d263a30e856","{""num_scrambled_semantic"":""8"",""num_scrambled_causal"":""4"",""num_scrambled_schematic"":""4"",""participantId"":""879E34425DB343C1990ACDF765F0D7F3"",""assignmentId"":""0198be2c-b300-7f2c-8bca-6a64410d7370"",""projectId"":""0198be1d-574a-752e-ae53-1d263a30e856""}","https://test12345.live/?num_scrambled_semantic=8&num_scrambled_causal=4&num_scrambled_schematic=4&participantId=879E34425DB343C1990ACDF765F0D7F3&assignmentId=0198be2c-b300-7f2c-8bca-6a64410d7370&projectId=0198be1d-574a-752e-ae53-1d263a30e856","879E34425DB343C1990ACDF765F0D7F3-2025-08-18-17-54-45","","null","","[]","null","",""
"","","","","","image-button-response","60","694934","0.0-12.0-1.0-0.1","879E34425DB343C1990ACDF765F0D7F3","879E34425DB343C1990ACDF765F0D7F3","0198be2c-b300-7f2c-8bca-6a64410d7370","0198be1d-574a-752e-ae53-1d263a30e856","{""num_scrambled_semantic"":""8"",""num_scrambled_causal"":""4"",""num_scrambled_schematic"":""4"",""participantId"":""879E34425DB343C1990ACDF765F0D7F3"",""assignmentId"":""0198be2c-b300-7f2c-8bca-6a64410d7370"",""projectId"":""0198be1d-574a-752e-ae53-1d263a30e856""}","https://test12345.live/?num_scrambled_semantic=8&num_scrambled_causal=4&num_scrambled_schematic=4&participantId=879E34425DB343C1990ACDF765F0D7F3&assignmentId=0198be2c-b300-7f2c-8bca-6a64410d7370&projectId=0198be1d-574a-752e-ae53-1d263a30e856","879E34425DB343C1990ACDF765F0D7F3-2025-08-18-17-54-45","","null","","images/causal_sequence/coin_causal/coin_causal_1.png","null","",""
"","","","","","image-button-response","61","696912","0.0-12.0-1.0-1.1","879E34425DB343C1990ACDF765F0D7F3","879E34425DB343C1990ACDF765F0D7F3","0198be2c-b300-7f2c-8bca-6a64410d7370","0198be1d-574a-752e-ae53-1d263a30e856","{""num_scrambled_semantic"":""8"",""num_scrambled_causal"":""4"",""num_scrambled_schematic"":""4"",""participantId"":""879E34425DB343C1990ACDF765F0D7F3"",""assignmentId"":""0198be2c-b300-7f2c-8bca-6a64410d7370"",""projectId"":""0198be1d-574a-752e-ae53-1d263a30e856""}","https://test12345.live/?num_scrambled_semantic=8&num_scrambled_causal=4&num_scrambled_schematic=4&participantId=879E34425DB343C1990ACDF765F0D7F3&assignmentId=0198be2c-b300-7f2c-8bca-6a64410d7370&projectId=0198be1d-574a-752e-ae53-1d263a30e856","879E34425DB343C1990ACDF765F0D7F3-2025-08-18-17-54-45","","1977","","images/causal_sequence/coin_causal/coin_causal_1.png","0","",""
"","","","","","image-button-response","62","707739","0.0-12.0-1.0-2.1","879E34425DB343C1990ACDF765F0D7F3","879E34425DB343C1990ACDF765F0D7F3","0198be2c-b300-7f2c-8bca-6a64410d7370","0198be1d-574a-752e-ae53-1d263a30e856","{""num_scrambled_semantic"":""8"",""num_scrambled_causal"":""4"",""num_scrambled_schematic"":""4"",""participantId"":""879E34425DB343C1990ACDF765F0D7F3"",""assignmentId"":""0198be2c-b300-7f2c-8bca-6a64410d7370"",""projectId"":""0198be1d-574a-752e-ae53-1d263a30e856""}","https://test12345.live/?num_scrambled_semantic=8&num_scrambled_causal=4&num_scrambled_schematic=4&participantId=879E34425DB343C1990ACDF765F0D7F3&assignmentId=0198be2c-b300-7f2c-8bca-6a64410d7370&projectId=0198be1d-574a-752e-ae53-1d263a30e856","879E34425DB343C1990ACDF765F0D7F3-2025-08-18-17-54-45","","null","","[]","null","",""
"","","","","","image-button-response","63","712254","0.0-12.0-1.0-0.2","879E34425DB343C1990ACDF765F0D7F3","879E34425DB343C1990ACDF765F0D7F3","0198be2c-b300-7f2c-8bca-6a64410d7370","0198be1d-574a-752e-ae53-1d263a30e856","{""num_scrambled_semantic"":""8"",""num_scrambled_causal"":""4"",""num_scrambled_schematic"":""4"",""participantId"":""879E34425DB343C1990ACDF765F0D7F3"",""assignmentId"":""0198be2c-b300-7f2c-8bca-6a64410d7370"",""projectId"":""0198be1d-574a-752e-ae53-1d263a30e856""}","https://test12345.live/?num_scrambled_semantic=8&num_scrambled_causal=4&num_scrambled_schematic=4&participantId=879E34425DB343C1990ACDF765F0D7F3&assignmentId=0198be2c-b300-7f2c-8bca-6a64410d7370&projectId=0198be1d-574a-752e-ae53-1d263a30e856","879E34425DB343C1990ACDF765F0D7F3-2025-08-18-17-54-45","","null","","images/causal_sequence/coin_causal/coin_causal_ten.png","null","",""
"","","","","","image-button-response","64","713897","0.0-12.0-1.0-1.2","879E34425DB343C1990ACDF765F0D7F3","879E34425DB343C1990ACDF765F0D7F3","0198be2c-b300-7f2c-8bca-6a64410d7370","0198be1d-574a-752e-ae53-1d263a30e856","{""num_scrambled_semantic"":""8"",""num_scrambled_causal"":""4"",""num_scrambled_schematic"":""4"",""participantId"":""879E34425DB343C1990ACDF765F0D7F3"",""assignmentId"":""0198be2c-b300-7f2c-8bca-6a64410d7370"",""projectId"":""0198be1d-574a-752e-ae53-1d263a30e856""}","https://test12345.live/?num_scrambled_semantic=8&num_scrambled_causal=4&num_scrambled_schematic=4&participantId=879E34425DB343C1990ACDF765F0D7F3&assignmentId=0198be2c-b300-7f2c-8bca-6a64410d7370&projectId=0198be1d-574a-752e-ae53-1d263a30e856","879E34425DB343C1990ACDF765F0D7F3-2025-08-18-17-54-45","","1642","","images/causal_sequence/coin_causal/coin_causal_ten.png","0","",""
"","","","","","image-button-response","65","724713","0.0-12.0-1.0-2.2","879E34425DB343C1990ACDF765F0D7F3","879E34425DB343C1990ACDF765F0D7F3","0198be2c-b300-7f2c-8bca-6a64410d7370","0198be1d-574a-752e-ae53-1d263a30e856","{""num_scrambled_semantic"":""8"",""num_scrambled_causal"":""4"",""num_scrambled_schematic"":""4"",""participantId"":""879E34425DB343C1990ACDF765F0D7F3"",""assignmentId"":""0198be2c-b300-7f2c-8bca-6a64410d7370"",""projectId"":""0198be1d-574a-752e-ae53-1d263a30e856""}","https://test12345.live/?num_scrambled_semantic=8&num_scrambled_causal=4&num_scrambled_schematic=4&participantId=879E34425DB343C1990ACDF765F0D7F3&assignmentId=0198be2c-b300-7f2c-8bca-6a64410d7370&projectId=0198be1d-574a-752e-ae53-1d263a30e856","879E34425DB343C1990ACDF765F0D7F3-2025-08-18-17-54-45","","null","","[]","null","",""
"","","","","","image-button-response","66","729223","0.0-12.0-1.0-0.3","879E34425DB343C1990ACDF765F0D7F3","879E34425DB343C1990ACDF765F0D7F3","0198be2c-b300-7f2c-8bca-6a64410d7370","0198be1d-574a-752e-ae53-1d263a30e856","{""num_scrambled_semantic"":""8"",""num_scrambled_causal"":""4"",""num_scrambled_schematic"":""4"",""participantId"":""879E34425DB343C1990ACDF765F0D7F3"",""assignmentId"":""0198be2c-b300-7f2c-8bca-6a64410d7370"",""projectId"":""0198be1d-574a-752e-ae53-1d263a30e856""}","https://test12345.live/?num_scrambled_semantic=8&num_scrambled_causal=4&num_scrambled_schematic=4&participantId=879E34425DB343C1990ACDF765F0D7F3&assignmentId=0198be2c-b300-7f2c-8bca-6a64410d7370&projectId=0198be1d-574a-752e-ae53-1d263a30e856","879E34425DB343C1990ACDF765F0D7F3-2025-08-18-17-54-45","","null","","images/causal_sequence/coin_causal/coin_causal_2.png","null","",""
"","","","","","image-button-response","67","730594","0.0-12.0-1.0-1.3","879E34425DB343C1990ACDF765F0D7F3","879E34425DB343C1990ACDF765F0D7F3","0198be2c-b300-7f2c-8bca-6a64410d7370","0198be1d-574a-752e-ae53-1d263a30e856","{""num_scrambled_semantic"":""8"",""num_scrambled_causal"":""4"",""num_scrambled_schematic"":""4"",""participantId"":""879E34425DB343C1990ACDF765F0D7F3"",""assignmentId"":""0198be2c-b300-7f2c-8bca-6a64410d7370"",""projectId"":""0198be1d-574a-752e-ae53-1d263a30e856""}","https://test12345.live/?num_scrambled_semantic=8&num_scrambled_causal=4&num_scrambled_schematic=4&participantId=879E34425DB343C1990ACDF765F0D7F3&assignmentId=0198be2c-b300-7f2c-8bca-6a64410d7370&projectId=0198be1d-574a-752e-ae53-1d263a30e856","879E34425DB343C1990ACDF765F0D7F3-2025-08-18-17-54-45","","1369","","images/causal_sequence/coin_causal/coin_causal_2.png","0","",""
"","","","","","image-button-response","68","741413","0.0-12.0-1.0-2.3","879E34425DB343C1990ACDF765F0D7F3","879E34425DB343C1990ACDF765F0D7F3","0198be2c-b300-7f2c-8bca-6a64410d7370","0198be1d-574a-752e-ae53-1d263a30e856","{""num_scrambled_semantic"":""8"",""num_scrambled_causal"":""4"",""num_scrambled_schematic"":""4"",""participantId"":""879E34425DB343C1990ACDF765F0D7F3"",""assignmentId"":""0198be2c-b300-7f2c-8bca-6a64410d7370"",""projectId"":""0198be1d-574a-752e-ae53-1d263a30e856""}","https://test12345.live/?num_scrambled_semantic=8&num_scrambled_causal=4&num_scrambled_schematic=4&participantId=879E34425DB343C1990ACDF765F0D7F3&assignmentId=0198be2c-b300-7f2c-8bca-6a64410d7370&projectId=0198be1d-574a-752e-ae53-1d263a30e856","879E34425DB343C1990ACDF765F0D7F3-2025-08-18-17-54-45","","null","","[]","null","",""
"","","","","","image-button-response","69","745923","0.0-12.0-1.0-0.4","879E34425DB343C1990ACDF765F0D7F3","879E34425DB343C1990ACDF765F0D7F3","0198be2c-b300-7f2c-8bca-6a64410d7370","0198be1d-574a-752e-ae53-1d263a30e856","{""num_scrambled_semantic"":""8"",""num_scrambled_causal"":""4"",""num_scrambled_schematic"":""4"",""participantId"":""879E34425DB343C1990ACDF765F0D7F3"",""assignmentId"":""0198be2c-b300-7f2c-8bca-6a64410d7370"",""projectId"":""0198be1d-574a-752e-ae53-1d263a30e856""}","https://test12345.live/?num_scrambled_semantic=8&num_scrambled_causal=4&num_scrambled_schematic=4&participantId=879E34425DB343C1990ACDF765F0D7F3&assignmentId=0198be2c-b300-7f2c-8bca-6a64410d7370&projectId=0198be1d-574a-752e-ae53-1d263a30e856","879E34425DB343C1990ACDF765F0D7F3-2025-08-18-17-54-45","","null","","images/causal_sequence/coin_causal/coin_causal_5.png","null","",""
"","","","","","image-button-response","70","749943","0.0-12.0-1.0-1.4","879E34425DB343C1990ACDF765F0D7F3","879E34425DB343C1990ACDF765F0D7F3","0198be2c-b300-7f2c-8bca-6a64410d7370","0198be1d-574a-752e-ae53-1d263a30e856","{""num_scrambled_semantic"":""8"",""num_scrambled_causal"":""4"",""num_scrambled_schematic"":""4"",""participantId"":""879E34425DB343C1990ACDF765F0D7F3"",""assignmentId"":""0198be2c-b300-7f2c-8bca-6a64410d7370"",""projectId"":""0198be1d-574a-752e-ae53-1d263a30e856""}","https://test12345.live/?num_scrambled_semantic=8&num_scrambled_causal=4&num_scrambled_schematic=4&participantId=879E34425DB343C1990ACDF765F0D7F3&assignmentId=0198be2c-b300-7f2c-8bca-6a64410d7370&projectId=0198be1d-574a-752e-ae53-1d263a30e856","879E34425DB343C1990ACDF765F0D7F3-2025-08-18-17-54-45","","null","","images/causal_sequence/coin_causal/coin_causal_5.png","null","",""
"","","","","","image-button-response","71","760763","0.0-12.0-1.0-2.4","879E34425DB343C1990ACDF765F0D7F3","879E34425DB343C1990ACDF765F0D7F3","0198be2c-b300-7f2c-8bca-6a64410d7370","0198be1d-574a-752e-ae53-1d263a30e856","{""num_scrambled_semantic"":""8"",""num_scrambled_causal"":""4"",""num_scrambled_schematic"":""4"",""participantId"":""879E34425DB343C1990ACDF765F0D7F3"",""assignmentId"":""0198be2c-b300-7f2c-8bca-6a64410d7370"",""projectId"":""0198be1d-574a-752e-ae53-1d263a30e856""}","https://test12345.live/?num_scrambled_semantic=8&num_scrambled_causal=4&num_scrambled_schematic=4&participantId=879E34425DB343C1990ACDF765F0D7F3&assignmentId=0198be2c-b300-7f2c-8bca-6a64410d7370&projectId=0198be1d-574a-752e-ae53-1d263a30e856","879E34425DB343C1990ACDF765F0D7F3-2025-08-18-17-54-45","","null","","[]","null","",""
"","","","","","image-button-response","72","765265","0.0-12.0-1.0-0.5","879E34425DB343C1990ACDF765F0D7F3","879E34425DB343C1990ACDF765F0D7F3","0198be2c-b300-7f2c-8bca-6a64410d7370","0198be1d-574a-752e-ae53-1d263a30e856","{""num_scrambled_semantic"":""8"",""num_scrambled_causal"":""4"",""num_scrambled_schematic"":""4"",""participantId"":""879E34425DB343C1990ACDF765F0D7F3"",""assignmentId"":""0198be2c-b300-7f2c-8bca-6a64410d7370"",""projectId"":""0198be1d-574a-752e-ae53-1d263a30e856""}","https://test12345.live/?num_scrambled_semantic=8&num_scrambled_causal=4&num_scrambled_schematic=4&participantId=879E34425DB343C1990ACDF765F0D7F3&assignmentId=0198be2c-b300-7f2c-8bca-6a64410d7370&projectId=0198be1d-574a-752e-ae53-1d263a30e856","879E34425DB343C1990ACDF765F0D7F3-2025-08-18-17-54-45","","null","","images/causal_sequence/coin_causal/coin_causal_9.png","null","",""
"","","","","","image-button-response","73","766476","0.0-12.0-1.0-1.5","879E34425DB343C1990ACDF765F0D7F3","879E34425DB343C1990ACDF765F0D7F3","0198be2c-b300-7f2c-8bca-6a64410d7370","0198be1d-574a-752e-ae53-1d263a30e856","{""num_scrambled_semantic"":""8"",""num_scrambled_causal"":""4"",""num_scrambled_schematic"":""4"",""participantId"":""879E34425DB343C1990ACDF765F0D7F3"",""assignmentId"":""0198be2c-b300-7f2c-8bca-6a64410d7370"",""projectId"":""0198be1d-574a-752e-ae53-1d263a30e856""}","https://test12345.live/?num_scrambled_semantic=8&num_scrambled_causal=4&num_scrambled_schematic=4&participantId=879E34425DB343C1990ACDF765F0D7F3&assignmentId=0198be2c-b300-7f2c-8bca-6a64410d7370&projectId=0198be1d-574a-752e-ae53-1d263a30e856","879E34425DB343C1990ACDF765F0D7F3-2025-08-18-17-54-45","","1210","","images/causal_sequence/coin_causal/coin_causal_9.png","0","",""
"","","","","","image-button-response","74","777293","0.0-12.0-1.0-2.5","879E34425DB343C1990ACDF765F0D7F3","879E34425DB343C1990ACDF765F0D7F3","0198be2c-b300-7f2c-8bca-6a64410d7370","0198be1d-574a-752e-ae53-1d263a30e856","{""num_scrambled_semantic"":""8"",""num_scrambled_causal"":""4"",""num_scrambled_schematic"":""4"",""participantId"":""879E34425DB343C1990ACDF765F0D7F3"",""assignmentId"":""0198be2c-b300-7f2c-8bca-6a64410d7370"",""projectId"":""0198be1d-574a-752e-ae53-1d263a30e856""}","https://test12345.live/?num_scrambled_semantic=8&num_scrambled_causal=4&num_scrambled_schematic=4&participantId=879E34425DB343C1990ACDF765F0D7F3&assignmentId=0198be2c-b300-7f2c-8bca-6a64410d7370&projectId=0198be1d-574a-752e-ae53-1d263a30e856","879E34425DB343C1990ACDF765F0D7F3-2025-08-18-17-54-45","","null","","[]","null","",""
"","","","","","image-button-response","75","781813","0.0-12.0-1.0-0.6","879E34425DB343C1990ACDF765F0D7F3","879E34425DB343C1990ACDF765F0D7F3","0198be2c-b300-7f2c-8bca-6a64410d7370","0198be1d-574a-752e-ae53-1d263a30e856","{""num_scrambled_semantic"":""8"",""num_scrambled_causal"":""4"",""num_scrambled_schematic"":""4"",""participantId"":""879E34425DB343C1990ACDF765F0D7F3"",""assignmentId"":""0198be2c-b300-7f2c-8bca-6a64410d7370"",""projectId"":""0198be1d-574a-752e-ae53-1d263a30e856""}","https://test12345.live/?num_scrambled_semantic=8&num_scrambled_causal=4&num_scrambled_schematic=4&participantId=879E34425DB343C1990ACDF765F0D7F3&assignmentId=0198be2c-b300-7f2c-8bca-6a64410d7370&projectId=0198be1d-574a-752e-ae53-1d263a30e856","879E34425DB343C1990ACDF765F0D7F3-2025-08-18-17-54-45","","null","","images/causal_sequence/coin_causal/coin_causal_4.png","null","",""
"","","","","","image-button-response","76","783561","0.0-12.0-1.0-1.6","879E34425DB343C1990ACDF765F0D7F3","879E34425DB343C1990ACDF765F0D7F3","0198be2c-b300-7f2c-8bca-6a64410d7370","0198be1d-574a-752e-ae53-1d263a30e856","{""num_scrambled_semantic"":""8"",""num_scrambled_causal"":""4"",""num_scrambled_schematic"":""4"",""participantId"":""879E34425DB343C1990ACDF765F0D7F3"",""assignmentId"":""0198be2c-b300-7f2c-8bca-6a64410d7370"",""projectId"":""0198be1d-574a-752e-ae53-1d263a30e856""}","https://test12345.live/?num_scrambled_semantic=8&num_scrambled_causal=4&num_scrambled_schematic=4&participantId=879E34425DB343C1990ACDF765F0D7F3&assignmentId=0198be2c-b300-7f2c-8bca-6a64410d7370&projectId=0198be1d-574a-752e-ae53-1d263a30e856","879E34425DB343C1990ACDF765F0D7F3-2025-08-18-17-54-45","","1747","","images/causal_sequence/coin_causal/coin_causal_4.png","0","",""
"","","","","","image-button-response","77","794368","0.0-12.0-1.0-2.6","879E34425DB343C1990ACDF765F0D7F3","879E34425DB343C1990ACDF765F0D7F3","0198be2c-b300-7f2c-8bca-6a64410d7370","0198be1d-574a-752e-ae53-1d263a30e856","{""num_scrambled_semantic"":""8"",""num_scrambled_causal"":""4"",""num_scrambled_schematic"":""4"",""participantId"":""879E34425DB343C1990ACDF765F0D7F3"",""assignmentId"":""0198be2c-b300-7f2c-8bca-6a64410d7370"",""projectId"":""0198be1d-574a-752e-ae53-1d263a30e856""}","https://test12345.live/?num_scrambled_semantic=8&num_scrambled_causal=4&num_scrambled_schematic=4&participantId=879E34425DB343C1990ACDF765F0D7F3&assignmentId=0198be2c-b300-7f2c-8bca-6a64410d7370&projectId=0198be1d-574a-752e-ae53-1d263a30e856","879E34425DB343C1990ACDF765F0D7F3-2025-08-18-17-54-45","","null","","[]","null","",""
"","","","","","image-button-response","78","798879","0.0-12.0-1.0-0.7","879E34425DB343C1990ACDF765F0D7F3","879E34425DB343C1990ACDF765F0D7F3","0198be2c-b300-7f2c-8bca-6a64410d7370","0198be1d-574a-752e-ae53-1d263a30e856","{""num_scrambled_semantic"":""8"",""num_scrambled_causal"":""4"",""num_scrambled_schematic"":""4"",""participantId"":""879E34425DB343C1990ACDF765F0D7F3"",""assignmentId"":""0198be2c-b300-7f2c-8bca-6a64410d7370"",""projectId"":""0198be1d-574a-752e-ae53-1d263a30e856""}","https://test12345.live/?num_scrambled_semantic=8&num_scrambled_causal=4&num_scrambled_schematic=4&participantId=879E34425DB343C1990ACDF765F0D7F3&assignmentId=0198be2c-b300-7f2c-8bca-6a64410d7370&projectId=0198be1d-574a-752e-ae53-1d263a30e856","879E34425DB343C1990ACDF765F0D7F3-2025-08-18-17-54-45","","null","","images/causal_sequence/coin_causal/coin_causal_8.png","null","",""
"","","","","","image-button-response","79","800096","0.0-12.0-1.0-1.7","879E34425DB343C1990ACDF765F0D7F3","879E34425DB343C1990ACDF765F0D7F3","0198be2c-b300-7f2c-8bca-6a64410d7370","0198be1d-574a-752e-ae53-1d263a30e856","{""num_scrambled_semantic"":""8"",""num_scrambled_causal"":""4"",""num_scrambled_schematic"":""4"",""participantId"":""879E34425DB343C1990ACDF765F0D7F3"",""assignmentId"":""0198be2c-b300-7f2c-8bca-6a64410d7370"",""projectId"":""0198be1d-574a-752e-ae53-1d263a30e856""}","https://test12345.live/?num_scrambled_semantic=8&num_scrambled_causal=4&num_scrambled_schematic=4&participantId=879E34425DB343C1990ACDF765F0D7F3&assignmentId=0198be2c-b300-7f2c-8bca-6a64410d7370&projectId=0198be1d-574a-752e-ae53-1d263a30e856","879E34425DB343C1990ACDF765F0D7F3-2025-08-18-17-54-45","","1216","","images/causal_sequence/coin_causal/coin_causal_8.png","0","",""
"","","","","","image-button-response","80","810908","0.0-12.0-1.0-2.7","879E34425DB343C1990ACDF765F0D7F3","879E34425DB343C1990ACDF765F0D7F3","0198be2c-b300-7f2c-8bca-6a64410d7370","0198be1d-574a-752e-ae53-1d263a30e856","{""num_scrambled_semantic"":""8"",""num_scrambled_causal"":""4"",""num_scrambled_schematic"":""4"",""participantId"":""879E34425DB343C1990ACDF765F0D7F3"",""assignmentId"":""0198be2c-b300-7f2c-8bca-6a64410d7370"",""projectId"":""0198be1d-574a-752e-ae53-1d263a30e856""}","https://test12345.live/?num_scrambled_semantic=8&num_scrambled_causal=4&num_scrambled_schematic=4&participantId=879E34425DB343C1990ACDF765F0D7F3&assignmentId=0198be2c-b300-7f2c-8bca-6a64410d7370&projectId=0198be1d-574a-752e-ae53-1d263a30e856","879E34425DB343C1990ACDF765F0D7F3-2025-08-18-17-54-45","","null","","[]","null","",""
"","","","","","image-button-response","81","815409","0.0-12.0-1.0-0.8","879E34425DB343C1990ACDF765F0D7F3","879E34425DB343C1990ACDF765F0D7F3","0198be2c-b300-7f2c-8bca-6a64410d7370","0198be1d-574a-752e-ae53-1d263a30e856","{""num_scrambled_semantic"":""8"",""num_scrambled_causal"":""4"",""num_scrambled_schematic"":""4"",""participantId"":""879E34425DB343C1990ACDF765F0D7F3"",""assignmentId"":""0198be2c-b300-7f2c-8bca-6a64410d7370"",""projectId"":""0198be1d-574a-752e-ae53-1d263a30e856""}","https://test12345.live/?num_scrambled_semantic=8&num_scrambled_causal=4&num_scrambled_schematic=4&participantId=879E34425DB343C1990ACDF765F0D7F3&assignmentId=0198be2c-b300-7f2c-8bca-6a64410d7370&projectId=0198be1d-574a-752e-ae53-1d263a30e856","879E34425DB343C1990ACDF765F0D7F3-2025-08-18-17-54-45","","null","","images/causal_sequence/coin_causal/coin_causal_7.png","null","",""
"","","","","","image-button-response","82","816661","0.0-12.0-1.0-1.8","879E34425DB343C1990ACDF765F0D7F3","879E34425DB343C1990ACDF765F0D7F3","0198be2c-b300-7f2c-8bca-6a64410d7370","0198be1d-574a-752e-ae53-1d263a30e856","{""num_scrambled_semantic"":""8"",""num_scrambled_causal"":""4"",""num_scrambled_schematic"":""4"",""participantId"":""879E34425DB343C1990ACDF765F0D7F3"",""assignmentId"":""0198be2c-b300-7f2c-8bca-6a64410d7370"",""projectId"":""0198be1d-574a-752e-ae53-1d263a30e856""}","https://test12345.live/?num_scrambled_semantic=8&num_scrambled_causal=4&num_scrambled_schematic=4&participantId=879E34425DB343C1990ACDF765F0D7F3&assignmentId=0198be2c-b300-7f2c-8bca-6a64410d7370&projectId=0198be1d-574a-752e-ae53-1d263a30e856","879E34425DB343C1990ACDF765F0D7F3-2025-08-18-17-54-45","","1251","","images/causal_sequence/coin_causal/coin_causal_7.png","1","",""
"","","","","","image-button-response","83","827468","0.0-12.0-1.0-2.8","879E34425DB343C1990ACDF765F0D7F3","879E34425DB343C1990ACDF765F0D7F3","0198be2c-b300-7f2c-8bca-6a64410d7370","0198be1d-574a-752e-ae53-1d263a30e856","{""num_scrambled_semantic"":""8"",""num_scrambled_causal"":""4"",""num_scrambled_schematic"":""4"",""participantId"":""879E34425DB343C1990ACDF765F0D7F3"",""assignmentId"":""0198be2c-b300-7f2c-8bca-6a64410d7370"",""projectId"":""0198be1d-574a-752e-ae53-1d263a30e856""}","https://test12345.live/?num_scrambled_semantic=8&num_scrambled_causal=4&num_scrambled_schematic=4&participantId=879E34425DB343C1990ACDF765F0D7F3&assignmentId=0198be2c-b300-7f2c-8bca-6a64410d7370&projectId=0198be1d-574a-752e-ae53-1d263a30e856","879E34425DB343C1990ACDF765F0D7F3-2025-08-18-17-54-45","","null","","[]","null","",""
"","","","","","image-button-response","84","831976","0.0-12.0-1.0-0.9","879E34425DB343C1990ACDF765F0D7F3","879E34425DB343C1990ACDF765F0D7F3","0198be2c-b300-7f2c-8bca-6a64410d7370","0198be1d-574a-752e-ae53-1d263a30e856","{""num_scrambled_semantic"":""8"",""num_scrambled_causal"":""4"",""num_scrambled_schematic"":""4"",""participantId"":""879E34425DB343C1990ACDF765F0D7F3"",""assignmentId"":""0198be2c-b300-7f2c-8bca-6a64410d7370"",""projectId"":""0198be1d-574a-752e-ae53-1d263a30e856""}","https://test12345.live/?num_scrambled_semantic=8&num_scrambled_causal=4&num_scrambled_schematic=4&participantId=879E34425DB343C1990ACDF765F0D7F3&assignmentId=0198be2c-b300-7f2c-8bca-6a64410d7370&projectId=0198be1d-574a-752e-ae53-1d263a30e856","879E34425DB343C1990ACDF765F0D7F3-2025-08-18-17-54-45","","null","","images/causal_sequence/coin_causal/coin_causal_3.png","null","",""
"","","","","","image-button-response","85","833346","0.0-12.0-1.0-1.9","879E34425DB343C1990ACDF765F0D7F3","879E34425DB343C1990ACDF765F0D7F3","0198be2c-b300-7f2c-8bca-6a64410d7370","0198be1d-574a-752e-ae53-1d263a30e856","{""num_scrambled_semantic"":""8"",""num_scrambled_causal"":""4"",""num_scrambled_schematic"":""4"",""participantId"":""879E34425DB343C1990ACDF765F0D7F3"",""assignmentId"":""0198be2c-b300-7f2c-8bca-6a64410d7370"",""projectId"":""0198be1d-574a-752e-ae53-1d263a30e856""}","https://test12345.live/?num_scrambled_semantic=8&num_scrambled_causal=4&num_scrambled_schematic=4&participantId=879E34425DB343C1990ACDF765F0D7F3&assignmentId=0198be2c-b300-7f2c-8bca-6a64410d7370&projectId=0198be1d-574a-752e-ae53-1d263a30e856","879E34425DB343C1990ACDF765F0D7F3-2025-08-18-17-54-45","","1369","","images/causal_sequence/coin_causal/coin_causal_3.png","0","",""
"","","","","","image-button-response","86","844157","0.0-12.0-1.0-2.9","879E34425DB343C1990ACDF765F0D7F3","879E34425DB343C1990ACDF765F0D7F3","0198be2c-b300-7f2c-8bca-6a64410d7370","0198be1d-574a-752e-ae53-1d263a30e856","{""num_scrambled_semantic"":""8"",""num_scrambled_causal"":""4"",""num_scrambled_schematic"":""4"",""participantId"":""879E34425DB343C1990ACDF765F0D7F3"",""assignmentId"":""0198be2c-b300-7f2c-8bca-6a64410d7370"",""projectId"":""0198be1d-574a-752e-ae53-1d263a30e856""}","https://test12345.live/?num_scrambled_semantic=8&num_scrambled_causal=4&num_scrambled_schematic=4&participantId=879E34425DB343C1990ACDF765F0D7F3&assignmentId=0198be2c-b300-7f2c-8bca-6a64410d7370&projectId=0198be1d-574a-752e-ae53-1d263a30e856","879E34425DB343C1990ACDF765F0D7F3-2025-08-18-17-54-45","","null","","[]","null","",""
"","","","","","html-audio-response","87","908716","0.0-13.0","879E34425DB343C1990ACDF765F0D7F3","879E34425DB343C1990ACDF765F0D7F3","0198be2c-b300-7f2c-8bca-6a64410d7370","0198be1d-574a-752e-ae53-1d263a30e856","{""num_scrambled_semantic"":""8"",""num_scrambled_causal"":""4"",""num_scrambled_schematic"":""4"",""participantId"":""879E34425DB343C1990ACDF765F0D7F3"",""assignmentId"":""0198be2c-b300-7f2c-8bca-6a64410d7370"",""projectId"":""0198be1d-574a-752e-ae53-1d263a30e856""}","https://test12345.live/?num_scrambled_semantic=8&num_scrambled_causal=4&num_scrambled_schematic=4&participantId=879E34425DB343C1990ACDF765F0D7F3&assignmentId=0198be2c-b300-7f2c-8bca-6a64410d7370&projectId=0198be1d-574a-752e-ae53-1d263a30e856","879E34425DB343C1990ACDF765F0D7F3-2025-08-18-17-54-45","","32362","","[""<span style=\""color: red; font-size: 24px\""> NOW RECORDING</span><p>Please say out loud all the images you saw, in the exact order you saw them. Try to recall as many images as you can, but remember: getting the order right is more important than the number of images you recall.</p>""]","","1","coin_causal"
"","","","","","image-button-response","88","914727","0.0-14.0-0.0","879E34425DB343C1990ACDF765F0D7F3","879E34425DB343C1990ACDF765F0D7F3","0198be2c-b300-7f2c-8bca-6a64410d7370","0198be1d-574a-752e-ae53-1d263a30e856","{""num_scrambled_semantic"":""8"",""num_scrambled_causal"":""4"",""num_scrambled_schematic"":""4"",""participantId"":""879E34425DB343C1990ACDF765F0D7F3"",""assignmentId"":""0198be2c-b300-7f2c-8bca-6a64410d7370"",""projectId"":""0198be1d-574a-752e-ae53-1d263a30e856""}","https://test12345.live/?num_scrambled_semantic=8&num_scrambled_causal=4&num_scrambled_schematic=4&participantId=879E34425DB343C1990ACDF765F0D7F3&assignmentId=0198be2c-b300-7f2c-8bca-6a64410d7370&projectId=0198be1d-574a-752e-ae53-1d263a30e856","879E34425DB343C1990ACDF765F0D7F3-2025-08-18-17-54-45","","null","","images/causal_sequence/dog_causal/dog_causal_0.png","null","",""
"","","","","","image-button-response","89","919232","0.0-14.0-1.0-0.0","879E34425DB343C1990ACDF765F0D7F3","879E34425DB343C1990ACDF765F0D7F3","0198be2c-b300-7f2c-8bca-6a64410d7370","0198be1d-574a-752e-ae53-1d263a30e856","{""num_scrambled_semantic"":""8"",""num_scrambled_causal"":""4"",""num_scrambled_schematic"":""4"",""participantId"":""879E34425DB343C1990ACDF765F0D7F3"",""assignmentId"":""0198be2c-b300-7f2c-8bca-6a64410d7370"",""projectId"":""0198be1d-574a-752e-ae53-1d263a30e856""}","https://test12345.live/?num_scrambled_semantic=8&num_scrambled_causal=4&num_scrambled_schematic=4&participantId=879E34425DB343C1990ACDF765F0D7F3&assignmentId=0198be2c-b300-7f2c-8bca-6a64410d7370&projectId=0198be1d-574a-752e-ae53-1d263a30e856","879E34425DB343C1990ACDF765F0D7F3-2025-08-18-17-54-45","","null","","images/causal_sequence/dog_causal/dog_causal_8.png","null","",""
"","","","","","image-button-response","90","921730","0.0-14.0-1.0-1.0","879E34425DB343C1990ACDF765F0D7F3","879E34425DB343C1990ACDF765F0D7F3","0198be2c-b300-7f2c-8bca-6a64410d7370","0198be1d-574a-752e-ae53-1d263a30e856","{""num_scrambled_semantic"":""8"",""num_scrambled_causal"":""4"",""num_scrambled_schematic"":""4"",""participantId"":""879E34425DB343C1990ACDF765F0D7F3"",""assignmentId"":""0198be2c-b300-7f2c-8bca-6a64410d7370"",""projectId"":""0198be1d-574a-752e-ae53-1d263a30e856""}","https://test12345.live/?num_scrambled_semantic=8&num_scrambled_causal=4&num_scrambled_schematic=4&participantId=879E34425DB343C1990ACDF765F0D7F3&assignmentId=0198be2c-b300-7f2c-8bca-6a64410d7370&projectId=0198be1d-574a-752e-ae53-1d263a30e856","879E34425DB343C1990ACDF765F0D7F3-2025-08-18-17-54-45","","2497","","images/causal_sequence/dog_causal/dog_causal_8.png","0","",""
"","","","","","image-button-response","91","932547","0.0-14.0-1.0-2.0","879E34425DB343C1990ACDF765F0D7F3","879E34425DB343C1990ACDF765F0D7F3","0198be2c-b300-7f2c-8bca-6a64410d7370","0198be1d-574a-752e-ae53-1d263a30e856","{""num_scrambled_semantic"":""8"",""num_scrambled_causal"":""4"",""num_scrambled_schematic"":""4"",""participantId"":""879E34425DB343C1990ACDF765F0D7F3"",""assignmentId"":""0198be2c-b300-7f2c-8bca-6a64410d7370"",""projectId"":""0198be1d-574a-752e-ae53-1d263a30e856""}","https://test12345.live/?num_scrambled_semantic=8&num_scrambled_causal=4&num_scrambled_schematic=4&participantId=879E34425DB343C1990ACDF765F0D7F3&assignmentId=0198be2c-b300-7f2c-8bca-6a64410d7370&projectId=0198be1d-574a-752e-ae53-1d263a30e856","879E34425DB343C1990ACDF765F0D7F3-2025-08-18-17-54-45","","null","","[]","null","",""
"","","","","","image-button-response","92","937050","0.0-14.0-1.0-0.1","879E34425DB343C1990ACDF765F0D7F3","879E34425DB343C1990ACDF765F0D7F3","0198be2c-b300-7f2c-8bca-6a64410d7370","0198be1d-574a-752e-ae53-1d263a30e856","{""num_scrambled_semantic"":""8"",""num_scrambled_causal"":""4"",""num_scrambled_schematic"":""4"",""participantId"":""879E34425DB343C1990ACDF765F0D7F3"",""assignmentId"":""0198be2c-b300-7f2c-8bca-6a64410d7370"",""projectId"":""0198be1d-574a-752e-ae53-1d263a30e856""}","https://test12345.live/?num_scrambled_semantic=8&num_scrambled_causal=4&num_scrambled_schematic=4&participantId=879E34425DB343C1990ACDF765F0D7F3&assignmentId=0198be2c-b300-7f2c-8bca-6a64410d7370&projectId=0198be1d-574a-752e-ae53-1d263a30e856","879E34425DB343C1990ACDF765F0D7F3-2025-08-18-17-54-45","","null","","images/causal_sequence/dog_causal/dog_causal_4.png","null","",""
"","","","","","image-button-response","93","938225","0.0-14.0-1.0-1.1","879E34425DB343C1990ACDF765F0D7F3","879E34425DB343C1990ACDF765F0D7F3","0198be2c-b300-7f2c-8bca-6a64410d7370","0198be1d-574a-752e-ae53-1d263a30e856","{""num_scrambled_semantic"":""8"",""num_scrambled_causal"":""4"",""num_scrambled_schematic"":""4"",""participantId"":""879E34425DB343C1990ACDF765F0D7F3"",""assignmentId"":""0198be2c-b300-7f2c-8bca-6a64410d7370"",""projectId"":""0198be1d-574a-752e-ae53-1d263a30e856""}","https://test12345.live/?num_scrambled_semantic=8&num_scrambled_causal=4&num_scrambled_schematic=4&participantId=879E34425DB343C1990ACDF765F0D7F3&assignmentId=0198be2c-b300-7f2c-8bca-6a64410d7370&projectId=0198be1d-574a-752e-ae53-1d263a30e856","879E34425DB343C1990ACDF765F0D7F3-2025-08-18-17-54-45","","1173","","images/causal_sequence/dog_causal/dog_causal_4.png","0","",""
"","","","","","image-button-response","94","949032","0.0-14.0-1.0-2.1","879E34425DB343C1990ACDF765F0D7F3","879E34425DB343C1990ACDF765F0D7F3","0198be2c-b300-7f2c-8bca-6a64410d7370","0198be1d-574a-752e-ae53-1d263a30e856","{""num_scrambled_semantic"":""8"",""num_scrambled_causal"":""4"",""num_scrambled_schematic"":""4"",""participantId"":""879E34425DB343C1990ACDF765F0D7F3"",""assignmentId"":""0198be2c-b300-7f2c-8bca-6a64410d7370"",""projectId"":""0198be1d-574a-752e-ae53-1d263a30e856""}","https://test12345.live/?num_scrambled_semantic=8&num_scrambled_causal=4&num_scrambled_schematic=4&participantId=879E34425DB343C1990ACDF765F0D7F3&assignmentId=0198be2c-b300-7f2c-8bca-6a64410d7370&projectId=0198be1d-574a-752e-ae53-1d263a30e856","879E34425DB343C1990ACDF765F0D7F3-2025-08-18-17-54-45","","null","","[]","null","",""
"","","","","","image-button-response","95","953547","0.0-14.0-1.0-0.2","879E34425DB343C1990ACDF765F0D7F3","879E34425DB343C1990ACDF765F0D7F3","0198be2c-b300-7f2c-8bca-6a64410d7370","0198be1d-574a-752e-ae53-1d263a30e856","{""num_scrambled_semantic"":""8"",""num_scrambled_causal"":""4"",""num_scrambled_schematic"":""4"",""participantId"":""879E34425DB343C1990ACDF765F0D7F3"",""assignmentId"":""0198be2c-b300-7f2c-8bca-6a64410d7370"",""projectId"":""0198be1d-574a-752e-ae53-1d263a30e856""}","https://test12345.live/?num_scrambled_semantic=8&num_scrambled_causal=4&num_scrambled_schematic=4&participantId=879E34425DB343C1990ACDF765F0D7F3&assignmentId=0198be2c-b300-7f2c-8bca-6a64410d7370&projectId=0198be1d-574a-752e-ae53-1d263a30e856","879E34425DB343C1990ACDF765F0D7F3-2025-08-18-17-54-45","","null","","images/causal_sequence/dog_causal/dog_causal_3.png","null","",""
"","","","","","image-button-response","96","955015","0.0-14.0-1.0-1.2","879E34425DB343C1990ACDF765F0D7F3","879E34425DB343C1990ACDF765F0D7F3","0198be2c-b300-7f2c-8bca-6a64410d7370","0198be1d-574a-752e-ae53-1d263a30e856","{""num_scrambled_semantic"":""8"",""num_scrambled_causal"":""4"",""num_scrambled_schematic"":""4"",""participantId"":""879E34425DB343C1990ACDF765F0D7F3"",""assignmentId"":""0198be2c-b300-7f2c-8bca-6a64410d7370"",""projectId"":""0198be1d-574a-752e-ae53-1d263a30e856""}","https://test12345.live/?num_scrambled_semantic=8&num_scrambled_causal=4&num_scrambled_schematic=4&participantId=879E34425DB343C1990ACDF765F0D7F3&assignmentId=0198be2c-b300-7f2c-8bca-6a64410d7370&projectId=0198be1d-574a-752e-ae53-1d263a30e856","879E34425DB343C1990ACDF765F0D7F3-2025-08-18-17-54-45","","1466","","images/causal_sequence/dog_causal/dog_causal_3.png","0","",""
"","","","","","image-button-response","97","965832","0.0-14.0-1.0-2.2","879E34425DB343C1990ACDF765F0D7F3","879E34425DB343C1990ACDF765F0D7F3","0198be2c-b300-7f2c-8bca-6a64410d7370","0198be1d-574a-752e-ae53-1d263a30e856","{""num_scrambled_semantic"":""8"",""num_scrambled_causal"":""4"",""num_scrambled_schematic"":""4"",""participantId"":""879E34425DB343C1990ACDF765F0D7F3"",""assignmentId"":""0198be2c-b300-7f2c-8bca-6a64410d7370"",""projectId"":""0198be1d-574a-752e-ae53-1d263a30e856""}","https://test12345.live/?num_scrambled_semantic=8&num_scrambled_causal=4&num_scrambled_schematic=4&participantId=879E34425DB343C1990ACDF765F0D7F3&assignmentId=0198be2c-b300-7f2c-8bca-6a64410d7370&projectId=0198be1d-574a-752e-ae53-1d263a30e856","879E34425DB343C1990ACDF765F0D7F3-2025-08-18-17-54-45","","null","","[]","null","",""
"","","","","","image-button-response","98","970352","0.0-14.0-1.0-0.3","879E34425DB343C1990ACDF765F0D7F3","879E34425DB343C1990ACDF765F0D7F3","0198be2c-b300-7f2c-8bca-6a64410d7370","0198be1d-574a-752e-ae53-1d263a30e856","{""num_scrambled_semantic"":""8"",""num_scrambled_causal"":""4"",""num_scrambled_schematic"":""4"",""participantId"":""879E34425DB343C1990ACDF765F0D7F3"",""assignmentId"":""0198be2c-b300-7f2c-8bca-6a64410d7370"",""projectId"":""0198be1d-574a-752e-ae53-1d263a30e856""}","https://test12345.live/?num_scrambled_semantic=8&num_scrambled_causal=4&num_scrambled_schematic=4&participantId=879E34425DB343C1990ACDF765F0D7F3&assignmentId=0198be2c-b300-7f2c-8bca-6a64410d7370&projectId=0198be1d-574a-752e-ae53-1d263a30e856","879E34425DB343C1990ACDF765F0D7F3-2025-08-18-17-54-45","","null","","images/causal_sequence/dog_causal/dog_causal_9.png","null","",""
"","","","","","image-button-response","99","971615","0.0-14.0-1.0-1.3","879E34425DB343C1990ACDF765F0D7F3","879E34425DB343C1990ACDF765F0D7F3","0198be2c-b300-7f2c-8bca-6a64410d7370","0198be1d-574a-752e-ae53-1d263a30e856","{""num_scrambled_semantic"":""8"",""num_scrambled_causal"":""4"",""num_scrambled_schematic"":""4"",""participantId"":""879E34425DB343C1990ACDF765F0D7F3"",""assignmentId"":""0198be2c-b300-7f2c-8bca-6a64410d7370"",""projectId"":""0198be1d-574a-752e-ae53-1d263a30e856""}","https://test12345.live/?num_scrambled_semantic=8&num_scrambled_causal=4&num_scrambled_schematic=4&participantId=879E34425DB343C1990ACDF765F0D7F3&assignmentId=0198be2c-b300-7f2c-8bca-6a64410d7370&projectId=0198be1d-574a-752e-ae53-1d263a30e856","879E34425DB343C1990ACDF765F0D7F3-2025-08-18-17-54-45","","1262","","images/causal_sequence/dog_causal/dog_causal_9.png","0","",""
"","","","","","image-button-response","100","982426","0.0-14.0-1.0-2.3","879E34425DB343C1990ACDF765F0D7F3","879E34425DB343C1990ACDF765F0D7F3","0198be2c-b300-7f2c-8bca-6a64410d7370","0198be1d-574a-752e-ae53-1d263a30e856","{""num_scrambled_semantic"":""8"",""num_scrambled_causal"":""4"",""num_scrambled_schematic"":""4"",""participantId"":""879E34425DB343C1990ACDF765F0D7F3"",""assignmentId"":""0198be2c-b300-7f2c-8bca-6a64410d7370"",""projectId"":""0198be1d-574a-752e-ae53-1d263a30e856""}","https://test12345.live/?num_scrambled_semantic=8&num_scrambled_causal=4&num_scrambled_schematic=4&participantId=879E34425DB343C1990ACDF765F0D7F3&assignmentId=0198be2c-b300-7f2c-8bca-6a64410d7370&projectId=0198be1d-574a-752e-ae53-1d263a30e856","879E34425DB343C1990ACDF765F0D7F3-2025-08-18-17-54-45","","null","","[]","null","",""
"","","","","","image-button-response","101","986937","0.0-14.0-1.0-0.4","879E34425DB343C1990ACDF765F0D7F3","879E34425DB343C1990ACDF765F0D7F3","0198be2c-b300-7f2c-8bca-6a64410d7370","0198be1d-574a-752e-ae53-1d263a30e856","{""num_scrambled_semantic"":""8"",""num_scrambled_causal"":""4"",""num_scrambled_schematic"":""4"",""participantId"":""879E34425DB343C1990ACDF765F0D7F3"",""assignmentId"":""0198be2c-b300-7f2c-8bca-6a64410d7370"",""projectId"":""0198be1d-574a-752e-ae53-1d263a30e856""}","https://test12345.live/?num_scrambled_semantic=8&num_scrambled_causal=4&num_scrambled_schematic=4&participantId=879E34425DB343C1990ACDF765F0D7F3&assignmentId=0198be2c-b300-7f2c-8bca-6a64410d7370&projectId=0198be1d-574a-752e-ae53-1d263a30e856","879E34425DB343C1990ACDF765F0D7F3-2025-08-18-17-54-45","","null","","images/causal_sequence/dog_causal/dog_causal_7.png","null","",""
"","","","","","image-button-response","102","988415","0.0-14.0-1.0-1.4","879E34425DB343C1990ACDF765F0D7F3","879E34425DB343C1990ACDF765F0D7F3","0198be2c-b300-7f2c-8bca-6a64410d7370","0198be1d-574a-752e-ae53-1d263a30e856","{""num_scrambled_semantic"":""8"",""num_scrambled_causal"":""4"",""num_scrambled_schematic"":""4"",""participantId"":""879E34425DB343C1990ACDF765F0D7F3"",""assignmentId"":""0198be2c-b300-7f2c-8bca-6a64410d7370"",""projectId"":""0198be1d-574a-752e-ae53-1d263a30e856""}","https://test12345.live/?num_scrambled_semantic=8&num_scrambled_causal=4&num_scrambled_schematic=4&participantId=879E34425DB343C1990ACDF765F0D7F3&assignmentId=0198be2c-b300-7f2c-8bca-6a64410d7370&projectId=0198be1d-574a-752e-ae53-1d263a30e856","879E34425DB343C1990ACDF765F0D7F3-2025-08-18-17-54-45","","1477","","images/causal_sequence/dog_causal/dog_causal_7.png","0","",""
"","","","","","image-button-response","103","999216","0.0-14.0-1.0-2.4","879E34425DB343C1990ACDF765F0D7F3","879E34425DB343C1990ACDF765F0D7F3","0198be2c-b300-7f2c-8bca-6a64410d7370","0198be1d-574a-752e-ae53-1d263a30e856","{""num_scrambled_semantic"":""8"",""num_scrambled_causal"":""4"",""num_scrambled_schematic"":""4"",""participantId"":""879E34425DB343C1990ACDF765F0D7F3"",""assignmentId"":""0198be2c-b300-7f2c-8bca-6a64410d7370"",""projectId"":""0198be1d-574a-752e-ae53-1d263a30e856""}","https://test12345.live/?num_scrambled_semantic=8&num_scrambled_causal=4&num_scrambled_schematic=4&participantId=879E34425DB343C1990ACDF765F0D7F3&assignmentId=0198be2c-b300-7f2c-8bca-6a64410d7370&projectId=0198be1d-574a-752e-ae53-1d263a30e856","879E34425DB343C1990ACDF765F0D7F3-2025-08-18-17-54-45","","null","","[]","null","",""
"","","","","","image-button-response","104","1003726","0.0-14.0-1.0-0.5","879E34425DB343C1990ACDF765F0D7F3","879E34425DB343C1990ACDF765F0D7F3","0198be2c-b300-7f2c-8bca-6a64410d7370","0198be1d-574a-752e-ae53-1d263a30e856","{""num_scrambled_semantic"":""8"",""num_scrambled_causal"":""4"",""num_scrambled_schematic"":""4"",""participantId"":""879E34425DB343C1990ACDF765F0D7F3"",""assignmentId"":""0198be2c-b300-7f2c-8bca-6a64410d7370"",""projectId"":""0198be1d-574a-752e-ae53-1d263a30e856""}","https://test12345.live/?num_scrambled_semantic=8&num_scrambled_causal=4&num_scrambled_schematic=4&participantId=879E34425DB343C1990ACDF765F0D7F3&assignmentId=0198be2c-b300-7f2c-8bca-6a64410d7370&projectId=0198be1d-574a-752e-ae53-1d263a30e856","879E34425DB343C1990ACDF765F0D7F3-2025-08-18-17-54-45","","null","","images/causal_sequence/dog_causal/dog_causal_6.png","null","",""
"","","","","","image-button-response","105","1005639","0.0-14.0-1.0-1.5","879E34425DB343C1990ACDF765F0D7F3","879E34425DB343C1990ACDF765F0D7F3","0198be2c-b300-7f2c-8bca-6a64410d7370","0198be1d-574a-752e-ae53-1d263a30e856","{""num_scrambled_semantic"":""8"",""num_scrambled_causal"":""4"",""num_scrambled_schematic"":""4"",""participantId"":""879E34425DB343C1990ACDF765F0D7F3"",""assignmentId"":""0198be2c-b300-7f2c-8bca-6a64410d7370"",""projectId"":""0198be1d-574a-752e-ae53-1d263a30e856""}","https://test12345.live/?num_scrambled_semantic=8&num_scrambled_causal=4&num_scrambled_schematic=4&participantId=879E34425DB343C1990ACDF765F0D7F3&assignmentId=0198be2c-b300-7f2c-8bca-6a64410d7370&projectId=0198be1d-574a-752e-ae53-1d263a30e856","879E34425DB343C1990ACDF765F0D7F3-2025-08-18-17-54-45","","1912","","images/causal_sequence/dog_causal/dog_causal_6.png","0","",""
"","","","","","image-button-response","106","1016441","0.0-14.0-1.0-2.5","879E34425DB343C1990ACDF765F0D7F3","879E34425DB343C1990ACDF765F0D7F3","0198be2c-b300-7f2c-8bca-6a64410d7370","0198be1d-574a-752e-ae53-1d263a30e856","{""num_scrambled_semantic"":""8"",""num_scrambled_causal"":""4"",""num_scrambled_schematic"":""4"",""participantId"":""879E34425DB343C1990ACDF765F0D7F3"",""assignmentId"":""0198be2c-b300-7f2c-8bca-6a64410d7370"",""projectId"":""0198be1d-574a-752e-ae53-1d263a30e856""}","https://test12345.live/?num_scrambled_semantic=8&num_scrambled_causal=4&num_scrambled_schematic=4&participantId=879E34425DB343C1990ACDF765F0D7F3&assignmentId=0198be2c-b300-7f2c-8bca-6a64410d7370&projectId=0198be1d-574a-752e-ae53-1d263a30e856","879E34425DB343C1990ACDF765F0D7F3-2025-08-18-17-54-45","","null","","[]","null","",""
"","","","","","image-button-response","107","1020951","0.0-14.0-1.0-0.6","879E34425DB343C1990ACDF765F0D7F3","879E34425DB343C1990ACDF765F0D7F3","0198be2c-b300-7f2c-8bca-6a64410d7370","0198be1d-574a-752e-ae53-1d263a30e856","{""num_scrambled_semantic"":""8"",""num_scrambled_causal"":""4"",""num_scrambled_schematic"":""4"",""participantId"":""879E34425DB343C1990ACDF765F0D7F3"",""assignmentId"":""0198be2c-b300-7f2c-8bca-6a64410d7370"",""projectId"":""0198be1d-574a-752e-ae53-1d263a30e856""}","https://test12345.live/?num_scrambled_semantic=8&num_scrambled_causal=4&num_scrambled_schematic=4&participantId=879E34425DB343C1990ACDF765F0D7F3&assignmentId=0198be2c-b300-7f2c-8bca-6a64410d7370&projectId=0198be1d-574a-752e-ae53-1d263a30e856","879E34425DB343C1990ACDF765F0D7F3-2025-08-18-17-54-45","","null","","images/causal_sequence/dog_causal/dog_causal_1.png","null","",""
"","","","","","image-button-response","108","1022365","0.0-14.0-1.0-1.6","879E34425DB343C1990ACDF765F0D7F3","879E34425DB343C1990ACDF765F0D7F3","0198be2c-b300-7f2c-8bca-6a64410d7370","0198be1d-574a-752e-ae53-1d263a30e856","{""num_scrambled_semantic"":""8"",""num_scrambled_causal"":""4"",""num_scrambled_schematic"":""4"",""participantId"":""879E34425DB343C1990ACDF765F0D7F3"",""assignmentId"":""0198be2c-b300-7f2c-8bca-6a64410d7370"",""projectId"":""0198be1d-574a-752e-ae53-1d263a30e856""}","https://test12345.live/?num_scrambled_semantic=8&num_scrambled_causal=4&num_scrambled_schematic=4&participantId=879E34425DB343C1990ACDF765F0D7F3&assignmentId=0198be2c-b300-7f2c-8bca-6a64410d7370&projectId=0198be1d-574a-752e-ae53-1d263a30e856","879E34425DB343C1990ACDF765F0D7F3-2025-08-18-17-54-45","","1412","","images/causal_sequence/dog_causal/dog_causal_1.png","0","",""
"","","","","","image-button-response","109","1033171","0.0-14.0-1.0-2.6","879E34425DB343C1990ACDF765F0D7F3","879E34425DB343C1990ACDF765F0D7F3","0198be2c-b300-7f2c-8bca-6a64410d7370","0198be1d-574a-752e-ae53-1d263a30e856","{""num_scrambled_semantic"":""8"",""num_scrambled_causal"":""4"",""num_scrambled_schematic"":""4"",""participantId"":""879E34425DB343C1990ACDF765F0D7F3"",""assignmentId"":""0198be2c-b300-7f2c-8bca-6a64410d7370"",""projectId"":""0198be1d-574a-752e-ae53-1d263a30e856""}","https://test12345.live/?num_scrambled_semantic=8&num_scrambled_causal=4&num_scrambled_schematic=4&participantId=879E34425DB343C1990ACDF765F0D7F3&assignmentId=0198be2c-b300-7f2c-8bca-6a64410d7370&projectId=0198be1d-574a-752e-ae53-1d263a30e856","879E34425DB343C1990ACDF765F0D7F3-2025-08-18-17-54-45","","null","","[]","null","",""
"","","","","","image-button-response","110","1037673","0.0-14.0-1.0-0.7","879E34425DB343C1990ACDF765F0D7F3","879E34425DB343C1990ACDF765F0D7F3","0198be2c-b300-7f2c-8bca-6a64410d7370","0198be1d-574a-752e-ae53-1d263a30e856","{""num_scrambled_semantic"":""8"",""num_scrambled_causal"":""4"",""num_scrambled_schematic"":""4"",""participantId"":""879E34425DB343C1990ACDF765F0D7F3"",""assignmentId"":""0198be2c-b300-7f2c-8bca-6a64410d7370"",""projectId"":""0198be1d-574a-752e-ae53-1d263a30e856""}","https://test12345.live/?num_scrambled_semantic=8&num_scrambled_causal=4&num_scrambled_schematic=4&participantId=879E34425DB343C1990ACDF765F0D7F3&assignmentId=0198be2c-b300-7f2c-8bca-6a64410d7370&projectId=0198be1d-574a-752e-ae53-1d263a30e856","879E34425DB343C1990ACDF765F0D7F3-2025-08-18-17-54-45","","null","","images/causal_sequence/dog_causal/dog_causal_2.png","null","",""
"","","","","","image-button-response","111","1039194","0.0-14.0-1.0-1.7","879E34425DB343C1990ACDF765F0D7F3","879E34425DB343C1990ACDF765F0D7F3","0198be2c-b300-7f2c-8bca-6a64410d7370","0198be1d-574a-752e-ae53-1d263a30e856","{""num_scrambled_semantic"":""8"",""num_scrambled_causal"":""4"",""num_scrambled_schematic"":""4"",""participantId"":""879E34425DB343C1990ACDF765F0D7F3"",""assignmentId"":""0198be2c-b300-7f2c-8bca-6a64410d7370"",""projectId"":""0198be1d-574a-752e-ae53-1d263a30e856""}","https://test12345.live/?num_scrambled_semantic=8&num_scrambled_causal=4&num_scrambled_schematic=4&participantId=879E34425DB343C1990ACDF765F0D7F3&assignmentId=0198be2c-b300-7f2c-8bca-6a64410d7370&projectId=0198be1d-574a-752e-ae53-1d263a30e856","879E34425DB343C1990ACDF765F0D7F3-2025-08-18-17-54-45","","1521","","images/causal_sequence/dog_causal/dog_causal_2.png","0","",""
"","","","","","image-button-response","112","1050011","0.0-14.0-1.0-2.7","879E34425DB343C1990ACDF765F0D7F3","879E34425DB343C1990ACDF765F0D7F3","0198be2c-b300-7f2c-8bca-6a64410d7370","0198be1d-574a-752e-ae53-1d263a30e856","{""num_scrambled_semantic"":""8"",""num_scrambled_causal"":""4"",""num_scrambled_schematic"":""4"",""participantId"":""879E34425DB343C1990ACDF765F0D7F3"",""assignmentId"":""0198be2c-b300-7f2c-8bca-6a64410d7370"",""projectId"":""0198be1d-574a-752e-ae53-1d263a30e856""}","https://test12345.live/?num_scrambled_semantic=8&num_scrambled_causal=4&num_scrambled_schematic=4&participantId=879E34425DB343C1990ACDF765F0D7F3&assignmentId=0198be2c-b300-7f2c-8bca-6a64410d7370&projectId=0198be1d-574a-752e-ae53-1d263a30e856","879E34425DB343C1990ACDF765F0D7F3-2025-08-18-17-54-45","","null","","[]","null","",""
"","","","","","image-button-response","113","1054521","0.0-14.0-1.0-0.8","879E34425DB343C1990ACDF765F0D7F3","879E34425DB343C1990ACDF765F0D7F3","0198be2c-b300-7f2c-8bca-6a64410d7370","0198be1d-574a-752e-ae53-1d263a30e856","{""num_scrambled_semantic"":""8"",""num_scrambled_causal"":""4"",""num_scrambled_schematic"":""4"",""participantId"":""879E34425DB343C1990ACDF765F0D7F3"",""assignmentId"":""0198be2c-b300-7f2c-8bca-6a64410d7370"",""projectId"":""0198be1d-574a-752e-ae53-1d263a30e856""}","https://test12345.live/?num_scrambled_semantic=8&num_scrambled_causal=4&num_scrambled_schematic=4&participantId=879E34425DB343C1990ACDF765F0D7F3&assignmentId=0198be2c-b300-7f2c-8bca-6a64410d7370&projectId=0198be1d-574a-752e-ae53-1d263a30e856","879E34425DB343C1990ACDF765F0D7F3-2025-08-18-17-54-45","","null","","images/causal_sequence/dog_causal/dog_causal_ten.png","null","",""
"","","","","","image-button-response","114","1057094","0.0-14.0-1.0-1.8","879E34425DB343C1990ACDF765F0D7F3","879E34425DB343C1990ACDF765F0D7F3","0198be2c-b300-7f2c-8bca-6a64410d7370","0198be1d-574a-752e-ae53-1d263a30e856","{""num_scrambled_semantic"":""8"",""num_scrambled_causal"":""4"",""num_scrambled_schematic"":""4"",""participantId"":""879E34425DB343C1990ACDF765F0D7F3"",""assignmentId"":""0198be2c-b300-7f2c-8bca-6a64410d7370"",""projectId"":""0198be1d-574a-752e-ae53-1d263a30e856""}","https://test12345.live/?num_scrambled_semantic=8&num_scrambled_causal=4&num_scrambled_schematic=4&participantId=879E34425DB343C1990ACDF765F0D7F3&assignmentId=0198be2c-b300-7f2c-8bca-6a64410d7370&projectId=0198be1d-574a-752e-ae53-1d263a30e856","879E34425DB343C1990ACDF765F0D7F3-2025-08-18-17-54-45","","2572","","images/causal_sequence/dog_causal/dog_causal_ten.png","0","",""
