"success","timeout","failed_images","failed_audio","failed_video","trial_type","trial_index","time_elapsed","internal_node_id","subject","subject_id","study_id","session_id","urlvar","current_url","audio_id","view_history","rt","device_id","stimulus","response","estimated_stimulus_onset","seq_name"
"true","false","[]","[]","[]","preload","0","10322","0.0-0.0","88AD64F00C6B43489770A02E7A1AE2C2","88AD64F00C6B43489770A02E7A1AE2C2","0198b9fd-8320-7056-be8c-7c5c39c67e84","0198b9d0-29d4-7df3-8625-4b4515841beb","{""num_scrambled_semantic"":""8"",""num_scrambled_causal"":""4"",""num_scrambled_schematic"":""4"",""participantId"":""88AD64F00C6B43489770A02E7A1AE2C2"",""assignmentId"":""0198b9fd-8320-7056-be8c-7c5c39c67e84"",""projectId"":""0198b9d0-29d4-7df3-8625-4b4515841beb""}","https://test12345.live/?num_scrambled_semantic=8&num_scrambled_causal=4&num_scrambled_schematic=4&participantId=88AD64F00C6B43489770A02E7A1AE2C2&assignmentId=0198b9fd-8320-7056-be8c-7c5c39c67e84&projectId=0198b9d0-29d4-7df3-8625-4b4515841beb","88AD64F00C6B43489770A02E7A1AE2C2-2025-08-17-22-35-50","","","","","","",""
"","","","","","instructions","1","16087","0.0-1.0","88AD64F00C6B43489770A02E7A1AE2C2","88AD64F00C6B43489770A02E7A1AE2C2","0198b9fd-8320-7056-be8c-7c5c39c67e84","0198b9d0-29d4-7df3-8625-4b4515841beb","{""num_scrambled_semantic"":""8"",""num_scrambled_causal"":""4"",""num_scrambled_schematic"":""4"",""participantId"":""88AD64F00C6B43489770A02E7A1AE2C2"",""assignmentId"":""0198b9fd-8320-7056-be8c-7c5c39c67e84"",""projectId"":""0198b9d0-29d4-7df3-8625-4b4515841beb""}","https://test12345.live/?num_scrambled_semantic=8&num_scrambled_causal=4&num_scrambled_schematic=4&participantId=88AD64F00C6B43489770A02E7A1AE2C2&assignmentId=0198b9fd-8320-7056-be8c-7c5c39c67e84&projectId=0198b9d0-29d4-7df3-8625-4b4515841beb","88AD64F00C6B43489770A02E7A1AE2C2-2025-08-17-22-35-50","[{""page_index"":0,""viewing_time"":5763}]","5764","","","","",""
"","","","","","instructions","2","18337","0.0-2.0","88AD64F00C6B43489770A02E7A1AE2C2","88AD64F00C6B43489770A02E7A1AE2C2","0198b9fd-8320-7056-be8c-7c5c39c67e84","0198b9d0-29d4-7df3-8625-4b4515841beb","{""num_scrambled_semantic"":""8"",""num_scrambled_causal"":""4"",""num_scrambled_schematic"":""4"",""participantId"":""88AD64F00C6B43489770A02E7A1AE2C2"",""assignmentId"":""0198b9fd-8320-7056-be8c-7c5c39c67e84"",""projectId"":""0198b9d0-29d4-7df3-8625-4b4515841beb""}","https://test12345.live/?num_scrambled_semantic=8&num_scrambled_causal=4&num_scrambled_schematic=4&participantId=88AD64F00C6B43489770A02E7A1AE2C2&assignmentId=0198b9fd-8320-7056-be8c-7c5c39c67e84&projectId=0198b9d0-29d4-7df3-8625-4b4515841beb","88AD64F00C6B43489770A02E7A1AE2C2-2025-08-17-22-35-50","[{""page_index"":0,""viewing_time"":2250}]","2250","","","","",""
"true","","","","","fullscreen","3","20447","0.0-3.0","88AD64F00C6B43489770A02E7A1AE2C2","88AD64F00C6B43489770A02E7A1AE2C2","0198b9fd-8320-7056-be8c-7c5c39c67e84","0198b9d0-29d4-7df3-8625-4b4515841beb","{""num_scrambled_semantic"":""8"",""num_scrambled_causal"":""4"",""num_scrambled_schematic"":""4"",""participantId"":""88AD64F00C6B43489770A02E7A1AE2C2"",""assignmentId"":""0198b9fd-8320-7056-be8c-7c5c39c67e84"",""projectId"":""0198b9d0-29d4-7df3-8625-4b4515841beb""}","https://test12345.live/?num_scrambled_semantic=8&num_scrambled_causal=4&num_scrambled_schematic=4&participantId=88AD64F00C6B43489770A02E7A1AE2C2&assignmentId=0198b9fd-8320-7056-be8c-7c5c39c67e84&projectId=0198b9d0-29d4-7df3-8625-4b4515841beb","88AD64F00C6B43489770A02E7A1AE2C2-2025-08-17-22-35-50","","1106","","","","",""
"","","","","","initialize-microphone","4","32124","0.0-4.0-0.0","88AD64F00C6B43489770A02E7A1AE2C2","88AD64F00C6B43489770A02E7A1AE2C2","0198b9fd-8320-7056-be8c-7c5c39c67e84","0198b9d0-29d4-7df3-8625-4b4515841beb","{""num_scrambled_semantic"":""8"",""num_scrambled_causal"":""4"",""num_scrambled_schematic"":""4"",""participantId"":""88AD64F00C6B43489770A02E7A1AE2C2"",""assignmentId"":""0198b9fd-8320-7056-be8c-7c5c39c67e84"",""projectId"":""0198b9d0-29d4-7df3-8625-4b4515841beb""}","https://test12345.live/?num_scrambled_semantic=8&num_scrambled_causal=4&num_scrambled_schematic=4&participantId=88AD64F00C6B43489770A02E7A1AE2C2&assignmentId=0198b9fd-8320-7056-be8c-7c5c39c67e84&projectId=0198b9d0-29d4-7df3-8625-4b4515841beb","88AD64F00C6B43489770A02E7A1AE2C2-2025-08-17-22-35-50","","","f0d2044bfec6b1e8fb8e4a9226a34f7ba4e7c078978df1e70a49f694fd98550a","","","",""
"","","","","","html-audio-response","5","41386","0.0-4.0-1.0","88AD64F00C6B43489770A02E7A1AE2C2","88AD64F00C6B43489770A02E7A1AE2C2","0198b9fd-8320-7056-be8c-7c5c39c67e84","0198b9d0-29d4-7df3-8625-4b4515841beb","{""num_scrambled_semantic"":""8"",""num_scrambled_causal"":""4"",""num_scrambled_schematic"":""4"",""participantId"":""88AD64F00C6B43489770A02E7A1AE2C2"",""assignmentId"":""0198b9fd-8320-7056-be8c-7c5c39c67e84"",""projectId"":""0198b9d0-29d4-7df3-8625-4b4515841beb""}","https://test12345.live/?num_scrambled_semantic=8&num_scrambled_causal=4&num_scrambled_schematic=4&participantId=88AD64F00C6B43489770A02E7A1AE2C2&assignmentId=0198b9fd-8320-7056-be8c-7c5c39c67e84&projectId=0198b9d0-29d4-7df3-8625-4b4515841beb","88AD64F00C6B43489770A02E7A1AE2C2-2025-08-17-22-35-50","","3235","","<span style=""color: red; font-size: 24px""> NOW RECORDING</span>
        <p>Please test Microphone</p>","","1",""
"","","","","","html-button-response","6","42419","0.0-4.0-2.0","88AD64F00C6B43489770A02E7A1AE2C2","88AD64F00C6B43489770A02E7A1AE2C2","0198b9fd-8320-7056-be8c-7c5c39c67e84","0198b9d0-29d4-7df3-8625-4b4515841beb","{""num_scrambled_semantic"":""8"",""num_scrambled_causal"":""4"",""num_scrambled_schematic"":""4"",""participantId"":""88AD64F00C6B43489770A02E7A1AE2C2"",""assignmentId"":""0198b9fd-8320-7056-be8c-7c5c39c67e84"",""projectId"":""0198b9d0-29d4-7df3-8625-4b4515841beb""}","https://test12345.live/?num_scrambled_semantic=8&num_scrambled_causal=4&num_scrambled_schematic=4&participantId=88AD64F00C6B43489770A02E7A1AE2C2&assignmentId=0198b9fd-8320-7056-be8c-7c5c39c67e84&projectId=0198b9d0-29d4-7df3-8625-4b4515841beb","88AD64F00C6B43489770A02E7A1AE2C2-2025-08-17-22-35-50","","1031","","<p style=""font-size:48px; color:red;"">Is Microphone OK?</p>","1","",""
"","","","","","instructions","7","46262","0.0-5.0","88AD64F00C6B43489770A02E7A1AE2C2","88AD64F00C6B43489770A02E7A1AE2C2","0198b9fd-8320-7056-be8c-7c5c39c67e84","0198b9d0-29d4-7df3-8625-4b4515841beb","{""num_scrambled_semantic"":""8"",""num_scrambled_causal"":""4"",""num_scrambled_schematic"":""4"",""participantId"":""88AD64F00C6B43489770A02E7A1AE2C2"",""assignmentId"":""0198b9fd-8320-7056-be8c-7c5c39c67e84"",""projectId"":""0198b9d0-29d4-7df3-8625-4b4515841beb""}","https://test12345.live/?num_scrambled_semantic=8&num_scrambled_causal=4&num_scrambled_schematic=4&participantId=88AD64F00C6B43489770A02E7A1AE2C2&assignmentId=0198b9fd-8320-7056-be8c-7c5c39c67e84&projectId=0198b9d0-29d4-7df3-8625-4b4515841beb","88AD64F00C6B43489770A02E7A1AE2C2-2025-08-17-22-35-50","[{""page_index"":0,""viewing_time"":1851},{""page_index"":1,""viewing_time"":1991}]","3842","","","","",""
"","","","","","image-button-response","8","52270","0.0-6.0-0.0","88AD64F00C6B43489770A02E7A1AE2C2","88AD64F00C6B43489770A02E7A1AE2C2","0198b9fd-8320-7056-be8c-7c5c39c67e84","0198b9d0-29d4-7df3-8625-4b4515841beb","{""num_scrambled_semantic"":""8"",""num_scrambled_causal"":""4"",""num_scrambled_schematic"":""4"",""participantId"":""88AD64F00C6B43489770A02E7A1AE2C2"",""assignmentId"":""0198b9fd-8320-7056-be8c-7c5c39c67e84"",""projectId"":""0198b9d0-29d4-7df3-8625-4b4515841beb""}","https://test12345.live/?num_scrambled_semantic=8&num_scrambled_causal=4&num_scrambled_schematic=4&participantId=88AD64F00C6B43489770A02E7A1AE2C2&assignmentId=0198b9fd-8320-7056-be8c-7c5c39c67e84&projectId=0198b9d0-29d4-7df3-8625-4b4515841beb","88AD64F00C6B43489770A02E7A1AE2C2-2025-08-17-22-35-50","","null","","images/instructions/movie_0.png","null","",""
"","","","","","image-button-response","9","56777","0.0-6.0-1.0-0.0","88AD64F00C6B43489770A02E7A1AE2C2","88AD64F00C6B43489770A02E7A1AE2C2","0198b9fd-8320-7056-be8c-7c5c39c67e84","0198b9d0-29d4-7df3-8625-4b4515841beb","{""num_scrambled_semantic"":""8"",""num_scrambled_causal"":""4"",""num_scrambled_schematic"":""4"",""participantId"":""88AD64F00C6B43489770A02E7A1AE2C2"",""assignmentId"":""0198b9fd-8320-7056-be8c-7c5c39c67e84"",""projectId"":""0198b9d0-29d4-7df3-8625-4b4515841beb""}","https://test12345.live/?num_scrambled_semantic=8&num_scrambled_causal=4&num_scrambled_schematic=4&participantId=88AD64F00C6B43489770A02E7A1AE2C2&assignmentId=0198b9fd-8320-7056-be8c-7c5c39c67e84&projectId=0198b9d0-29d4-7df3-8625-4b4515841beb","88AD64F00C6B43489770A02E7A1AE2C2-2025-08-17-22-35-50","","null","","images/instructions/movie_1.png","null","",""
"","","","","","image-button-response","10","58312","0.0-6.0-1.0-1.0","88AD64F00C6B43489770A02E7A1AE2C2","88AD64F00C6B43489770A02E7A1AE2C2","0198b9fd-8320-7056-be8c-7c5c39c67e84","0198b9d0-29d4-7df3-8625-4b4515841beb","{""num_scrambled_semantic"":""8"",""num_scrambled_causal"":""4"",""num_scrambled_schematic"":""4"",""participantId"":""88AD64F00C6B43489770A02E7A1AE2C2"",""assignmentId"":""0198b9fd-8320-7056-be8c-7c5c39c67e84"",""projectId"":""0198b9d0-29d4-7df3-8625-4b4515841beb""}","https://test12345.live/?num_scrambled_semantic=8&num_scrambled_causal=4&num_scrambled_schematic=4&participantId=88AD64F00C6B43489770A02E7A1AE2C2&assignmentId=0198b9fd-8320-7056-be8c-7c5c39c67e84&projectId=0198b9d0-29d4-7df3-8625-4b4515841beb","88AD64F00C6B43489770A02E7A1AE2C2-2025-08-17-22-35-50","","1532","","images/instructions/movie_1.png","0","",""
"","","","","","image-button-response","11","63716","0.0-6.0-1.0-2.0","88AD64F00C6B43489770A02E7A1AE2C2","88AD64F00C6B43489770A02E7A1AE2C2","0198b9fd-8320-7056-be8c-7c5c39c67e84","0198b9d0-29d4-7df3-8625-4b4515841beb","{""num_scrambled_semantic"":""8"",""num_scrambled_causal"":""4"",""num_scrambled_schematic"":""4"",""participantId"":""88AD64F00C6B43489770A02E7A1AE2C2"",""assignmentId"":""0198b9fd-8320-7056-be8c-7c5c39c67e84"",""projectId"":""0198b9d0-29d4-7df3-8625-4b4515841beb""}","https://test12345.live/?num_scrambled_semantic=8&num_scrambled_causal=4&num_scrambled_schematic=4&participantId=88AD64F00C6B43489770A02E7A1AE2C2&assignmentId=0198b9fd-8320-7056-be8c-7c5c39c67e84&projectId=0198b9d0-29d4-7df3-8625-4b4515841beb","88AD64F00C6B43489770A02E7A1AE2C2-2025-08-17-22-35-50","","null","","[]","null","",""
"","","","","","image-button-response","12","68221","0.0-6.0-1.0-0.1","88AD64F00C6B43489770A02E7A1AE2C2","88AD64F00C6B43489770A02E7A1AE2C2","0198b9fd-8320-7056-be8c-7c5c39c67e84","0198b9d0-29d4-7df3-8625-4b4515841beb","{""num_scrambled_semantic"":""8"",""num_scrambled_causal"":""4"",""num_scrambled_schematic"":""4"",""participantId"":""88AD64F00C6B43489770A02E7A1AE2C2"",""assignmentId"":""0198b9fd-8320-7056-be8c-7c5c39c67e84"",""projectId"":""0198b9d0-29d4-7df3-8625-4b4515841beb""}","https://test12345.live/?num_scrambled_semantic=8&num_scrambled_causal=4&num_scrambled_schematic=4&participantId=88AD64F00C6B43489770A02E7A1AE2C2&assignmentId=0198b9fd-8320-7056-be8c-7c5c39c67e84&projectId=0198b9d0-29d4-7df3-8625-4b4515841beb","88AD64F00C6B43489770A02E7A1AE2C2-2025-08-17-22-35-50","","null","","images/instructions/movie_2.png","null","",""
"","","","","","image-button-response","13","71669","0.0-6.0-1.0-1.1","88AD64F00C6B43489770A02E7A1AE2C2","88AD64F00C6B43489770A02E7A1AE2C2","0198b9fd-8320-7056-be8c-7c5c39c67e84","0198b9d0-29d4-7df3-8625-4b4515841beb","{""num_scrambled_semantic"":""8"",""num_scrambled_causal"":""4"",""num_scrambled_schematic"":""4"",""participantId"":""88AD64F00C6B43489770A02E7A1AE2C2"",""assignmentId"":""0198b9fd-8320-7056-be8c-7c5c39c67e84"",""projectId"":""0198b9d0-29d4-7df3-8625-4b4515841beb""}","https://test12345.live/?num_scrambled_semantic=8&num_scrambled_causal=4&num_scrambled_schematic=4&participantId=88AD64F00C6B43489770A02E7A1AE2C2&assignmentId=0198b9fd-8320-7056-be8c-7c5c39c67e84&projectId=0198b9d0-29d4-7df3-8625-4b4515841beb","88AD64F00C6B43489770A02E7A1AE2C2-2025-08-17-22-35-50","","3445","","images/instructions/movie_2.png","0","",""
"","","","","","image-button-response","14","77075","0.0-6.0-1.0-2.1","88AD64F00C6B43489770A02E7A1AE2C2","88AD64F00C6B43489770A02E7A1AE2C2","0198b9fd-8320-7056-be8c-7c5c39c67e84","0198b9d0-29d4-7df3-8625-4b4515841beb","{""num_scrambled_semantic"":""8"",""num_scrambled_causal"":""4"",""num_scrambled_schematic"":""4"",""participantId"":""88AD64F00C6B43489770A02E7A1AE2C2"",""assignmentId"":""0198b9fd-8320-7056-be8c-7c5c39c67e84"",""projectId"":""0198b9d0-29d4-7df3-8625-4b4515841beb""}","https://test12345.live/?num_scrambled_semantic=8&num_scrambled_causal=4&num_scrambled_schematic=4&participantId=88AD64F00C6B43489770A02E7A1AE2C2&assignmentId=0198b9fd-8320-7056-be8c-7c5c39c67e84&projectId=0198b9d0-29d4-7df3-8625-4b4515841beb","88AD64F00C6B43489770A02E7A1AE2C2-2025-08-17-22-35-50","","null","","[]","null","",""
"","","","","","image-button-response","15","81578","0.0-6.0-1.0-0.2","88AD64F00C6B43489770A02E7A1AE2C2","88AD64F00C6B43489770A02E7A1AE2C2","0198b9fd-8320-7056-be8c-7c5c39c67e84","0198b9d0-29d4-7df3-8625-4b4515841beb","{""num_scrambled_semantic"":""8"",""num_scrambled_causal"":""4"",""num_scrambled_schematic"":""4"",""participantId"":""88AD64F00C6B43489770A02E7A1AE2C2"",""assignmentId"":""0198b9fd-8320-7056-be8c-7c5c39c67e84"",""projectId"":""0198b9d0-29d4-7df3-8625-4b4515841beb""}","https://test12345.live/?num_scrambled_semantic=8&num_scrambled_causal=4&num_scrambled_schematic=4&participantId=88AD64F00C6B43489770A02E7A1AE2C2&assignmentId=0198b9fd-8320-7056-be8c-7c5c39c67e84&projectId=0198b9d0-29d4-7df3-8625-4b4515841beb","88AD64F00C6B43489770A02E7A1AE2C2-2025-08-17-22-35-50","","null","","images/instructions/movie_3.png","null","",""
"","","","","","image-button-response","16","82541","0.0-6.0-1.0-1.2","88AD64F00C6B43489770A02E7A1AE2C2","88AD64F00C6B43489770A02E7A1AE2C2","0198b9fd-8320-7056-be8c-7c5c39c67e84","0198b9d0-29d4-7df3-8625-4b4515841beb","{""num_scrambled_semantic"":""8"",""num_scrambled_causal"":""4"",""num_scrambled_schematic"":""4"",""participantId"":""88AD64F00C6B43489770A02E7A1AE2C2"",""assignmentId"":""0198b9fd-8320-7056-be8c-7c5c39c67e84"",""projectId"":""0198b9d0-29d4-7df3-8625-4b4515841beb""}","https://test12345.live/?num_scrambled_semantic=8&num_scrambled_causal=4&num_scrambled_schematic=4&participantId=88AD64F00C6B43489770A02E7A1AE2C2&assignmentId=0198b9fd-8320-7056-be8c-7c5c39c67e84&projectId=0198b9d0-29d4-7df3-8625-4b4515841beb","88AD64F00C6B43489770A02E7A1AE2C2-2025-08-17-22-35-50","","961","","images/instructions/movie_3.png","0","",""
"","","","","","image-button-response","17","87945","0.0-6.0-1.0-2.2","88AD64F00C6B43489770A02E7A1AE2C2","88AD64F00C6B43489770A02E7A1AE2C2","0198b9fd-8320-7056-be8c-7c5c39c67e84","0198b9d0-29d4-7df3-8625-4b4515841beb","{""num_scrambled_semantic"":""8"",""num_scrambled_causal"":""4"",""num_scrambled_schematic"":""4"",""participantId"":""88AD64F00C6B43489770A02E7A1AE2C2"",""assignmentId"":""0198b9fd-8320-7056-be8c-7c5c39c67e84"",""projectId"":""0198b9d0-29d4-7df3-8625-4b4515841beb""}","https://test12345.live/?num_scrambled_semantic=8&num_scrambled_causal=4&num_scrambled_schematic=4&participantId=88AD64F00C6B43489770A02E7A1AE2C2&assignmentId=0198b9fd-8320-7056-be8c-7c5c39c67e84&projectId=0198b9d0-29d4-7df3-8625-4b4515841beb","88AD64F00C6B43489770A02E7A1AE2C2-2025-08-17-22-35-50","","null","","[]","null","",""
"","","","","","image-button-response","18","92449","0.0-6.0-1.0-0.3","88AD64F00C6B43489770A02E7A1AE2C2","88AD64F00C6B43489770A02E7A1AE2C2","0198b9fd-8320-7056-be8c-7c5c39c67e84","0198b9d0-29d4-7df3-8625-4b4515841beb","{""num_scrambled_semantic"":""8"",""num_scrambled_causal"":""4"",""num_scrambled_schematic"":""4"",""participantId"":""88AD64F00C6B43489770A02E7A1AE2C2"",""assignmentId"":""0198b9fd-8320-7056-be8c-7c5c39c67e84"",""projectId"":""0198b9d0-29d4-7df3-8625-4b4515841beb""}","https://test12345.live/?num_scrambled_semantic=8&num_scrambled_causal=4&num_scrambled_schematic=4&participantId=88AD64F00C6B43489770A02E7A1AE2C2&assignmentId=0198b9fd-8320-7056-be8c-7c5c39c67e84&projectId=0198b9d0-29d4-7df3-8625-4b4515841beb","88AD64F00C6B43489770A02E7A1AE2C2-2025-08-17-22-35-50","","null","","images/instructions/movie_4.png","null","",""
"","","","","","image-button-response","19","93257","0.0-6.0-1.0-1.3","88AD64F00C6B43489770A02E7A1AE2C2","88AD64F00C6B43489770A02E7A1AE2C2","0198b9fd-8320-7056-be8c-7c5c39c67e84","0198b9d0-29d4-7df3-8625-4b4515841beb","{""num_scrambled_semantic"":""8"",""num_scrambled_causal"":""4"",""num_scrambled_schematic"":""4"",""participantId"":""88AD64F00C6B43489770A02E7A1AE2C2"",""assignmentId"":""0198b9fd-8320-7056-be8c-7c5c39c67e84"",""projectId"":""0198b9d0-29d4-7df3-8625-4b4515841beb""}","https://test12345.live/?num_scrambled_semantic=8&num_scrambled_causal=4&num_scrambled_schematic=4&participantId=88AD64F00C6B43489770A02E7A1AE2C2&assignmentId=0198b9fd-8320-7056-be8c-7c5c39c67e84&projectId=0198b9d0-29d4-7df3-8625-4b4515841beb","88AD64F00C6B43489770A02E7A1AE2C2-2025-08-17-22-35-50","","806","","images/instructions/movie_4.png","0","",""
"","","","","","image-button-response","20","98660","0.0-6.0-1.0-2.3","88AD64F00C6B43489770A02E7A1AE2C2","88AD64F00C6B43489770A02E7A1AE2C2","0198b9fd-8320-7056-be8c-7c5c39c67e84","0198b9d0-29d4-7df3-8625-4b4515841beb","{""num_scrambled_semantic"":""8"",""num_scrambled_causal"":""4"",""num_scrambled_schematic"":""4"",""participantId"":""88AD64F00C6B43489770A02E7A1AE2C2"",""assignmentId"":""0198b9fd-8320-7056-be8c-7c5c39c67e84"",""projectId"":""0198b9d0-29d4-7df3-8625-4b4515841beb""}","https://test12345.live/?num_scrambled_semantic=8&num_scrambled_causal=4&num_scrambled_schematic=4&participantId=88AD64F00C6B43489770A02E7A1AE2C2&assignmentId=0198b9fd-8320-7056-be8c-7c5c39c67e84&projectId=0198b9d0-29d4-7df3-8625-4b4515841beb","88AD64F00C6B43489770A02E7A1AE2C2-2025-08-17-22-35-50","","null","","[]","null","",""
"","","","","","instructions","21","115350","0.0-7.0","88AD64F00C6B43489770A02E7A1AE2C2","88AD64F00C6B43489770A02E7A1AE2C2","0198b9fd-8320-7056-be8c-7c5c39c67e84","0198b9d0-29d4-7df3-8625-4b4515841beb","{""num_scrambled_semantic"":""8"",""num_scrambled_causal"":""4"",""num_scrambled_schematic"":""4"",""participantId"":""88AD64F00C6B43489770A02E7A1AE2C2"",""assignmentId"":""0198b9fd-8320-7056-be8c-7c5c39c67e84"",""projectId"":""0198b9d0-29d4-7df3-8625-4b4515841beb""}","https://test12345.live/?num_scrambled_semantic=8&num_scrambled_causal=4&num_scrambled_schematic=4&participantId=88AD64F00C6B43489770A02E7A1AE2C2&assignmentId=0198b9fd-8320-7056-be8c-7c5c39c67e84&projectId=0198b9d0-29d4-7df3-8625-4b4515841beb","88AD64F00C6B43489770A02E7A1AE2C2-2025-08-17-22-35-50","[{""page_index"":0,""viewing_time"":15314},{""page_index"":1,""viewing_time"":1377}]","16691","","","","",""
"","","","","","html-audio-response","22","160576","0.0-8.0","88AD64F00C6B43489770A02E7A1AE2C2","88AD64F00C6B43489770A02E7A1AE2C2","0198b9fd-8320-7056-be8c-7c5c39c67e84","0198b9d0-29d4-7df3-8625-4b4515841beb","{""num_scrambled_semantic"":""8"",""num_scrambled_causal"":""4"",""num_scrambled_schematic"":""4"",""participantId"":""88AD64F00C6B43489770A02E7A1AE2C2"",""assignmentId"":""0198b9fd-8320-7056-be8c-7c5c39c67e84"",""projectId"":""0198b9d0-29d4-7df3-8625-4b4515841beb""}","https://test12345.live/?num_scrambled_semantic=8&num_scrambled_causal=4&num_scrambled_schematic=4&participantId=88AD64F00C6B43489770A02E7A1AE2C2&assignmentId=0198b9fd-8320-7056-be8c-7c5c39c67e84&projectId=0198b9d0-29d4-7df3-8625-4b4515841beb","88AD64F00C6B43489770A02E7A1AE2C2-2025-08-17-22-35-50","","21194","","[""<span style=\""color: red; font-size: 24px\""> NOW RECORDING</span><p>Please say out loud all the images you saw, as many as you can remember. The images can be said in any order.</p>""]","","1",""
"","","","","","instructions","23","162488","0.0-9.0","88AD64F00C6B43489770A02E7A1AE2C2","88AD64F00C6B43489770A02E7A1AE2C2","0198b9fd-8320-7056-be8c-7c5c39c67e84","0198b9d0-29d4-7df3-8625-4b4515841beb","{""num_scrambled_semantic"":""8"",""num_scrambled_causal"":""4"",""num_scrambled_schematic"":""4"",""participantId"":""88AD64F00C6B43489770A02E7A1AE2C2"",""assignmentId"":""0198b9fd-8320-7056-be8c-7c5c39c67e84"",""projectId"":""0198b9d0-29d4-7df3-8625-4b4515841beb""}","https://test12345.live/?num_scrambled_semantic=8&num_scrambled_causal=4&num_scrambled_schematic=4&participantId=88AD64F00C6B43489770A02E7A1AE2C2&assignmentId=0198b9fd-8320-7056-be8c-7c5c39c67e84&projectId=0198b9d0-29d4-7df3-8625-4b4515841beb","88AD64F00C6B43489770A02E7A1AE2C2-2025-08-17-22-35-50","[{""page_index"":0,""viewing_time"":1908}]","1908","","","","",""
"","","","","","image-button-response","24","168491","0.0-10.0-0.0","88AD64F00C6B43489770A02E7A1AE2C2","88AD64F00C6B43489770A02E7A1AE2C2","0198b9fd-8320-7056-be8c-7c5c39c67e84","0198b9d0-29d4-7df3-8625-4b4515841beb","{""num_scrambled_semantic"":""8"",""num_scrambled_causal"":""4"",""num_scrambled_schematic"":""4"",""participantId"":""88AD64F00C6B43489770A02E7A1AE2C2"",""assignmentId"":""0198b9fd-8320-7056-be8c-7c5c39c67e84"",""projectId"":""0198b9d0-29d4-7df3-8625-4b4515841beb""}","https://test12345.live/?num_scrambled_semantic=8&num_scrambled_causal=4&num_scrambled_schematic=4&participantId=88AD64F00C6B43489770A02E7A1AE2C2&assignmentId=0198b9fd-8320-7056-be8c-7c5c39c67e84&projectId=0198b9d0-29d4-7df3-8625-4b4515841beb","88AD64F00C6B43489770A02E7A1AE2C2-2025-08-17-22-35-50","","null","","images/causal_sequence/package_causal/package_causal_0.png","null","",""
"","","","","","image-button-response","25","172996","0.0-10.0-1.0-0.0","88AD64F00C6B43489770A02E7A1AE2C2","88AD64F00C6B43489770A02E7A1AE2C2","0198b9fd-8320-7056-be8c-7c5c39c67e84","0198b9d0-29d4-7df3-8625-4b4515841beb","{""num_scrambled_semantic"":""8"",""num_scrambled_causal"":""4"",""num_scrambled_schematic"":""4"",""participantId"":""88AD64F00C6B43489770A02E7A1AE2C2"",""assignmentId"":""0198b9fd-8320-7056-be8c-7c5c39c67e84"",""projectId"":""0198b9d0-29d4-7df3-8625-4b4515841beb""}","https://test12345.live/?num_scrambled_semantic=8&num_scrambled_causal=4&num_scrambled_schematic=4&participantId=88AD64F00C6B43489770A02E7A1AE2C2&assignmentId=0198b9fd-8320-7056-be8c-7c5c39c67e84&projectId=0198b9d0-29d4-7df3-8625-4b4515841beb","88AD64F00C6B43489770A02E7A1AE2C2-2025-08-17-22-35-50","","null","","images/causal_sequence/package_causal/package_causal_1.png","null","",""
"","","","","","image-button-response","26","174400","0.0-10.0-1.0-1.0","88AD64F00C6B43489770A02E7A1AE2C2","88AD64F00C6B43489770A02E7A1AE2C2","0198b9fd-8320-7056-be8c-7c5c39c67e84","0198b9d0-29d4-7df3-8625-4b4515841beb","{""num_scrambled_semantic"":""8"",""num_scrambled_causal"":""4"",""num_scrambled_schematic"":""4"",""participantId"":""88AD64F00C6B43489770A02E7A1AE2C2"",""assignmentId"":""0198b9fd-8320-7056-be8c-7c5c39c67e84"",""projectId"":""0198b9d0-29d4-7df3-8625-4b4515841beb""}","https://test12345.live/?num_scrambled_semantic=8&num_scrambled_causal=4&num_scrambled_schematic=4&participantId=88AD64F00C6B43489770A02E7A1AE2C2&assignmentId=0198b9fd-8320-7056-be8c-7c5c39c67e84&projectId=0198b9d0-29d4-7df3-8625-4b4515841beb","88AD64F00C6B43489770A02E7A1AE2C2-2025-08-17-22-35-50","","1402","","images/causal_sequence/package_causal/package_causal_1.png","0","",""
"","","","","","image-button-response","27","179803","0.0-10.0-1.0-2.0","88AD64F00C6B43489770A02E7A1AE2C2","88AD64F00C6B43489770A02E7A1AE2C2","0198b9fd-8320-7056-be8c-7c5c39c67e84","0198b9d0-29d4-7df3-8625-4b4515841beb","{""num_scrambled_semantic"":""8"",""num_scrambled_causal"":""4"",""num_scrambled_schematic"":""4"",""participantId"":""88AD64F00C6B43489770A02E7A1AE2C2"",""assignmentId"":""0198b9fd-8320-7056-be8c-7c5c39c67e84"",""projectId"":""0198b9d0-29d4-7df3-8625-4b4515841beb""}","https://test12345.live/?num_scrambled_semantic=8&num_scrambled_causal=4&num_scrambled_schematic=4&participantId=88AD64F00C6B43489770A02E7A1AE2C2&assignmentId=0198b9fd-8320-7056-be8c-7c5c39c67e84&projectId=0198b9d0-29d4-7df3-8625-4b4515841beb","88AD64F00C6B43489770A02E7A1AE2C2-2025-08-17-22-35-50","","null","","[]","null","",""
"","","","","","image-button-response","28","184308","0.0-10.0-1.0-0.1","88AD64F00C6B43489770A02E7A1AE2C2","88AD64F00C6B43489770A02E7A1AE2C2","0198b9fd-8320-7056-be8c-7c5c39c67e84","0198b9d0-29d4-7df3-8625-4b4515841beb","{""num_scrambled_semantic"":""8"",""num_scrambled_causal"":""4"",""num_scrambled_schematic"":""4"",""participantId"":""88AD64F00C6B43489770A02E7A1AE2C2"",""assignmentId"":""0198b9fd-8320-7056-be8c-7c5c39c67e84"",""projectId"":""0198b9d0-29d4-7df3-8625-4b4515841beb""}","https://test12345.live/?num_scrambled_semantic=8&num_scrambled_causal=4&num_scrambled_schematic=4&participantId=88AD64F00C6B43489770A02E7A1AE2C2&assignmentId=0198b9fd-8320-7056-be8c-7c5c39c67e84&projectId=0198b9d0-29d4-7df3-8625-4b4515841beb","88AD64F00C6B43489770A02E7A1AE2C2-2025-08-17-22-35-50","","null","","images/causal_sequence/package_causal/package_causal_6.png","null","",""
"","","","","","image-button-response","29","185178","0.0-10.0-1.0-1.1","88AD64F00C6B43489770A02E7A1AE2C2","88AD64F00C6B43489770A02E7A1AE2C2","0198b9fd-8320-7056-be8c-7c5c39c67e84","0198b9d0-29d4-7df3-8625-4b4515841beb","{""num_scrambled_semantic"":""8"",""num_scrambled_causal"":""4"",""num_scrambled_schematic"":""4"",""participantId"":""88AD64F00C6B43489770A02E7A1AE2C2"",""assignmentId"":""0198b9fd-8320-7056-be8c-7c5c39c67e84"",""projectId"":""0198b9d0-29d4-7df3-8625-4b4515841beb""}","https://test12345.live/?num_scrambled_semantic=8&num_scrambled_causal=4&num_scrambled_schematic=4&participantId=88AD64F00C6B43489770A02E7A1AE2C2&assignmentId=0198b9fd-8320-7056-be8c-7c5c39c67e84&projectId=0198b9d0-29d4-7df3-8625-4b4515841beb","88AD64F00C6B43489770A02E7A1AE2C2-2025-08-17-22-35-50","","868","","images/causal_sequence/package_causal/package_causal_6.png","0","",""
"","","","","","image-button-response","30","190584","0.0-10.0-1.0-2.1","88AD64F00C6B43489770A02E7A1AE2C2","88AD64F00C6B43489770A02E7A1AE2C2","0198b9fd-8320-7056-be8c-7c5c39c67e84","0198b9d0-29d4-7df3-8625-4b4515841beb","{""num_scrambled_semantic"":""8"",""num_scrambled_causal"":""4"",""num_scrambled_schematic"":""4"",""participantId"":""88AD64F00C6B43489770A02E7A1AE2C2"",""assignmentId"":""0198b9fd-8320-7056-be8c-7c5c39c67e84"",""projectId"":""0198b9d0-29d4-7df3-8625-4b4515841beb""}","https://test12345.live/?num_scrambled_semantic=8&num_scrambled_causal=4&num_scrambled_schematic=4&participantId=88AD64F00C6B43489770A02E7A1AE2C2&assignmentId=0198b9fd-8320-7056-be8c-7c5c39c67e84&projectId=0198b9d0-29d4-7df3-8625-4b4515841beb","88AD64F00C6B43489770A02E7A1AE2C2-2025-08-17-22-35-50","","null","","[]","null","",""
"","","","","","image-button-response","31","195092","0.0-10.0-1.0-0.2","88AD64F00C6B43489770A02E7A1AE2C2","88AD64F00C6B43489770A02E7A1AE2C2","0198b9fd-8320-7056-be8c-7c5c39c67e84","0198b9d0-29d4-7df3-8625-4b4515841beb","{""num_scrambled_semantic"":""8"",""num_scrambled_causal"":""4"",""num_scrambled_schematic"":""4"",""participantId"":""88AD64F00C6B43489770A02E7A1AE2C2"",""assignmentId"":""0198b9fd-8320-7056-be8c-7c5c39c67e84"",""projectId"":""0198b9d0-29d4-7df3-8625-4b4515841beb""}","https://test12345.live/?num_scrambled_semantic=8&num_scrambled_causal=4&num_scrambled_schematic=4&participantId=88AD64F00C6B43489770A02E7A1AE2C2&assignmentId=0198b9fd-8320-7056-be8c-7c5c39c67e84&projectId=0198b9d0-29d4-7df3-8625-4b4515841beb","88AD64F00C6B43489770A02E7A1AE2C2-2025-08-17-22-35-50","","null","","images/causal_sequence/package_causal/package_causal_7.png","null","",""
"","","","","","image-button-response","32","196282","0.0-10.0-1.0-1.2","88AD64F00C6B43489770A02E7A1AE2C2","88AD64F00C6B43489770A02E7A1AE2C2","0198b9fd-8320-7056-be8c-7c5c39c67e84","0198b9d0-29d4-7df3-8625-4b4515841beb","{""num_scrambled_semantic"":""8"",""num_scrambled_causal"":""4"",""num_scrambled_schematic"":""4"",""participantId"":""88AD64F00C6B43489770A02E7A1AE2C2"",""assignmentId"":""0198b9fd-8320-7056-be8c-7c5c39c67e84"",""projectId"":""0198b9d0-29d4-7df3-8625-4b4515841beb""}","https://test12345.live/?num_scrambled_semantic=8&num_scrambled_causal=4&num_scrambled_schematic=4&participantId=88AD64F00C6B43489770A02E7A1AE2C2&assignmentId=0198b9fd-8320-7056-be8c-7c5c39c67e84&projectId=0198b9d0-29d4-7df3-8625-4b4515841beb","88AD64F00C6B43489770A02E7A1AE2C2-2025-08-17-22-35-50","","1188","","images/causal_sequence/package_causal/package_causal_7.png","0","",""
"","","","","","image-button-response","33","201688","0.0-10.0-1.0-2.2","88AD64F00C6B43489770A02E7A1AE2C2","88AD64F00C6B43489770A02E7A1AE2C2","0198b9fd-8320-7056-be8c-7c5c39c67e84","0198b9d0-29d4-7df3-8625-4b4515841beb","{""num_scrambled_semantic"":""8"",""num_scrambled_causal"":""4"",""num_scrambled_schematic"":""4"",""participantId"":""88AD64F00C6B43489770A02E7A1AE2C2"",""assignmentId"":""0198b9fd-8320-7056-be8c-7c5c39c67e84"",""projectId"":""0198b9d0-29d4-7df3-8625-4b4515841beb""}","https://test12345.live/?num_scrambled_semantic=8&num_scrambled_causal=4&num_scrambled_schematic=4&participantId=88AD64F00C6B43489770A02E7A1AE2C2&assignmentId=0198b9fd-8320-7056-be8c-7c5c39c67e84&projectId=0198b9d0-29d4-7df3-8625-4b4515841beb","88AD64F00C6B43489770A02E7A1AE2C2-2025-08-17-22-35-50","","null","","[]","null","",""
"","","","","","image-button-response","34","206194","0.0-10.0-1.0-0.3","88AD64F00C6B43489770A02E7A1AE2C2","88AD64F00C6B43489770A02E7A1AE2C2","0198b9fd-8320-7056-be8c-7c5c39c67e84","0198b9d0-29d4-7df3-8625-4b4515841beb","{""num_scrambled_semantic"":""8"",""num_scrambled_causal"":""4"",""num_scrambled_schematic"":""4"",""participantId"":""88AD64F00C6B43489770A02E7A1AE2C2"",""assignmentId"":""0198b9fd-8320-7056-be8c-7c5c39c67e84"",""projectId"":""0198b9d0-29d4-7df3-8625-4b4515841beb""}","https://test12345.live/?num_scrambled_semantic=8&num_scrambled_causal=4&num_scrambled_schematic=4&participantId=88AD64F00C6B43489770A02E7A1AE2C2&assignmentId=0198b9fd-8320-7056-be8c-7c5c39c67e84&projectId=0198b9d0-29d4-7df3-8625-4b4515841beb","88AD64F00C6B43489770A02E7A1AE2C2-2025-08-17-22-35-50","","null","","images/causal_sequence/package_causal/package_causal_3.png","null","",""
"","","","","","image-button-response","35","207575","0.0-10.0-1.0-1.3","88AD64F00C6B43489770A02E7A1AE2C2","88AD64F00C6B43489770A02E7A1AE2C2","0198b9fd-8320-7056-be8c-7c5c39c67e84","0198b9d0-29d4-7df3-8625-4b4515841beb","{""num_scrambled_semantic"":""8"",""num_scrambled_causal"":""4"",""num_scrambled_schematic"":""4"",""participantId"":""88AD64F00C6B43489770A02E7A1AE2C2"",""assignmentId"":""0198b9fd-8320-7056-be8c-7c5c39c67e84"",""projectId"":""0198b9d0-29d4-7df3-8625-4b4515841beb""}","https://test12345.live/?num_scrambled_semantic=8&num_scrambled_causal=4&num_scrambled_schematic=4&participantId=88AD64F00C6B43489770A02E7A1AE2C2&assignmentId=0198b9fd-8320-7056-be8c-7c5c39c67e84&projectId=0198b9d0-29d4-7df3-8625-4b4515841beb","88AD64F00C6B43489770A02E7A1AE2C2-2025-08-17-22-35-50","","1380","","images/causal_sequence/package_causal/package_causal_3.png","0","",""
"","","","","","image-button-response","36","212978","0.0-10.0-1.0-2.3","88AD64F00C6B43489770A02E7A1AE2C2","88AD64F00C6B43489770A02E7A1AE2C2","0198b9fd-8320-7056-be8c-7c5c39c67e84","0198b9d0-29d4-7df3-8625-4b4515841beb","{""num_scrambled_semantic"":""8"",""num_scrambled_causal"":""4"",""num_scrambled_schematic"":""4"",""participantId"":""88AD64F00C6B43489770A02E7A1AE2C2"",""assignmentId"":""0198b9fd-8320-7056-be8c-7c5c39c67e84"",""projectId"":""0198b9d0-29d4-7df3-8625-4b4515841beb""}","https://test12345.live/?num_scrambled_semantic=8&num_scrambled_causal=4&num_scrambled_schematic=4&participantId=88AD64F00C6B43489770A02E7A1AE2C2&assignmentId=0198b9fd-8320-7056-be8c-7c5c39c67e84&projectId=0198b9d0-29d4-7df3-8625-4b4515841beb","88AD64F00C6B43489770A02E7A1AE2C2-2025-08-17-22-35-50","","null","","[]","null","",""
"","","","","","image-button-response","37","217482","0.0-10.0-1.0-0.4","88AD64F00C6B43489770A02E7A1AE2C2","88AD64F00C6B43489770A02E7A1AE2C2","0198b9fd-8320-7056-be8c-7c5c39c67e84","0198b9d0-29d4-7df3-8625-4b4515841beb","{""num_scrambled_semantic"":""8"",""num_scrambled_causal"":""4"",""num_scrambled_schematic"":""4"",""participantId"":""88AD64F00C6B43489770A02E7A1AE2C2"",""assignmentId"":""0198b9fd-8320-7056-be8c-7c5c39c67e84"",""projectId"":""0198b9d0-29d4-7df3-8625-4b4515841beb""}","https://test12345.live/?num_scrambled_semantic=8&num_scrambled_causal=4&num_scrambled_schematic=4&participantId=88AD64F00C6B43489770A02E7A1AE2C2&assignmentId=0198b9fd-8320-7056-be8c-7c5c39c67e84&projectId=0198b9d0-29d4-7df3-8625-4b4515841beb","88AD64F00C6B43489770A02E7A1AE2C2-2025-08-17-22-35-50","","null","","images/causal_sequence/package_causal/package_causal_5.png","null","",""
"","","","","","image-button-response","38","218327","0.0-10.0-1.0-1.4","88AD64F00C6B43489770A02E7A1AE2C2","88AD64F00C6B43489770A02E7A1AE2C2","0198b9fd-8320-7056-be8c-7c5c39c67e84","0198b9d0-29d4-7df3-8625-4b4515841beb","{""num_scrambled_semantic"":""8"",""num_scrambled_causal"":""4"",""num_scrambled_schematic"":""4"",""participantId"":""88AD64F00C6B43489770A02E7A1AE2C2"",""assignmentId"":""0198b9fd-8320-7056-be8c-7c5c39c67e84"",""projectId"":""0198b9d0-29d4-7df3-8625-4b4515841beb""}","https://test12345.live/?num_scrambled_semantic=8&num_scrambled_causal=4&num_scrambled_schematic=4&participantId=88AD64F00C6B43489770A02E7A1AE2C2&assignmentId=0198b9fd-8320-7056-be8c-7c5c39c67e84&projectId=0198b9d0-29d4-7df3-8625-4b4515841beb","88AD64F00C6B43489770A02E7A1AE2C2-2025-08-17-22-35-50","","842","","images/causal_sequence/package_causal/package_causal_5.png","0","",""
"","","","","","image-button-response","39","223734","0.0-10.0-1.0-2.4","88AD64F00C6B43489770A02E7A1AE2C2","88AD64F00C6B43489770A02E7A1AE2C2","0198b9fd-8320-7056-be8c-7c5c39c67e84","0198b9d0-29d4-7df3-8625-4b4515841beb","{""num_scrambled_semantic"":""8"",""num_scrambled_causal"":""4"",""num_scrambled_schematic"":""4"",""participantId"":""88AD64F00C6B43489770A02E7A1AE2C2"",""assignmentId"":""0198b9fd-8320-7056-be8c-7c5c39c67e84"",""projectId"":""0198b9d0-29d4-7df3-8625-4b4515841beb""}","https://test12345.live/?num_scrambled_semantic=8&num_scrambled_causal=4&num_scrambled_schematic=4&participantId=88AD64F00C6B43489770A02E7A1AE2C2&assignmentId=0198b9fd-8320-7056-be8c-7c5c39c67e84&projectId=0198b9d0-29d4-7df3-8625-4b4515841beb","88AD64F00C6B43489770A02E7A1AE2C2-2025-08-17-22-35-50","","null","","[]","null","",""
"","","","","","image-button-response","40","228237","0.0-10.0-1.0-0.5","88AD64F00C6B43489770A02E7A1AE2C2","88AD64F00C6B43489770A02E7A1AE2C2","0198b9fd-8320-7056-be8c-7c5c39c67e84","0198b9d0-29d4-7df3-8625-4b4515841beb","{""num_scrambled_semantic"":""8"",""num_scrambled_causal"":""4"",""num_scrambled_schematic"":""4"",""participantId"":""88AD64F00C6B43489770A02E7A1AE2C2"",""assignmentId"":""0198b9fd-8320-7056-be8c-7c5c39c67e84"",""projectId"":""0198b9d0-29d4-7df3-8625-4b4515841beb""}","https://test12345.live/?num_scrambled_semantic=8&num_scrambled_causal=4&num_scrambled_schematic=4&participantId=88AD64F00C6B43489770A02E7A1AE2C2&assignmentId=0198b9fd-8320-7056-be8c-7c5c39c67e84&projectId=0198b9d0-29d4-7df3-8625-4b4515841beb","88AD64F00C6B43489770A02E7A1AE2C2-2025-08-17-22-35-50","","null","","images/causal_sequence/package_causal/package_causal_8.png","null","",""
"","","","","","image-button-response","41","229114","0.0-10.0-1.0-1.5","88AD64F00C6B43489770A02E7A1AE2C2","88AD64F00C6B43489770A02E7A1AE2C2","0198b9fd-8320-7056-be8c-7c5c39c67e84","0198b9d0-29d4-7df3-8625-4b4515841beb","{""num_scrambled_semantic"":""8"",""num_scrambled_causal"":""4"",""num_scrambled_schematic"":""4"",""participantId"":""88AD64F00C6B43489770A02E7A1AE2C2"",""assignmentId"":""0198b9fd-8320-7056-be8c-7c5c39c67e84"",""projectId"":""0198b9d0-29d4-7df3-8625-4b4515841beb""}","https://test12345.live/?num_scrambled_semantic=8&num_scrambled_causal=4&num_scrambled_schematic=4&participantId=88AD64F00C6B43489770A02E7A1AE2C2&assignmentId=0198b9fd-8320-7056-be8c-7c5c39c67e84&projectId=0198b9d0-29d4-7df3-8625-4b4515841beb","88AD64F00C6B43489770A02E7A1AE2C2-2025-08-17-22-35-50","","875","","images/causal_sequence/package_causal/package_causal_8.png","0","",""
"","","","","","image-button-response","42","234517","0.0-10.0-1.0-2.5","88AD64F00C6B43489770A02E7A1AE2C2","88AD64F00C6B43489770A02E7A1AE2C2","0198b9fd-8320-7056-be8c-7c5c39c67e84","0198b9d0-29d4-7df3-8625-4b4515841beb","{""num_scrambled_semantic"":""8"",""num_scrambled_causal"":""4"",""num_scrambled_schematic"":""4"",""participantId"":""88AD64F00C6B43489770A02E7A1AE2C2"",""assignmentId"":""0198b9fd-8320-7056-be8c-7c5c39c67e84"",""projectId"":""0198b9d0-29d4-7df3-8625-4b4515841beb""}","https://test12345.live/?num_scrambled_semantic=8&num_scrambled_causal=4&num_scrambled_schematic=4&participantId=88AD64F00C6B43489770A02E7A1AE2C2&assignmentId=0198b9fd-8320-7056-be8c-7c5c39c67e84&projectId=0198b9d0-29d4-7df3-8625-4b4515841beb","88AD64F00C6B43489770A02E7A1AE2C2-2025-08-17-22-35-50","","null","","[]","null","",""
"","","","","","image-button-response","43","239023","0.0-10.0-1.0-0.6","88AD64F00C6B43489770A02E7A1AE2C2","88AD64F00C6B43489770A02E7A1AE2C2","0198b9fd-8320-7056-be8c-7c5c39c67e84","0198b9d0-29d4-7df3-8625-4b4515841beb","{""num_scrambled_semantic"":""8"",""num_scrambled_causal"":""4"",""num_scrambled_schematic"":""4"",""participantId"":""88AD64F00C6B43489770A02E7A1AE2C2"",""assignmentId"":""0198b9fd-8320-7056-be8c-7c5c39c67e84"",""projectId"":""0198b9d0-29d4-7df3-8625-4b4515841beb""}","https://test12345.live/?num_scrambled_semantic=8&num_scrambled_causal=4&num_scrambled_schematic=4&participantId=88AD64F00C6B43489770A02E7A1AE2C2&assignmentId=0198b9fd-8320-7056-be8c-7c5c39c67e84&projectId=0198b9d0-29d4-7df3-8625-4b4515841beb","88AD64F00C6B43489770A02E7A1AE2C2-2025-08-17-22-35-50","","null","","images/causal_sequence/package_causal/package_causal_9.png","null","",""
"","","","","","image-button-response","44","240108","0.0-10.0-1.0-1.6","88AD64F00C6B43489770A02E7A1AE2C2","88AD64F00C6B43489770A02E7A1AE2C2","0198b9fd-8320-7056-be8c-7c5c39c67e84","0198b9d0-29d4-7df3-8625-4b4515841beb","{""num_scrambled_semantic"":""8"",""num_scrambled_causal"":""4"",""num_scrambled_schematic"":""4"",""participantId"":""88AD64F00C6B43489770A02E7A1AE2C2"",""assignmentId"":""0198b9fd-8320-7056-be8c-7c5c39c67e84"",""projectId"":""0198b9d0-29d4-7df3-8625-4b4515841beb""}","https://test12345.live/?num_scrambled_semantic=8&num_scrambled_causal=4&num_scrambled_schematic=4&participantId=88AD64F00C6B43489770A02E7A1AE2C2&assignmentId=0198b9fd-8320-7056-be8c-7c5c39c67e84&projectId=0198b9d0-29d4-7df3-8625-4b4515841beb","88AD64F00C6B43489770A02E7A1AE2C2-2025-08-17-22-35-50","","1083","","images/causal_sequence/package_causal/package_causal_9.png","0","",""
"","","","","","image-button-response","45","245514","0.0-10.0-1.0-2.6","88AD64F00C6B43489770A02E7A1AE2C2","88AD64F00C6B43489770A02E7A1AE2C2","0198b9fd-8320-7056-be8c-7c5c39c67e84","0198b9d0-29d4-7df3-8625-4b4515841beb","{""num_scrambled_semantic"":""8"",""num_scrambled_causal"":""4"",""num_scrambled_schematic"":""4"",""participantId"":""88AD64F00C6B43489770A02E7A1AE2C2"",""assignmentId"":""0198b9fd-8320-7056-be8c-7c5c39c67e84"",""projectId"":""0198b9d0-29d4-7df3-8625-4b4515841beb""}","https://test12345.live/?num_scrambled_semantic=8&num_scrambled_causal=4&num_scrambled_schematic=4&participantId=88AD64F00C6B43489770A02E7A1AE2C2&assignmentId=0198b9fd-8320-7056-be8c-7c5c39c67e84&projectId=0198b9d0-29d4-7df3-8625-4b4515841beb","88AD64F00C6B43489770A02E7A1AE2C2-2025-08-17-22-35-50","","null","","[]","null","",""
"","","","","","image-button-response","46","250017","0.0-10.0-1.0-0.7","88AD64F00C6B43489770A02E7A1AE2C2","88AD64F00C6B43489770A02E7A1AE2C2","0198b9fd-8320-7056-be8c-7c5c39c67e84","0198b9d0-29d4-7df3-8625-4b4515841beb","{""num_scrambled_semantic"":""8"",""num_scrambled_causal"":""4"",""num_scrambled_schematic"":""4"",""participantId"":""88AD64F00C6B43489770A02E7A1AE2C2"",""assignmentId"":""0198b9fd-8320-7056-be8c-7c5c39c67e84"",""projectId"":""0198b9d0-29d4-7df3-8625-4b4515841beb""}","https://test12345.live/?num_scrambled_semantic=8&num_scrambled_causal=4&num_scrambled_schematic=4&participantId=88AD64F00C6B43489770A02E7A1AE2C2&assignmentId=0198b9fd-8320-7056-be8c-7c5c39c67e84&projectId=0198b9d0-29d4-7df3-8625-4b4515841beb","88AD64F00C6B43489770A02E7A1AE2C2-2025-08-17-22-35-50","","null","","images/causal_sequence/package_causal/package_causal_ten.png","null","",""
"","","","","","image-button-response","47","251007","0.0-10.0-1.0-1.7","88AD64F00C6B43489770A02E7A1AE2C2","88AD64F00C6B43489770A02E7A1AE2C2","0198b9fd-8320-7056-be8c-7c5c39c67e84","0198b9d0-29d4-7df3-8625-4b4515841beb","{""num_scrambled_semantic"":""8"",""num_scrambled_causal"":""4"",""num_scrambled_schematic"":""4"",""participantId"":""88AD64F00C6B43489770A02E7A1AE2C2"",""assignmentId"":""0198b9fd-8320-7056-be8c-7c5c39c67e84"",""projectId"":""0198b9d0-29d4-7df3-8625-4b4515841beb""}","https://test12345.live/?num_scrambled_semantic=8&num_scrambled_causal=4&num_scrambled_schematic=4&participantId=88AD64F00C6B43489770A02E7A1AE2C2&assignmentId=0198b9fd-8320-7056-be8c-7c5c39c67e84&projectId=0198b9d0-29d4-7df3-8625-4b4515841beb","88AD64F00C6B43489770A02E7A1AE2C2-2025-08-17-22-35-50","","988","","images/causal_sequence/package_causal/package_causal_ten.png","0","",""
"","","","","","image-button-response","48","256414","0.0-10.0-1.0-2.7","88AD64F00C6B43489770A02E7A1AE2C2","88AD64F00C6B43489770A02E7A1AE2C2","0198b9fd-8320-7056-be8c-7c5c39c67e84","0198b9d0-29d4-7df3-8625-4b4515841beb","{""num_scrambled_semantic"":""8"",""num_scrambled_causal"":""4"",""num_scrambled_schematic"":""4"",""participantId"":""88AD64F00C6B43489770A02E7A1AE2C2"",""assignmentId"":""0198b9fd-8320-7056-be8c-7c5c39c67e84"",""projectId"":""0198b9d0-29d4-7df3-8625-4b4515841beb""}","https://test12345.live/?num_scrambled_semantic=8&num_scrambled_causal=4&num_scrambled_schematic=4&participantId=88AD64F00C6B43489770A02E7A1AE2C2&assignmentId=0198b9fd-8320-7056-be8c-7c5c39c67e84&projectId=0198b9d0-29d4-7df3-8625-4b4515841beb","88AD64F00C6B43489770A02E7A1AE2C2-2025-08-17-22-35-50","","null","","[]","null","",""
"","","","","","image-button-response","49","260917","0.0-10.0-1.0-0.8","88AD64F00C6B43489770A02E7A1AE2C2","88AD64F00C6B43489770A02E7A1AE2C2","0198b9fd-8320-7056-be8c-7c5c39c67e84","0198b9d0-29d4-7df3-8625-4b4515841beb","{""num_scrambled_semantic"":""8"",""num_scrambled_causal"":""4"",""num_scrambled_schematic"":""4"",""participantId"":""88AD64F00C6B43489770A02E7A1AE2C2"",""assignmentId"":""0198b9fd-8320-7056-be8c-7c5c39c67e84"",""projectId"":""0198b9d0-29d4-7df3-8625-4b4515841beb""}","https://test12345.live/?num_scrambled_semantic=8&num_scrambled_causal=4&num_scrambled_schematic=4&participantId=88AD64F00C6B43489770A02E7A1AE2C2&assignmentId=0198b9fd-8320-7056-be8c-7c5c39c67e84&projectId=0198b9d0-29d4-7df3-8625-4b4515841beb","88AD64F00C6B43489770A02E7A1AE2C2-2025-08-17-22-35-50","","null","","images/causal_sequence/package_causal/package_causal_4.png","null","",""
"","","","","","image-button-response","50","263929","0.0-10.0-1.0-1.8","88AD64F00C6B43489770A02E7A1AE2C2","88AD64F00C6B43489770A02E7A1AE2C2","0198b9fd-8320-7056-be8c-7c5c39c67e84","0198b9d0-29d4-7df3-8625-4b4515841beb","{""num_scrambled_semantic"":""8"",""num_scrambled_causal"":""4"",""num_scrambled_schematic"":""4"",""participantId"":""88AD64F00C6B43489770A02E7A1AE2C2"",""assignmentId"":""0198b9fd-8320-7056-be8c-7c5c39c67e84"",""projectId"":""0198b9d0-29d4-7df3-8625-4b4515841beb""}","https://test12345.live/?num_scrambled_semantic=8&num_scrambled_causal=4&num_scrambled_schematic=4&participantId=88AD64F00C6B43489770A02E7A1AE2C2&assignmentId=0198b9fd-8320-7056-be8c-7c5c39c67e84&projectId=0198b9d0-29d4-7df3-8625-4b4515841beb","88AD64F00C6B43489770A02E7A1AE2C2-2025-08-17-22-35-50","","3010","","images/causal_sequence/package_causal/package_causal_4.png","1","",""
"","","","","","image-button-response","51","269336","0.0-10.0-1.0-2.8","88AD64F00C6B43489770A02E7A1AE2C2","88AD64F00C6B43489770A02E7A1AE2C2","0198b9fd-8320-7056-be8c-7c5c39c67e84","0198b9d0-29d4-7df3-8625-4b4515841beb","{""num_scrambled_semantic"":""8"",""num_scrambled_causal"":""4"",""num_scrambled_schematic"":""4"",""participantId"":""88AD64F00C6B43489770A02E7A1AE2C2"",""assignmentId"":""0198b9fd-8320-7056-be8c-7c5c39c67e84"",""projectId"":""0198b9d0-29d4-7df3-8625-4b4515841beb""}","https://test12345.live/?num_scrambled_semantic=8&num_scrambled_causal=4&num_scrambled_schematic=4&participantId=88AD64F00C6B43489770A02E7A1AE2C2&assignmentId=0198b9fd-8320-7056-be8c-7c5c39c67e84&projectId=0198b9d0-29d4-7df3-8625-4b4515841beb","88AD64F00C6B43489770A02E7A1AE2C2-2025-08-17-22-35-50","","null","","[]","null","",""
"","","","","","image-button-response","52","273841","0.0-10.0-1.0-0.9","88AD64F00C6B43489770A02E7A1AE2C2","88AD64F00C6B43489770A02E7A1AE2C2","0198b9fd-8320-7056-be8c-7c5c39c67e84","0198b9d0-29d4-7df3-8625-4b4515841beb","{""num_scrambled_semantic"":""8"",""num_scrambled_causal"":""4"",""num_scrambled_schematic"":""4"",""participantId"":""88AD64F00C6B43489770A02E7A1AE2C2"",""assignmentId"":""0198b9fd-8320-7056-be8c-7c5c39c67e84"",""projectId"":""0198b9d0-29d4-7df3-8625-4b4515841beb""}","https://test12345.live/?num_scrambled_semantic=8&num_scrambled_causal=4&num_scrambled_schematic=4&participantId=88AD64F00C6B43489770A02E7A1AE2C2&assignmentId=0198b9fd-8320-7056-be8c-7c5c39c67e84&projectId=0198b9d0-29d4-7df3-8625-4b4515841beb","88AD64F00C6B43489770A02E7A1AE2C2-2025-08-17-22-35-50","","null","","images/causal_sequence/package_causal/package_causal_2.png","null","",""
"","","","","","image-button-response","53","274869","0.0-10.0-1.0-1.9","88AD64F00C6B43489770A02E7A1AE2C2","88AD64F00C6B43489770A02E7A1AE2C2","0198b9fd-8320-7056-be8c-7c5c39c67e84","0198b9d0-29d4-7df3-8625-4b4515841beb","{""num_scrambled_semantic"":""8"",""num_scrambled_causal"":""4"",""num_scrambled_schematic"":""4"",""participantId"":""88AD64F00C6B43489770A02E7A1AE2C2"",""assignmentId"":""0198b9fd-8320-7056-be8c-7c5c39c67e84"",""projectId"":""0198b9d0-29d4-7df3-8625-4b4515841beb""}","https://test12345.live/?num_scrambled_semantic=8&num_scrambled_causal=4&num_scrambled_schematic=4&participantId=88AD64F00C6B43489770A02E7A1AE2C2&assignmentId=0198b9fd-8320-7056-be8c-7c5c39c67e84&projectId=0198b9d0-29d4-7df3-8625-4b4515841beb","88AD64F00C6B43489770A02E7A1AE2C2-2025-08-17-22-35-50","","1026","","images/causal_sequence/package_causal/package_causal_2.png","0","",""
"","","","","","image-button-response","54","280275","0.0-10.0-1.0-2.9","88AD64F00C6B43489770A02E7A1AE2C2","88AD64F00C6B43489770A02E7A1AE2C2","0198b9fd-8320-7056-be8c-7c5c39c67e84","0198b9d0-29d4-7df3-8625-4b4515841beb","{""num_scrambled_semantic"":""8"",""num_scrambled_causal"":""4"",""num_scrambled_schematic"":""4"",""participantId"":""88AD64F00C6B43489770A02E7A1AE2C2"",""assignmentId"":""0198b9fd-8320-7056-be8c-7c5c39c67e84"",""projectId"":""0198b9d0-29d4-7df3-8625-4b4515841beb""}","https://test12345.live/?num_scrambled_semantic=8&num_scrambled_causal=4&num_scrambled_schematic=4&participantId=88AD64F00C6B43489770A02E7A1AE2C2&assignmentId=0198b9fd-8320-7056-be8c-7c5c39c67e84&projectId=0198b9d0-29d4-7df3-8625-4b4515841beb","88AD64F00C6B43489770A02E7A1AE2C2-2025-08-17-22-35-50","","null","","[]","null","",""
"","","","","","html-audio-response","55","384187","0.0-11.0","88AD64F00C6B43489770A02E7A1AE2C2","88AD64F00C6B43489770A02E7A1AE2C2","0198b9fd-8320-7056-be8c-7c5c39c67e84","0198b9d0-29d4-7df3-8625-4b4515841beb","{""num_scrambled_semantic"":""8"",""num_scrambled_causal"":""4"",""num_scrambled_schematic"":""4"",""participantId"":""88AD64F00C6B43489770A02E7A1AE2C2"",""assignmentId"":""0198b9fd-8320-7056-be8c-7c5c39c67e84"",""projectId"":""0198b9d0-29d4-7df3-8625-4b4515841beb""}","https://test12345.live/?num_scrambled_semantic=8&num_scrambled_causal=4&num_scrambled_schematic=4&participantId=88AD64F00C6B43489770A02E7A1AE2C2&assignmentId=0198b9fd-8320-7056-be8c-7c5c39c67e84&projectId=0198b9d0-29d4-7df3-8625-4b4515841beb","88AD64F00C6B43489770A02E7A1AE2C2-2025-08-17-22-35-50","","54904","","[""<span style=\""color: red; font-size: 24px\""> NOW RECORDING</span><p>Please say out loud all the images you saw, as many as you can remember. The images can be said in any order.</p>""]","","3","package_causal"
"","","","","","image-button-response","56","390196","0.0-12.0-0.0","88AD64F00C6B43489770A02E7A1AE2C2","88AD64F00C6B43489770A02E7A1AE2C2","0198b9fd-8320-7056-be8c-7c5c39c67e84","0198b9d0-29d4-7df3-8625-4b4515841beb","{""num_scrambled_semantic"":""8"",""num_scrambled_causal"":""4"",""num_scrambled_schematic"":""4"",""participantId"":""88AD64F00C6B43489770A02E7A1AE2C2"",""assignmentId"":""0198b9fd-8320-7056-be8c-7c5c39c67e84"",""projectId"":""0198b9d0-29d4-7df3-8625-4b4515841beb""}","https://test12345.live/?num_scrambled_semantic=8&num_scrambled_causal=4&num_scrambled_schematic=4&participantId=88AD64F00C6B43489770A02E7A1AE2C2&assignmentId=0198b9fd-8320-7056-be8c-7c5c39c67e84&projectId=0198b9d0-29d4-7df3-8625-4b4515841beb","88AD64F00C6B43489770A02E7A1AE2C2-2025-08-17-22-35-50","","null","","images/semantic_sequence/maintaining_a_car_semantic/maintaining_a_car_semantic_0.png","null","",""
"","","","","","image-button-response","57","394700","0.0-12.0-1.0-0.0","88AD64F00C6B43489770A02E7A1AE2C2","88AD64F00C6B43489770A02E7A1AE2C2","0198b9fd-8320-7056-be8c-7c5c39c67e84","0198b9d0-29d4-7df3-8625-4b4515841beb","{""num_scrambled_semantic"":""8"",""num_scrambled_causal"":""4"",""num_scrambled_schematic"":""4"",""participantId"":""88AD64F00C6B43489770A02E7A1AE2C2"",""assignmentId"":""0198b9fd-8320-7056-be8c-7c5c39c67e84"",""projectId"":""0198b9d0-29d4-7df3-8625-4b4515841beb""}","https://test12345.live/?num_scrambled_semantic=8&num_scrambled_causal=4&num_scrambled_schematic=4&participantId=88AD64F00C6B43489770A02E7A1AE2C2&assignmentId=0198b9fd-8320-7056-be8c-7c5c39c67e84&projectId=0198b9d0-29d4-7df3-8625-4b4515841beb","88AD64F00C6B43489770A02E7A1AE2C2-2025-08-17-22-35-50","","null","","images/semantic_sequence/maintaining_a_car_semantic/maintaining_a_car_semantic_7.png","null","",""
"","","","","","image-button-response","58","395926","0.0-12.0-1.0-1.0","88AD64F00C6B43489770A02E7A1AE2C2","88AD64F00C6B43489770A02E7A1AE2C2","0198b9fd-8320-7056-be8c-7c5c39c67e84","0198b9d0-29d4-7df3-8625-4b4515841beb","{""num_scrambled_semantic"":""8"",""num_scrambled_causal"":""4"",""num_scrambled_schematic"":""4"",""participantId"":""88AD64F00C6B43489770A02E7A1AE2C2"",""assignmentId"":""0198b9fd-8320-7056-be8c-7c5c39c67e84"",""projectId"":""0198b9d0-29d4-7df3-8625-4b4515841beb""}","https://test12345.live/?num_scrambled_semantic=8&num_scrambled_causal=4&num_scrambled_schematic=4&participantId=88AD64F00C6B43489770A02E7A1AE2C2&assignmentId=0198b9fd-8320-7056-be8c-7c5c39c67e84&projectId=0198b9d0-29d4-7df3-8625-4b4515841beb","88AD64F00C6B43489770A02E7A1AE2C2-2025-08-17-22-35-50","","1223","","images/semantic_sequence/maintaining_a_car_semantic/maintaining_a_car_semantic_7.png","0","",""
"","","","","","image-button-response","59","401332","0.0-12.0-1.0-2.0","88AD64F00C6B43489770A02E7A1AE2C2","88AD64F00C6B43489770A02E7A1AE2C2","0198b9fd-8320-7056-be8c-7c5c39c67e84","0198b9d0-29d4-7df3-8625-4b4515841beb","{""num_scrambled_semantic"":""8"",""num_scrambled_causal"":""4"",""num_scrambled_schematic"":""4"",""participantId"":""88AD64F00C6B43489770A02E7A1AE2C2"",""assignmentId"":""0198b9fd-8320-7056-be8c-7c5c39c67e84"",""projectId"":""0198b9d0-29d4-7df3-8625-4b4515841beb""}","https://test12345.live/?num_scrambled_semantic=8&num_scrambled_causal=4&num_scrambled_schematic=4&participantId=88AD64F00C6B43489770A02E7A1AE2C2&assignmentId=0198b9fd-8320-7056-be8c-7c5c39c67e84&projectId=0198b9d0-29d4-7df3-8625-4b4515841beb","88AD64F00C6B43489770A02E7A1AE2C2-2025-08-17-22-35-50","","null","","[]","null","",""
"","","","","","image-button-response","60","405835","0.0-12.0-1.0-0.1","88AD64F00C6B43489770A02E7A1AE2C2","88AD64F00C6B43489770A02E7A1AE2C2","0198b9fd-8320-7056-be8c-7c5c39c67e84","0198b9d0-29d4-7df3-8625-4b4515841beb","{""num_scrambled_semantic"":""8"",""num_scrambled_causal"":""4"",""num_scrambled_schematic"":""4"",""participantId"":""88AD64F00C6B43489770A02E7A1AE2C2"",""assignmentId"":""0198b9fd-8320-7056-be8c-7c5c39c67e84"",""projectId"":""0198b9d0-29d4-7df3-8625-4b4515841beb""}","https://test12345.live/?num_scrambled_semantic=8&num_scrambled_causal=4&num_scrambled_schematic=4&participantId=88AD64F00C6B43489770A02E7A1AE2C2&assignmentId=0198b9fd-8320-7056-be8c-7c5c39c67e84&projectId=0198b9d0-29d4-7df3-8625-4b4515841beb","88AD64F00C6B43489770A02E7A1AE2C2-2025-08-17-22-35-50","","null","","images/semantic_sequence/maintaining_a_car_semantic/maintaining_a_car_semantic_9.png","null","",""
"","","","","","image-button-response","61","406824","0.0-12.0-1.0-1.1","88AD64F00C6B43489770A02E7A1AE2C2","88AD64F00C6B43489770A02E7A1AE2C2","0198b9fd-8320-7056-be8c-7c5c39c67e84","0198b9d0-29d4-7df3-8625-4b4515841beb","{""num_scrambled_semantic"":""8"",""num_scrambled_causal"":""4"",""num_scrambled_schematic"":""4"",""participantId"":""88AD64F00C6B43489770A02E7A1AE2C2"",""assignmentId"":""0198b9fd-8320-7056-be8c-7c5c39c67e84"",""projectId"":""0198b9d0-29d4-7df3-8625-4b4515841beb""}","https://test12345.live/?num_scrambled_semantic=8&num_scrambled_causal=4&num_scrambled_schematic=4&participantId=88AD64F00C6B43489770A02E7A1AE2C2&assignmentId=0198b9fd-8320-7056-be8c-7c5c39c67e84&projectId=0198b9d0-29d4-7df3-8625-4b4515841beb","88AD64F00C6B43489770A02E7A1AE2C2-2025-08-17-22-35-50","","988","","images/semantic_sequence/maintaining_a_car_semantic/maintaining_a_car_semantic_9.png","0","",""
"","","","","","image-button-response","62","412230","0.0-12.0-1.0-2.1","88AD64F00C6B43489770A02E7A1AE2C2","88AD64F00C6B43489770A02E7A1AE2C2","0198b9fd-8320-7056-be8c-7c5c39c67e84","0198b9d0-29d4-7df3-8625-4b4515841beb","{""num_scrambled_semantic"":""8"",""num_scrambled_causal"":""4"",""num_scrambled_schematic"":""4"",""participantId"":""88AD64F00C6B43489770A02E7A1AE2C2"",""assignmentId"":""0198b9fd-8320-7056-be8c-7c5c39c67e84"",""projectId"":""0198b9d0-29d4-7df3-8625-4b4515841beb""}","https://test12345.live/?num_scrambled_semantic=8&num_scrambled_causal=4&num_scrambled_schematic=4&participantId=88AD64F00C6B43489770A02E7A1AE2C2&assignmentId=0198b9fd-8320-7056-be8c-7c5c39c67e84&projectId=0198b9d0-29d4-7df3-8625-4b4515841beb","88AD64F00C6B43489770A02E7A1AE2C2-2025-08-17-22-35-50","","null","","[]","null","",""
"","","","","","image-button-response","63","416733","0.0-12.0-1.0-0.2","88AD64F00C6B43489770A02E7A1AE2C2","88AD64F00C6B43489770A02E7A1AE2C2","0198b9fd-8320-7056-be8c-7c5c39c67e84","0198b9d0-29d4-7df3-8625-4b4515841beb","{""num_scrambled_semantic"":""8"",""num_scrambled_causal"":""4"",""num_scrambled_schematic"":""4"",""participantId"":""88AD64F00C6B43489770A02E7A1AE2C2"",""assignmentId"":""0198b9fd-8320-7056-be8c-7c5c39c67e84"",""projectId"":""0198b9d0-29d4-7df3-8625-4b4515841beb""}","https://test12345.live/?num_scrambled_semantic=8&num_scrambled_causal=4&num_scrambled_schematic=4&participantId=88AD64F00C6B43489770A02E7A1AE2C2&assignmentId=0198b9fd-8320-7056-be8c-7c5c39c67e84&projectId=0198b9d0-29d4-7df3-8625-4b4515841beb","88AD64F00C6B43489770A02E7A1AE2C2-2025-08-17-22-35-50","","null","","images/semantic_sequence/maintaining_a_car_semantic/maintaining_a_car_semantic_6.png","null","",""
"","","","","","image-button-response","64","417755","0.0-12.0-1.0-1.2","88AD64F00C6B43489770A02E7A1AE2C2","88AD64F00C6B43489770A02E7A1AE2C2","0198b9fd-8320-7056-be8c-7c5c39c67e84","0198b9d0-29d4-7df3-8625-4b4515841beb","{""num_scrambled_semantic"":""8"",""num_scrambled_causal"":""4"",""num_scrambled_schematic"":""4"",""participantId"":""88AD64F00C6B43489770A02E7A1AE2C2"",""assignmentId"":""0198b9fd-8320-7056-be8c-7c5c39c67e84"",""projectId"":""0198b9d0-29d4-7df3-8625-4b4515841beb""}","https://test12345.live/?num_scrambled_semantic=8&num_scrambled_causal=4&num_scrambled_schematic=4&participantId=88AD64F00C6B43489770A02E7A1AE2C2&assignmentId=0198b9fd-8320-7056-be8c-7c5c39c67e84&projectId=0198b9d0-29d4-7df3-8625-4b4515841beb","88AD64F00C6B43489770A02E7A1AE2C2-2025-08-17-22-35-50","","1020","","images/semantic_sequence/maintaining_a_car_semantic/maintaining_a_car_semantic_6.png","0","",""
"","","","","","image-button-response","65","423158","0.0-12.0-1.0-2.2","88AD64F00C6B43489770A02E7A1AE2C2","88AD64F00C6B43489770A02E7A1AE2C2","0198b9fd-8320-7056-be8c-7c5c39c67e84","0198b9d0-29d4-7df3-8625-4b4515841beb","{""num_scrambled_semantic"":""8"",""num_scrambled_causal"":""4"",""num_scrambled_schematic"":""4"",""participantId"":""88AD64F00C6B43489770A02E7A1AE2C2"",""assignmentId"":""0198b9fd-8320-7056-be8c-7c5c39c67e84"",""projectId"":""0198b9d0-29d4-7df3-8625-4b4515841beb""}","https://test12345.live/?num_scrambled_semantic=8&num_scrambled_causal=4&num_scrambled_schematic=4&participantId=88AD64F00C6B43489770A02E7A1AE2C2&assignmentId=0198b9fd-8320-7056-be8c-7c5c39c67e84&projectId=0198b9d0-29d4-7df3-8625-4b4515841beb","88AD64F00C6B43489770A02E7A1AE2C2-2025-08-17-22-35-50","","null","","[]","null","",""
"","","","","","image-button-response","66","427662","0.0-12.0-1.0-0.3","88AD64F00C6B43489770A02E7A1AE2C2","88AD64F00C6B43489770A02E7A1AE2C2","0198b9fd-8320-7056-be8c-7c5c39c67e84","0198b9d0-29d4-7df3-8625-4b4515841beb","{""num_scrambled_semantic"":""8"",""num_scrambled_causal"":""4"",""num_scrambled_schematic"":""4"",""participantId"":""88AD64F00C6B43489770A02E7A1AE2C2"",""assignmentId"":""0198b9fd-8320-7056-be8c-7c5c39c67e84"",""projectId"":""0198b9d0-29d4-7df3-8625-4b4515841beb""}","https://test12345.live/?num_scrambled_semantic=8&num_scrambled_causal=4&num_scrambled_schematic=4&participantId=88AD64F00C6B43489770A02E7A1AE2C2&assignmentId=0198b9fd-8320-7056-be8c-7c5c39c67e84&projectId=0198b9d0-29d4-7df3-8625-4b4515841beb","88AD64F00C6B43489770A02E7A1AE2C2-2025-08-17-22-35-50","","null","","images/semantic_sequence/maintaining_a_car_semantic/maintaining_a_car_semantic_5.png","null","",""
"","","","","","image-button-response","67","429204","0.0-12.0-1.0-1.3","88AD64F00C6B43489770A02E7A1AE2C2","88AD64F00C6B43489770A02E7A1AE2C2","0198b9fd-8320-7056-be8c-7c5c39c67e84","0198b9d0-29d4-7df3-8625-4b4515841beb","{""num_scrambled_semantic"":""8"",""num_scrambled_causal"":""4"",""num_scrambled_schematic"":""4"",""participantId"":""88AD64F00C6B43489770A02E7A1AE2C2"",""assignmentId"":""0198b9fd-8320-7056-be8c-7c5c39c67e84"",""projectId"":""0198b9d0-29d4-7df3-8625-4b4515841beb""}","https://test12345.live/?num_scrambled_semantic=8&num_scrambled_causal=4&num_scrambled_schematic=4&participantId=88AD64F00C6B43489770A02E7A1AE2C2&assignmentId=0198b9fd-8320-7056-be8c-7c5c39c67e84&projectId=0198b9d0-29d4-7df3-8625-4b4515841beb","88AD64F00C6B43489770A02E7A1AE2C2-2025-08-17-22-35-50","","1541","","images/semantic_sequence/maintaining_a_car_semantic/maintaining_a_car_semantic_5.png","0","",""
"","","","","","image-button-response","68","434611","0.0-12.0-1.0-2.3","88AD64F00C6B43489770A02E7A1AE2C2","88AD64F00C6B43489770A02E7A1AE2C2","0198b9fd-8320-7056-be8c-7c5c39c67e84","0198b9d0-29d4-7df3-8625-4b4515841beb","{""num_scrambled_semantic"":""8"",""num_scrambled_causal"":""4"",""num_scrambled_schematic"":""4"",""participantId"":""88AD64F00C6B43489770A02E7A1AE2C2"",""assignmentId"":""0198b9fd-8320-7056-be8c-7c5c39c67e84"",""projectId"":""0198b9d0-29d4-7df3-8625-4b4515841beb""}","https://test12345.live/?num_scrambled_semantic=8&num_scrambled_causal=4&num_scrambled_schematic=4&participantId=88AD64F00C6B43489770A02E7A1AE2C2&assignmentId=0198b9fd-8320-7056-be8c-7c5c39c67e84&projectId=0198b9d0-29d4-7df3-8625-4b4515841beb","88AD64F00C6B43489770A02E7A1AE2C2-2025-08-17-22-35-50","","null","","[]","null","",""
"","","","","","image-button-response","69","439115","0.0-12.0-1.0-0.4","88AD64F00C6B43489770A02E7A1AE2C2","88AD64F00C6B43489770A02E7A1AE2C2","0198b9fd-8320-7056-be8c-7c5c39c67e84","0198b9d0-29d4-7df3-8625-4b4515841beb","{""num_scrambled_semantic"":""8"",""num_scrambled_causal"":""4"",""num_scrambled_schematic"":""4"",""participantId"":""88AD64F00C6B43489770A02E7A1AE2C2"",""assignmentId"":""0198b9fd-8320-7056-be8c-7c5c39c67e84"",""projectId"":""0198b9d0-29d4-7df3-8625-4b4515841beb""}","https://test12345.live/?num_scrambled_semantic=8&num_scrambled_causal=4&num_scrambled_schematic=4&participantId=88AD64F00C6B43489770A02E7A1AE2C2&assignmentId=0198b9fd-8320-7056-be8c-7c5c39c67e84&projectId=0198b9d0-29d4-7df3-8625-4b4515841beb","88AD64F00C6B43489770A02E7A1AE2C2-2025-08-17-22-35-50","","null","","images/semantic_sequence/maintaining_a_car_semantic/maintaining_a_car_semantic_4.png","null","",""
"","","","","","image-button-response","70","439849","0.0-12.0-1.0-1.4","88AD64F00C6B43489770A02E7A1AE2C2","88AD64F00C6B43489770A02E7A1AE2C2","0198b9fd-8320-7056-be8c-7c5c39c67e84","0198b9d0-29d4-7df3-8625-4b4515841beb","{""num_scrambled_semantic"":""8"",""num_scrambled_causal"":""4"",""num_scrambled_schematic"":""4"",""participantId"":""88AD64F00C6B43489770A02E7A1AE2C2"",""assignmentId"":""0198b9fd-8320-7056-be8c-7c5c39c67e84"",""projectId"":""0198b9d0-29d4-7df3-8625-4b4515841beb""}","https://test12345.live/?num_scrambled_semantic=8&num_scrambled_causal=4&num_scrambled_schematic=4&participantId=88AD64F00C6B43489770A02E7A1AE2C2&assignmentId=0198b9fd-8320-7056-be8c-7c5c39c67e84&projectId=0198b9d0-29d4-7df3-8625-4b4515841beb","88AD64F00C6B43489770A02E7A1AE2C2-2025-08-17-22-35-50","","732","","images/semantic_sequence/maintaining_a_car_semantic/maintaining_a_car_semantic_4.png","0","",""
"","","","","","image-button-response","71","445255","0.0-12.0-1.0-2.4","88AD64F00C6B43489770A02E7A1AE2C2","88AD64F00C6B43489770A02E7A1AE2C2","0198b9fd-8320-7056-be8c-7c5c39c67e84","0198b9d0-29d4-7df3-8625-4b4515841beb","{""num_scrambled_semantic"":""8"",""num_scrambled_causal"":""4"",""num_scrambled_schematic"":""4"",""participantId"":""88AD64F00C6B43489770A02E7A1AE2C2"",""assignmentId"":""0198b9fd-8320-7056-be8c-7c5c39c67e84"",""projectId"":""0198b9d0-29d4-7df3-8625-4b4515841beb""}","https://test12345.live/?num_scrambled_semantic=8&num_scrambled_causal=4&num_scrambled_schematic=4&participantId=88AD64F00C6B43489770A02E7A1AE2C2&assignmentId=0198b9fd-8320-7056-be8c-7c5c39c67e84&projectId=0198b9d0-29d4-7df3-8625-4b4515841beb","88AD64F00C6B43489770A02E7A1AE2C2-2025-08-17-22-35-50","","null","","[]","null","",""
"","","","","","image-button-response","72","449758","0.0-12.0-1.0-0.5","88AD64F00C6B43489770A02E7A1AE2C2","88AD64F00C6B43489770A02E7A1AE2C2","0198b9fd-8320-7056-be8c-7c5c39c67e84","0198b9d0-29d4-7df3-8625-4b4515841beb","{""num_scrambled_semantic"":""8"",""num_scrambled_causal"":""4"",""num_scrambled_schematic"":""4"",""participantId"":""88AD64F00C6B43489770A02E7A1AE2C2"",""assignmentId"":""0198b9fd-8320-7056-be8c-7c5c39c67e84"",""projectId"":""0198b9d0-29d4-7df3-8625-4b4515841beb""}","https://test12345.live/?num_scrambled_semantic=8&num_scrambled_causal=4&num_scrambled_schematic=4&participantId=88AD64F00C6B43489770A02E7A1AE2C2&assignmentId=0198b9fd-8320-7056-be8c-7c5c39c67e84&projectId=0198b9d0-29d4-7df3-8625-4b4515841beb","88AD64F00C6B43489770A02E7A1AE2C2-2025-08-17-22-35-50","","null","","images/semantic_sequence/maintaining_a_car_semantic/maintaining_a_car_semantic_2.png","null","",""
"","","","","","image-button-response","73","450834","0.0-12.0-1.0-1.5","88AD64F00C6B43489770A02E7A1AE2C2","88AD64F00C6B43489770A02E7A1AE2C2","0198b9fd-8320-7056-be8c-7c5c39c67e84","0198b9d0-29d4-7df3-8625-4b4515841beb","{""num_scrambled_semantic"":""8"",""num_scrambled_causal"":""4"",""num_scrambled_schematic"":""4"",""participantId"":""88AD64F00C6B43489770A02E7A1AE2C2"",""assignmentId"":""0198b9fd-8320-7056-be8c-7c5c39c67e84"",""projectId"":""0198b9d0-29d4-7df3-8625-4b4515841beb""}","https://test12345.live/?num_scrambled_semantic=8&num_scrambled_causal=4&num_scrambled_schematic=4&participantId=88AD64F00C6B43489770A02E7A1AE2C2&assignmentId=0198b9fd-8320-7056-be8c-7c5c39c67e84&projectId=0198b9d0-29d4-7df3-8625-4b4515841beb","88AD64F00C6B43489770A02E7A1AE2C2-2025-08-17-22-35-50","","1074","","images/semantic_sequence/maintaining_a_car_semantic/maintaining_a_car_semantic_2.png","0","",""
"","","","","","image-button-response","74","456241","0.0-12.0-1.0-2.5","88AD64F00C6B43489770A02E7A1AE2C2","88AD64F00C6B43489770A02E7A1AE2C2","0198b9fd-8320-7056-be8c-7c5c39c67e84","0198b9d0-29d4-7df3-8625-4b4515841beb","{""num_scrambled_semantic"":""8"",""num_scrambled_causal"":""4"",""num_scrambled_schematic"":""4"",""participantId"":""88AD64F00C6B43489770A02E7A1AE2C2"",""assignmentId"":""0198b9fd-8320-7056-be8c-7c5c39c67e84"",""projectId"":""0198b9d0-29d4-7df3-8625-4b4515841beb""}","https://test12345.live/?num_scrambled_semantic=8&num_scrambled_causal=4&num_scrambled_schematic=4&participantId=88AD64F00C6B43489770A02E7A1AE2C2&assignmentId=0198b9fd-8320-7056-be8c-7c5c39c67e84&projectId=0198b9d0-29d4-7df3-8625-4b4515841beb","88AD64F00C6B43489770A02E7A1AE2C2-2025-08-17-22-35-50","","null","","[]","null","",""
"","","","","","image-button-response","75","460745","0.0-12.0-1.0-0.6","88AD64F00C6B43489770A02E7A1AE2C2","88AD64F00C6B43489770A02E7A1AE2C2","0198b9fd-8320-7056-be8c-7c5c39c67e84","0198b9d0-29d4-7df3-8625-4b4515841beb","{""num_scrambled_semantic"":""8"",""num_scrambled_causal"":""4"",""num_scrambled_schematic"":""4"",""participantId"":""88AD64F00C6B43489770A02E7A1AE2C2"",""assignmentId"":""0198b9fd-8320-7056-be8c-7c5c39c67e84"",""projectId"":""0198b9d0-29d4-7df3-8625-4b4515841beb""}","https://test12345.live/?num_scrambled_semantic=8&num_scrambled_causal=4&num_scrambled_schematic=4&participantId=88AD64F00C6B43489770A02E7A1AE2C2&assignmentId=0198b9fd-8320-7056-be8c-7c5c39c67e84&projectId=0198b9d0-29d4-7df3-8625-4b4515841beb","88AD64F00C6B43489770A02E7A1AE2C2-2025-08-17-22-35-50","","null","","images/semantic_sequence/maintaining_a_car_semantic/maintaining_a_car_semantic_8.png","null","",""
"","","","","","image-button-response","76","461588","0.0-12.0-1.0-1.6","88AD64F00C6B43489770A02E7A1AE2C2","88AD64F00C6B43489770A02E7A1AE2C2","0198b9fd-8320-7056-be8c-7c5c39c67e84","0198b9d0-29d4-7df3-8625-4b4515841beb","{""num_scrambled_semantic"":""8"",""num_scrambled_causal"":""4"",""num_scrambled_schematic"":""4"",""participantId"":""88AD64F00C6B43489770A02E7A1AE2C2"",""assignmentId"":""0198b9fd-8320-7056-be8c-7c5c39c67e84"",""projectId"":""0198b9d0-29d4-7df3-8625-4b4515841beb""}","https://test12345.live/?num_scrambled_semantic=8&num_scrambled_causal=4&num_scrambled_schematic=4&participantId=88AD64F00C6B43489770A02E7A1AE2C2&assignmentId=0198b9fd-8320-7056-be8c-7c5c39c67e84&projectId=0198b9d0-29d4-7df3-8625-4b4515841beb","88AD64F00C6B43489770A02E7A1AE2C2-2025-08-17-22-35-50","","842","","images/semantic_sequence/maintaining_a_car_semantic/maintaining_a_car_semantic_8.png","0","",""
"","","","","","image-button-response","77","466996","0.0-12.0-1.0-2.6","88AD64F00C6B43489770A02E7A1AE2C2","88AD64F00C6B43489770A02E7A1AE2C2","0198b9fd-8320-7056-be8c-7c5c39c67e84","0198b9d0-29d4-7df3-8625-4b4515841beb","{""num_scrambled_semantic"":""8"",""num_scrambled_causal"":""4"",""num_scrambled_schematic"":""4"",""participantId"":""88AD64F00C6B43489770A02E7A1AE2C2"",""assignmentId"":""0198b9fd-8320-7056-be8c-7c5c39c67e84"",""projectId"":""0198b9d0-29d4-7df3-8625-4b4515841beb""}","https://test12345.live/?num_scrambled_semantic=8&num_scrambled_causal=4&num_scrambled_schematic=4&participantId=88AD64F00C6B43489770A02E7A1AE2C2&assignmentId=0198b9fd-8320-7056-be8c-7c5c39c67e84&projectId=0198b9d0-29d4-7df3-8625-4b4515841beb","88AD64F00C6B43489770A02E7A1AE2C2-2025-08-17-22-35-50","","null","","[]","null","",""
"","","","","","image-button-response","78","471500","0.0-12.0-1.0-0.7","88AD64F00C6B43489770A02E7A1AE2C2","88AD64F00C6B43489770A02E7A1AE2C2","0198b9fd-8320-7056-be8c-7c5c39c67e84","0198b9d0-29d4-7df3-8625-4b4515841beb","{""num_scrambled_semantic"":""8"",""num_scrambled_causal"":""4"",""num_scrambled_schematic"":""4"",""participantId"":""88AD64F00C6B43489770A02E7A1AE2C2"",""assignmentId"":""0198b9fd-8320-7056-be8c-7c5c39c67e84"",""projectId"":""0198b9d0-29d4-7df3-8625-4b4515841beb""}","https://test12345.live/?num_scrambled_semantic=8&num_scrambled_causal=4&num_scrambled_schematic=4&participantId=88AD64F00C6B43489770A02E7A1AE2C2&assignmentId=0198b9fd-8320-7056-be8c-7c5c39c67e84&projectId=0198b9d0-29d4-7df3-8625-4b4515841beb","88AD64F00C6B43489770A02E7A1AE2C2-2025-08-17-22-35-50","","null","","images/semantic_sequence/maintaining_a_car_semantic/maintaining_a_car_semantic_3.png","null","",""
"","","","","","image-button-response","79","472200","0.0-12.0-1.0-1.7","88AD64F00C6B43489770A02E7A1AE2C2","88AD64F00C6B43489770A02E7A1AE2C2","0198b9fd-8320-7056-be8c-7c5c39c67e84","0198b9d0-29d4-7df3-8625-4b4515841beb","{""num_scrambled_semantic"":""8"",""num_scrambled_causal"":""4"",""num_scrambled_schematic"":""4"",""participantId"":""88AD64F00C6B43489770A02E7A1AE2C2"",""assignmentId"":""0198b9fd-8320-7056-be8c-7c5c39c67e84"",""projectId"":""0198b9d0-29d4-7df3-8625-4b4515841beb""}","https://test12345.live/?num_scrambled_semantic=8&num_scrambled_causal=4&num_scrambled_schematic=4&participantId=88AD64F00C6B43489770A02E7A1AE2C2&assignmentId=0198b9fd-8320-7056-be8c-7c5c39c67e84&projectId=0198b9d0-29d4-7df3-8625-4b4515841beb","88AD64F00C6B43489770A02E7A1AE2C2-2025-08-17-22-35-50","","699","","images/semantic_sequence/maintaining_a_car_semantic/maintaining_a_car_semantic_3.png","0","",""
"","","","","","image-button-response","80","477601","0.0-12.0-1.0-2.7","88AD64F00C6B43489770A02E7A1AE2C2","88AD64F00C6B43489770A02E7A1AE2C2","0198b9fd-8320-7056-be8c-7c5c39c67e84","0198b9d0-29d4-7df3-8625-4b4515841beb","{""num_scrambled_semantic"":""8"",""num_scrambled_causal"":""4"",""num_scrambled_schematic"":""4"",""participantId"":""88AD64F00C6B43489770A02E7A1AE2C2"",""assignmentId"":""0198b9fd-8320-7056-be8c-7c5c39c67e84"",""projectId"":""0198b9d0-29d4-7df3-8625-4b4515841beb""}","https://test12345.live/?num_scrambled_semantic=8&num_scrambled_causal=4&num_scrambled_schematic=4&participantId=88AD64F00C6B43489770A02E7A1AE2C2&assignmentId=0198b9fd-8320-7056-be8c-7c5c39c67e84&projectId=0198b9d0-29d4-7df3-8625-4b4515841beb","88AD64F00C6B43489770A02E7A1AE2C2-2025-08-17-22-35-50","","null","","[]","null","",""
"","","","","","image-button-response","81","482105","0.0-12.0-1.0-0.8","88AD64F00C6B43489770A02E7A1AE2C2","88AD64F00C6B43489770A02E7A1AE2C2","0198b9fd-8320-7056-be8c-7c5c39c67e84","0198b9d0-29d4-7df3-8625-4b4515841beb","{""num_scrambled_semantic"":""8"",""num_scrambled_causal"":""4"",""num_scrambled_schematic"":""4"",""participantId"":""88AD64F00C6B43489770A02E7A1AE2C2"",""assignmentId"":""0198b9fd-8320-7056-be8c-7c5c39c67e84"",""projectId"":""0198b9d0-29d4-7df3-8625-4b4515841beb""}","https://test12345.live/?num_scrambled_semantic=8&num_scrambled_causal=4&num_scrambled_schematic=4&participantId=88AD64F00C6B43489770A02E7A1AE2C2&assignmentId=0198b9fd-8320-7056-be8c-7c5c39c67e84&projectId=0198b9d0-29d4-7df3-8625-4b4515841beb","88AD64F00C6B43489770A02E7A1AE2C2-2025-08-17-22-35-50","","null","","images/semantic_sequence/maintaining_a_car_semantic/maintaining_a_car_semantic_ten.png","null","",""
"","","","","","image-button-response","82","482983","0.0-12.0-1.0-1.8","88AD64F00C6B43489770A02E7A1AE2C2","88AD64F00C6B43489770A02E7A1AE2C2","0198b9fd-8320-7056-be8c-7c5c39c67e84","0198b9d0-29d4-7df3-8625-4b4515841beb","{""num_scrambled_semantic"":""8"",""num_scrambled_causal"":""4"",""num_scrambled_schematic"":""4"",""participantId"":""88AD64F00C6B43489770A02E7A1AE2C2"",""assignmentId"":""0198b9fd-8320-7056-be8c-7c5c39c67e84"",""projectId"":""0198b9d0-29d4-7df3-8625-4b4515841beb""}","https://test12345.live/?num_scrambled_semantic=8&num_scrambled_causal=4&num_scrambled_schematic=4&participantId=88AD64F00C6B43489770A02E7A1AE2C2&assignmentId=0198b9fd-8320-7056-be8c-7c5c39c67e84&projectId=0198b9d0-29d4-7df3-8625-4b4515841beb","88AD64F00C6B43489770A02E7A1AE2C2-2025-08-17-22-35-50","","876","","images/semantic_sequence/maintaining_a_car_semantic/maintaining_a_car_semantic_ten.png","0","",""
"","","","","","image-button-response","83","488388","0.0-12.0-1.0-2.8","88AD64F00C6B43489770A02E7A1AE2C2","88AD64F00C6B43489770A02E7A1AE2C2","0198b9fd-8320-7056-be8c-7c5c39c67e84","0198b9d0-29d4-7df3-8625-4b4515841beb","{""num_scrambled_semantic"":""8"",""num_scrambled_causal"":""4"",""num_scrambled_schematic"":""4"",""participantId"":""88AD64F00C6B43489770A02E7A1AE2C2"",""assignmentId"":""0198b9fd-8320-7056-be8c-7c5c39c67e84"",""projectId"":""0198b9d0-29d4-7df3-8625-4b4515841beb""}","https://test12345.live/?num_scrambled_semantic=8&num_scrambled_causal=4&num_scrambled_schematic=4&participantId=88AD64F00C6B43489770A02E7A1AE2C2&assignmentId=0198b9fd-8320-7056-be8c-7c5c39c67e84&projectId=0198b9d0-29d4-7df3-8625-4b4515841beb","88AD64F00C6B43489770A02E7A1AE2C2-2025-08-17-22-35-50","","null","","[]","null","",""
"","","","","","image-button-response","84","492891","0.0-12.0-1.0-0.9","88AD64F00C6B43489770A02E7A1AE2C2","88AD64F00C6B43489770A02E7A1AE2C2","0198b9fd-8320-7056-be8c-7c5c39c67e84","0198b9d0-29d4-7df3-8625-4b4515841beb","{""num_scrambled_semantic"":""8"",""num_scrambled_causal"":""4"",""num_scrambled_schematic"":""4"",""participantId"":""88AD64F00C6B43489770A02E7A1AE2C2"",""assignmentId"":""0198b9fd-8320-7056-be8c-7c5c39c67e84"",""projectId"":""0198b9d0-29d4-7df3-8625-4b4515841beb""}","https://test12345.live/?num_scrambled_semantic=8&num_scrambled_causal=4&num_scrambled_schematic=4&participantId=88AD64F00C6B43489770A02E7A1AE2C2&assignmentId=0198b9fd-8320-7056-be8c-7c5c39c67e84&projectId=0198b9d0-29d4-7df3-8625-4b4515841beb","88AD64F00C6B43489770A02E7A1AE2C2-2025-08-17-22-35-50","","null","","images/semantic_sequence/maintaining_a_car_semantic/maintaining_a_car_semantic_1.png","null","",""
"","","","","","image-button-response","85","493810","0.0-12.0-1.0-1.9","88AD64F00C6B43489770A02E7A1AE2C2","88AD64F00C6B43489770A02E7A1AE2C2","0198b9fd-8320-7056-be8c-7c5c39c67e84","0198b9d0-29d4-7df3-8625-4b4515841beb","{""num_scrambled_semantic"":""8"",""num_scrambled_causal"":""4"",""num_scrambled_schematic"":""4"",""participantId"":""88AD64F00C6B43489770A02E7A1AE2C2"",""assignmentId"":""0198b9fd-8320-7056-be8c-7c5c39c67e84"",""projectId"":""0198b9d0-29d4-7df3-8625-4b4515841beb""}","https://test12345.live/?num_scrambled_semantic=8&num_scrambled_causal=4&num_scrambled_schematic=4&participantId=88AD64F00C6B43489770A02E7A1AE2C2&assignmentId=0198b9fd-8320-7056-be8c-7c5c39c67e84&projectId=0198b9d0-29d4-7df3-8625-4b4515841beb","88AD64F00C6B43489770A02E7A1AE2C2-2025-08-17-22-35-50","","917","","images/semantic_sequence/maintaining_a_car_semantic/maintaining_a_car_semantic_1.png","0","",""
"","","","","","image-button-response","86","499216","0.0-12.0-1.0-2.9","88AD64F00C6B43489770A02E7A1AE2C2","88AD64F00C6B43489770A02E7A1AE2C2","0198b9fd-8320-7056-be8c-7c5c39c67e84","0198b9d0-29d4-7df3-8625-4b4515841beb","{""num_scrambled_semantic"":""8"",""num_scrambled_causal"":""4"",""num_scrambled_schematic"":""4"",""participantId"":""88AD64F00C6B43489770A02E7A1AE2C2"",""assignmentId"":""0198b9fd-8320-7056-be8c-7c5c39c67e84"",""projectId"":""0198b9d0-29d4-7df3-8625-4b4515841beb""}","https://test12345.live/?num_scrambled_semantic=8&num_scrambled_causal=4&num_scrambled_schematic=4&participantId=88AD64F00C6B43489770A02E7A1AE2C2&assignmentId=0198b9fd-8320-7056-be8c-7c5c39c67e84&projectId=0198b9d0-29d4-7df3-8625-4b4515841beb","88AD64F00C6B43489770A02E7A1AE2C2-2025-08-17-22-35-50","","null","","[]","null","",""
"","","","","","html-audio-response","87","592919","0.0-13.0","88AD64F00C6B43489770A02E7A1AE2C2","88AD64F00C6B43489770A02E7A1AE2C2","0198b9fd-8320-7056-be8c-7c5c39c67e84","0198b9d0-29d4-7df3-8625-4b4515841beb","{""num_scrambled_semantic"":""8"",""num_scrambled_causal"":""4"",""num_scrambled_schematic"":""4"",""participantId"":""88AD64F00C6B43489770A02E7A1AE2C2"",""assignmentId"":""0198b9fd-8320-7056-be8c-7c5c39c67e84"",""projectId"":""0198b9d0-29d4-7df3-8625-4b4515841beb""}","https://test12345.live/?num_scrambled_semantic=8&num_scrambled_causal=4&num_scrambled_schematic=4&participantId=88AD64F00C6B43489770A02E7A1AE2C2&assignmentId=0198b9fd-8320-7056-be8c-7c5c39c67e84&projectId=0198b9d0-29d4-7df3-8625-4b4515841beb","88AD64F00C6B43489770A02E7A1AE2C2-2025-08-17-22-35-50","","46486","","[""<span style=\""color: red; font-size: 24px\""> NOW RECORDING</span><p>Please say out loud all the images you saw, as many as you can remember. The images can be said in any order.</p>""]","","2","maintaining_a_car_semantic"
"","","","","","image-button-response","88","598926","0.0-14.0-0.0","88AD64F00C6B43489770A02E7A1AE2C2","88AD64F00C6B43489770A02E7A1AE2C2","0198b9fd-8320-7056-be8c-7c5c39c67e84","0198b9d0-29d4-7df3-8625-4b4515841beb","{""num_scrambled_semantic"":""8"",""num_scrambled_causal"":""4"",""num_scrambled_schematic"":""4"",""participantId"":""88AD64F00C6B43489770A02E7A1AE2C2"",""assignmentId"":""0198b9fd-8320-7056-be8c-7c5c39c67e84"",""projectId"":""0198b9d0-29d4-7df3-8625-4b4515841beb""}","https://test12345.live/?num_scrambled_semantic=8&num_scrambled_causal=4&num_scrambled_schematic=4&participantId=88AD64F00C6B43489770A02E7A1AE2C2&assignmentId=0198b9fd-8320-7056-be8c-7c5c39c67e84&projectId=0198b9d0-29d4-7df3-8625-4b4515841beb","88AD64F00C6B43489770A02E7A1AE2C2-2025-08-17-22-35-50","","null","","images/causal_sequence/dog_causal/dog_causal_0.png","null","",""
"","","","","","image-button-response","89","603431","0.0-14.0-1.0-0.0","88AD64F00C6B43489770A02E7A1AE2C2","88AD64F00C6B43489770A02E7A1AE2C2","0198b9fd-8320-7056-be8c-7c5c39c67e84","0198b9d0-29d4-7df3-8625-4b4515841beb","{""num_scrambled_semantic"":""8"",""num_scrambled_causal"":""4"",""num_scrambled_schematic"":""4"",""participantId"":""88AD64F00C6B43489770A02E7A1AE2C2"",""assignmentId"":""0198b9fd-8320-7056-be8c-7c5c39c67e84"",""projectId"":""0198b9d0-29d4-7df3-8625-4b4515841beb""}","https://test12345.live/?num_scrambled_semantic=8&num_scrambled_causal=4&num_scrambled_schematic=4&participantId=88AD64F00C6B43489770A02E7A1AE2C2&assignmentId=0198b9fd-8320-7056-be8c-7c5c39c67e84&projectId=0198b9d0-29d4-7df3-8625-4b4515841beb","88AD64F00C6B43489770A02E7A1AE2C2-2025-08-17-22-35-50","","null","","images/causal_sequence/dog_causal/dog_causal_1.png","null","",""
"","","","","","image-button-response","90","604961","0.0-14.0-1.0-1.0","88AD64F00C6B43489770A02E7A1AE2C2","88AD64F00C6B43489770A02E7A1AE2C2","0198b9fd-8320-7056-be8c-7c5c39c67e84","0198b9d0-29d4-7df3-8625-4b4515841beb","{""num_scrambled_semantic"":""8"",""num_scrambled_causal"":""4"",""num_scrambled_schematic"":""4"",""participantId"":""88AD64F00C6B43489770A02E7A1AE2C2"",""assignmentId"":""0198b9fd-8320-7056-be8c-7c5c39c67e84"",""projectId"":""0198b9d0-29d4-7df3-8625-4b4515841beb""}","https://test12345.live/?num_scrambled_semantic=8&num_scrambled_causal=4&num_scrambled_schematic=4&participantId=88AD64F00C6B43489770A02E7A1AE2C2&assignmentId=0198b9fd-8320-7056-be8c-7c5c39c67e84&projectId=0198b9d0-29d4-7df3-8625-4b4515841beb","88AD64F00C6B43489770A02E7A1AE2C2-2025-08-17-22-35-50","","1529","","images/causal_sequence/dog_causal/dog_causal_1.png","0","",""
"","","","","","image-button-response","91","610363","0.0-14.0-1.0-2.0","88AD64F00C6B43489770A02E7A1AE2C2","88AD64F00C6B43489770A02E7A1AE2C2","0198b9fd-8320-7056-be8c-7c5c39c67e84","0198b9d0-29d4-7df3-8625-4b4515841beb","{""num_scrambled_semantic"":""8"",""num_scrambled_causal"":""4"",""num_scrambled_schematic"":""4"",""participantId"":""88AD64F00C6B43489770A02E7A1AE2C2"",""assignmentId"":""0198b9fd-8320-7056-be8c-7c5c39c67e84"",""projectId"":""0198b9d0-29d4-7df3-8625-4b4515841beb""}","https://test12345.live/?num_scrambled_semantic=8&num_scrambled_causal=4&num_scrambled_schematic=4&participantId=88AD64F00C6B43489770A02E7A1AE2C2&assignmentId=0198b9fd-8320-7056-be8c-7c5c39c67e84&projectId=0198b9d0-29d4-7df3-8625-4b4515841beb","88AD64F00C6B43489770A02E7A1AE2C2-2025-08-17-22-35-50","","null","","[]","null","",""
"","","","","","image-button-response","92","614866","0.0-14.0-1.0-0.1","88AD64F00C6B43489770A02E7A1AE2C2","88AD64F00C6B43489770A02E7A1AE2C2","0198b9fd-8320-7056-be8c-7c5c39c67e84","0198b9d0-29d4-7df3-8625-4b4515841beb","{""num_scrambled_semantic"":""8"",""num_scrambled_causal"":""4"",""num_scrambled_schematic"":""4"",""participantId"":""88AD64F00C6B43489770A02E7A1AE2C2"",""assignmentId"":""0198b9fd-8320-7056-be8c-7c5c39c67e84"",""projectId"":""0198b9d0-29d4-7df3-8625-4b4515841beb""}","https://test12345.live/?num_scrambled_semantic=8&num_scrambled_causal=4&num_scrambled_schematic=4&participantId=88AD64F00C6B43489770A02E7A1AE2C2&assignmentId=0198b9fd-8320-7056-be8c-7c5c39c67e84&projectId=0198b9d0-29d4-7df3-8625-4b4515841beb","88AD64F00C6B43489770A02E7A1AE2C2-2025-08-17-22-35-50","","null","","images/causal_sequence/dog_causal/dog_causal_2.png","null","",""
"","","","","","image-button-response","93","616062","0.0-14.0-1.0-1.1","88AD64F00C6B43489770A02E7A1AE2C2","88AD64F00C6B43489770A02E7A1AE2C2","0198b9fd-8320-7056-be8c-7c5c39c67e84","0198b9d0-29d4-7df3-8625-4b4515841beb","{""num_scrambled_semantic"":""8"",""num_scrambled_causal"":""4"",""num_scrambled_schematic"":""4"",""participantId"":""88AD64F00C6B43489770A02E7A1AE2C2"",""assignmentId"":""0198b9fd-8320-7056-be8c-7c5c39c67e84"",""projectId"":""0198b9d0-29d4-7df3-8625-4b4515841beb""}","https://test12345.live/?num_scrambled_semantic=8&num_scrambled_causal=4&num_scrambled_schematic=4&participantId=88AD64F00C6B43489770A02E7A1AE2C2&assignmentId=0198b9fd-8320-7056-be8c-7c5c39c67e84&projectId=0198b9d0-29d4-7df3-8625-4b4515841beb","88AD64F00C6B43489770A02E7A1AE2C2-2025-08-17-22-35-50","","1194","","images/causal_sequence/dog_causal/dog_causal_2.png","0","",""
"","","","","","image-button-response","94","621466","0.0-14.0-1.0-2.1","88AD64F00C6B43489770A02E7A1AE2C2","88AD64F00C6B43489770A02E7A1AE2C2","0198b9fd-8320-7056-be8c-7c5c39c67e84","0198b9d0-29d4-7df3-8625-4b4515841beb","{""num_scrambled_semantic"":""8"",""num_scrambled_causal"":""4"",""num_scrambled_schematic"":""4"",""participantId"":""88AD64F00C6B43489770A02E7A1AE2C2"",""assignmentId"":""0198b9fd-8320-7056-be8c-7c5c39c67e84"",""projectId"":""0198b9d0-29d4-7df3-8625-4b4515841beb""}","https://test12345.live/?num_scrambled_semantic=8&num_scrambled_causal=4&num_scrambled_schematic=4&participantId=88AD64F00C6B43489770A02E7A1AE2C2&assignmentId=0198b9fd-8320-7056-be8c-7c5c39c67e84&projectId=0198b9d0-29d4-7df3-8625-4b4515841beb","88AD64F00C6B43489770A02E7A1AE2C2-2025-08-17-22-35-50","","null","","[]","null","",""
"","","","","","image-button-response","95","625971","0.0-14.0-1.0-0.2","88AD64F00C6B43489770A02E7A1AE2C2","88AD64F00C6B43489770A02E7A1AE2C2","0198b9fd-8320-7056-be8c-7c5c39c67e84","0198b9d0-29d4-7df3-8625-4b4515841beb","{""num_scrambled_semantic"":""8"",""num_scrambled_causal"":""4"",""num_scrambled_schematic"":""4"",""participantId"":""88AD64F00C6B43489770A02E7A1AE2C2"",""assignmentId"":""0198b9fd-8320-7056-be8c-7c5c39c67e84"",""projectId"":""0198b9d0-29d4-7df3-8625-4b4515841beb""}","https://test12345.live/?num_scrambled_semantic=8&num_scrambled_causal=4&num_scrambled_schematic=4&participantId=88AD64F00C6B43489770A02E7A1AE2C2&assignmentId=0198b9fd-8320-7056-be8c-7c5c39c67e84&projectId=0198b9d0-29d4-7df3-8625-4b4515841beb","88AD64F00C6B43489770A02E7A1AE2C2-2025-08-17-22-35-50","","null","","images/causal_sequence/dog_causal/dog_causal_3.png","null","",""
"","","","","","image-button-response","96","626976","0.0-14.0-1.0-1.2","88AD64F00C6B43489770A02E7A1AE2C2","88AD64F00C6B43489770A02E7A1AE2C2","0198b9fd-8320-7056-be8c-7c5c39c67e84","0198b9d0-29d4-7df3-8625-4b4515841beb","{""num_scrambled_semantic"":""8"",""num_scrambled_causal"":""4"",""num_scrambled_schematic"":""4"",""participantId"":""88AD64F00C6B43489770A02E7A1AE2C2"",""assignmentId"":""0198b9fd-8320-7056-be8c-7c5c39c67e84"",""projectId"":""0198b9d0-29d4-7df3-8625-4b4515841beb""}","https://test12345.live/?num_scrambled_semantic=8&num_scrambled_causal=4&num_scrambled_schematic=4&participantId=88AD64F00C6B43489770A02E7A1AE2C2&assignmentId=0198b9fd-8320-7056-be8c-7c5c39c67e84&projectId=0198b9d0-29d4-7df3-8625-4b4515841beb","88AD64F00C6B43489770A02E7A1AE2C2-2025-08-17-22-35-50","","1004","","images/causal_sequence/dog_causal/dog_causal_3.png","0","",""
"","","","","","image-button-response","97","632379","0.0-14.0-1.0-2.2","88AD64F00C6B43489770A02E7A1AE2C2","88AD64F00C6B43489770A02E7A1AE2C2","0198b9fd-8320-7056-be8c-7c5c39c67e84","0198b9d0-29d4-7df3-8625-4b4515841beb","{""num_scrambled_semantic"":""8"",""num_scrambled_causal"":""4"",""num_scrambled_schematic"":""4"",""participantId"":""88AD64F00C6B43489770A02E7A1AE2C2"",""assignmentId"":""0198b9fd-8320-7056-be8c-7c5c39c67e84"",""projectId"":""0198b9d0-29d4-7df3-8625-4b4515841beb""}","https://test12345.live/?num_scrambled_semantic=8&num_scrambled_causal=4&num_scrambled_schematic=4&participantId=88AD64F00C6B43489770A02E7A1AE2C2&assignmentId=0198b9fd-8320-7056-be8c-7c5c39c67e84&projectId=0198b9d0-29d4-7df3-8625-4b4515841beb","88AD64F00C6B43489770A02E7A1AE2C2-2025-08-17-22-35-50","","null","","[]","null","",""
"","","","","","image-button-response","98","636883","0.0-14.0-1.0-0.3","88AD64F00C6B43489770A02E7A1AE2C2","88AD64F00C6B43489770A02E7A1AE2C2","0198b9fd-8320-7056-be8c-7c5c39c67e84","0198b9d0-29d4-7df3-8625-4b4515841beb","{""num_scrambled_semantic"":""8"",""num_scrambled_causal"":""4"",""num_scrambled_schematic"":""4"",""participantId"":""88AD64F00C6B43489770A02E7A1AE2C2"",""assignmentId"":""0198b9fd-8320-7056-be8c-7c5c39c67e84"",""projectId"":""0198b9d0-29d4-7df3-8625-4b4515841beb""}","https://test12345.live/?num_scrambled_semantic=8&num_scrambled_causal=4&num_scrambled_schematic=4&participantId=88AD64F00C6B43489770A02E7A1AE2C2&assignmentId=0198b9fd-8320-7056-be8c-7c5c39c67e84&projectId=0198b9d0-29d4-7df3-8625-4b4515841beb","88AD64F00C6B43489770A02E7A1AE2C2-2025-08-17-22-35-50","","null","","images/causal_sequence/dog_causal/dog_causal_4.png","null","",""
"","","","","","image-button-response","99","640069","0.0-14.0-1.0-1.3","88AD64F00C6B43489770A02E7A1AE2C2","88AD64F00C6B43489770A02E7A1AE2C2","0198b9fd-8320-7056-be8c-7c5c39c67e84","0198b9d0-29d4-7df3-8625-4b4515841beb","{""num_scrambled_semantic"":""8"",""num_scrambled_causal"":""4"",""num_scrambled_schematic"":""4"",""participantId"":""88AD64F00C6B43489770A02E7A1AE2C2"",""assignmentId"":""0198b9fd-8320-7056-be8c-7c5c39c67e84"",""projectId"":""0198b9d0-29d4-7df3-8625-4b4515841beb""}","https://test12345.live/?num_scrambled_semantic=8&num_scrambled_causal=4&num_scrambled_schematic=4&participantId=88AD64F00C6B43489770A02E7A1AE2C2&assignmentId=0198b9fd-8320-7056-be8c-7c5c39c67e84&projectId=0198b9d0-29d4-7df3-8625-4b4515841beb","88AD64F00C6B43489770A02E7A1AE2C2-2025-08-17-22-35-50","","3184","","images/causal_sequence/dog_causal/dog_causal_4.png","0","",""
"","","","","","image-button-response","100","645471","0.0-14.0-1.0-2.3","88AD64F00C6B43489770A02E7A1AE2C2","88AD64F00C6B43489770A02E7A1AE2C2","0198b9fd-8320-7056-be8c-7c5c39c67e84","0198b9d0-29d4-7df3-8625-4b4515841beb","{""num_scrambled_semantic"":""8"",""num_scrambled_causal"":""4"",""num_scrambled_schematic"":""4"",""participantId"":""88AD64F00C6B43489770A02E7A1AE2C2"",""assignmentId"":""0198b9fd-8320-7056-be8c-7c5c39c67e84"",""projectId"":""0198b9d0-29d4-7df3-8625-4b4515841beb""}","https://test12345.live/?num_scrambled_semantic=8&num_scrambled_causal=4&num_scrambled_schematic=4&participantId=88AD64F00C6B43489770A02E7A1AE2C2&assignmentId=0198b9fd-8320-7056-be8c-7c5c39c67e84&projectId=0198b9d0-29d4-7df3-8625-4b4515841beb","88AD64F00C6B43489770A02E7A1AE2C2-2025-08-17-22-35-50","","null","","[]","null","",""
"","","","","","image-button-response","101","649974","0.0-14.0-1.0-0.4","88AD64F00C6B43489770A02E7A1AE2C2","88AD64F00C6B43489770A02E7A1AE2C2","0198b9fd-8320-7056-be8c-7c5c39c67e84","0198b9d0-29d4-7df3-8625-4b4515841beb","{""num_scrambled_semantic"":""8"",""num_scrambled_causal"":""4"",""num_scrambled_schematic"":""4"",""participantId"":""88AD64F00C6B43489770A02E7A1AE2C2"",""assignmentId"":""0198b9fd-8320-7056-be8c-7c5c39c67e84"",""projectId"":""0198b9d0-29d4-7df3-8625-4b4515841beb""}","https://test12345.live/?num_scrambled_semantic=8&num_scrambled_causal=4&num_scrambled_schematic=4&participantId=88AD64F00C6B43489770A02E7A1AE2C2&assignmentId=0198b9fd-8320-7056-be8c-7c5c39c67e84&projectId=0198b9d0-29d4-7df3-8625-4b4515841beb","88AD64F00C6B43489770A02E7A1AE2C2-2025-08-17-22-35-50","","null","","images/causal_sequence/dog_causal/dog_causal_5.png","null","",""
"","","","","","image-button-response","102","650886","0.0-14.0-1.0-1.4","88AD64F00C6B43489770A02E7A1AE2C2","88AD64F00C6B43489770A02E7A1AE2C2","0198b9fd-8320-7056-be8c-7c5c39c67e84","0198b9d0-29d4-7df3-8625-4b4515841beb","{""num_scrambled_semantic"":""8"",""num_scrambled_causal"":""4"",""num_scrambled_schematic"":""4"",""participantId"":""88AD64F00C6B43489770A02E7A1AE2C2"",""assignmentId"":""0198b9fd-8320-7056-be8c-7c5c39c67e84"",""projectId"":""0198b9d0-29d4-7df3-8625-4b4515841beb""}","https://test12345.live/?num_scrambled_semantic=8&num_scrambled_causal=4&num_scrambled_schematic=4&participantId=88AD64F00C6B43489770A02E7A1AE2C2&assignmentId=0198b9fd-8320-7056-be8c-7c5c39c67e84&projectId=0198b9d0-29d4-7df3-8625-4b4515841beb","88AD64F00C6B43489770A02E7A1AE2C2-2025-08-17-22-35-50","","910","","images/causal_sequence/dog_causal/dog_causal_5.png","0","",""
"","","","","","image-button-response","103","656289","0.0-14.0-1.0-2.4","88AD64F00C6B43489770A02E7A1AE2C2","88AD64F00C6B43489770A02E7A1AE2C2","0198b9fd-8320-7056-be8c-7c5c39c67e84","0198b9d0-29d4-7df3-8625-4b4515841beb","{""num_scrambled_semantic"":""8"",""num_scrambled_causal"":""4"",""num_scrambled_schematic"":""4"",""participantId"":""88AD64F00C6B43489770A02E7A1AE2C2"",""assignmentId"":""0198b9fd-8320-7056-be8c-7c5c39c67e84"",""projectId"":""0198b9d0-29d4-7df3-8625-4b4515841beb""}","https://test12345.live/?num_scrambled_semantic=8&num_scrambled_causal=4&num_scrambled_schematic=4&participantId=88AD64F00C6B43489770A02E7A1AE2C2&assignmentId=0198b9fd-8320-7056-be8c-7c5c39c67e84&projectId=0198b9d0-29d4-7df3-8625-4b4515841beb","88AD64F00C6B43489770A02E7A1AE2C2-2025-08-17-22-35-50","","null","","[]","null","",""
"","","","","","image-button-response","104","660796","0.0-14.0-1.0-0.5","88AD64F00C6B43489770A02E7A1AE2C2","88AD64F00C6B43489770A02E7A1AE2C2","0198b9fd-8320-7056-be8c-7c5c39c67e84","0198b9d0-29d4-7df3-8625-4b4515841beb","{""num_scrambled_semantic"":""8"",""num_scrambled_causal"":""4"",""num_scrambled_schematic"":""4"",""participantId"":""88AD64F00C6B43489770A02E7A1AE2C2"",""assignmentId"":""0198b9fd-8320-7056-be8c-7c5c39c67e84"",""projectId"":""0198b9d0-29d4-7df3-8625-4b4515841beb""}","https://test12345.live/?num_scrambled_semantic=8&num_scrambled_causal=4&num_scrambled_schematic=4&participantId=88AD64F00C6B43489770A02E7A1AE2C2&assignmentId=0198b9fd-8320-7056-be8c-7c5c39c67e84&projectId=0198b9d0-29d4-7df3-8625-4b4515841beb","88AD64F00C6B43489770A02E7A1AE2C2-2025-08-17-22-35-50","","null","","images/causal_sequence/dog_causal/dog_causal_6.png","null","",""
"","","","","","image-button-response","105","662030","0.0-14.0-1.0-1.5","88AD64F00C6B43489770A02E7A1AE2C2","88AD64F00C6B43489770A02E7A1AE2C2","0198b9fd-8320-7056-be8c-7c5c39c67e84","0198b9d0-29d4-7df3-8625-4b4515841beb","{""num_scrambled_semantic"":""8"",""num_scrambled_causal"":""4"",""num_scrambled_schematic"":""4"",""participantId"":""88AD64F00C6B43489770A02E7A1AE2C2"",""assignmentId"":""0198b9fd-8320-7056-be8c-7c5c39c67e84"",""projectId"":""0198b9d0-29d4-7df3-8625-4b4515841beb""}","https://test12345.live/?num_scrambled_semantic=8&num_scrambled_causal=4&num_scrambled_schematic=4&participantId=88AD64F00C6B43489770A02E7A1AE2C2&assignmentId=0198b9fd-8320-7056-be8c-7c5c39c67e84&projectId=0198b9d0-29d4-7df3-8625-4b4515841beb","88AD64F00C6B43489770A02E7A1AE2C2-2025-08-17-22-35-50","","1232","","images/causal_sequence/dog_causal/dog_causal_6.png","0","",""
"","","","","","image-button-response","106","667433","0.0-14.0-1.0-2.5","88AD64F00C6B43489770A02E7A1AE2C2","88AD64F00C6B43489770A02E7A1AE2C2","0198b9fd-8320-7056-be8c-7c5c39c67e84","0198b9d0-29d4-7df3-8625-4b4515841beb","{""num_scrambled_semantic"":""8"",""num_scrambled_causal"":""4"",""num_scrambled_schematic"":""4"",""participantId"":""88AD64F00C6B43489770A02E7A1AE2C2"",""assignmentId"":""0198b9fd-8320-7056-be8c-7c5c39c67e84"",""projectId"":""0198b9d0-29d4-7df3-8625-4b4515841beb""}","https://test12345.live/?num_scrambled_semantic=8&num_scrambled_causal=4&num_scrambled_schematic=4&participantId=88AD64F00C6B43489770A02E7A1AE2C2&assignmentId=0198b9fd-8320-7056-be8c-7c5c39c67e84&projectId=0198b9d0-29d4-7df3-8625-4b4515841beb","88AD64F00C6B43489770A02E7A1AE2C2-2025-08-17-22-35-50","","null","","[]","null","",""
"","","","","","image-button-response","107","671939","0.0-14.0-1.0-0.6","88AD64F00C6B43489770A02E7A1AE2C2","88AD64F00C6B43489770A02E7A1AE2C2","0198b9fd-8320-7056-be8c-7c5c39c67e84","0198b9d0-29d4-7df3-8625-4b4515841beb","{""num_scrambled_semantic"":""8"",""num_scrambled_causal"":""4"",""num_scrambled_schematic"":""4"",""participantId"":""88AD64F00C6B43489770A02E7A1AE2C2"",""assignmentId"":""0198b9fd-8320-7056-be8c-7c5c39c67e84"",""projectId"":""0198b9d0-29d4-7df3-8625-4b4515841beb""}","https://test12345.live/?num_scrambled_semantic=8&num_scrambled_causal=4&num_scrambled_schematic=4&participantId=88AD64F00C6B43489770A02E7A1AE2C2&assignmentId=0198b9fd-8320-7056-be8c-7c5c39c67e84&projectId=0198b9d0-29d4-7df3-8625-4b4515841beb","88AD64F00C6B43489770A02E7A1AE2C2-2025-08-17-22-35-50","","null","","images/causal_sequence/dog_causal/dog_causal_7.png","null","",""
"","","","","","image-button-response","108","672708","0.0-14.0-1.0-1.6","88AD64F00C6B43489770A02E7A1AE2C2","88AD64F00C6B43489770A02E7A1AE2C2","0198b9fd-8320-7056-be8c-7c5c39c67e84","0198b9d0-29d4-7df3-8625-4b4515841beb","{""num_scrambled_semantic"":""8"",""num_scrambled_causal"":""4"",""num_scrambled_schematic"":""4"",""participantId"":""88AD64F00C6B43489770A02E7A1AE2C2"",""assignmentId"":""0198b9fd-8320-7056-be8c-7c5c39c67e84"",""projectId"":""0198b9d0-29d4-7df3-8625-4b4515841beb""}","https://test12345.live/?num_scrambled_semantic=8&num_scrambled_causal=4&num_scrambled_schematic=4&participantId=88AD64F00C6B43489770A02E7A1AE2C2&assignmentId=0198b9fd-8320-7056-be8c-7c5c39c67e84&projectId=0198b9d0-29d4-7df3-8625-4b4515841beb","88AD64F00C6B43489770A02E7A1AE2C2-2025-08-17-22-35-50","","766","","images/causal_sequence/dog_causal/dog_causal_7.png","0","",""
"","","","","","image-button-response","109","678112","0.0-14.0-1.0-2.6","88AD64F00C6B43489770A02E7A1AE2C2","88AD64F00C6B43489770A02E7A1AE2C2","0198b9fd-8320-7056-be8c-7c5c39c67e84","0198b9d0-29d4-7df3-8625-4b4515841beb","{""num_scrambled_semantic"":""8"",""num_scrambled_causal"":""4"",""num_scrambled_schematic"":""4"",""participantId"":""88AD64F00C6B43489770A02E7A1AE2C2"",""assignmentId"":""0198b9fd-8320-7056-be8c-7c5c39c67e84"",""projectId"":""0198b9d0-29d4-7df3-8625-4b4515841beb""}","https://test12345.live/?num_scrambled_semantic=8&num_scrambled_causal=4&num_scrambled_schematic=4&participantId=88AD64F00C6B43489770A02E7A1AE2C2&assignmentId=0198b9fd-8320-7056-be8c-7c5c39c67e84&projectId=0198b9d0-29d4-7df3-8625-4b4515841beb","88AD64F00C6B43489770A02E7A1AE2C2-2025-08-17-22-35-50","","null","","[]","null","",""
"","","","","","image-button-response","110","682614","0.0-14.0-1.0-0.7","88AD64F00C6B43489770A02E7A1AE2C2","88AD64F00C6B43489770A02E7A1AE2C2","0198b9fd-8320-7056-be8c-7c5c39c67e84","0198b9d0-29d4-7df3-8625-4b4515841beb","{""num_scrambled_semantic"":""8"",""num_scrambled_causal"":""4"",""num_scrambled_schematic"":""4"",""participantId"":""88AD64F00C6B43489770A02E7A1AE2C2"",""assignmentId"":""0198b9fd-8320-7056-be8c-7c5c39c67e84"",""projectId"":""0198b9d0-29d4-7df3-8625-4b4515841beb""}","https://test12345.live/?num_scrambled_semantic=8&num_scrambled_causal=4&num_scrambled_schematic=4&participantId=88AD64F00C6B43489770A02E7A1AE2C2&assignmentId=0198b9fd-8320-7056-be8c-7c5c39c67e84&projectId=0198b9d0-29d4-7df3-8625-4b4515841beb","88AD64F00C6B43489770A02E7A1AE2C2-2025-08-17-22-35-50","","null","","images/causal_sequence/dog_causal/dog_causal_8.png","null","",""
"","","","","","image-button-response","111","684085","0.0-14.0-1.0-1.7","88AD64F00C6B43489770A02E7A1AE2C2","88AD64F00C6B43489770A02E7A1AE2C2","0198b9fd-8320-7056-be8c-7c5c39c67e84","0198b9d0-29d4-7df3-8625-4b4515841beb","{""num_scrambled_semantic"":""8"",""num_scrambled_causal"":""4"",""num_scrambled_schematic"":""4"",""participantId"":""88AD64F00C6B43489770A02E7A1AE2C2"",""assignmentId"":""0198b9fd-8320-7056-be8c-7c5c39c67e84"",""projectId"":""0198b9d0-29d4-7df3-8625-4b4515841beb""}","https://test12345.live/?num_scrambled_semantic=8&num_scrambled_causal=4&num_scrambled_schematic=4&participantId=88AD64F00C6B43489770A02E7A1AE2C2&assignmentId=0198b9fd-8320-7056-be8c-7c5c39c67e84&projectId=0198b9d0-29d4-7df3-8625-4b4515841beb","88AD64F00C6B43489770A02E7A1AE2C2-2025-08-17-22-35-50","","1468","","images/causal_sequence/dog_causal/dog_causal_8.png","0","",""
"","","","","","image-button-response","112","689490","0.0-14.0-1.0-2.7","88AD64F00C6B43489770A02E7A1AE2C2","88AD64F00C6B43489770A02E7A1AE2C2","0198b9fd-8320-7056-be8c-7c5c39c67e84","0198b9d0-29d4-7df3-8625-4b4515841beb","{""num_scrambled_semantic"":""8"",""num_scrambled_causal"":""4"",""num_scrambled_schematic"":""4"",""participantId"":""88AD64F00C6B43489770A02E7A1AE2C2"",""assignmentId"":""0198b9fd-8320-7056-be8c-7c5c39c67e84"",""projectId"":""0198b9d0-29d4-7df3-8625-4b4515841beb""}","https://test12345.live/?num_scrambled_semantic=8&num_scrambled_causal=4&num_scrambled_schematic=4&participantId=88AD64F00C6B43489770A02E7A1AE2C2&assignmentId=0198b9fd-8320-7056-be8c-7c5c39c67e84&projectId=0198b9d0-29d4-7df3-8625-4b4515841beb","88AD64F00C6B43489770A02E7A1AE2C2-2025-08-17-22-35-50","","null","","[]","null","",""
"","","","","","image-button-response","113","693992","0.0-14.0-1.0-0.8","88AD64F00C6B43489770A02E7A1AE2C2","88AD64F00C6B43489770A02E7A1AE2C2","0198b9fd-8320-7056-be8c-7c5c39c67e84","0198b9d0-29d4-7df3-8625-4b4515841beb","{""num_scrambled_semantic"":""8"",""num_scrambled_causal"":""4"",""num_scrambled_schematic"":""4"",""participantId"":""88AD64F00C6B43489770A02E7A1AE2C2"",""assignmentId"":""0198b9fd-8320-7056-be8c-7c5c39c67e84"",""projectId"":""0198b9d0-29d4-7df3-8625-4b4515841beb""}","https://test12345.live/?num_scrambled_semantic=8&num_scrambled_causal=4&num_scrambled_schematic=4&participantId=88AD64F00C6B43489770A02E7A1AE2C2&assignmentId=0198b9fd-8320-7056-be8c-7c5c39c67e84&projectId=0198b9d0-29d4-7df3-8625-4b4515841beb","88AD64F00C6B43489770A02E7A1AE2C2-2025-08-17-22-35-50","","null","","images/causal_sequence/dog_causal/dog_causal_9.png","null","",""
"","","","","","image-button-response","114","694542","0.0-14.0-1.0-1.8","88AD64F00C6B43489770A02E7A1AE2C2","88AD64F00C6B43489770A02E7A1AE2C2","0198b9fd-8320-7056-be8c-7c5c39c67e84","0198b9d0-29d4-7df3-8625-4b4515841beb","{""num_scrambled_semantic"":""8"",""num_scrambled_causal"":""4"",""num_scrambled_schematic"":""4"",""participantId"":""88AD64F00C6B43489770A02E7A1AE2C2"",""assignmentId"":""0198b9fd-8320-7056-be8c-7c5c39c67e84"",""projectId"":""0198b9d0-29d4-7df3-8625-4b4515841beb""}","https://test12345.live/?num_scrambled_semantic=8&num_scrambled_causal=4&num_scrambled_schematic=4&participantId=88AD64F00C6B43489770A02E7A1AE2C2&assignmentId=0198b9fd-8320-7056-be8c-7c5c39c67e84&projectId=0198b9d0-29d4-7df3-8625-4b4515841beb","88AD64F00C6B43489770A02E7A1AE2C2-2025-08-17-22-35-50","","548","","images/causal_sequence/dog_causal/dog_causal_9.png","0","",""
