"success","timeout","failed_images","failed_audio","failed_video","trial_type","trial_index","time_elapsed","internal_node_id","subject","subject_id","study_id","session_id","urlvar","current_url","audio_id","view_history","rt","device_id","stimulus","response","estimated_stimulus_onset","seq_name"
"true","false","[]","[]","[]","preload","0","21419","0.0-0.0","89975035950644E1BA35A6D97BD2CD4F","89975035950644E1BA35A6D97BD2CD4F","3bf5d7fe-45ed-4b50-8642-26c3cf6da58f","a9f3d40c-5730-405c-b25e-1034c4c56f3f","{""num_scrambled_semantic"":""8"",""num_scrambled_causal"":""4"",""num_scrambled_schematic"":""4"",""participantId"":""89975035950644E1BA35A6D97BD2CD4F"",""assignmentId"":""3bf5d7fe-45ed-4b50-8642-26c3cf6da58f"",""projectId"":""a9f3d40c-5730-405c-b25e-1034c4c56f3f""}","https://test12345.live/?num_scrambled_semantic=8&num_scrambled_causal=4&num_scrambled_schematic=4&participantId=89975035950644E1BA35A6D97BD2CD4F&assignmentId=3bf5d7fe-45ed-4b50-8642-26c3cf6da58f&projectId=a9f3d40c-5730-405c-b25e-1034c4c56f3f","89975035950644E1BA35A6D97BD2CD4F-2025-08-07-19-22-45","","","","","","",""
"","","","","","instructions","1","51549","0.0-1.0","89975035950644E1BA35A6D97BD2CD4F","89975035950644E1BA35A6D97BD2CD4F","3bf5d7fe-45ed-4b50-8642-26c3cf6da58f","a9f3d40c-5730-405c-b25e-1034c4c56f3f","{""num_scrambled_semantic"":""8"",""num_scrambled_causal"":""4"",""num_scrambled_schematic"":""4"",""participantId"":""89975035950644E1BA35A6D97BD2CD4F"",""assignmentId"":""3bf5d7fe-45ed-4b50-8642-26c3cf6da58f"",""projectId"":""a9f3d40c-5730-405c-b25e-1034c4c56f3f""}","https://test12345.live/?num_scrambled_semantic=8&num_scrambled_causal=4&num_scrambled_schematic=4&participantId=89975035950644E1BA35A6D97BD2CD4F&assignmentId=3bf5d7fe-45ed-4b50-8642-26c3cf6da58f&projectId=a9f3d40c-5730-405c-b25e-1034c4c56f3f","89975035950644E1BA35A6D97BD2CD4F-2025-08-07-19-22-45","[{""page_index"":0,""viewing_time"":30114}]","30114","","","","",""
"","","","","","instructions","2","55794","0.0-2.0","89975035950644E1BA35A6D97BD2CD4F","89975035950644E1BA35A6D97BD2CD4F","3bf5d7fe-45ed-4b50-8642-26c3cf6da58f","a9f3d40c-5730-405c-b25e-1034c4c56f3f","{""num_scrambled_semantic"":""8"",""num_scrambled_causal"":""4"",""num_scrambled_schematic"":""4"",""participantId"":""89975035950644E1BA35A6D97BD2CD4F"",""assignmentId"":""3bf5d7fe-45ed-4b50-8642-26c3cf6da58f"",""projectId"":""a9f3d40c-5730-405c-b25e-1034c4c56f3f""}","https://test12345.live/?num_scrambled_semantic=8&num_scrambled_causal=4&num_scrambled_schematic=4&participantId=89975035950644E1BA35A6D97BD2CD4F&assignmentId=3bf5d7fe-45ed-4b50-8642-26c3cf6da58f&projectId=a9f3d40c-5730-405c-b25e-1034c4c56f3f","89975035950644E1BA35A6D97BD2CD4F-2025-08-07-19-22-45","[{""page_index"":0,""viewing_time"":4245}]","4245","","","","",""
"true","","","","","fullscreen","3","58505","0.0-3.0","89975035950644E1BA35A6D97BD2CD4F","89975035950644E1BA35A6D97BD2CD4F","3bf5d7fe-45ed-4b50-8642-26c3cf6da58f","a9f3d40c-5730-405c-b25e-1034c4c56f3f","{""num_scrambled_semantic"":""8"",""num_scrambled_causal"":""4"",""num_scrambled_schematic"":""4"",""participantId"":""89975035950644E1BA35A6D97BD2CD4F"",""assignmentId"":""3bf5d7fe-45ed-4b50-8642-26c3cf6da58f"",""projectId"":""a9f3d40c-5730-405c-b25e-1034c4c56f3f""}","https://test12345.live/?num_scrambled_semantic=8&num_scrambled_causal=4&num_scrambled_schematic=4&participantId=89975035950644E1BA35A6D97BD2CD4F&assignmentId=3bf5d7fe-45ed-4b50-8642-26c3cf6da58f&projectId=a9f3d40c-5730-405c-b25e-1034c4c56f3f","89975035950644E1BA35A6D97BD2CD4F-2025-08-07-19-22-45","","1701","","","","",""
"","","","","","initialize-microphone","4","83934","0.0-4.0-0.0","89975035950644E1BA35A6D97BD2CD4F","89975035950644E1BA35A6D97BD2CD4F","3bf5d7fe-45ed-4b50-8642-26c3cf6da58f","a9f3d40c-5730-405c-b25e-1034c4c56f3f","{""num_scrambled_semantic"":""8"",""num_scrambled_causal"":""4"",""num_scrambled_schematic"":""4"",""participantId"":""89975035950644E1BA35A6D97BD2CD4F"",""assignmentId"":""3bf5d7fe-45ed-4b50-8642-26c3cf6da58f"",""projectId"":""a9f3d40c-5730-405c-b25e-1034c4c56f3f""}","https://test12345.live/?num_scrambled_semantic=8&num_scrambled_causal=4&num_scrambled_schematic=4&participantId=89975035950644E1BA35A6D97BD2CD4F&assignmentId=3bf5d7fe-45ed-4b50-8642-26c3cf6da58f&projectId=a9f3d40c-5730-405c-b25e-1034c4c56f3f","89975035950644E1BA35A6D97BD2CD4F-2025-08-07-19-22-45","","","e07c2d3893f688c74bc92f1e92d06e381a98a6c7dc7fb4c074d7139057006ea9","","","",""
"","","","","","html-audio-response","5","113436","0.0-4.0-1.0","89975035950644E1BA35A6D97BD2CD4F","89975035950644E1BA35A6D97BD2CD4F","3bf5d7fe-45ed-4b50-8642-26c3cf6da58f","a9f3d40c-5730-405c-b25e-1034c4c56f3f","{""num_scrambled_semantic"":""8"",""num_scrambled_causal"":""4"",""num_scrambled_schematic"":""4"",""participantId"":""89975035950644E1BA35A6D97BD2CD4F"",""assignmentId"":""3bf5d7fe-45ed-4b50-8642-26c3cf6da58f"",""projectId"":""a9f3d40c-5730-405c-b25e-1034c4c56f3f""}","https://test12345.live/?num_scrambled_semantic=8&num_scrambled_causal=4&num_scrambled_schematic=4&participantId=89975035950644E1BA35A6D97BD2CD4F&assignmentId=3bf5d7fe-45ed-4b50-8642-26c3cf6da58f&projectId=a9f3d40c-5730-405c-b25e-1034c4c56f3f","89975035950644E1BA35A6D97BD2CD4F-2025-08-07-19-22-45","","4970","","<span style=""color: red; font-size: 24px""> NOW RECORDING</span>
        <p>Please test Microphone</p>","","1",""
"","","","","","html-button-response","6","116624","0.0-4.0-2.0","89975035950644E1BA35A6D97BD2CD4F","89975035950644E1BA35A6D97BD2CD4F","3bf5d7fe-45ed-4b50-8642-26c3cf6da58f","a9f3d40c-5730-405c-b25e-1034c4c56f3f","{""num_scrambled_semantic"":""8"",""num_scrambled_causal"":""4"",""num_scrambled_schematic"":""4"",""participantId"":""89975035950644E1BA35A6D97BD2CD4F"",""assignmentId"":""3bf5d7fe-45ed-4b50-8642-26c3cf6da58f"",""projectId"":""a9f3d40c-5730-405c-b25e-1034c4c56f3f""}","https://test12345.live/?num_scrambled_semantic=8&num_scrambled_causal=4&num_scrambled_schematic=4&participantId=89975035950644E1BA35A6D97BD2CD4F&assignmentId=3bf5d7fe-45ed-4b50-8642-26c3cf6da58f&projectId=a9f3d40c-5730-405c-b25e-1034c4c56f3f","89975035950644E1BA35A6D97BD2CD4F-2025-08-07-19-22-45","","3187","","<p style=""font-size:48px; color:red;"">Is Microphone OK?</p>","1","",""
"","","","","","instructions","7","130647","0.0-5.0","89975035950644E1BA35A6D97BD2CD4F","89975035950644E1BA35A6D97BD2CD4F","3bf5d7fe-45ed-4b50-8642-26c3cf6da58f","a9f3d40c-5730-405c-b25e-1034c4c56f3f","{""num_scrambled_semantic"":""8"",""num_scrambled_causal"":""4"",""num_scrambled_schematic"":""4"",""participantId"":""89975035950644E1BA35A6D97BD2CD4F"",""assignmentId"":""3bf5d7fe-45ed-4b50-8642-26c3cf6da58f"",""projectId"":""a9f3d40c-5730-405c-b25e-1034c4c56f3f""}","https://test12345.live/?num_scrambled_semantic=8&num_scrambled_causal=4&num_scrambled_schematic=4&participantId=89975035950644E1BA35A6D97BD2CD4F&assignmentId=3bf5d7fe-45ed-4b50-8642-26c3cf6da58f&projectId=a9f3d40c-5730-405c-b25e-1034c4c56f3f","89975035950644E1BA35A6D97BD2CD4F-2025-08-07-19-22-45","[{""page_index"":0,""viewing_time"":6260},{""page_index"":1,""viewing_time"":7762}]","14022","","","","",""
"","","","","","image-button-response","8","136660","0.0-6.0-0.0","89975035950644E1BA35A6D97BD2CD4F","89975035950644E1BA35A6D97BD2CD4F","3bf5d7fe-45ed-4b50-8642-26c3cf6da58f","a9f3d40c-5730-405c-b25e-1034c4c56f3f","{""num_scrambled_semantic"":""8"",""num_scrambled_causal"":""4"",""num_scrambled_schematic"":""4"",""participantId"":""89975035950644E1BA35A6D97BD2CD4F"",""assignmentId"":""3bf5d7fe-45ed-4b50-8642-26c3cf6da58f"",""projectId"":""a9f3d40c-5730-405c-b25e-1034c4c56f3f""}","https://test12345.live/?num_scrambled_semantic=8&num_scrambled_causal=4&num_scrambled_schematic=4&participantId=89975035950644E1BA35A6D97BD2CD4F&assignmentId=3bf5d7fe-45ed-4b50-8642-26c3cf6da58f&projectId=a9f3d40c-5730-405c-b25e-1034c4c56f3f","89975035950644E1BA35A6D97BD2CD4F-2025-08-07-19-22-45","","null","","images/instructions/movie_0.png","null","",""
"","","","","","image-button-response","9","141164","0.0-6.0-1.0-0.0","89975035950644E1BA35A6D97BD2CD4F","89975035950644E1BA35A6D97BD2CD4F","3bf5d7fe-45ed-4b50-8642-26c3cf6da58f","a9f3d40c-5730-405c-b25e-1034c4c56f3f","{""num_scrambled_semantic"":""8"",""num_scrambled_causal"":""4"",""num_scrambled_schematic"":""4"",""participantId"":""89975035950644E1BA35A6D97BD2CD4F"",""assignmentId"":""3bf5d7fe-45ed-4b50-8642-26c3cf6da58f"",""projectId"":""a9f3d40c-5730-405c-b25e-1034c4c56f3f""}","https://test12345.live/?num_scrambled_semantic=8&num_scrambled_causal=4&num_scrambled_schematic=4&participantId=89975035950644E1BA35A6D97BD2CD4F&assignmentId=3bf5d7fe-45ed-4b50-8642-26c3cf6da58f&projectId=a9f3d40c-5730-405c-b25e-1034c4c56f3f","89975035950644E1BA35A6D97BD2CD4F-2025-08-07-19-22-45","","null","","images/instructions/movie_1.png","null","",""
"","","","","","image-button-response","10","145170","0.0-6.0-1.0-1.0","89975035950644E1BA35A6D97BD2CD4F","89975035950644E1BA35A6D97BD2CD4F","3bf5d7fe-45ed-4b50-8642-26c3cf6da58f","a9f3d40c-5730-405c-b25e-1034c4c56f3f","{""num_scrambled_semantic"":""8"",""num_scrambled_causal"":""4"",""num_scrambled_schematic"":""4"",""participantId"":""89975035950644E1BA35A6D97BD2CD4F"",""assignmentId"":""3bf5d7fe-45ed-4b50-8642-26c3cf6da58f"",""projectId"":""a9f3d40c-5730-405c-b25e-1034c4c56f3f""}","https://test12345.live/?num_scrambled_semantic=8&num_scrambled_causal=4&num_scrambled_schematic=4&participantId=89975035950644E1BA35A6D97BD2CD4F&assignmentId=3bf5d7fe-45ed-4b50-8642-26c3cf6da58f&projectId=a9f3d40c-5730-405c-b25e-1034c4c56f3f","89975035950644E1BA35A6D97BD2CD4F-2025-08-07-19-22-45","","null","","images/instructions/movie_1.png","null","",""
"","","","","","image-button-response","11","146979","0.0-6.0-1.0-2.0","89975035950644E1BA35A6D97BD2CD4F","89975035950644E1BA35A6D97BD2CD4F","3bf5d7fe-45ed-4b50-8642-26c3cf6da58f","a9f3d40c-5730-405c-b25e-1034c4c56f3f","{""num_scrambled_semantic"":""8"",""num_scrambled_causal"":""4"",""num_scrambled_schematic"":""4"",""participantId"":""89975035950644E1BA35A6D97BD2CD4F"",""assignmentId"":""3bf5d7fe-45ed-4b50-8642-26c3cf6da58f"",""projectId"":""a9f3d40c-5730-405c-b25e-1034c4c56f3f""}","https://test12345.live/?num_scrambled_semantic=8&num_scrambled_causal=4&num_scrambled_schematic=4&participantId=89975035950644E1BA35A6D97BD2CD4F&assignmentId=3bf5d7fe-45ed-4b50-8642-26c3cf6da58f&projectId=a9f3d40c-5730-405c-b25e-1034c4c56f3f","89975035950644E1BA35A6D97BD2CD4F-2025-08-07-19-22-45","","null","","[]","null","",""
"","","","","","image-button-response","12","151481","0.0-6.0-1.0-0.1","89975035950644E1BA35A6D97BD2CD4F","89975035950644E1BA35A6D97BD2CD4F","3bf5d7fe-45ed-4b50-8642-26c3cf6da58f","a9f3d40c-5730-405c-b25e-1034c4c56f3f","{""num_scrambled_semantic"":""8"",""num_scrambled_causal"":""4"",""num_scrambled_schematic"":""4"",""participantId"":""89975035950644E1BA35A6D97BD2CD4F"",""assignmentId"":""3bf5d7fe-45ed-4b50-8642-26c3cf6da58f"",""projectId"":""a9f3d40c-5730-405c-b25e-1034c4c56f3f""}","https://test12345.live/?num_scrambled_semantic=8&num_scrambled_causal=4&num_scrambled_schematic=4&participantId=89975035950644E1BA35A6D97BD2CD4F&assignmentId=3bf5d7fe-45ed-4b50-8642-26c3cf6da58f&projectId=a9f3d40c-5730-405c-b25e-1034c4c56f3f","89975035950644E1BA35A6D97BD2CD4F-2025-08-07-19-22-45","","null","","images/instructions/movie_2.png","null","",""
"","","","","","image-button-response","13","154042","0.0-6.0-1.0-1.1","89975035950644E1BA35A6D97BD2CD4F","89975035950644E1BA35A6D97BD2CD4F","3bf5d7fe-45ed-4b50-8642-26c3cf6da58f","a9f3d40c-5730-405c-b25e-1034c4c56f3f","{""num_scrambled_semantic"":""8"",""num_scrambled_causal"":""4"",""num_scrambled_schematic"":""4"",""participantId"":""89975035950644E1BA35A6D97BD2CD4F"",""assignmentId"":""3bf5d7fe-45ed-4b50-8642-26c3cf6da58f"",""projectId"":""a9f3d40c-5730-405c-b25e-1034c4c56f3f""}","https://test12345.live/?num_scrambled_semantic=8&num_scrambled_causal=4&num_scrambled_schematic=4&participantId=89975035950644E1BA35A6D97BD2CD4F&assignmentId=3bf5d7fe-45ed-4b50-8642-26c3cf6da58f&projectId=a9f3d40c-5730-405c-b25e-1034c4c56f3f","89975035950644E1BA35A6D97BD2CD4F-2025-08-07-19-22-45","","2560","","images/instructions/movie_2.png","1","",""
"","","","","","image-button-response","14","155851","0.0-6.0-1.0-2.1","89975035950644E1BA35A6D97BD2CD4F","89975035950644E1BA35A6D97BD2CD4F","3bf5d7fe-45ed-4b50-8642-26c3cf6da58f","a9f3d40c-5730-405c-b25e-1034c4c56f3f","{""num_scrambled_semantic"":""8"",""num_scrambled_causal"":""4"",""num_scrambled_schematic"":""4"",""participantId"":""89975035950644E1BA35A6D97BD2CD4F"",""assignmentId"":""3bf5d7fe-45ed-4b50-8642-26c3cf6da58f"",""projectId"":""a9f3d40c-5730-405c-b25e-1034c4c56f3f""}","https://test12345.live/?num_scrambled_semantic=8&num_scrambled_causal=4&num_scrambled_schematic=4&participantId=89975035950644E1BA35A6D97BD2CD4F&assignmentId=3bf5d7fe-45ed-4b50-8642-26c3cf6da58f&projectId=a9f3d40c-5730-405c-b25e-1034c4c56f3f","89975035950644E1BA35A6D97BD2CD4F-2025-08-07-19-22-45","","null","","[]","null","",""
"","","","","","image-button-response","15","160356","0.0-6.0-1.0-0.2","89975035950644E1BA35A6D97BD2CD4F","89975035950644E1BA35A6D97BD2CD4F","3bf5d7fe-45ed-4b50-8642-26c3cf6da58f","a9f3d40c-5730-405c-b25e-1034c4c56f3f","{""num_scrambled_semantic"":""8"",""num_scrambled_causal"":""4"",""num_scrambled_schematic"":""4"",""participantId"":""89975035950644E1BA35A6D97BD2CD4F"",""assignmentId"":""3bf5d7fe-45ed-4b50-8642-26c3cf6da58f"",""projectId"":""a9f3d40c-5730-405c-b25e-1034c4c56f3f""}","https://test12345.live/?num_scrambled_semantic=8&num_scrambled_causal=4&num_scrambled_schematic=4&participantId=89975035950644E1BA35A6D97BD2CD4F&assignmentId=3bf5d7fe-45ed-4b50-8642-26c3cf6da58f&projectId=a9f3d40c-5730-405c-b25e-1034c4c56f3f","89975035950644E1BA35A6D97BD2CD4F-2025-08-07-19-22-45","","null","","images/instructions/movie_3.png","null","",""
"","","","","","image-button-response","16","161599","0.0-6.0-1.0-1.2","89975035950644E1BA35A6D97BD2CD4F","89975035950644E1BA35A6D97BD2CD4F","3bf5d7fe-45ed-4b50-8642-26c3cf6da58f","a9f3d40c-5730-405c-b25e-1034c4c56f3f","{""num_scrambled_semantic"":""8"",""num_scrambled_causal"":""4"",""num_scrambled_schematic"":""4"",""participantId"":""89975035950644E1BA35A6D97BD2CD4F"",""assignmentId"":""3bf5d7fe-45ed-4b50-8642-26c3cf6da58f"",""projectId"":""a9f3d40c-5730-405c-b25e-1034c4c56f3f""}","https://test12345.live/?num_scrambled_semantic=8&num_scrambled_causal=4&num_scrambled_schematic=4&participantId=89975035950644E1BA35A6D97BD2CD4F&assignmentId=3bf5d7fe-45ed-4b50-8642-26c3cf6da58f&projectId=a9f3d40c-5730-405c-b25e-1034c4c56f3f","89975035950644E1BA35A6D97BD2CD4F-2025-08-07-19-22-45","","1242","","images/instructions/movie_3.png","0","",""
"","","","","","image-button-response","17","163403","0.0-6.0-1.0-2.2","89975035950644E1BA35A6D97BD2CD4F","89975035950644E1BA35A6D97BD2CD4F","3bf5d7fe-45ed-4b50-8642-26c3cf6da58f","a9f3d40c-5730-405c-b25e-1034c4c56f3f","{""num_scrambled_semantic"":""8"",""num_scrambled_causal"":""4"",""num_scrambled_schematic"":""4"",""participantId"":""89975035950644E1BA35A6D97BD2CD4F"",""assignmentId"":""3bf5d7fe-45ed-4b50-8642-26c3cf6da58f"",""projectId"":""a9f3d40c-5730-405c-b25e-1034c4c56f3f""}","https://test12345.live/?num_scrambled_semantic=8&num_scrambled_causal=4&num_scrambled_schematic=4&participantId=89975035950644E1BA35A6D97BD2CD4F&assignmentId=3bf5d7fe-45ed-4b50-8642-26c3cf6da58f&projectId=a9f3d40c-5730-405c-b25e-1034c4c56f3f","89975035950644E1BA35A6D97BD2CD4F-2025-08-07-19-22-45","","null","","[]","null","",""
"","","","","","image-button-response","18","167919","0.0-6.0-1.0-0.3","89975035950644E1BA35A6D97BD2CD4F","89975035950644E1BA35A6D97BD2CD4F","3bf5d7fe-45ed-4b50-8642-26c3cf6da58f","a9f3d40c-5730-405c-b25e-1034c4c56f3f","{""num_scrambled_semantic"":""8"",""num_scrambled_causal"":""4"",""num_scrambled_schematic"":""4"",""participantId"":""89975035950644E1BA35A6D97BD2CD4F"",""assignmentId"":""3bf5d7fe-45ed-4b50-8642-26c3cf6da58f"",""projectId"":""a9f3d40c-5730-405c-b25e-1034c4c56f3f""}","https://test12345.live/?num_scrambled_semantic=8&num_scrambled_causal=4&num_scrambled_schematic=4&participantId=89975035950644E1BA35A6D97BD2CD4F&assignmentId=3bf5d7fe-45ed-4b50-8642-26c3cf6da58f&projectId=a9f3d40c-5730-405c-b25e-1034c4c56f3f","89975035950644E1BA35A6D97BD2CD4F-2025-08-07-19-22-45","","null","","images/instructions/movie_4.png","null","",""
"","","","","","image-button-response","19","169313","0.0-6.0-1.0-1.3","89975035950644E1BA35A6D97BD2CD4F","89975035950644E1BA35A6D97BD2CD4F","3bf5d7fe-45ed-4b50-8642-26c3cf6da58f","a9f3d40c-5730-405c-b25e-1034c4c56f3f","{""num_scrambled_semantic"":""8"",""num_scrambled_causal"":""4"",""num_scrambled_schematic"":""4"",""participantId"":""89975035950644E1BA35A6D97BD2CD4F"",""assignmentId"":""3bf5d7fe-45ed-4b50-8642-26c3cf6da58f"",""projectId"":""a9f3d40c-5730-405c-b25e-1034c4c56f3f""}","https://test12345.live/?num_scrambled_semantic=8&num_scrambled_causal=4&num_scrambled_schematic=4&participantId=89975035950644E1BA35A6D97BD2CD4F&assignmentId=3bf5d7fe-45ed-4b50-8642-26c3cf6da58f&projectId=a9f3d40c-5730-405c-b25e-1034c4c56f3f","89975035950644E1BA35A6D97BD2CD4F-2025-08-07-19-22-45","","1393","","images/instructions/movie_4.png","0","",""
"","","","","","image-button-response","20","171114","0.0-6.0-1.0-2.3","89975035950644E1BA35A6D97BD2CD4F","89975035950644E1BA35A6D97BD2CD4F","3bf5d7fe-45ed-4b50-8642-26c3cf6da58f","a9f3d40c-5730-405c-b25e-1034c4c56f3f","{""num_scrambled_semantic"":""8"",""num_scrambled_causal"":""4"",""num_scrambled_schematic"":""4"",""participantId"":""89975035950644E1BA35A6D97BD2CD4F"",""assignmentId"":""3bf5d7fe-45ed-4b50-8642-26c3cf6da58f"",""projectId"":""a9f3d40c-5730-405c-b25e-1034c4c56f3f""}","https://test12345.live/?num_scrambled_semantic=8&num_scrambled_causal=4&num_scrambled_schematic=4&participantId=89975035950644E1BA35A6D97BD2CD4F&assignmentId=3bf5d7fe-45ed-4b50-8642-26c3cf6da58f&projectId=a9f3d40c-5730-405c-b25e-1034c4c56f3f","89975035950644E1BA35A6D97BD2CD4F-2025-08-07-19-22-45","","null","","[]","null","",""
"","","","","","instructions","21","183523","0.0-7.0","89975035950644E1BA35A6D97BD2CD4F","89975035950644E1BA35A6D97BD2CD4F","3bf5d7fe-45ed-4b50-8642-26c3cf6da58f","a9f3d40c-5730-405c-b25e-1034c4c56f3f","{""num_scrambled_semantic"":""8"",""num_scrambled_causal"":""4"",""num_scrambled_schematic"":""4"",""participantId"":""89975035950644E1BA35A6D97BD2CD4F"",""assignmentId"":""3bf5d7fe-45ed-4b50-8642-26c3cf6da58f"",""projectId"":""a9f3d40c-5730-405c-b25e-1034c4c56f3f""}","https://test12345.live/?num_scrambled_semantic=8&num_scrambled_causal=4&num_scrambled_schematic=4&participantId=89975035950644E1BA35A6D97BD2CD4F&assignmentId=3bf5d7fe-45ed-4b50-8642-26c3cf6da58f&projectId=a9f3d40c-5730-405c-b25e-1034c4c56f3f","89975035950644E1BA35A6D97BD2CD4F-2025-08-07-19-22-45","[{""page_index"":0,""viewing_time"":11086},{""page_index"":1,""viewing_time"":1323}]","12408","","","","",""
"","","","","","html-audio-response","22","327477","0.0-8.0","89975035950644E1BA35A6D97BD2CD4F","89975035950644E1BA35A6D97BD2CD4F","3bf5d7fe-45ed-4b50-8642-26c3cf6da58f","a9f3d40c-5730-405c-b25e-1034c4c56f3f","{""num_scrambled_semantic"":""8"",""num_scrambled_causal"":""4"",""num_scrambled_schematic"":""4"",""participantId"":""89975035950644E1BA35A6D97BD2CD4F"",""assignmentId"":""3bf5d7fe-45ed-4b50-8642-26c3cf6da58f"",""projectId"":""a9f3d40c-5730-405c-b25e-1034c4c56f3f""}","https://test12345.live/?num_scrambled_semantic=8&num_scrambled_causal=4&num_scrambled_schematic=4&participantId=89975035950644E1BA35A6D97BD2CD4F&assignmentId=3bf5d7fe-45ed-4b50-8642-26c3cf6da58f&projectId=a9f3d40c-5730-405c-b25e-1034c4c56f3f","89975035950644E1BA35A6D97BD2CD4F-2025-08-07-19-22-45","","9783","","[""<span style=\""color: red; font-size: 24px\""> NOW RECORDING</span><p>Please say out loud all the images you saw, as many as you can remember. The images can be said in any order.</p>""]","","2",""
"","","","","","instructions","23","333373","0.0-9.0","89975035950644E1BA35A6D97BD2CD4F","89975035950644E1BA35A6D97BD2CD4F","3bf5d7fe-45ed-4b50-8642-26c3cf6da58f","a9f3d40c-5730-405c-b25e-1034c4c56f3f","{""num_scrambled_semantic"":""8"",""num_scrambled_causal"":""4"",""num_scrambled_schematic"":""4"",""participantId"":""89975035950644E1BA35A6D97BD2CD4F"",""assignmentId"":""3bf5d7fe-45ed-4b50-8642-26c3cf6da58f"",""projectId"":""a9f3d40c-5730-405c-b25e-1034c4c56f3f""}","https://test12345.live/?num_scrambled_semantic=8&num_scrambled_causal=4&num_scrambled_schematic=4&participantId=89975035950644E1BA35A6D97BD2CD4F&assignmentId=3bf5d7fe-45ed-4b50-8642-26c3cf6da58f&projectId=a9f3d40c-5730-405c-b25e-1034c4c56f3f","89975035950644E1BA35A6D97BD2CD4F-2025-08-07-19-22-45","[{""page_index"":0,""viewing_time"":5893}]","5893","","","","",""
"","","","","","image-button-response","24","339377","0.0-10.0-0.0","89975035950644E1BA35A6D97BD2CD4F","89975035950644E1BA35A6D97BD2CD4F","3bf5d7fe-45ed-4b50-8642-26c3cf6da58f","a9f3d40c-5730-405c-b25e-1034c4c56f3f","{""num_scrambled_semantic"":""8"",""num_scrambled_causal"":""4"",""num_scrambled_schematic"":""4"",""participantId"":""89975035950644E1BA35A6D97BD2CD4F"",""assignmentId"":""3bf5d7fe-45ed-4b50-8642-26c3cf6da58f"",""projectId"":""a9f3d40c-5730-405c-b25e-1034c4c56f3f""}","https://test12345.live/?num_scrambled_semantic=8&num_scrambled_causal=4&num_scrambled_schematic=4&participantId=89975035950644E1BA35A6D97BD2CD4F&assignmentId=3bf5d7fe-45ed-4b50-8642-26c3cf6da58f&projectId=a9f3d40c-5730-405c-b25e-1034c4c56f3f","89975035950644E1BA35A6D97BD2CD4F-2025-08-07-19-22-45","","null","","images/semantic_sequence/creative_activities_semantic/creative_activities_semantic_0.png","null","",""
"","","","","","image-button-response","25","343889","0.0-10.0-1.0-0.0","89975035950644E1BA35A6D97BD2CD4F","89975035950644E1BA35A6D97BD2CD4F","3bf5d7fe-45ed-4b50-8642-26c3cf6da58f","a9f3d40c-5730-405c-b25e-1034c4c56f3f","{""num_scrambled_semantic"":""8"",""num_scrambled_causal"":""4"",""num_scrambled_schematic"":""4"",""participantId"":""89975035950644E1BA35A6D97BD2CD4F"",""assignmentId"":""3bf5d7fe-45ed-4b50-8642-26c3cf6da58f"",""projectId"":""a9f3d40c-5730-405c-b25e-1034c4c56f3f""}","https://test12345.live/?num_scrambled_semantic=8&num_scrambled_causal=4&num_scrambled_schematic=4&participantId=89975035950644E1BA35A6D97BD2CD4F&assignmentId=3bf5d7fe-45ed-4b50-8642-26c3cf6da58f&projectId=a9f3d40c-5730-405c-b25e-1034c4c56f3f","89975035950644E1BA35A6D97BD2CD4F-2025-08-07-19-22-45","","null","","images/semantic_sequence/creative_activities_semantic/creative_activities_semantic_7.png","null","",""
"","","","","","image-button-response","26","345457","0.0-10.0-1.0-1.0","89975035950644E1BA35A6D97BD2CD4F","89975035950644E1BA35A6D97BD2CD4F","3bf5d7fe-45ed-4b50-8642-26c3cf6da58f","a9f3d40c-5730-405c-b25e-1034c4c56f3f","{""num_scrambled_semantic"":""8"",""num_scrambled_causal"":""4"",""num_scrambled_schematic"":""4"",""participantId"":""89975035950644E1BA35A6D97BD2CD4F"",""assignmentId"":""3bf5d7fe-45ed-4b50-8642-26c3cf6da58f"",""projectId"":""a9f3d40c-5730-405c-b25e-1034c4c56f3f""}","https://test12345.live/?num_scrambled_semantic=8&num_scrambled_causal=4&num_scrambled_schematic=4&participantId=89975035950644E1BA35A6D97BD2CD4F&assignmentId=3bf5d7fe-45ed-4b50-8642-26c3cf6da58f&projectId=a9f3d40c-5730-405c-b25e-1034c4c56f3f","89975035950644E1BA35A6D97BD2CD4F-2025-08-07-19-22-45","","1567","","images/semantic_sequence/creative_activities_semantic/creative_activities_semantic_7.png","0","",""
"","","","","","image-button-response","27","347259","0.0-10.0-1.0-2.0","89975035950644E1BA35A6D97BD2CD4F","89975035950644E1BA35A6D97BD2CD4F","3bf5d7fe-45ed-4b50-8642-26c3cf6da58f","a9f3d40c-5730-405c-b25e-1034c4c56f3f","{""num_scrambled_semantic"":""8"",""num_scrambled_causal"":""4"",""num_scrambled_schematic"":""4"",""participantId"":""89975035950644E1BA35A6D97BD2CD4F"",""assignmentId"":""3bf5d7fe-45ed-4b50-8642-26c3cf6da58f"",""projectId"":""a9f3d40c-5730-405c-b25e-1034c4c56f3f""}","https://test12345.live/?num_scrambled_semantic=8&num_scrambled_causal=4&num_scrambled_schematic=4&participantId=89975035950644E1BA35A6D97BD2CD4F&assignmentId=3bf5d7fe-45ed-4b50-8642-26c3cf6da58f&projectId=a9f3d40c-5730-405c-b25e-1034c4c56f3f","89975035950644E1BA35A6D97BD2CD4F-2025-08-07-19-22-45","","null","","[]","null","",""
"","","","","","image-button-response","28","351769","0.0-10.0-1.0-0.1","89975035950644E1BA35A6D97BD2CD4F","89975035950644E1BA35A6D97BD2CD4F","3bf5d7fe-45ed-4b50-8642-26c3cf6da58f","a9f3d40c-5730-405c-b25e-1034c4c56f3f","{""num_scrambled_semantic"":""8"",""num_scrambled_causal"":""4"",""num_scrambled_schematic"":""4"",""participantId"":""89975035950644E1BA35A6D97BD2CD4F"",""assignmentId"":""3bf5d7fe-45ed-4b50-8642-26c3cf6da58f"",""projectId"":""a9f3d40c-5730-405c-b25e-1034c4c56f3f""}","https://test12345.live/?num_scrambled_semantic=8&num_scrambled_causal=4&num_scrambled_schematic=4&participantId=89975035950644E1BA35A6D97BD2CD4F&assignmentId=3bf5d7fe-45ed-4b50-8642-26c3cf6da58f&projectId=a9f3d40c-5730-405c-b25e-1034c4c56f3f","89975035950644E1BA35A6D97BD2CD4F-2025-08-07-19-22-45","","null","","images/semantic_sequence/creative_activities_semantic/creative_activities_semantic_5.png","null","",""
"","","","","","image-button-response","29","355195","0.0-10.0-1.0-1.1","89975035950644E1BA35A6D97BD2CD4F","89975035950644E1BA35A6D97BD2CD4F","3bf5d7fe-45ed-4b50-8642-26c3cf6da58f","a9f3d40c-5730-405c-b25e-1034c4c56f3f","{""num_scrambled_semantic"":""8"",""num_scrambled_causal"":""4"",""num_scrambled_schematic"":""4"",""participantId"":""89975035950644E1BA35A6D97BD2CD4F"",""assignmentId"":""3bf5d7fe-45ed-4b50-8642-26c3cf6da58f"",""projectId"":""a9f3d40c-5730-405c-b25e-1034c4c56f3f""}","https://test12345.live/?num_scrambled_semantic=8&num_scrambled_causal=4&num_scrambled_schematic=4&participantId=89975035950644E1BA35A6D97BD2CD4F&assignmentId=3bf5d7fe-45ed-4b50-8642-26c3cf6da58f&projectId=a9f3d40c-5730-405c-b25e-1034c4c56f3f","89975035950644E1BA35A6D97BD2CD4F-2025-08-07-19-22-45","","3425","","images/semantic_sequence/creative_activities_semantic/creative_activities_semantic_5.png","0","",""
"","","","","","image-button-response","30","356998","0.0-10.0-1.0-2.1","89975035950644E1BA35A6D97BD2CD4F","89975035950644E1BA35A6D97BD2CD4F","3bf5d7fe-45ed-4b50-8642-26c3cf6da58f","a9f3d40c-5730-405c-b25e-1034c4c56f3f","{""num_scrambled_semantic"":""8"",""num_scrambled_causal"":""4"",""num_scrambled_schematic"":""4"",""participantId"":""89975035950644E1BA35A6D97BD2CD4F"",""assignmentId"":""3bf5d7fe-45ed-4b50-8642-26c3cf6da58f"",""projectId"":""a9f3d40c-5730-405c-b25e-1034c4c56f3f""}","https://test12345.live/?num_scrambled_semantic=8&num_scrambled_causal=4&num_scrambled_schematic=4&participantId=89975035950644E1BA35A6D97BD2CD4F&assignmentId=3bf5d7fe-45ed-4b50-8642-26c3cf6da58f&projectId=a9f3d40c-5730-405c-b25e-1034c4c56f3f","89975035950644E1BA35A6D97BD2CD4F-2025-08-07-19-22-45","","null","","[]","null","",""
"","","","","","image-button-response","31","361510","0.0-10.0-1.0-0.2","89975035950644E1BA35A6D97BD2CD4F","89975035950644E1BA35A6D97BD2CD4F","3bf5d7fe-45ed-4b50-8642-26c3cf6da58f","a9f3d40c-5730-405c-b25e-1034c4c56f3f","{""num_scrambled_semantic"":""8"",""num_scrambled_causal"":""4"",""num_scrambled_schematic"":""4"",""participantId"":""89975035950644E1BA35A6D97BD2CD4F"",""assignmentId"":""3bf5d7fe-45ed-4b50-8642-26c3cf6da58f"",""projectId"":""a9f3d40c-5730-405c-b25e-1034c4c56f3f""}","https://test12345.live/?num_scrambled_semantic=8&num_scrambled_causal=4&num_scrambled_schematic=4&participantId=89975035950644E1BA35A6D97BD2CD4F&assignmentId=3bf5d7fe-45ed-4b50-8642-26c3cf6da58f&projectId=a9f3d40c-5730-405c-b25e-1034c4c56f3f","89975035950644E1BA35A6D97BD2CD4F-2025-08-07-19-22-45","","null","","images/semantic_sequence/creative_activities_semantic/creative_activities_semantic_8.png","null","",""
"","","","","","image-button-response","32","364207","0.0-10.0-1.0-1.2","89975035950644E1BA35A6D97BD2CD4F","89975035950644E1BA35A6D97BD2CD4F","3bf5d7fe-45ed-4b50-8642-26c3cf6da58f","a9f3d40c-5730-405c-b25e-1034c4c56f3f","{""num_scrambled_semantic"":""8"",""num_scrambled_causal"":""4"",""num_scrambled_schematic"":""4"",""participantId"":""89975035950644E1BA35A6D97BD2CD4F"",""assignmentId"":""3bf5d7fe-45ed-4b50-8642-26c3cf6da58f"",""projectId"":""a9f3d40c-5730-405c-b25e-1034c4c56f3f""}","https://test12345.live/?num_scrambled_semantic=8&num_scrambled_causal=4&num_scrambled_schematic=4&participantId=89975035950644E1BA35A6D97BD2CD4F&assignmentId=3bf5d7fe-45ed-4b50-8642-26c3cf6da58f&projectId=a9f3d40c-5730-405c-b25e-1034c4c56f3f","89975035950644E1BA35A6D97BD2CD4F-2025-08-07-19-22-45","","2696","","images/semantic_sequence/creative_activities_semantic/creative_activities_semantic_8.png","0","",""
"","","","","","image-button-response","33","366011","0.0-10.0-1.0-2.2","89975035950644E1BA35A6D97BD2CD4F","89975035950644E1BA35A6D97BD2CD4F","3bf5d7fe-45ed-4b50-8642-26c3cf6da58f","a9f3d40c-5730-405c-b25e-1034c4c56f3f","{""num_scrambled_semantic"":""8"",""num_scrambled_causal"":""4"",""num_scrambled_schematic"":""4"",""participantId"":""89975035950644E1BA35A6D97BD2CD4F"",""assignmentId"":""3bf5d7fe-45ed-4b50-8642-26c3cf6da58f"",""projectId"":""a9f3d40c-5730-405c-b25e-1034c4c56f3f""}","https://test12345.live/?num_scrambled_semantic=8&num_scrambled_causal=4&num_scrambled_schematic=4&participantId=89975035950644E1BA35A6D97BD2CD4F&assignmentId=3bf5d7fe-45ed-4b50-8642-26c3cf6da58f&projectId=a9f3d40c-5730-405c-b25e-1034c4c56f3f","89975035950644E1BA35A6D97BD2CD4F-2025-08-07-19-22-45","","null","","[]","null","",""
"","","","","","image-button-response","34","370517","0.0-10.0-1.0-0.3","89975035950644E1BA35A6D97BD2CD4F","89975035950644E1BA35A6D97BD2CD4F","3bf5d7fe-45ed-4b50-8642-26c3cf6da58f","a9f3d40c-5730-405c-b25e-1034c4c56f3f","{""num_scrambled_semantic"":""8"",""num_scrambled_causal"":""4"",""num_scrambled_schematic"":""4"",""participantId"":""89975035950644E1BA35A6D97BD2CD4F"",""assignmentId"":""3bf5d7fe-45ed-4b50-8642-26c3cf6da58f"",""projectId"":""a9f3d40c-5730-405c-b25e-1034c4c56f3f""}","https://test12345.live/?num_scrambled_semantic=8&num_scrambled_causal=4&num_scrambled_schematic=4&participantId=89975035950644E1BA35A6D97BD2CD4F&assignmentId=3bf5d7fe-45ed-4b50-8642-26c3cf6da58f&projectId=a9f3d40c-5730-405c-b25e-1034c4c56f3f","89975035950644E1BA35A6D97BD2CD4F-2025-08-07-19-22-45","","null","","images/semantic_sequence/creative_activities_semantic/creative_activities_semantic_3.png","null","",""
"","","","","","image-button-response","35","373485","0.0-10.0-1.0-1.3","89975035950644E1BA35A6D97BD2CD4F","89975035950644E1BA35A6D97BD2CD4F","3bf5d7fe-45ed-4b50-8642-26c3cf6da58f","a9f3d40c-5730-405c-b25e-1034c4c56f3f","{""num_scrambled_semantic"":""8"",""num_scrambled_causal"":""4"",""num_scrambled_schematic"":""4"",""participantId"":""89975035950644E1BA35A6D97BD2CD4F"",""assignmentId"":""3bf5d7fe-45ed-4b50-8642-26c3cf6da58f"",""projectId"":""a9f3d40c-5730-405c-b25e-1034c4c56f3f""}","https://test12345.live/?num_scrambled_semantic=8&num_scrambled_causal=4&num_scrambled_schematic=4&participantId=89975035950644E1BA35A6D97BD2CD4F&assignmentId=3bf5d7fe-45ed-4b50-8642-26c3cf6da58f&projectId=a9f3d40c-5730-405c-b25e-1034c4c56f3f","89975035950644E1BA35A6D97BD2CD4F-2025-08-07-19-22-45","","2967","","images/semantic_sequence/creative_activities_semantic/creative_activities_semantic_3.png","0","",""
"","","","","","image-button-response","36","375286","0.0-10.0-1.0-2.3","89975035950644E1BA35A6D97BD2CD4F","89975035950644E1BA35A6D97BD2CD4F","3bf5d7fe-45ed-4b50-8642-26c3cf6da58f","a9f3d40c-5730-405c-b25e-1034c4c56f3f","{""num_scrambled_semantic"":""8"",""num_scrambled_causal"":""4"",""num_scrambled_schematic"":""4"",""participantId"":""89975035950644E1BA35A6D97BD2CD4F"",""assignmentId"":""3bf5d7fe-45ed-4b50-8642-26c3cf6da58f"",""projectId"":""a9f3d40c-5730-405c-b25e-1034c4c56f3f""}","https://test12345.live/?num_scrambled_semantic=8&num_scrambled_causal=4&num_scrambled_schematic=4&participantId=89975035950644E1BA35A6D97BD2CD4F&assignmentId=3bf5d7fe-45ed-4b50-8642-26c3cf6da58f&projectId=a9f3d40c-5730-405c-b25e-1034c4c56f3f","89975035950644E1BA35A6D97BD2CD4F-2025-08-07-19-22-45","","null","","[]","null","",""
"","","","","","image-button-response","37","379803","0.0-10.0-1.0-0.4","89975035950644E1BA35A6D97BD2CD4F","89975035950644E1BA35A6D97BD2CD4F","3bf5d7fe-45ed-4b50-8642-26c3cf6da58f","a9f3d40c-5730-405c-b25e-1034c4c56f3f","{""num_scrambled_semantic"":""8"",""num_scrambled_causal"":""4"",""num_scrambled_schematic"":""4"",""participantId"":""89975035950644E1BA35A6D97BD2CD4F"",""assignmentId"":""3bf5d7fe-45ed-4b50-8642-26c3cf6da58f"",""projectId"":""a9f3d40c-5730-405c-b25e-1034c4c56f3f""}","https://test12345.live/?num_scrambled_semantic=8&num_scrambled_causal=4&num_scrambled_schematic=4&participantId=89975035950644E1BA35A6D97BD2CD4F&assignmentId=3bf5d7fe-45ed-4b50-8642-26c3cf6da58f&projectId=a9f3d40c-5730-405c-b25e-1034c4c56f3f","89975035950644E1BA35A6D97BD2CD4F-2025-08-07-19-22-45","","null","","images/semantic_sequence/creative_activities_semantic/creative_activities_semantic_4.png","null","",""
"","","","","","image-button-response","38","382719","0.0-10.0-1.0-1.4","89975035950644E1BA35A6D97BD2CD4F","89975035950644E1BA35A6D97BD2CD4F","3bf5d7fe-45ed-4b50-8642-26c3cf6da58f","a9f3d40c-5730-405c-b25e-1034c4c56f3f","{""num_scrambled_semantic"":""8"",""num_scrambled_causal"":""4"",""num_scrambled_schematic"":""4"",""participantId"":""89975035950644E1BA35A6D97BD2CD4F"",""assignmentId"":""3bf5d7fe-45ed-4b50-8642-26c3cf6da58f"",""projectId"":""a9f3d40c-5730-405c-b25e-1034c4c56f3f""}","https://test12345.live/?num_scrambled_semantic=8&num_scrambled_causal=4&num_scrambled_schematic=4&participantId=89975035950644E1BA35A6D97BD2CD4F&assignmentId=3bf5d7fe-45ed-4b50-8642-26c3cf6da58f&projectId=a9f3d40c-5730-405c-b25e-1034c4c56f3f","89975035950644E1BA35A6D97BD2CD4F-2025-08-07-19-22-45","","2915","","images/semantic_sequence/creative_activities_semantic/creative_activities_semantic_4.png","0","",""
"","","","","","image-button-response","39","384523","0.0-10.0-1.0-2.4","89975035950644E1BA35A6D97BD2CD4F","89975035950644E1BA35A6D97BD2CD4F","3bf5d7fe-45ed-4b50-8642-26c3cf6da58f","a9f3d40c-5730-405c-b25e-1034c4c56f3f","{""num_scrambled_semantic"":""8"",""num_scrambled_causal"":""4"",""num_scrambled_schematic"":""4"",""participantId"":""89975035950644E1BA35A6D97BD2CD4F"",""assignmentId"":""3bf5d7fe-45ed-4b50-8642-26c3cf6da58f"",""projectId"":""a9f3d40c-5730-405c-b25e-1034c4c56f3f""}","https://test12345.live/?num_scrambled_semantic=8&num_scrambled_causal=4&num_scrambled_schematic=4&participantId=89975035950644E1BA35A6D97BD2CD4F&assignmentId=3bf5d7fe-45ed-4b50-8642-26c3cf6da58f&projectId=a9f3d40c-5730-405c-b25e-1034c4c56f3f","89975035950644E1BA35A6D97BD2CD4F-2025-08-07-19-22-45","","null","","[]","null","",""
"","","","","","image-button-response","40","389035","0.0-10.0-1.0-0.5","89975035950644E1BA35A6D97BD2CD4F","89975035950644E1BA35A6D97BD2CD4F","3bf5d7fe-45ed-4b50-8642-26c3cf6da58f","a9f3d40c-5730-405c-b25e-1034c4c56f3f","{""num_scrambled_semantic"":""8"",""num_scrambled_causal"":""4"",""num_scrambled_schematic"":""4"",""participantId"":""89975035950644E1BA35A6D97BD2CD4F"",""assignmentId"":""3bf5d7fe-45ed-4b50-8642-26c3cf6da58f"",""projectId"":""a9f3d40c-5730-405c-b25e-1034c4c56f3f""}","https://test12345.live/?num_scrambled_semantic=8&num_scrambled_causal=4&num_scrambled_schematic=4&participantId=89975035950644E1BA35A6D97BD2CD4F&assignmentId=3bf5d7fe-45ed-4b50-8642-26c3cf6da58f&projectId=a9f3d40c-5730-405c-b25e-1034c4c56f3f","89975035950644E1BA35A6D97BD2CD4F-2025-08-07-19-22-45","","null","","images/semantic_sequence/creative_activities_semantic/creative_activities_semantic_6.png","null","",""
"","","","","","image-button-response","41","393041","0.0-10.0-1.0-1.5","89975035950644E1BA35A6D97BD2CD4F","89975035950644E1BA35A6D97BD2CD4F","3bf5d7fe-45ed-4b50-8642-26c3cf6da58f","a9f3d40c-5730-405c-b25e-1034c4c56f3f","{""num_scrambled_semantic"":""8"",""num_scrambled_causal"":""4"",""num_scrambled_schematic"":""4"",""participantId"":""89975035950644E1BA35A6D97BD2CD4F"",""assignmentId"":""3bf5d7fe-45ed-4b50-8642-26c3cf6da58f"",""projectId"":""a9f3d40c-5730-405c-b25e-1034c4c56f3f""}","https://test12345.live/?num_scrambled_semantic=8&num_scrambled_causal=4&num_scrambled_schematic=4&participantId=89975035950644E1BA35A6D97BD2CD4F&assignmentId=3bf5d7fe-45ed-4b50-8642-26c3cf6da58f&projectId=a9f3d40c-5730-405c-b25e-1034c4c56f3f","89975035950644E1BA35A6D97BD2CD4F-2025-08-07-19-22-45","","null","","images/semantic_sequence/creative_activities_semantic/creative_activities_semantic_6.png","null","",""
"","","","","","image-button-response","42","394843","0.0-10.0-1.0-2.5","89975035950644E1BA35A6D97BD2CD4F","89975035950644E1BA35A6D97BD2CD4F","3bf5d7fe-45ed-4b50-8642-26c3cf6da58f","a9f3d40c-5730-405c-b25e-1034c4c56f3f","{""num_scrambled_semantic"":""8"",""num_scrambled_causal"":""4"",""num_scrambled_schematic"":""4"",""participantId"":""89975035950644E1BA35A6D97BD2CD4F"",""assignmentId"":""3bf5d7fe-45ed-4b50-8642-26c3cf6da58f"",""projectId"":""a9f3d40c-5730-405c-b25e-1034c4c56f3f""}","https://test12345.live/?num_scrambled_semantic=8&num_scrambled_causal=4&num_scrambled_schematic=4&participantId=89975035950644E1BA35A6D97BD2CD4F&assignmentId=3bf5d7fe-45ed-4b50-8642-26c3cf6da58f&projectId=a9f3d40c-5730-405c-b25e-1034c4c56f3f","89975035950644E1BA35A6D97BD2CD4F-2025-08-07-19-22-45","","null","","[]","null","",""
"","","","","","image-button-response","43","399346","0.0-10.0-1.0-0.6","89975035950644E1BA35A6D97BD2CD4F","89975035950644E1BA35A6D97BD2CD4F","3bf5d7fe-45ed-4b50-8642-26c3cf6da58f","a9f3d40c-5730-405c-b25e-1034c4c56f3f","{""num_scrambled_semantic"":""8"",""num_scrambled_causal"":""4"",""num_scrambled_schematic"":""4"",""participantId"":""89975035950644E1BA35A6D97BD2CD4F"",""assignmentId"":""3bf5d7fe-45ed-4b50-8642-26c3cf6da58f"",""projectId"":""a9f3d40c-5730-405c-b25e-1034c4c56f3f""}","https://test12345.live/?num_scrambled_semantic=8&num_scrambled_causal=4&num_scrambled_schematic=4&participantId=89975035950644E1BA35A6D97BD2CD4F&assignmentId=3bf5d7fe-45ed-4b50-8642-26c3cf6da58f&projectId=a9f3d40c-5730-405c-b25e-1034c4c56f3f","89975035950644E1BA35A6D97BD2CD4F-2025-08-07-19-22-45","","null","","images/semantic_sequence/creative_activities_semantic/creative_activities_semantic_2.png","null","",""
"","","","","","image-button-response","44","400872","0.0-10.0-1.0-1.6","89975035950644E1BA35A6D97BD2CD4F","89975035950644E1BA35A6D97BD2CD4F","3bf5d7fe-45ed-4b50-8642-26c3cf6da58f","a9f3d40c-5730-405c-b25e-1034c4c56f3f","{""num_scrambled_semantic"":""8"",""num_scrambled_causal"":""4"",""num_scrambled_schematic"":""4"",""participantId"":""89975035950644E1BA35A6D97BD2CD4F"",""assignmentId"":""3bf5d7fe-45ed-4b50-8642-26c3cf6da58f"",""projectId"":""a9f3d40c-5730-405c-b25e-1034c4c56f3f""}","https://test12345.live/?num_scrambled_semantic=8&num_scrambled_causal=4&num_scrambled_schematic=4&participantId=89975035950644E1BA35A6D97BD2CD4F&assignmentId=3bf5d7fe-45ed-4b50-8642-26c3cf6da58f&projectId=a9f3d40c-5730-405c-b25e-1034c4c56f3f","89975035950644E1BA35A6D97BD2CD4F-2025-08-07-19-22-45","","1525","","images/semantic_sequence/creative_activities_semantic/creative_activities_semantic_2.png","0","",""
"","","","","","image-button-response","45","402687","0.0-10.0-1.0-2.6","89975035950644E1BA35A6D97BD2CD4F","89975035950644E1BA35A6D97BD2CD4F","3bf5d7fe-45ed-4b50-8642-26c3cf6da58f","a9f3d40c-5730-405c-b25e-1034c4c56f3f","{""num_scrambled_semantic"":""8"",""num_scrambled_causal"":""4"",""num_scrambled_schematic"":""4"",""participantId"":""89975035950644E1BA35A6D97BD2CD4F"",""assignmentId"":""3bf5d7fe-45ed-4b50-8642-26c3cf6da58f"",""projectId"":""a9f3d40c-5730-405c-b25e-1034c4c56f3f""}","https://test12345.live/?num_scrambled_semantic=8&num_scrambled_causal=4&num_scrambled_schematic=4&participantId=89975035950644E1BA35A6D97BD2CD4F&assignmentId=3bf5d7fe-45ed-4b50-8642-26c3cf6da58f&projectId=a9f3d40c-5730-405c-b25e-1034c4c56f3f","89975035950644E1BA35A6D97BD2CD4F-2025-08-07-19-22-45","","null","","[]","null","",""
"","","","","","image-button-response","46","407201","0.0-10.0-1.0-0.7","89975035950644E1BA35A6D97BD2CD4F","89975035950644E1BA35A6D97BD2CD4F","3bf5d7fe-45ed-4b50-8642-26c3cf6da58f","a9f3d40c-5730-405c-b25e-1034c4c56f3f","{""num_scrambled_semantic"":""8"",""num_scrambled_causal"":""4"",""num_scrambled_schematic"":""4"",""participantId"":""89975035950644E1BA35A6D97BD2CD4F"",""assignmentId"":""3bf5d7fe-45ed-4b50-8642-26c3cf6da58f"",""projectId"":""a9f3d40c-5730-405c-b25e-1034c4c56f3f""}","https://test12345.live/?num_scrambled_semantic=8&num_scrambled_causal=4&num_scrambled_schematic=4&participantId=89975035950644E1BA35A6D97BD2CD4F&assignmentId=3bf5d7fe-45ed-4b50-8642-26c3cf6da58f&projectId=a9f3d40c-5730-405c-b25e-1034c4c56f3f","89975035950644E1BA35A6D97BD2CD4F-2025-08-07-19-22-45","","null","","images/semantic_sequence/creative_activities_semantic/creative_activities_semantic_1.png","null","",""
"","","","","","image-button-response","47","409816","0.0-10.0-1.0-1.7","89975035950644E1BA35A6D97BD2CD4F","89975035950644E1BA35A6D97BD2CD4F","3bf5d7fe-45ed-4b50-8642-26c3cf6da58f","a9f3d40c-5730-405c-b25e-1034c4c56f3f","{""num_scrambled_semantic"":""8"",""num_scrambled_causal"":""4"",""num_scrambled_schematic"":""4"",""participantId"":""89975035950644E1BA35A6D97BD2CD4F"",""assignmentId"":""3bf5d7fe-45ed-4b50-8642-26c3cf6da58f"",""projectId"":""a9f3d40c-5730-405c-b25e-1034c4c56f3f""}","https://test12345.live/?num_scrambled_semantic=8&num_scrambled_causal=4&num_scrambled_schematic=4&participantId=89975035950644E1BA35A6D97BD2CD4F&assignmentId=3bf5d7fe-45ed-4b50-8642-26c3cf6da58f&projectId=a9f3d40c-5730-405c-b25e-1034c4c56f3f","89975035950644E1BA35A6D97BD2CD4F-2025-08-07-19-22-45","","2614","","images/semantic_sequence/creative_activities_semantic/creative_activities_semantic_1.png","0","",""
"","","","","","image-button-response","48","411629","0.0-10.0-1.0-2.7","89975035950644E1BA35A6D97BD2CD4F","89975035950644E1BA35A6D97BD2CD4F","3bf5d7fe-45ed-4b50-8642-26c3cf6da58f","a9f3d40c-5730-405c-b25e-1034c4c56f3f","{""num_scrambled_semantic"":""8"",""num_scrambled_causal"":""4"",""num_scrambled_schematic"":""4"",""participantId"":""89975035950644E1BA35A6D97BD2CD4F"",""assignmentId"":""3bf5d7fe-45ed-4b50-8642-26c3cf6da58f"",""projectId"":""a9f3d40c-5730-405c-b25e-1034c4c56f3f""}","https://test12345.live/?num_scrambled_semantic=8&num_scrambled_causal=4&num_scrambled_schematic=4&participantId=89975035950644E1BA35A6D97BD2CD4F&assignmentId=3bf5d7fe-45ed-4b50-8642-26c3cf6da58f&projectId=a9f3d40c-5730-405c-b25e-1034c4c56f3f","89975035950644E1BA35A6D97BD2CD4F-2025-08-07-19-22-45","","null","","[]","null","",""
"","","","","","image-button-response","49","416145","0.0-10.0-1.0-0.8","89975035950644E1BA35A6D97BD2CD4F","89975035950644E1BA35A6D97BD2CD4F","3bf5d7fe-45ed-4b50-8642-26c3cf6da58f","a9f3d40c-5730-405c-b25e-1034c4c56f3f","{""num_scrambled_semantic"":""8"",""num_scrambled_causal"":""4"",""num_scrambled_schematic"":""4"",""participantId"":""89975035950644E1BA35A6D97BD2CD4F"",""assignmentId"":""3bf5d7fe-45ed-4b50-8642-26c3cf6da58f"",""projectId"":""a9f3d40c-5730-405c-b25e-1034c4c56f3f""}","https://test12345.live/?num_scrambled_semantic=8&num_scrambled_causal=4&num_scrambled_schematic=4&participantId=89975035950644E1BA35A6D97BD2CD4F&assignmentId=3bf5d7fe-45ed-4b50-8642-26c3cf6da58f&projectId=a9f3d40c-5730-405c-b25e-1034c4c56f3f","89975035950644E1BA35A6D97BD2CD4F-2025-08-07-19-22-45","","null","","images/semantic_sequence/creative_activities_semantic/creative_activities_semantic_9.png","null","",""
"","","","","","image-button-response","50","418405","0.0-10.0-1.0-1.8","89975035950644E1BA35A6D97BD2CD4F","89975035950644E1BA35A6D97BD2CD4F","3bf5d7fe-45ed-4b50-8642-26c3cf6da58f","a9f3d40c-5730-405c-b25e-1034c4c56f3f","{""num_scrambled_semantic"":""8"",""num_scrambled_causal"":""4"",""num_scrambled_schematic"":""4"",""participantId"":""89975035950644E1BA35A6D97BD2CD4F"",""assignmentId"":""3bf5d7fe-45ed-4b50-8642-26c3cf6da58f"",""projectId"":""a9f3d40c-5730-405c-b25e-1034c4c56f3f""}","https://test12345.live/?num_scrambled_semantic=8&num_scrambled_causal=4&num_scrambled_schematic=4&participantId=89975035950644E1BA35A6D97BD2CD4F&assignmentId=3bf5d7fe-45ed-4b50-8642-26c3cf6da58f&projectId=a9f3d40c-5730-405c-b25e-1034c4c56f3f","89975035950644E1BA35A6D97BD2CD4F-2025-08-07-19-22-45","","2259","","images/semantic_sequence/creative_activities_semantic/creative_activities_semantic_9.png","0","",""
"","","","","","image-button-response","51","420207","0.0-10.0-1.0-2.8","89975035950644E1BA35A6D97BD2CD4F","89975035950644E1BA35A6D97BD2CD4F","3bf5d7fe-45ed-4b50-8642-26c3cf6da58f","a9f3d40c-5730-405c-b25e-1034c4c56f3f","{""num_scrambled_semantic"":""8"",""num_scrambled_causal"":""4"",""num_scrambled_schematic"":""4"",""participantId"":""89975035950644E1BA35A6D97BD2CD4F"",""assignmentId"":""3bf5d7fe-45ed-4b50-8642-26c3cf6da58f"",""projectId"":""a9f3d40c-5730-405c-b25e-1034c4c56f3f""}","https://test12345.live/?num_scrambled_semantic=8&num_scrambled_causal=4&num_scrambled_schematic=4&participantId=89975035950644E1BA35A6D97BD2CD4F&assignmentId=3bf5d7fe-45ed-4b50-8642-26c3cf6da58f&projectId=a9f3d40c-5730-405c-b25e-1034c4c56f3f","89975035950644E1BA35A6D97BD2CD4F-2025-08-07-19-22-45","","null","","[]","null","",""
"","","","","","image-button-response","52","424716","0.0-10.0-1.0-0.9","89975035950644E1BA35A6D97BD2CD4F","89975035950644E1BA35A6D97BD2CD4F","3bf5d7fe-45ed-4b50-8642-26c3cf6da58f","a9f3d40c-5730-405c-b25e-1034c4c56f3f","{""num_scrambled_semantic"":""8"",""num_scrambled_causal"":""4"",""num_scrambled_schematic"":""4"",""participantId"":""89975035950644E1BA35A6D97BD2CD4F"",""assignmentId"":""3bf5d7fe-45ed-4b50-8642-26c3cf6da58f"",""projectId"":""a9f3d40c-5730-405c-b25e-1034c4c56f3f""}","https://test12345.live/?num_scrambled_semantic=8&num_scrambled_causal=4&num_scrambled_schematic=4&participantId=89975035950644E1BA35A6D97BD2CD4F&assignmentId=3bf5d7fe-45ed-4b50-8642-26c3cf6da58f&projectId=a9f3d40c-5730-405c-b25e-1034c4c56f3f","89975035950644E1BA35A6D97BD2CD4F-2025-08-07-19-22-45","","null","","images/semantic_sequence/creative_activities_semantic/creative_activities_semantic_ten.png","null","",""
"","","","","","image-button-response","53","426555","0.0-10.0-1.0-1.9","89975035950644E1BA35A6D97BD2CD4F","89975035950644E1BA35A6D97BD2CD4F","3bf5d7fe-45ed-4b50-8642-26c3cf6da58f","a9f3d40c-5730-405c-b25e-1034c4c56f3f","{""num_scrambled_semantic"":""8"",""num_scrambled_causal"":""4"",""num_scrambled_schematic"":""4"",""participantId"":""89975035950644E1BA35A6D97BD2CD4F"",""assignmentId"":""3bf5d7fe-45ed-4b50-8642-26c3cf6da58f"",""projectId"":""a9f3d40c-5730-405c-b25e-1034c4c56f3f""}","https://test12345.live/?num_scrambled_semantic=8&num_scrambled_causal=4&num_scrambled_schematic=4&participantId=89975035950644E1BA35A6D97BD2CD4F&assignmentId=3bf5d7fe-45ed-4b50-8642-26c3cf6da58f&projectId=a9f3d40c-5730-405c-b25e-1034c4c56f3f","89975035950644E1BA35A6D97BD2CD4F-2025-08-07-19-22-45","","1838","","images/semantic_sequence/creative_activities_semantic/creative_activities_semantic_ten.png","0","",""
"","","","","","image-button-response","54","428362","0.0-10.0-1.0-2.9","89975035950644E1BA35A6D97BD2CD4F","89975035950644E1BA35A6D97BD2CD4F","3bf5d7fe-45ed-4b50-8642-26c3cf6da58f","a9f3d40c-5730-405c-b25e-1034c4c56f3f","{""num_scrambled_semantic"":""8"",""num_scrambled_causal"":""4"",""num_scrambled_schematic"":""4"",""participantId"":""89975035950644E1BA35A6D97BD2CD4F"",""assignmentId"":""3bf5d7fe-45ed-4b50-8642-26c3cf6da58f"",""projectId"":""a9f3d40c-5730-405c-b25e-1034c4c56f3f""}","https://test12345.live/?num_scrambled_semantic=8&num_scrambled_causal=4&num_scrambled_schematic=4&participantId=89975035950644E1BA35A6D97BD2CD4F&assignmentId=3bf5d7fe-45ed-4b50-8642-26c3cf6da58f&projectId=a9f3d40c-5730-405c-b25e-1034c4c56f3f","89975035950644E1BA35A6D97BD2CD4F-2025-08-07-19-22-45","","null","","[]","null","",""
"","","","","","html-audio-response","55","653215","0.0-11.0","89975035950644E1BA35A6D97BD2CD4F","89975035950644E1BA35A6D97BD2CD4F","3bf5d7fe-45ed-4b50-8642-26c3cf6da58f","a9f3d40c-5730-405c-b25e-1034c4c56f3f","{""num_scrambled_semantic"":""8"",""num_scrambled_causal"":""4"",""num_scrambled_schematic"":""4"",""participantId"":""89975035950644E1BA35A6D97BD2CD4F"",""assignmentId"":""3bf5d7fe-45ed-4b50-8642-26c3cf6da58f"",""projectId"":""a9f3d40c-5730-405c-b25e-1034c4c56f3f""}","https://test12345.live/?num_scrambled_semantic=8&num_scrambled_causal=4&num_scrambled_schematic=4&participantId=89975035950644E1BA35A6D97BD2CD4F&assignmentId=3bf5d7fe-45ed-4b50-8642-26c3cf6da58f&projectId=a9f3d40c-5730-405c-b25e-1034c4c56f3f","89975035950644E1BA35A6D97BD2CD4F-2025-08-07-19-22-45","","25104","","[""<span style=\""color: red; font-size: 24px\""> NOW RECORDING</span><p>Please say out loud all the images you saw, as many as you can remember. The images can be said in any order.</p>""]","","13","creative_activities_semantic"
"","","","","","image-button-response","56","659221","0.0-12.0-0.0","89975035950644E1BA35A6D97BD2CD4F","89975035950644E1BA35A6D97BD2CD4F","3bf5d7fe-45ed-4b50-8642-26c3cf6da58f","a9f3d40c-5730-405c-b25e-1034c4c56f3f","{""num_scrambled_semantic"":""8"",""num_scrambled_causal"":""4"",""num_scrambled_schematic"":""4"",""participantId"":""89975035950644E1BA35A6D97BD2CD4F"",""assignmentId"":""3bf5d7fe-45ed-4b50-8642-26c3cf6da58f"",""projectId"":""a9f3d40c-5730-405c-b25e-1034c4c56f3f""}","https://test12345.live/?num_scrambled_semantic=8&num_scrambled_causal=4&num_scrambled_schematic=4&participantId=89975035950644E1BA35A6D97BD2CD4F&assignmentId=3bf5d7fe-45ed-4b50-8642-26c3cf6da58f&projectId=a9f3d40c-5730-405c-b25e-1034c4c56f3f","89975035950644E1BA35A6D97BD2CD4F-2025-08-07-19-22-45","","null","","images/causal_sequence/saving_a_cat_causal/saving_a_cat_causal_0.png","null","",""
"","","","","","image-button-response","57","663733","0.0-12.0-1.0-0.0","89975035950644E1BA35A6D97BD2CD4F","89975035950644E1BA35A6D97BD2CD4F","3bf5d7fe-45ed-4b50-8642-26c3cf6da58f","a9f3d40c-5730-405c-b25e-1034c4c56f3f","{""num_scrambled_semantic"":""8"",""num_scrambled_causal"":""4"",""num_scrambled_schematic"":""4"",""participantId"":""89975035950644E1BA35A6D97BD2CD4F"",""assignmentId"":""3bf5d7fe-45ed-4b50-8642-26c3cf6da58f"",""projectId"":""a9f3d40c-5730-405c-b25e-1034c4c56f3f""}","https://test12345.live/?num_scrambled_semantic=8&num_scrambled_causal=4&num_scrambled_schematic=4&participantId=89975035950644E1BA35A6D97BD2CD4F&assignmentId=3bf5d7fe-45ed-4b50-8642-26c3cf6da58f&projectId=a9f3d40c-5730-405c-b25e-1034c4c56f3f","89975035950644E1BA35A6D97BD2CD4F-2025-08-07-19-22-45","","null","","images/causal_sequence/saving_a_cat_causal/saving_a_cat_causal_8.png","null","",""
"","","","","","image-button-response","58","665857","0.0-12.0-1.0-1.0","89975035950644E1BA35A6D97BD2CD4F","89975035950644E1BA35A6D97BD2CD4F","3bf5d7fe-45ed-4b50-8642-26c3cf6da58f","a9f3d40c-5730-405c-b25e-1034c4c56f3f","{""num_scrambled_semantic"":""8"",""num_scrambled_causal"":""4"",""num_scrambled_schematic"":""4"",""participantId"":""89975035950644E1BA35A6D97BD2CD4F"",""assignmentId"":""3bf5d7fe-45ed-4b50-8642-26c3cf6da58f"",""projectId"":""a9f3d40c-5730-405c-b25e-1034c4c56f3f""}","https://test12345.live/?num_scrambled_semantic=8&num_scrambled_causal=4&num_scrambled_schematic=4&participantId=89975035950644E1BA35A6D97BD2CD4F&assignmentId=3bf5d7fe-45ed-4b50-8642-26c3cf6da58f&projectId=a9f3d40c-5730-405c-b25e-1034c4c56f3f","89975035950644E1BA35A6D97BD2CD4F-2025-08-07-19-22-45","","2123","","images/causal_sequence/saving_a_cat_causal/saving_a_cat_causal_8.png","0","",""
"","","","","","image-button-response","59","667660","0.0-12.0-1.0-2.0","89975035950644E1BA35A6D97BD2CD4F","89975035950644E1BA35A6D97BD2CD4F","3bf5d7fe-45ed-4b50-8642-26c3cf6da58f","a9f3d40c-5730-405c-b25e-1034c4c56f3f","{""num_scrambled_semantic"":""8"",""num_scrambled_causal"":""4"",""num_scrambled_schematic"":""4"",""participantId"":""89975035950644E1BA35A6D97BD2CD4F"",""assignmentId"":""3bf5d7fe-45ed-4b50-8642-26c3cf6da58f"",""projectId"":""a9f3d40c-5730-405c-b25e-1034c4c56f3f""}","https://test12345.live/?num_scrambled_semantic=8&num_scrambled_causal=4&num_scrambled_schematic=4&participantId=89975035950644E1BA35A6D97BD2CD4F&assignmentId=3bf5d7fe-45ed-4b50-8642-26c3cf6da58f&projectId=a9f3d40c-5730-405c-b25e-1034c4c56f3f","89975035950644E1BA35A6D97BD2CD4F-2025-08-07-19-22-45","","null","","[]","null","",""
"","","","","","image-button-response","60","672174","0.0-12.0-1.0-0.1","89975035950644E1BA35A6D97BD2CD4F","89975035950644E1BA35A6D97BD2CD4F","3bf5d7fe-45ed-4b50-8642-26c3cf6da58f","a9f3d40c-5730-405c-b25e-1034c4c56f3f","{""num_scrambled_semantic"":""8"",""num_scrambled_causal"":""4"",""num_scrambled_schematic"":""4"",""participantId"":""89975035950644E1BA35A6D97BD2CD4F"",""assignmentId"":""3bf5d7fe-45ed-4b50-8642-26c3cf6da58f"",""projectId"":""a9f3d40c-5730-405c-b25e-1034c4c56f3f""}","https://test12345.live/?num_scrambled_semantic=8&num_scrambled_causal=4&num_scrambled_schematic=4&participantId=89975035950644E1BA35A6D97BD2CD4F&assignmentId=3bf5d7fe-45ed-4b50-8642-26c3cf6da58f&projectId=a9f3d40c-5730-405c-b25e-1034c4c56f3f","89975035950644E1BA35A6D97BD2CD4F-2025-08-07-19-22-45","","null","","images/causal_sequence/saving_a_cat_causal/saving_a_cat_causal_2.png","null","",""
"","","","","","image-button-response","61","673949","0.0-12.0-1.0-1.1","89975035950644E1BA35A6D97BD2CD4F","89975035950644E1BA35A6D97BD2CD4F","3bf5d7fe-45ed-4b50-8642-26c3cf6da58f","a9f3d40c-5730-405c-b25e-1034c4c56f3f","{""num_scrambled_semantic"":""8"",""num_scrambled_causal"":""4"",""num_scrambled_schematic"":""4"",""participantId"":""89975035950644E1BA35A6D97BD2CD4F"",""assignmentId"":""3bf5d7fe-45ed-4b50-8642-26c3cf6da58f"",""projectId"":""a9f3d40c-5730-405c-b25e-1034c4c56f3f""}","https://test12345.live/?num_scrambled_semantic=8&num_scrambled_causal=4&num_scrambled_schematic=4&participantId=89975035950644E1BA35A6D97BD2CD4F&assignmentId=3bf5d7fe-45ed-4b50-8642-26c3cf6da58f&projectId=a9f3d40c-5730-405c-b25e-1034c4c56f3f","89975035950644E1BA35A6D97BD2CD4F-2025-08-07-19-22-45","","1775","","images/causal_sequence/saving_a_cat_causal/saving_a_cat_causal_2.png","1","",""
"","","","","","image-button-response","62","675765","0.0-12.0-1.0-2.1","89975035950644E1BA35A6D97BD2CD4F","89975035950644E1BA35A6D97BD2CD4F","3bf5d7fe-45ed-4b50-8642-26c3cf6da58f","a9f3d40c-5730-405c-b25e-1034c4c56f3f","{""num_scrambled_semantic"":""8"",""num_scrambled_causal"":""4"",""num_scrambled_schematic"":""4"",""participantId"":""89975035950644E1BA35A6D97BD2CD4F"",""assignmentId"":""3bf5d7fe-45ed-4b50-8642-26c3cf6da58f"",""projectId"":""a9f3d40c-5730-405c-b25e-1034c4c56f3f""}","https://test12345.live/?num_scrambled_semantic=8&num_scrambled_causal=4&num_scrambled_schematic=4&participantId=89975035950644E1BA35A6D97BD2CD4F&assignmentId=3bf5d7fe-45ed-4b50-8642-26c3cf6da58f&projectId=a9f3d40c-5730-405c-b25e-1034c4c56f3f","89975035950644E1BA35A6D97BD2CD4F-2025-08-07-19-22-45","","null","","[]","null","",""
"","","","","","image-button-response","63","680270","0.0-12.0-1.0-0.2","89975035950644E1BA35A6D97BD2CD4F","89975035950644E1BA35A6D97BD2CD4F","3bf5d7fe-45ed-4b50-8642-26c3cf6da58f","a9f3d40c-5730-405c-b25e-1034c4c56f3f","{""num_scrambled_semantic"":""8"",""num_scrambled_causal"":""4"",""num_scrambled_schematic"":""4"",""participantId"":""89975035950644E1BA35A6D97BD2CD4F"",""assignmentId"":""3bf5d7fe-45ed-4b50-8642-26c3cf6da58f"",""projectId"":""a9f3d40c-5730-405c-b25e-1034c4c56f3f""}","https://test12345.live/?num_scrambled_semantic=8&num_scrambled_causal=4&num_scrambled_schematic=4&participantId=89975035950644E1BA35A6D97BD2CD4F&assignmentId=3bf5d7fe-45ed-4b50-8642-26c3cf6da58f&projectId=a9f3d40c-5730-405c-b25e-1034c4c56f3f","89975035950644E1BA35A6D97BD2CD4F-2025-08-07-19-22-45","","null","","images/causal_sequence/saving_a_cat_causal/saving_a_cat_causal_7.png","null","",""
"","","","","","image-button-response","64","682838","0.0-12.0-1.0-1.2","89975035950644E1BA35A6D97BD2CD4F","89975035950644E1BA35A6D97BD2CD4F","3bf5d7fe-45ed-4b50-8642-26c3cf6da58f","a9f3d40c-5730-405c-b25e-1034c4c56f3f","{""num_scrambled_semantic"":""8"",""num_scrambled_causal"":""4"",""num_scrambled_schematic"":""4"",""participantId"":""89975035950644E1BA35A6D97BD2CD4F"",""assignmentId"":""3bf5d7fe-45ed-4b50-8642-26c3cf6da58f"",""projectId"":""a9f3d40c-5730-405c-b25e-1034c4c56f3f""}","https://test12345.live/?num_scrambled_semantic=8&num_scrambled_causal=4&num_scrambled_schematic=4&participantId=89975035950644E1BA35A6D97BD2CD4F&assignmentId=3bf5d7fe-45ed-4b50-8642-26c3cf6da58f&projectId=a9f3d40c-5730-405c-b25e-1034c4c56f3f","89975035950644E1BA35A6D97BD2CD4F-2025-08-07-19-22-45","","2567","","images/causal_sequence/saving_a_cat_causal/saving_a_cat_causal_7.png","0","",""
"","","","","","image-button-response","65","684643","0.0-12.0-1.0-2.2","89975035950644E1BA35A6D97BD2CD4F","89975035950644E1BA35A6D97BD2CD4F","3bf5d7fe-45ed-4b50-8642-26c3cf6da58f","a9f3d40c-5730-405c-b25e-1034c4c56f3f","{""num_scrambled_semantic"":""8"",""num_scrambled_causal"":""4"",""num_scrambled_schematic"":""4"",""participantId"":""89975035950644E1BA35A6D97BD2CD4F"",""assignmentId"":""3bf5d7fe-45ed-4b50-8642-26c3cf6da58f"",""projectId"":""a9f3d40c-5730-405c-b25e-1034c4c56f3f""}","https://test12345.live/?num_scrambled_semantic=8&num_scrambled_causal=4&num_scrambled_schematic=4&participantId=89975035950644E1BA35A6D97BD2CD4F&assignmentId=3bf5d7fe-45ed-4b50-8642-26c3cf6da58f&projectId=a9f3d40c-5730-405c-b25e-1034c4c56f3f","89975035950644E1BA35A6D97BD2CD4F-2025-08-07-19-22-45","","null","","[]","null","",""
"","","","","","image-button-response","66","689153","0.0-12.0-1.0-0.3","89975035950644E1BA35A6D97BD2CD4F","89975035950644E1BA35A6D97BD2CD4F","3bf5d7fe-45ed-4b50-8642-26c3cf6da58f","a9f3d40c-5730-405c-b25e-1034c4c56f3f","{""num_scrambled_semantic"":""8"",""num_scrambled_causal"":""4"",""num_scrambled_schematic"":""4"",""participantId"":""89975035950644E1BA35A6D97BD2CD4F"",""assignmentId"":""3bf5d7fe-45ed-4b50-8642-26c3cf6da58f"",""projectId"":""a9f3d40c-5730-405c-b25e-1034c4c56f3f""}","https://test12345.live/?num_scrambled_semantic=8&num_scrambled_causal=4&num_scrambled_schematic=4&participantId=89975035950644E1BA35A6D97BD2CD4F&assignmentId=3bf5d7fe-45ed-4b50-8642-26c3cf6da58f&projectId=a9f3d40c-5730-405c-b25e-1034c4c56f3f","89975035950644E1BA35A6D97BD2CD4F-2025-08-07-19-22-45","","null","","images/causal_sequence/saving_a_cat_causal/saving_a_cat_causal_6.png","null","",""
"","","","","","image-button-response","67","691422","0.0-12.0-1.0-1.3","89975035950644E1BA35A6D97BD2CD4F","89975035950644E1BA35A6D97BD2CD4F","3bf5d7fe-45ed-4b50-8642-26c3cf6da58f","a9f3d40c-5730-405c-b25e-1034c4c56f3f","{""num_scrambled_semantic"":""8"",""num_scrambled_causal"":""4"",""num_scrambled_schematic"":""4"",""participantId"":""89975035950644E1BA35A6D97BD2CD4F"",""assignmentId"":""3bf5d7fe-45ed-4b50-8642-26c3cf6da58f"",""projectId"":""a9f3d40c-5730-405c-b25e-1034c4c56f3f""}","https://test12345.live/?num_scrambled_semantic=8&num_scrambled_causal=4&num_scrambled_schematic=4&participantId=89975035950644E1BA35A6D97BD2CD4F&assignmentId=3bf5d7fe-45ed-4b50-8642-26c3cf6da58f&projectId=a9f3d40c-5730-405c-b25e-1034c4c56f3f","89975035950644E1BA35A6D97BD2CD4F-2025-08-07-19-22-45","","2268","","images/causal_sequence/saving_a_cat_causal/saving_a_cat_causal_6.png","0","",""
"","","","","","image-button-response","68","693229","0.0-12.0-1.0-2.3","89975035950644E1BA35A6D97BD2CD4F","89975035950644E1BA35A6D97BD2CD4F","3bf5d7fe-45ed-4b50-8642-26c3cf6da58f","a9f3d40c-5730-405c-b25e-1034c4c56f3f","{""num_scrambled_semantic"":""8"",""num_scrambled_causal"":""4"",""num_scrambled_schematic"":""4"",""participantId"":""89975035950644E1BA35A6D97BD2CD4F"",""assignmentId"":""3bf5d7fe-45ed-4b50-8642-26c3cf6da58f"",""projectId"":""a9f3d40c-5730-405c-b25e-1034c4c56f3f""}","https://test12345.live/?num_scrambled_semantic=8&num_scrambled_causal=4&num_scrambled_schematic=4&participantId=89975035950644E1BA35A6D97BD2CD4F&assignmentId=3bf5d7fe-45ed-4b50-8642-26c3cf6da58f&projectId=a9f3d40c-5730-405c-b25e-1034c4c56f3f","89975035950644E1BA35A6D97BD2CD4F-2025-08-07-19-22-45","","null","","[]","null","",""
"","","","","","image-button-response","69","697745","0.0-12.0-1.0-0.4","89975035950644E1BA35A6D97BD2CD4F","89975035950644E1BA35A6D97BD2CD4F","3bf5d7fe-45ed-4b50-8642-26c3cf6da58f","a9f3d40c-5730-405c-b25e-1034c4c56f3f","{""num_scrambled_semantic"":""8"",""num_scrambled_causal"":""4"",""num_scrambled_schematic"":""4"",""participantId"":""89975035950644E1BA35A6D97BD2CD4F"",""assignmentId"":""3bf5d7fe-45ed-4b50-8642-26c3cf6da58f"",""projectId"":""a9f3d40c-5730-405c-b25e-1034c4c56f3f""}","https://test12345.live/?num_scrambled_semantic=8&num_scrambled_causal=4&num_scrambled_schematic=4&participantId=89975035950644E1BA35A6D97BD2CD4F&assignmentId=3bf5d7fe-45ed-4b50-8642-26c3cf6da58f&projectId=a9f3d40c-5730-405c-b25e-1034c4c56f3f","89975035950644E1BA35A6D97BD2CD4F-2025-08-07-19-22-45","","null","","images/causal_sequence/saving_a_cat_causal/saving_a_cat_causal_4.png","null","",""
"","","","","","image-button-response","70","699125","0.0-12.0-1.0-1.4","89975035950644E1BA35A6D97BD2CD4F","89975035950644E1BA35A6D97BD2CD4F","3bf5d7fe-45ed-4b50-8642-26c3cf6da58f","a9f3d40c-5730-405c-b25e-1034c4c56f3f","{""num_scrambled_semantic"":""8"",""num_scrambled_causal"":""4"",""num_scrambled_schematic"":""4"",""participantId"":""89975035950644E1BA35A6D97BD2CD4F"",""assignmentId"":""3bf5d7fe-45ed-4b50-8642-26c3cf6da58f"",""projectId"":""a9f3d40c-5730-405c-b25e-1034c4c56f3f""}","https://test12345.live/?num_scrambled_semantic=8&num_scrambled_causal=4&num_scrambled_schematic=4&participantId=89975035950644E1BA35A6D97BD2CD4F&assignmentId=3bf5d7fe-45ed-4b50-8642-26c3cf6da58f&projectId=a9f3d40c-5730-405c-b25e-1034c4c56f3f","89975035950644E1BA35A6D97BD2CD4F-2025-08-07-19-22-45","","1379","","images/causal_sequence/saving_a_cat_causal/saving_a_cat_causal_4.png","0","",""
"","","","","","image-button-response","71","700931","0.0-12.0-1.0-2.4","89975035950644E1BA35A6D97BD2CD4F","89975035950644E1BA35A6D97BD2CD4F","3bf5d7fe-45ed-4b50-8642-26c3cf6da58f","a9f3d40c-5730-405c-b25e-1034c4c56f3f","{""num_scrambled_semantic"":""8"",""num_scrambled_causal"":""4"",""num_scrambled_schematic"":""4"",""participantId"":""89975035950644E1BA35A6D97BD2CD4F"",""assignmentId"":""3bf5d7fe-45ed-4b50-8642-26c3cf6da58f"",""projectId"":""a9f3d40c-5730-405c-b25e-1034c4c56f3f""}","https://test12345.live/?num_scrambled_semantic=8&num_scrambled_causal=4&num_scrambled_schematic=4&participantId=89975035950644E1BA35A6D97BD2CD4F&assignmentId=3bf5d7fe-45ed-4b50-8642-26c3cf6da58f&projectId=a9f3d40c-5730-405c-b25e-1034c4c56f3f","89975035950644E1BA35A6D97BD2CD4F-2025-08-07-19-22-45","","null","","[]","null","",""
"","","","","","image-button-response","72","705443","0.0-12.0-1.0-0.5","89975035950644E1BA35A6D97BD2CD4F","89975035950644E1BA35A6D97BD2CD4F","3bf5d7fe-45ed-4b50-8642-26c3cf6da58f","a9f3d40c-5730-405c-b25e-1034c4c56f3f","{""num_scrambled_semantic"":""8"",""num_scrambled_causal"":""4"",""num_scrambled_schematic"":""4"",""participantId"":""89975035950644E1BA35A6D97BD2CD4F"",""assignmentId"":""3bf5d7fe-45ed-4b50-8642-26c3cf6da58f"",""projectId"":""a9f3d40c-5730-405c-b25e-1034c4c56f3f""}","https://test12345.live/?num_scrambled_semantic=8&num_scrambled_causal=4&num_scrambled_schematic=4&participantId=89975035950644E1BA35A6D97BD2CD4F&assignmentId=3bf5d7fe-45ed-4b50-8642-26c3cf6da58f&projectId=a9f3d40c-5730-405c-b25e-1034c4c56f3f","89975035950644E1BA35A6D97BD2CD4F-2025-08-07-19-22-45","","null","","images/causal_sequence/saving_a_cat_causal/saving_a_cat_causal_1.png","null","",""
"","","","","","image-button-response","73","707771","0.0-12.0-1.0-1.5","89975035950644E1BA35A6D97BD2CD4F","89975035950644E1BA35A6D97BD2CD4F","3bf5d7fe-45ed-4b50-8642-26c3cf6da58f","a9f3d40c-5730-405c-b25e-1034c4c56f3f","{""num_scrambled_semantic"":""8"",""num_scrambled_causal"":""4"",""num_scrambled_schematic"":""4"",""participantId"":""89975035950644E1BA35A6D97BD2CD4F"",""assignmentId"":""3bf5d7fe-45ed-4b50-8642-26c3cf6da58f"",""projectId"":""a9f3d40c-5730-405c-b25e-1034c4c56f3f""}","https://test12345.live/?num_scrambled_semantic=8&num_scrambled_causal=4&num_scrambled_schematic=4&participantId=89975035950644E1BA35A6D97BD2CD4F&assignmentId=3bf5d7fe-45ed-4b50-8642-26c3cf6da58f&projectId=a9f3d40c-5730-405c-b25e-1034c4c56f3f","89975035950644E1BA35A6D97BD2CD4F-2025-08-07-19-22-45","","2328","","images/causal_sequence/saving_a_cat_causal/saving_a_cat_causal_1.png","0","",""
"","","","","","image-button-response","74","709586","0.0-12.0-1.0-2.5","89975035950644E1BA35A6D97BD2CD4F","89975035950644E1BA35A6D97BD2CD4F","3bf5d7fe-45ed-4b50-8642-26c3cf6da58f","a9f3d40c-5730-405c-b25e-1034c4c56f3f","{""num_scrambled_semantic"":""8"",""num_scrambled_causal"":""4"",""num_scrambled_schematic"":""4"",""participantId"":""89975035950644E1BA35A6D97BD2CD4F"",""assignmentId"":""3bf5d7fe-45ed-4b50-8642-26c3cf6da58f"",""projectId"":""a9f3d40c-5730-405c-b25e-1034c4c56f3f""}","https://test12345.live/?num_scrambled_semantic=8&num_scrambled_causal=4&num_scrambled_schematic=4&participantId=89975035950644E1BA35A6D97BD2CD4F&assignmentId=3bf5d7fe-45ed-4b50-8642-26c3cf6da58f&projectId=a9f3d40c-5730-405c-b25e-1034c4c56f3f","89975035950644E1BA35A6D97BD2CD4F-2025-08-07-19-22-45","","null","","[]","null","",""
"","","","","","image-button-response","75","714095","0.0-12.0-1.0-0.6","89975035950644E1BA35A6D97BD2CD4F","89975035950644E1BA35A6D97BD2CD4F","3bf5d7fe-45ed-4b50-8642-26c3cf6da58f","a9f3d40c-5730-405c-b25e-1034c4c56f3f","{""num_scrambled_semantic"":""8"",""num_scrambled_causal"":""4"",""num_scrambled_schematic"":""4"",""participantId"":""89975035950644E1BA35A6D97BD2CD4F"",""assignmentId"":""3bf5d7fe-45ed-4b50-8642-26c3cf6da58f"",""projectId"":""a9f3d40c-5730-405c-b25e-1034c4c56f3f""}","https://test12345.live/?num_scrambled_semantic=8&num_scrambled_causal=4&num_scrambled_schematic=4&participantId=89975035950644E1BA35A6D97BD2CD4F&assignmentId=3bf5d7fe-45ed-4b50-8642-26c3cf6da58f&projectId=a9f3d40c-5730-405c-b25e-1034c4c56f3f","89975035950644E1BA35A6D97BD2CD4F-2025-08-07-19-22-45","","null","","images/causal_sequence/saving_a_cat_causal/saving_a_cat_causal_5.png","null","",""
"","","","","","image-button-response","76","715347","0.0-12.0-1.0-1.6","89975035950644E1BA35A6D97BD2CD4F","89975035950644E1BA35A6D97BD2CD4F","3bf5d7fe-45ed-4b50-8642-26c3cf6da58f","a9f3d40c-5730-405c-b25e-1034c4c56f3f","{""num_scrambled_semantic"":""8"",""num_scrambled_causal"":""4"",""num_scrambled_schematic"":""4"",""participantId"":""89975035950644E1BA35A6D97BD2CD4F"",""assignmentId"":""3bf5d7fe-45ed-4b50-8642-26c3cf6da58f"",""projectId"":""a9f3d40c-5730-405c-b25e-1034c4c56f3f""}","https://test12345.live/?num_scrambled_semantic=8&num_scrambled_causal=4&num_scrambled_schematic=4&participantId=89975035950644E1BA35A6D97BD2CD4F&assignmentId=3bf5d7fe-45ed-4b50-8642-26c3cf6da58f&projectId=a9f3d40c-5730-405c-b25e-1034c4c56f3f","89975035950644E1BA35A6D97BD2CD4F-2025-08-07-19-22-45","","1251","","images/causal_sequence/saving_a_cat_causal/saving_a_cat_causal_5.png","0","",""
"","","","","","image-button-response","77","717161","0.0-12.0-1.0-2.6","89975035950644E1BA35A6D97BD2CD4F","89975035950644E1BA35A6D97BD2CD4F","3bf5d7fe-45ed-4b50-8642-26c3cf6da58f","a9f3d40c-5730-405c-b25e-1034c4c56f3f","{""num_scrambled_semantic"":""8"",""num_scrambled_causal"":""4"",""num_scrambled_schematic"":""4"",""participantId"":""89975035950644E1BA35A6D97BD2CD4F"",""assignmentId"":""3bf5d7fe-45ed-4b50-8642-26c3cf6da58f"",""projectId"":""a9f3d40c-5730-405c-b25e-1034c4c56f3f""}","https://test12345.live/?num_scrambled_semantic=8&num_scrambled_causal=4&num_scrambled_schematic=4&participantId=89975035950644E1BA35A6D97BD2CD4F&assignmentId=3bf5d7fe-45ed-4b50-8642-26c3cf6da58f&projectId=a9f3d40c-5730-405c-b25e-1034c4c56f3f","89975035950644E1BA35A6D97BD2CD4F-2025-08-07-19-22-45","","null","","[]","null","",""
"","","","","","image-button-response","78","721676","0.0-12.0-1.0-0.7","89975035950644E1BA35A6D97BD2CD4F","89975035950644E1BA35A6D97BD2CD4F","3bf5d7fe-45ed-4b50-8642-26c3cf6da58f","a9f3d40c-5730-405c-b25e-1034c4c56f3f","{""num_scrambled_semantic"":""8"",""num_scrambled_causal"":""4"",""num_scrambled_schematic"":""4"",""participantId"":""89975035950644E1BA35A6D97BD2CD4F"",""assignmentId"":""3bf5d7fe-45ed-4b50-8642-26c3cf6da58f"",""projectId"":""a9f3d40c-5730-405c-b25e-1034c4c56f3f""}","https://test12345.live/?num_scrambled_semantic=8&num_scrambled_causal=4&num_scrambled_schematic=4&participantId=89975035950644E1BA35A6D97BD2CD4F&assignmentId=3bf5d7fe-45ed-4b50-8642-26c3cf6da58f&projectId=a9f3d40c-5730-405c-b25e-1034c4c56f3f","89975035950644E1BA35A6D97BD2CD4F-2025-08-07-19-22-45","","null","","images/causal_sequence/saving_a_cat_causal/saving_a_cat_causal_9.png","null","",""
"","","","","","image-button-response","79","722463","0.0-12.0-1.0-1.7","89975035950644E1BA35A6D97BD2CD4F","89975035950644E1BA35A6D97BD2CD4F","3bf5d7fe-45ed-4b50-8642-26c3cf6da58f","a9f3d40c-5730-405c-b25e-1034c4c56f3f","{""num_scrambled_semantic"":""8"",""num_scrambled_causal"":""4"",""num_scrambled_schematic"":""4"",""participantId"":""89975035950644E1BA35A6D97BD2CD4F"",""assignmentId"":""3bf5d7fe-45ed-4b50-8642-26c3cf6da58f"",""projectId"":""a9f3d40c-5730-405c-b25e-1034c4c56f3f""}","https://test12345.live/?num_scrambled_semantic=8&num_scrambled_causal=4&num_scrambled_schematic=4&participantId=89975035950644E1BA35A6D97BD2CD4F&assignmentId=3bf5d7fe-45ed-4b50-8642-26c3cf6da58f&projectId=a9f3d40c-5730-405c-b25e-1034c4c56f3f","89975035950644E1BA35A6D97BD2CD4F-2025-08-07-19-22-45","","787","","images/causal_sequence/saving_a_cat_causal/saving_a_cat_causal_9.png","0","",""
"","","","","","image-button-response","80","724277","0.0-12.0-1.0-2.7","89975035950644E1BA35A6D97BD2CD4F","89975035950644E1BA35A6D97BD2CD4F","3bf5d7fe-45ed-4b50-8642-26c3cf6da58f","a9f3d40c-5730-405c-b25e-1034c4c56f3f","{""num_scrambled_semantic"":""8"",""num_scrambled_causal"":""4"",""num_scrambled_schematic"":""4"",""participantId"":""89975035950644E1BA35A6D97BD2CD4F"",""assignmentId"":""3bf5d7fe-45ed-4b50-8642-26c3cf6da58f"",""projectId"":""a9f3d40c-5730-405c-b25e-1034c4c56f3f""}","https://test12345.live/?num_scrambled_semantic=8&num_scrambled_causal=4&num_scrambled_schematic=4&participantId=89975035950644E1BA35A6D97BD2CD4F&assignmentId=3bf5d7fe-45ed-4b50-8642-26c3cf6da58f&projectId=a9f3d40c-5730-405c-b25e-1034c4c56f3f","89975035950644E1BA35A6D97BD2CD4F-2025-08-07-19-22-45","","null","","[]","null","",""
"","","","","","image-button-response","81","728789","0.0-12.0-1.0-0.8","89975035950644E1BA35A6D97BD2CD4F","89975035950644E1BA35A6D97BD2CD4F","3bf5d7fe-45ed-4b50-8642-26c3cf6da58f","a9f3d40c-5730-405c-b25e-1034c4c56f3f","{""num_scrambled_semantic"":""8"",""num_scrambled_causal"":""4"",""num_scrambled_schematic"":""4"",""participantId"":""89975035950644E1BA35A6D97BD2CD4F"",""assignmentId"":""3bf5d7fe-45ed-4b50-8642-26c3cf6da58f"",""projectId"":""a9f3d40c-5730-405c-b25e-1034c4c56f3f""}","https://test12345.live/?num_scrambled_semantic=8&num_scrambled_causal=4&num_scrambled_schematic=4&participantId=89975035950644E1BA35A6D97BD2CD4F&assignmentId=3bf5d7fe-45ed-4b50-8642-26c3cf6da58f&projectId=a9f3d40c-5730-405c-b25e-1034c4c56f3f","89975035950644E1BA35A6D97BD2CD4F-2025-08-07-19-22-45","","null","","images/causal_sequence/saving_a_cat_causal/saving_a_cat_causal_ten.png","null","",""
"","","","","","image-button-response","82","729738","0.0-12.0-1.0-1.8","89975035950644E1BA35A6D97BD2CD4F","89975035950644E1BA35A6D97BD2CD4F","3bf5d7fe-45ed-4b50-8642-26c3cf6da58f","a9f3d40c-5730-405c-b25e-1034c4c56f3f","{""num_scrambled_semantic"":""8"",""num_scrambled_causal"":""4"",""num_scrambled_schematic"":""4"",""participantId"":""89975035950644E1BA35A6D97BD2CD4F"",""assignmentId"":""3bf5d7fe-45ed-4b50-8642-26c3cf6da58f"",""projectId"":""a9f3d40c-5730-405c-b25e-1034c4c56f3f""}","https://test12345.live/?num_scrambled_semantic=8&num_scrambled_causal=4&num_scrambled_schematic=4&participantId=89975035950644E1BA35A6D97BD2CD4F&assignmentId=3bf5d7fe-45ed-4b50-8642-26c3cf6da58f&projectId=a9f3d40c-5730-405c-b25e-1034c4c56f3f","89975035950644E1BA35A6D97BD2CD4F-2025-08-07-19-22-45","","948","","images/causal_sequence/saving_a_cat_causal/saving_a_cat_causal_ten.png","0","",""
"","","","","","image-button-response","83","731539","0.0-12.0-1.0-2.8","89975035950644E1BA35A6D97BD2CD4F","89975035950644E1BA35A6D97BD2CD4F","3bf5d7fe-45ed-4b50-8642-26c3cf6da58f","a9f3d40c-5730-405c-b25e-1034c4c56f3f","{""num_scrambled_semantic"":""8"",""num_scrambled_causal"":""4"",""num_scrambled_schematic"":""4"",""participantId"":""89975035950644E1BA35A6D97BD2CD4F"",""assignmentId"":""3bf5d7fe-45ed-4b50-8642-26c3cf6da58f"",""projectId"":""a9f3d40c-5730-405c-b25e-1034c4c56f3f""}","https://test12345.live/?num_scrambled_semantic=8&num_scrambled_causal=4&num_scrambled_schematic=4&participantId=89975035950644E1BA35A6D97BD2CD4F&assignmentId=3bf5d7fe-45ed-4b50-8642-26c3cf6da58f&projectId=a9f3d40c-5730-405c-b25e-1034c4c56f3f","89975035950644E1BA35A6D97BD2CD4F-2025-08-07-19-22-45","","null","","[]","null","",""
"","","","","","image-button-response","84","736042","0.0-12.0-1.0-0.9","89975035950644E1BA35A6D97BD2CD4F","89975035950644E1BA35A6D97BD2CD4F","3bf5d7fe-45ed-4b50-8642-26c3cf6da58f","a9f3d40c-5730-405c-b25e-1034c4c56f3f","{""num_scrambled_semantic"":""8"",""num_scrambled_causal"":""4"",""num_scrambled_schematic"":""4"",""participantId"":""89975035950644E1BA35A6D97BD2CD4F"",""assignmentId"":""3bf5d7fe-45ed-4b50-8642-26c3cf6da58f"",""projectId"":""a9f3d40c-5730-405c-b25e-1034c4c56f3f""}","https://test12345.live/?num_scrambled_semantic=8&num_scrambled_causal=4&num_scrambled_schematic=4&participantId=89975035950644E1BA35A6D97BD2CD4F&assignmentId=3bf5d7fe-45ed-4b50-8642-26c3cf6da58f&projectId=a9f3d40c-5730-405c-b25e-1034c4c56f3f","89975035950644E1BA35A6D97BD2CD4F-2025-08-07-19-22-45","","null","","images/causal_sequence/saving_a_cat_causal/saving_a_cat_causal_3.png","null","",""
"","","","","","image-button-response","85","737361","0.0-12.0-1.0-1.9","89975035950644E1BA35A6D97BD2CD4F","89975035950644E1BA35A6D97BD2CD4F","3bf5d7fe-45ed-4b50-8642-26c3cf6da58f","a9f3d40c-5730-405c-b25e-1034c4c56f3f","{""num_scrambled_semantic"":""8"",""num_scrambled_causal"":""4"",""num_scrambled_schematic"":""4"",""participantId"":""89975035950644E1BA35A6D97BD2CD4F"",""assignmentId"":""3bf5d7fe-45ed-4b50-8642-26c3cf6da58f"",""projectId"":""a9f3d40c-5730-405c-b25e-1034c4c56f3f""}","https://test12345.live/?num_scrambled_semantic=8&num_scrambled_causal=4&num_scrambled_schematic=4&participantId=89975035950644E1BA35A6D97BD2CD4F&assignmentId=3bf5d7fe-45ed-4b50-8642-26c3cf6da58f&projectId=a9f3d40c-5730-405c-b25e-1034c4c56f3f","89975035950644E1BA35A6D97BD2CD4F-2025-08-07-19-22-45","","1319","","images/causal_sequence/saving_a_cat_causal/saving_a_cat_causal_3.png","0","",""
"","","","","","image-button-response","86","739177","0.0-12.0-1.0-2.9","89975035950644E1BA35A6D97BD2CD4F","89975035950644E1BA35A6D97BD2CD4F","3bf5d7fe-45ed-4b50-8642-26c3cf6da58f","a9f3d40c-5730-405c-b25e-1034c4c56f3f","{""num_scrambled_semantic"":""8"",""num_scrambled_causal"":""4"",""num_scrambled_schematic"":""4"",""participantId"":""89975035950644E1BA35A6D97BD2CD4F"",""assignmentId"":""3bf5d7fe-45ed-4b50-8642-26c3cf6da58f"",""projectId"":""a9f3d40c-5730-405c-b25e-1034c4c56f3f""}","https://test12345.live/?num_scrambled_semantic=8&num_scrambled_causal=4&num_scrambled_schematic=4&participantId=89975035950644E1BA35A6D97BD2CD4F&assignmentId=3bf5d7fe-45ed-4b50-8642-26c3cf6da58f&projectId=a9f3d40c-5730-405c-b25e-1034c4c56f3f","89975035950644E1BA35A6D97BD2CD4F-2025-08-07-19-22-45","","null","","[]","null","",""
"","","","","","html-audio-response","87","961910","0.0-13.0","89975035950644E1BA35A6D97BD2CD4F","89975035950644E1BA35A6D97BD2CD4F","3bf5d7fe-45ed-4b50-8642-26c3cf6da58f","a9f3d40c-5730-405c-b25e-1034c4c56f3f","{""num_scrambled_semantic"":""8"",""num_scrambled_causal"":""4"",""num_scrambled_schematic"":""4"",""participantId"":""89975035950644E1BA35A6D97BD2CD4F"",""assignmentId"":""3bf5d7fe-45ed-4b50-8642-26c3cf6da58f"",""projectId"":""a9f3d40c-5730-405c-b25e-1034c4c56f3f""}","https://test12345.live/?num_scrambled_semantic=8&num_scrambled_causal=4&num_scrambled_schematic=4&participantId=89975035950644E1BA35A6D97BD2CD4F&assignmentId=3bf5d7fe-45ed-4b50-8642-26c3cf6da58f&projectId=a9f3d40c-5730-405c-b25e-1034c4c56f3f","89975035950644E1BA35A6D97BD2CD4F-2025-08-07-19-22-45","","37009","","[""<span style=\""color: red; font-size: 24px\""> NOW RECORDING</span><p>Please say out loud all the images you saw, as many as you can remember. The images can be said in any order.</p>""]","","13","saving_a_cat_causal"
"","","","","","image-button-response","88","967915","0.0-14.0-0.0","89975035950644E1BA35A6D97BD2CD4F","89975035950644E1BA35A6D97BD2CD4F","3bf5d7fe-45ed-4b50-8642-26c3cf6da58f","a9f3d40c-5730-405c-b25e-1034c4c56f3f","{""num_scrambled_semantic"":""8"",""num_scrambled_causal"":""4"",""num_scrambled_schematic"":""4"",""participantId"":""89975035950644E1BA35A6D97BD2CD4F"",""assignmentId"":""3bf5d7fe-45ed-4b50-8642-26c3cf6da58f"",""projectId"":""a9f3d40c-5730-405c-b25e-1034c4c56f3f""}","https://test12345.live/?num_scrambled_semantic=8&num_scrambled_causal=4&num_scrambled_schematic=4&participantId=89975035950644E1BA35A6D97BD2CD4F&assignmentId=3bf5d7fe-45ed-4b50-8642-26c3cf6da58f&projectId=a9f3d40c-5730-405c-b25e-1034c4c56f3f","89975035950644E1BA35A6D97BD2CD4F-2025-08-07-19-22-45","","null","","images/causal_sequence/package_causal/package_causal_0.png","null","",""
"","","","","","image-button-response","89","972423","0.0-14.0-1.0-0.0","89975035950644E1BA35A6D97BD2CD4F","89975035950644E1BA35A6D97BD2CD4F","3bf5d7fe-45ed-4b50-8642-26c3cf6da58f","a9f3d40c-5730-405c-b25e-1034c4c56f3f","{""num_scrambled_semantic"":""8"",""num_scrambled_causal"":""4"",""num_scrambled_schematic"":""4"",""participantId"":""89975035950644E1BA35A6D97BD2CD4F"",""assignmentId"":""3bf5d7fe-45ed-4b50-8642-26c3cf6da58f"",""projectId"":""a9f3d40c-5730-405c-b25e-1034c4c56f3f""}","https://test12345.live/?num_scrambled_semantic=8&num_scrambled_causal=4&num_scrambled_schematic=4&participantId=89975035950644E1BA35A6D97BD2CD4F&assignmentId=3bf5d7fe-45ed-4b50-8642-26c3cf6da58f&projectId=a9f3d40c-5730-405c-b25e-1034c4c56f3f","89975035950644E1BA35A6D97BD2CD4F-2025-08-07-19-22-45","","null","","images/causal_sequence/package_causal/package_causal_1.png","null","",""
"","","","","","image-button-response","90","973740","0.0-14.0-1.0-1.0","89975035950644E1BA35A6D97BD2CD4F","89975035950644E1BA35A6D97BD2CD4F","3bf5d7fe-45ed-4b50-8642-26c3cf6da58f","a9f3d40c-5730-405c-b25e-1034c4c56f3f","{""num_scrambled_semantic"":""8"",""num_scrambled_causal"":""4"",""num_scrambled_schematic"":""4"",""participantId"":""89975035950644E1BA35A6D97BD2CD4F"",""assignmentId"":""3bf5d7fe-45ed-4b50-8642-26c3cf6da58f"",""projectId"":""a9f3d40c-5730-405c-b25e-1034c4c56f3f""}","https://test12345.live/?num_scrambled_semantic=8&num_scrambled_causal=4&num_scrambled_schematic=4&participantId=89975035950644E1BA35A6D97BD2CD4F&assignmentId=3bf5d7fe-45ed-4b50-8642-26c3cf6da58f&projectId=a9f3d40c-5730-405c-b25e-1034c4c56f3f","89975035950644E1BA35A6D97BD2CD4F-2025-08-07-19-22-45","","1316","","images/causal_sequence/package_causal/package_causal_1.png","0","",""
"","","","","","image-button-response","91","975553","0.0-14.0-1.0-2.0","89975035950644E1BA35A6D97BD2CD4F","89975035950644E1BA35A6D97BD2CD4F","3bf5d7fe-45ed-4b50-8642-26c3cf6da58f","a9f3d40c-5730-405c-b25e-1034c4c56f3f","{""num_scrambled_semantic"":""8"",""num_scrambled_causal"":""4"",""num_scrambled_schematic"":""4"",""participantId"":""89975035950644E1BA35A6D97BD2CD4F"",""assignmentId"":""3bf5d7fe-45ed-4b50-8642-26c3cf6da58f"",""projectId"":""a9f3d40c-5730-405c-b25e-1034c4c56f3f""}","https://test12345.live/?num_scrambled_semantic=8&num_scrambled_causal=4&num_scrambled_schematic=4&participantId=89975035950644E1BA35A6D97BD2CD4F&assignmentId=3bf5d7fe-45ed-4b50-8642-26c3cf6da58f&projectId=a9f3d40c-5730-405c-b25e-1034c4c56f3f","89975035950644E1BA35A6D97BD2CD4F-2025-08-07-19-22-45","","null","","[]","null","",""
"","","","","","image-button-response","92","980061","0.0-14.0-1.0-0.1","89975035950644E1BA35A6D97BD2CD4F","89975035950644E1BA35A6D97BD2CD4F","3bf5d7fe-45ed-4b50-8642-26c3cf6da58f","a9f3d40c-5730-405c-b25e-1034c4c56f3f","{""num_scrambled_semantic"":""8"",""num_scrambled_causal"":""4"",""num_scrambled_schematic"":""4"",""participantId"":""89975035950644E1BA35A6D97BD2CD4F"",""assignmentId"":""3bf5d7fe-45ed-4b50-8642-26c3cf6da58f"",""projectId"":""a9f3d40c-5730-405c-b25e-1034c4c56f3f""}","https://test12345.live/?num_scrambled_semantic=8&num_scrambled_causal=4&num_scrambled_schematic=4&participantId=89975035950644E1BA35A6D97BD2CD4F&assignmentId=3bf5d7fe-45ed-4b50-8642-26c3cf6da58f&projectId=a9f3d40c-5730-405c-b25e-1034c4c56f3f","89975035950644E1BA35A6D97BD2CD4F-2025-08-07-19-22-45","","null","","images/causal_sequence/package_causal/package_causal_2.png","null","",""
"","","","","","image-button-response","93","982617","0.0-14.0-1.0-1.1","89975035950644E1BA35A6D97BD2CD4F","89975035950644E1BA35A6D97BD2CD4F","3bf5d7fe-45ed-4b50-8642-26c3cf6da58f","a9f3d40c-5730-405c-b25e-1034c4c56f3f","{""num_scrambled_semantic"":""8"",""num_scrambled_causal"":""4"",""num_scrambled_schematic"":""4"",""participantId"":""89975035950644E1BA35A6D97BD2CD4F"",""assignmentId"":""3bf5d7fe-45ed-4b50-8642-26c3cf6da58f"",""projectId"":""a9f3d40c-5730-405c-b25e-1034c4c56f3f""}","https://test12345.live/?num_scrambled_semantic=8&num_scrambled_causal=4&num_scrambled_schematic=4&participantId=89975035950644E1BA35A6D97BD2CD4F&assignmentId=3bf5d7fe-45ed-4b50-8642-26c3cf6da58f&projectId=a9f3d40c-5730-405c-b25e-1034c4c56f3f","89975035950644E1BA35A6D97BD2CD4F-2025-08-07-19-22-45","","2556","","images/causal_sequence/package_causal/package_causal_2.png","0","",""
"","","","","","image-button-response","94","984427","0.0-14.0-1.0-2.1","89975035950644E1BA35A6D97BD2CD4F","89975035950644E1BA35A6D97BD2CD4F","3bf5d7fe-45ed-4b50-8642-26c3cf6da58f","a9f3d40c-5730-405c-b25e-1034c4c56f3f","{""num_scrambled_semantic"":""8"",""num_scrambled_causal"":""4"",""num_scrambled_schematic"":""4"",""participantId"":""89975035950644E1BA35A6D97BD2CD4F"",""assignmentId"":""3bf5d7fe-45ed-4b50-8642-26c3cf6da58f"",""projectId"":""a9f3d40c-5730-405c-b25e-1034c4c56f3f""}","https://test12345.live/?num_scrambled_semantic=8&num_scrambled_causal=4&num_scrambled_schematic=4&participantId=89975035950644E1BA35A6D97BD2CD4F&assignmentId=3bf5d7fe-45ed-4b50-8642-26c3cf6da58f&projectId=a9f3d40c-5730-405c-b25e-1034c4c56f3f","89975035950644E1BA35A6D97BD2CD4F-2025-08-07-19-22-45","","null","","[]","null","",""
"","","","","","image-button-response","95","988943","0.0-14.0-1.0-0.2","89975035950644E1BA35A6D97BD2CD4F","89975035950644E1BA35A6D97BD2CD4F","3bf5d7fe-45ed-4b50-8642-26c3cf6da58f","a9f3d40c-5730-405c-b25e-1034c4c56f3f","{""num_scrambled_semantic"":""8"",""num_scrambled_causal"":""4"",""num_scrambled_schematic"":""4"",""participantId"":""89975035950644E1BA35A6D97BD2CD4F"",""assignmentId"":""3bf5d7fe-45ed-4b50-8642-26c3cf6da58f"",""projectId"":""a9f3d40c-5730-405c-b25e-1034c4c56f3f""}","https://test12345.live/?num_scrambled_semantic=8&num_scrambled_causal=4&num_scrambled_schematic=4&participantId=89975035950644E1BA35A6D97BD2CD4F&assignmentId=3bf5d7fe-45ed-4b50-8642-26c3cf6da58f&projectId=a9f3d40c-5730-405c-b25e-1034c4c56f3f","89975035950644E1BA35A6D97BD2CD4F-2025-08-07-19-22-45","","null","","images/causal_sequence/package_causal/package_causal_3.png","null","",""
"","","","","","image-button-response","96","989847","0.0-14.0-1.0-1.2","89975035950644E1BA35A6D97BD2CD4F","89975035950644E1BA35A6D97BD2CD4F","3bf5d7fe-45ed-4b50-8642-26c3cf6da58f","a9f3d40c-5730-405c-b25e-1034c4c56f3f","{""num_scrambled_semantic"":""8"",""num_scrambled_causal"":""4"",""num_scrambled_schematic"":""4"",""participantId"":""89975035950644E1BA35A6D97BD2CD4F"",""assignmentId"":""3bf5d7fe-45ed-4b50-8642-26c3cf6da58f"",""projectId"":""a9f3d40c-5730-405c-b25e-1034c4c56f3f""}","https://test12345.live/?num_scrambled_semantic=8&num_scrambled_causal=4&num_scrambled_schematic=4&participantId=89975035950644E1BA35A6D97BD2CD4F&assignmentId=3bf5d7fe-45ed-4b50-8642-26c3cf6da58f&projectId=a9f3d40c-5730-405c-b25e-1034c4c56f3f","89975035950644E1BA35A6D97BD2CD4F-2025-08-07-19-22-45","","903","","images/causal_sequence/package_causal/package_causal_3.png","0","",""
"","","","","","image-button-response","97","991661","0.0-14.0-1.0-2.2","89975035950644E1BA35A6D97BD2CD4F","89975035950644E1BA35A6D97BD2CD4F","3bf5d7fe-45ed-4b50-8642-26c3cf6da58f","a9f3d40c-5730-405c-b25e-1034c4c56f3f","{""num_scrambled_semantic"":""8"",""num_scrambled_causal"":""4"",""num_scrambled_schematic"":""4"",""participantId"":""89975035950644E1BA35A6D97BD2CD4F"",""assignmentId"":""3bf5d7fe-45ed-4b50-8642-26c3cf6da58f"",""projectId"":""a9f3d40c-5730-405c-b25e-1034c4c56f3f""}","https://test12345.live/?num_scrambled_semantic=8&num_scrambled_causal=4&num_scrambled_schematic=4&participantId=89975035950644E1BA35A6D97BD2CD4F&assignmentId=3bf5d7fe-45ed-4b50-8642-26c3cf6da58f&projectId=a9f3d40c-5730-405c-b25e-1034c4c56f3f","89975035950644E1BA35A6D97BD2CD4F-2025-08-07-19-22-45","","null","","[]","null","",""
"","","","","","image-button-response","98","996173","0.0-14.0-1.0-0.3","89975035950644E1BA35A6D97BD2CD4F","89975035950644E1BA35A6D97BD2CD4F","3bf5d7fe-45ed-4b50-8642-26c3cf6da58f","a9f3d40c-5730-405c-b25e-1034c4c56f3f","{""num_scrambled_semantic"":""8"",""num_scrambled_causal"":""4"",""num_scrambled_schematic"":""4"",""participantId"":""89975035950644E1BA35A6D97BD2CD4F"",""assignmentId"":""3bf5d7fe-45ed-4b50-8642-26c3cf6da58f"",""projectId"":""a9f3d40c-5730-405c-b25e-1034c4c56f3f""}","https://test12345.live/?num_scrambled_semantic=8&num_scrambled_causal=4&num_scrambled_schematic=4&participantId=89975035950644E1BA35A6D97BD2CD4F&assignmentId=3bf5d7fe-45ed-4b50-8642-26c3cf6da58f&projectId=a9f3d40c-5730-405c-b25e-1034c4c56f3f","89975035950644E1BA35A6D97BD2CD4F-2025-08-07-19-22-45","","null","","images/causal_sequence/package_causal/package_causal_4.png","null","",""
"","","","","","image-button-response","99","997159","0.0-14.0-1.0-1.3","89975035950644E1BA35A6D97BD2CD4F","89975035950644E1BA35A6D97BD2CD4F","3bf5d7fe-45ed-4b50-8642-26c3cf6da58f","a9f3d40c-5730-405c-b25e-1034c4c56f3f","{""num_scrambled_semantic"":""8"",""num_scrambled_causal"":""4"",""num_scrambled_schematic"":""4"",""participantId"":""89975035950644E1BA35A6D97BD2CD4F"",""assignmentId"":""3bf5d7fe-45ed-4b50-8642-26c3cf6da58f"",""projectId"":""a9f3d40c-5730-405c-b25e-1034c4c56f3f""}","https://test12345.live/?num_scrambled_semantic=8&num_scrambled_causal=4&num_scrambled_schematic=4&participantId=89975035950644E1BA35A6D97BD2CD4F&assignmentId=3bf5d7fe-45ed-4b50-8642-26c3cf6da58f&projectId=a9f3d40c-5730-405c-b25e-1034c4c56f3f","89975035950644E1BA35A6D97BD2CD4F-2025-08-07-19-22-45","","985","","images/causal_sequence/package_causal/package_causal_4.png","1","",""
"","","","","","image-button-response","100","998972","0.0-14.0-1.0-2.3","89975035950644E1BA35A6D97BD2CD4F","89975035950644E1BA35A6D97BD2CD4F","3bf5d7fe-45ed-4b50-8642-26c3cf6da58f","a9f3d40c-5730-405c-b25e-1034c4c56f3f","{""num_scrambled_semantic"":""8"",""num_scrambled_causal"":""4"",""num_scrambled_schematic"":""4"",""participantId"":""89975035950644E1BA35A6D97BD2CD4F"",""assignmentId"":""3bf5d7fe-45ed-4b50-8642-26c3cf6da58f"",""projectId"":""a9f3d40c-5730-405c-b25e-1034c4c56f3f""}","https://test12345.live/?num_scrambled_semantic=8&num_scrambled_causal=4&num_scrambled_schematic=4&participantId=89975035950644E1BA35A6D97BD2CD4F&assignmentId=3bf5d7fe-45ed-4b50-8642-26c3cf6da58f&projectId=a9f3d40c-5730-405c-b25e-1034c4c56f3f","89975035950644E1BA35A6D97BD2CD4F-2025-08-07-19-22-45","","null","","[]","null","",""
"","","","","","image-button-response","101","1003486","0.0-14.0-1.0-0.4","89975035950644E1BA35A6D97BD2CD4F","89975035950644E1BA35A6D97BD2CD4F","3bf5d7fe-45ed-4b50-8642-26c3cf6da58f","a9f3d40c-5730-405c-b25e-1034c4c56f3f","{""num_scrambled_semantic"":""8"",""num_scrambled_causal"":""4"",""num_scrambled_schematic"":""4"",""participantId"":""89975035950644E1BA35A6D97BD2CD4F"",""assignmentId"":""3bf5d7fe-45ed-4b50-8642-26c3cf6da58f"",""projectId"":""a9f3d40c-5730-405c-b25e-1034c4c56f3f""}","https://test12345.live/?num_scrambled_semantic=8&num_scrambled_causal=4&num_scrambled_schematic=4&participantId=89975035950644E1BA35A6D97BD2CD4F&assignmentId=3bf5d7fe-45ed-4b50-8642-26c3cf6da58f&projectId=a9f3d40c-5730-405c-b25e-1034c4c56f3f","89975035950644E1BA35A6D97BD2CD4F-2025-08-07-19-22-45","","null","","images/causal_sequence/package_causal/package_causal_5.png","null","",""
"","","","","","image-button-response","102","1005022","0.0-14.0-1.0-1.4","89975035950644E1BA35A6D97BD2CD4F","89975035950644E1BA35A6D97BD2CD4F","3bf5d7fe-45ed-4b50-8642-26c3cf6da58f","a9f3d40c-5730-405c-b25e-1034c4c56f3f","{""num_scrambled_semantic"":""8"",""num_scrambled_causal"":""4"",""num_scrambled_schematic"":""4"",""participantId"":""89975035950644E1BA35A6D97BD2CD4F"",""assignmentId"":""3bf5d7fe-45ed-4b50-8642-26c3cf6da58f"",""projectId"":""a9f3d40c-5730-405c-b25e-1034c4c56f3f""}","https://test12345.live/?num_scrambled_semantic=8&num_scrambled_causal=4&num_scrambled_schematic=4&participantId=89975035950644E1BA35A6D97BD2CD4F&assignmentId=3bf5d7fe-45ed-4b50-8642-26c3cf6da58f&projectId=a9f3d40c-5730-405c-b25e-1034c4c56f3f","89975035950644E1BA35A6D97BD2CD4F-2025-08-07-19-22-45","","1535","","images/causal_sequence/package_causal/package_causal_5.png","0","",""
"","","","","","image-button-response","103","1006824","0.0-14.0-1.0-2.4","89975035950644E1BA35A6D97BD2CD4F","89975035950644E1BA35A6D97BD2CD4F","3bf5d7fe-45ed-4b50-8642-26c3cf6da58f","a9f3d40c-5730-405c-b25e-1034c4c56f3f","{""num_scrambled_semantic"":""8"",""num_scrambled_causal"":""4"",""num_scrambled_schematic"":""4"",""participantId"":""89975035950644E1BA35A6D97BD2CD4F"",""assignmentId"":""3bf5d7fe-45ed-4b50-8642-26c3cf6da58f"",""projectId"":""a9f3d40c-5730-405c-b25e-1034c4c56f3f""}","https://test12345.live/?num_scrambled_semantic=8&num_scrambled_causal=4&num_scrambled_schematic=4&participantId=89975035950644E1BA35A6D97BD2CD4F&assignmentId=3bf5d7fe-45ed-4b50-8642-26c3cf6da58f&projectId=a9f3d40c-5730-405c-b25e-1034c4c56f3f","89975035950644E1BA35A6D97BD2CD4F-2025-08-07-19-22-45","","null","","[]","null","",""
"","","","","","image-button-response","104","1011336","0.0-14.0-1.0-0.5","89975035950644E1BA35A6D97BD2CD4F","89975035950644E1BA35A6D97BD2CD4F","3bf5d7fe-45ed-4b50-8642-26c3cf6da58f","a9f3d40c-5730-405c-b25e-1034c4c56f3f","{""num_scrambled_semantic"":""8"",""num_scrambled_causal"":""4"",""num_scrambled_schematic"":""4"",""participantId"":""89975035950644E1BA35A6D97BD2CD4F"",""assignmentId"":""3bf5d7fe-45ed-4b50-8642-26c3cf6da58f"",""projectId"":""a9f3d40c-5730-405c-b25e-1034c4c56f3f""}","https://test12345.live/?num_scrambled_semantic=8&num_scrambled_causal=4&num_scrambled_schematic=4&participantId=89975035950644E1BA35A6D97BD2CD4F&assignmentId=3bf5d7fe-45ed-4b50-8642-26c3cf6da58f&projectId=a9f3d40c-5730-405c-b25e-1034c4c56f3f","89975035950644E1BA35A6D97BD2CD4F-2025-08-07-19-22-45","","null","","images/causal_sequence/package_causal/package_causal_6.png","null","",""
"","","","","","image-button-response","105","1012056","0.0-14.0-1.0-1.5","89975035950644E1BA35A6D97BD2CD4F","89975035950644E1BA35A6D97BD2CD4F","3bf5d7fe-45ed-4b50-8642-26c3cf6da58f","a9f3d40c-5730-405c-b25e-1034c4c56f3f","{""num_scrambled_semantic"":""8"",""num_scrambled_causal"":""4"",""num_scrambled_schematic"":""4"",""participantId"":""89975035950644E1BA35A6D97BD2CD4F"",""assignmentId"":""3bf5d7fe-45ed-4b50-8642-26c3cf6da58f"",""projectId"":""a9f3d40c-5730-405c-b25e-1034c4c56f3f""}","https://test12345.live/?num_scrambled_semantic=8&num_scrambled_causal=4&num_scrambled_schematic=4&participantId=89975035950644E1BA35A6D97BD2CD4F&assignmentId=3bf5d7fe-45ed-4b50-8642-26c3cf6da58f&projectId=a9f3d40c-5730-405c-b25e-1034c4c56f3f","89975035950644E1BA35A6D97BD2CD4F-2025-08-07-19-22-45","","720","","images/causal_sequence/package_causal/package_causal_6.png","0","",""
"","","","","","image-button-response","106","1013873","0.0-14.0-1.0-2.5","89975035950644E1BA35A6D97BD2CD4F","89975035950644E1BA35A6D97BD2CD4F","3bf5d7fe-45ed-4b50-8642-26c3cf6da58f","a9f3d40c-5730-405c-b25e-1034c4c56f3f","{""num_scrambled_semantic"":""8"",""num_scrambled_causal"":""4"",""num_scrambled_schematic"":""4"",""participantId"":""89975035950644E1BA35A6D97BD2CD4F"",""assignmentId"":""3bf5d7fe-45ed-4b50-8642-26c3cf6da58f"",""projectId"":""a9f3d40c-5730-405c-b25e-1034c4c56f3f""}","https://test12345.live/?num_scrambled_semantic=8&num_scrambled_causal=4&num_scrambled_schematic=4&participantId=89975035950644E1BA35A6D97BD2CD4F&assignmentId=3bf5d7fe-45ed-4b50-8642-26c3cf6da58f&projectId=a9f3d40c-5730-405c-b25e-1034c4c56f3f","89975035950644E1BA35A6D97BD2CD4F-2025-08-07-19-22-45","","null","","[]","null","",""
"","","","","","image-button-response","107","1018374","0.0-14.0-1.0-0.6","89975035950644E1BA35A6D97BD2CD4F","89975035950644E1BA35A6D97BD2CD4F","3bf5d7fe-45ed-4b50-8642-26c3cf6da58f","a9f3d40c-5730-405c-b25e-1034c4c56f3f","{""num_scrambled_semantic"":""8"",""num_scrambled_causal"":""4"",""num_scrambled_schematic"":""4"",""participantId"":""89975035950644E1BA35A6D97BD2CD4F"",""assignmentId"":""3bf5d7fe-45ed-4b50-8642-26c3cf6da58f"",""projectId"":""a9f3d40c-5730-405c-b25e-1034c4c56f3f""}","https://test12345.live/?num_scrambled_semantic=8&num_scrambled_causal=4&num_scrambled_schematic=4&participantId=89975035950644E1BA35A6D97BD2CD4F&assignmentId=3bf5d7fe-45ed-4b50-8642-26c3cf6da58f&projectId=a9f3d40c-5730-405c-b25e-1034c4c56f3f","89975035950644E1BA35A6D97BD2CD4F-2025-08-07-19-22-45","","null","","images/causal_sequence/package_causal/package_causal_7.png","null","",""
"","","","","","image-button-response","108","1020589","0.0-14.0-1.0-1.6","89975035950644E1BA35A6D97BD2CD4F","89975035950644E1BA35A6D97BD2CD4F","3bf5d7fe-45ed-4b50-8642-26c3cf6da58f","a9f3d40c-5730-405c-b25e-1034c4c56f3f","{""num_scrambled_semantic"":""8"",""num_scrambled_causal"":""4"",""num_scrambled_schematic"":""4"",""participantId"":""89975035950644E1BA35A6D97BD2CD4F"",""assignmentId"":""3bf5d7fe-45ed-4b50-8642-26c3cf6da58f"",""projectId"":""a9f3d40c-5730-405c-b25e-1034c4c56f3f""}","https://test12345.live/?num_scrambled_semantic=8&num_scrambled_causal=4&num_scrambled_schematic=4&participantId=89975035950644E1BA35A6D97BD2CD4F&assignmentId=3bf5d7fe-45ed-4b50-8642-26c3cf6da58f&projectId=a9f3d40c-5730-405c-b25e-1034c4c56f3f","89975035950644E1BA35A6D97BD2CD4F-2025-08-07-19-22-45","","2214","","images/causal_sequence/package_causal/package_causal_7.png","0","",""
"","","","","","image-button-response","109","1022398","0.0-14.0-1.0-2.6","89975035950644E1BA35A6D97BD2CD4F","89975035950644E1BA35A6D97BD2CD4F","3bf5d7fe-45ed-4b50-8642-26c3cf6da58f","a9f3d40c-5730-405c-b25e-1034c4c56f3f","{""num_scrambled_semantic"":""8"",""num_scrambled_causal"":""4"",""num_scrambled_schematic"":""4"",""participantId"":""89975035950644E1BA35A6D97BD2CD4F"",""assignmentId"":""3bf5d7fe-45ed-4b50-8642-26c3cf6da58f"",""projectId"":""a9f3d40c-5730-405c-b25e-1034c4c56f3f""}","https://test12345.live/?num_scrambled_semantic=8&num_scrambled_causal=4&num_scrambled_schematic=4&participantId=89975035950644E1BA35A6D97BD2CD4F&assignmentId=3bf5d7fe-45ed-4b50-8642-26c3cf6da58f&projectId=a9f3d40c-5730-405c-b25e-1034c4c56f3f","89975035950644E1BA35A6D97BD2CD4F-2025-08-07-19-22-45","","null","","[]","null","",""
"","","","","","image-button-response","110","1026913","0.0-14.0-1.0-0.7","89975035950644E1BA35A6D97BD2CD4F","89975035950644E1BA35A6D97BD2CD4F","3bf5d7fe-45ed-4b50-8642-26c3cf6da58f","a9f3d40c-5730-405c-b25e-1034c4c56f3f","{""num_scrambled_semantic"":""8"",""num_scrambled_causal"":""4"",""num_scrambled_schematic"":""4"",""participantId"":""89975035950644E1BA35A6D97BD2CD4F"",""assignmentId"":""3bf5d7fe-45ed-4b50-8642-26c3cf6da58f"",""projectId"":""a9f3d40c-5730-405c-b25e-1034c4c56f3f""}","https://test12345.live/?num_scrambled_semantic=8&num_scrambled_causal=4&num_scrambled_schematic=4&participantId=89975035950644E1BA35A6D97BD2CD4F&assignmentId=3bf5d7fe-45ed-4b50-8642-26c3cf6da58f&projectId=a9f3d40c-5730-405c-b25e-1034c4c56f3f","89975035950644E1BA35A6D97BD2CD4F-2025-08-07-19-22-45","","null","","images/causal_sequence/package_causal/package_causal_8.png","null","",""
"","","","","","image-button-response","111","1027830","0.0-14.0-1.0-1.7","89975035950644E1BA35A6D97BD2CD4F","89975035950644E1BA35A6D97BD2CD4F","3bf5d7fe-45ed-4b50-8642-26c3cf6da58f","a9f3d40c-5730-405c-b25e-1034c4c56f3f","{""num_scrambled_semantic"":""8"",""num_scrambled_causal"":""4"",""num_scrambled_schematic"":""4"",""participantId"":""89975035950644E1BA35A6D97BD2CD4F"",""assignmentId"":""3bf5d7fe-45ed-4b50-8642-26c3cf6da58f"",""projectId"":""a9f3d40c-5730-405c-b25e-1034c4c56f3f""}","https://test12345.live/?num_scrambled_semantic=8&num_scrambled_causal=4&num_scrambled_schematic=4&participantId=89975035950644E1BA35A6D97BD2CD4F&assignmentId=3bf5d7fe-45ed-4b50-8642-26c3cf6da58f&projectId=a9f3d40c-5730-405c-b25e-1034c4c56f3f","89975035950644E1BA35A6D97BD2CD4F-2025-08-07-19-22-45","","916","","images/causal_sequence/package_causal/package_causal_8.png","0","",""
"","","","","","image-button-response","112","1029643","0.0-14.0-1.0-2.7","89975035950644E1BA35A6D97BD2CD4F","89975035950644E1BA35A6D97BD2CD4F","3bf5d7fe-45ed-4b50-8642-26c3cf6da58f","a9f3d40c-5730-405c-b25e-1034c4c56f3f","{""num_scrambled_semantic"":""8"",""num_scrambled_causal"":""4"",""num_scrambled_schematic"":""4"",""participantId"":""89975035950644E1BA35A6D97BD2CD4F"",""assignmentId"":""3bf5d7fe-45ed-4b50-8642-26c3cf6da58f"",""projectId"":""a9f3d40c-5730-405c-b25e-1034c4c56f3f""}","https://test12345.live/?num_scrambled_semantic=8&num_scrambled_causal=4&num_scrambled_schematic=4&participantId=89975035950644E1BA35A6D97BD2CD4F&assignmentId=3bf5d7fe-45ed-4b50-8642-26c3cf6da58f&projectId=a9f3d40c-5730-405c-b25e-1034c4c56f3f","89975035950644E1BA35A6D97BD2CD4F-2025-08-07-19-22-45","","null","","[]","null","",""
"","","","","","image-button-response","113","1034145","0.0-14.0-1.0-0.8","89975035950644E1BA35A6D97BD2CD4F","89975035950644E1BA35A6D97BD2CD4F","3bf5d7fe-45ed-4b50-8642-26c3cf6da58f","a9f3d40c-5730-405c-b25e-1034c4c56f3f","{""num_scrambled_semantic"":""8"",""num_scrambled_causal"":""4"",""num_scrambled_schematic"":""4"",""participantId"":""89975035950644E1BA35A6D97BD2CD4F"",""assignmentId"":""3bf5d7fe-45ed-4b50-8642-26c3cf6da58f"",""projectId"":""a9f3d40c-5730-405c-b25e-1034c4c56f3f""}","https://test12345.live/?num_scrambled_semantic=8&num_scrambled_causal=4&num_scrambled_schematic=4&participantId=89975035950644E1BA35A6D97BD2CD4F&assignmentId=3bf5d7fe-45ed-4b50-8642-26c3cf6da58f&projectId=a9f3d40c-5730-405c-b25e-1034c4c56f3f","89975035950644E1BA35A6D97BD2CD4F-2025-08-07-19-22-45","","null","","images/causal_sequence/package_causal/package_causal_9.png","null","",""
