"success","timeout","failed_images","failed_audio","failed_video","trial_type","trial_index","time_elapsed","internal_node_id","subject","subject_id","study_id","session_id","urlvar","current_url","audio_id","view_history","rt","device_id","stimulus","response","estimated_stimulus_onset","seq_name"
"true","false","[]","[]","[]","preload","0","7476","0.0-0.0","8E88935E67134E86BCF0B22E8E14E3BA","8E88935E67134E86BCF0B22E8E14E3BA","672ce681-3c8c-4d54-8c90-12b57c82aa77","a0a8f18c-a66e-4ba7-a170-23efbdc67501","{""participantId"":""8E88935E67134E86BCF0B22E8E14E3BA"",""assignmentId"":""672ce681-3c8c-4d54-8c90-12b57c82aa77"",""projectId"":""a0a8f18c-a66e-4ba7-a170-23efbdc67501""}","https://test12345.live/?participantId=8E88935E67134E86BCF0B22E8E14E3BA&assignmentId=672ce681-3c8c-4d54-8c90-12b57c82aa77&projectId=a0a8f18c-a66e-4ba7-a170-23efbdc67501","8E88935E67134E86BCF0B22E8E14E3BA-2024-11-24-18-38-19","","","","","","",""
"","","","","","instructions","1","36958","0.0-1.0","8E88935E67134E86BCF0B22E8E14E3BA","8E88935E67134E86BCF0B22E8E14E3BA","672ce681-3c8c-4d54-8c90-12b57c82aa77","a0a8f18c-a66e-4ba7-a170-23efbdc67501","{""participantId"":""8E88935E67134E86BCF0B22E8E14E3BA"",""assignmentId"":""672ce681-3c8c-4d54-8c90-12b57c82aa77"",""projectId"":""a0a8f18c-a66e-4ba7-a170-23efbdc67501""}","https://test12345.live/?participantId=8E88935E67134E86BCF0B22E8E14E3BA&assignmentId=672ce681-3c8c-4d54-8c90-12b57c82aa77&projectId=a0a8f18c-a66e-4ba7-a170-23efbdc67501","8E88935E67134E86BCF0B22E8E14E3BA-2024-11-24-18-38-19","[{""page_index"":0,""viewing_time"":29480}]","29481","","","","",""
"","","","","","instructions","2","60962","0.0-2.0","8E88935E67134E86BCF0B22E8E14E3BA","8E88935E67134E86BCF0B22E8E14E3BA","672ce681-3c8c-4d54-8c90-12b57c82aa77","a0a8f18c-a66e-4ba7-a170-23efbdc67501","{""participantId"":""8E88935E67134E86BCF0B22E8E14E3BA"",""assignmentId"":""672ce681-3c8c-4d54-8c90-12b57c82aa77"",""projectId"":""a0a8f18c-a66e-4ba7-a170-23efbdc67501""}","https://test12345.live/?participantId=8E88935E67134E86BCF0B22E8E14E3BA&assignmentId=672ce681-3c8c-4d54-8c90-12b57c82aa77&projectId=a0a8f18c-a66e-4ba7-a170-23efbdc67501","8E88935E67134E86BCF0B22E8E14E3BA-2024-11-24-18-38-19","[{""page_index"":0,""viewing_time"":24002}]","24002","","","","",""
"true","","","","","fullscreen","3","63928","0.0-3.0","8E88935E67134E86BCF0B22E8E14E3BA","8E88935E67134E86BCF0B22E8E14E3BA","672ce681-3c8c-4d54-8c90-12b57c82aa77","a0a8f18c-a66e-4ba7-a170-23efbdc67501","{""participantId"":""8E88935E67134E86BCF0B22E8E14E3BA"",""assignmentId"":""672ce681-3c8c-4d54-8c90-12b57c82aa77"",""projectId"":""a0a8f18c-a66e-4ba7-a170-23efbdc67501""}","https://test12345.live/?participantId=8E88935E67134E86BCF0B22E8E14E3BA&assignmentId=672ce681-3c8c-4d54-8c90-12b57c82aa77&projectId=a0a8f18c-a66e-4ba7-a170-23efbdc67501","8E88935E67134E86BCF0B22E8E14E3BA-2024-11-24-18-38-19","","1956","","","","",""
"","","","","","initialize-microphone","4","76450","0.0-4.0-0.0","8E88935E67134E86BCF0B22E8E14E3BA","8E88935E67134E86BCF0B22E8E14E3BA","672ce681-3c8c-4d54-8c90-12b57c82aa77","a0a8f18c-a66e-4ba7-a170-23efbdc67501","{""participantId"":""8E88935E67134E86BCF0B22E8E14E3BA"",""assignmentId"":""672ce681-3c8c-4d54-8c90-12b57c82aa77"",""projectId"":""a0a8f18c-a66e-4ba7-a170-23efbdc67501""}","https://test12345.live/?participantId=8E88935E67134E86BCF0B22E8E14E3BA&assignmentId=672ce681-3c8c-4d54-8c90-12b57c82aa77&projectId=a0a8f18c-a66e-4ba7-a170-23efbdc67501","8E88935E67134E86BCF0B22E8E14E3BA-2024-11-24-18-38-19","","","5d46fa8085adbe1c7756301108b3d8dfa9e7b0f0a6754ee56bd0c78b739ccaa9","","","",""
"","","","","","html-audio-response","5","119844","0.0-4.0-1.0","8E88935E67134E86BCF0B22E8E14E3BA","8E88935E67134E86BCF0B22E8E14E3BA","672ce681-3c8c-4d54-8c90-12b57c82aa77","a0a8f18c-a66e-4ba7-a170-23efbdc67501","{""participantId"":""8E88935E67134E86BCF0B22E8E14E3BA"",""assignmentId"":""672ce681-3c8c-4d54-8c90-12b57c82aa77"",""projectId"":""a0a8f18c-a66e-4ba7-a170-23efbdc67501""}","https://test12345.live/?participantId=8E88935E67134E86BCF0B22E8E14E3BA&assignmentId=672ce681-3c8c-4d54-8c90-12b57c82aa77&projectId=a0a8f18c-a66e-4ba7-a170-23efbdc67501","8E88935E67134E86BCF0B22E8E14E3BA-2024-11-24-18-38-19","","2879","","<span style=""color: red; font-size: 24px""> NOW RECORDING</span>
        <p>Please test Microphone</p>","","1",""
"","","","","","html-button-response","6","123027","0.0-4.0-2.0","8E88935E67134E86BCF0B22E8E14E3BA","8E88935E67134E86BCF0B22E8E14E3BA","672ce681-3c8c-4d54-8c90-12b57c82aa77","a0a8f18c-a66e-4ba7-a170-23efbdc67501","{""participantId"":""8E88935E67134E86BCF0B22E8E14E3BA"",""assignmentId"":""672ce681-3c8c-4d54-8c90-12b57c82aa77"",""projectId"":""a0a8f18c-a66e-4ba7-a170-23efbdc67501""}","https://test12345.live/?participantId=8E88935E67134E86BCF0B22E8E14E3BA&assignmentId=672ce681-3c8c-4d54-8c90-12b57c82aa77&projectId=a0a8f18c-a66e-4ba7-a170-23efbdc67501","8E88935E67134E86BCF0B22E8E14E3BA-2024-11-24-18-38-19","","3180","","<p style=""font-size:48px; color:red;"">Is Microphone OK?</p>","1","",""
"","","","","","instructions","7","149229","0.0-5.0","8E88935E67134E86BCF0B22E8E14E3BA","8E88935E67134E86BCF0B22E8E14E3BA","672ce681-3c8c-4d54-8c90-12b57c82aa77","a0a8f18c-a66e-4ba7-a170-23efbdc67501","{""participantId"":""8E88935E67134E86BCF0B22E8E14E3BA"",""assignmentId"":""672ce681-3c8c-4d54-8c90-12b57c82aa77"",""projectId"":""a0a8f18c-a66e-4ba7-a170-23efbdc67501""}","https://test12345.live/?participantId=8E88935E67134E86BCF0B22E8E14E3BA&assignmentId=672ce681-3c8c-4d54-8c90-12b57c82aa77&projectId=a0a8f18c-a66e-4ba7-a170-23efbdc67501","8E88935E67134E86BCF0B22E8E14E3BA-2024-11-24-18-38-19","[{""page_index"":0,""viewing_time"":14954},{""page_index"":1,""viewing_time"":11247}]","26201","","","","",""
"","","","","","image-button-response","8","155239","0.0-6.0-0.0","8E88935E67134E86BCF0B22E8E14E3BA","8E88935E67134E86BCF0B22E8E14E3BA","672ce681-3c8c-4d54-8c90-12b57c82aa77","a0a8f18c-a66e-4ba7-a170-23efbdc67501","{""participantId"":""8E88935E67134E86BCF0B22E8E14E3BA"",""assignmentId"":""672ce681-3c8c-4d54-8c90-12b57c82aa77"",""projectId"":""a0a8f18c-a66e-4ba7-a170-23efbdc67501""}","https://test12345.live/?participantId=8E88935E67134E86BCF0B22E8E14E3BA&assignmentId=672ce681-3c8c-4d54-8c90-12b57c82aa77&projectId=a0a8f18c-a66e-4ba7-a170-23efbdc67501","8E88935E67134E86BCF0B22E8E14E3BA-2024-11-24-18-38-19","","null","","images/instructions/movie_0.png","null","",""
"","","","","","image-button-response","9","159743","0.0-6.0-1.0-0.0","8E88935E67134E86BCF0B22E8E14E3BA","8E88935E67134E86BCF0B22E8E14E3BA","672ce681-3c8c-4d54-8c90-12b57c82aa77","a0a8f18c-a66e-4ba7-a170-23efbdc67501","{""participantId"":""8E88935E67134E86BCF0B22E8E14E3BA"",""assignmentId"":""672ce681-3c8c-4d54-8c90-12b57c82aa77"",""projectId"":""a0a8f18c-a66e-4ba7-a170-23efbdc67501""}","https://test12345.live/?participantId=8E88935E67134E86BCF0B22E8E14E3BA&assignmentId=672ce681-3c8c-4d54-8c90-12b57c82aa77&projectId=a0a8f18c-a66e-4ba7-a170-23efbdc67501","8E88935E67134E86BCF0B22E8E14E3BA-2024-11-24-18-38-19","","null","","images/instructions/movie_1.png","null","",""
"","","","","","image-button-response","10","163759","0.0-6.0-1.0-1.0","8E88935E67134E86BCF0B22E8E14E3BA","8E88935E67134E86BCF0B22E8E14E3BA","672ce681-3c8c-4d54-8c90-12b57c82aa77","a0a8f18c-a66e-4ba7-a170-23efbdc67501","{""participantId"":""8E88935E67134E86BCF0B22E8E14E3BA"",""assignmentId"":""672ce681-3c8c-4d54-8c90-12b57c82aa77"",""projectId"":""a0a8f18c-a66e-4ba7-a170-23efbdc67501""}","https://test12345.live/?participantId=8E88935E67134E86BCF0B22E8E14E3BA&assignmentId=672ce681-3c8c-4d54-8c90-12b57c82aa77&projectId=a0a8f18c-a66e-4ba7-a170-23efbdc67501","8E88935E67134E86BCF0B22E8E14E3BA-2024-11-24-18-38-19","","null","","images/instructions/movie_1.png","null","",""
"","","","","","image-button-response","11","165569","0.0-6.0-1.0-2.0","8E88935E67134E86BCF0B22E8E14E3BA","8E88935E67134E86BCF0B22E8E14E3BA","672ce681-3c8c-4d54-8c90-12b57c82aa77","a0a8f18c-a66e-4ba7-a170-23efbdc67501","{""participantId"":""8E88935E67134E86BCF0B22E8E14E3BA"",""assignmentId"":""672ce681-3c8c-4d54-8c90-12b57c82aa77"",""projectId"":""a0a8f18c-a66e-4ba7-a170-23efbdc67501""}","https://test12345.live/?participantId=8E88935E67134E86BCF0B22E8E14E3BA&assignmentId=672ce681-3c8c-4d54-8c90-12b57c82aa77&projectId=a0a8f18c-a66e-4ba7-a170-23efbdc67501","8E88935E67134E86BCF0B22E8E14E3BA-2024-11-24-18-38-19","","null","","[]","null","",""
"","","","","","image-button-response","12","170087","0.0-6.0-1.0-0.1","8E88935E67134E86BCF0B22E8E14E3BA","8E88935E67134E86BCF0B22E8E14E3BA","672ce681-3c8c-4d54-8c90-12b57c82aa77","a0a8f18c-a66e-4ba7-a170-23efbdc67501","{""participantId"":""8E88935E67134E86BCF0B22E8E14E3BA"",""assignmentId"":""672ce681-3c8c-4d54-8c90-12b57c82aa77"",""projectId"":""a0a8f18c-a66e-4ba7-a170-23efbdc67501""}","https://test12345.live/?participantId=8E88935E67134E86BCF0B22E8E14E3BA&assignmentId=672ce681-3c8c-4d54-8c90-12b57c82aa77&projectId=a0a8f18c-a66e-4ba7-a170-23efbdc67501","8E88935E67134E86BCF0B22E8E14E3BA-2024-11-24-18-38-19","","null","","images/instructions/movie_2.png","null","",""
"","","","","","image-button-response","13","171470","0.0-6.0-1.0-1.1","8E88935E67134E86BCF0B22E8E14E3BA","8E88935E67134E86BCF0B22E8E14E3BA","672ce681-3c8c-4d54-8c90-12b57c82aa77","a0a8f18c-a66e-4ba7-a170-23efbdc67501","{""participantId"":""8E88935E67134E86BCF0B22E8E14E3BA"",""assignmentId"":""672ce681-3c8c-4d54-8c90-12b57c82aa77"",""projectId"":""a0a8f18c-a66e-4ba7-a170-23efbdc67501""}","https://test12345.live/?participantId=8E88935E67134E86BCF0B22E8E14E3BA&assignmentId=672ce681-3c8c-4d54-8c90-12b57c82aa77&projectId=a0a8f18c-a66e-4ba7-a170-23efbdc67501","8E88935E67134E86BCF0B22E8E14E3BA-2024-11-24-18-38-19","","1381","","images/instructions/movie_2.png","0","",""
"","","","","","image-button-response","14","173287","0.0-6.0-1.0-2.1","8E88935E67134E86BCF0B22E8E14E3BA","8E88935E67134E86BCF0B22E8E14E3BA","672ce681-3c8c-4d54-8c90-12b57c82aa77","a0a8f18c-a66e-4ba7-a170-23efbdc67501","{""participantId"":""8E88935E67134E86BCF0B22E8E14E3BA"",""assignmentId"":""672ce681-3c8c-4d54-8c90-12b57c82aa77"",""projectId"":""a0a8f18c-a66e-4ba7-a170-23efbdc67501""}","https://test12345.live/?participantId=8E88935E67134E86BCF0B22E8E14E3BA&assignmentId=672ce681-3c8c-4d54-8c90-12b57c82aa77&projectId=a0a8f18c-a66e-4ba7-a170-23efbdc67501","8E88935E67134E86BCF0B22E8E14E3BA-2024-11-24-18-38-19","","null","","[]","null","",""
"","","","","","image-button-response","15","177788","0.0-6.0-1.0-0.2","8E88935E67134E86BCF0B22E8E14E3BA","8E88935E67134E86BCF0B22E8E14E3BA","672ce681-3c8c-4d54-8c90-12b57c82aa77","a0a8f18c-a66e-4ba7-a170-23efbdc67501","{""participantId"":""8E88935E67134E86BCF0B22E8E14E3BA"",""assignmentId"":""672ce681-3c8c-4d54-8c90-12b57c82aa77"",""projectId"":""a0a8f18c-a66e-4ba7-a170-23efbdc67501""}","https://test12345.live/?participantId=8E88935E67134E86BCF0B22E8E14E3BA&assignmentId=672ce681-3c8c-4d54-8c90-12b57c82aa77&projectId=a0a8f18c-a66e-4ba7-a170-23efbdc67501","8E88935E67134E86BCF0B22E8E14E3BA-2024-11-24-18-38-19","","null","","images/instructions/movie_3.png","null","",""
"","","","","","image-button-response","16","178729","0.0-6.0-1.0-1.2","8E88935E67134E86BCF0B22E8E14E3BA","8E88935E67134E86BCF0B22E8E14E3BA","672ce681-3c8c-4d54-8c90-12b57c82aa77","a0a8f18c-a66e-4ba7-a170-23efbdc67501","{""participantId"":""8E88935E67134E86BCF0B22E8E14E3BA"",""assignmentId"":""672ce681-3c8c-4d54-8c90-12b57c82aa77"",""projectId"":""a0a8f18c-a66e-4ba7-a170-23efbdc67501""}","https://test12345.live/?participantId=8E88935E67134E86BCF0B22E8E14E3BA&assignmentId=672ce681-3c8c-4d54-8c90-12b57c82aa77&projectId=a0a8f18c-a66e-4ba7-a170-23efbdc67501","8E88935E67134E86BCF0B22E8E14E3BA-2024-11-24-18-38-19","","939","","images/instructions/movie_3.png","0","",""
"","","","","","image-button-response","17","180540","0.0-6.0-1.0-2.2","8E88935E67134E86BCF0B22E8E14E3BA","8E88935E67134E86BCF0B22E8E14E3BA","672ce681-3c8c-4d54-8c90-12b57c82aa77","a0a8f18c-a66e-4ba7-a170-23efbdc67501","{""participantId"":""8E88935E67134E86BCF0B22E8E14E3BA"",""assignmentId"":""672ce681-3c8c-4d54-8c90-12b57c82aa77"",""projectId"":""a0a8f18c-a66e-4ba7-a170-23efbdc67501""}","https://test12345.live/?participantId=8E88935E67134E86BCF0B22E8E14E3BA&assignmentId=672ce681-3c8c-4d54-8c90-12b57c82aa77&projectId=a0a8f18c-a66e-4ba7-a170-23efbdc67501","8E88935E67134E86BCF0B22E8E14E3BA-2024-11-24-18-38-19","","null","","[]","null","",""
"","","","","","image-button-response","18","185048","0.0-6.0-1.0-0.3","8E88935E67134E86BCF0B22E8E14E3BA","8E88935E67134E86BCF0B22E8E14E3BA","672ce681-3c8c-4d54-8c90-12b57c82aa77","a0a8f18c-a66e-4ba7-a170-23efbdc67501","{""participantId"":""8E88935E67134E86BCF0B22E8E14E3BA"",""assignmentId"":""672ce681-3c8c-4d54-8c90-12b57c82aa77"",""projectId"":""a0a8f18c-a66e-4ba7-a170-23efbdc67501""}","https://test12345.live/?participantId=8E88935E67134E86BCF0B22E8E14E3BA&assignmentId=672ce681-3c8c-4d54-8c90-12b57c82aa77&projectId=a0a8f18c-a66e-4ba7-a170-23efbdc67501","8E88935E67134E86BCF0B22E8E14E3BA-2024-11-24-18-38-19","","null","","images/instructions/movie_4.png","null","",""
"","","","","","image-button-response","19","186675","0.0-6.0-1.0-1.3","8E88935E67134E86BCF0B22E8E14E3BA","8E88935E67134E86BCF0B22E8E14E3BA","672ce681-3c8c-4d54-8c90-12b57c82aa77","a0a8f18c-a66e-4ba7-a170-23efbdc67501","{""participantId"":""8E88935E67134E86BCF0B22E8E14E3BA"",""assignmentId"":""672ce681-3c8c-4d54-8c90-12b57c82aa77"",""projectId"":""a0a8f18c-a66e-4ba7-a170-23efbdc67501""}","https://test12345.live/?participantId=8E88935E67134E86BCF0B22E8E14E3BA&assignmentId=672ce681-3c8c-4d54-8c90-12b57c82aa77&projectId=a0a8f18c-a66e-4ba7-a170-23efbdc67501","8E88935E67134E86BCF0B22E8E14E3BA-2024-11-24-18-38-19","","1626","","images/instructions/movie_4.png","0","",""
"","","","","","image-button-response","20","188476","0.0-6.0-1.0-2.3","8E88935E67134E86BCF0B22E8E14E3BA","8E88935E67134E86BCF0B22E8E14E3BA","672ce681-3c8c-4d54-8c90-12b57c82aa77","a0a8f18c-a66e-4ba7-a170-23efbdc67501","{""participantId"":""8E88935E67134E86BCF0B22E8E14E3BA"",""assignmentId"":""672ce681-3c8c-4d54-8c90-12b57c82aa77"",""projectId"":""a0a8f18c-a66e-4ba7-a170-23efbdc67501""}","https://test12345.live/?participantId=8E88935E67134E86BCF0B22E8E14E3BA&assignmentId=672ce681-3c8c-4d54-8c90-12b57c82aa77&projectId=a0a8f18c-a66e-4ba7-a170-23efbdc67501","8E88935E67134E86BCF0B22E8E14E3BA-2024-11-24-18-38-19","","null","","[]","null","",""
"","","","","","instructions","21","201523","0.0-7.0","8E88935E67134E86BCF0B22E8E14E3BA","8E88935E67134E86BCF0B22E8E14E3BA","672ce681-3c8c-4d54-8c90-12b57c82aa77","a0a8f18c-a66e-4ba7-a170-23efbdc67501","{""participantId"":""8E88935E67134E86BCF0B22E8E14E3BA"",""assignmentId"":""672ce681-3c8c-4d54-8c90-12b57c82aa77"",""projectId"":""a0a8f18c-a66e-4ba7-a170-23efbdc67501""}","https://test12345.live/?participantId=8E88935E67134E86BCF0B22E8E14E3BA&assignmentId=672ce681-3c8c-4d54-8c90-12b57c82aa77&projectId=a0a8f18c-a66e-4ba7-a170-23efbdc67501","8E88935E67134E86BCF0B22E8E14E3BA-2024-11-24-18-38-19","[{""page_index"":0,""viewing_time"":11195},{""page_index"":1,""viewing_time"":1851}]","13047","","","","",""
"","","","","","html-audio-response","22","257203","0.0-8.0","8E88935E67134E86BCF0B22E8E14E3BA","8E88935E67134E86BCF0B22E8E14E3BA","672ce681-3c8c-4d54-8c90-12b57c82aa77","a0a8f18c-a66e-4ba7-a170-23efbdc67501","{""participantId"":""8E88935E67134E86BCF0B22E8E14E3BA"",""assignmentId"":""672ce681-3c8c-4d54-8c90-12b57c82aa77"",""projectId"":""a0a8f18c-a66e-4ba7-a170-23efbdc67501""}","https://test12345.live/?participantId=8E88935E67134E86BCF0B22E8E14E3BA&assignmentId=672ce681-3c8c-4d54-8c90-12b57c82aa77&projectId=a0a8f18c-a66e-4ba7-a170-23efbdc67501","8E88935E67134E86BCF0B22E8E14E3BA-2024-11-24-18-38-19","","18763","","[""<span style=\""color: red; font-size: 24px\""> NOW RECORDING</span><p>Please say out loud all the images you saw, as many as you can remember. The images can be said in any order.</p>""]","","3",""
"","","","","","instructions","23","259040","0.0-9.0","8E88935E67134E86BCF0B22E8E14E3BA","8E88935E67134E86BCF0B22E8E14E3BA","672ce681-3c8c-4d54-8c90-12b57c82aa77","a0a8f18c-a66e-4ba7-a170-23efbdc67501","{""participantId"":""8E88935E67134E86BCF0B22E8E14E3BA"",""assignmentId"":""672ce681-3c8c-4d54-8c90-12b57c82aa77"",""projectId"":""a0a8f18c-a66e-4ba7-a170-23efbdc67501""}","https://test12345.live/?participantId=8E88935E67134E86BCF0B22E8E14E3BA&assignmentId=672ce681-3c8c-4d54-8c90-12b57c82aa77&projectId=a0a8f18c-a66e-4ba7-a170-23efbdc67501","8E88935E67134E86BCF0B22E8E14E3BA-2024-11-24-18-38-19","[{""page_index"":0,""viewing_time"":1825}]","1825","","","","",""
"","","","","","image-button-response","24","265048","0.0-10.0-0.0","8E88935E67134E86BCF0B22E8E14E3BA","8E88935E67134E86BCF0B22E8E14E3BA","672ce681-3c8c-4d54-8c90-12b57c82aa77","a0a8f18c-a66e-4ba7-a170-23efbdc67501","{""participantId"":""8E88935E67134E86BCF0B22E8E14E3BA"",""assignmentId"":""672ce681-3c8c-4d54-8c90-12b57c82aa77"",""projectId"":""a0a8f18c-a66e-4ba7-a170-23efbdc67501""}","https://test12345.live/?participantId=8E88935E67134E86BCF0B22E8E14E3BA&assignmentId=672ce681-3c8c-4d54-8c90-12b57c82aa77&projectId=a0a8f18c-a66e-4ba7-a170-23efbdc67501","8E88935E67134E86BCF0B22E8E14E3BA-2024-11-24-18-38-19","","null","","images/causal_sequence/dog_causal/dog_causal_0.png","null","",""
"","","","","","image-button-response","25","269561","0.0-10.0-1.0-0.0","8E88935E67134E86BCF0B22E8E14E3BA","8E88935E67134E86BCF0B22E8E14E3BA","672ce681-3c8c-4d54-8c90-12b57c82aa77","a0a8f18c-a66e-4ba7-a170-23efbdc67501","{""participantId"":""8E88935E67134E86BCF0B22E8E14E3BA"",""assignmentId"":""672ce681-3c8c-4d54-8c90-12b57c82aa77"",""projectId"":""a0a8f18c-a66e-4ba7-a170-23efbdc67501""}","https://test12345.live/?participantId=8E88935E67134E86BCF0B22E8E14E3BA&assignmentId=672ce681-3c8c-4d54-8c90-12b57c82aa77&projectId=a0a8f18c-a66e-4ba7-a170-23efbdc67501","8E88935E67134E86BCF0B22E8E14E3BA-2024-11-24-18-38-19","","null","","images/causal_sequence/dog_causal/dog_causal_1.png","null","",""
"","","","","","image-button-response","26","271567","0.0-10.0-1.0-1.0","8E88935E67134E86BCF0B22E8E14E3BA","8E88935E67134E86BCF0B22E8E14E3BA","672ce681-3c8c-4d54-8c90-12b57c82aa77","a0a8f18c-a66e-4ba7-a170-23efbdc67501","{""participantId"":""8E88935E67134E86BCF0B22E8E14E3BA"",""assignmentId"":""672ce681-3c8c-4d54-8c90-12b57c82aa77"",""projectId"":""a0a8f18c-a66e-4ba7-a170-23efbdc67501""}","https://test12345.live/?participantId=8E88935E67134E86BCF0B22E8E14E3BA&assignmentId=672ce681-3c8c-4d54-8c90-12b57c82aa77&projectId=a0a8f18c-a66e-4ba7-a170-23efbdc67501","8E88935E67134E86BCF0B22E8E14E3BA-2024-11-24-18-38-19","","2003","","images/causal_sequence/dog_causal/dog_causal_1.png","0","",""
"","","","","","image-button-response","27","273370","0.0-10.0-1.0-2.0","8E88935E67134E86BCF0B22E8E14E3BA","8E88935E67134E86BCF0B22E8E14E3BA","672ce681-3c8c-4d54-8c90-12b57c82aa77","a0a8f18c-a66e-4ba7-a170-23efbdc67501","{""participantId"":""8E88935E67134E86BCF0B22E8E14E3BA"",""assignmentId"":""672ce681-3c8c-4d54-8c90-12b57c82aa77"",""projectId"":""a0a8f18c-a66e-4ba7-a170-23efbdc67501""}","https://test12345.live/?participantId=8E88935E67134E86BCF0B22E8E14E3BA&assignmentId=672ce681-3c8c-4d54-8c90-12b57c82aa77&projectId=a0a8f18c-a66e-4ba7-a170-23efbdc67501","8E88935E67134E86BCF0B22E8E14E3BA-2024-11-24-18-38-19","","null","","[]","null","",""
"","","","","","image-button-response","28","277881","0.0-10.0-1.0-0.1","8E88935E67134E86BCF0B22E8E14E3BA","8E88935E67134E86BCF0B22E8E14E3BA","672ce681-3c8c-4d54-8c90-12b57c82aa77","a0a8f18c-a66e-4ba7-a170-23efbdc67501","{""participantId"":""8E88935E67134E86BCF0B22E8E14E3BA"",""assignmentId"":""672ce681-3c8c-4d54-8c90-12b57c82aa77"",""projectId"":""a0a8f18c-a66e-4ba7-a170-23efbdc67501""}","https://test12345.live/?participantId=8E88935E67134E86BCF0B22E8E14E3BA&assignmentId=672ce681-3c8c-4d54-8c90-12b57c82aa77&projectId=a0a8f18c-a66e-4ba7-a170-23efbdc67501","8E88935E67134E86BCF0B22E8E14E3BA-2024-11-24-18-38-19","","null","","images/causal_sequence/dog_causal/dog_causal_2.png","null","",""
"","","","","","image-button-response","29","280633","0.0-10.0-1.0-1.1","8E88935E67134E86BCF0B22E8E14E3BA","8E88935E67134E86BCF0B22E8E14E3BA","672ce681-3c8c-4d54-8c90-12b57c82aa77","a0a8f18c-a66e-4ba7-a170-23efbdc67501","{""participantId"":""8E88935E67134E86BCF0B22E8E14E3BA"",""assignmentId"":""672ce681-3c8c-4d54-8c90-12b57c82aa77"",""projectId"":""a0a8f18c-a66e-4ba7-a170-23efbdc67501""}","https://test12345.live/?participantId=8E88935E67134E86BCF0B22E8E14E3BA&assignmentId=672ce681-3c8c-4d54-8c90-12b57c82aa77&projectId=a0a8f18c-a66e-4ba7-a170-23efbdc67501","8E88935E67134E86BCF0B22E8E14E3BA-2024-11-24-18-38-19","","2749","","images/causal_sequence/dog_causal/dog_causal_2.png","0","",""
"","","","","","image-button-response","30","282442","0.0-10.0-1.0-2.1","8E88935E67134E86BCF0B22E8E14E3BA","8E88935E67134E86BCF0B22E8E14E3BA","672ce681-3c8c-4d54-8c90-12b57c82aa77","a0a8f18c-a66e-4ba7-a170-23efbdc67501","{""participantId"":""8E88935E67134E86BCF0B22E8E14E3BA"",""assignmentId"":""672ce681-3c8c-4d54-8c90-12b57c82aa77"",""projectId"":""a0a8f18c-a66e-4ba7-a170-23efbdc67501""}","https://test12345.live/?participantId=8E88935E67134E86BCF0B22E8E14E3BA&assignmentId=672ce681-3c8c-4d54-8c90-12b57c82aa77&projectId=a0a8f18c-a66e-4ba7-a170-23efbdc67501","8E88935E67134E86BCF0B22E8E14E3BA-2024-11-24-18-38-19","","null","","[]","null","",""
"","","","","","image-button-response","31","286948","0.0-10.0-1.0-0.2","8E88935E67134E86BCF0B22E8E14E3BA","8E88935E67134E86BCF0B22E8E14E3BA","672ce681-3c8c-4d54-8c90-12b57c82aa77","a0a8f18c-a66e-4ba7-a170-23efbdc67501","{""participantId"":""8E88935E67134E86BCF0B22E8E14E3BA"",""assignmentId"":""672ce681-3c8c-4d54-8c90-12b57c82aa77"",""projectId"":""a0a8f18c-a66e-4ba7-a170-23efbdc67501""}","https://test12345.live/?participantId=8E88935E67134E86BCF0B22E8E14E3BA&assignmentId=672ce681-3c8c-4d54-8c90-12b57c82aa77&projectId=a0a8f18c-a66e-4ba7-a170-23efbdc67501","8E88935E67134E86BCF0B22E8E14E3BA-2024-11-24-18-38-19","","null","","images/causal_sequence/dog_causal/dog_causal_3.png","null","",""
"","","","","","image-button-response","32","288327","0.0-10.0-1.0-1.2","8E88935E67134E86BCF0B22E8E14E3BA","8E88935E67134E86BCF0B22E8E14E3BA","672ce681-3c8c-4d54-8c90-12b57c82aa77","a0a8f18c-a66e-4ba7-a170-23efbdc67501","{""participantId"":""8E88935E67134E86BCF0B22E8E14E3BA"",""assignmentId"":""672ce681-3c8c-4d54-8c90-12b57c82aa77"",""projectId"":""a0a8f18c-a66e-4ba7-a170-23efbdc67501""}","https://test12345.live/?participantId=8E88935E67134E86BCF0B22E8E14E3BA&assignmentId=672ce681-3c8c-4d54-8c90-12b57c82aa77&projectId=a0a8f18c-a66e-4ba7-a170-23efbdc67501","8E88935E67134E86BCF0B22E8E14E3BA-2024-11-24-18-38-19","","1376","","images/causal_sequence/dog_causal/dog_causal_3.png","0","",""
"","","","","","image-button-response","33","290137","0.0-10.0-1.0-2.2","8E88935E67134E86BCF0B22E8E14E3BA","8E88935E67134E86BCF0B22E8E14E3BA","672ce681-3c8c-4d54-8c90-12b57c82aa77","a0a8f18c-a66e-4ba7-a170-23efbdc67501","{""participantId"":""8E88935E67134E86BCF0B22E8E14E3BA"",""assignmentId"":""672ce681-3c8c-4d54-8c90-12b57c82aa77"",""projectId"":""a0a8f18c-a66e-4ba7-a170-23efbdc67501""}","https://test12345.live/?participantId=8E88935E67134E86BCF0B22E8E14E3BA&assignmentId=672ce681-3c8c-4d54-8c90-12b57c82aa77&projectId=a0a8f18c-a66e-4ba7-a170-23efbdc67501","8E88935E67134E86BCF0B22E8E14E3BA-2024-11-24-18-38-19","","null","","[]","null","",""
"","","","","","image-button-response","34","294651","0.0-10.0-1.0-0.3","8E88935E67134E86BCF0B22E8E14E3BA","8E88935E67134E86BCF0B22E8E14E3BA","672ce681-3c8c-4d54-8c90-12b57c82aa77","a0a8f18c-a66e-4ba7-a170-23efbdc67501","{""participantId"":""8E88935E67134E86BCF0B22E8E14E3BA"",""assignmentId"":""672ce681-3c8c-4d54-8c90-12b57c82aa77"",""projectId"":""a0a8f18c-a66e-4ba7-a170-23efbdc67501""}","https://test12345.live/?participantId=8E88935E67134E86BCF0B22E8E14E3BA&assignmentId=672ce681-3c8c-4d54-8c90-12b57c82aa77&projectId=a0a8f18c-a66e-4ba7-a170-23efbdc67501","8E88935E67134E86BCF0B22E8E14E3BA-2024-11-24-18-38-19","","null","","images/causal_sequence/dog_causal/dog_causal_4.png","null","",""
"","","","","","image-button-response","35","296840","0.0-10.0-1.0-1.3","8E88935E67134E86BCF0B22E8E14E3BA","8E88935E67134E86BCF0B22E8E14E3BA","672ce681-3c8c-4d54-8c90-12b57c82aa77","a0a8f18c-a66e-4ba7-a170-23efbdc67501","{""participantId"":""8E88935E67134E86BCF0B22E8E14E3BA"",""assignmentId"":""672ce681-3c8c-4d54-8c90-12b57c82aa77"",""projectId"":""a0a8f18c-a66e-4ba7-a170-23efbdc67501""}","https://test12345.live/?participantId=8E88935E67134E86BCF0B22E8E14E3BA&assignmentId=672ce681-3c8c-4d54-8c90-12b57c82aa77&projectId=a0a8f18c-a66e-4ba7-a170-23efbdc67501","8E88935E67134E86BCF0B22E8E14E3BA-2024-11-24-18-38-19","","2187","","images/causal_sequence/dog_causal/dog_causal_4.png","0","",""
"","","","","","image-button-response","36","298646","0.0-10.0-1.0-2.3","8E88935E67134E86BCF0B22E8E14E3BA","8E88935E67134E86BCF0B22E8E14E3BA","672ce681-3c8c-4d54-8c90-12b57c82aa77","a0a8f18c-a66e-4ba7-a170-23efbdc67501","{""participantId"":""8E88935E67134E86BCF0B22E8E14E3BA"",""assignmentId"":""672ce681-3c8c-4d54-8c90-12b57c82aa77"",""projectId"":""a0a8f18c-a66e-4ba7-a170-23efbdc67501""}","https://test12345.live/?participantId=8E88935E67134E86BCF0B22E8E14E3BA&assignmentId=672ce681-3c8c-4d54-8c90-12b57c82aa77&projectId=a0a8f18c-a66e-4ba7-a170-23efbdc67501","8E88935E67134E86BCF0B22E8E14E3BA-2024-11-24-18-38-19","","null","","[]","null","",""
"","","","","","image-button-response","37","303151","0.0-10.0-1.0-0.4","8E88935E67134E86BCF0B22E8E14E3BA","8E88935E67134E86BCF0B22E8E14E3BA","672ce681-3c8c-4d54-8c90-12b57c82aa77","a0a8f18c-a66e-4ba7-a170-23efbdc67501","{""participantId"":""8E88935E67134E86BCF0B22E8E14E3BA"",""assignmentId"":""672ce681-3c8c-4d54-8c90-12b57c82aa77"",""projectId"":""a0a8f18c-a66e-4ba7-a170-23efbdc67501""}","https://test12345.live/?participantId=8E88935E67134E86BCF0B22E8E14E3BA&assignmentId=672ce681-3c8c-4d54-8c90-12b57c82aa77&projectId=a0a8f18c-a66e-4ba7-a170-23efbdc67501","8E88935E67134E86BCF0B22E8E14E3BA-2024-11-24-18-38-19","","null","","images/causal_sequence/dog_causal/dog_causal_5.png","null","",""
"","","","","","image-button-response","38","304295","0.0-10.0-1.0-1.4","8E88935E67134E86BCF0B22E8E14E3BA","8E88935E67134E86BCF0B22E8E14E3BA","672ce681-3c8c-4d54-8c90-12b57c82aa77","a0a8f18c-a66e-4ba7-a170-23efbdc67501","{""participantId"":""8E88935E67134E86BCF0B22E8E14E3BA"",""assignmentId"":""672ce681-3c8c-4d54-8c90-12b57c82aa77"",""projectId"":""a0a8f18c-a66e-4ba7-a170-23efbdc67501""}","https://test12345.live/?participantId=8E88935E67134E86BCF0B22E8E14E3BA&assignmentId=672ce681-3c8c-4d54-8c90-12b57c82aa77&projectId=a0a8f18c-a66e-4ba7-a170-23efbdc67501","8E88935E67134E86BCF0B22E8E14E3BA-2024-11-24-18-38-19","","1143","","images/causal_sequence/dog_causal/dog_causal_5.png","0","",""
"","","","","","image-button-response","39","306102","0.0-10.0-1.0-2.4","8E88935E67134E86BCF0B22E8E14E3BA","8E88935E67134E86BCF0B22E8E14E3BA","672ce681-3c8c-4d54-8c90-12b57c82aa77","a0a8f18c-a66e-4ba7-a170-23efbdc67501","{""participantId"":""8E88935E67134E86BCF0B22E8E14E3BA"",""assignmentId"":""672ce681-3c8c-4d54-8c90-12b57c82aa77"",""projectId"":""a0a8f18c-a66e-4ba7-a170-23efbdc67501""}","https://test12345.live/?participantId=8E88935E67134E86BCF0B22E8E14E3BA&assignmentId=672ce681-3c8c-4d54-8c90-12b57c82aa77&projectId=a0a8f18c-a66e-4ba7-a170-23efbdc67501","8E88935E67134E86BCF0B22E8E14E3BA-2024-11-24-18-38-19","","null","","[]","null","",""
"","","","","","image-button-response","40","310615","0.0-10.0-1.0-0.5","8E88935E67134E86BCF0B22E8E14E3BA","8E88935E67134E86BCF0B22E8E14E3BA","672ce681-3c8c-4d54-8c90-12b57c82aa77","a0a8f18c-a66e-4ba7-a170-23efbdc67501","{""participantId"":""8E88935E67134E86BCF0B22E8E14E3BA"",""assignmentId"":""672ce681-3c8c-4d54-8c90-12b57c82aa77"",""projectId"":""a0a8f18c-a66e-4ba7-a170-23efbdc67501""}","https://test12345.live/?participantId=8E88935E67134E86BCF0B22E8E14E3BA&assignmentId=672ce681-3c8c-4d54-8c90-12b57c82aa77&projectId=a0a8f18c-a66e-4ba7-a170-23efbdc67501","8E88935E67134E86BCF0B22E8E14E3BA-2024-11-24-18-38-19","","null","","images/causal_sequence/dog_causal/dog_causal_6.png","null","",""
"","","","","","image-button-response","41","314410","0.0-10.0-1.0-1.5","8E88935E67134E86BCF0B22E8E14E3BA","8E88935E67134E86BCF0B22E8E14E3BA","672ce681-3c8c-4d54-8c90-12b57c82aa77","a0a8f18c-a66e-4ba7-a170-23efbdc67501","{""participantId"":""8E88935E67134E86BCF0B22E8E14E3BA"",""assignmentId"":""672ce681-3c8c-4d54-8c90-12b57c82aa77"",""projectId"":""a0a8f18c-a66e-4ba7-a170-23efbdc67501""}","https://test12345.live/?participantId=8E88935E67134E86BCF0B22E8E14E3BA&assignmentId=672ce681-3c8c-4d54-8c90-12b57c82aa77&projectId=a0a8f18c-a66e-4ba7-a170-23efbdc67501","8E88935E67134E86BCF0B22E8E14E3BA-2024-11-24-18-38-19","","3792","","images/causal_sequence/dog_causal/dog_causal_6.png","0","",""
"","","","","","image-button-response","42","316224","0.0-10.0-1.0-2.5","8E88935E67134E86BCF0B22E8E14E3BA","8E88935E67134E86BCF0B22E8E14E3BA","672ce681-3c8c-4d54-8c90-12b57c82aa77","a0a8f18c-a66e-4ba7-a170-23efbdc67501","{""participantId"":""8E88935E67134E86BCF0B22E8E14E3BA"",""assignmentId"":""672ce681-3c8c-4d54-8c90-12b57c82aa77"",""projectId"":""a0a8f18c-a66e-4ba7-a170-23efbdc67501""}","https://test12345.live/?participantId=8E88935E67134E86BCF0B22E8E14E3BA&assignmentId=672ce681-3c8c-4d54-8c90-12b57c82aa77&projectId=a0a8f18c-a66e-4ba7-a170-23efbdc67501","8E88935E67134E86BCF0B22E8E14E3BA-2024-11-24-18-38-19","","null","","[]","null","",""
"","","","","","image-button-response","43","320731","0.0-10.0-1.0-0.6","8E88935E67134E86BCF0B22E8E14E3BA","8E88935E67134E86BCF0B22E8E14E3BA","672ce681-3c8c-4d54-8c90-12b57c82aa77","a0a8f18c-a66e-4ba7-a170-23efbdc67501","{""participantId"":""8E88935E67134E86BCF0B22E8E14E3BA"",""assignmentId"":""672ce681-3c8c-4d54-8c90-12b57c82aa77"",""projectId"":""a0a8f18c-a66e-4ba7-a170-23efbdc67501""}","https://test12345.live/?participantId=8E88935E67134E86BCF0B22E8E14E3BA&assignmentId=672ce681-3c8c-4d54-8c90-12b57c82aa77&projectId=a0a8f18c-a66e-4ba7-a170-23efbdc67501","8E88935E67134E86BCF0B22E8E14E3BA-2024-11-24-18-38-19","","null","","images/causal_sequence/dog_causal/dog_causal_7.png","null","",""
"","","","","","image-button-response","44","322351","0.0-10.0-1.0-1.6","8E88935E67134E86BCF0B22E8E14E3BA","8E88935E67134E86BCF0B22E8E14E3BA","672ce681-3c8c-4d54-8c90-12b57c82aa77","a0a8f18c-a66e-4ba7-a170-23efbdc67501","{""participantId"":""8E88935E67134E86BCF0B22E8E14E3BA"",""assignmentId"":""672ce681-3c8c-4d54-8c90-12b57c82aa77"",""projectId"":""a0a8f18c-a66e-4ba7-a170-23efbdc67501""}","https://test12345.live/?participantId=8E88935E67134E86BCF0B22E8E14E3BA&assignmentId=672ce681-3c8c-4d54-8c90-12b57c82aa77&projectId=a0a8f18c-a66e-4ba7-a170-23efbdc67501","8E88935E67134E86BCF0B22E8E14E3BA-2024-11-24-18-38-19","","1617","","images/causal_sequence/dog_causal/dog_causal_7.png","0","",""
"","","","","","image-button-response","45","324162","0.0-10.0-1.0-2.6","8E88935E67134E86BCF0B22E8E14E3BA","8E88935E67134E86BCF0B22E8E14E3BA","672ce681-3c8c-4d54-8c90-12b57c82aa77","a0a8f18c-a66e-4ba7-a170-23efbdc67501","{""participantId"":""8E88935E67134E86BCF0B22E8E14E3BA"",""assignmentId"":""672ce681-3c8c-4d54-8c90-12b57c82aa77"",""projectId"":""a0a8f18c-a66e-4ba7-a170-23efbdc67501""}","https://test12345.live/?participantId=8E88935E67134E86BCF0B22E8E14E3BA&assignmentId=672ce681-3c8c-4d54-8c90-12b57c82aa77&projectId=a0a8f18c-a66e-4ba7-a170-23efbdc67501","8E88935E67134E86BCF0B22E8E14E3BA-2024-11-24-18-38-19","","null","","[]","null","",""
"","","","","","image-button-response","46","328666","0.0-10.0-1.0-0.7","8E88935E67134E86BCF0B22E8E14E3BA","8E88935E67134E86BCF0B22E8E14E3BA","672ce681-3c8c-4d54-8c90-12b57c82aa77","a0a8f18c-a66e-4ba7-a170-23efbdc67501","{""participantId"":""8E88935E67134E86BCF0B22E8E14E3BA"",""assignmentId"":""672ce681-3c8c-4d54-8c90-12b57c82aa77"",""projectId"":""a0a8f18c-a66e-4ba7-a170-23efbdc67501""}","https://test12345.live/?participantId=8E88935E67134E86BCF0B22E8E14E3BA&assignmentId=672ce681-3c8c-4d54-8c90-12b57c82aa77&projectId=a0a8f18c-a66e-4ba7-a170-23efbdc67501","8E88935E67134E86BCF0B22E8E14E3BA-2024-11-24-18-38-19","","null","","images/causal_sequence/dog_causal/dog_causal_8.png","null","",""
"","","","","","image-button-response","47","331226","0.0-10.0-1.0-1.7","8E88935E67134E86BCF0B22E8E14E3BA","8E88935E67134E86BCF0B22E8E14E3BA","672ce681-3c8c-4d54-8c90-12b57c82aa77","a0a8f18c-a66e-4ba7-a170-23efbdc67501","{""participantId"":""8E88935E67134E86BCF0B22E8E14E3BA"",""assignmentId"":""672ce681-3c8c-4d54-8c90-12b57c82aa77"",""projectId"":""a0a8f18c-a66e-4ba7-a170-23efbdc67501""}","https://test12345.live/?participantId=8E88935E67134E86BCF0B22E8E14E3BA&assignmentId=672ce681-3c8c-4d54-8c90-12b57c82aa77&projectId=a0a8f18c-a66e-4ba7-a170-23efbdc67501","8E88935E67134E86BCF0B22E8E14E3BA-2024-11-24-18-38-19","","2558","","images/causal_sequence/dog_causal/dog_causal_8.png","0","",""
"","","","","","image-button-response","48","333031","0.0-10.0-1.0-2.7","8E88935E67134E86BCF0B22E8E14E3BA","8E88935E67134E86BCF0B22E8E14E3BA","672ce681-3c8c-4d54-8c90-12b57c82aa77","a0a8f18c-a66e-4ba7-a170-23efbdc67501","{""participantId"":""8E88935E67134E86BCF0B22E8E14E3BA"",""assignmentId"":""672ce681-3c8c-4d54-8c90-12b57c82aa77"",""projectId"":""a0a8f18c-a66e-4ba7-a170-23efbdc67501""}","https://test12345.live/?participantId=8E88935E67134E86BCF0B22E8E14E3BA&assignmentId=672ce681-3c8c-4d54-8c90-12b57c82aa77&projectId=a0a8f18c-a66e-4ba7-a170-23efbdc67501","8E88935E67134E86BCF0B22E8E14E3BA-2024-11-24-18-38-19","","null","","[]","null","",""
"","","","","","image-button-response","49","337536","0.0-10.0-1.0-0.8","8E88935E67134E86BCF0B22E8E14E3BA","8E88935E67134E86BCF0B22E8E14E3BA","672ce681-3c8c-4d54-8c90-12b57c82aa77","a0a8f18c-a66e-4ba7-a170-23efbdc67501","{""participantId"":""8E88935E67134E86BCF0B22E8E14E3BA"",""assignmentId"":""672ce681-3c8c-4d54-8c90-12b57c82aa77"",""projectId"":""a0a8f18c-a66e-4ba7-a170-23efbdc67501""}","https://test12345.live/?participantId=8E88935E67134E86BCF0B22E8E14E3BA&assignmentId=672ce681-3c8c-4d54-8c90-12b57c82aa77&projectId=a0a8f18c-a66e-4ba7-a170-23efbdc67501","8E88935E67134E86BCF0B22E8E14E3BA-2024-11-24-18-38-19","","null","","images/causal_sequence/dog_causal/dog_causal_9.png","null","",""
"","","","","","image-button-response","50","339587","0.0-10.0-1.0-1.8","8E88935E67134E86BCF0B22E8E14E3BA","8E88935E67134E86BCF0B22E8E14E3BA","672ce681-3c8c-4d54-8c90-12b57c82aa77","a0a8f18c-a66e-4ba7-a170-23efbdc67501","{""participantId"":""8E88935E67134E86BCF0B22E8E14E3BA"",""assignmentId"":""672ce681-3c8c-4d54-8c90-12b57c82aa77"",""projectId"":""a0a8f18c-a66e-4ba7-a170-23efbdc67501""}","https://test12345.live/?participantId=8E88935E67134E86BCF0B22E8E14E3BA&assignmentId=672ce681-3c8c-4d54-8c90-12b57c82aa77&projectId=a0a8f18c-a66e-4ba7-a170-23efbdc67501","8E88935E67134E86BCF0B22E8E14E3BA-2024-11-24-18-38-19","","2050","","images/causal_sequence/dog_causal/dog_causal_9.png","0","",""
"","","","","","image-button-response","51","341405","0.0-10.0-1.0-2.8","8E88935E67134E86BCF0B22E8E14E3BA","8E88935E67134E86BCF0B22E8E14E3BA","672ce681-3c8c-4d54-8c90-12b57c82aa77","a0a8f18c-a66e-4ba7-a170-23efbdc67501","{""participantId"":""8E88935E67134E86BCF0B22E8E14E3BA"",""assignmentId"":""672ce681-3c8c-4d54-8c90-12b57c82aa77"",""projectId"":""a0a8f18c-a66e-4ba7-a170-23efbdc67501""}","https://test12345.live/?participantId=8E88935E67134E86BCF0B22E8E14E3BA&assignmentId=672ce681-3c8c-4d54-8c90-12b57c82aa77&projectId=a0a8f18c-a66e-4ba7-a170-23efbdc67501","8E88935E67134E86BCF0B22E8E14E3BA-2024-11-24-18-38-19","","null","","[]","null","",""
"","","","","","image-button-response","52","345908","0.0-10.0-1.0-0.9","8E88935E67134E86BCF0B22E8E14E3BA","8E88935E67134E86BCF0B22E8E14E3BA","672ce681-3c8c-4d54-8c90-12b57c82aa77","a0a8f18c-a66e-4ba7-a170-23efbdc67501","{""participantId"":""8E88935E67134E86BCF0B22E8E14E3BA"",""assignmentId"":""672ce681-3c8c-4d54-8c90-12b57c82aa77"",""projectId"":""a0a8f18c-a66e-4ba7-a170-23efbdc67501""}","https://test12345.live/?participantId=8E88935E67134E86BCF0B22E8E14E3BA&assignmentId=672ce681-3c8c-4d54-8c90-12b57c82aa77&projectId=a0a8f18c-a66e-4ba7-a170-23efbdc67501","8E88935E67134E86BCF0B22E8E14E3BA-2024-11-24-18-38-19","","null","","images/causal_sequence/dog_causal/dog_causal_ten.png","null","",""
"","","","","","image-button-response","53","348983","0.0-10.0-1.0-1.9","8E88935E67134E86BCF0B22E8E14E3BA","8E88935E67134E86BCF0B22E8E14E3BA","672ce681-3c8c-4d54-8c90-12b57c82aa77","a0a8f18c-a66e-4ba7-a170-23efbdc67501","{""participantId"":""8E88935E67134E86BCF0B22E8E14E3BA"",""assignmentId"":""672ce681-3c8c-4d54-8c90-12b57c82aa77"",""projectId"":""a0a8f18c-a66e-4ba7-a170-23efbdc67501""}","https://test12345.live/?participantId=8E88935E67134E86BCF0B22E8E14E3BA&assignmentId=672ce681-3c8c-4d54-8c90-12b57c82aa77&projectId=a0a8f18c-a66e-4ba7-a170-23efbdc67501","8E88935E67134E86BCF0B22E8E14E3BA-2024-11-24-18-38-19","","3071","","images/causal_sequence/dog_causal/dog_causal_ten.png","0","",""
"","","","","","image-button-response","54","350800","0.0-10.0-1.0-2.9","8E88935E67134E86BCF0B22E8E14E3BA","8E88935E67134E86BCF0B22E8E14E3BA","672ce681-3c8c-4d54-8c90-12b57c82aa77","a0a8f18c-a66e-4ba7-a170-23efbdc67501","{""participantId"":""8E88935E67134E86BCF0B22E8E14E3BA"",""assignmentId"":""672ce681-3c8c-4d54-8c90-12b57c82aa77"",""projectId"":""a0a8f18c-a66e-4ba7-a170-23efbdc67501""}","https://test12345.live/?participantId=8E88935E67134E86BCF0B22E8E14E3BA&assignmentId=672ce681-3c8c-4d54-8c90-12b57c82aa77&projectId=a0a8f18c-a66e-4ba7-a170-23efbdc67501","8E88935E67134E86BCF0B22E8E14E3BA-2024-11-24-18-38-19","","null","","[]","null","",""
"","","","","","html-audio-response","55","412522","0.0-11.0","8E88935E67134E86BCF0B22E8E14E3BA","8E88935E67134E86BCF0B22E8E14E3BA","672ce681-3c8c-4d54-8c90-12b57c82aa77","a0a8f18c-a66e-4ba7-a170-23efbdc67501","{""participantId"":""8E88935E67134E86BCF0B22E8E14E3BA"",""assignmentId"":""672ce681-3c8c-4d54-8c90-12b57c82aa77"",""projectId"":""a0a8f18c-a66e-4ba7-a170-23efbdc67501""}","https://test12345.live/?participantId=8E88935E67134E86BCF0B22E8E14E3BA&assignmentId=672ce681-3c8c-4d54-8c90-12b57c82aa77&projectId=a0a8f18c-a66e-4ba7-a170-23efbdc67501","8E88935E67134E86BCF0B22E8E14E3BA-2024-11-24-18-38-19","","2769","","[""<span style=\""color: red; font-size: 24px\""> NOW RECORDING</span><p>Please say out loud all the images you saw, as many as you can remember. The images can be said in any order.</p>""]","","1","dog_causal"
"","","","","","image-button-response","56","418549","0.0-12.0-0.0","8E88935E67134E86BCF0B22E8E14E3BA","8E88935E67134E86BCF0B22E8E14E3BA","672ce681-3c8c-4d54-8c90-12b57c82aa77","a0a8f18c-a66e-4ba7-a170-23efbdc67501","{""participantId"":""8E88935E67134E86BCF0B22E8E14E3BA"",""assignmentId"":""672ce681-3c8c-4d54-8c90-12b57c82aa77"",""projectId"":""a0a8f18c-a66e-4ba7-a170-23efbdc67501""}","https://test12345.live/?participantId=8E88935E67134E86BCF0B22E8E14E3BA&assignmentId=672ce681-3c8c-4d54-8c90-12b57c82aa77&projectId=a0a8f18c-a66e-4ba7-a170-23efbdc67501","8E88935E67134E86BCF0B22E8E14E3BA-2024-11-24-18-38-19","","null","","images/schematic_sequence/flight_scheme/flight_scheme_0.png","null","",""
"","","","","","image-button-response","57","423055","0.0-12.0-1.0-0.0","8E88935E67134E86BCF0B22E8E14E3BA","8E88935E67134E86BCF0B22E8E14E3BA","672ce681-3c8c-4d54-8c90-12b57c82aa77","a0a8f18c-a66e-4ba7-a170-23efbdc67501","{""participantId"":""8E88935E67134E86BCF0B22E8E14E3BA"",""assignmentId"":""672ce681-3c8c-4d54-8c90-12b57c82aa77"",""projectId"":""a0a8f18c-a66e-4ba7-a170-23efbdc67501""}","https://test12345.live/?participantId=8E88935E67134E86BCF0B22E8E14E3BA&assignmentId=672ce681-3c8c-4d54-8c90-12b57c82aa77&projectId=a0a8f18c-a66e-4ba7-a170-23efbdc67501","8E88935E67134E86BCF0B22E8E14E3BA-2024-11-24-18-38-19","","null","","images/schematic_sequence/flight_scheme/flight_scheme_1.png","null","",""
"","","","","","image-button-response","58","427060","0.0-12.0-1.0-1.0","8E88935E67134E86BCF0B22E8E14E3BA","8E88935E67134E86BCF0B22E8E14E3BA","672ce681-3c8c-4d54-8c90-12b57c82aa77","a0a8f18c-a66e-4ba7-a170-23efbdc67501","{""participantId"":""8E88935E67134E86BCF0B22E8E14E3BA"",""assignmentId"":""672ce681-3c8c-4d54-8c90-12b57c82aa77"",""projectId"":""a0a8f18c-a66e-4ba7-a170-23efbdc67501""}","https://test12345.live/?participantId=8E88935E67134E86BCF0B22E8E14E3BA&assignmentId=672ce681-3c8c-4d54-8c90-12b57c82aa77&projectId=a0a8f18c-a66e-4ba7-a170-23efbdc67501","8E88935E67134E86BCF0B22E8E14E3BA-2024-11-24-18-38-19","","null","","images/schematic_sequence/flight_scheme/flight_scheme_1.png","null","",""
"","","","","","image-button-response","59","428868","0.0-12.0-1.0-2.0","8E88935E67134E86BCF0B22E8E14E3BA","8E88935E67134E86BCF0B22E8E14E3BA","672ce681-3c8c-4d54-8c90-12b57c82aa77","a0a8f18c-a66e-4ba7-a170-23efbdc67501","{""participantId"":""8E88935E67134E86BCF0B22E8E14E3BA"",""assignmentId"":""672ce681-3c8c-4d54-8c90-12b57c82aa77"",""projectId"":""a0a8f18c-a66e-4ba7-a170-23efbdc67501""}","https://test12345.live/?participantId=8E88935E67134E86BCF0B22E8E14E3BA&assignmentId=672ce681-3c8c-4d54-8c90-12b57c82aa77&projectId=a0a8f18c-a66e-4ba7-a170-23efbdc67501","8E88935E67134E86BCF0B22E8E14E3BA-2024-11-24-18-38-19","","null","","[]","null","",""
"","","","","","image-button-response","60","433377","0.0-12.0-1.0-0.1","8E88935E67134E86BCF0B22E8E14E3BA","8E88935E67134E86BCF0B22E8E14E3BA","672ce681-3c8c-4d54-8c90-12b57c82aa77","a0a8f18c-a66e-4ba7-a170-23efbdc67501","{""participantId"":""8E88935E67134E86BCF0B22E8E14E3BA"",""assignmentId"":""672ce681-3c8c-4d54-8c90-12b57c82aa77"",""projectId"":""a0a8f18c-a66e-4ba7-a170-23efbdc67501""}","https://test12345.live/?participantId=8E88935E67134E86BCF0B22E8E14E3BA&assignmentId=672ce681-3c8c-4d54-8c90-12b57c82aa77&projectId=a0a8f18c-a66e-4ba7-a170-23efbdc67501","8E88935E67134E86BCF0B22E8E14E3BA-2024-11-24-18-38-19","","null","","images/schematic_sequence/flight_scheme/flight_scheme_2.png","null","",""
"","","","","","image-button-response","61","435489","0.0-12.0-1.0-1.1","8E88935E67134E86BCF0B22E8E14E3BA","8E88935E67134E86BCF0B22E8E14E3BA","672ce681-3c8c-4d54-8c90-12b57c82aa77","a0a8f18c-a66e-4ba7-a170-23efbdc67501","{""participantId"":""8E88935E67134E86BCF0B22E8E14E3BA"",""assignmentId"":""672ce681-3c8c-4d54-8c90-12b57c82aa77"",""projectId"":""a0a8f18c-a66e-4ba7-a170-23efbdc67501""}","https://test12345.live/?participantId=8E88935E67134E86BCF0B22E8E14E3BA&assignmentId=672ce681-3c8c-4d54-8c90-12b57c82aa77&projectId=a0a8f18c-a66e-4ba7-a170-23efbdc67501","8E88935E67134E86BCF0B22E8E14E3BA-2024-11-24-18-38-19","","2109","","images/schematic_sequence/flight_scheme/flight_scheme_2.png","1","",""
"","","","","","image-button-response","62","437303","0.0-12.0-1.0-2.1","8E88935E67134E86BCF0B22E8E14E3BA","8E88935E67134E86BCF0B22E8E14E3BA","672ce681-3c8c-4d54-8c90-12b57c82aa77","a0a8f18c-a66e-4ba7-a170-23efbdc67501","{""participantId"":""8E88935E67134E86BCF0B22E8E14E3BA"",""assignmentId"":""672ce681-3c8c-4d54-8c90-12b57c82aa77"",""projectId"":""a0a8f18c-a66e-4ba7-a170-23efbdc67501""}","https://test12345.live/?participantId=8E88935E67134E86BCF0B22E8E14E3BA&assignmentId=672ce681-3c8c-4d54-8c90-12b57c82aa77&projectId=a0a8f18c-a66e-4ba7-a170-23efbdc67501","8E88935E67134E86BCF0B22E8E14E3BA-2024-11-24-18-38-19","","null","","[]","null","",""
"","","","","","image-button-response","63","441805","0.0-12.0-1.0-0.2","8E88935E67134E86BCF0B22E8E14E3BA","8E88935E67134E86BCF0B22E8E14E3BA","672ce681-3c8c-4d54-8c90-12b57c82aa77","a0a8f18c-a66e-4ba7-a170-23efbdc67501","{""participantId"":""8E88935E67134E86BCF0B22E8E14E3BA"",""assignmentId"":""672ce681-3c8c-4d54-8c90-12b57c82aa77"",""projectId"":""a0a8f18c-a66e-4ba7-a170-23efbdc67501""}","https://test12345.live/?participantId=8E88935E67134E86BCF0B22E8E14E3BA&assignmentId=672ce681-3c8c-4d54-8c90-12b57c82aa77&projectId=a0a8f18c-a66e-4ba7-a170-23efbdc67501","8E88935E67134E86BCF0B22E8E14E3BA-2024-11-24-18-38-19","","null","","images/schematic_sequence/flight_scheme/flight_scheme_3.png","null","",""
"","","","","","image-button-response","64","444466","0.0-12.0-1.0-1.2","8E88935E67134E86BCF0B22E8E14E3BA","8E88935E67134E86BCF0B22E8E14E3BA","672ce681-3c8c-4d54-8c90-12b57c82aa77","a0a8f18c-a66e-4ba7-a170-23efbdc67501","{""participantId"":""8E88935E67134E86BCF0B22E8E14E3BA"",""assignmentId"":""672ce681-3c8c-4d54-8c90-12b57c82aa77"",""projectId"":""a0a8f18c-a66e-4ba7-a170-23efbdc67501""}","https://test12345.live/?participantId=8E88935E67134E86BCF0B22E8E14E3BA&assignmentId=672ce681-3c8c-4d54-8c90-12b57c82aa77&projectId=a0a8f18c-a66e-4ba7-a170-23efbdc67501","8E88935E67134E86BCF0B22E8E14E3BA-2024-11-24-18-38-19","","2660","","images/schematic_sequence/flight_scheme/flight_scheme_3.png","0","",""
"","","","","","image-button-response","65","446275","0.0-12.0-1.0-2.2","8E88935E67134E86BCF0B22E8E14E3BA","8E88935E67134E86BCF0B22E8E14E3BA","672ce681-3c8c-4d54-8c90-12b57c82aa77","a0a8f18c-a66e-4ba7-a170-23efbdc67501","{""participantId"":""8E88935E67134E86BCF0B22E8E14E3BA"",""assignmentId"":""672ce681-3c8c-4d54-8c90-12b57c82aa77"",""projectId"":""a0a8f18c-a66e-4ba7-a170-23efbdc67501""}","https://test12345.live/?participantId=8E88935E67134E86BCF0B22E8E14E3BA&assignmentId=672ce681-3c8c-4d54-8c90-12b57c82aa77&projectId=a0a8f18c-a66e-4ba7-a170-23efbdc67501","8E88935E67134E86BCF0B22E8E14E3BA-2024-11-24-18-38-19","","null","","[]","null","",""
"","","","","","image-button-response","66","450781","0.0-12.0-1.0-0.3","8E88935E67134E86BCF0B22E8E14E3BA","8E88935E67134E86BCF0B22E8E14E3BA","672ce681-3c8c-4d54-8c90-12b57c82aa77","a0a8f18c-a66e-4ba7-a170-23efbdc67501","{""participantId"":""8E88935E67134E86BCF0B22E8E14E3BA"",""assignmentId"":""672ce681-3c8c-4d54-8c90-12b57c82aa77"",""projectId"":""a0a8f18c-a66e-4ba7-a170-23efbdc67501""}","https://test12345.live/?participantId=8E88935E67134E86BCF0B22E8E14E3BA&assignmentId=672ce681-3c8c-4d54-8c90-12b57c82aa77&projectId=a0a8f18c-a66e-4ba7-a170-23efbdc67501","8E88935E67134E86BCF0B22E8E14E3BA-2024-11-24-18-38-19","","null","","images/schematic_sequence/flight_scheme/flight_scheme_4.png","null","",""
"","","","","","image-button-response","67","452687","0.0-12.0-1.0-1.3","8E88935E67134E86BCF0B22E8E14E3BA","8E88935E67134E86BCF0B22E8E14E3BA","672ce681-3c8c-4d54-8c90-12b57c82aa77","a0a8f18c-a66e-4ba7-a170-23efbdc67501","{""participantId"":""8E88935E67134E86BCF0B22E8E14E3BA"",""assignmentId"":""672ce681-3c8c-4d54-8c90-12b57c82aa77"",""projectId"":""a0a8f18c-a66e-4ba7-a170-23efbdc67501""}","https://test12345.live/?participantId=8E88935E67134E86BCF0B22E8E14E3BA&assignmentId=672ce681-3c8c-4d54-8c90-12b57c82aa77&projectId=a0a8f18c-a66e-4ba7-a170-23efbdc67501","8E88935E67134E86BCF0B22E8E14E3BA-2024-11-24-18-38-19","","1903","","images/schematic_sequence/flight_scheme/flight_scheme_4.png","0","",""
"","","","","","image-button-response","68","454502","0.0-12.0-1.0-2.3","8E88935E67134E86BCF0B22E8E14E3BA","8E88935E67134E86BCF0B22E8E14E3BA","672ce681-3c8c-4d54-8c90-12b57c82aa77","a0a8f18c-a66e-4ba7-a170-23efbdc67501","{""participantId"":""8E88935E67134E86BCF0B22E8E14E3BA"",""assignmentId"":""672ce681-3c8c-4d54-8c90-12b57c82aa77"",""projectId"":""a0a8f18c-a66e-4ba7-a170-23efbdc67501""}","https://test12345.live/?participantId=8E88935E67134E86BCF0B22E8E14E3BA&assignmentId=672ce681-3c8c-4d54-8c90-12b57c82aa77&projectId=a0a8f18c-a66e-4ba7-a170-23efbdc67501","8E88935E67134E86BCF0B22E8E14E3BA-2024-11-24-18-38-19","","null","","[]","null","",""
"","","","","","image-button-response","69","459016","0.0-12.0-1.0-0.4","8E88935E67134E86BCF0B22E8E14E3BA","8E88935E67134E86BCF0B22E8E14E3BA","672ce681-3c8c-4d54-8c90-12b57c82aa77","a0a8f18c-a66e-4ba7-a170-23efbdc67501","{""participantId"":""8E88935E67134E86BCF0B22E8E14E3BA"",""assignmentId"":""672ce681-3c8c-4d54-8c90-12b57c82aa77"",""projectId"":""a0a8f18c-a66e-4ba7-a170-23efbdc67501""}","https://test12345.live/?participantId=8E88935E67134E86BCF0B22E8E14E3BA&assignmentId=672ce681-3c8c-4d54-8c90-12b57c82aa77&projectId=a0a8f18c-a66e-4ba7-a170-23efbdc67501","8E88935E67134E86BCF0B22E8E14E3BA-2024-11-24-18-38-19","","null","","images/schematic_sequence/flight_scheme/flight_scheme_5.png","null","",""
"","","","","","image-button-response","70","460791","0.0-12.0-1.0-1.4","8E88935E67134E86BCF0B22E8E14E3BA","8E88935E67134E86BCF0B22E8E14E3BA","672ce681-3c8c-4d54-8c90-12b57c82aa77","a0a8f18c-a66e-4ba7-a170-23efbdc67501","{""participantId"":""8E88935E67134E86BCF0B22E8E14E3BA"",""assignmentId"":""672ce681-3c8c-4d54-8c90-12b57c82aa77"",""projectId"":""a0a8f18c-a66e-4ba7-a170-23efbdc67501""}","https://test12345.live/?participantId=8E88935E67134E86BCF0B22E8E14E3BA&assignmentId=672ce681-3c8c-4d54-8c90-12b57c82aa77&projectId=a0a8f18c-a66e-4ba7-a170-23efbdc67501","8E88935E67134E86BCF0B22E8E14E3BA-2024-11-24-18-38-19","","1772","","images/schematic_sequence/flight_scheme/flight_scheme_5.png","0","",""
"","","","","","image-button-response","71","462593","0.0-12.0-1.0-2.4","8E88935E67134E86BCF0B22E8E14E3BA","8E88935E67134E86BCF0B22E8E14E3BA","672ce681-3c8c-4d54-8c90-12b57c82aa77","a0a8f18c-a66e-4ba7-a170-23efbdc67501","{""participantId"":""8E88935E67134E86BCF0B22E8E14E3BA"",""assignmentId"":""672ce681-3c8c-4d54-8c90-12b57c82aa77"",""projectId"":""a0a8f18c-a66e-4ba7-a170-23efbdc67501""}","https://test12345.live/?participantId=8E88935E67134E86BCF0B22E8E14E3BA&assignmentId=672ce681-3c8c-4d54-8c90-12b57c82aa77&projectId=a0a8f18c-a66e-4ba7-a170-23efbdc67501","8E88935E67134E86BCF0B22E8E14E3BA-2024-11-24-18-38-19","","null","","[]","null","",""
"","","","","","image-button-response","72","467110","0.0-12.0-1.0-0.5","8E88935E67134E86BCF0B22E8E14E3BA","8E88935E67134E86BCF0B22E8E14E3BA","672ce681-3c8c-4d54-8c90-12b57c82aa77","a0a8f18c-a66e-4ba7-a170-23efbdc67501","{""participantId"":""8E88935E67134E86BCF0B22E8E14E3BA"",""assignmentId"":""672ce681-3c8c-4d54-8c90-12b57c82aa77"",""projectId"":""a0a8f18c-a66e-4ba7-a170-23efbdc67501""}","https://test12345.live/?participantId=8E88935E67134E86BCF0B22E8E14E3BA&assignmentId=672ce681-3c8c-4d54-8c90-12b57c82aa77&projectId=a0a8f18c-a66e-4ba7-a170-23efbdc67501","8E88935E67134E86BCF0B22E8E14E3BA-2024-11-24-18-38-19","","null","","images/schematic_sequence/flight_scheme/flight_scheme_6.png","null","",""
"","","","","","image-button-response","73","469119","0.0-12.0-1.0-1.5","8E88935E67134E86BCF0B22E8E14E3BA","8E88935E67134E86BCF0B22E8E14E3BA","672ce681-3c8c-4d54-8c90-12b57c82aa77","a0a8f18c-a66e-4ba7-a170-23efbdc67501","{""participantId"":""8E88935E67134E86BCF0B22E8E14E3BA"",""assignmentId"":""672ce681-3c8c-4d54-8c90-12b57c82aa77"",""projectId"":""a0a8f18c-a66e-4ba7-a170-23efbdc67501""}","https://test12345.live/?participantId=8E88935E67134E86BCF0B22E8E14E3BA&assignmentId=672ce681-3c8c-4d54-8c90-12b57c82aa77&projectId=a0a8f18c-a66e-4ba7-a170-23efbdc67501","8E88935E67134E86BCF0B22E8E14E3BA-2024-11-24-18-38-19","","2006","","images/schematic_sequence/flight_scheme/flight_scheme_6.png","1","",""
"","","","","","image-button-response","74","470936","0.0-12.0-1.0-2.5","8E88935E67134E86BCF0B22E8E14E3BA","8E88935E67134E86BCF0B22E8E14E3BA","672ce681-3c8c-4d54-8c90-12b57c82aa77","a0a8f18c-a66e-4ba7-a170-23efbdc67501","{""participantId"":""8E88935E67134E86BCF0B22E8E14E3BA"",""assignmentId"":""672ce681-3c8c-4d54-8c90-12b57c82aa77"",""projectId"":""a0a8f18c-a66e-4ba7-a170-23efbdc67501""}","https://test12345.live/?participantId=8E88935E67134E86BCF0B22E8E14E3BA&assignmentId=672ce681-3c8c-4d54-8c90-12b57c82aa77&projectId=a0a8f18c-a66e-4ba7-a170-23efbdc67501","8E88935E67134E86BCF0B22E8E14E3BA-2024-11-24-18-38-19","","null","","[]","null","",""
"","","","","","image-button-response","75","475444","0.0-12.0-1.0-0.6","8E88935E67134E86BCF0B22E8E14E3BA","8E88935E67134E86BCF0B22E8E14E3BA","672ce681-3c8c-4d54-8c90-12b57c82aa77","a0a8f18c-a66e-4ba7-a170-23efbdc67501","{""participantId"":""8E88935E67134E86BCF0B22E8E14E3BA"",""assignmentId"":""672ce681-3c8c-4d54-8c90-12b57c82aa77"",""projectId"":""a0a8f18c-a66e-4ba7-a170-23efbdc67501""}","https://test12345.live/?participantId=8E88935E67134E86BCF0B22E8E14E3BA&assignmentId=672ce681-3c8c-4d54-8c90-12b57c82aa77&projectId=a0a8f18c-a66e-4ba7-a170-23efbdc67501","8E88935E67134E86BCF0B22E8E14E3BA-2024-11-24-18-38-19","","null","","images/schematic_sequence/flight_scheme/flight_scheme_7.png","null","",""
"","","","","","image-button-response","76","477652","0.0-12.0-1.0-1.6","8E88935E67134E86BCF0B22E8E14E3BA","8E88935E67134E86BCF0B22E8E14E3BA","672ce681-3c8c-4d54-8c90-12b57c82aa77","a0a8f18c-a66e-4ba7-a170-23efbdc67501","{""participantId"":""8E88935E67134E86BCF0B22E8E14E3BA"",""assignmentId"":""672ce681-3c8c-4d54-8c90-12b57c82aa77"",""projectId"":""a0a8f18c-a66e-4ba7-a170-23efbdc67501""}","https://test12345.live/?participantId=8E88935E67134E86BCF0B22E8E14E3BA&assignmentId=672ce681-3c8c-4d54-8c90-12b57c82aa77&projectId=a0a8f18c-a66e-4ba7-a170-23efbdc67501","8E88935E67134E86BCF0B22E8E14E3BA-2024-11-24-18-38-19","","2205","","images/schematic_sequence/flight_scheme/flight_scheme_7.png","0","",""
"","","","","","image-button-response","77","479464","0.0-12.0-1.0-2.6","8E88935E67134E86BCF0B22E8E14E3BA","8E88935E67134E86BCF0B22E8E14E3BA","672ce681-3c8c-4d54-8c90-12b57c82aa77","a0a8f18c-a66e-4ba7-a170-23efbdc67501","{""participantId"":""8E88935E67134E86BCF0B22E8E14E3BA"",""assignmentId"":""672ce681-3c8c-4d54-8c90-12b57c82aa77"",""projectId"":""a0a8f18c-a66e-4ba7-a170-23efbdc67501""}","https://test12345.live/?participantId=8E88935E67134E86BCF0B22E8E14E3BA&assignmentId=672ce681-3c8c-4d54-8c90-12b57c82aa77&projectId=a0a8f18c-a66e-4ba7-a170-23efbdc67501","8E88935E67134E86BCF0B22E8E14E3BA-2024-11-24-18-38-19","","null","","[]","null","",""
"","","","","","image-button-response","78","483970","0.0-12.0-1.0-0.7","8E88935E67134E86BCF0B22E8E14E3BA","8E88935E67134E86BCF0B22E8E14E3BA","672ce681-3c8c-4d54-8c90-12b57c82aa77","a0a8f18c-a66e-4ba7-a170-23efbdc67501","{""participantId"":""8E88935E67134E86BCF0B22E8E14E3BA"",""assignmentId"":""672ce681-3c8c-4d54-8c90-12b57c82aa77"",""projectId"":""a0a8f18c-a66e-4ba7-a170-23efbdc67501""}","https://test12345.live/?participantId=8E88935E67134E86BCF0B22E8E14E3BA&assignmentId=672ce681-3c8c-4d54-8c90-12b57c82aa77&projectId=a0a8f18c-a66e-4ba7-a170-23efbdc67501","8E88935E67134E86BCF0B22E8E14E3BA-2024-11-24-18-38-19","","null","","images/schematic_sequence/flight_scheme/flight_scheme_8.png","null","",""
"","","","","","image-button-response","79","486320","0.0-12.0-1.0-1.7","8E88935E67134E86BCF0B22E8E14E3BA","8E88935E67134E86BCF0B22E8E14E3BA","672ce681-3c8c-4d54-8c90-12b57c82aa77","a0a8f18c-a66e-4ba7-a170-23efbdc67501","{""participantId"":""8E88935E67134E86BCF0B22E8E14E3BA"",""assignmentId"":""672ce681-3c8c-4d54-8c90-12b57c82aa77"",""projectId"":""a0a8f18c-a66e-4ba7-a170-23efbdc67501""}","https://test12345.live/?participantId=8E88935E67134E86BCF0B22E8E14E3BA&assignmentId=672ce681-3c8c-4d54-8c90-12b57c82aa77&projectId=a0a8f18c-a66e-4ba7-a170-23efbdc67501","8E88935E67134E86BCF0B22E8E14E3BA-2024-11-24-18-38-19","","2349","","images/schematic_sequence/flight_scheme/flight_scheme_8.png","1","",""
"","","","","","image-button-response","80","488128","0.0-12.0-1.0-2.7","8E88935E67134E86BCF0B22E8E14E3BA","8E88935E67134E86BCF0B22E8E14E3BA","672ce681-3c8c-4d54-8c90-12b57c82aa77","a0a8f18c-a66e-4ba7-a170-23efbdc67501","{""participantId"":""8E88935E67134E86BCF0B22E8E14E3BA"",""assignmentId"":""672ce681-3c8c-4d54-8c90-12b57c82aa77"",""projectId"":""a0a8f18c-a66e-4ba7-a170-23efbdc67501""}","https://test12345.live/?participantId=8E88935E67134E86BCF0B22E8E14E3BA&assignmentId=672ce681-3c8c-4d54-8c90-12b57c82aa77&projectId=a0a8f18c-a66e-4ba7-a170-23efbdc67501","8E88935E67134E86BCF0B22E8E14E3BA-2024-11-24-18-38-19","","null","","[]","null","",""
"","","","","","image-button-response","81","492646","0.0-12.0-1.0-0.8","8E88935E67134E86BCF0B22E8E14E3BA","8E88935E67134E86BCF0B22E8E14E3BA","672ce681-3c8c-4d54-8c90-12b57c82aa77","a0a8f18c-a66e-4ba7-a170-23efbdc67501","{""participantId"":""8E88935E67134E86BCF0B22E8E14E3BA"",""assignmentId"":""672ce681-3c8c-4d54-8c90-12b57c82aa77"",""projectId"":""a0a8f18c-a66e-4ba7-a170-23efbdc67501""}","https://test12345.live/?participantId=8E88935E67134E86BCF0B22E8E14E3BA&assignmentId=672ce681-3c8c-4d54-8c90-12b57c82aa77&projectId=a0a8f18c-a66e-4ba7-a170-23efbdc67501","8E88935E67134E86BCF0B22E8E14E3BA-2024-11-24-18-38-19","","null","","images/schematic_sequence/flight_scheme/flight_scheme_9.png","null","",""
"","","","","","image-button-response","82","494463","0.0-12.0-1.0-1.8","8E88935E67134E86BCF0B22E8E14E3BA","8E88935E67134E86BCF0B22E8E14E3BA","672ce681-3c8c-4d54-8c90-12b57c82aa77","a0a8f18c-a66e-4ba7-a170-23efbdc67501","{""participantId"":""8E88935E67134E86BCF0B22E8E14E3BA"",""assignmentId"":""672ce681-3c8c-4d54-8c90-12b57c82aa77"",""projectId"":""a0a8f18c-a66e-4ba7-a170-23efbdc67501""}","https://test12345.live/?participantId=8E88935E67134E86BCF0B22E8E14E3BA&assignmentId=672ce681-3c8c-4d54-8c90-12b57c82aa77&projectId=a0a8f18c-a66e-4ba7-a170-23efbdc67501","8E88935E67134E86BCF0B22E8E14E3BA-2024-11-24-18-38-19","","1815","","images/schematic_sequence/flight_scheme/flight_scheme_9.png","0","",""
"","","","","","image-button-response","83","496269","0.0-12.0-1.0-2.8","8E88935E67134E86BCF0B22E8E14E3BA","8E88935E67134E86BCF0B22E8E14E3BA","672ce681-3c8c-4d54-8c90-12b57c82aa77","a0a8f18c-a66e-4ba7-a170-23efbdc67501","{""participantId"":""8E88935E67134E86BCF0B22E8E14E3BA"",""assignmentId"":""672ce681-3c8c-4d54-8c90-12b57c82aa77"",""projectId"":""a0a8f18c-a66e-4ba7-a170-23efbdc67501""}","https://test12345.live/?participantId=8E88935E67134E86BCF0B22E8E14E3BA&assignmentId=672ce681-3c8c-4d54-8c90-12b57c82aa77&projectId=a0a8f18c-a66e-4ba7-a170-23efbdc67501","8E88935E67134E86BCF0B22E8E14E3BA-2024-11-24-18-38-19","","null","","[]","null","",""
"","","","","","image-button-response","84","500783","0.0-12.0-1.0-0.9","8E88935E67134E86BCF0B22E8E14E3BA","8E88935E67134E86BCF0B22E8E14E3BA","672ce681-3c8c-4d54-8c90-12b57c82aa77","a0a8f18c-a66e-4ba7-a170-23efbdc67501","{""participantId"":""8E88935E67134E86BCF0B22E8E14E3BA"",""assignmentId"":""672ce681-3c8c-4d54-8c90-12b57c82aa77"",""projectId"":""a0a8f18c-a66e-4ba7-a170-23efbdc67501""}","https://test12345.live/?participantId=8E88935E67134E86BCF0B22E8E14E3BA&assignmentId=672ce681-3c8c-4d54-8c90-12b57c82aa77&projectId=a0a8f18c-a66e-4ba7-a170-23efbdc67501","8E88935E67134E86BCF0B22E8E14E3BA-2024-11-24-18-38-19","","null","","images/schematic_sequence/flight_scheme/flight_scheme_ten.png","null","",""
"","","","","","image-button-response","85","502605","0.0-12.0-1.0-1.9","8E88935E67134E86BCF0B22E8E14E3BA","8E88935E67134E86BCF0B22E8E14E3BA","672ce681-3c8c-4d54-8c90-12b57c82aa77","a0a8f18c-a66e-4ba7-a170-23efbdc67501","{""participantId"":""8E88935E67134E86BCF0B22E8E14E3BA"",""assignmentId"":""672ce681-3c8c-4d54-8c90-12b57c82aa77"",""projectId"":""a0a8f18c-a66e-4ba7-a170-23efbdc67501""}","https://test12345.live/?participantId=8E88935E67134E86BCF0B22E8E14E3BA&assignmentId=672ce681-3c8c-4d54-8c90-12b57c82aa77&projectId=a0a8f18c-a66e-4ba7-a170-23efbdc67501","8E88935E67134E86BCF0B22E8E14E3BA-2024-11-24-18-38-19","","1819","","images/schematic_sequence/flight_scheme/flight_scheme_ten.png","0","",""
"","","","","","image-button-response","86","504416","0.0-12.0-1.0-2.9","8E88935E67134E86BCF0B22E8E14E3BA","8E88935E67134E86BCF0B22E8E14E3BA","672ce681-3c8c-4d54-8c90-12b57c82aa77","a0a8f18c-a66e-4ba7-a170-23efbdc67501","{""participantId"":""8E88935E67134E86BCF0B22E8E14E3BA"",""assignmentId"":""672ce681-3c8c-4d54-8c90-12b57c82aa77"",""projectId"":""a0a8f18c-a66e-4ba7-a170-23efbdc67501""}","https://test12345.live/?participantId=8E88935E67134E86BCF0B22E8E14E3BA&assignmentId=672ce681-3c8c-4d54-8c90-12b57c82aa77&projectId=a0a8f18c-a66e-4ba7-a170-23efbdc67501","8E88935E67134E86BCF0B22E8E14E3BA-2024-11-24-18-38-19","","null","","[]","null","",""
"","","","","","html-audio-response","87","557817","0.0-13.0","8E88935E67134E86BCF0B22E8E14E3BA","8E88935E67134E86BCF0B22E8E14E3BA","672ce681-3c8c-4d54-8c90-12b57c82aa77","a0a8f18c-a66e-4ba7-a170-23efbdc67501","{""participantId"":""8E88935E67134E86BCF0B22E8E14E3BA"",""assignmentId"":""672ce681-3c8c-4d54-8c90-12b57c82aa77"",""projectId"":""a0a8f18c-a66e-4ba7-a170-23efbdc67501""}","https://test12345.live/?participantId=8E88935E67134E86BCF0B22E8E14E3BA&assignmentId=672ce681-3c8c-4d54-8c90-12b57c82aa77&projectId=a0a8f18c-a66e-4ba7-a170-23efbdc67501","8E88935E67134E86BCF0B22E8E14E3BA-2024-11-24-18-38-19","","33334","","[""<span style=\""color: red; font-size: 24px\""> NOW RECORDING</span><p>Please say out loud all the images you saw, as many as you can remember. The images can be said in any order.</p>""]","","2","flight_scheme"
"","","","","","image-button-response","88","563841","0.0-14.0-0.0","8E88935E67134E86BCF0B22E8E14E3BA","8E88935E67134E86BCF0B22E8E14E3BA","672ce681-3c8c-4d54-8c90-12b57c82aa77","a0a8f18c-a66e-4ba7-a170-23efbdc67501","{""participantId"":""8E88935E67134E86BCF0B22E8E14E3BA"",""assignmentId"":""672ce681-3c8c-4d54-8c90-12b57c82aa77"",""projectId"":""a0a8f18c-a66e-4ba7-a170-23efbdc67501""}","https://test12345.live/?participantId=8E88935E67134E86BCF0B22E8E14E3BA&assignmentId=672ce681-3c8c-4d54-8c90-12b57c82aa77&projectId=a0a8f18c-a66e-4ba7-a170-23efbdc67501","8E88935E67134E86BCF0B22E8E14E3BA-2024-11-24-18-38-19","","null","","images/causal_sequence/saving_a_cat_causal/saving_a_cat_causal_0.png","null","",""
"","","","","","image-button-response","89","568357","0.0-14.0-1.0-0.0","8E88935E67134E86BCF0B22E8E14E3BA","8E88935E67134E86BCF0B22E8E14E3BA","672ce681-3c8c-4d54-8c90-12b57c82aa77","a0a8f18c-a66e-4ba7-a170-23efbdc67501","{""participantId"":""8E88935E67134E86BCF0B22E8E14E3BA"",""assignmentId"":""672ce681-3c8c-4d54-8c90-12b57c82aa77"",""projectId"":""a0a8f18c-a66e-4ba7-a170-23efbdc67501""}","https://test12345.live/?participantId=8E88935E67134E86BCF0B22E8E14E3BA&assignmentId=672ce681-3c8c-4d54-8c90-12b57c82aa77&projectId=a0a8f18c-a66e-4ba7-a170-23efbdc67501","8E88935E67134E86BCF0B22E8E14E3BA-2024-11-24-18-38-19","","null","","images/causal_sequence/saving_a_cat_causal/saving_a_cat_causal_1.png","null","",""
"","","","","","image-button-response","90","570988","0.0-14.0-1.0-1.0","8E88935E67134E86BCF0B22E8E14E3BA","8E88935E67134E86BCF0B22E8E14E3BA","672ce681-3c8c-4d54-8c90-12b57c82aa77","a0a8f18c-a66e-4ba7-a170-23efbdc67501","{""participantId"":""8E88935E67134E86BCF0B22E8E14E3BA"",""assignmentId"":""672ce681-3c8c-4d54-8c90-12b57c82aa77"",""projectId"":""a0a8f18c-a66e-4ba7-a170-23efbdc67501""}","https://test12345.live/?participantId=8E88935E67134E86BCF0B22E8E14E3BA&assignmentId=672ce681-3c8c-4d54-8c90-12b57c82aa77&projectId=a0a8f18c-a66e-4ba7-a170-23efbdc67501","8E88935E67134E86BCF0B22E8E14E3BA-2024-11-24-18-38-19","","2629","","images/causal_sequence/saving_a_cat_causal/saving_a_cat_causal_1.png","0","",""
"","","","","","image-button-response","91","572790","0.0-14.0-1.0-2.0","8E88935E67134E86BCF0B22E8E14E3BA","8E88935E67134E86BCF0B22E8E14E3BA","672ce681-3c8c-4d54-8c90-12b57c82aa77","a0a8f18c-a66e-4ba7-a170-23efbdc67501","{""participantId"":""8E88935E67134E86BCF0B22E8E14E3BA"",""assignmentId"":""672ce681-3c8c-4d54-8c90-12b57c82aa77"",""projectId"":""a0a8f18c-a66e-4ba7-a170-23efbdc67501""}","https://test12345.live/?participantId=8E88935E67134E86BCF0B22E8E14E3BA&assignmentId=672ce681-3c8c-4d54-8c90-12b57c82aa77&projectId=a0a8f18c-a66e-4ba7-a170-23efbdc67501","8E88935E67134E86BCF0B22E8E14E3BA-2024-11-24-18-38-19","","null","","[]","null","",""
"","","","","","image-button-response","92","577298","0.0-14.0-1.0-0.1","8E88935E67134E86BCF0B22E8E14E3BA","8E88935E67134E86BCF0B22E8E14E3BA","672ce681-3c8c-4d54-8c90-12b57c82aa77","a0a8f18c-a66e-4ba7-a170-23efbdc67501","{""participantId"":""8E88935E67134E86BCF0B22E8E14E3BA"",""assignmentId"":""672ce681-3c8c-4d54-8c90-12b57c82aa77"",""projectId"":""a0a8f18c-a66e-4ba7-a170-23efbdc67501""}","https://test12345.live/?participantId=8E88935E67134E86BCF0B22E8E14E3BA&assignmentId=672ce681-3c8c-4d54-8c90-12b57c82aa77&projectId=a0a8f18c-a66e-4ba7-a170-23efbdc67501","8E88935E67134E86BCF0B22E8E14E3BA-2024-11-24-18-38-19","","null","","images/causal_sequence/saving_a_cat_causal/saving_a_cat_causal_2.png","null","",""
"","","","","","image-button-response","93","579128","0.0-14.0-1.0-1.1","8E88935E67134E86BCF0B22E8E14E3BA","8E88935E67134E86BCF0B22E8E14E3BA","672ce681-3c8c-4d54-8c90-12b57c82aa77","a0a8f18c-a66e-4ba7-a170-23efbdc67501","{""participantId"":""8E88935E67134E86BCF0B22E8E14E3BA"",""assignmentId"":""672ce681-3c8c-4d54-8c90-12b57c82aa77"",""projectId"":""a0a8f18c-a66e-4ba7-a170-23efbdc67501""}","https://test12345.live/?participantId=8E88935E67134E86BCF0B22E8E14E3BA&assignmentId=672ce681-3c8c-4d54-8c90-12b57c82aa77&projectId=a0a8f18c-a66e-4ba7-a170-23efbdc67501","8E88935E67134E86BCF0B22E8E14E3BA-2024-11-24-18-38-19","","1827","","images/causal_sequence/saving_a_cat_causal/saving_a_cat_causal_2.png","1","",""
"","","","","","image-button-response","94","580936","0.0-14.0-1.0-2.1","8E88935E67134E86BCF0B22E8E14E3BA","8E88935E67134E86BCF0B22E8E14E3BA","672ce681-3c8c-4d54-8c90-12b57c82aa77","a0a8f18c-a66e-4ba7-a170-23efbdc67501","{""participantId"":""8E88935E67134E86BCF0B22E8E14E3BA"",""assignmentId"":""672ce681-3c8c-4d54-8c90-12b57c82aa77"",""projectId"":""a0a8f18c-a66e-4ba7-a170-23efbdc67501""}","https://test12345.live/?participantId=8E88935E67134E86BCF0B22E8E14E3BA&assignmentId=672ce681-3c8c-4d54-8c90-12b57c82aa77&projectId=a0a8f18c-a66e-4ba7-a170-23efbdc67501","8E88935E67134E86BCF0B22E8E14E3BA-2024-11-24-18-38-19","","null","","[]","null","",""
"","","","","","image-button-response","95","585439","0.0-14.0-1.0-0.2","8E88935E67134E86BCF0B22E8E14E3BA","8E88935E67134E86BCF0B22E8E14E3BA","672ce681-3c8c-4d54-8c90-12b57c82aa77","a0a8f18c-a66e-4ba7-a170-23efbdc67501","{""participantId"":""8E88935E67134E86BCF0B22E8E14E3BA"",""assignmentId"":""672ce681-3c8c-4d54-8c90-12b57c82aa77"",""projectId"":""a0a8f18c-a66e-4ba7-a170-23efbdc67501""}","https://test12345.live/?participantId=8E88935E67134E86BCF0B22E8E14E3BA&assignmentId=672ce681-3c8c-4d54-8c90-12b57c82aa77&projectId=a0a8f18c-a66e-4ba7-a170-23efbdc67501","8E88935E67134E86BCF0B22E8E14E3BA-2024-11-24-18-38-19","","null","","images/causal_sequence/saving_a_cat_causal/saving_a_cat_causal_3.png","null","",""
"","","","","","image-button-response","96","586251","0.0-14.0-1.0-1.2","8E88935E67134E86BCF0B22E8E14E3BA","8E88935E67134E86BCF0B22E8E14E3BA","672ce681-3c8c-4d54-8c90-12b57c82aa77","a0a8f18c-a66e-4ba7-a170-23efbdc67501","{""participantId"":""8E88935E67134E86BCF0B22E8E14E3BA"",""assignmentId"":""672ce681-3c8c-4d54-8c90-12b57c82aa77"",""projectId"":""a0a8f18c-a66e-4ba7-a170-23efbdc67501""}","https://test12345.live/?participantId=8E88935E67134E86BCF0B22E8E14E3BA&assignmentId=672ce681-3c8c-4d54-8c90-12b57c82aa77&projectId=a0a8f18c-a66e-4ba7-a170-23efbdc67501","8E88935E67134E86BCF0B22E8E14E3BA-2024-11-24-18-38-19","","811","","images/causal_sequence/saving_a_cat_causal/saving_a_cat_causal_3.png","1","",""
"","","","","","image-button-response","97","588060","0.0-14.0-1.0-2.2","8E88935E67134E86BCF0B22E8E14E3BA","8E88935E67134E86BCF0B22E8E14E3BA","672ce681-3c8c-4d54-8c90-12b57c82aa77","a0a8f18c-a66e-4ba7-a170-23efbdc67501","{""participantId"":""8E88935E67134E86BCF0B22E8E14E3BA"",""assignmentId"":""672ce681-3c8c-4d54-8c90-12b57c82aa77"",""projectId"":""a0a8f18c-a66e-4ba7-a170-23efbdc67501""}","https://test12345.live/?participantId=8E88935E67134E86BCF0B22E8E14E3BA&assignmentId=672ce681-3c8c-4d54-8c90-12b57c82aa77&projectId=a0a8f18c-a66e-4ba7-a170-23efbdc67501","8E88935E67134E86BCF0B22E8E14E3BA-2024-11-24-18-38-19","","null","","[]","null","",""
"","","","","","image-button-response","98","592574","0.0-14.0-1.0-0.3","8E88935E67134E86BCF0B22E8E14E3BA","8E88935E67134E86BCF0B22E8E14E3BA","672ce681-3c8c-4d54-8c90-12b57c82aa77","a0a8f18c-a66e-4ba7-a170-23efbdc67501","{""participantId"":""8E88935E67134E86BCF0B22E8E14E3BA"",""assignmentId"":""672ce681-3c8c-4d54-8c90-12b57c82aa77"",""projectId"":""a0a8f18c-a66e-4ba7-a170-23efbdc67501""}","https://test12345.live/?participantId=8E88935E67134E86BCF0B22E8E14E3BA&assignmentId=672ce681-3c8c-4d54-8c90-12b57c82aa77&projectId=a0a8f18c-a66e-4ba7-a170-23efbdc67501","8E88935E67134E86BCF0B22E8E14E3BA-2024-11-24-18-38-19","","null","","images/causal_sequence/saving_a_cat_causal/saving_a_cat_causal_4.png","null","",""
"","","","","","image-button-response","99","596576","0.0-14.0-1.0-1.3","8E88935E67134E86BCF0B22E8E14E3BA","8E88935E67134E86BCF0B22E8E14E3BA","672ce681-3c8c-4d54-8c90-12b57c82aa77","a0a8f18c-a66e-4ba7-a170-23efbdc67501","{""participantId"":""8E88935E67134E86BCF0B22E8E14E3BA"",""assignmentId"":""672ce681-3c8c-4d54-8c90-12b57c82aa77"",""projectId"":""a0a8f18c-a66e-4ba7-a170-23efbdc67501""}","https://test12345.live/?participantId=8E88935E67134E86BCF0B22E8E14E3BA&assignmentId=672ce681-3c8c-4d54-8c90-12b57c82aa77&projectId=a0a8f18c-a66e-4ba7-a170-23efbdc67501","8E88935E67134E86BCF0B22E8E14E3BA-2024-11-24-18-38-19","","null","","images/causal_sequence/saving_a_cat_causal/saving_a_cat_causal_4.png","null","",""
"","","","","","image-button-response","100","598390","0.0-14.0-1.0-2.3","8E88935E67134E86BCF0B22E8E14E3BA","8E88935E67134E86BCF0B22E8E14E3BA","672ce681-3c8c-4d54-8c90-12b57c82aa77","a0a8f18c-a66e-4ba7-a170-23efbdc67501","{""participantId"":""8E88935E67134E86BCF0B22E8E14E3BA"",""assignmentId"":""672ce681-3c8c-4d54-8c90-12b57c82aa77"",""projectId"":""a0a8f18c-a66e-4ba7-a170-23efbdc67501""}","https://test12345.live/?participantId=8E88935E67134E86BCF0B22E8E14E3BA&assignmentId=672ce681-3c8c-4d54-8c90-12b57c82aa77&projectId=a0a8f18c-a66e-4ba7-a170-23efbdc67501","8E88935E67134E86BCF0B22E8E14E3BA-2024-11-24-18-38-19","","null","","[]","null","",""
"","","","","","image-button-response","101","602895","0.0-14.0-1.0-0.4","8E88935E67134E86BCF0B22E8E14E3BA","8E88935E67134E86BCF0B22E8E14E3BA","672ce681-3c8c-4d54-8c90-12b57c82aa77","a0a8f18c-a66e-4ba7-a170-23efbdc67501","{""participantId"":""8E88935E67134E86BCF0B22E8E14E3BA"",""assignmentId"":""672ce681-3c8c-4d54-8c90-12b57c82aa77"",""projectId"":""a0a8f18c-a66e-4ba7-a170-23efbdc67501""}","https://test12345.live/?participantId=8E88935E67134E86BCF0B22E8E14E3BA&assignmentId=672ce681-3c8c-4d54-8c90-12b57c82aa77&projectId=a0a8f18c-a66e-4ba7-a170-23efbdc67501","8E88935E67134E86BCF0B22E8E14E3BA-2024-11-24-18-38-19","","null","","images/causal_sequence/saving_a_cat_causal/saving_a_cat_causal_5.png","null","",""
"","","","","","image-button-response","102","603624","0.0-14.0-1.0-1.4","8E88935E67134E86BCF0B22E8E14E3BA","8E88935E67134E86BCF0B22E8E14E3BA","672ce681-3c8c-4d54-8c90-12b57c82aa77","a0a8f18c-a66e-4ba7-a170-23efbdc67501","{""participantId"":""8E88935E67134E86BCF0B22E8E14E3BA"",""assignmentId"":""672ce681-3c8c-4d54-8c90-12b57c82aa77"",""projectId"":""a0a8f18c-a66e-4ba7-a170-23efbdc67501""}","https://test12345.live/?participantId=8E88935E67134E86BCF0B22E8E14E3BA&assignmentId=672ce681-3c8c-4d54-8c90-12b57c82aa77&projectId=a0a8f18c-a66e-4ba7-a170-23efbdc67501","8E88935E67134E86BCF0B22E8E14E3BA-2024-11-24-18-38-19","","727","","images/causal_sequence/saving_a_cat_causal/saving_a_cat_causal_5.png","0","",""
"","","","","","image-button-response","103","605441","0.0-14.0-1.0-2.4","8E88935E67134E86BCF0B22E8E14E3BA","8E88935E67134E86BCF0B22E8E14E3BA","672ce681-3c8c-4d54-8c90-12b57c82aa77","a0a8f18c-a66e-4ba7-a170-23efbdc67501","{""participantId"":""8E88935E67134E86BCF0B22E8E14E3BA"",""assignmentId"":""672ce681-3c8c-4d54-8c90-12b57c82aa77"",""projectId"":""a0a8f18c-a66e-4ba7-a170-23efbdc67501""}","https://test12345.live/?participantId=8E88935E67134E86BCF0B22E8E14E3BA&assignmentId=672ce681-3c8c-4d54-8c90-12b57c82aa77&projectId=a0a8f18c-a66e-4ba7-a170-23efbdc67501","8E88935E67134E86BCF0B22E8E14E3BA-2024-11-24-18-38-19","","null","","[]","null","",""
"","","","","","image-button-response","104","609952","0.0-14.0-1.0-0.5","8E88935E67134E86BCF0B22E8E14E3BA","8E88935E67134E86BCF0B22E8E14E3BA","672ce681-3c8c-4d54-8c90-12b57c82aa77","a0a8f18c-a66e-4ba7-a170-23efbdc67501","{""participantId"":""8E88935E67134E86BCF0B22E8E14E3BA"",""assignmentId"":""672ce681-3c8c-4d54-8c90-12b57c82aa77"",""projectId"":""a0a8f18c-a66e-4ba7-a170-23efbdc67501""}","https://test12345.live/?participantId=8E88935E67134E86BCF0B22E8E14E3BA&assignmentId=672ce681-3c8c-4d54-8c90-12b57c82aa77&projectId=a0a8f18c-a66e-4ba7-a170-23efbdc67501","8E88935E67134E86BCF0B22E8E14E3BA-2024-11-24-18-38-19","","null","","images/causal_sequence/saving_a_cat_causal/saving_a_cat_causal_6.png","null","",""
"","","","","","image-button-response","105","612311","0.0-14.0-1.0-1.5","8E88935E67134E86BCF0B22E8E14E3BA","8E88935E67134E86BCF0B22E8E14E3BA","672ce681-3c8c-4d54-8c90-12b57c82aa77","a0a8f18c-a66e-4ba7-a170-23efbdc67501","{""participantId"":""8E88935E67134E86BCF0B22E8E14E3BA"",""assignmentId"":""672ce681-3c8c-4d54-8c90-12b57c82aa77"",""projectId"":""a0a8f18c-a66e-4ba7-a170-23efbdc67501""}","https://test12345.live/?participantId=8E88935E67134E86BCF0B22E8E14E3BA&assignmentId=672ce681-3c8c-4d54-8c90-12b57c82aa77&projectId=a0a8f18c-a66e-4ba7-a170-23efbdc67501","8E88935E67134E86BCF0B22E8E14E3BA-2024-11-24-18-38-19","","2357","","images/causal_sequence/saving_a_cat_causal/saving_a_cat_causal_6.png","0","",""
"","","","","","image-button-response","106","614123","0.0-14.0-1.0-2.5","8E88935E67134E86BCF0B22E8E14E3BA","8E88935E67134E86BCF0B22E8E14E3BA","672ce681-3c8c-4d54-8c90-12b57c82aa77","a0a8f18c-a66e-4ba7-a170-23efbdc67501","{""participantId"":""8E88935E67134E86BCF0B22E8E14E3BA"",""assignmentId"":""672ce681-3c8c-4d54-8c90-12b57c82aa77"",""projectId"":""a0a8f18c-a66e-4ba7-a170-23efbdc67501""}","https://test12345.live/?participantId=8E88935E67134E86BCF0B22E8E14E3BA&assignmentId=672ce681-3c8c-4d54-8c90-12b57c82aa77&projectId=a0a8f18c-a66e-4ba7-a170-23efbdc67501","8E88935E67134E86BCF0B22E8E14E3BA-2024-11-24-18-38-19","","null","","[]","null","",""
"","","","","","image-button-response","107","618636","0.0-14.0-1.0-0.6","8E88935E67134E86BCF0B22E8E14E3BA","8E88935E67134E86BCF0B22E8E14E3BA","672ce681-3c8c-4d54-8c90-12b57c82aa77","a0a8f18c-a66e-4ba7-a170-23efbdc67501","{""participantId"":""8E88935E67134E86BCF0B22E8E14E3BA"",""assignmentId"":""672ce681-3c8c-4d54-8c90-12b57c82aa77"",""projectId"":""a0a8f18c-a66e-4ba7-a170-23efbdc67501""}","https://test12345.live/?participantId=8E88935E67134E86BCF0B22E8E14E3BA&assignmentId=672ce681-3c8c-4d54-8c90-12b57c82aa77&projectId=a0a8f18c-a66e-4ba7-a170-23efbdc67501","8E88935E67134E86BCF0B22E8E14E3BA-2024-11-24-18-38-19","","null","","images/causal_sequence/saving_a_cat_causal/saving_a_cat_causal_7.png","null","",""
"","","","","","image-button-response","108","620224","0.0-14.0-1.0-1.6","8E88935E67134E86BCF0B22E8E14E3BA","8E88935E67134E86BCF0B22E8E14E3BA","672ce681-3c8c-4d54-8c90-12b57c82aa77","a0a8f18c-a66e-4ba7-a170-23efbdc67501","{""participantId"":""8E88935E67134E86BCF0B22E8E14E3BA"",""assignmentId"":""672ce681-3c8c-4d54-8c90-12b57c82aa77"",""projectId"":""a0a8f18c-a66e-4ba7-a170-23efbdc67501""}","https://test12345.live/?participantId=8E88935E67134E86BCF0B22E8E14E3BA&assignmentId=672ce681-3c8c-4d54-8c90-12b57c82aa77&projectId=a0a8f18c-a66e-4ba7-a170-23efbdc67501","8E88935E67134E86BCF0B22E8E14E3BA-2024-11-24-18-38-19","","1585","","images/causal_sequence/saving_a_cat_causal/saving_a_cat_causal_7.png","0","",""
"","","","","","image-button-response","109","622042","0.0-14.0-1.0-2.6","8E88935E67134E86BCF0B22E8E14E3BA","8E88935E67134E86BCF0B22E8E14E3BA","672ce681-3c8c-4d54-8c90-12b57c82aa77","a0a8f18c-a66e-4ba7-a170-23efbdc67501","{""participantId"":""8E88935E67134E86BCF0B22E8E14E3BA"",""assignmentId"":""672ce681-3c8c-4d54-8c90-12b57c82aa77"",""projectId"":""a0a8f18c-a66e-4ba7-a170-23efbdc67501""}","https://test12345.live/?participantId=8E88935E67134E86BCF0B22E8E14E3BA&assignmentId=672ce681-3c8c-4d54-8c90-12b57c82aa77&projectId=a0a8f18c-a66e-4ba7-a170-23efbdc67501","8E88935E67134E86BCF0B22E8E14E3BA-2024-11-24-18-38-19","","null","","[]","null","",""
"","","","","","image-button-response","110","626545","0.0-14.0-1.0-0.7","8E88935E67134E86BCF0B22E8E14E3BA","8E88935E67134E86BCF0B22E8E14E3BA","672ce681-3c8c-4d54-8c90-12b57c82aa77","a0a8f18c-a66e-4ba7-a170-23efbdc67501","{""participantId"":""8E88935E67134E86BCF0B22E8E14E3BA"",""assignmentId"":""672ce681-3c8c-4d54-8c90-12b57c82aa77"",""projectId"":""a0a8f18c-a66e-4ba7-a170-23efbdc67501""}","https://test12345.live/?participantId=8E88935E67134E86BCF0B22E8E14E3BA&assignmentId=672ce681-3c8c-4d54-8c90-12b57c82aa77&projectId=a0a8f18c-a66e-4ba7-a170-23efbdc67501","8E88935E67134E86BCF0B22E8E14E3BA-2024-11-24-18-38-19","","null","","images/causal_sequence/saving_a_cat_causal/saving_a_cat_causal_8.png","null","",""
"","","","","","image-button-response","111","628776","0.0-14.0-1.0-1.7","8E88935E67134E86BCF0B22E8E14E3BA","8E88935E67134E86BCF0B22E8E14E3BA","672ce681-3c8c-4d54-8c90-12b57c82aa77","a0a8f18c-a66e-4ba7-a170-23efbdc67501","{""participantId"":""8E88935E67134E86BCF0B22E8E14E3BA"",""assignmentId"":""672ce681-3c8c-4d54-8c90-12b57c82aa77"",""projectId"":""a0a8f18c-a66e-4ba7-a170-23efbdc67501""}","https://test12345.live/?participantId=8E88935E67134E86BCF0B22E8E14E3BA&assignmentId=672ce681-3c8c-4d54-8c90-12b57c82aa77&projectId=a0a8f18c-a66e-4ba7-a170-23efbdc67501","8E88935E67134E86BCF0B22E8E14E3BA-2024-11-24-18-38-19","","2229","","images/causal_sequence/saving_a_cat_causal/saving_a_cat_causal_8.png","0","",""
"","","","","","image-button-response","112","630582","0.0-14.0-1.0-2.7","8E88935E67134E86BCF0B22E8E14E3BA","8E88935E67134E86BCF0B22E8E14E3BA","672ce681-3c8c-4d54-8c90-12b57c82aa77","a0a8f18c-a66e-4ba7-a170-23efbdc67501","{""participantId"":""8E88935E67134E86BCF0B22E8E14E3BA"",""assignmentId"":""672ce681-3c8c-4d54-8c90-12b57c82aa77"",""projectId"":""a0a8f18c-a66e-4ba7-a170-23efbdc67501""}","https://test12345.live/?participantId=8E88935E67134E86BCF0B22E8E14E3BA&assignmentId=672ce681-3c8c-4d54-8c90-12b57c82aa77&projectId=a0a8f18c-a66e-4ba7-a170-23efbdc67501","8E88935E67134E86BCF0B22E8E14E3BA-2024-11-24-18-38-19","","null","","[]","null","",""
"","","","","","image-button-response","113","635086","0.0-14.0-1.0-0.8","8E88935E67134E86BCF0B22E8E14E3BA","8E88935E67134E86BCF0B22E8E14E3BA","672ce681-3c8c-4d54-8c90-12b57c82aa77","a0a8f18c-a66e-4ba7-a170-23efbdc67501","{""participantId"":""8E88935E67134E86BCF0B22E8E14E3BA"",""assignmentId"":""672ce681-3c8c-4d54-8c90-12b57c82aa77"",""projectId"":""a0a8f18c-a66e-4ba7-a170-23efbdc67501""}","https://test12345.live/?participantId=8E88935E67134E86BCF0B22E8E14E3BA&assignmentId=672ce681-3c8c-4d54-8c90-12b57c82aa77&projectId=a0a8f18c-a66e-4ba7-a170-23efbdc67501","8E88935E67134E86BCF0B22E8E14E3BA-2024-11-24-18-38-19","","null","","images/causal_sequence/saving_a_cat_causal/saving_a_cat_causal_9.png","null","",""
"","","","","","image-button-response","114","636113","0.0-14.0-1.0-1.8","8E88935E67134E86BCF0B22E8E14E3BA","8E88935E67134E86BCF0B22E8E14E3BA","672ce681-3c8c-4d54-8c90-12b57c82aa77","a0a8f18c-a66e-4ba7-a170-23efbdc67501","{""participantId"":""8E88935E67134E86BCF0B22E8E14E3BA"",""assignmentId"":""672ce681-3c8c-4d54-8c90-12b57c82aa77"",""projectId"":""a0a8f18c-a66e-4ba7-a170-23efbdc67501""}","https://test12345.live/?participantId=8E88935E67134E86BCF0B22E8E14E3BA&assignmentId=672ce681-3c8c-4d54-8c90-12b57c82aa77&projectId=a0a8f18c-a66e-4ba7-a170-23efbdc67501","8E88935E67134E86BCF0B22E8E14E3BA-2024-11-24-18-38-19","","1026","","images/causal_sequence/saving_a_cat_causal/saving_a_cat_causal_9.png","0","",""
"","","","","","image-button-response","115","637923","0.0-14.0-1.0-2.8","8E88935E67134E86BCF0B22E8E14E3BA","8E88935E67134E86BCF0B22E8E14E3BA","672ce681-3c8c-4d54-8c90-12b57c82aa77","a0a8f18c-a66e-4ba7-a170-23efbdc67501","{""participantId"":""8E88935E67134E86BCF0B22E8E14E3BA"",""assignmentId"":""672ce681-3c8c-4d54-8c90-12b57c82aa77"",""projectId"":""a0a8f18c-a66e-4ba7-a170-23efbdc67501""}","https://test12345.live/?participantId=8E88935E67134E86BCF0B22E8E14E3BA&assignmentId=672ce681-3c8c-4d54-8c90-12b57c82aa77&projectId=a0a8f18c-a66e-4ba7-a170-23efbdc67501","8E88935E67134E86BCF0B22E8E14E3BA-2024-11-24-18-38-19","","null","","[]","null","",""
"","","","","","image-button-response","116","642440","0.0-14.0-1.0-0.9","8E88935E67134E86BCF0B22E8E14E3BA","8E88935E67134E86BCF0B22E8E14E3BA","672ce681-3c8c-4d54-8c90-12b57c82aa77","a0a8f18c-a66e-4ba7-a170-23efbdc67501","{""participantId"":""8E88935E67134E86BCF0B22E8E14E3BA"",""assignmentId"":""672ce681-3c8c-4d54-8c90-12b57c82aa77"",""projectId"":""a0a8f18c-a66e-4ba7-a170-23efbdc67501""}","https://test12345.live/?participantId=8E88935E67134E86BCF0B22E8E14E3BA&assignmentId=672ce681-3c8c-4d54-8c90-12b57c82aa77&projectId=a0a8f18c-a66e-4ba7-a170-23efbdc67501","8E88935E67134E86BCF0B22E8E14E3BA-2024-11-24-18-38-19","","null","","images/causal_sequence/saving_a_cat_causal/saving_a_cat_causal_ten.png","null","",""
"","","","","","image-button-response","117","643517","0.0-14.0-1.0-1.9","8E88935E67134E86BCF0B22E8E14E3BA","8E88935E67134E86BCF0B22E8E14E3BA","672ce681-3c8c-4d54-8c90-12b57c82aa77","a0a8f18c-a66e-4ba7-a170-23efbdc67501","{""participantId"":""8E88935E67134E86BCF0B22E8E14E3BA"",""assignmentId"":""672ce681-3c8c-4d54-8c90-12b57c82aa77"",""projectId"":""a0a8f18c-a66e-4ba7-a170-23efbdc67501""}","https://test12345.live/?participantId=8E88935E67134E86BCF0B22E8E14E3BA&assignmentId=672ce681-3c8c-4d54-8c90-12b57c82aa77&projectId=a0a8f18c-a66e-4ba7-a170-23efbdc67501","8E88935E67134E86BCF0B22E8E14E3BA-2024-11-24-18-38-19","","1076","","images/causal_sequence/saving_a_cat_causal/saving_a_cat_causal_ten.png","0","",""
"","","","","","image-button-response","118","645321","0.0-14.0-1.0-2.9","8E88935E67134E86BCF0B22E8E14E3BA","8E88935E67134E86BCF0B22E8E14E3BA","672ce681-3c8c-4d54-8c90-12b57c82aa77","a0a8f18c-a66e-4ba7-a170-23efbdc67501","{""participantId"":""8E88935E67134E86BCF0B22E8E14E3BA"",""assignmentId"":""672ce681-3c8c-4d54-8c90-12b57c82aa77"",""projectId"":""a0a8f18c-a66e-4ba7-a170-23efbdc67501""}","https://test12345.live/?participantId=8E88935E67134E86BCF0B22E8E14E3BA&assignmentId=672ce681-3c8c-4d54-8c90-12b57c82aa77&projectId=a0a8f18c-a66e-4ba7-a170-23efbdc67501","8E88935E67134E86BCF0B22E8E14E3BA-2024-11-24-18-38-19","","null","","[]","null","",""
"","","","","","html-audio-response","119","697719","0.0-15.0","8E88935E67134E86BCF0B22E8E14E3BA","8E88935E67134E86BCF0B22E8E14E3BA","672ce681-3c8c-4d54-8c90-12b57c82aa77","a0a8f18c-a66e-4ba7-a170-23efbdc67501","{""participantId"":""8E88935E67134E86BCF0B22E8E14E3BA"",""assignmentId"":""672ce681-3c8c-4d54-8c90-12b57c82aa77"",""projectId"":""a0a8f18c-a66e-4ba7-a170-23efbdc67501""}","https://test12345.live/?participantId=8E88935E67134E86BCF0B22E8E14E3BA&assignmentId=672ce681-3c8c-4d54-8c90-12b57c82aa77&projectId=a0a8f18c-a66e-4ba7-a170-23efbdc67501","8E88935E67134E86BCF0B22E8E14E3BA-2024-11-24-18-38-19","","41950","","[""<span style=\""color: red; font-size: 24px\""> NOW RECORDING</span><p>Please say out loud all the images you saw, as many as you can remember. The images can be said in any order.</p>""]","","19","saving_a_cat_causal"
"","","","","","image-button-response","120","703749","0.0-16.0-0.0","8E88935E67134E86BCF0B22E8E14E3BA","8E88935E67134E86BCF0B22E8E14E3BA","672ce681-3c8c-4d54-8c90-12b57c82aa77","a0a8f18c-a66e-4ba7-a170-23efbdc67501","{""participantId"":""8E88935E67134E86BCF0B22E8E14E3BA"",""assignmentId"":""672ce681-3c8c-4d54-8c90-12b57c82aa77"",""projectId"":""a0a8f18c-a66e-4ba7-a170-23efbdc67501""}","https://test12345.live/?participantId=8E88935E67134E86BCF0B22E8E14E3BA&assignmentId=672ce681-3c8c-4d54-8c90-12b57c82aa77&projectId=a0a8f18c-a66e-4ba7-a170-23efbdc67501","8E88935E67134E86BCF0B22E8E14E3BA-2024-11-24-18-38-19","","null","","images/schematic_sequence/restaurant_scheme/restaurant_scheme_0.png","null","",""
"","","","","","image-button-response","121","708253","0.0-16.0-1.0-0.0","8E88935E67134E86BCF0B22E8E14E3BA","8E88935E67134E86BCF0B22E8E14E3BA","672ce681-3c8c-4d54-8c90-12b57c82aa77","a0a8f18c-a66e-4ba7-a170-23efbdc67501","{""participantId"":""8E88935E67134E86BCF0B22E8E14E3BA"",""assignmentId"":""672ce681-3c8c-4d54-8c90-12b57c82aa77"",""projectId"":""a0a8f18c-a66e-4ba7-a170-23efbdc67501""}","https://test12345.live/?participantId=8E88935E67134E86BCF0B22E8E14E3BA&assignmentId=672ce681-3c8c-4d54-8c90-12b57c82aa77&projectId=a0a8f18c-a66e-4ba7-a170-23efbdc67501","8E88935E67134E86BCF0B22E8E14E3BA-2024-11-24-18-38-19","","null","","images/schematic_sequence/restaurant_scheme/restaurant_scheme_3.png","null","",""
"","","","","","image-button-response","122","711077","0.0-16.0-1.0-1.0","8E88935E67134E86BCF0B22E8E14E3BA","8E88935E67134E86BCF0B22E8E14E3BA","672ce681-3c8c-4d54-8c90-12b57c82aa77","a0a8f18c-a66e-4ba7-a170-23efbdc67501","{""participantId"":""8E88935E67134E86BCF0B22E8E14E3BA"",""assignmentId"":""672ce681-3c8c-4d54-8c90-12b57c82aa77"",""projectId"":""a0a8f18c-a66e-4ba7-a170-23efbdc67501""}","https://test12345.live/?participantId=8E88935E67134E86BCF0B22E8E14E3BA&assignmentId=672ce681-3c8c-4d54-8c90-12b57c82aa77&projectId=a0a8f18c-a66e-4ba7-a170-23efbdc67501","8E88935E67134E86BCF0B22E8E14E3BA-2024-11-24-18-38-19","","2823","","images/schematic_sequence/restaurant_scheme/restaurant_scheme_3.png","1","",""
"","","","","","image-button-response","123","712891","0.0-16.0-1.0-2.0","8E88935E67134E86BCF0B22E8E14E3BA","8E88935E67134E86BCF0B22E8E14E3BA","672ce681-3c8c-4d54-8c90-12b57c82aa77","a0a8f18c-a66e-4ba7-a170-23efbdc67501","{""participantId"":""8E88935E67134E86BCF0B22E8E14E3BA"",""assignmentId"":""672ce681-3c8c-4d54-8c90-12b57c82aa77"",""projectId"":""a0a8f18c-a66e-4ba7-a170-23efbdc67501""}","https://test12345.live/?participantId=8E88935E67134E86BCF0B22E8E14E3BA&assignmentId=672ce681-3c8c-4d54-8c90-12b57c82aa77&projectId=a0a8f18c-a66e-4ba7-a170-23efbdc67501","8E88935E67134E86BCF0B22E8E14E3BA-2024-11-24-18-38-19","","null","","[]","null","",""
"","","","","","image-button-response","124","717398","0.0-16.0-1.0-0.1","8E88935E67134E86BCF0B22E8E14E3BA","8E88935E67134E86BCF0B22E8E14E3BA","672ce681-3c8c-4d54-8c90-12b57c82aa77","a0a8f18c-a66e-4ba7-a170-23efbdc67501","{""participantId"":""8E88935E67134E86BCF0B22E8E14E3BA"",""assignmentId"":""672ce681-3c8c-4d54-8c90-12b57c82aa77"",""projectId"":""a0a8f18c-a66e-4ba7-a170-23efbdc67501""}","https://test12345.live/?participantId=8E88935E67134E86BCF0B22E8E14E3BA&assignmentId=672ce681-3c8c-4d54-8c90-12b57c82aa77&projectId=a0a8f18c-a66e-4ba7-a170-23efbdc67501","8E88935E67134E86BCF0B22E8E14E3BA-2024-11-24-18-38-19","","null","","images/schematic_sequence/restaurant_scheme/restaurant_scheme_2.png","null","",""
"","","","","","image-button-response","125","719678","0.0-16.0-1.0-1.1","8E88935E67134E86BCF0B22E8E14E3BA","8E88935E67134E86BCF0B22E8E14E3BA","672ce681-3c8c-4d54-8c90-12b57c82aa77","a0a8f18c-a66e-4ba7-a170-23efbdc67501","{""participantId"":""8E88935E67134E86BCF0B22E8E14E3BA"",""assignmentId"":""672ce681-3c8c-4d54-8c90-12b57c82aa77"",""projectId"":""a0a8f18c-a66e-4ba7-a170-23efbdc67501""}","https://test12345.live/?participantId=8E88935E67134E86BCF0B22E8E14E3BA&assignmentId=672ce681-3c8c-4d54-8c90-12b57c82aa77&projectId=a0a8f18c-a66e-4ba7-a170-23efbdc67501","8E88935E67134E86BCF0B22E8E14E3BA-2024-11-24-18-38-19","","2278","","images/schematic_sequence/restaurant_scheme/restaurant_scheme_2.png","1","",""
"","","","","","image-button-response","126","721482","0.0-16.0-1.0-2.1","8E88935E67134E86BCF0B22E8E14E3BA","8E88935E67134E86BCF0B22E8E14E3BA","672ce681-3c8c-4d54-8c90-12b57c82aa77","a0a8f18c-a66e-4ba7-a170-23efbdc67501","{""participantId"":""8E88935E67134E86BCF0B22E8E14E3BA"",""assignmentId"":""672ce681-3c8c-4d54-8c90-12b57c82aa77"",""projectId"":""a0a8f18c-a66e-4ba7-a170-23efbdc67501""}","https://test12345.live/?participantId=8E88935E67134E86BCF0B22E8E14E3BA&assignmentId=672ce681-3c8c-4d54-8c90-12b57c82aa77&projectId=a0a8f18c-a66e-4ba7-a170-23efbdc67501","8E88935E67134E86BCF0B22E8E14E3BA-2024-11-24-18-38-19","","null","","[]","null","",""
"","","","","","image-button-response","127","725985","0.0-16.0-1.0-0.2","8E88935E67134E86BCF0B22E8E14E3BA","8E88935E67134E86BCF0B22E8E14E3BA","672ce681-3c8c-4d54-8c90-12b57c82aa77","a0a8f18c-a66e-4ba7-a170-23efbdc67501","{""participantId"":""8E88935E67134E86BCF0B22E8E14E3BA"",""assignmentId"":""672ce681-3c8c-4d54-8c90-12b57c82aa77"",""projectId"":""a0a8f18c-a66e-4ba7-a170-23efbdc67501""}","https://test12345.live/?participantId=8E88935E67134E86BCF0B22E8E14E3BA&assignmentId=672ce681-3c8c-4d54-8c90-12b57c82aa77&projectId=a0a8f18c-a66e-4ba7-a170-23efbdc67501","8E88935E67134E86BCF0B22E8E14E3BA-2024-11-24-18-38-19","","null","","images/schematic_sequence/restaurant_scheme/restaurant_scheme_9.png","null","",""
"","","","","","image-button-response","128","728606","0.0-16.0-1.0-1.2","8E88935E67134E86BCF0B22E8E14E3BA","8E88935E67134E86BCF0B22E8E14E3BA","672ce681-3c8c-4d54-8c90-12b57c82aa77","a0a8f18c-a66e-4ba7-a170-23efbdc67501","{""participantId"":""8E88935E67134E86BCF0B22E8E14E3BA"",""assignmentId"":""672ce681-3c8c-4d54-8c90-12b57c82aa77"",""projectId"":""a0a8f18c-a66e-4ba7-a170-23efbdc67501""}","https://test12345.live/?participantId=8E88935E67134E86BCF0B22E8E14E3BA&assignmentId=672ce681-3c8c-4d54-8c90-12b57c82aa77&projectId=a0a8f18c-a66e-4ba7-a170-23efbdc67501","8E88935E67134E86BCF0B22E8E14E3BA-2024-11-24-18-38-19","","2617","","images/schematic_sequence/restaurant_scheme/restaurant_scheme_9.png","0","",""
"","","","","","image-button-response","129","730423","0.0-16.0-1.0-2.2","8E88935E67134E86BCF0B22E8E14E3BA","8E88935E67134E86BCF0B22E8E14E3BA","672ce681-3c8c-4d54-8c90-12b57c82aa77","a0a8f18c-a66e-4ba7-a170-23efbdc67501","{""participantId"":""8E88935E67134E86BCF0B22E8E14E3BA"",""assignmentId"":""672ce681-3c8c-4d54-8c90-12b57c82aa77"",""projectId"":""a0a8f18c-a66e-4ba7-a170-23efbdc67501""}","https://test12345.live/?participantId=8E88935E67134E86BCF0B22E8E14E3BA&assignmentId=672ce681-3c8c-4d54-8c90-12b57c82aa77&projectId=a0a8f18c-a66e-4ba7-a170-23efbdc67501","8E88935E67134E86BCF0B22E8E14E3BA-2024-11-24-18-38-19","","null","","[]","null","",""
"","","","","","image-button-response","130","734939","0.0-16.0-1.0-0.3","8E88935E67134E86BCF0B22E8E14E3BA","8E88935E67134E86BCF0B22E8E14E3BA","672ce681-3c8c-4d54-8c90-12b57c82aa77","a0a8f18c-a66e-4ba7-a170-23efbdc67501","{""participantId"":""8E88935E67134E86BCF0B22E8E14E3BA"",""assignmentId"":""672ce681-3c8c-4d54-8c90-12b57c82aa77"",""projectId"":""a0a8f18c-a66e-4ba7-a170-23efbdc67501""}","https://test12345.live/?participantId=8E88935E67134E86BCF0B22E8E14E3BA&assignmentId=672ce681-3c8c-4d54-8c90-12b57c82aa77&projectId=a0a8f18c-a66e-4ba7-a170-23efbdc67501","8E88935E67134E86BCF0B22E8E14E3BA-2024-11-24-18-38-19","","null","","images/schematic_sequence/restaurant_scheme/restaurant_scheme_5.png","null","",""
"","","","","","image-button-response","131","736685","0.0-16.0-1.0-1.3","8E88935E67134E86BCF0B22E8E14E3BA","8E88935E67134E86BCF0B22E8E14E3BA","672ce681-3c8c-4d54-8c90-12b57c82aa77","a0a8f18c-a66e-4ba7-a170-23efbdc67501","{""participantId"":""8E88935E67134E86BCF0B22E8E14E3BA"",""assignmentId"":""672ce681-3c8c-4d54-8c90-12b57c82aa77"",""projectId"":""a0a8f18c-a66e-4ba7-a170-23efbdc67501""}","https://test12345.live/?participantId=8E88935E67134E86BCF0B22E8E14E3BA&assignmentId=672ce681-3c8c-4d54-8c90-12b57c82aa77&projectId=a0a8f18c-a66e-4ba7-a170-23efbdc67501","8E88935E67134E86BCF0B22E8E14E3BA-2024-11-24-18-38-19","","1743","","images/schematic_sequence/restaurant_scheme/restaurant_scheme_5.png","0","",""
"","","","","","image-button-response","132","738498","0.0-16.0-1.0-2.3","8E88935E67134E86BCF0B22E8E14E3BA","8E88935E67134E86BCF0B22E8E14E3BA","672ce681-3c8c-4d54-8c90-12b57c82aa77","a0a8f18c-a66e-4ba7-a170-23efbdc67501","{""participantId"":""8E88935E67134E86BCF0B22E8E14E3BA"",""assignmentId"":""672ce681-3c8c-4d54-8c90-12b57c82aa77"",""projectId"":""a0a8f18c-a66e-4ba7-a170-23efbdc67501""}","https://test12345.live/?participantId=8E88935E67134E86BCF0B22E8E14E3BA&assignmentId=672ce681-3c8c-4d54-8c90-12b57c82aa77&projectId=a0a8f18c-a66e-4ba7-a170-23efbdc67501","8E88935E67134E86BCF0B22E8E14E3BA-2024-11-24-18-38-19","","null","","[]","null","",""
"","","","","","image-button-response","133","742999","0.0-16.0-1.0-0.4","8E88935E67134E86BCF0B22E8E14E3BA","8E88935E67134E86BCF0B22E8E14E3BA","672ce681-3c8c-4d54-8c90-12b57c82aa77","a0a8f18c-a66e-4ba7-a170-23efbdc67501","{""participantId"":""8E88935E67134E86BCF0B22E8E14E3BA"",""assignmentId"":""672ce681-3c8c-4d54-8c90-12b57c82aa77"",""projectId"":""a0a8f18c-a66e-4ba7-a170-23efbdc67501""}","https://test12345.live/?participantId=8E88935E67134E86BCF0B22E8E14E3BA&assignmentId=672ce681-3c8c-4d54-8c90-12b57c82aa77&projectId=a0a8f18c-a66e-4ba7-a170-23efbdc67501","8E88935E67134E86BCF0B22E8E14E3BA-2024-11-24-18-38-19","","null","","images/schematic_sequence/restaurant_scheme/restaurant_scheme_1.png","null","",""
"","","","","","image-button-response","134","744983","0.0-16.0-1.0-1.4","8E88935E67134E86BCF0B22E8E14E3BA","8E88935E67134E86BCF0B22E8E14E3BA","672ce681-3c8c-4d54-8c90-12b57c82aa77","a0a8f18c-a66e-4ba7-a170-23efbdc67501","{""participantId"":""8E88935E67134E86BCF0B22E8E14E3BA"",""assignmentId"":""672ce681-3c8c-4d54-8c90-12b57c82aa77"",""projectId"":""a0a8f18c-a66e-4ba7-a170-23efbdc67501""}","https://test12345.live/?participantId=8E88935E67134E86BCF0B22E8E14E3BA&assignmentId=672ce681-3c8c-4d54-8c90-12b57c82aa77&projectId=a0a8f18c-a66e-4ba7-a170-23efbdc67501","8E88935E67134E86BCF0B22E8E14E3BA-2024-11-24-18-38-19","","1983","","images/schematic_sequence/restaurant_scheme/restaurant_scheme_1.png","0","",""
"","","","","","image-button-response","135","746799","0.0-16.0-1.0-2.4","8E88935E67134E86BCF0B22E8E14E3BA","8E88935E67134E86BCF0B22E8E14E3BA","672ce681-3c8c-4d54-8c90-12b57c82aa77","a0a8f18c-a66e-4ba7-a170-23efbdc67501","{""participantId"":""8E88935E67134E86BCF0B22E8E14E3BA"",""assignmentId"":""672ce681-3c8c-4d54-8c90-12b57c82aa77"",""projectId"":""a0a8f18c-a66e-4ba7-a170-23efbdc67501""}","https://test12345.live/?participantId=8E88935E67134E86BCF0B22E8E14E3BA&assignmentId=672ce681-3c8c-4d54-8c90-12b57c82aa77&projectId=a0a8f18c-a66e-4ba7-a170-23efbdc67501","8E88935E67134E86BCF0B22E8E14E3BA-2024-11-24-18-38-19","","null","","[]","null","",""
"","","","","","image-button-response","136","751313","0.0-16.0-1.0-0.5","8E88935E67134E86BCF0B22E8E14E3BA","8E88935E67134E86BCF0B22E8E14E3BA","672ce681-3c8c-4d54-8c90-12b57c82aa77","a0a8f18c-a66e-4ba7-a170-23efbdc67501","{""participantId"":""8E88935E67134E86BCF0B22E8E14E3BA"",""assignmentId"":""672ce681-3c8c-4d54-8c90-12b57c82aa77"",""projectId"":""a0a8f18c-a66e-4ba7-a170-23efbdc67501""}","https://test12345.live/?participantId=8E88935E67134E86BCF0B22E8E14E3BA&assignmentId=672ce681-3c8c-4d54-8c90-12b57c82aa77&projectId=a0a8f18c-a66e-4ba7-a170-23efbdc67501","8E88935E67134E86BCF0B22E8E14E3BA-2024-11-24-18-38-19","","null","","images/schematic_sequence/restaurant_scheme/restaurant_scheme_6.png","null","",""
"","","","","","image-button-response","137","753621","0.0-16.0-1.0-1.5","8E88935E67134E86BCF0B22E8E14E3BA","8E88935E67134E86BCF0B22E8E14E3BA","672ce681-3c8c-4d54-8c90-12b57c82aa77","a0a8f18c-a66e-4ba7-a170-23efbdc67501","{""participantId"":""8E88935E67134E86BCF0B22E8E14E3BA"",""assignmentId"":""672ce681-3c8c-4d54-8c90-12b57c82aa77"",""projectId"":""a0a8f18c-a66e-4ba7-a170-23efbdc67501""}","https://test12345.live/?participantId=8E88935E67134E86BCF0B22E8E14E3BA&assignmentId=672ce681-3c8c-4d54-8c90-12b57c82aa77&projectId=a0a8f18c-a66e-4ba7-a170-23efbdc67501","8E88935E67134E86BCF0B22E8E14E3BA-2024-11-24-18-38-19","","2307","","images/schematic_sequence/restaurant_scheme/restaurant_scheme_6.png","1","",""
"","","","","","image-button-response","138","755433","0.0-16.0-1.0-2.5","8E88935E67134E86BCF0B22E8E14E3BA","8E88935E67134E86BCF0B22E8E14E3BA","672ce681-3c8c-4d54-8c90-12b57c82aa77","a0a8f18c-a66e-4ba7-a170-23efbdc67501","{""participantId"":""8E88935E67134E86BCF0B22E8E14E3BA"",""assignmentId"":""672ce681-3c8c-4d54-8c90-12b57c82aa77"",""projectId"":""a0a8f18c-a66e-4ba7-a170-23efbdc67501""}","https://test12345.live/?participantId=8E88935E67134E86BCF0B22E8E14E3BA&assignmentId=672ce681-3c8c-4d54-8c90-12b57c82aa77&projectId=a0a8f18c-a66e-4ba7-a170-23efbdc67501","8E88935E67134E86BCF0B22E8E14E3BA-2024-11-24-18-38-19","","null","","[]","null","",""
"","","","","","image-button-response","139","759937","0.0-16.0-1.0-0.6","8E88935E67134E86BCF0B22E8E14E3BA","8E88935E67134E86BCF0B22E8E14E3BA","672ce681-3c8c-4d54-8c90-12b57c82aa77","a0a8f18c-a66e-4ba7-a170-23efbdc67501","{""participantId"":""8E88935E67134E86BCF0B22E8E14E3BA"",""assignmentId"":""672ce681-3c8c-4d54-8c90-12b57c82aa77"",""projectId"":""a0a8f18c-a66e-4ba7-a170-23efbdc67501""}","https://test12345.live/?participantId=8E88935E67134E86BCF0B22E8E14E3BA&assignmentId=672ce681-3c8c-4d54-8c90-12b57c82aa77&projectId=a0a8f18c-a66e-4ba7-a170-23efbdc67501","8E88935E67134E86BCF0B22E8E14E3BA-2024-11-24-18-38-19","","null","","images/schematic_sequence/restaurant_scheme/restaurant_scheme_8.png","null","",""
"","","","","","image-button-response","140","763456","0.0-16.0-1.0-1.6","8E88935E67134E86BCF0B22E8E14E3BA","8E88935E67134E86BCF0B22E8E14E3BA","672ce681-3c8c-4d54-8c90-12b57c82aa77","a0a8f18c-a66e-4ba7-a170-23efbdc67501","{""participantId"":""8E88935E67134E86BCF0B22E8E14E3BA"",""assignmentId"":""672ce681-3c8c-4d54-8c90-12b57c82aa77"",""projectId"":""a0a8f18c-a66e-4ba7-a170-23efbdc67501""}","https://test12345.live/?participantId=8E88935E67134E86BCF0B22E8E14E3BA&assignmentId=672ce681-3c8c-4d54-8c90-12b57c82aa77&projectId=a0a8f18c-a66e-4ba7-a170-23efbdc67501","8E88935E67134E86BCF0B22E8E14E3BA-2024-11-24-18-38-19","","3516","","images/schematic_sequence/restaurant_scheme/restaurant_scheme_8.png","0","",""
"","","","","","image-button-response","141","765260","0.0-16.0-1.0-2.6","8E88935E67134E86BCF0B22E8E14E3BA","8E88935E67134E86BCF0B22E8E14E3BA","672ce681-3c8c-4d54-8c90-12b57c82aa77","a0a8f18c-a66e-4ba7-a170-23efbdc67501","{""participantId"":""8E88935E67134E86BCF0B22E8E14E3BA"",""assignmentId"":""672ce681-3c8c-4d54-8c90-12b57c82aa77"",""projectId"":""a0a8f18c-a66e-4ba7-a170-23efbdc67501""}","https://test12345.live/?participantId=8E88935E67134E86BCF0B22E8E14E3BA&assignmentId=672ce681-3c8c-4d54-8c90-12b57c82aa77&projectId=a0a8f18c-a66e-4ba7-a170-23efbdc67501","8E88935E67134E86BCF0B22E8E14E3BA-2024-11-24-18-38-19","","null","","[]","null","",""
"","","","","","image-button-response","142","769773","0.0-16.0-1.0-0.7","8E88935E67134E86BCF0B22E8E14E3BA","8E88935E67134E86BCF0B22E8E14E3BA","672ce681-3c8c-4d54-8c90-12b57c82aa77","a0a8f18c-a66e-4ba7-a170-23efbdc67501","{""participantId"":""8E88935E67134E86BCF0B22E8E14E3BA"",""assignmentId"":""672ce681-3c8c-4d54-8c90-12b57c82aa77"",""projectId"":""a0a8f18c-a66e-4ba7-a170-23efbdc67501""}","https://test12345.live/?participantId=8E88935E67134E86BCF0B22E8E14E3BA&assignmentId=672ce681-3c8c-4d54-8c90-12b57c82aa77&projectId=a0a8f18c-a66e-4ba7-a170-23efbdc67501","8E88935E67134E86BCF0B22E8E14E3BA-2024-11-24-18-38-19","","null","","images/schematic_sequence/restaurant_scheme/restaurant_scheme_4.png","null","",""
"","","","","","image-button-response","143","771283","0.0-16.0-1.0-1.7","8E88935E67134E86BCF0B22E8E14E3BA","8E88935E67134E86BCF0B22E8E14E3BA","672ce681-3c8c-4d54-8c90-12b57c82aa77","a0a8f18c-a66e-4ba7-a170-23efbdc67501","{""participantId"":""8E88935E67134E86BCF0B22E8E14E3BA"",""assignmentId"":""672ce681-3c8c-4d54-8c90-12b57c82aa77"",""projectId"":""a0a8f18c-a66e-4ba7-a170-23efbdc67501""}","https://test12345.live/?participantId=8E88935E67134E86BCF0B22E8E14E3BA&assignmentId=672ce681-3c8c-4d54-8c90-12b57c82aa77&projectId=a0a8f18c-a66e-4ba7-a170-23efbdc67501","8E88935E67134E86BCF0B22E8E14E3BA-2024-11-24-18-38-19","","1507","","images/schematic_sequence/restaurant_scheme/restaurant_scheme_4.png","0","",""
