"success","timeout","failed_images","failed_audio","failed_video","trial_type","trial_index","time_elapsed","internal_node_id","subject","subject_id","study_id","session_id","urlvar","current_url","audio_id","view_history","rt","device_id","stimulus","response","estimated_stimulus_onset","seq_name"
"true","false","[]","[]","[]","preload","0","56704","0.0-0.0","8EAF79BABBD84DE7B86DA1F74B05704E","8EAF79BABBD84DE7B86DA1F74B05704E","a9628565-d207-45c8-b398-b6102b497bb4","ba640c14-69c5-453e-80b2-29051492c0e0","{""num_scrambled_semantic"":""8"",""num_scrambled_causal"":""4"",""num_scrambled_schematic"":""4"",""participantId"":""8EAF79BABBD84DE7B86DA1F74B05704E"",""assignmentId"":""a9628565-d207-45c8-b398-b6102b497bb4"",""projectId"":""ba640c14-69c5-453e-80b2-29051492c0e0""}","https://test12345.live/?num_scrambled_semantic=8&num_scrambled_causal=4&num_scrambled_schematic=4&participantId=8EAF79BABBD84DE7B86DA1F74B05704E&assignmentId=a9628565-d207-45c8-b398-b6102b497bb4&projectId=ba640c14-69c5-453e-80b2-29051492c0e0","8EAF79BABBD84DE7B86DA1F74B05704E-2025-05-14-22-13-54","","","","","","",""
"","","","","","instructions","1","83224","0.0-1.0","8EAF79BABBD84DE7B86DA1F74B05704E","8EAF79BABBD84DE7B86DA1F74B05704E","a9628565-d207-45c8-b398-b6102b497bb4","ba640c14-69c5-453e-80b2-29051492c0e0","{""num_scrambled_semantic"":""8"",""num_scrambled_causal"":""4"",""num_scrambled_schematic"":""4"",""participantId"":""8EAF79BABBD84DE7B86DA1F74B05704E"",""assignmentId"":""a9628565-d207-45c8-b398-b6102b497bb4"",""projectId"":""ba640c14-69c5-453e-80b2-29051492c0e0""}","https://test12345.live/?num_scrambled_semantic=8&num_scrambled_causal=4&num_scrambled_schematic=4&participantId=8EAF79BABBD84DE7B86DA1F74B05704E&assignmentId=a9628565-d207-45c8-b398-b6102b497bb4&projectId=ba640c14-69c5-453e-80b2-29051492c0e0","8EAF79BABBD84DE7B86DA1F74B05704E-2025-05-14-22-13-54","[{""page_index"":0,""viewing_time"":26516}]","26516","","","","",""
"","","","","","instructions","2","90721","0.0-2.0","8EAF79BABBD84DE7B86DA1F74B05704E","8EAF79BABBD84DE7B86DA1F74B05704E","a9628565-d207-45c8-b398-b6102b497bb4","ba640c14-69c5-453e-80b2-29051492c0e0","{""num_scrambled_semantic"":""8"",""num_scrambled_causal"":""4"",""num_scrambled_schematic"":""4"",""participantId"":""8EAF79BABBD84DE7B86DA1F74B05704E"",""assignmentId"":""a9628565-d207-45c8-b398-b6102b497bb4"",""projectId"":""ba640c14-69c5-453e-80b2-29051492c0e0""}","https://test12345.live/?num_scrambled_semantic=8&num_scrambled_causal=4&num_scrambled_schematic=4&participantId=8EAF79BABBD84DE7B86DA1F74B05704E&assignmentId=a9628565-d207-45c8-b398-b6102b497bb4&projectId=ba640c14-69c5-453e-80b2-29051492c0e0","8EAF79BABBD84DE7B86DA1F74B05704E-2025-05-14-22-13-54","[{""page_index"":0,""viewing_time"":7478}]","7478","","","","",""
"true","","","","","fullscreen","3","93737","0.0-3.0","8EAF79BABBD84DE7B86DA1F74B05704E","8EAF79BABBD84DE7B86DA1F74B05704E","a9628565-d207-45c8-b398-b6102b497bb4","ba640c14-69c5-453e-80b2-29051492c0e0","{""num_scrambled_semantic"":""8"",""num_scrambled_causal"":""4"",""num_scrambled_schematic"":""4"",""participantId"":""8EAF79BABBD84DE7B86DA1F74B05704E"",""assignmentId"":""a9628565-d207-45c8-b398-b6102b497bb4"",""projectId"":""ba640c14-69c5-453e-80b2-29051492c0e0""}","https://test12345.live/?num_scrambled_semantic=8&num_scrambled_causal=4&num_scrambled_schematic=4&participantId=8EAF79BABBD84DE7B86DA1F74B05704E&assignmentId=a9628565-d207-45c8-b398-b6102b497bb4&projectId=ba640c14-69c5-453e-80b2-29051492c0e0","8EAF79BABBD84DE7B86DA1F74B05704E-2025-05-14-22-13-54","","1843","","","","",""
"","","","","","initialize-microphone","4","106473","0.0-4.0-0.0","8EAF79BABBD84DE7B86DA1F74B05704E","8EAF79BABBD84DE7B86DA1F74B05704E","a9628565-d207-45c8-b398-b6102b497bb4","ba640c14-69c5-453e-80b2-29051492c0e0","{""num_scrambled_semantic"":""8"",""num_scrambled_causal"":""4"",""num_scrambled_schematic"":""4"",""participantId"":""8EAF79BABBD84DE7B86DA1F74B05704E"",""assignmentId"":""a9628565-d207-45c8-b398-b6102b497bb4"",""projectId"":""ba640c14-69c5-453e-80b2-29051492c0e0""}","https://test12345.live/?num_scrambled_semantic=8&num_scrambled_causal=4&num_scrambled_schematic=4&participantId=8EAF79BABBD84DE7B86DA1F74B05704E&assignmentId=a9628565-d207-45c8-b398-b6102b497bb4&projectId=ba640c14-69c5-453e-80b2-29051492c0e0","8EAF79BABBD84DE7B86DA1F74B05704E-2025-05-14-22-13-54","","","4fcf7ae95ac408272c85ae30f6c125d844a17752487f5d441363b9c6f65a822f","","","",""
"","","","","","html-audio-response","5","191172","0.0-4.0-1.0","8EAF79BABBD84DE7B86DA1F74B05704E","8EAF79BABBD84DE7B86DA1F74B05704E","a9628565-d207-45c8-b398-b6102b497bb4","ba640c14-69c5-453e-80b2-29051492c0e0","{""num_scrambled_semantic"":""8"",""num_scrambled_causal"":""4"",""num_scrambled_schematic"":""4"",""participantId"":""8EAF79BABBD84DE7B86DA1F74B05704E"",""assignmentId"":""a9628565-d207-45c8-b398-b6102b497bb4"",""projectId"":""ba640c14-69c5-453e-80b2-29051492c0e0""}","https://test12345.live/?num_scrambled_semantic=8&num_scrambled_causal=4&num_scrambled_schematic=4&participantId=8EAF79BABBD84DE7B86DA1F74B05704E&assignmentId=a9628565-d207-45c8-b398-b6102b497bb4&projectId=ba640c14-69c5-453e-80b2-29051492c0e0","8EAF79BABBD84DE7B86DA1F74B05704E-2025-05-14-22-13-54","","2089","","<span style=""color: red; font-size: 24px""> NOW RECORDING</span>
        <p>Please test Microphone</p>","","13",""
"","","","","","html-button-response","6","195144","0.0-4.0-2.0","8EAF79BABBD84DE7B86DA1F74B05704E","8EAF79BABBD84DE7B86DA1F74B05704E","a9628565-d207-45c8-b398-b6102b497bb4","ba640c14-69c5-453e-80b2-29051492c0e0","{""num_scrambled_semantic"":""8"",""num_scrambled_causal"":""4"",""num_scrambled_schematic"":""4"",""participantId"":""8EAF79BABBD84DE7B86DA1F74B05704E"",""assignmentId"":""a9628565-d207-45c8-b398-b6102b497bb4"",""projectId"":""ba640c14-69c5-453e-80b2-29051492c0e0""}","https://test12345.live/?num_scrambled_semantic=8&num_scrambled_causal=4&num_scrambled_schematic=4&participantId=8EAF79BABBD84DE7B86DA1F74B05704E&assignmentId=a9628565-d207-45c8-b398-b6102b497bb4&projectId=ba640c14-69c5-453e-80b2-29051492c0e0","8EAF79BABBD84DE7B86DA1F74B05704E-2025-05-14-22-13-54","","3966","","<p style=""font-size:48px; color:red;"">Is Microphone OK?</p>","1","",""
"","","","","","instructions","7","208186","0.0-5.0","8EAF79BABBD84DE7B86DA1F74B05704E","8EAF79BABBD84DE7B86DA1F74B05704E","a9628565-d207-45c8-b398-b6102b497bb4","ba640c14-69c5-453e-80b2-29051492c0e0","{""num_scrambled_semantic"":""8"",""num_scrambled_causal"":""4"",""num_scrambled_schematic"":""4"",""participantId"":""8EAF79BABBD84DE7B86DA1F74B05704E"",""assignmentId"":""a9628565-d207-45c8-b398-b6102b497bb4"",""projectId"":""ba640c14-69c5-453e-80b2-29051492c0e0""}","https://test12345.live/?num_scrambled_semantic=8&num_scrambled_causal=4&num_scrambled_schematic=4&participantId=8EAF79BABBD84DE7B86DA1F74B05704E&assignmentId=a9628565-d207-45c8-b398-b6102b497bb4&projectId=ba640c14-69c5-453e-80b2-29051492c0e0","8EAF79BABBD84DE7B86DA1F74B05704E-2025-05-14-22-13-54","[{""page_index"":0,""viewing_time"":7708},{""page_index"":1,""viewing_time"":5332}]","13040","","","","",""
"","","","","","image-button-response","8","214318","0.0-6.0-0.0","8EAF79BABBD84DE7B86DA1F74B05704E","8EAF79BABBD84DE7B86DA1F74B05704E","a9628565-d207-45c8-b398-b6102b497bb4","ba640c14-69c5-453e-80b2-29051492c0e0","{""num_scrambled_semantic"":""8"",""num_scrambled_causal"":""4"",""num_scrambled_schematic"":""4"",""participantId"":""8EAF79BABBD84DE7B86DA1F74B05704E"",""assignmentId"":""a9628565-d207-45c8-b398-b6102b497bb4"",""projectId"":""ba640c14-69c5-453e-80b2-29051492c0e0""}","https://test12345.live/?num_scrambled_semantic=8&num_scrambled_causal=4&num_scrambled_schematic=4&participantId=8EAF79BABBD84DE7B86DA1F74B05704E&assignmentId=a9628565-d207-45c8-b398-b6102b497bb4&projectId=ba640c14-69c5-453e-80b2-29051492c0e0","8EAF79BABBD84DE7B86DA1F74B05704E-2025-05-14-22-13-54","","null","","images/instructions/movie_0.png","null","",""
"","","","","","image-button-response","9","218828","0.0-6.0-1.0-0.0","8EAF79BABBD84DE7B86DA1F74B05704E","8EAF79BABBD84DE7B86DA1F74B05704E","a9628565-d207-45c8-b398-b6102b497bb4","ba640c14-69c5-453e-80b2-29051492c0e0","{""num_scrambled_semantic"":""8"",""num_scrambled_causal"":""4"",""num_scrambled_schematic"":""4"",""participantId"":""8EAF79BABBD84DE7B86DA1F74B05704E"",""assignmentId"":""a9628565-d207-45c8-b398-b6102b497bb4"",""projectId"":""ba640c14-69c5-453e-80b2-29051492c0e0""}","https://test12345.live/?num_scrambled_semantic=8&num_scrambled_causal=4&num_scrambled_schematic=4&participantId=8EAF79BABBD84DE7B86DA1F74B05704E&assignmentId=a9628565-d207-45c8-b398-b6102b497bb4&projectId=ba640c14-69c5-453e-80b2-29051492c0e0","8EAF79BABBD84DE7B86DA1F74B05704E-2025-05-14-22-13-54","","null","","images/instructions/movie_1.png","null","",""
"","","","","","image-button-response","10","220932","0.0-6.0-1.0-1.0","8EAF79BABBD84DE7B86DA1F74B05704E","8EAF79BABBD84DE7B86DA1F74B05704E","a9628565-d207-45c8-b398-b6102b497bb4","ba640c14-69c5-453e-80b2-29051492c0e0","{""num_scrambled_semantic"":""8"",""num_scrambled_causal"":""4"",""num_scrambled_schematic"":""4"",""participantId"":""8EAF79BABBD84DE7B86DA1F74B05704E"",""assignmentId"":""a9628565-d207-45c8-b398-b6102b497bb4"",""projectId"":""ba640c14-69c5-453e-80b2-29051492c0e0""}","https://test12345.live/?num_scrambled_semantic=8&num_scrambled_causal=4&num_scrambled_schematic=4&participantId=8EAF79BABBD84DE7B86DA1F74B05704E&assignmentId=a9628565-d207-45c8-b398-b6102b497bb4&projectId=ba640c14-69c5-453e-80b2-29051492c0e0","8EAF79BABBD84DE7B86DA1F74B05704E-2025-05-14-22-13-54","","2102","","images/instructions/movie_1.png","0","",""
"","","","","","image-button-response","11","222752","0.0-6.0-1.0-2.0","8EAF79BABBD84DE7B86DA1F74B05704E","8EAF79BABBD84DE7B86DA1F74B05704E","a9628565-d207-45c8-b398-b6102b497bb4","ba640c14-69c5-453e-80b2-29051492c0e0","{""num_scrambled_semantic"":""8"",""num_scrambled_causal"":""4"",""num_scrambled_schematic"":""4"",""participantId"":""8EAF79BABBD84DE7B86DA1F74B05704E"",""assignmentId"":""a9628565-d207-45c8-b398-b6102b497bb4"",""projectId"":""ba640c14-69c5-453e-80b2-29051492c0e0""}","https://test12345.live/?num_scrambled_semantic=8&num_scrambled_causal=4&num_scrambled_schematic=4&participantId=8EAF79BABBD84DE7B86DA1F74B05704E&assignmentId=a9628565-d207-45c8-b398-b6102b497bb4&projectId=ba640c14-69c5-453e-80b2-29051492c0e0","8EAF79BABBD84DE7B86DA1F74B05704E-2025-05-14-22-13-54","","null","","[]","null","",""
"","","","","","image-button-response","12","227255","0.0-6.0-1.0-0.1","8EAF79BABBD84DE7B86DA1F74B05704E","8EAF79BABBD84DE7B86DA1F74B05704E","a9628565-d207-45c8-b398-b6102b497bb4","ba640c14-69c5-453e-80b2-29051492c0e0","{""num_scrambled_semantic"":""8"",""num_scrambled_causal"":""4"",""num_scrambled_schematic"":""4"",""participantId"":""8EAF79BABBD84DE7B86DA1F74B05704E"",""assignmentId"":""a9628565-d207-45c8-b398-b6102b497bb4"",""projectId"":""ba640c14-69c5-453e-80b2-29051492c0e0""}","https://test12345.live/?num_scrambled_semantic=8&num_scrambled_causal=4&num_scrambled_schematic=4&participantId=8EAF79BABBD84DE7B86DA1F74B05704E&assignmentId=a9628565-d207-45c8-b398-b6102b497bb4&projectId=ba640c14-69c5-453e-80b2-29051492c0e0","8EAF79BABBD84DE7B86DA1F74B05704E-2025-05-14-22-13-54","","null","","images/instructions/movie_2.png","null","",""
"","","","","","image-button-response","13","228907","0.0-6.0-1.0-1.1","8EAF79BABBD84DE7B86DA1F74B05704E","8EAF79BABBD84DE7B86DA1F74B05704E","a9628565-d207-45c8-b398-b6102b497bb4","ba640c14-69c5-453e-80b2-29051492c0e0","{""num_scrambled_semantic"":""8"",""num_scrambled_causal"":""4"",""num_scrambled_schematic"":""4"",""participantId"":""8EAF79BABBD84DE7B86DA1F74B05704E"",""assignmentId"":""a9628565-d207-45c8-b398-b6102b497bb4"",""projectId"":""ba640c14-69c5-453e-80b2-29051492c0e0""}","https://test12345.live/?num_scrambled_semantic=8&num_scrambled_causal=4&num_scrambled_schematic=4&participantId=8EAF79BABBD84DE7B86DA1F74B05704E&assignmentId=a9628565-d207-45c8-b398-b6102b497bb4&projectId=ba640c14-69c5-453e-80b2-29051492c0e0","8EAF79BABBD84DE7B86DA1F74B05704E-2025-05-14-22-13-54","","1647","","images/instructions/movie_2.png","0","",""
"","","","","","image-button-response","14","230728","0.0-6.0-1.0-2.1","8EAF79BABBD84DE7B86DA1F74B05704E","8EAF79BABBD84DE7B86DA1F74B05704E","a9628565-d207-45c8-b398-b6102b497bb4","ba640c14-69c5-453e-80b2-29051492c0e0","{""num_scrambled_semantic"":""8"",""num_scrambled_causal"":""4"",""num_scrambled_schematic"":""4"",""participantId"":""8EAF79BABBD84DE7B86DA1F74B05704E"",""assignmentId"":""a9628565-d207-45c8-b398-b6102b497bb4"",""projectId"":""ba640c14-69c5-453e-80b2-29051492c0e0""}","https://test12345.live/?num_scrambled_semantic=8&num_scrambled_causal=4&num_scrambled_schematic=4&participantId=8EAF79BABBD84DE7B86DA1F74B05704E&assignmentId=a9628565-d207-45c8-b398-b6102b497bb4&projectId=ba640c14-69c5-453e-80b2-29051492c0e0","8EAF79BABBD84DE7B86DA1F74B05704E-2025-05-14-22-13-54","","null","","[]","null","",""
"","","","","","image-button-response","15","235242","0.0-6.0-1.0-0.2","8EAF79BABBD84DE7B86DA1F74B05704E","8EAF79BABBD84DE7B86DA1F74B05704E","a9628565-d207-45c8-b398-b6102b497bb4","ba640c14-69c5-453e-80b2-29051492c0e0","{""num_scrambled_semantic"":""8"",""num_scrambled_causal"":""4"",""num_scrambled_schematic"":""4"",""participantId"":""8EAF79BABBD84DE7B86DA1F74B05704E"",""assignmentId"":""a9628565-d207-45c8-b398-b6102b497bb4"",""projectId"":""ba640c14-69c5-453e-80b2-29051492c0e0""}","https://test12345.live/?num_scrambled_semantic=8&num_scrambled_causal=4&num_scrambled_schematic=4&participantId=8EAF79BABBD84DE7B86DA1F74B05704E&assignmentId=a9628565-d207-45c8-b398-b6102b497bb4&projectId=ba640c14-69c5-453e-80b2-29051492c0e0","8EAF79BABBD84DE7B86DA1F74B05704E-2025-05-14-22-13-54","","null","","images/instructions/movie_3.png","null","",""
"","","","","","image-button-response","16","236370","0.0-6.0-1.0-1.2","8EAF79BABBD84DE7B86DA1F74B05704E","8EAF79BABBD84DE7B86DA1F74B05704E","a9628565-d207-45c8-b398-b6102b497bb4","ba640c14-69c5-453e-80b2-29051492c0e0","{""num_scrambled_semantic"":""8"",""num_scrambled_causal"":""4"",""num_scrambled_schematic"":""4"",""participantId"":""8EAF79BABBD84DE7B86DA1F74B05704E"",""assignmentId"":""a9628565-d207-45c8-b398-b6102b497bb4"",""projectId"":""ba640c14-69c5-453e-80b2-29051492c0e0""}","https://test12345.live/?num_scrambled_semantic=8&num_scrambled_causal=4&num_scrambled_schematic=4&participantId=8EAF79BABBD84DE7B86DA1F74B05704E&assignmentId=a9628565-d207-45c8-b398-b6102b497bb4&projectId=ba640c14-69c5-453e-80b2-29051492c0e0","8EAF79BABBD84DE7B86DA1F74B05704E-2025-05-14-22-13-54","","1125","","images/instructions/movie_3.png","0","",""
"","","","","","image-button-response","17","238182","0.0-6.0-1.0-2.2","8EAF79BABBD84DE7B86DA1F74B05704E","8EAF79BABBD84DE7B86DA1F74B05704E","a9628565-d207-45c8-b398-b6102b497bb4","ba640c14-69c5-453e-80b2-29051492c0e0","{""num_scrambled_semantic"":""8"",""num_scrambled_causal"":""4"",""num_scrambled_schematic"":""4"",""participantId"":""8EAF79BABBD84DE7B86DA1F74B05704E"",""assignmentId"":""a9628565-d207-45c8-b398-b6102b497bb4"",""projectId"":""ba640c14-69c5-453e-80b2-29051492c0e0""}","https://test12345.live/?num_scrambled_semantic=8&num_scrambled_causal=4&num_scrambled_schematic=4&participantId=8EAF79BABBD84DE7B86DA1F74B05704E&assignmentId=a9628565-d207-45c8-b398-b6102b497bb4&projectId=ba640c14-69c5-453e-80b2-29051492c0e0","8EAF79BABBD84DE7B86DA1F74B05704E-2025-05-14-22-13-54","","null","","[]","null","",""
"","","","","","image-button-response","18","242690","0.0-6.0-1.0-0.3","8EAF79BABBD84DE7B86DA1F74B05704E","8EAF79BABBD84DE7B86DA1F74B05704E","a9628565-d207-45c8-b398-b6102b497bb4","ba640c14-69c5-453e-80b2-29051492c0e0","{""num_scrambled_semantic"":""8"",""num_scrambled_causal"":""4"",""num_scrambled_schematic"":""4"",""participantId"":""8EAF79BABBD84DE7B86DA1F74B05704E"",""assignmentId"":""a9628565-d207-45c8-b398-b6102b497bb4"",""projectId"":""ba640c14-69c5-453e-80b2-29051492c0e0""}","https://test12345.live/?num_scrambled_semantic=8&num_scrambled_causal=4&num_scrambled_schematic=4&participantId=8EAF79BABBD84DE7B86DA1F74B05704E&assignmentId=a9628565-d207-45c8-b398-b6102b497bb4&projectId=ba640c14-69c5-453e-80b2-29051492c0e0","8EAF79BABBD84DE7B86DA1F74B05704E-2025-05-14-22-13-54","","null","","images/instructions/movie_4.png","null","",""
"","","","","","image-button-response","19","246704","0.0-6.0-1.0-1.3","8EAF79BABBD84DE7B86DA1F74B05704E","8EAF79BABBD84DE7B86DA1F74B05704E","a9628565-d207-45c8-b398-b6102b497bb4","ba640c14-69c5-453e-80b2-29051492c0e0","{""num_scrambled_semantic"":""8"",""num_scrambled_causal"":""4"",""num_scrambled_schematic"":""4"",""participantId"":""8EAF79BABBD84DE7B86DA1F74B05704E"",""assignmentId"":""a9628565-d207-45c8-b398-b6102b497bb4"",""projectId"":""ba640c14-69c5-453e-80b2-29051492c0e0""}","https://test12345.live/?num_scrambled_semantic=8&num_scrambled_causal=4&num_scrambled_schematic=4&participantId=8EAF79BABBD84DE7B86DA1F74B05704E&assignmentId=a9628565-d207-45c8-b398-b6102b497bb4&projectId=ba640c14-69c5-453e-80b2-29051492c0e0","8EAF79BABBD84DE7B86DA1F74B05704E-2025-05-14-22-13-54","","null","","images/instructions/movie_4.png","null","",""
"","","","","","image-button-response","20","248507","0.0-6.0-1.0-2.3","8EAF79BABBD84DE7B86DA1F74B05704E","8EAF79BABBD84DE7B86DA1F74B05704E","a9628565-d207-45c8-b398-b6102b497bb4","ba640c14-69c5-453e-80b2-29051492c0e0","{""num_scrambled_semantic"":""8"",""num_scrambled_causal"":""4"",""num_scrambled_schematic"":""4"",""participantId"":""8EAF79BABBD84DE7B86DA1F74B05704E"",""assignmentId"":""a9628565-d207-45c8-b398-b6102b497bb4"",""projectId"":""ba640c14-69c5-453e-80b2-29051492c0e0""}","https://test12345.live/?num_scrambled_semantic=8&num_scrambled_causal=4&num_scrambled_schematic=4&participantId=8EAF79BABBD84DE7B86DA1F74B05704E&assignmentId=a9628565-d207-45c8-b398-b6102b497bb4&projectId=ba640c14-69c5-453e-80b2-29051492c0e0","8EAF79BABBD84DE7B86DA1F74B05704E-2025-05-14-22-13-54","","null","","[]","null","",""
"","","","","","instructions","21","255536","0.0-7.0","8EAF79BABBD84DE7B86DA1F74B05704E","8EAF79BABBD84DE7B86DA1F74B05704E","a9628565-d207-45c8-b398-b6102b497bb4","ba640c14-69c5-453e-80b2-29051492c0e0","{""num_scrambled_semantic"":""8"",""num_scrambled_causal"":""4"",""num_scrambled_schematic"":""4"",""participantId"":""8EAF79BABBD84DE7B86DA1F74B05704E"",""assignmentId"":""a9628565-d207-45c8-b398-b6102b497bb4"",""projectId"":""ba640c14-69c5-453e-80b2-29051492c0e0""}","https://test12345.live/?num_scrambled_semantic=8&num_scrambled_causal=4&num_scrambled_schematic=4&participantId=8EAF79BABBD84DE7B86DA1F74B05704E&assignmentId=a9628565-d207-45c8-b398-b6102b497bb4&projectId=ba640c14-69c5-453e-80b2-29051492c0e0","8EAF79BABBD84DE7B86DA1F74B05704E-2025-05-14-22-13-54","[{""page_index"":0,""viewing_time"":5741},{""page_index"":1,""viewing_time"":1287}]","7028","","","","",""
"","","","","","html-audio-response","22","279681","0.0-8.0","8EAF79BABBD84DE7B86DA1F74B05704E","8EAF79BABBD84DE7B86DA1F74B05704E","a9628565-d207-45c8-b398-b6102b497bb4","ba640c14-69c5-453e-80b2-29051492c0e0","{""num_scrambled_semantic"":""8"",""num_scrambled_causal"":""4"",""num_scrambled_schematic"":""4"",""participantId"":""8EAF79BABBD84DE7B86DA1F74B05704E"",""assignmentId"":""a9628565-d207-45c8-b398-b6102b497bb4"",""projectId"":""ba640c14-69c5-453e-80b2-29051492c0e0""}","https://test12345.live/?num_scrambled_semantic=8&num_scrambled_causal=4&num_scrambled_schematic=4&participantId=8EAF79BABBD84DE7B86DA1F74B05704E&assignmentId=a9628565-d207-45c8-b398-b6102b497bb4&projectId=ba640c14-69c5-453e-80b2-29051492c0e0","8EAF79BABBD84DE7B86DA1F74B05704E-2025-05-14-22-13-54","","7479","","[""<span style=\""color: red; font-size: 24px\""> NOW RECORDING</span><p>Please say out loud all the images you saw, as many as you can remember. The images can be said in any order.</p>""]","","4",""
"","","","","","instructions","23","282067","0.0-9.0","8EAF79BABBD84DE7B86DA1F74B05704E","8EAF79BABBD84DE7B86DA1F74B05704E","a9628565-d207-45c8-b398-b6102b497bb4","ba640c14-69c5-453e-80b2-29051492c0e0","{""num_scrambled_semantic"":""8"",""num_scrambled_causal"":""4"",""num_scrambled_schematic"":""4"",""participantId"":""8EAF79BABBD84DE7B86DA1F74B05704E"",""assignmentId"":""a9628565-d207-45c8-b398-b6102b497bb4"",""projectId"":""ba640c14-69c5-453e-80b2-29051492c0e0""}","https://test12345.live/?num_scrambled_semantic=8&num_scrambled_causal=4&num_scrambled_schematic=4&participantId=8EAF79BABBD84DE7B86DA1F74B05704E&assignmentId=a9628565-d207-45c8-b398-b6102b497bb4&projectId=ba640c14-69c5-453e-80b2-29051492c0e0","8EAF79BABBD84DE7B86DA1F74B05704E-2025-05-14-22-13-54","[{""page_index"":0,""viewing_time"":2370}]","2370","","","","",""
"","","","","","image-button-response","24","288082","0.0-10.0-0.0","8EAF79BABBD84DE7B86DA1F74B05704E","8EAF79BABBD84DE7B86DA1F74B05704E","a9628565-d207-45c8-b398-b6102b497bb4","ba640c14-69c5-453e-80b2-29051492c0e0","{""num_scrambled_semantic"":""8"",""num_scrambled_causal"":""4"",""num_scrambled_schematic"":""4"",""participantId"":""8EAF79BABBD84DE7B86DA1F74B05704E"",""assignmentId"":""a9628565-d207-45c8-b398-b6102b497bb4"",""projectId"":""ba640c14-69c5-453e-80b2-29051492c0e0""}","https://test12345.live/?num_scrambled_semantic=8&num_scrambled_causal=4&num_scrambled_schematic=4&participantId=8EAF79BABBD84DE7B86DA1F74B05704E&assignmentId=a9628565-d207-45c8-b398-b6102b497bb4&projectId=ba640c14-69c5-453e-80b2-29051492c0e0","8EAF79BABBD84DE7B86DA1F74B05704E-2025-05-14-22-13-54","","null","","images/semantic_sequence/cat_care_semantic/cat_care_semantic_0.png","null","",""
"","","","","","image-button-response","25","292598","0.0-10.0-1.0-0.0","8EAF79BABBD84DE7B86DA1F74B05704E","8EAF79BABBD84DE7B86DA1F74B05704E","a9628565-d207-45c8-b398-b6102b497bb4","ba640c14-69c5-453e-80b2-29051492c0e0","{""num_scrambled_semantic"":""8"",""num_scrambled_causal"":""4"",""num_scrambled_schematic"":""4"",""participantId"":""8EAF79BABBD84DE7B86DA1F74B05704E"",""assignmentId"":""a9628565-d207-45c8-b398-b6102b497bb4"",""projectId"":""ba640c14-69c5-453e-80b2-29051492c0e0""}","https://test12345.live/?num_scrambled_semantic=8&num_scrambled_causal=4&num_scrambled_schematic=4&participantId=8EAF79BABBD84DE7B86DA1F74B05704E&assignmentId=a9628565-d207-45c8-b398-b6102b497bb4&projectId=ba640c14-69c5-453e-80b2-29051492c0e0","8EAF79BABBD84DE7B86DA1F74B05704E-2025-05-14-22-13-54","","null","","images/semantic_sequence/cat_care_semantic/cat_care_semantic_ten.png","null","",""
"","","","","","image-button-response","26","294212","0.0-10.0-1.0-1.0","8EAF79BABBD84DE7B86DA1F74B05704E","8EAF79BABBD84DE7B86DA1F74B05704E","a9628565-d207-45c8-b398-b6102b497bb4","ba640c14-69c5-453e-80b2-29051492c0e0","{""num_scrambled_semantic"":""8"",""num_scrambled_causal"":""4"",""num_scrambled_schematic"":""4"",""participantId"":""8EAF79BABBD84DE7B86DA1F74B05704E"",""assignmentId"":""a9628565-d207-45c8-b398-b6102b497bb4"",""projectId"":""ba640c14-69c5-453e-80b2-29051492c0e0""}","https://test12345.live/?num_scrambled_semantic=8&num_scrambled_causal=4&num_scrambled_schematic=4&participantId=8EAF79BABBD84DE7B86DA1F74B05704E&assignmentId=a9628565-d207-45c8-b398-b6102b497bb4&projectId=ba640c14-69c5-453e-80b2-29051492c0e0","8EAF79BABBD84DE7B86DA1F74B05704E-2025-05-14-22-13-54","","1612","","images/semantic_sequence/cat_care_semantic/cat_care_semantic_ten.png","1","",""
"","","","","","image-button-response","27","296018","0.0-10.0-1.0-2.0","8EAF79BABBD84DE7B86DA1F74B05704E","8EAF79BABBD84DE7B86DA1F74B05704E","a9628565-d207-45c8-b398-b6102b497bb4","ba640c14-69c5-453e-80b2-29051492c0e0","{""num_scrambled_semantic"":""8"",""num_scrambled_causal"":""4"",""num_scrambled_schematic"":""4"",""participantId"":""8EAF79BABBD84DE7B86DA1F74B05704E"",""assignmentId"":""a9628565-d207-45c8-b398-b6102b497bb4"",""projectId"":""ba640c14-69c5-453e-80b2-29051492c0e0""}","https://test12345.live/?num_scrambled_semantic=8&num_scrambled_causal=4&num_scrambled_schematic=4&participantId=8EAF79BABBD84DE7B86DA1F74B05704E&assignmentId=a9628565-d207-45c8-b398-b6102b497bb4&projectId=ba640c14-69c5-453e-80b2-29051492c0e0","8EAF79BABBD84DE7B86DA1F74B05704E-2025-05-14-22-13-54","","null","","[]","null","",""
"","","","","","image-button-response","28","300536","0.0-10.0-1.0-0.1","8EAF79BABBD84DE7B86DA1F74B05704E","8EAF79BABBD84DE7B86DA1F74B05704E","a9628565-d207-45c8-b398-b6102b497bb4","ba640c14-69c5-453e-80b2-29051492c0e0","{""num_scrambled_semantic"":""8"",""num_scrambled_causal"":""4"",""num_scrambled_schematic"":""4"",""participantId"":""8EAF79BABBD84DE7B86DA1F74B05704E"",""assignmentId"":""a9628565-d207-45c8-b398-b6102b497bb4"",""projectId"":""ba640c14-69c5-453e-80b2-29051492c0e0""}","https://test12345.live/?num_scrambled_semantic=8&num_scrambled_causal=4&num_scrambled_schematic=4&participantId=8EAF79BABBD84DE7B86DA1F74B05704E&assignmentId=a9628565-d207-45c8-b398-b6102b497bb4&projectId=ba640c14-69c5-453e-80b2-29051492c0e0","8EAF79BABBD84DE7B86DA1F74B05704E-2025-05-14-22-13-54","","null","","images/semantic_sequence/cat_care_semantic/cat_care_semantic_7.png","null","",""
"","","","","","image-button-response","29","301821","0.0-10.0-1.0-1.1","8EAF79BABBD84DE7B86DA1F74B05704E","8EAF79BABBD84DE7B86DA1F74B05704E","a9628565-d207-45c8-b398-b6102b497bb4","ba640c14-69c5-453e-80b2-29051492c0e0","{""num_scrambled_semantic"":""8"",""num_scrambled_causal"":""4"",""num_scrambled_schematic"":""4"",""participantId"":""8EAF79BABBD84DE7B86DA1F74B05704E"",""assignmentId"":""a9628565-d207-45c8-b398-b6102b497bb4"",""projectId"":""ba640c14-69c5-453e-80b2-29051492c0e0""}","https://test12345.live/?num_scrambled_semantic=8&num_scrambled_causal=4&num_scrambled_schematic=4&participantId=8EAF79BABBD84DE7B86DA1F74B05704E&assignmentId=a9628565-d207-45c8-b398-b6102b497bb4&projectId=ba640c14-69c5-453e-80b2-29051492c0e0","8EAF79BABBD84DE7B86DA1F74B05704E-2025-05-14-22-13-54","","1282","","images/semantic_sequence/cat_care_semantic/cat_care_semantic_7.png","0","",""
"","","","","","image-button-response","30","303627","0.0-10.0-1.0-2.1","8EAF79BABBD84DE7B86DA1F74B05704E","8EAF79BABBD84DE7B86DA1F74B05704E","a9628565-d207-45c8-b398-b6102b497bb4","ba640c14-69c5-453e-80b2-29051492c0e0","{""num_scrambled_semantic"":""8"",""num_scrambled_causal"":""4"",""num_scrambled_schematic"":""4"",""participantId"":""8EAF79BABBD84DE7B86DA1F74B05704E"",""assignmentId"":""a9628565-d207-45c8-b398-b6102b497bb4"",""projectId"":""ba640c14-69c5-453e-80b2-29051492c0e0""}","https://test12345.live/?num_scrambled_semantic=8&num_scrambled_causal=4&num_scrambled_schematic=4&participantId=8EAF79BABBD84DE7B86DA1F74B05704E&assignmentId=a9628565-d207-45c8-b398-b6102b497bb4&projectId=ba640c14-69c5-453e-80b2-29051492c0e0","8EAF79BABBD84DE7B86DA1F74B05704E-2025-05-14-22-13-54","","null","","[]","null","",""
"","","","","","image-button-response","31","308142","0.0-10.0-1.0-0.2","8EAF79BABBD84DE7B86DA1F74B05704E","8EAF79BABBD84DE7B86DA1F74B05704E","a9628565-d207-45c8-b398-b6102b497bb4","ba640c14-69c5-453e-80b2-29051492c0e0","{""num_scrambled_semantic"":""8"",""num_scrambled_causal"":""4"",""num_scrambled_schematic"":""4"",""participantId"":""8EAF79BABBD84DE7B86DA1F74B05704E"",""assignmentId"":""a9628565-d207-45c8-b398-b6102b497bb4"",""projectId"":""ba640c14-69c5-453e-80b2-29051492c0e0""}","https://test12345.live/?num_scrambled_semantic=8&num_scrambled_causal=4&num_scrambled_schematic=4&participantId=8EAF79BABBD84DE7B86DA1F74B05704E&assignmentId=a9628565-d207-45c8-b398-b6102b497bb4&projectId=ba640c14-69c5-453e-80b2-29051492c0e0","8EAF79BABBD84DE7B86DA1F74B05704E-2025-05-14-22-13-54","","null","","images/semantic_sequence/cat_care_semantic/cat_care_semantic_2.png","null","",""
"","","","","","image-button-response","32","309499","0.0-10.0-1.0-1.2","8EAF79BABBD84DE7B86DA1F74B05704E","8EAF79BABBD84DE7B86DA1F74B05704E","a9628565-d207-45c8-b398-b6102b497bb4","ba640c14-69c5-453e-80b2-29051492c0e0","{""num_scrambled_semantic"":""8"",""num_scrambled_causal"":""4"",""num_scrambled_schematic"":""4"",""participantId"":""8EAF79BABBD84DE7B86DA1F74B05704E"",""assignmentId"":""a9628565-d207-45c8-b398-b6102b497bb4"",""projectId"":""ba640c14-69c5-453e-80b2-29051492c0e0""}","https://test12345.live/?num_scrambled_semantic=8&num_scrambled_causal=4&num_scrambled_schematic=4&participantId=8EAF79BABBD84DE7B86DA1F74B05704E&assignmentId=a9628565-d207-45c8-b398-b6102b497bb4&projectId=ba640c14-69c5-453e-80b2-29051492c0e0","8EAF79BABBD84DE7B86DA1F74B05704E-2025-05-14-22-13-54","","1355","","images/semantic_sequence/cat_care_semantic/cat_care_semantic_2.png","0","",""
"","","","","","image-button-response","33","311318","0.0-10.0-1.0-2.2","8EAF79BABBD84DE7B86DA1F74B05704E","8EAF79BABBD84DE7B86DA1F74B05704E","a9628565-d207-45c8-b398-b6102b497bb4","ba640c14-69c5-453e-80b2-29051492c0e0","{""num_scrambled_semantic"":""8"",""num_scrambled_causal"":""4"",""num_scrambled_schematic"":""4"",""participantId"":""8EAF79BABBD84DE7B86DA1F74B05704E"",""assignmentId"":""a9628565-d207-45c8-b398-b6102b497bb4"",""projectId"":""ba640c14-69c5-453e-80b2-29051492c0e0""}","https://test12345.live/?num_scrambled_semantic=8&num_scrambled_causal=4&num_scrambled_schematic=4&participantId=8EAF79BABBD84DE7B86DA1F74B05704E&assignmentId=a9628565-d207-45c8-b398-b6102b497bb4&projectId=ba640c14-69c5-453e-80b2-29051492c0e0","8EAF79BABBD84DE7B86DA1F74B05704E-2025-05-14-22-13-54","","null","","[]","null","",""
"","","","","","image-button-response","34","315821","0.0-10.0-1.0-0.3","8EAF79BABBD84DE7B86DA1F74B05704E","8EAF79BABBD84DE7B86DA1F74B05704E","a9628565-d207-45c8-b398-b6102b497bb4","ba640c14-69c5-453e-80b2-29051492c0e0","{""num_scrambled_semantic"":""8"",""num_scrambled_causal"":""4"",""num_scrambled_schematic"":""4"",""participantId"":""8EAF79BABBD84DE7B86DA1F74B05704E"",""assignmentId"":""a9628565-d207-45c8-b398-b6102b497bb4"",""projectId"":""ba640c14-69c5-453e-80b2-29051492c0e0""}","https://test12345.live/?num_scrambled_semantic=8&num_scrambled_causal=4&num_scrambled_schematic=4&participantId=8EAF79BABBD84DE7B86DA1F74B05704E&assignmentId=a9628565-d207-45c8-b398-b6102b497bb4&projectId=ba640c14-69c5-453e-80b2-29051492c0e0","8EAF79BABBD84DE7B86DA1F74B05704E-2025-05-14-22-13-54","","null","","images/semantic_sequence/cat_care_semantic/cat_care_semantic_5.png","null","",""
"","","","","","image-button-response","35","316896","0.0-10.0-1.0-1.3","8EAF79BABBD84DE7B86DA1F74B05704E","8EAF79BABBD84DE7B86DA1F74B05704E","a9628565-d207-45c8-b398-b6102b497bb4","ba640c14-69c5-453e-80b2-29051492c0e0","{""num_scrambled_semantic"":""8"",""num_scrambled_causal"":""4"",""num_scrambled_schematic"":""4"",""participantId"":""8EAF79BABBD84DE7B86DA1F74B05704E"",""assignmentId"":""a9628565-d207-45c8-b398-b6102b497bb4"",""projectId"":""ba640c14-69c5-453e-80b2-29051492c0e0""}","https://test12345.live/?num_scrambled_semantic=8&num_scrambled_causal=4&num_scrambled_schematic=4&participantId=8EAF79BABBD84DE7B86DA1F74B05704E&assignmentId=a9628565-d207-45c8-b398-b6102b497bb4&projectId=ba640c14-69c5-453e-80b2-29051492c0e0","8EAF79BABBD84DE7B86DA1F74B05704E-2025-05-14-22-13-54","","1072","","images/semantic_sequence/cat_care_semantic/cat_care_semantic_5.png","0","",""
"","","","","","image-button-response","36","318713","0.0-10.0-1.0-2.3","8EAF79BABBD84DE7B86DA1F74B05704E","8EAF79BABBD84DE7B86DA1F74B05704E","a9628565-d207-45c8-b398-b6102b497bb4","ba640c14-69c5-453e-80b2-29051492c0e0","{""num_scrambled_semantic"":""8"",""num_scrambled_causal"":""4"",""num_scrambled_schematic"":""4"",""participantId"":""8EAF79BABBD84DE7B86DA1F74B05704E"",""assignmentId"":""a9628565-d207-45c8-b398-b6102b497bb4"",""projectId"":""ba640c14-69c5-453e-80b2-29051492c0e0""}","https://test12345.live/?num_scrambled_semantic=8&num_scrambled_causal=4&num_scrambled_schematic=4&participantId=8EAF79BABBD84DE7B86DA1F74B05704E&assignmentId=a9628565-d207-45c8-b398-b6102b497bb4&projectId=ba640c14-69c5-453e-80b2-29051492c0e0","8EAF79BABBD84DE7B86DA1F74B05704E-2025-05-14-22-13-54","","null","","[]","null","",""
"","","","","","image-button-response","37","323229","0.0-10.0-1.0-0.4","8EAF79BABBD84DE7B86DA1F74B05704E","8EAF79BABBD84DE7B86DA1F74B05704E","a9628565-d207-45c8-b398-b6102b497bb4","ba640c14-69c5-453e-80b2-29051492c0e0","{""num_scrambled_semantic"":""8"",""num_scrambled_causal"":""4"",""num_scrambled_schematic"":""4"",""participantId"":""8EAF79BABBD84DE7B86DA1F74B05704E"",""assignmentId"":""a9628565-d207-45c8-b398-b6102b497bb4"",""projectId"":""ba640c14-69c5-453e-80b2-29051492c0e0""}","https://test12345.live/?num_scrambled_semantic=8&num_scrambled_causal=4&num_scrambled_schematic=4&participantId=8EAF79BABBD84DE7B86DA1F74B05704E&assignmentId=a9628565-d207-45c8-b398-b6102b497bb4&projectId=ba640c14-69c5-453e-80b2-29051492c0e0","8EAF79BABBD84DE7B86DA1F74B05704E-2025-05-14-22-13-54","","null","","images/semantic_sequence/cat_care_semantic/cat_care_semantic_9.png","null","",""
"","","","","","image-button-response","38","324347","0.0-10.0-1.0-1.4","8EAF79BABBD84DE7B86DA1F74B05704E","8EAF79BABBD84DE7B86DA1F74B05704E","a9628565-d207-45c8-b398-b6102b497bb4","ba640c14-69c5-453e-80b2-29051492c0e0","{""num_scrambled_semantic"":""8"",""num_scrambled_causal"":""4"",""num_scrambled_schematic"":""4"",""participantId"":""8EAF79BABBD84DE7B86DA1F74B05704E"",""assignmentId"":""a9628565-d207-45c8-b398-b6102b497bb4"",""projectId"":""ba640c14-69c5-453e-80b2-29051492c0e0""}","https://test12345.live/?num_scrambled_semantic=8&num_scrambled_causal=4&num_scrambled_schematic=4&participantId=8EAF79BABBD84DE7B86DA1F74B05704E&assignmentId=a9628565-d207-45c8-b398-b6102b497bb4&projectId=ba640c14-69c5-453e-80b2-29051492c0e0","8EAF79BABBD84DE7B86DA1F74B05704E-2025-05-14-22-13-54","","1115","","images/semantic_sequence/cat_care_semantic/cat_care_semantic_9.png","0","",""
"","","","","","image-button-response","39","326157","0.0-10.0-1.0-2.4","8EAF79BABBD84DE7B86DA1F74B05704E","8EAF79BABBD84DE7B86DA1F74B05704E","a9628565-d207-45c8-b398-b6102b497bb4","ba640c14-69c5-453e-80b2-29051492c0e0","{""num_scrambled_semantic"":""8"",""num_scrambled_causal"":""4"",""num_scrambled_schematic"":""4"",""participantId"":""8EAF79BABBD84DE7B86DA1F74B05704E"",""assignmentId"":""a9628565-d207-45c8-b398-b6102b497bb4"",""projectId"":""ba640c14-69c5-453e-80b2-29051492c0e0""}","https://test12345.live/?num_scrambled_semantic=8&num_scrambled_causal=4&num_scrambled_schematic=4&participantId=8EAF79BABBD84DE7B86DA1F74B05704E&assignmentId=a9628565-d207-45c8-b398-b6102b497bb4&projectId=ba640c14-69c5-453e-80b2-29051492c0e0","8EAF79BABBD84DE7B86DA1F74B05704E-2025-05-14-22-13-54","","null","","[]","null","",""
"","","","","","image-button-response","40","330667","0.0-10.0-1.0-0.5","8EAF79BABBD84DE7B86DA1F74B05704E","8EAF79BABBD84DE7B86DA1F74B05704E","a9628565-d207-45c8-b398-b6102b497bb4","ba640c14-69c5-453e-80b2-29051492c0e0","{""num_scrambled_semantic"":""8"",""num_scrambled_causal"":""4"",""num_scrambled_schematic"":""4"",""participantId"":""8EAF79BABBD84DE7B86DA1F74B05704E"",""assignmentId"":""a9628565-d207-45c8-b398-b6102b497bb4"",""projectId"":""ba640c14-69c5-453e-80b2-29051492c0e0""}","https://test12345.live/?num_scrambled_semantic=8&num_scrambled_causal=4&num_scrambled_schematic=4&participantId=8EAF79BABBD84DE7B86DA1F74B05704E&assignmentId=a9628565-d207-45c8-b398-b6102b497bb4&projectId=ba640c14-69c5-453e-80b2-29051492c0e0","8EAF79BABBD84DE7B86DA1F74B05704E-2025-05-14-22-13-54","","null","","images/semantic_sequence/cat_care_semantic/cat_care_semantic_4.png","null","",""
"","","","","","image-button-response","41","333481","0.0-10.0-1.0-1.5","8EAF79BABBD84DE7B86DA1F74B05704E","8EAF79BABBD84DE7B86DA1F74B05704E","a9628565-d207-45c8-b398-b6102b497bb4","ba640c14-69c5-453e-80b2-29051492c0e0","{""num_scrambled_semantic"":""8"",""num_scrambled_causal"":""4"",""num_scrambled_schematic"":""4"",""participantId"":""8EAF79BABBD84DE7B86DA1F74B05704E"",""assignmentId"":""a9628565-d207-45c8-b398-b6102b497bb4"",""projectId"":""ba640c14-69c5-453e-80b2-29051492c0e0""}","https://test12345.live/?num_scrambled_semantic=8&num_scrambled_causal=4&num_scrambled_schematic=4&participantId=8EAF79BABBD84DE7B86DA1F74B05704E&assignmentId=a9628565-d207-45c8-b398-b6102b497bb4&projectId=ba640c14-69c5-453e-80b2-29051492c0e0","8EAF79BABBD84DE7B86DA1F74B05704E-2025-05-14-22-13-54","","2810","","images/semantic_sequence/cat_care_semantic/cat_care_semantic_4.png","0","",""
"","","","","","image-button-response","42","335303","0.0-10.0-1.0-2.5","8EAF79BABBD84DE7B86DA1F74B05704E","8EAF79BABBD84DE7B86DA1F74B05704E","a9628565-d207-45c8-b398-b6102b497bb4","ba640c14-69c5-453e-80b2-29051492c0e0","{""num_scrambled_semantic"":""8"",""num_scrambled_causal"":""4"",""num_scrambled_schematic"":""4"",""participantId"":""8EAF79BABBD84DE7B86DA1F74B05704E"",""assignmentId"":""a9628565-d207-45c8-b398-b6102b497bb4"",""projectId"":""ba640c14-69c5-453e-80b2-29051492c0e0""}","https://test12345.live/?num_scrambled_semantic=8&num_scrambled_causal=4&num_scrambled_schematic=4&participantId=8EAF79BABBD84DE7B86DA1F74B05704E&assignmentId=a9628565-d207-45c8-b398-b6102b497bb4&projectId=ba640c14-69c5-453e-80b2-29051492c0e0","8EAF79BABBD84DE7B86DA1F74B05704E-2025-05-14-22-13-54","","null","","[]","null","",""
"","","","","","image-button-response","43","339808","0.0-10.0-1.0-0.6","8EAF79BABBD84DE7B86DA1F74B05704E","8EAF79BABBD84DE7B86DA1F74B05704E","a9628565-d207-45c8-b398-b6102b497bb4","ba640c14-69c5-453e-80b2-29051492c0e0","{""num_scrambled_semantic"":""8"",""num_scrambled_causal"":""4"",""num_scrambled_schematic"":""4"",""participantId"":""8EAF79BABBD84DE7B86DA1F74B05704E"",""assignmentId"":""a9628565-d207-45c8-b398-b6102b497bb4"",""projectId"":""ba640c14-69c5-453e-80b2-29051492c0e0""}","https://test12345.live/?num_scrambled_semantic=8&num_scrambled_causal=4&num_scrambled_schematic=4&participantId=8EAF79BABBD84DE7B86DA1F74B05704E&assignmentId=a9628565-d207-45c8-b398-b6102b497bb4&projectId=ba640c14-69c5-453e-80b2-29051492c0e0","8EAF79BABBD84DE7B86DA1F74B05704E-2025-05-14-22-13-54","","null","","images/semantic_sequence/cat_care_semantic/cat_care_semantic_1.png","null","",""
"","","","","","image-button-response","44","341351","0.0-10.0-1.0-1.6","8EAF79BABBD84DE7B86DA1F74B05704E","8EAF79BABBD84DE7B86DA1F74B05704E","a9628565-d207-45c8-b398-b6102b497bb4","ba640c14-69c5-453e-80b2-29051492c0e0","{""num_scrambled_semantic"":""8"",""num_scrambled_causal"":""4"",""num_scrambled_schematic"":""4"",""participantId"":""8EAF79BABBD84DE7B86DA1F74B05704E"",""assignmentId"":""a9628565-d207-45c8-b398-b6102b497bb4"",""projectId"":""ba640c14-69c5-453e-80b2-29051492c0e0""}","https://test12345.live/?num_scrambled_semantic=8&num_scrambled_causal=4&num_scrambled_schematic=4&participantId=8EAF79BABBD84DE7B86DA1F74B05704E&assignmentId=a9628565-d207-45c8-b398-b6102b497bb4&projectId=ba640c14-69c5-453e-80b2-29051492c0e0","8EAF79BABBD84DE7B86DA1F74B05704E-2025-05-14-22-13-54","","1540","","images/semantic_sequence/cat_care_semantic/cat_care_semantic_1.png","0","",""
"","","","","","image-button-response","45","343167","0.0-10.0-1.0-2.6","8EAF79BABBD84DE7B86DA1F74B05704E","8EAF79BABBD84DE7B86DA1F74B05704E","a9628565-d207-45c8-b398-b6102b497bb4","ba640c14-69c5-453e-80b2-29051492c0e0","{""num_scrambled_semantic"":""8"",""num_scrambled_causal"":""4"",""num_scrambled_schematic"":""4"",""participantId"":""8EAF79BABBD84DE7B86DA1F74B05704E"",""assignmentId"":""a9628565-d207-45c8-b398-b6102b497bb4"",""projectId"":""ba640c14-69c5-453e-80b2-29051492c0e0""}","https://test12345.live/?num_scrambled_semantic=8&num_scrambled_causal=4&num_scrambled_schematic=4&participantId=8EAF79BABBD84DE7B86DA1F74B05704E&assignmentId=a9628565-d207-45c8-b398-b6102b497bb4&projectId=ba640c14-69c5-453e-80b2-29051492c0e0","8EAF79BABBD84DE7B86DA1F74B05704E-2025-05-14-22-13-54","","null","","[]","null","",""
"","","","","","image-button-response","46","347674","0.0-10.0-1.0-0.7","8EAF79BABBD84DE7B86DA1F74B05704E","8EAF79BABBD84DE7B86DA1F74B05704E","a9628565-d207-45c8-b398-b6102b497bb4","ba640c14-69c5-453e-80b2-29051492c0e0","{""num_scrambled_semantic"":""8"",""num_scrambled_causal"":""4"",""num_scrambled_schematic"":""4"",""participantId"":""8EAF79BABBD84DE7B86DA1F74B05704E"",""assignmentId"":""a9628565-d207-45c8-b398-b6102b497bb4"",""projectId"":""ba640c14-69c5-453e-80b2-29051492c0e0""}","https://test12345.live/?num_scrambled_semantic=8&num_scrambled_causal=4&num_scrambled_schematic=4&participantId=8EAF79BABBD84DE7B86DA1F74B05704E&assignmentId=a9628565-d207-45c8-b398-b6102b497bb4&projectId=ba640c14-69c5-453e-80b2-29051492c0e0","8EAF79BABBD84DE7B86DA1F74B05704E-2025-05-14-22-13-54","","null","","images/semantic_sequence/cat_care_semantic/cat_care_semantic_8.png","null","",""
"","","","","","image-button-response","47","349171","0.0-10.0-1.0-1.7","8EAF79BABBD84DE7B86DA1F74B05704E","8EAF79BABBD84DE7B86DA1F74B05704E","a9628565-d207-45c8-b398-b6102b497bb4","ba640c14-69c5-453e-80b2-29051492c0e0","{""num_scrambled_semantic"":""8"",""num_scrambled_causal"":""4"",""num_scrambled_schematic"":""4"",""participantId"":""8EAF79BABBD84DE7B86DA1F74B05704E"",""assignmentId"":""a9628565-d207-45c8-b398-b6102b497bb4"",""projectId"":""ba640c14-69c5-453e-80b2-29051492c0e0""}","https://test12345.live/?num_scrambled_semantic=8&num_scrambled_causal=4&num_scrambled_schematic=4&participantId=8EAF79BABBD84DE7B86DA1F74B05704E&assignmentId=a9628565-d207-45c8-b398-b6102b497bb4&projectId=ba640c14-69c5-453e-80b2-29051492c0e0","8EAF79BABBD84DE7B86DA1F74B05704E-2025-05-14-22-13-54","","1494","","images/semantic_sequence/cat_care_semantic/cat_care_semantic_8.png","0","",""
"","","","","","image-button-response","48","350997","0.0-10.0-1.0-2.7","8EAF79BABBD84DE7B86DA1F74B05704E","8EAF79BABBD84DE7B86DA1F74B05704E","a9628565-d207-45c8-b398-b6102b497bb4","ba640c14-69c5-453e-80b2-29051492c0e0","{""num_scrambled_semantic"":""8"",""num_scrambled_causal"":""4"",""num_scrambled_schematic"":""4"",""participantId"":""8EAF79BABBD84DE7B86DA1F74B05704E"",""assignmentId"":""a9628565-d207-45c8-b398-b6102b497bb4"",""projectId"":""ba640c14-69c5-453e-80b2-29051492c0e0""}","https://test12345.live/?num_scrambled_semantic=8&num_scrambled_causal=4&num_scrambled_schematic=4&participantId=8EAF79BABBD84DE7B86DA1F74B05704E&assignmentId=a9628565-d207-45c8-b398-b6102b497bb4&projectId=ba640c14-69c5-453e-80b2-29051492c0e0","8EAF79BABBD84DE7B86DA1F74B05704E-2025-05-14-22-13-54","","null","","[]","null","",""
"","","","","","image-button-response","49","355507","0.0-10.0-1.0-0.8","8EAF79BABBD84DE7B86DA1F74B05704E","8EAF79BABBD84DE7B86DA1F74B05704E","a9628565-d207-45c8-b398-b6102b497bb4","ba640c14-69c5-453e-80b2-29051492c0e0","{""num_scrambled_semantic"":""8"",""num_scrambled_causal"":""4"",""num_scrambled_schematic"":""4"",""participantId"":""8EAF79BABBD84DE7B86DA1F74B05704E"",""assignmentId"":""a9628565-d207-45c8-b398-b6102b497bb4"",""projectId"":""ba640c14-69c5-453e-80b2-29051492c0e0""}","https://test12345.live/?num_scrambled_semantic=8&num_scrambled_causal=4&num_scrambled_schematic=4&participantId=8EAF79BABBD84DE7B86DA1F74B05704E&assignmentId=a9628565-d207-45c8-b398-b6102b497bb4&projectId=ba640c14-69c5-453e-80b2-29051492c0e0","8EAF79BABBD84DE7B86DA1F74B05704E-2025-05-14-22-13-54","","null","","images/semantic_sequence/cat_care_semantic/cat_care_semantic_6.png","null","",""
"","","","","","image-button-response","50","356514","0.0-10.0-1.0-1.8","8EAF79BABBD84DE7B86DA1F74B05704E","8EAF79BABBD84DE7B86DA1F74B05704E","a9628565-d207-45c8-b398-b6102b497bb4","ba640c14-69c5-453e-80b2-29051492c0e0","{""num_scrambled_semantic"":""8"",""num_scrambled_causal"":""4"",""num_scrambled_schematic"":""4"",""participantId"":""8EAF79BABBD84DE7B86DA1F74B05704E"",""assignmentId"":""a9628565-d207-45c8-b398-b6102b497bb4"",""projectId"":""ba640c14-69c5-453e-80b2-29051492c0e0""}","https://test12345.live/?num_scrambled_semantic=8&num_scrambled_causal=4&num_scrambled_schematic=4&participantId=8EAF79BABBD84DE7B86DA1F74B05704E&assignmentId=a9628565-d207-45c8-b398-b6102b497bb4&projectId=ba640c14-69c5-453e-80b2-29051492c0e0","8EAF79BABBD84DE7B86DA1F74B05704E-2025-05-14-22-13-54","","1004","","images/semantic_sequence/cat_care_semantic/cat_care_semantic_6.png","0","",""
"","","","","","image-button-response","51","358323","0.0-10.0-1.0-2.8","8EAF79BABBD84DE7B86DA1F74B05704E","8EAF79BABBD84DE7B86DA1F74B05704E","a9628565-d207-45c8-b398-b6102b497bb4","ba640c14-69c5-453e-80b2-29051492c0e0","{""num_scrambled_semantic"":""8"",""num_scrambled_causal"":""4"",""num_scrambled_schematic"":""4"",""participantId"":""8EAF79BABBD84DE7B86DA1F74B05704E"",""assignmentId"":""a9628565-d207-45c8-b398-b6102b497bb4"",""projectId"":""ba640c14-69c5-453e-80b2-29051492c0e0""}","https://test12345.live/?num_scrambled_semantic=8&num_scrambled_causal=4&num_scrambled_schematic=4&participantId=8EAF79BABBD84DE7B86DA1F74B05704E&assignmentId=a9628565-d207-45c8-b398-b6102b497bb4&projectId=ba640c14-69c5-453e-80b2-29051492c0e0","8EAF79BABBD84DE7B86DA1F74B05704E-2025-05-14-22-13-54","","null","","[]","null","",""
"","","","","","image-button-response","52","362841","0.0-10.0-1.0-0.9","8EAF79BABBD84DE7B86DA1F74B05704E","8EAF79BABBD84DE7B86DA1F74B05704E","a9628565-d207-45c8-b398-b6102b497bb4","ba640c14-69c5-453e-80b2-29051492c0e0","{""num_scrambled_semantic"":""8"",""num_scrambled_causal"":""4"",""num_scrambled_schematic"":""4"",""participantId"":""8EAF79BABBD84DE7B86DA1F74B05704E"",""assignmentId"":""a9628565-d207-45c8-b398-b6102b497bb4"",""projectId"":""ba640c14-69c5-453e-80b2-29051492c0e0""}","https://test12345.live/?num_scrambled_semantic=8&num_scrambled_causal=4&num_scrambled_schematic=4&participantId=8EAF79BABBD84DE7B86DA1F74B05704E&assignmentId=a9628565-d207-45c8-b398-b6102b497bb4&projectId=ba640c14-69c5-453e-80b2-29051492c0e0","8EAF79BABBD84DE7B86DA1F74B05704E-2025-05-14-22-13-54","","null","","images/semantic_sequence/cat_care_semantic/cat_care_semantic_3.png","null","",""
"","","","","","image-button-response","53","363884","0.0-10.0-1.0-1.9","8EAF79BABBD84DE7B86DA1F74B05704E","8EAF79BABBD84DE7B86DA1F74B05704E","a9628565-d207-45c8-b398-b6102b497bb4","ba640c14-69c5-453e-80b2-29051492c0e0","{""num_scrambled_semantic"":""8"",""num_scrambled_causal"":""4"",""num_scrambled_schematic"":""4"",""participantId"":""8EAF79BABBD84DE7B86DA1F74B05704E"",""assignmentId"":""a9628565-d207-45c8-b398-b6102b497bb4"",""projectId"":""ba640c14-69c5-453e-80b2-29051492c0e0""}","https://test12345.live/?num_scrambled_semantic=8&num_scrambled_causal=4&num_scrambled_schematic=4&participantId=8EAF79BABBD84DE7B86DA1F74B05704E&assignmentId=a9628565-d207-45c8-b398-b6102b497bb4&projectId=ba640c14-69c5-453e-80b2-29051492c0e0","8EAF79BABBD84DE7B86DA1F74B05704E-2025-05-14-22-13-54","","1038","","images/semantic_sequence/cat_care_semantic/cat_care_semantic_3.png","0","",""
"","","","","","image-button-response","54","365688","0.0-10.0-1.0-2.9","8EAF79BABBD84DE7B86DA1F74B05704E","8EAF79BABBD84DE7B86DA1F74B05704E","a9628565-d207-45c8-b398-b6102b497bb4","ba640c14-69c5-453e-80b2-29051492c0e0","{""num_scrambled_semantic"":""8"",""num_scrambled_causal"":""4"",""num_scrambled_schematic"":""4"",""participantId"":""8EAF79BABBD84DE7B86DA1F74B05704E"",""assignmentId"":""a9628565-d207-45c8-b398-b6102b497bb4"",""projectId"":""ba640c14-69c5-453e-80b2-29051492c0e0""}","https://test12345.live/?num_scrambled_semantic=8&num_scrambled_causal=4&num_scrambled_schematic=4&participantId=8EAF79BABBD84DE7B86DA1F74B05704E&assignmentId=a9628565-d207-45c8-b398-b6102b497bb4&projectId=ba640c14-69c5-453e-80b2-29051492c0e0","8EAF79BABBD84DE7B86DA1F74B05704E-2025-05-14-22-13-54","","null","","[]","null","",""
"","","","","","html-audio-response","55","382161","0.0-11.0","8EAF79BABBD84DE7B86DA1F74B05704E","8EAF79BABBD84DE7B86DA1F74B05704E","a9628565-d207-45c8-b398-b6102b497bb4","ba640c14-69c5-453e-80b2-29051492c0e0","{""num_scrambled_semantic"":""8"",""num_scrambled_causal"":""4"",""num_scrambled_schematic"":""4"",""participantId"":""8EAF79BABBD84DE7B86DA1F74B05704E"",""assignmentId"":""a9628565-d207-45c8-b398-b6102b497bb4"",""projectId"":""ba640c14-69c5-453e-80b2-29051492c0e0""}","https://test12345.live/?num_scrambled_semantic=8&num_scrambled_causal=4&num_scrambled_schematic=4&participantId=8EAF79BABBD84DE7B86DA1F74B05704E&assignmentId=a9628565-d207-45c8-b398-b6102b497bb4&projectId=ba640c14-69c5-453e-80b2-29051492c0e0","8EAF79BABBD84DE7B86DA1F74B05704E-2025-05-14-22-13-54","","13783","","[""<span style=\""color: red; font-size: 24px\""> NOW RECORDING</span><p>Please say out loud all the images you saw, as many as you can remember. The images can be said in any order.</p>""]","","4","cat_care_semantic"
"","","","","","image-button-response","56","388179","0.0-12.0-0.0","8EAF79BABBD84DE7B86DA1F74B05704E","8EAF79BABBD84DE7B86DA1F74B05704E","a9628565-d207-45c8-b398-b6102b497bb4","ba640c14-69c5-453e-80b2-29051492c0e0","{""num_scrambled_semantic"":""8"",""num_scrambled_causal"":""4"",""num_scrambled_schematic"":""4"",""participantId"":""8EAF79BABBD84DE7B86DA1F74B05704E"",""assignmentId"":""a9628565-d207-45c8-b398-b6102b497bb4"",""projectId"":""ba640c14-69c5-453e-80b2-29051492c0e0""}","https://test12345.live/?num_scrambled_semantic=8&num_scrambled_causal=4&num_scrambled_schematic=4&participantId=8EAF79BABBD84DE7B86DA1F74B05704E&assignmentId=a9628565-d207-45c8-b398-b6102b497bb4&projectId=ba640c14-69c5-453e-80b2-29051492c0e0","8EAF79BABBD84DE7B86DA1F74B05704E-2025-05-14-22-13-54","","null","","images/semantic_sequence/market_semantic/market_semantic_0.png","null","",""
"","","","","","image-button-response","57","392697","0.0-12.0-1.0-0.0","8EAF79BABBD84DE7B86DA1F74B05704E","8EAF79BABBD84DE7B86DA1F74B05704E","a9628565-d207-45c8-b398-b6102b497bb4","ba640c14-69c5-453e-80b2-29051492c0e0","{""num_scrambled_semantic"":""8"",""num_scrambled_causal"":""4"",""num_scrambled_schematic"":""4"",""participantId"":""8EAF79BABBD84DE7B86DA1F74B05704E"",""assignmentId"":""a9628565-d207-45c8-b398-b6102b497bb4"",""projectId"":""ba640c14-69c5-453e-80b2-29051492c0e0""}","https://test12345.live/?num_scrambled_semantic=8&num_scrambled_causal=4&num_scrambled_schematic=4&participantId=8EAF79BABBD84DE7B86DA1F74B05704E&assignmentId=a9628565-d207-45c8-b398-b6102b497bb4&projectId=ba640c14-69c5-453e-80b2-29051492c0e0","8EAF79BABBD84DE7B86DA1F74B05704E-2025-05-14-22-13-54","","null","","images/semantic_sequence/market_semantic/market_semantic_2.png","null","",""
"","","","","","image-button-response","58","395951","0.0-12.0-1.0-1.0","8EAF79BABBD84DE7B86DA1F74B05704E","8EAF79BABBD84DE7B86DA1F74B05704E","a9628565-d207-45c8-b398-b6102b497bb4","ba640c14-69c5-453e-80b2-29051492c0e0","{""num_scrambled_semantic"":""8"",""num_scrambled_causal"":""4"",""num_scrambled_schematic"":""4"",""participantId"":""8EAF79BABBD84DE7B86DA1F74B05704E"",""assignmentId"":""a9628565-d207-45c8-b398-b6102b497bb4"",""projectId"":""ba640c14-69c5-453e-80b2-29051492c0e0""}","https://test12345.live/?num_scrambled_semantic=8&num_scrambled_causal=4&num_scrambled_schematic=4&participantId=8EAF79BABBD84DE7B86DA1F74B05704E&assignmentId=a9628565-d207-45c8-b398-b6102b497bb4&projectId=ba640c14-69c5-453e-80b2-29051492c0e0","8EAF79BABBD84DE7B86DA1F74B05704E-2025-05-14-22-13-54","","3251","","images/semantic_sequence/market_semantic/market_semantic_2.png","1","",""
"","","","","","image-button-response","59","397763","0.0-12.0-1.0-2.0","8EAF79BABBD84DE7B86DA1F74B05704E","8EAF79BABBD84DE7B86DA1F74B05704E","a9628565-d207-45c8-b398-b6102b497bb4","ba640c14-69c5-453e-80b2-29051492c0e0","{""num_scrambled_semantic"":""8"",""num_scrambled_causal"":""4"",""num_scrambled_schematic"":""4"",""participantId"":""8EAF79BABBD84DE7B86DA1F74B05704E"",""assignmentId"":""a9628565-d207-45c8-b398-b6102b497bb4"",""projectId"":""ba640c14-69c5-453e-80b2-29051492c0e0""}","https://test12345.live/?num_scrambled_semantic=8&num_scrambled_causal=4&num_scrambled_schematic=4&participantId=8EAF79BABBD84DE7B86DA1F74B05704E&assignmentId=a9628565-d207-45c8-b398-b6102b497bb4&projectId=ba640c14-69c5-453e-80b2-29051492c0e0","8EAF79BABBD84DE7B86DA1F74B05704E-2025-05-14-22-13-54","","null","","[]","null","",""
"","","","","","image-button-response","60","402277","0.0-12.0-1.0-0.1","8EAF79BABBD84DE7B86DA1F74B05704E","8EAF79BABBD84DE7B86DA1F74B05704E","a9628565-d207-45c8-b398-b6102b497bb4","ba640c14-69c5-453e-80b2-29051492c0e0","{""num_scrambled_semantic"":""8"",""num_scrambled_causal"":""4"",""num_scrambled_schematic"":""4"",""participantId"":""8EAF79BABBD84DE7B86DA1F74B05704E"",""assignmentId"":""a9628565-d207-45c8-b398-b6102b497bb4"",""projectId"":""ba640c14-69c5-453e-80b2-29051492c0e0""}","https://test12345.live/?num_scrambled_semantic=8&num_scrambled_causal=4&num_scrambled_schematic=4&participantId=8EAF79BABBD84DE7B86DA1F74B05704E&assignmentId=a9628565-d207-45c8-b398-b6102b497bb4&projectId=ba640c14-69c5-453e-80b2-29051492c0e0","8EAF79BABBD84DE7B86DA1F74B05704E-2025-05-14-22-13-54","","null","","images/semantic_sequence/market_semantic/market_semantic_3.png","null","",""
"","","","","","image-button-response","61","403678","0.0-12.0-1.0-1.1","8EAF79BABBD84DE7B86DA1F74B05704E","8EAF79BABBD84DE7B86DA1F74B05704E","a9628565-d207-45c8-b398-b6102b497bb4","ba640c14-69c5-453e-80b2-29051492c0e0","{""num_scrambled_semantic"":""8"",""num_scrambled_causal"":""4"",""num_scrambled_schematic"":""4"",""participantId"":""8EAF79BABBD84DE7B86DA1F74B05704E"",""assignmentId"":""a9628565-d207-45c8-b398-b6102b497bb4"",""projectId"":""ba640c14-69c5-453e-80b2-29051492c0e0""}","https://test12345.live/?num_scrambled_semantic=8&num_scrambled_causal=4&num_scrambled_schematic=4&participantId=8EAF79BABBD84DE7B86DA1F74B05704E&assignmentId=a9628565-d207-45c8-b398-b6102b497bb4&projectId=ba640c14-69c5-453e-80b2-29051492c0e0","8EAF79BABBD84DE7B86DA1F74B05704E-2025-05-14-22-13-54","","1397","","images/semantic_sequence/market_semantic/market_semantic_3.png","1","",""
"","","","","","image-button-response","62","405499","0.0-12.0-1.0-2.1","8EAF79BABBD84DE7B86DA1F74B05704E","8EAF79BABBD84DE7B86DA1F74B05704E","a9628565-d207-45c8-b398-b6102b497bb4","ba640c14-69c5-453e-80b2-29051492c0e0","{""num_scrambled_semantic"":""8"",""num_scrambled_causal"":""4"",""num_scrambled_schematic"":""4"",""participantId"":""8EAF79BABBD84DE7B86DA1F74B05704E"",""assignmentId"":""a9628565-d207-45c8-b398-b6102b497bb4"",""projectId"":""ba640c14-69c5-453e-80b2-29051492c0e0""}","https://test12345.live/?num_scrambled_semantic=8&num_scrambled_causal=4&num_scrambled_schematic=4&participantId=8EAF79BABBD84DE7B86DA1F74B05704E&assignmentId=a9628565-d207-45c8-b398-b6102b497bb4&projectId=ba640c14-69c5-453e-80b2-29051492c0e0","8EAF79BABBD84DE7B86DA1F74B05704E-2025-05-14-22-13-54","","null","","[]","null","",""
"","","","","","image-button-response","63","410012","0.0-12.0-1.0-0.2","8EAF79BABBD84DE7B86DA1F74B05704E","8EAF79BABBD84DE7B86DA1F74B05704E","a9628565-d207-45c8-b398-b6102b497bb4","ba640c14-69c5-453e-80b2-29051492c0e0","{""num_scrambled_semantic"":""8"",""num_scrambled_causal"":""4"",""num_scrambled_schematic"":""4"",""participantId"":""8EAF79BABBD84DE7B86DA1F74B05704E"",""assignmentId"":""a9628565-d207-45c8-b398-b6102b497bb4"",""projectId"":""ba640c14-69c5-453e-80b2-29051492c0e0""}","https://test12345.live/?num_scrambled_semantic=8&num_scrambled_causal=4&num_scrambled_schematic=4&participantId=8EAF79BABBD84DE7B86DA1F74B05704E&assignmentId=a9628565-d207-45c8-b398-b6102b497bb4&projectId=ba640c14-69c5-453e-80b2-29051492c0e0","8EAF79BABBD84DE7B86DA1F74B05704E-2025-05-14-22-13-54","","null","","images/semantic_sequence/market_semantic/market_semantic_6.png","null","",""
"","","","","","image-button-response","64","410843","0.0-12.0-1.0-1.2","8EAF79BABBD84DE7B86DA1F74B05704E","8EAF79BABBD84DE7B86DA1F74B05704E","a9628565-d207-45c8-b398-b6102b497bb4","ba640c14-69c5-453e-80b2-29051492c0e0","{""num_scrambled_semantic"":""8"",""num_scrambled_causal"":""4"",""num_scrambled_schematic"":""4"",""participantId"":""8EAF79BABBD84DE7B86DA1F74B05704E"",""assignmentId"":""a9628565-d207-45c8-b398-b6102b497bb4"",""projectId"":""ba640c14-69c5-453e-80b2-29051492c0e0""}","https://test12345.live/?num_scrambled_semantic=8&num_scrambled_causal=4&num_scrambled_schematic=4&participantId=8EAF79BABBD84DE7B86DA1F74B05704E&assignmentId=a9628565-d207-45c8-b398-b6102b497bb4&projectId=ba640c14-69c5-453e-80b2-29051492c0e0","8EAF79BABBD84DE7B86DA1F74B05704E-2025-05-14-22-13-54","","828","","images/semantic_sequence/market_semantic/market_semantic_6.png","1","",""
"","","","","","image-button-response","65","412647","0.0-12.0-1.0-2.2","8EAF79BABBD84DE7B86DA1F74B05704E","8EAF79BABBD84DE7B86DA1F74B05704E","a9628565-d207-45c8-b398-b6102b497bb4","ba640c14-69c5-453e-80b2-29051492c0e0","{""num_scrambled_semantic"":""8"",""num_scrambled_causal"":""4"",""num_scrambled_schematic"":""4"",""participantId"":""8EAF79BABBD84DE7B86DA1F74B05704E"",""assignmentId"":""a9628565-d207-45c8-b398-b6102b497bb4"",""projectId"":""ba640c14-69c5-453e-80b2-29051492c0e0""}","https://test12345.live/?num_scrambled_semantic=8&num_scrambled_causal=4&num_scrambled_schematic=4&participantId=8EAF79BABBD84DE7B86DA1F74B05704E&assignmentId=a9628565-d207-45c8-b398-b6102b497bb4&projectId=ba640c14-69c5-453e-80b2-29051492c0e0","8EAF79BABBD84DE7B86DA1F74B05704E-2025-05-14-22-13-54","","null","","[]","null","",""
"","","","","","image-button-response","66","417162","0.0-12.0-1.0-0.3","8EAF79BABBD84DE7B86DA1F74B05704E","8EAF79BABBD84DE7B86DA1F74B05704E","a9628565-d207-45c8-b398-b6102b497bb4","ba640c14-69c5-453e-80b2-29051492c0e0","{""num_scrambled_semantic"":""8"",""num_scrambled_causal"":""4"",""num_scrambled_schematic"":""4"",""participantId"":""8EAF79BABBD84DE7B86DA1F74B05704E"",""assignmentId"":""a9628565-d207-45c8-b398-b6102b497bb4"",""projectId"":""ba640c14-69c5-453e-80b2-29051492c0e0""}","https://test12345.live/?num_scrambled_semantic=8&num_scrambled_causal=4&num_scrambled_schematic=4&participantId=8EAF79BABBD84DE7B86DA1F74B05704E&assignmentId=a9628565-d207-45c8-b398-b6102b497bb4&projectId=ba640c14-69c5-453e-80b2-29051492c0e0","8EAF79BABBD84DE7B86DA1F74B05704E-2025-05-14-22-13-54","","null","","images/semantic_sequence/market_semantic/market_semantic_5.png","null","",""
"","","","","","image-button-response","67","417900","0.0-12.0-1.0-1.3","8EAF79BABBD84DE7B86DA1F74B05704E","8EAF79BABBD84DE7B86DA1F74B05704E","a9628565-d207-45c8-b398-b6102b497bb4","ba640c14-69c5-453e-80b2-29051492c0e0","{""num_scrambled_semantic"":""8"",""num_scrambled_causal"":""4"",""num_scrambled_schematic"":""4"",""participantId"":""8EAF79BABBD84DE7B86DA1F74B05704E"",""assignmentId"":""a9628565-d207-45c8-b398-b6102b497bb4"",""projectId"":""ba640c14-69c5-453e-80b2-29051492c0e0""}","https://test12345.live/?num_scrambled_semantic=8&num_scrambled_causal=4&num_scrambled_schematic=4&participantId=8EAF79BABBD84DE7B86DA1F74B05704E&assignmentId=a9628565-d207-45c8-b398-b6102b497bb4&projectId=ba640c14-69c5-453e-80b2-29051492c0e0","8EAF79BABBD84DE7B86DA1F74B05704E-2025-05-14-22-13-54","","725","","images/semantic_sequence/market_semantic/market_semantic_5.png","1","",""
"","","","","","image-button-response","68","419709","0.0-12.0-1.0-2.3","8EAF79BABBD84DE7B86DA1F74B05704E","8EAF79BABBD84DE7B86DA1F74B05704E","a9628565-d207-45c8-b398-b6102b497bb4","ba640c14-69c5-453e-80b2-29051492c0e0","{""num_scrambled_semantic"":""8"",""num_scrambled_causal"":""4"",""num_scrambled_schematic"":""4"",""participantId"":""8EAF79BABBD84DE7B86DA1F74B05704E"",""assignmentId"":""a9628565-d207-45c8-b398-b6102b497bb4"",""projectId"":""ba640c14-69c5-453e-80b2-29051492c0e0""}","https://test12345.live/?num_scrambled_semantic=8&num_scrambled_causal=4&num_scrambled_schematic=4&participantId=8EAF79BABBD84DE7B86DA1F74B05704E&assignmentId=a9628565-d207-45c8-b398-b6102b497bb4&projectId=ba640c14-69c5-453e-80b2-29051492c0e0","8EAF79BABBD84DE7B86DA1F74B05704E-2025-05-14-22-13-54","","null","","[]","null","",""
"","","","","","image-button-response","69","424217","0.0-12.0-1.0-0.4","8EAF79BABBD84DE7B86DA1F74B05704E","8EAF79BABBD84DE7B86DA1F74B05704E","a9628565-d207-45c8-b398-b6102b497bb4","ba640c14-69c5-453e-80b2-29051492c0e0","{""num_scrambled_semantic"":""8"",""num_scrambled_causal"":""4"",""num_scrambled_schematic"":""4"",""participantId"":""8EAF79BABBD84DE7B86DA1F74B05704E"",""assignmentId"":""a9628565-d207-45c8-b398-b6102b497bb4"",""projectId"":""ba640c14-69c5-453e-80b2-29051492c0e0""}","https://test12345.live/?num_scrambled_semantic=8&num_scrambled_causal=4&num_scrambled_schematic=4&participantId=8EAF79BABBD84DE7B86DA1F74B05704E&assignmentId=a9628565-d207-45c8-b398-b6102b497bb4&projectId=ba640c14-69c5-453e-80b2-29051492c0e0","8EAF79BABBD84DE7B86DA1F74B05704E-2025-05-14-22-13-54","","null","","images/semantic_sequence/market_semantic/market_semantic_1.png","null","",""
"","","","","","image-button-response","70","425113","0.0-12.0-1.0-1.4","8EAF79BABBD84DE7B86DA1F74B05704E","8EAF79BABBD84DE7B86DA1F74B05704E","a9628565-d207-45c8-b398-b6102b497bb4","ba640c14-69c5-453e-80b2-29051492c0e0","{""num_scrambled_semantic"":""8"",""num_scrambled_causal"":""4"",""num_scrambled_schematic"":""4"",""participantId"":""8EAF79BABBD84DE7B86DA1F74B05704E"",""assignmentId"":""a9628565-d207-45c8-b398-b6102b497bb4"",""projectId"":""ba640c14-69c5-453e-80b2-29051492c0e0""}","https://test12345.live/?num_scrambled_semantic=8&num_scrambled_causal=4&num_scrambled_schematic=4&participantId=8EAF79BABBD84DE7B86DA1F74B05704E&assignmentId=a9628565-d207-45c8-b398-b6102b497bb4&projectId=ba640c14-69c5-453e-80b2-29051492c0e0","8EAF79BABBD84DE7B86DA1F74B05704E-2025-05-14-22-13-54","","892","","images/semantic_sequence/market_semantic/market_semantic_1.png","1","",""
"","","","","","image-button-response","71","426927","0.0-12.0-1.0-2.4","8EAF79BABBD84DE7B86DA1F74B05704E","8EAF79BABBD84DE7B86DA1F74B05704E","a9628565-d207-45c8-b398-b6102b497bb4","ba640c14-69c5-453e-80b2-29051492c0e0","{""num_scrambled_semantic"":""8"",""num_scrambled_causal"":""4"",""num_scrambled_schematic"":""4"",""participantId"":""8EAF79BABBD84DE7B86DA1F74B05704E"",""assignmentId"":""a9628565-d207-45c8-b398-b6102b497bb4"",""projectId"":""ba640c14-69c5-453e-80b2-29051492c0e0""}","https://test12345.live/?num_scrambled_semantic=8&num_scrambled_causal=4&num_scrambled_schematic=4&participantId=8EAF79BABBD84DE7B86DA1F74B05704E&assignmentId=a9628565-d207-45c8-b398-b6102b497bb4&projectId=ba640c14-69c5-453e-80b2-29051492c0e0","8EAF79BABBD84DE7B86DA1F74B05704E-2025-05-14-22-13-54","","null","","[]","null","",""
"","","","","","image-button-response","72","431432","0.0-12.0-1.0-0.5","8EAF79BABBD84DE7B86DA1F74B05704E","8EAF79BABBD84DE7B86DA1F74B05704E","a9628565-d207-45c8-b398-b6102b497bb4","ba640c14-69c5-453e-80b2-29051492c0e0","{""num_scrambled_semantic"":""8"",""num_scrambled_causal"":""4"",""num_scrambled_schematic"":""4"",""participantId"":""8EAF79BABBD84DE7B86DA1F74B05704E"",""assignmentId"":""a9628565-d207-45c8-b398-b6102b497bb4"",""projectId"":""ba640c14-69c5-453e-80b2-29051492c0e0""}","https://test12345.live/?num_scrambled_semantic=8&num_scrambled_causal=4&num_scrambled_schematic=4&participantId=8EAF79BABBD84DE7B86DA1F74B05704E&assignmentId=a9628565-d207-45c8-b398-b6102b497bb4&projectId=ba640c14-69c5-453e-80b2-29051492c0e0","8EAF79BABBD84DE7B86DA1F74B05704E-2025-05-14-22-13-54","","null","","images/semantic_sequence/market_semantic/market_semantic_9.png","null","",""
"","","","","","image-button-response","73","433368","0.0-12.0-1.0-1.5","8EAF79BABBD84DE7B86DA1F74B05704E","8EAF79BABBD84DE7B86DA1F74B05704E","a9628565-d207-45c8-b398-b6102b497bb4","ba640c14-69c5-453e-80b2-29051492c0e0","{""num_scrambled_semantic"":""8"",""num_scrambled_causal"":""4"",""num_scrambled_schematic"":""4"",""participantId"":""8EAF79BABBD84DE7B86DA1F74B05704E"",""assignmentId"":""a9628565-d207-45c8-b398-b6102b497bb4"",""projectId"":""ba640c14-69c5-453e-80b2-29051492c0e0""}","https://test12345.live/?num_scrambled_semantic=8&num_scrambled_causal=4&num_scrambled_schematic=4&participantId=8EAF79BABBD84DE7B86DA1F74B05704E&assignmentId=a9628565-d207-45c8-b398-b6102b497bb4&projectId=ba640c14-69c5-453e-80b2-29051492c0e0","8EAF79BABBD84DE7B86DA1F74B05704E-2025-05-14-22-13-54","","1933","","images/semantic_sequence/market_semantic/market_semantic_9.png","0","",""
"","","","","","image-button-response","74","435187","0.0-12.0-1.0-2.5","8EAF79BABBD84DE7B86DA1F74B05704E","8EAF79BABBD84DE7B86DA1F74B05704E","a9628565-d207-45c8-b398-b6102b497bb4","ba640c14-69c5-453e-80b2-29051492c0e0","{""num_scrambled_semantic"":""8"",""num_scrambled_causal"":""4"",""num_scrambled_schematic"":""4"",""participantId"":""8EAF79BABBD84DE7B86DA1F74B05704E"",""assignmentId"":""a9628565-d207-45c8-b398-b6102b497bb4"",""projectId"":""ba640c14-69c5-453e-80b2-29051492c0e0""}","https://test12345.live/?num_scrambled_semantic=8&num_scrambled_causal=4&num_scrambled_schematic=4&participantId=8EAF79BABBD84DE7B86DA1F74B05704E&assignmentId=a9628565-d207-45c8-b398-b6102b497bb4&projectId=ba640c14-69c5-453e-80b2-29051492c0e0","8EAF79BABBD84DE7B86DA1F74B05704E-2025-05-14-22-13-54","","null","","[]","null","",""
"","","","","","image-button-response","75","439690","0.0-12.0-1.0-0.6","8EAF79BABBD84DE7B86DA1F74B05704E","8EAF79BABBD84DE7B86DA1F74B05704E","a9628565-d207-45c8-b398-b6102b497bb4","ba640c14-69c5-453e-80b2-29051492c0e0","{""num_scrambled_semantic"":""8"",""num_scrambled_causal"":""4"",""num_scrambled_schematic"":""4"",""participantId"":""8EAF79BABBD84DE7B86DA1F74B05704E"",""assignmentId"":""a9628565-d207-45c8-b398-b6102b497bb4"",""projectId"":""ba640c14-69c5-453e-80b2-29051492c0e0""}","https://test12345.live/?num_scrambled_semantic=8&num_scrambled_causal=4&num_scrambled_schematic=4&participantId=8EAF79BABBD84DE7B86DA1F74B05704E&assignmentId=a9628565-d207-45c8-b398-b6102b497bb4&projectId=ba640c14-69c5-453e-80b2-29051492c0e0","8EAF79BABBD84DE7B86DA1F74B05704E-2025-05-14-22-13-54","","null","","images/semantic_sequence/market_semantic/market_semantic_4.png","null","",""
"","","","","","image-button-response","76","440937","0.0-12.0-1.0-1.6","8EAF79BABBD84DE7B86DA1F74B05704E","8EAF79BABBD84DE7B86DA1F74B05704E","a9628565-d207-45c8-b398-b6102b497bb4","ba640c14-69c5-453e-80b2-29051492c0e0","{""num_scrambled_semantic"":""8"",""num_scrambled_causal"":""4"",""num_scrambled_schematic"":""4"",""participantId"":""8EAF79BABBD84DE7B86DA1F74B05704E"",""assignmentId"":""a9628565-d207-45c8-b398-b6102b497bb4"",""projectId"":""ba640c14-69c5-453e-80b2-29051492c0e0""}","https://test12345.live/?num_scrambled_semantic=8&num_scrambled_causal=4&num_scrambled_schematic=4&participantId=8EAF79BABBD84DE7B86DA1F74B05704E&assignmentId=a9628565-d207-45c8-b398-b6102b497bb4&projectId=ba640c14-69c5-453e-80b2-29051492c0e0","8EAF79BABBD84DE7B86DA1F74B05704E-2025-05-14-22-13-54","","1245","","images/semantic_sequence/market_semantic/market_semantic_4.png","0","",""
"","","","","","image-button-response","77","442752","0.0-12.0-1.0-2.6","8EAF79BABBD84DE7B86DA1F74B05704E","8EAF79BABBD84DE7B86DA1F74B05704E","a9628565-d207-45c8-b398-b6102b497bb4","ba640c14-69c5-453e-80b2-29051492c0e0","{""num_scrambled_semantic"":""8"",""num_scrambled_causal"":""4"",""num_scrambled_schematic"":""4"",""participantId"":""8EAF79BABBD84DE7B86DA1F74B05704E"",""assignmentId"":""a9628565-d207-45c8-b398-b6102b497bb4"",""projectId"":""ba640c14-69c5-453e-80b2-29051492c0e0""}","https://test12345.live/?num_scrambled_semantic=8&num_scrambled_causal=4&num_scrambled_schematic=4&participantId=8EAF79BABBD84DE7B86DA1F74B05704E&assignmentId=a9628565-d207-45c8-b398-b6102b497bb4&projectId=ba640c14-69c5-453e-80b2-29051492c0e0","8EAF79BABBD84DE7B86DA1F74B05704E-2025-05-14-22-13-54","","null","","[]","null","",""
"","","","","","image-button-response","78","447257","0.0-12.0-1.0-0.7","8EAF79BABBD84DE7B86DA1F74B05704E","8EAF79BABBD84DE7B86DA1F74B05704E","a9628565-d207-45c8-b398-b6102b497bb4","ba640c14-69c5-453e-80b2-29051492c0e0","{""num_scrambled_semantic"":""8"",""num_scrambled_causal"":""4"",""num_scrambled_schematic"":""4"",""participantId"":""8EAF79BABBD84DE7B86DA1F74B05704E"",""assignmentId"":""a9628565-d207-45c8-b398-b6102b497bb4"",""projectId"":""ba640c14-69c5-453e-80b2-29051492c0e0""}","https://test12345.live/?num_scrambled_semantic=8&num_scrambled_causal=4&num_scrambled_schematic=4&participantId=8EAF79BABBD84DE7B86DA1F74B05704E&assignmentId=a9628565-d207-45c8-b398-b6102b497bb4&projectId=ba640c14-69c5-453e-80b2-29051492c0e0","8EAF79BABBD84DE7B86DA1F74B05704E-2025-05-14-22-13-54","","null","","images/semantic_sequence/market_semantic/market_semantic_ten.png","null","",""
"","","","","","image-button-response","79","448721","0.0-12.0-1.0-1.7","8EAF79BABBD84DE7B86DA1F74B05704E","8EAF79BABBD84DE7B86DA1F74B05704E","a9628565-d207-45c8-b398-b6102b497bb4","ba640c14-69c5-453e-80b2-29051492c0e0","{""num_scrambled_semantic"":""8"",""num_scrambled_causal"":""4"",""num_scrambled_schematic"":""4"",""participantId"":""8EAF79BABBD84DE7B86DA1F74B05704E"",""assignmentId"":""a9628565-d207-45c8-b398-b6102b497bb4"",""projectId"":""ba640c14-69c5-453e-80b2-29051492c0e0""}","https://test12345.live/?num_scrambled_semantic=8&num_scrambled_causal=4&num_scrambled_schematic=4&participantId=8EAF79BABBD84DE7B86DA1F74B05704E&assignmentId=a9628565-d207-45c8-b398-b6102b497bb4&projectId=ba640c14-69c5-453e-80b2-29051492c0e0","8EAF79BABBD84DE7B86DA1F74B05704E-2025-05-14-22-13-54","","1462","","images/semantic_sequence/market_semantic/market_semantic_ten.png","1","",""
"","","","","","image-button-response","80","450538","0.0-12.0-1.0-2.7","8EAF79BABBD84DE7B86DA1F74B05704E","8EAF79BABBD84DE7B86DA1F74B05704E","a9628565-d207-45c8-b398-b6102b497bb4","ba640c14-69c5-453e-80b2-29051492c0e0","{""num_scrambled_semantic"":""8"",""num_scrambled_causal"":""4"",""num_scrambled_schematic"":""4"",""participantId"":""8EAF79BABBD84DE7B86DA1F74B05704E"",""assignmentId"":""a9628565-d207-45c8-b398-b6102b497bb4"",""projectId"":""ba640c14-69c5-453e-80b2-29051492c0e0""}","https://test12345.live/?num_scrambled_semantic=8&num_scrambled_causal=4&num_scrambled_schematic=4&participantId=8EAF79BABBD84DE7B86DA1F74B05704E&assignmentId=a9628565-d207-45c8-b398-b6102b497bb4&projectId=ba640c14-69c5-453e-80b2-29051492c0e0","8EAF79BABBD84DE7B86DA1F74B05704E-2025-05-14-22-13-54","","null","","[]","null","",""
"","","","","","image-button-response","81","455047","0.0-12.0-1.0-0.8","8EAF79BABBD84DE7B86DA1F74B05704E","8EAF79BABBD84DE7B86DA1F74B05704E","a9628565-d207-45c8-b398-b6102b497bb4","ba640c14-69c5-453e-80b2-29051492c0e0","{""num_scrambled_semantic"":""8"",""num_scrambled_causal"":""4"",""num_scrambled_schematic"":""4"",""participantId"":""8EAF79BABBD84DE7B86DA1F74B05704E"",""assignmentId"":""a9628565-d207-45c8-b398-b6102b497bb4"",""projectId"":""ba640c14-69c5-453e-80b2-29051492c0e0""}","https://test12345.live/?num_scrambled_semantic=8&num_scrambled_causal=4&num_scrambled_schematic=4&participantId=8EAF79BABBD84DE7B86DA1F74B05704E&assignmentId=a9628565-d207-45c8-b398-b6102b497bb4&projectId=ba640c14-69c5-453e-80b2-29051492c0e0","8EAF79BABBD84DE7B86DA1F74B05704E-2025-05-14-22-13-54","","null","","images/semantic_sequence/market_semantic/market_semantic_7.png","null","",""
"","","","","","image-button-response","82","456079","0.0-12.0-1.0-1.8","8EAF79BABBD84DE7B86DA1F74B05704E","8EAF79BABBD84DE7B86DA1F74B05704E","a9628565-d207-45c8-b398-b6102b497bb4","ba640c14-69c5-453e-80b2-29051492c0e0","{""num_scrambled_semantic"":""8"",""num_scrambled_causal"":""4"",""num_scrambled_schematic"":""4"",""participantId"":""8EAF79BABBD84DE7B86DA1F74B05704E"",""assignmentId"":""a9628565-d207-45c8-b398-b6102b497bb4"",""projectId"":""ba640c14-69c5-453e-80b2-29051492c0e0""}","https://test12345.live/?num_scrambled_semantic=8&num_scrambled_causal=4&num_scrambled_schematic=4&participantId=8EAF79BABBD84DE7B86DA1F74B05704E&assignmentId=a9628565-d207-45c8-b398-b6102b497bb4&projectId=ba640c14-69c5-453e-80b2-29051492c0e0","8EAF79BABBD84DE7B86DA1F74B05704E-2025-05-14-22-13-54","","1030","","images/semantic_sequence/market_semantic/market_semantic_7.png","0","",""
"","","","","","image-button-response","83","457897","0.0-12.0-1.0-2.8","8EAF79BABBD84DE7B86DA1F74B05704E","8EAF79BABBD84DE7B86DA1F74B05704E","a9628565-d207-45c8-b398-b6102b497bb4","ba640c14-69c5-453e-80b2-29051492c0e0","{""num_scrambled_semantic"":""8"",""num_scrambled_causal"":""4"",""num_scrambled_schematic"":""4"",""participantId"":""8EAF79BABBD84DE7B86DA1F74B05704E"",""assignmentId"":""a9628565-d207-45c8-b398-b6102b497bb4"",""projectId"":""ba640c14-69c5-453e-80b2-29051492c0e0""}","https://test12345.live/?num_scrambled_semantic=8&num_scrambled_causal=4&num_scrambled_schematic=4&participantId=8EAF79BABBD84DE7B86DA1F74B05704E&assignmentId=a9628565-d207-45c8-b398-b6102b497bb4&projectId=ba640c14-69c5-453e-80b2-29051492c0e0","8EAF79BABBD84DE7B86DA1F74B05704E-2025-05-14-22-13-54","","null","","[]","null","",""
"","","","","","image-button-response","84","462402","0.0-12.0-1.0-0.9","8EAF79BABBD84DE7B86DA1F74B05704E","8EAF79BABBD84DE7B86DA1F74B05704E","a9628565-d207-45c8-b398-b6102b497bb4","ba640c14-69c5-453e-80b2-29051492c0e0","{""num_scrambled_semantic"":""8"",""num_scrambled_causal"":""4"",""num_scrambled_schematic"":""4"",""participantId"":""8EAF79BABBD84DE7B86DA1F74B05704E"",""assignmentId"":""a9628565-d207-45c8-b398-b6102b497bb4"",""projectId"":""ba640c14-69c5-453e-80b2-29051492c0e0""}","https://test12345.live/?num_scrambled_semantic=8&num_scrambled_causal=4&num_scrambled_schematic=4&participantId=8EAF79BABBD84DE7B86DA1F74B05704E&assignmentId=a9628565-d207-45c8-b398-b6102b497bb4&projectId=ba640c14-69c5-453e-80b2-29051492c0e0","8EAF79BABBD84DE7B86DA1F74B05704E-2025-05-14-22-13-54","","null","","images/semantic_sequence/market_semantic/market_semantic_8.png","null","",""
"","","","","","image-button-response","85","463240","0.0-12.0-1.0-1.9","8EAF79BABBD84DE7B86DA1F74B05704E","8EAF79BABBD84DE7B86DA1F74B05704E","a9628565-d207-45c8-b398-b6102b497bb4","ba640c14-69c5-453e-80b2-29051492c0e0","{""num_scrambled_semantic"":""8"",""num_scrambled_causal"":""4"",""num_scrambled_schematic"":""4"",""participantId"":""8EAF79BABBD84DE7B86DA1F74B05704E"",""assignmentId"":""a9628565-d207-45c8-b398-b6102b497bb4"",""projectId"":""ba640c14-69c5-453e-80b2-29051492c0e0""}","https://test12345.live/?num_scrambled_semantic=8&num_scrambled_causal=4&num_scrambled_schematic=4&participantId=8EAF79BABBD84DE7B86DA1F74B05704E&assignmentId=a9628565-d207-45c8-b398-b6102b497bb4&projectId=ba640c14-69c5-453e-80b2-29051492c0e0","8EAF79BABBD84DE7B86DA1F74B05704E-2025-05-14-22-13-54","","836","","images/semantic_sequence/market_semantic/market_semantic_8.png","0","",""
"","","","","","image-button-response","86","465059","0.0-12.0-1.0-2.9","8EAF79BABBD84DE7B86DA1F74B05704E","8EAF79BABBD84DE7B86DA1F74B05704E","a9628565-d207-45c8-b398-b6102b497bb4","ba640c14-69c5-453e-80b2-29051492c0e0","{""num_scrambled_semantic"":""8"",""num_scrambled_causal"":""4"",""num_scrambled_schematic"":""4"",""participantId"":""8EAF79BABBD84DE7B86DA1F74B05704E"",""assignmentId"":""a9628565-d207-45c8-b398-b6102b497bb4"",""projectId"":""ba640c14-69c5-453e-80b2-29051492c0e0""}","https://test12345.live/?num_scrambled_semantic=8&num_scrambled_causal=4&num_scrambled_schematic=4&participantId=8EAF79BABBD84DE7B86DA1F74B05704E&assignmentId=a9628565-d207-45c8-b398-b6102b497bb4&projectId=ba640c14-69c5-453e-80b2-29051492c0e0","8EAF79BABBD84DE7B86DA1F74B05704E-2025-05-14-22-13-54","","null","","[]","null","",""
"","","","","","html-audio-response","87","481116","0.0-13.0","8EAF79BABBD84DE7B86DA1F74B05704E","8EAF79BABBD84DE7B86DA1F74B05704E","a9628565-d207-45c8-b398-b6102b497bb4","ba640c14-69c5-453e-80b2-29051492c0e0","{""num_scrambled_semantic"":""8"",""num_scrambled_causal"":""4"",""num_scrambled_schematic"":""4"",""participantId"":""8EAF79BABBD84DE7B86DA1F74B05704E"",""assignmentId"":""a9628565-d207-45c8-b398-b6102b497bb4"",""projectId"":""ba640c14-69c5-453e-80b2-29051492c0e0""}","https://test12345.live/?num_scrambled_semantic=8&num_scrambled_causal=4&num_scrambled_schematic=4&participantId=8EAF79BABBD84DE7B86DA1F74B05704E&assignmentId=a9628565-d207-45c8-b398-b6102b497bb4&projectId=ba640c14-69c5-453e-80b2-29051492c0e0","8EAF79BABBD84DE7B86DA1F74B05704E-2025-05-14-22-13-54","","11219","","[""<span style=\""color: red; font-size: 24px\""> NOW RECORDING</span><p>Please say out loud all the images you saw, as many as you can remember. The images can be said in any order.</p>""]","","3","market_semantic"
"","","","","","image-button-response","88","487127","0.0-14.0-0.0","8EAF79BABBD84DE7B86DA1F74B05704E","8EAF79BABBD84DE7B86DA1F74B05704E","a9628565-d207-45c8-b398-b6102b497bb4","ba640c14-69c5-453e-80b2-29051492c0e0","{""num_scrambled_semantic"":""8"",""num_scrambled_causal"":""4"",""num_scrambled_schematic"":""4"",""participantId"":""8EAF79BABBD84DE7B86DA1F74B05704E"",""assignmentId"":""a9628565-d207-45c8-b398-b6102b497bb4"",""projectId"":""ba640c14-69c5-453e-80b2-29051492c0e0""}","https://test12345.live/?num_scrambled_semantic=8&num_scrambled_causal=4&num_scrambled_schematic=4&participantId=8EAF79BABBD84DE7B86DA1F74B05704E&assignmentId=a9628565-d207-45c8-b398-b6102b497bb4&projectId=ba640c14-69c5-453e-80b2-29051492c0e0","8EAF79BABBD84DE7B86DA1F74B05704E-2025-05-14-22-13-54","","null","","images/semantic_sequence/visiting_cities_semantic/visiting_cities_semantic_0.png","null","",""
"","","","","","image-button-response","89","491629","0.0-14.0-1.0-0.0","8EAF79BABBD84DE7B86DA1F74B05704E","8EAF79BABBD84DE7B86DA1F74B05704E","a9628565-d207-45c8-b398-b6102b497bb4","ba640c14-69c5-453e-80b2-29051492c0e0","{""num_scrambled_semantic"":""8"",""num_scrambled_causal"":""4"",""num_scrambled_schematic"":""4"",""participantId"":""8EAF79BABBD84DE7B86DA1F74B05704E"",""assignmentId"":""a9628565-d207-45c8-b398-b6102b497bb4"",""projectId"":""ba640c14-69c5-453e-80b2-29051492c0e0""}","https://test12345.live/?num_scrambled_semantic=8&num_scrambled_causal=4&num_scrambled_schematic=4&participantId=8EAF79BABBD84DE7B86DA1F74B05704E&assignmentId=a9628565-d207-45c8-b398-b6102b497bb4&projectId=ba640c14-69c5-453e-80b2-29051492c0e0","8EAF79BABBD84DE7B86DA1F74B05704E-2025-05-14-22-13-54","","null","","images/semantic_sequence/visiting_cities_semantic/visiting_cities_semantic_8.png","null","",""
"","","","","","image-button-response","90","493268","0.0-14.0-1.0-1.0","8EAF79BABBD84DE7B86DA1F74B05704E","8EAF79BABBD84DE7B86DA1F74B05704E","a9628565-d207-45c8-b398-b6102b497bb4","ba640c14-69c5-453e-80b2-29051492c0e0","{""num_scrambled_semantic"":""8"",""num_scrambled_causal"":""4"",""num_scrambled_schematic"":""4"",""participantId"":""8EAF79BABBD84DE7B86DA1F74B05704E"",""assignmentId"":""a9628565-d207-45c8-b398-b6102b497bb4"",""projectId"":""ba640c14-69c5-453e-80b2-29051492c0e0""}","https://test12345.live/?num_scrambled_semantic=8&num_scrambled_causal=4&num_scrambled_schematic=4&participantId=8EAF79BABBD84DE7B86DA1F74B05704E&assignmentId=a9628565-d207-45c8-b398-b6102b497bb4&projectId=ba640c14-69c5-453e-80b2-29051492c0e0","8EAF79BABBD84DE7B86DA1F74B05704E-2025-05-14-22-13-54","","1636","","images/semantic_sequence/visiting_cities_semantic/visiting_cities_semantic_8.png","1","",""
"","","","","","image-button-response","91","495076","0.0-14.0-1.0-2.0","8EAF79BABBD84DE7B86DA1F74B05704E","8EAF79BABBD84DE7B86DA1F74B05704E","a9628565-d207-45c8-b398-b6102b497bb4","ba640c14-69c5-453e-80b2-29051492c0e0","{""num_scrambled_semantic"":""8"",""num_scrambled_causal"":""4"",""num_scrambled_schematic"":""4"",""participantId"":""8EAF79BABBD84DE7B86DA1F74B05704E"",""assignmentId"":""a9628565-d207-45c8-b398-b6102b497bb4"",""projectId"":""ba640c14-69c5-453e-80b2-29051492c0e0""}","https://test12345.live/?num_scrambled_semantic=8&num_scrambled_causal=4&num_scrambled_schematic=4&participantId=8EAF79BABBD84DE7B86DA1F74B05704E&assignmentId=a9628565-d207-45c8-b398-b6102b497bb4&projectId=ba640c14-69c5-453e-80b2-29051492c0e0","8EAF79BABBD84DE7B86DA1F74B05704E-2025-05-14-22-13-54","","null","","[]","null","",""
"","","","","","image-button-response","92","499597","0.0-14.0-1.0-0.1","8EAF79BABBD84DE7B86DA1F74B05704E","8EAF79BABBD84DE7B86DA1F74B05704E","a9628565-d207-45c8-b398-b6102b497bb4","ba640c14-69c5-453e-80b2-29051492c0e0","{""num_scrambled_semantic"":""8"",""num_scrambled_causal"":""4"",""num_scrambled_schematic"":""4"",""participantId"":""8EAF79BABBD84DE7B86DA1F74B05704E"",""assignmentId"":""a9628565-d207-45c8-b398-b6102b497bb4"",""projectId"":""ba640c14-69c5-453e-80b2-29051492c0e0""}","https://test12345.live/?num_scrambled_semantic=8&num_scrambled_causal=4&num_scrambled_schematic=4&participantId=8EAF79BABBD84DE7B86DA1F74B05704E&assignmentId=a9628565-d207-45c8-b398-b6102b497bb4&projectId=ba640c14-69c5-453e-80b2-29051492c0e0","8EAF79BABBD84DE7B86DA1F74B05704E-2025-05-14-22-13-54","","null","","images/semantic_sequence/visiting_cities_semantic/visiting_cities_semantic_2.png","null","",""
"","","","","","image-button-response","93","500733","0.0-14.0-1.0-1.1","8EAF79BABBD84DE7B86DA1F74B05704E","8EAF79BABBD84DE7B86DA1F74B05704E","a9628565-d207-45c8-b398-b6102b497bb4","ba640c14-69c5-453e-80b2-29051492c0e0","{""num_scrambled_semantic"":""8"",""num_scrambled_causal"":""4"",""num_scrambled_schematic"":""4"",""participantId"":""8EAF79BABBD84DE7B86DA1F74B05704E"",""assignmentId"":""a9628565-d207-45c8-b398-b6102b497bb4"",""projectId"":""ba640c14-69c5-453e-80b2-29051492c0e0""}","https://test12345.live/?num_scrambled_semantic=8&num_scrambled_causal=4&num_scrambled_schematic=4&participantId=8EAF79BABBD84DE7B86DA1F74B05704E&assignmentId=a9628565-d207-45c8-b398-b6102b497bb4&projectId=ba640c14-69c5-453e-80b2-29051492c0e0","8EAF79BABBD84DE7B86DA1F74B05704E-2025-05-14-22-13-54","","1133","","images/semantic_sequence/visiting_cities_semantic/visiting_cities_semantic_2.png","1","",""
"","","","","","image-button-response","94","502546","0.0-14.0-1.0-2.1","8EAF79BABBD84DE7B86DA1F74B05704E","8EAF79BABBD84DE7B86DA1F74B05704E","a9628565-d207-45c8-b398-b6102b497bb4","ba640c14-69c5-453e-80b2-29051492c0e0","{""num_scrambled_semantic"":""8"",""num_scrambled_causal"":""4"",""num_scrambled_schematic"":""4"",""participantId"":""8EAF79BABBD84DE7B86DA1F74B05704E"",""assignmentId"":""a9628565-d207-45c8-b398-b6102b497bb4"",""projectId"":""ba640c14-69c5-453e-80b2-29051492c0e0""}","https://test12345.live/?num_scrambled_semantic=8&num_scrambled_causal=4&num_scrambled_schematic=4&participantId=8EAF79BABBD84DE7B86DA1F74B05704E&assignmentId=a9628565-d207-45c8-b398-b6102b497bb4&projectId=ba640c14-69c5-453e-80b2-29051492c0e0","8EAF79BABBD84DE7B86DA1F74B05704E-2025-05-14-22-13-54","","null","","[]","null","",""
"","","","","","image-button-response","95","507067","0.0-14.0-1.0-0.2","8EAF79BABBD84DE7B86DA1F74B05704E","8EAF79BABBD84DE7B86DA1F74B05704E","a9628565-d207-45c8-b398-b6102b497bb4","ba640c14-69c5-453e-80b2-29051492c0e0","{""num_scrambled_semantic"":""8"",""num_scrambled_causal"":""4"",""num_scrambled_schematic"":""4"",""participantId"":""8EAF79BABBD84DE7B86DA1F74B05704E"",""assignmentId"":""a9628565-d207-45c8-b398-b6102b497bb4"",""projectId"":""ba640c14-69c5-453e-80b2-29051492c0e0""}","https://test12345.live/?num_scrambled_semantic=8&num_scrambled_causal=4&num_scrambled_schematic=4&participantId=8EAF79BABBD84DE7B86DA1F74B05704E&assignmentId=a9628565-d207-45c8-b398-b6102b497bb4&projectId=ba640c14-69c5-453e-80b2-29051492c0e0","8EAF79BABBD84DE7B86DA1F74B05704E-2025-05-14-22-13-54","","null","","images/semantic_sequence/visiting_cities_semantic/visiting_cities_semantic_9.png","null","",""
"","","","","","image-button-response","96","508098","0.0-14.0-1.0-1.2","8EAF79BABBD84DE7B86DA1F74B05704E","8EAF79BABBD84DE7B86DA1F74B05704E","a9628565-d207-45c8-b398-b6102b497bb4","ba640c14-69c5-453e-80b2-29051492c0e0","{""num_scrambled_semantic"":""8"",""num_scrambled_causal"":""4"",""num_scrambled_schematic"":""4"",""participantId"":""8EAF79BABBD84DE7B86DA1F74B05704E"",""assignmentId"":""a9628565-d207-45c8-b398-b6102b497bb4"",""projectId"":""ba640c14-69c5-453e-80b2-29051492c0e0""}","https://test12345.live/?num_scrambled_semantic=8&num_scrambled_causal=4&num_scrambled_schematic=4&participantId=8EAF79BABBD84DE7B86DA1F74B05704E&assignmentId=a9628565-d207-45c8-b398-b6102b497bb4&projectId=ba640c14-69c5-453e-80b2-29051492c0e0","8EAF79BABBD84DE7B86DA1F74B05704E-2025-05-14-22-13-54","","1028","","images/semantic_sequence/visiting_cities_semantic/visiting_cities_semantic_9.png","1","",""
"","","","","","image-button-response","97","509918","0.0-14.0-1.0-2.2","8EAF79BABBD84DE7B86DA1F74B05704E","8EAF79BABBD84DE7B86DA1F74B05704E","a9628565-d207-45c8-b398-b6102b497bb4","ba640c14-69c5-453e-80b2-29051492c0e0","{""num_scrambled_semantic"":""8"",""num_scrambled_causal"":""4"",""num_scrambled_schematic"":""4"",""participantId"":""8EAF79BABBD84DE7B86DA1F74B05704E"",""assignmentId"":""a9628565-d207-45c8-b398-b6102b497bb4"",""projectId"":""ba640c14-69c5-453e-80b2-29051492c0e0""}","https://test12345.live/?num_scrambled_semantic=8&num_scrambled_causal=4&num_scrambled_schematic=4&participantId=8EAF79BABBD84DE7B86DA1F74B05704E&assignmentId=a9628565-d207-45c8-b398-b6102b497bb4&projectId=ba640c14-69c5-453e-80b2-29051492c0e0","8EAF79BABBD84DE7B86DA1F74B05704E-2025-05-14-22-13-54","","null","","[]","null","",""
"","","","","","image-button-response","98","514437","0.0-14.0-1.0-0.3","8EAF79BABBD84DE7B86DA1F74B05704E","8EAF79BABBD84DE7B86DA1F74B05704E","a9628565-d207-45c8-b398-b6102b497bb4","ba640c14-69c5-453e-80b2-29051492c0e0","{""num_scrambled_semantic"":""8"",""num_scrambled_causal"":""4"",""num_scrambled_schematic"":""4"",""participantId"":""8EAF79BABBD84DE7B86DA1F74B05704E"",""assignmentId"":""a9628565-d207-45c8-b398-b6102b497bb4"",""projectId"":""ba640c14-69c5-453e-80b2-29051492c0e0""}","https://test12345.live/?num_scrambled_semantic=8&num_scrambled_causal=4&num_scrambled_schematic=4&participantId=8EAF79BABBD84DE7B86DA1F74B05704E&assignmentId=a9628565-d207-45c8-b398-b6102b497bb4&projectId=ba640c14-69c5-453e-80b2-29051492c0e0","8EAF79BABBD84DE7B86DA1F74B05704E-2025-05-14-22-13-54","","null","","images/semantic_sequence/visiting_cities_semantic/visiting_cities_semantic_4.png","null","",""
"","","","","","image-button-response","99","515378","0.0-14.0-1.0-1.3","8EAF79BABBD84DE7B86DA1F74B05704E","8EAF79BABBD84DE7B86DA1F74B05704E","a9628565-d207-45c8-b398-b6102b497bb4","ba640c14-69c5-453e-80b2-29051492c0e0","{""num_scrambled_semantic"":""8"",""num_scrambled_causal"":""4"",""num_scrambled_schematic"":""4"",""participantId"":""8EAF79BABBD84DE7B86DA1F74B05704E"",""assignmentId"":""a9628565-d207-45c8-b398-b6102b497bb4"",""projectId"":""ba640c14-69c5-453e-80b2-29051492c0e0""}","https://test12345.live/?num_scrambled_semantic=8&num_scrambled_causal=4&num_scrambled_schematic=4&participantId=8EAF79BABBD84DE7B86DA1F74B05704E&assignmentId=a9628565-d207-45c8-b398-b6102b497bb4&projectId=ba640c14-69c5-453e-80b2-29051492c0e0","8EAF79BABBD84DE7B86DA1F74B05704E-2025-05-14-22-13-54","","937","","images/semantic_sequence/visiting_cities_semantic/visiting_cities_semantic_4.png","1","",""
"","","","","","image-button-response","100","517192","0.0-14.0-1.0-2.3","8EAF79BABBD84DE7B86DA1F74B05704E","8EAF79BABBD84DE7B86DA1F74B05704E","a9628565-d207-45c8-b398-b6102b497bb4","ba640c14-69c5-453e-80b2-29051492c0e0","{""num_scrambled_semantic"":""8"",""num_scrambled_causal"":""4"",""num_scrambled_schematic"":""4"",""participantId"":""8EAF79BABBD84DE7B86DA1F74B05704E"",""assignmentId"":""a9628565-d207-45c8-b398-b6102b497bb4"",""projectId"":""ba640c14-69c5-453e-80b2-29051492c0e0""}","https://test12345.live/?num_scrambled_semantic=8&num_scrambled_causal=4&num_scrambled_schematic=4&participantId=8EAF79BABBD84DE7B86DA1F74B05704E&assignmentId=a9628565-d207-45c8-b398-b6102b497bb4&projectId=ba640c14-69c5-453e-80b2-29051492c0e0","8EAF79BABBD84DE7B86DA1F74B05704E-2025-05-14-22-13-54","","null","","[]","null","",""
"","","","","","image-button-response","101","521708","0.0-14.0-1.0-0.4","8EAF79BABBD84DE7B86DA1F74B05704E","8EAF79BABBD84DE7B86DA1F74B05704E","a9628565-d207-45c8-b398-b6102b497bb4","ba640c14-69c5-453e-80b2-29051492c0e0","{""num_scrambled_semantic"":""8"",""num_scrambled_causal"":""4"",""num_scrambled_schematic"":""4"",""participantId"":""8EAF79BABBD84DE7B86DA1F74B05704E"",""assignmentId"":""a9628565-d207-45c8-b398-b6102b497bb4"",""projectId"":""ba640c14-69c5-453e-80b2-29051492c0e0""}","https://test12345.live/?num_scrambled_semantic=8&num_scrambled_causal=4&num_scrambled_schematic=4&participantId=8EAF79BABBD84DE7B86DA1F74B05704E&assignmentId=a9628565-d207-45c8-b398-b6102b497bb4&projectId=ba640c14-69c5-453e-80b2-29051492c0e0","8EAF79BABBD84DE7B86DA1F74B05704E-2025-05-14-22-13-54","","null","","images/semantic_sequence/visiting_cities_semantic/visiting_cities_semantic_1.png","null","",""
"","","","","","image-button-response","102","522404","0.0-14.0-1.0-1.4","8EAF79BABBD84DE7B86DA1F74B05704E","8EAF79BABBD84DE7B86DA1F74B05704E","a9628565-d207-45c8-b398-b6102b497bb4","ba640c14-69c5-453e-80b2-29051492c0e0","{""num_scrambled_semantic"":""8"",""num_scrambled_causal"":""4"",""num_scrambled_schematic"":""4"",""participantId"":""8EAF79BABBD84DE7B86DA1F74B05704E"",""assignmentId"":""a9628565-d207-45c8-b398-b6102b497bb4"",""projectId"":""ba640c14-69c5-453e-80b2-29051492c0e0""}","https://test12345.live/?num_scrambled_semantic=8&num_scrambled_causal=4&num_scrambled_schematic=4&participantId=8EAF79BABBD84DE7B86DA1F74B05704E&assignmentId=a9628565-d207-45c8-b398-b6102b497bb4&projectId=ba640c14-69c5-453e-80b2-29051492c0e0","8EAF79BABBD84DE7B86DA1F74B05704E-2025-05-14-22-13-54","","694","","images/semantic_sequence/visiting_cities_semantic/visiting_cities_semantic_1.png","1","",""
"","","","","","image-button-response","103","524227","0.0-14.0-1.0-2.4","8EAF79BABBD84DE7B86DA1F74B05704E","8EAF79BABBD84DE7B86DA1F74B05704E","a9628565-d207-45c8-b398-b6102b497bb4","ba640c14-69c5-453e-80b2-29051492c0e0","{""num_scrambled_semantic"":""8"",""num_scrambled_causal"":""4"",""num_scrambled_schematic"":""4"",""participantId"":""8EAF79BABBD84DE7B86DA1F74B05704E"",""assignmentId"":""a9628565-d207-45c8-b398-b6102b497bb4"",""projectId"":""ba640c14-69c5-453e-80b2-29051492c0e0""}","https://test12345.live/?num_scrambled_semantic=8&num_scrambled_causal=4&num_scrambled_schematic=4&participantId=8EAF79BABBD84DE7B86DA1F74B05704E&assignmentId=a9628565-d207-45c8-b398-b6102b497bb4&projectId=ba640c14-69c5-453e-80b2-29051492c0e0","8EAF79BABBD84DE7B86DA1F74B05704E-2025-05-14-22-13-54","","null","","[]","null","",""
"","","","","","image-button-response","104","528737","0.0-14.0-1.0-0.5","8EAF79BABBD84DE7B86DA1F74B05704E","8EAF79BABBD84DE7B86DA1F74B05704E","a9628565-d207-45c8-b398-b6102b497bb4","ba640c14-69c5-453e-80b2-29051492c0e0","{""num_scrambled_semantic"":""8"",""num_scrambled_causal"":""4"",""num_scrambled_schematic"":""4"",""participantId"":""8EAF79BABBD84DE7B86DA1F74B05704E"",""assignmentId"":""a9628565-d207-45c8-b398-b6102b497bb4"",""projectId"":""ba640c14-69c5-453e-80b2-29051492c0e0""}","https://test12345.live/?num_scrambled_semantic=8&num_scrambled_causal=4&num_scrambled_schematic=4&participantId=8EAF79BABBD84DE7B86DA1F74B05704E&assignmentId=a9628565-d207-45c8-b398-b6102b497bb4&projectId=ba640c14-69c5-453e-80b2-29051492c0e0","8EAF79BABBD84DE7B86DA1F74B05704E-2025-05-14-22-13-54","","null","","images/semantic_sequence/visiting_cities_semantic/visiting_cities_semantic_6.png","null","",""
"","","","","","image-button-response","105","529308","0.0-14.0-1.0-1.5","8EAF79BABBD84DE7B86DA1F74B05704E","8EAF79BABBD84DE7B86DA1F74B05704E","a9628565-d207-45c8-b398-b6102b497bb4","ba640c14-69c5-453e-80b2-29051492c0e0","{""num_scrambled_semantic"":""8"",""num_scrambled_causal"":""4"",""num_scrambled_schematic"":""4"",""participantId"":""8EAF79BABBD84DE7B86DA1F74B05704E"",""assignmentId"":""a9628565-d207-45c8-b398-b6102b497bb4"",""projectId"":""ba640c14-69c5-453e-80b2-29051492c0e0""}","https://test12345.live/?num_scrambled_semantic=8&num_scrambled_causal=4&num_scrambled_schematic=4&participantId=8EAF79BABBD84DE7B86DA1F74B05704E&assignmentId=a9628565-d207-45c8-b398-b6102b497bb4&projectId=ba640c14-69c5-453e-80b2-29051492c0e0","8EAF79BABBD84DE7B86DA1F74B05704E-2025-05-14-22-13-54","","567","","images/semantic_sequence/visiting_cities_semantic/visiting_cities_semantic_6.png","1","",""
"","","","","","image-button-response","106","531127","0.0-14.0-1.0-2.5","8EAF79BABBD84DE7B86DA1F74B05704E","8EAF79BABBD84DE7B86DA1F74B05704E","a9628565-d207-45c8-b398-b6102b497bb4","ba640c14-69c5-453e-80b2-29051492c0e0","{""num_scrambled_semantic"":""8"",""num_scrambled_causal"":""4"",""num_scrambled_schematic"":""4"",""participantId"":""8EAF79BABBD84DE7B86DA1F74B05704E"",""assignmentId"":""a9628565-d207-45c8-b398-b6102b497bb4"",""projectId"":""ba640c14-69c5-453e-80b2-29051492c0e0""}","https://test12345.live/?num_scrambled_semantic=8&num_scrambled_causal=4&num_scrambled_schematic=4&participantId=8EAF79BABBD84DE7B86DA1F74B05704E&assignmentId=a9628565-d207-45c8-b398-b6102b497bb4&projectId=ba640c14-69c5-453e-80b2-29051492c0e0","8EAF79BABBD84DE7B86DA1F74B05704E-2025-05-14-22-13-54","","null","","[]","null","",""
"","","","","","image-button-response","107","535638","0.0-14.0-1.0-0.6","8EAF79BABBD84DE7B86DA1F74B05704E","8EAF79BABBD84DE7B86DA1F74B05704E","a9628565-d207-45c8-b398-b6102b497bb4","ba640c14-69c5-453e-80b2-29051492c0e0","{""num_scrambled_semantic"":""8"",""num_scrambled_causal"":""4"",""num_scrambled_schematic"":""4"",""participantId"":""8EAF79BABBD84DE7B86DA1F74B05704E"",""assignmentId"":""a9628565-d207-45c8-b398-b6102b497bb4"",""projectId"":""ba640c14-69c5-453e-80b2-29051492c0e0""}","https://test12345.live/?num_scrambled_semantic=8&num_scrambled_causal=4&num_scrambled_schematic=4&participantId=8EAF79BABBD84DE7B86DA1F74B05704E&assignmentId=a9628565-d207-45c8-b398-b6102b497bb4&projectId=ba640c14-69c5-453e-80b2-29051492c0e0","8EAF79BABBD84DE7B86DA1F74B05704E-2025-05-14-22-13-54","","null","","images/semantic_sequence/visiting_cities_semantic/visiting_cities_semantic_ten.png","null","",""
"","","","","","image-button-response","108","536310","0.0-14.0-1.0-1.6","8EAF79BABBD84DE7B86DA1F74B05704E","8EAF79BABBD84DE7B86DA1F74B05704E","a9628565-d207-45c8-b398-b6102b497bb4","ba640c14-69c5-453e-80b2-29051492c0e0","{""num_scrambled_semantic"":""8"",""num_scrambled_causal"":""4"",""num_scrambled_schematic"":""4"",""participantId"":""8EAF79BABBD84DE7B86DA1F74B05704E"",""assignmentId"":""a9628565-d207-45c8-b398-b6102b497bb4"",""projectId"":""ba640c14-69c5-453e-80b2-29051492c0e0""}","https://test12345.live/?num_scrambled_semantic=8&num_scrambled_causal=4&num_scrambled_schematic=4&participantId=8EAF79BABBD84DE7B86DA1F74B05704E&assignmentId=a9628565-d207-45c8-b398-b6102b497bb4&projectId=ba640c14-69c5-453e-80b2-29051492c0e0","8EAF79BABBD84DE7B86DA1F74B05704E-2025-05-14-22-13-54","","670","","images/semantic_sequence/visiting_cities_semantic/visiting_cities_semantic_ten.png","1","",""
"","","","","","image-button-response","109","538117","0.0-14.0-1.0-2.6","8EAF79BABBD84DE7B86DA1F74B05704E","8EAF79BABBD84DE7B86DA1F74B05704E","a9628565-d207-45c8-b398-b6102b497bb4","ba640c14-69c5-453e-80b2-29051492c0e0","{""num_scrambled_semantic"":""8"",""num_scrambled_causal"":""4"",""num_scrambled_schematic"":""4"",""participantId"":""8EAF79BABBD84DE7B86DA1F74B05704E"",""assignmentId"":""a9628565-d207-45c8-b398-b6102b497bb4"",""projectId"":""ba640c14-69c5-453e-80b2-29051492c0e0""}","https://test12345.live/?num_scrambled_semantic=8&num_scrambled_causal=4&num_scrambled_schematic=4&participantId=8EAF79BABBD84DE7B86DA1F74B05704E&assignmentId=a9628565-d207-45c8-b398-b6102b497bb4&projectId=ba640c14-69c5-453e-80b2-29051492c0e0","8EAF79BABBD84DE7B86DA1F74B05704E-2025-05-14-22-13-54","","null","","[]","null","",""
"","","","","","image-button-response","110","542637","0.0-14.0-1.0-0.7","8EAF79BABBD84DE7B86DA1F74B05704E","8EAF79BABBD84DE7B86DA1F74B05704E","a9628565-d207-45c8-b398-b6102b497bb4","ba640c14-69c5-453e-80b2-29051492c0e0","{""num_scrambled_semantic"":""8"",""num_scrambled_causal"":""4"",""num_scrambled_schematic"":""4"",""participantId"":""8EAF79BABBD84DE7B86DA1F74B05704E"",""assignmentId"":""a9628565-d207-45c8-b398-b6102b497bb4"",""projectId"":""ba640c14-69c5-453e-80b2-29051492c0e0""}","https://test12345.live/?num_scrambled_semantic=8&num_scrambled_causal=4&num_scrambled_schematic=4&participantId=8EAF79BABBD84DE7B86DA1F74B05704E&assignmentId=a9628565-d207-45c8-b398-b6102b497bb4&projectId=ba640c14-69c5-453e-80b2-29051492c0e0","8EAF79BABBD84DE7B86DA1F74B05704E-2025-05-14-22-13-54","","null","","images/semantic_sequence/visiting_cities_semantic/visiting_cities_semantic_5.png","null","",""
"","","","","","image-button-response","111","543276","0.0-14.0-1.0-1.7","8EAF79BABBD84DE7B86DA1F74B05704E","8EAF79BABBD84DE7B86DA1F74B05704E","a9628565-d207-45c8-b398-b6102b497bb4","ba640c14-69c5-453e-80b2-29051492c0e0","{""num_scrambled_semantic"":""8"",""num_scrambled_causal"":""4"",""num_scrambled_schematic"":""4"",""participantId"":""8EAF79BABBD84DE7B86DA1F74B05704E"",""assignmentId"":""a9628565-d207-45c8-b398-b6102b497bb4"",""projectId"":""ba640c14-69c5-453e-80b2-29051492c0e0""}","https://test12345.live/?num_scrambled_semantic=8&num_scrambled_causal=4&num_scrambled_schematic=4&participantId=8EAF79BABBD84DE7B86DA1F74B05704E&assignmentId=a9628565-d207-45c8-b398-b6102b497bb4&projectId=ba640c14-69c5-453e-80b2-29051492c0e0","8EAF79BABBD84DE7B86DA1F74B05704E-2025-05-14-22-13-54","","635","","images/semantic_sequence/visiting_cities_semantic/visiting_cities_semantic_5.png","1","",""
"","","","","","image-button-response","112","545097","0.0-14.0-1.0-2.7","8EAF79BABBD84DE7B86DA1F74B05704E","8EAF79BABBD84DE7B86DA1F74B05704E","a9628565-d207-45c8-b398-b6102b497bb4","ba640c14-69c5-453e-80b2-29051492c0e0","{""num_scrambled_semantic"":""8"",""num_scrambled_causal"":""4"",""num_scrambled_schematic"":""4"",""participantId"":""8EAF79BABBD84DE7B86DA1F74B05704E"",""assignmentId"":""a9628565-d207-45c8-b398-b6102b497bb4"",""projectId"":""ba640c14-69c5-453e-80b2-29051492c0e0""}","https://test12345.live/?num_scrambled_semantic=8&num_scrambled_causal=4&num_scrambled_schematic=4&participantId=8EAF79BABBD84DE7B86DA1F74B05704E&assignmentId=a9628565-d207-45c8-b398-b6102b497bb4&projectId=ba640c14-69c5-453e-80b2-29051492c0e0","8EAF79BABBD84DE7B86DA1F74B05704E-2025-05-14-22-13-54","","null","","[]","null","",""
"","","","","","image-button-response","113","549607","0.0-14.0-1.0-0.8","8EAF79BABBD84DE7B86DA1F74B05704E","8EAF79BABBD84DE7B86DA1F74B05704E","a9628565-d207-45c8-b398-b6102b497bb4","ba640c14-69c5-453e-80b2-29051492c0e0","{""num_scrambled_semantic"":""8"",""num_scrambled_causal"":""4"",""num_scrambled_schematic"":""4"",""participantId"":""8EAF79BABBD84DE7B86DA1F74B05704E"",""assignmentId"":""a9628565-d207-45c8-b398-b6102b497bb4"",""projectId"":""ba640c14-69c5-453e-80b2-29051492c0e0""}","https://test12345.live/?num_scrambled_semantic=8&num_scrambled_causal=4&num_scrambled_schematic=4&participantId=8EAF79BABBD84DE7B86DA1F74B05704E&assignmentId=a9628565-d207-45c8-b398-b6102b497bb4&projectId=ba640c14-69c5-453e-80b2-29051492c0e0","8EAF79BABBD84DE7B86DA1F74B05704E-2025-05-14-22-13-54","","null","","images/semantic_sequence/visiting_cities_semantic/visiting_cities_semantic_3.png","null","",""
"","","","","","image-button-response","114","550810","0.0-14.0-1.0-1.8","8EAF79BABBD84DE7B86DA1F74B05704E","8EAF79BABBD84DE7B86DA1F74B05704E","a9628565-d207-45c8-b398-b6102b497bb4","ba640c14-69c5-453e-80b2-29051492c0e0","{""num_scrambled_semantic"":""8"",""num_scrambled_causal"":""4"",""num_scrambled_schematic"":""4"",""participantId"":""8EAF79BABBD84DE7B86DA1F74B05704E"",""assignmentId"":""a9628565-d207-45c8-b398-b6102b497bb4"",""projectId"":""ba640c14-69c5-453e-80b2-29051492c0e0""}","https://test12345.live/?num_scrambled_semantic=8&num_scrambled_causal=4&num_scrambled_schematic=4&participantId=8EAF79BABBD84DE7B86DA1F74B05704E&assignmentId=a9628565-d207-45c8-b398-b6102b497bb4&projectId=ba640c14-69c5-453e-80b2-29051492c0e0","8EAF79BABBD84DE7B86DA1F74B05704E-2025-05-14-22-13-54","","1201","","images/semantic_sequence/visiting_cities_semantic/visiting_cities_semantic_3.png","1","",""
