"success","timeout","failed_images","failed_audio","failed_video","trial_type","trial_index","time_elapsed","internal_node_id","subject","subject_id","study_id","session_id","urlvar","current_url","audio_id","view_history","rt","device_id","stimulus","response","estimated_stimulus_onset","seq_name"
"true","false","[]","[]","[]","preload","0","3174","0.0-0.0","8EBBDD729C594D63B4147919248FBB9A","8EBBDD729C594D63B4147919248FBB9A","f04ddba1-c413-4f8a-950a-5744ee9fe64b","a0a8f18c-a66e-4ba7-a170-23efbdc67501","{""participantId"":""8EBBDD729C594D63B4147919248FBB9A"",""assignmentId"":""f04ddba1-c413-4f8a-950a-5744ee9fe64b"",""projectId"":""a0a8f18c-a66e-4ba7-a170-23efbdc67501""}","https://test12345.live/?participantId=8EBBDD729C594D63B4147919248FBB9A&assignmentId=f04ddba1-c413-4f8a-950a-5744ee9fe64b&projectId=a0a8f18c-a66e-4ba7-a170-23efbdc67501","8EBBDD729C594D63B4147919248FBB9A-2024-11-24-18-44-18","","","","","","",""
"","","","","","instructions","1","20959","0.0-1.0","8EBBDD729C594D63B4147919248FBB9A","8EBBDD729C594D63B4147919248FBB9A","f04ddba1-c413-4f8a-950a-5744ee9fe64b","a0a8f18c-a66e-4ba7-a170-23efbdc67501","{""participantId"":""8EBBDD729C594D63B4147919248FBB9A"",""assignmentId"":""f04ddba1-c413-4f8a-950a-5744ee9fe64b"",""projectId"":""a0a8f18c-a66e-4ba7-a170-23efbdc67501""}","https://test12345.live/?participantId=8EBBDD729C594D63B4147919248FBB9A&assignmentId=f04ddba1-c413-4f8a-950a-5744ee9fe64b&projectId=a0a8f18c-a66e-4ba7-a170-23efbdc67501","8EBBDD729C594D63B4147919248FBB9A-2024-11-24-18-44-18","[{""page_index"":0,""viewing_time"":17784}]","17784","","","","",""
"","","","","","instructions","2","39662","0.0-2.0","8EBBDD729C594D63B4147919248FBB9A","8EBBDD729C594D63B4147919248FBB9A","f04ddba1-c413-4f8a-950a-5744ee9fe64b","a0a8f18c-a66e-4ba7-a170-23efbdc67501","{""participantId"":""8EBBDD729C594D63B4147919248FBB9A"",""assignmentId"":""f04ddba1-c413-4f8a-950a-5744ee9fe64b"",""projectId"":""a0a8f18c-a66e-4ba7-a170-23efbdc67501""}","https://test12345.live/?participantId=8EBBDD729C594D63B4147919248FBB9A&assignmentId=f04ddba1-c413-4f8a-950a-5744ee9fe64b&projectId=a0a8f18c-a66e-4ba7-a170-23efbdc67501","8EBBDD729C594D63B4147919248FBB9A-2024-11-24-18-44-18","[{""page_index"":0,""viewing_time"":18703}]","18703","","","","",""
"true","","","","","fullscreen","3","42870","0.0-3.0","8EBBDD729C594D63B4147919248FBB9A","8EBBDD729C594D63B4147919248FBB9A","f04ddba1-c413-4f8a-950a-5744ee9fe64b","a0a8f18c-a66e-4ba7-a170-23efbdc67501","{""participantId"":""8EBBDD729C594D63B4147919248FBB9A"",""assignmentId"":""f04ddba1-c413-4f8a-950a-5744ee9fe64b"",""projectId"":""a0a8f18c-a66e-4ba7-a170-23efbdc67501""}","https://test12345.live/?participantId=8EBBDD729C594D63B4147919248FBB9A&assignmentId=f04ddba1-c413-4f8a-950a-5744ee9fe64b&projectId=a0a8f18c-a66e-4ba7-a170-23efbdc67501","8EBBDD729C594D63B4147919248FBB9A-2024-11-24-18-44-18","","2196","","","","",""
"","","","","","initialize-microphone","4","61912","0.0-4.0-0.0","8EBBDD729C594D63B4147919248FBB9A","8EBBDD729C594D63B4147919248FBB9A","f04ddba1-c413-4f8a-950a-5744ee9fe64b","a0a8f18c-a66e-4ba7-a170-23efbdc67501","{""participantId"":""8EBBDD729C594D63B4147919248FBB9A"",""assignmentId"":""f04ddba1-c413-4f8a-950a-5744ee9fe64b"",""projectId"":""a0a8f18c-a66e-4ba7-a170-23efbdc67501""}","https://test12345.live/?participantId=8EBBDD729C594D63B4147919248FBB9A&assignmentId=f04ddba1-c413-4f8a-950a-5744ee9fe64b&projectId=a0a8f18c-a66e-4ba7-a170-23efbdc67501","8EBBDD729C594D63B4147919248FBB9A-2024-11-24-18-44-18","","","4bb5c93b1099a67bb762e9acb120c32e1e6413e69cd88e4f64b6b929fa8c789a","","","",""
"","","","","","html-audio-response","5","71698","0.0-4.0-1.0","8EBBDD729C594D63B4147919248FBB9A","8EBBDD729C594D63B4147919248FBB9A","f04ddba1-c413-4f8a-950a-5744ee9fe64b","a0a8f18c-a66e-4ba7-a170-23efbdc67501","{""participantId"":""8EBBDD729C594D63B4147919248FBB9A"",""assignmentId"":""f04ddba1-c413-4f8a-950a-5744ee9fe64b"",""projectId"":""a0a8f18c-a66e-4ba7-a170-23efbdc67501""}","https://test12345.live/?participantId=8EBBDD729C594D63B4147919248FBB9A&assignmentId=f04ddba1-c413-4f8a-950a-5744ee9fe64b&projectId=a0a8f18c-a66e-4ba7-a170-23efbdc67501","8EBBDD729C594D63B4147919248FBB9A-2024-11-24-18-44-18","","4651","","<span style=""color: red; font-size: 24px""> NOW RECORDING</span>
        <p>Please test Microphone</p>","","10",""
"","","","","","html-button-response","6","73068","0.0-4.0-2.0","8EBBDD729C594D63B4147919248FBB9A","8EBBDD729C594D63B4147919248FBB9A","f04ddba1-c413-4f8a-950a-5744ee9fe64b","a0a8f18c-a66e-4ba7-a170-23efbdc67501","{""participantId"":""8EBBDD729C594D63B4147919248FBB9A"",""assignmentId"":""f04ddba1-c413-4f8a-950a-5744ee9fe64b"",""projectId"":""a0a8f18c-a66e-4ba7-a170-23efbdc67501""}","https://test12345.live/?participantId=8EBBDD729C594D63B4147919248FBB9A&assignmentId=f04ddba1-c413-4f8a-950a-5744ee9fe64b&projectId=a0a8f18c-a66e-4ba7-a170-23efbdc67501","8EBBDD729C594D63B4147919248FBB9A-2024-11-24-18-44-18","","1369","","<p style=""font-size:48px; color:red;"">Is Microphone OK?</p>","1","",""
"","","","","","instructions","7","81194","0.0-5.0","8EBBDD729C594D63B4147919248FBB9A","8EBBDD729C594D63B4147919248FBB9A","f04ddba1-c413-4f8a-950a-5744ee9fe64b","a0a8f18c-a66e-4ba7-a170-23efbdc67501","{""participantId"":""8EBBDD729C594D63B4147919248FBB9A"",""assignmentId"":""f04ddba1-c413-4f8a-950a-5744ee9fe64b"",""projectId"":""a0a8f18c-a66e-4ba7-a170-23efbdc67501""}","https://test12345.live/?participantId=8EBBDD729C594D63B4147919248FBB9A&assignmentId=f04ddba1-c413-4f8a-950a-5744ee9fe64b&projectId=a0a8f18c-a66e-4ba7-a170-23efbdc67501","8EBBDD729C594D63B4147919248FBB9A-2024-11-24-18-44-18","[{""page_index"":0,""viewing_time"":4701},{""page_index"":1,""viewing_time"":3425}]","8126","","","","",""
"","","","","","image-button-response","8","87199","0.0-6.0-0.0","8EBBDD729C594D63B4147919248FBB9A","8EBBDD729C594D63B4147919248FBB9A","f04ddba1-c413-4f8a-950a-5744ee9fe64b","a0a8f18c-a66e-4ba7-a170-23efbdc67501","{""participantId"":""8EBBDD729C594D63B4147919248FBB9A"",""assignmentId"":""f04ddba1-c413-4f8a-950a-5744ee9fe64b"",""projectId"":""a0a8f18c-a66e-4ba7-a170-23efbdc67501""}","https://test12345.live/?participantId=8EBBDD729C594D63B4147919248FBB9A&assignmentId=f04ddba1-c413-4f8a-950a-5744ee9fe64b&projectId=a0a8f18c-a66e-4ba7-a170-23efbdc67501","8EBBDD729C594D63B4147919248FBB9A-2024-11-24-18-44-18","","null","","images/instructions/movie_0.png","null","",""
"","","","","","image-button-response","9","91707","0.0-6.0-1.0-0.0","8EBBDD729C594D63B4147919248FBB9A","8EBBDD729C594D63B4147919248FBB9A","f04ddba1-c413-4f8a-950a-5744ee9fe64b","a0a8f18c-a66e-4ba7-a170-23efbdc67501","{""participantId"":""8EBBDD729C594D63B4147919248FBB9A"",""assignmentId"":""f04ddba1-c413-4f8a-950a-5744ee9fe64b"",""projectId"":""a0a8f18c-a66e-4ba7-a170-23efbdc67501""}","https://test12345.live/?participantId=8EBBDD729C594D63B4147919248FBB9A&assignmentId=f04ddba1-c413-4f8a-950a-5744ee9fe64b&projectId=a0a8f18c-a66e-4ba7-a170-23efbdc67501","8EBBDD729C594D63B4147919248FBB9A-2024-11-24-18-44-18","","null","","images/instructions/movie_1.png","null","",""
"","","","","","image-button-response","10","94014","0.0-6.0-1.0-1.0","8EBBDD729C594D63B4147919248FBB9A","8EBBDD729C594D63B4147919248FBB9A","f04ddba1-c413-4f8a-950a-5744ee9fe64b","a0a8f18c-a66e-4ba7-a170-23efbdc67501","{""participantId"":""8EBBDD729C594D63B4147919248FBB9A"",""assignmentId"":""f04ddba1-c413-4f8a-950a-5744ee9fe64b"",""projectId"":""a0a8f18c-a66e-4ba7-a170-23efbdc67501""}","https://test12345.live/?participantId=8EBBDD729C594D63B4147919248FBB9A&assignmentId=f04ddba1-c413-4f8a-950a-5744ee9fe64b&projectId=a0a8f18c-a66e-4ba7-a170-23efbdc67501","8EBBDD729C594D63B4147919248FBB9A-2024-11-24-18-44-18","","2306","","images/instructions/movie_1.png","0","",""
"","","","","","image-button-response","11","95827","0.0-6.0-1.0-2.0","8EBBDD729C594D63B4147919248FBB9A","8EBBDD729C594D63B4147919248FBB9A","f04ddba1-c413-4f8a-950a-5744ee9fe64b","a0a8f18c-a66e-4ba7-a170-23efbdc67501","{""participantId"":""8EBBDD729C594D63B4147919248FBB9A"",""assignmentId"":""f04ddba1-c413-4f8a-950a-5744ee9fe64b"",""projectId"":""a0a8f18c-a66e-4ba7-a170-23efbdc67501""}","https://test12345.live/?participantId=8EBBDD729C594D63B4147919248FBB9A&assignmentId=f04ddba1-c413-4f8a-950a-5744ee9fe64b&projectId=a0a8f18c-a66e-4ba7-a170-23efbdc67501","8EBBDD729C594D63B4147919248FBB9A-2024-11-24-18-44-18","","null","","[]","null","",""
"","","","","","image-button-response","12","100331","0.0-6.0-1.0-0.1","8EBBDD729C594D63B4147919248FBB9A","8EBBDD729C594D63B4147919248FBB9A","f04ddba1-c413-4f8a-950a-5744ee9fe64b","a0a8f18c-a66e-4ba7-a170-23efbdc67501","{""participantId"":""8EBBDD729C594D63B4147919248FBB9A"",""assignmentId"":""f04ddba1-c413-4f8a-950a-5744ee9fe64b"",""projectId"":""a0a8f18c-a66e-4ba7-a170-23efbdc67501""}","https://test12345.live/?participantId=8EBBDD729C594D63B4147919248FBB9A&assignmentId=f04ddba1-c413-4f8a-950a-5744ee9fe64b&projectId=a0a8f18c-a66e-4ba7-a170-23efbdc67501","8EBBDD729C594D63B4147919248FBB9A-2024-11-24-18-44-18","","null","","images/instructions/movie_2.png","null","",""
"","","","","","image-button-response","13","101206","0.0-6.0-1.0-1.1","8EBBDD729C594D63B4147919248FBB9A","8EBBDD729C594D63B4147919248FBB9A","f04ddba1-c413-4f8a-950a-5744ee9fe64b","a0a8f18c-a66e-4ba7-a170-23efbdc67501","{""participantId"":""8EBBDD729C594D63B4147919248FBB9A"",""assignmentId"":""f04ddba1-c413-4f8a-950a-5744ee9fe64b"",""projectId"":""a0a8f18c-a66e-4ba7-a170-23efbdc67501""}","https://test12345.live/?participantId=8EBBDD729C594D63B4147919248FBB9A&assignmentId=f04ddba1-c413-4f8a-950a-5744ee9fe64b&projectId=a0a8f18c-a66e-4ba7-a170-23efbdc67501","8EBBDD729C594D63B4147919248FBB9A-2024-11-24-18-44-18","","873","","images/instructions/movie_2.png","0","",""
"","","","","","image-button-response","14","103008","0.0-6.0-1.0-2.1","8EBBDD729C594D63B4147919248FBB9A","8EBBDD729C594D63B4147919248FBB9A","f04ddba1-c413-4f8a-950a-5744ee9fe64b","a0a8f18c-a66e-4ba7-a170-23efbdc67501","{""participantId"":""8EBBDD729C594D63B4147919248FBB9A"",""assignmentId"":""f04ddba1-c413-4f8a-950a-5744ee9fe64b"",""projectId"":""a0a8f18c-a66e-4ba7-a170-23efbdc67501""}","https://test12345.live/?participantId=8EBBDD729C594D63B4147919248FBB9A&assignmentId=f04ddba1-c413-4f8a-950a-5744ee9fe64b&projectId=a0a8f18c-a66e-4ba7-a170-23efbdc67501","8EBBDD729C594D63B4147919248FBB9A-2024-11-24-18-44-18","","null","","[]","null","",""
"","","","","","image-button-response","15","107523","0.0-6.0-1.0-0.2","8EBBDD729C594D63B4147919248FBB9A","8EBBDD729C594D63B4147919248FBB9A","f04ddba1-c413-4f8a-950a-5744ee9fe64b","a0a8f18c-a66e-4ba7-a170-23efbdc67501","{""participantId"":""8EBBDD729C594D63B4147919248FBB9A"",""assignmentId"":""f04ddba1-c413-4f8a-950a-5744ee9fe64b"",""projectId"":""a0a8f18c-a66e-4ba7-a170-23efbdc67501""}","https://test12345.live/?participantId=8EBBDD729C594D63B4147919248FBB9A&assignmentId=f04ddba1-c413-4f8a-950a-5744ee9fe64b&projectId=a0a8f18c-a66e-4ba7-a170-23efbdc67501","8EBBDD729C594D63B4147919248FBB9A-2024-11-24-18-44-18","","null","","images/instructions/movie_3.png","null","",""
"","","","","","image-button-response","16","108153","0.0-6.0-1.0-1.2","8EBBDD729C594D63B4147919248FBB9A","8EBBDD729C594D63B4147919248FBB9A","f04ddba1-c413-4f8a-950a-5744ee9fe64b","a0a8f18c-a66e-4ba7-a170-23efbdc67501","{""participantId"":""8EBBDD729C594D63B4147919248FBB9A"",""assignmentId"":""f04ddba1-c413-4f8a-950a-5744ee9fe64b"",""projectId"":""a0a8f18c-a66e-4ba7-a170-23efbdc67501""}","https://test12345.live/?participantId=8EBBDD729C594D63B4147919248FBB9A&assignmentId=f04ddba1-c413-4f8a-950a-5744ee9fe64b&projectId=a0a8f18c-a66e-4ba7-a170-23efbdc67501","8EBBDD729C594D63B4147919248FBB9A-2024-11-24-18-44-18","","629","","images/instructions/movie_3.png","0","",""
"","","","","","image-button-response","17","109969","0.0-6.0-1.0-2.2","8EBBDD729C594D63B4147919248FBB9A","8EBBDD729C594D63B4147919248FBB9A","f04ddba1-c413-4f8a-950a-5744ee9fe64b","a0a8f18c-a66e-4ba7-a170-23efbdc67501","{""participantId"":""8EBBDD729C594D63B4147919248FBB9A"",""assignmentId"":""f04ddba1-c413-4f8a-950a-5744ee9fe64b"",""projectId"":""a0a8f18c-a66e-4ba7-a170-23efbdc67501""}","https://test12345.live/?participantId=8EBBDD729C594D63B4147919248FBB9A&assignmentId=f04ddba1-c413-4f8a-950a-5744ee9fe64b&projectId=a0a8f18c-a66e-4ba7-a170-23efbdc67501","8EBBDD729C594D63B4147919248FBB9A-2024-11-24-18-44-18","","null","","[]","null","",""
"","","","","","image-button-response","18","114482","0.0-6.0-1.0-0.3","8EBBDD729C594D63B4147919248FBB9A","8EBBDD729C594D63B4147919248FBB9A","f04ddba1-c413-4f8a-950a-5744ee9fe64b","a0a8f18c-a66e-4ba7-a170-23efbdc67501","{""participantId"":""8EBBDD729C594D63B4147919248FBB9A"",""assignmentId"":""f04ddba1-c413-4f8a-950a-5744ee9fe64b"",""projectId"":""a0a8f18c-a66e-4ba7-a170-23efbdc67501""}","https://test12345.live/?participantId=8EBBDD729C594D63B4147919248FBB9A&assignmentId=f04ddba1-c413-4f8a-950a-5744ee9fe64b&projectId=a0a8f18c-a66e-4ba7-a170-23efbdc67501","8EBBDD729C594D63B4147919248FBB9A-2024-11-24-18-44-18","","null","","images/instructions/movie_4.png","null","",""
"","","","","","image-button-response","19","114977","0.0-6.0-1.0-1.3","8EBBDD729C594D63B4147919248FBB9A","8EBBDD729C594D63B4147919248FBB9A","f04ddba1-c413-4f8a-950a-5744ee9fe64b","a0a8f18c-a66e-4ba7-a170-23efbdc67501","{""participantId"":""8EBBDD729C594D63B4147919248FBB9A"",""assignmentId"":""f04ddba1-c413-4f8a-950a-5744ee9fe64b"",""projectId"":""a0a8f18c-a66e-4ba7-a170-23efbdc67501""}","https://test12345.live/?participantId=8EBBDD729C594D63B4147919248FBB9A&assignmentId=f04ddba1-c413-4f8a-950a-5744ee9fe64b&projectId=a0a8f18c-a66e-4ba7-a170-23efbdc67501","8EBBDD729C594D63B4147919248FBB9A-2024-11-24-18-44-18","","493","","images/instructions/movie_4.png","0","",""
"","","","","","image-button-response","20","116780","0.0-6.0-1.0-2.3","8EBBDD729C594D63B4147919248FBB9A","8EBBDD729C594D63B4147919248FBB9A","f04ddba1-c413-4f8a-950a-5744ee9fe64b","a0a8f18c-a66e-4ba7-a170-23efbdc67501","{""participantId"":""8EBBDD729C594D63B4147919248FBB9A"",""assignmentId"":""f04ddba1-c413-4f8a-950a-5744ee9fe64b"",""projectId"":""a0a8f18c-a66e-4ba7-a170-23efbdc67501""}","https://test12345.live/?participantId=8EBBDD729C594D63B4147919248FBB9A&assignmentId=f04ddba1-c413-4f8a-950a-5744ee9fe64b&projectId=a0a8f18c-a66e-4ba7-a170-23efbdc67501","8EBBDD729C594D63B4147919248FBB9A-2024-11-24-18-44-18","","null","","[]","null","",""
"","","","","","instructions","21","121517","0.0-7.0","8EBBDD729C594D63B4147919248FBB9A","8EBBDD729C594D63B4147919248FBB9A","f04ddba1-c413-4f8a-950a-5744ee9fe64b","a0a8f18c-a66e-4ba7-a170-23efbdc67501","{""participantId"":""8EBBDD729C594D63B4147919248FBB9A"",""assignmentId"":""f04ddba1-c413-4f8a-950a-5744ee9fe64b"",""projectId"":""a0a8f18c-a66e-4ba7-a170-23efbdc67501""}","https://test12345.live/?participantId=8EBBDD729C594D63B4147919248FBB9A&assignmentId=f04ddba1-c413-4f8a-950a-5744ee9fe64b&projectId=a0a8f18c-a66e-4ba7-a170-23efbdc67501","8EBBDD729C594D63B4147919248FBB9A-2024-11-24-18-44-18","[{""page_index"":0,""viewing_time"":3798},{""page_index"":1,""viewing_time"":939}]","4737","","","","",""
"","","","","","html-audio-response","22","145488","0.0-8.0","8EBBDD729C594D63B4147919248FBB9A","8EBBDD729C594D63B4147919248FBB9A","f04ddba1-c413-4f8a-950a-5744ee9fe64b","a0a8f18c-a66e-4ba7-a170-23efbdc67501","{""participantId"":""8EBBDD729C594D63B4147919248FBB9A"",""assignmentId"":""f04ddba1-c413-4f8a-950a-5744ee9fe64b"",""projectId"":""a0a8f18c-a66e-4ba7-a170-23efbdc67501""}","https://test12345.live/?participantId=8EBBDD729C594D63B4147919248FBB9A&assignmentId=f04ddba1-c413-4f8a-950a-5744ee9fe64b&projectId=a0a8f18c-a66e-4ba7-a170-23efbdc67501","8EBBDD729C594D63B4147919248FBB9A-2024-11-24-18-44-18","","14350","","[""<span style=\""color: red; font-size: 24px\""> NOW RECORDING</span><p>Please say out loud all the images you saw, as many as you can remember. The images can be said in any order.</p>""]","","2",""
"","","","","","instructions","23","146484","0.0-9.0","8EBBDD729C594D63B4147919248FBB9A","8EBBDD729C594D63B4147919248FBB9A","f04ddba1-c413-4f8a-950a-5744ee9fe64b","a0a8f18c-a66e-4ba7-a170-23efbdc67501","{""participantId"":""8EBBDD729C594D63B4147919248FBB9A"",""assignmentId"":""f04ddba1-c413-4f8a-950a-5744ee9fe64b"",""projectId"":""a0a8f18c-a66e-4ba7-a170-23efbdc67501""}","https://test12345.live/?participantId=8EBBDD729C594D63B4147919248FBB9A&assignmentId=f04ddba1-c413-4f8a-950a-5744ee9fe64b&projectId=a0a8f18c-a66e-4ba7-a170-23efbdc67501","8EBBDD729C594D63B4147919248FBB9A-2024-11-24-18-44-18","[{""page_index"":0,""viewing_time"":993}]","993","","","","",""
"","","","","","image-button-response","24","152488","0.0-10.0-0.0","8EBBDD729C594D63B4147919248FBB9A","8EBBDD729C594D63B4147919248FBB9A","f04ddba1-c413-4f8a-950a-5744ee9fe64b","a0a8f18c-a66e-4ba7-a170-23efbdc67501","{""participantId"":""8EBBDD729C594D63B4147919248FBB9A"",""assignmentId"":""f04ddba1-c413-4f8a-950a-5744ee9fe64b"",""projectId"":""a0a8f18c-a66e-4ba7-a170-23efbdc67501""}","https://test12345.live/?participantId=8EBBDD729C594D63B4147919248FBB9A&assignmentId=f04ddba1-c413-4f8a-950a-5744ee9fe64b&projectId=a0a8f18c-a66e-4ba7-a170-23efbdc67501","8EBBDD729C594D63B4147919248FBB9A-2024-11-24-18-44-18","","null","","images/causal_sequence/museum_causal/museum_causal_0.png","null","",""
"","","","","","image-button-response","25","156990","0.0-10.0-1.0-0.0","8EBBDD729C594D63B4147919248FBB9A","8EBBDD729C594D63B4147919248FBB9A","f04ddba1-c413-4f8a-950a-5744ee9fe64b","a0a8f18c-a66e-4ba7-a170-23efbdc67501","{""participantId"":""8EBBDD729C594D63B4147919248FBB9A"",""assignmentId"":""f04ddba1-c413-4f8a-950a-5744ee9fe64b"",""projectId"":""a0a8f18c-a66e-4ba7-a170-23efbdc67501""}","https://test12345.live/?participantId=8EBBDD729C594D63B4147919248FBB9A&assignmentId=f04ddba1-c413-4f8a-950a-5744ee9fe64b&projectId=a0a8f18c-a66e-4ba7-a170-23efbdc67501","8EBBDD729C594D63B4147919248FBB9A-2024-11-24-18-44-18","","null","","images/causal_sequence/museum_causal/museum_causal_1.png","null","",""
"","","","","","image-button-response","26","157708","0.0-10.0-1.0-1.0","8EBBDD729C594D63B4147919248FBB9A","8EBBDD729C594D63B4147919248FBB9A","f04ddba1-c413-4f8a-950a-5744ee9fe64b","a0a8f18c-a66e-4ba7-a170-23efbdc67501","{""participantId"":""8EBBDD729C594D63B4147919248FBB9A"",""assignmentId"":""f04ddba1-c413-4f8a-950a-5744ee9fe64b"",""projectId"":""a0a8f18c-a66e-4ba7-a170-23efbdc67501""}","https://test12345.live/?participantId=8EBBDD729C594D63B4147919248FBB9A&assignmentId=f04ddba1-c413-4f8a-950a-5744ee9fe64b&projectId=a0a8f18c-a66e-4ba7-a170-23efbdc67501","8EBBDD729C594D63B4147919248FBB9A-2024-11-24-18-44-18","","717","","images/causal_sequence/museum_causal/museum_causal_1.png","0","",""
"","","","","","image-button-response","27","159510","0.0-10.0-1.0-2.0","8EBBDD729C594D63B4147919248FBB9A","8EBBDD729C594D63B4147919248FBB9A","f04ddba1-c413-4f8a-950a-5744ee9fe64b","a0a8f18c-a66e-4ba7-a170-23efbdc67501","{""participantId"":""8EBBDD729C594D63B4147919248FBB9A"",""assignmentId"":""f04ddba1-c413-4f8a-950a-5744ee9fe64b"",""projectId"":""a0a8f18c-a66e-4ba7-a170-23efbdc67501""}","https://test12345.live/?participantId=8EBBDD729C594D63B4147919248FBB9A&assignmentId=f04ddba1-c413-4f8a-950a-5744ee9fe64b&projectId=a0a8f18c-a66e-4ba7-a170-23efbdc67501","8EBBDD729C594D63B4147919248FBB9A-2024-11-24-18-44-18","","null","","[]","null","",""
"","","","","","image-button-response","28","164011","0.0-10.0-1.0-0.1","8EBBDD729C594D63B4147919248FBB9A","8EBBDD729C594D63B4147919248FBB9A","f04ddba1-c413-4f8a-950a-5744ee9fe64b","a0a8f18c-a66e-4ba7-a170-23efbdc67501","{""participantId"":""8EBBDD729C594D63B4147919248FBB9A"",""assignmentId"":""f04ddba1-c413-4f8a-950a-5744ee9fe64b"",""projectId"":""a0a8f18c-a66e-4ba7-a170-23efbdc67501""}","https://test12345.live/?participantId=8EBBDD729C594D63B4147919248FBB9A&assignmentId=f04ddba1-c413-4f8a-950a-5744ee9fe64b&projectId=a0a8f18c-a66e-4ba7-a170-23efbdc67501","8EBBDD729C594D63B4147919248FBB9A-2024-11-24-18-44-18","","null","","images/causal_sequence/museum_causal/museum_causal_2.png","null","",""
"","","","","","image-button-response","29","165501","0.0-10.0-1.0-1.1","8EBBDD729C594D63B4147919248FBB9A","8EBBDD729C594D63B4147919248FBB9A","f04ddba1-c413-4f8a-950a-5744ee9fe64b","a0a8f18c-a66e-4ba7-a170-23efbdc67501","{""participantId"":""8EBBDD729C594D63B4147919248FBB9A"",""assignmentId"":""f04ddba1-c413-4f8a-950a-5744ee9fe64b"",""projectId"":""a0a8f18c-a66e-4ba7-a170-23efbdc67501""}","https://test12345.live/?participantId=8EBBDD729C594D63B4147919248FBB9A&assignmentId=f04ddba1-c413-4f8a-950a-5744ee9fe64b&projectId=a0a8f18c-a66e-4ba7-a170-23efbdc67501","8EBBDD729C594D63B4147919248FBB9A-2024-11-24-18-44-18","","1489","","images/causal_sequence/museum_causal/museum_causal_2.png","0","",""
"","","","","","image-button-response","30","167306","0.0-10.0-1.0-2.1","8EBBDD729C594D63B4147919248FBB9A","8EBBDD729C594D63B4147919248FBB9A","f04ddba1-c413-4f8a-950a-5744ee9fe64b","a0a8f18c-a66e-4ba7-a170-23efbdc67501","{""participantId"":""8EBBDD729C594D63B4147919248FBB9A"",""assignmentId"":""f04ddba1-c413-4f8a-950a-5744ee9fe64b"",""projectId"":""a0a8f18c-a66e-4ba7-a170-23efbdc67501""}","https://test12345.live/?participantId=8EBBDD729C594D63B4147919248FBB9A&assignmentId=f04ddba1-c413-4f8a-950a-5744ee9fe64b&projectId=a0a8f18c-a66e-4ba7-a170-23efbdc67501","8EBBDD729C594D63B4147919248FBB9A-2024-11-24-18-44-18","","null","","[]","null","",""
"","","","","","image-button-response","31","171810","0.0-10.0-1.0-0.2","8EBBDD729C594D63B4147919248FBB9A","8EBBDD729C594D63B4147919248FBB9A","f04ddba1-c413-4f8a-950a-5744ee9fe64b","a0a8f18c-a66e-4ba7-a170-23efbdc67501","{""participantId"":""8EBBDD729C594D63B4147919248FBB9A"",""assignmentId"":""f04ddba1-c413-4f8a-950a-5744ee9fe64b"",""projectId"":""a0a8f18c-a66e-4ba7-a170-23efbdc67501""}","https://test12345.live/?participantId=8EBBDD729C594D63B4147919248FBB9A&assignmentId=f04ddba1-c413-4f8a-950a-5744ee9fe64b&projectId=a0a8f18c-a66e-4ba7-a170-23efbdc67501","8EBBDD729C594D63B4147919248FBB9A-2024-11-24-18-44-18","","null","","images/causal_sequence/museum_causal/museum_causal_3.png","null","",""
"","","","","","image-button-response","32","172363","0.0-10.0-1.0-1.2","8EBBDD729C594D63B4147919248FBB9A","8EBBDD729C594D63B4147919248FBB9A","f04ddba1-c413-4f8a-950a-5744ee9fe64b","a0a8f18c-a66e-4ba7-a170-23efbdc67501","{""participantId"":""8EBBDD729C594D63B4147919248FBB9A"",""assignmentId"":""f04ddba1-c413-4f8a-950a-5744ee9fe64b"",""projectId"":""a0a8f18c-a66e-4ba7-a170-23efbdc67501""}","https://test12345.live/?participantId=8EBBDD729C594D63B4147919248FBB9A&assignmentId=f04ddba1-c413-4f8a-950a-5744ee9fe64b&projectId=a0a8f18c-a66e-4ba7-a170-23efbdc67501","8EBBDD729C594D63B4147919248FBB9A-2024-11-24-18-44-18","","552","","images/causal_sequence/museum_causal/museum_causal_3.png","0","",""
"","","","","","image-button-response","33","174173","0.0-10.0-1.0-2.2","8EBBDD729C594D63B4147919248FBB9A","8EBBDD729C594D63B4147919248FBB9A","f04ddba1-c413-4f8a-950a-5744ee9fe64b","a0a8f18c-a66e-4ba7-a170-23efbdc67501","{""participantId"":""8EBBDD729C594D63B4147919248FBB9A"",""assignmentId"":""f04ddba1-c413-4f8a-950a-5744ee9fe64b"",""projectId"":""a0a8f18c-a66e-4ba7-a170-23efbdc67501""}","https://test12345.live/?participantId=8EBBDD729C594D63B4147919248FBB9A&assignmentId=f04ddba1-c413-4f8a-950a-5744ee9fe64b&projectId=a0a8f18c-a66e-4ba7-a170-23efbdc67501","8EBBDD729C594D63B4147919248FBB9A-2024-11-24-18-44-18","","null","","[]","null","",""
"","","","","","image-button-response","34","178675","0.0-10.0-1.0-0.3","8EBBDD729C594D63B4147919248FBB9A","8EBBDD729C594D63B4147919248FBB9A","f04ddba1-c413-4f8a-950a-5744ee9fe64b","a0a8f18c-a66e-4ba7-a170-23efbdc67501","{""participantId"":""8EBBDD729C594D63B4147919248FBB9A"",""assignmentId"":""f04ddba1-c413-4f8a-950a-5744ee9fe64b"",""projectId"":""a0a8f18c-a66e-4ba7-a170-23efbdc67501""}","https://test12345.live/?participantId=8EBBDD729C594D63B4147919248FBB9A&assignmentId=f04ddba1-c413-4f8a-950a-5744ee9fe64b&projectId=a0a8f18c-a66e-4ba7-a170-23efbdc67501","8EBBDD729C594D63B4147919248FBB9A-2024-11-24-18-44-18","","null","","images/causal_sequence/museum_causal/museum_causal_4.png","null","",""
"","","","","","image-button-response","35","179184","0.0-10.0-1.0-1.3","8EBBDD729C594D63B4147919248FBB9A","8EBBDD729C594D63B4147919248FBB9A","f04ddba1-c413-4f8a-950a-5744ee9fe64b","a0a8f18c-a66e-4ba7-a170-23efbdc67501","{""participantId"":""8EBBDD729C594D63B4147919248FBB9A"",""assignmentId"":""f04ddba1-c413-4f8a-950a-5744ee9fe64b"",""projectId"":""a0a8f18c-a66e-4ba7-a170-23efbdc67501""}","https://test12345.live/?participantId=8EBBDD729C594D63B4147919248FBB9A&assignmentId=f04ddba1-c413-4f8a-950a-5744ee9fe64b&projectId=a0a8f18c-a66e-4ba7-a170-23efbdc67501","8EBBDD729C594D63B4147919248FBB9A-2024-11-24-18-44-18","","508","","images/causal_sequence/museum_causal/museum_causal_4.png","1","",""
"","","","","","image-button-response","36","180996","0.0-10.0-1.0-2.3","8EBBDD729C594D63B4147919248FBB9A","8EBBDD729C594D63B4147919248FBB9A","f04ddba1-c413-4f8a-950a-5744ee9fe64b","a0a8f18c-a66e-4ba7-a170-23efbdc67501","{""participantId"":""8EBBDD729C594D63B4147919248FBB9A"",""assignmentId"":""f04ddba1-c413-4f8a-950a-5744ee9fe64b"",""projectId"":""a0a8f18c-a66e-4ba7-a170-23efbdc67501""}","https://test12345.live/?participantId=8EBBDD729C594D63B4147919248FBB9A&assignmentId=f04ddba1-c413-4f8a-950a-5744ee9fe64b&projectId=a0a8f18c-a66e-4ba7-a170-23efbdc67501","8EBBDD729C594D63B4147919248FBB9A-2024-11-24-18-44-18","","null","","[]","null","",""
"","","","","","image-button-response","37","185501","0.0-10.0-1.0-0.4","8EBBDD729C594D63B4147919248FBB9A","8EBBDD729C594D63B4147919248FBB9A","f04ddba1-c413-4f8a-950a-5744ee9fe64b","a0a8f18c-a66e-4ba7-a170-23efbdc67501","{""participantId"":""8EBBDD729C594D63B4147919248FBB9A"",""assignmentId"":""f04ddba1-c413-4f8a-950a-5744ee9fe64b"",""projectId"":""a0a8f18c-a66e-4ba7-a170-23efbdc67501""}","https://test12345.live/?participantId=8EBBDD729C594D63B4147919248FBB9A&assignmentId=f04ddba1-c413-4f8a-950a-5744ee9fe64b&projectId=a0a8f18c-a66e-4ba7-a170-23efbdc67501","8EBBDD729C594D63B4147919248FBB9A-2024-11-24-18-44-18","","null","","images/causal_sequence/museum_causal/museum_causal_5.png","null","",""
"","","","","","image-button-response","38","186030","0.0-10.0-1.0-1.4","8EBBDD729C594D63B4147919248FBB9A","8EBBDD729C594D63B4147919248FBB9A","f04ddba1-c413-4f8a-950a-5744ee9fe64b","a0a8f18c-a66e-4ba7-a170-23efbdc67501","{""participantId"":""8EBBDD729C594D63B4147919248FBB9A"",""assignmentId"":""f04ddba1-c413-4f8a-950a-5744ee9fe64b"",""projectId"":""a0a8f18c-a66e-4ba7-a170-23efbdc67501""}","https://test12345.live/?participantId=8EBBDD729C594D63B4147919248FBB9A&assignmentId=f04ddba1-c413-4f8a-950a-5744ee9fe64b&projectId=a0a8f18c-a66e-4ba7-a170-23efbdc67501","8EBBDD729C594D63B4147919248FBB9A-2024-11-24-18-44-18","","528","","images/causal_sequence/museum_causal/museum_causal_5.png","0","",""
"","","","","","image-button-response","39","187840","0.0-10.0-1.0-2.4","8EBBDD729C594D63B4147919248FBB9A","8EBBDD729C594D63B4147919248FBB9A","f04ddba1-c413-4f8a-950a-5744ee9fe64b","a0a8f18c-a66e-4ba7-a170-23efbdc67501","{""participantId"":""8EBBDD729C594D63B4147919248FBB9A"",""assignmentId"":""f04ddba1-c413-4f8a-950a-5744ee9fe64b"",""projectId"":""a0a8f18c-a66e-4ba7-a170-23efbdc67501""}","https://test12345.live/?participantId=8EBBDD729C594D63B4147919248FBB9A&assignmentId=f04ddba1-c413-4f8a-950a-5744ee9fe64b&projectId=a0a8f18c-a66e-4ba7-a170-23efbdc67501","8EBBDD729C594D63B4147919248FBB9A-2024-11-24-18-44-18","","null","","[]","null","",""
"","","","","","image-button-response","40","192346","0.0-10.0-1.0-0.5","8EBBDD729C594D63B4147919248FBB9A","8EBBDD729C594D63B4147919248FBB9A","f04ddba1-c413-4f8a-950a-5744ee9fe64b","a0a8f18c-a66e-4ba7-a170-23efbdc67501","{""participantId"":""8EBBDD729C594D63B4147919248FBB9A"",""assignmentId"":""f04ddba1-c413-4f8a-950a-5744ee9fe64b"",""projectId"":""a0a8f18c-a66e-4ba7-a170-23efbdc67501""}","https://test12345.live/?participantId=8EBBDD729C594D63B4147919248FBB9A&assignmentId=f04ddba1-c413-4f8a-950a-5744ee9fe64b&projectId=a0a8f18c-a66e-4ba7-a170-23efbdc67501","8EBBDD729C594D63B4147919248FBB9A-2024-11-24-18-44-18","","null","","images/causal_sequence/museum_causal/museum_causal_6.png","null","",""
"","","","","","image-button-response","41","193177","0.0-10.0-1.0-1.5","8EBBDD729C594D63B4147919248FBB9A","8EBBDD729C594D63B4147919248FBB9A","f04ddba1-c413-4f8a-950a-5744ee9fe64b","a0a8f18c-a66e-4ba7-a170-23efbdc67501","{""participantId"":""8EBBDD729C594D63B4147919248FBB9A"",""assignmentId"":""f04ddba1-c413-4f8a-950a-5744ee9fe64b"",""projectId"":""a0a8f18c-a66e-4ba7-a170-23efbdc67501""}","https://test12345.live/?participantId=8EBBDD729C594D63B4147919248FBB9A&assignmentId=f04ddba1-c413-4f8a-950a-5744ee9fe64b&projectId=a0a8f18c-a66e-4ba7-a170-23efbdc67501","8EBBDD729C594D63B4147919248FBB9A-2024-11-24-18-44-18","","830","","images/causal_sequence/museum_causal/museum_causal_6.png","0","",""
"","","","","","image-button-response","42","194987","0.0-10.0-1.0-2.5","8EBBDD729C594D63B4147919248FBB9A","8EBBDD729C594D63B4147919248FBB9A","f04ddba1-c413-4f8a-950a-5744ee9fe64b","a0a8f18c-a66e-4ba7-a170-23efbdc67501","{""participantId"":""8EBBDD729C594D63B4147919248FBB9A"",""assignmentId"":""f04ddba1-c413-4f8a-950a-5744ee9fe64b"",""projectId"":""a0a8f18c-a66e-4ba7-a170-23efbdc67501""}","https://test12345.live/?participantId=8EBBDD729C594D63B4147919248FBB9A&assignmentId=f04ddba1-c413-4f8a-950a-5744ee9fe64b&projectId=a0a8f18c-a66e-4ba7-a170-23efbdc67501","8EBBDD729C594D63B4147919248FBB9A-2024-11-24-18-44-18","","null","","[]","null","",""
"","","","","","image-button-response","43","199498","0.0-10.0-1.0-0.6","8EBBDD729C594D63B4147919248FBB9A","8EBBDD729C594D63B4147919248FBB9A","f04ddba1-c413-4f8a-950a-5744ee9fe64b","a0a8f18c-a66e-4ba7-a170-23efbdc67501","{""participantId"":""8EBBDD729C594D63B4147919248FBB9A"",""assignmentId"":""f04ddba1-c413-4f8a-950a-5744ee9fe64b"",""projectId"":""a0a8f18c-a66e-4ba7-a170-23efbdc67501""}","https://test12345.live/?participantId=8EBBDD729C594D63B4147919248FBB9A&assignmentId=f04ddba1-c413-4f8a-950a-5744ee9fe64b&projectId=a0a8f18c-a66e-4ba7-a170-23efbdc67501","8EBBDD729C594D63B4147919248FBB9A-2024-11-24-18-44-18","","null","","images/causal_sequence/museum_causal/museum_causal_7.png","null","",""
"","","","","","image-button-response","44","200111","0.0-10.0-1.0-1.6","8EBBDD729C594D63B4147919248FBB9A","8EBBDD729C594D63B4147919248FBB9A","f04ddba1-c413-4f8a-950a-5744ee9fe64b","a0a8f18c-a66e-4ba7-a170-23efbdc67501","{""participantId"":""8EBBDD729C594D63B4147919248FBB9A"",""assignmentId"":""f04ddba1-c413-4f8a-950a-5744ee9fe64b"",""projectId"":""a0a8f18c-a66e-4ba7-a170-23efbdc67501""}","https://test12345.live/?participantId=8EBBDD729C594D63B4147919248FBB9A&assignmentId=f04ddba1-c413-4f8a-950a-5744ee9fe64b&projectId=a0a8f18c-a66e-4ba7-a170-23efbdc67501","8EBBDD729C594D63B4147919248FBB9A-2024-11-24-18-44-18","","612","","images/causal_sequence/museum_causal/museum_causal_7.png","1","",""
"","","","","","image-button-response","45","201920","0.0-10.0-1.0-2.6","8EBBDD729C594D63B4147919248FBB9A","8EBBDD729C594D63B4147919248FBB9A","f04ddba1-c413-4f8a-950a-5744ee9fe64b","a0a8f18c-a66e-4ba7-a170-23efbdc67501","{""participantId"":""8EBBDD729C594D63B4147919248FBB9A"",""assignmentId"":""f04ddba1-c413-4f8a-950a-5744ee9fe64b"",""projectId"":""a0a8f18c-a66e-4ba7-a170-23efbdc67501""}","https://test12345.live/?participantId=8EBBDD729C594D63B4147919248FBB9A&assignmentId=f04ddba1-c413-4f8a-950a-5744ee9fe64b&projectId=a0a8f18c-a66e-4ba7-a170-23efbdc67501","8EBBDD729C594D63B4147919248FBB9A-2024-11-24-18-44-18","","null","","[]","null","",""
"","","","","","image-button-response","46","206425","0.0-10.0-1.0-0.7","8EBBDD729C594D63B4147919248FBB9A","8EBBDD729C594D63B4147919248FBB9A","f04ddba1-c413-4f8a-950a-5744ee9fe64b","a0a8f18c-a66e-4ba7-a170-23efbdc67501","{""participantId"":""8EBBDD729C594D63B4147919248FBB9A"",""assignmentId"":""f04ddba1-c413-4f8a-950a-5744ee9fe64b"",""projectId"":""a0a8f18c-a66e-4ba7-a170-23efbdc67501""}","https://test12345.live/?participantId=8EBBDD729C594D63B4147919248FBB9A&assignmentId=f04ddba1-c413-4f8a-950a-5744ee9fe64b&projectId=a0a8f18c-a66e-4ba7-a170-23efbdc67501","8EBBDD729C594D63B4147919248FBB9A-2024-11-24-18-44-18","","null","","images/causal_sequence/museum_causal/museum_causal_8.png","null","",""
"","","","","","image-button-response","47","207224","0.0-10.0-1.0-1.7","8EBBDD729C594D63B4147919248FBB9A","8EBBDD729C594D63B4147919248FBB9A","f04ddba1-c413-4f8a-950a-5744ee9fe64b","a0a8f18c-a66e-4ba7-a170-23efbdc67501","{""participantId"":""8EBBDD729C594D63B4147919248FBB9A"",""assignmentId"":""f04ddba1-c413-4f8a-950a-5744ee9fe64b"",""projectId"":""a0a8f18c-a66e-4ba7-a170-23efbdc67501""}","https://test12345.live/?participantId=8EBBDD729C594D63B4147919248FBB9A&assignmentId=f04ddba1-c413-4f8a-950a-5744ee9fe64b&projectId=a0a8f18c-a66e-4ba7-a170-23efbdc67501","8EBBDD729C594D63B4147919248FBB9A-2024-11-24-18-44-18","","798","","images/causal_sequence/museum_causal/museum_causal_8.png","0","",""
"","","","","","image-button-response","48","209032","0.0-10.0-1.0-2.7","8EBBDD729C594D63B4147919248FBB9A","8EBBDD729C594D63B4147919248FBB9A","f04ddba1-c413-4f8a-950a-5744ee9fe64b","a0a8f18c-a66e-4ba7-a170-23efbdc67501","{""participantId"":""8EBBDD729C594D63B4147919248FBB9A"",""assignmentId"":""f04ddba1-c413-4f8a-950a-5744ee9fe64b"",""projectId"":""a0a8f18c-a66e-4ba7-a170-23efbdc67501""}","https://test12345.live/?participantId=8EBBDD729C594D63B4147919248FBB9A&assignmentId=f04ddba1-c413-4f8a-950a-5744ee9fe64b&projectId=a0a8f18c-a66e-4ba7-a170-23efbdc67501","8EBBDD729C594D63B4147919248FBB9A-2024-11-24-18-44-18","","null","","[]","null","",""
"","","","","","image-button-response","49","213542","0.0-10.0-1.0-0.8","8EBBDD729C594D63B4147919248FBB9A","8EBBDD729C594D63B4147919248FBB9A","f04ddba1-c413-4f8a-950a-5744ee9fe64b","a0a8f18c-a66e-4ba7-a170-23efbdc67501","{""participantId"":""8EBBDD729C594D63B4147919248FBB9A"",""assignmentId"":""f04ddba1-c413-4f8a-950a-5744ee9fe64b"",""projectId"":""a0a8f18c-a66e-4ba7-a170-23efbdc67501""}","https://test12345.live/?participantId=8EBBDD729C594D63B4147919248FBB9A&assignmentId=f04ddba1-c413-4f8a-950a-5744ee9fe64b&projectId=a0a8f18c-a66e-4ba7-a170-23efbdc67501","8EBBDD729C594D63B4147919248FBB9A-2024-11-24-18-44-18","","null","","images/causal_sequence/museum_causal/museum_causal_9.png","null","",""
"","","","","","image-button-response","50","214003","0.0-10.0-1.0-1.8","8EBBDD729C594D63B4147919248FBB9A","8EBBDD729C594D63B4147919248FBB9A","f04ddba1-c413-4f8a-950a-5744ee9fe64b","a0a8f18c-a66e-4ba7-a170-23efbdc67501","{""participantId"":""8EBBDD729C594D63B4147919248FBB9A"",""assignmentId"":""f04ddba1-c413-4f8a-950a-5744ee9fe64b"",""projectId"":""a0a8f18c-a66e-4ba7-a170-23efbdc67501""}","https://test12345.live/?participantId=8EBBDD729C594D63B4147919248FBB9A&assignmentId=f04ddba1-c413-4f8a-950a-5744ee9fe64b&projectId=a0a8f18c-a66e-4ba7-a170-23efbdc67501","8EBBDD729C594D63B4147919248FBB9A-2024-11-24-18-44-18","","461","","images/causal_sequence/museum_causal/museum_causal_9.png","1","",""
"","","","","","image-button-response","51","215806","0.0-10.0-1.0-2.8","8EBBDD729C594D63B4147919248FBB9A","8EBBDD729C594D63B4147919248FBB9A","f04ddba1-c413-4f8a-950a-5744ee9fe64b","a0a8f18c-a66e-4ba7-a170-23efbdc67501","{""participantId"":""8EBBDD729C594D63B4147919248FBB9A"",""assignmentId"":""f04ddba1-c413-4f8a-950a-5744ee9fe64b"",""projectId"":""a0a8f18c-a66e-4ba7-a170-23efbdc67501""}","https://test12345.live/?participantId=8EBBDD729C594D63B4147919248FBB9A&assignmentId=f04ddba1-c413-4f8a-950a-5744ee9fe64b&projectId=a0a8f18c-a66e-4ba7-a170-23efbdc67501","8EBBDD729C594D63B4147919248FBB9A-2024-11-24-18-44-18","","null","","[]","null","",""
"","","","","","image-button-response","52","220308","0.0-10.0-1.0-0.9","8EBBDD729C594D63B4147919248FBB9A","8EBBDD729C594D63B4147919248FBB9A","f04ddba1-c413-4f8a-950a-5744ee9fe64b","a0a8f18c-a66e-4ba7-a170-23efbdc67501","{""participantId"":""8EBBDD729C594D63B4147919248FBB9A"",""assignmentId"":""f04ddba1-c413-4f8a-950a-5744ee9fe64b"",""projectId"":""a0a8f18c-a66e-4ba7-a170-23efbdc67501""}","https://test12345.live/?participantId=8EBBDD729C594D63B4147919248FBB9A&assignmentId=f04ddba1-c413-4f8a-950a-5744ee9fe64b&projectId=a0a8f18c-a66e-4ba7-a170-23efbdc67501","8EBBDD729C594D63B4147919248FBB9A-2024-11-24-18-44-18","","null","","images/causal_sequence/museum_causal/museum_causal_ten.png","null","",""
"","","","","","image-button-response","53","220746","0.0-10.0-1.0-1.9","8EBBDD729C594D63B4147919248FBB9A","8EBBDD729C594D63B4147919248FBB9A","f04ddba1-c413-4f8a-950a-5744ee9fe64b","a0a8f18c-a66e-4ba7-a170-23efbdc67501","{""participantId"":""8EBBDD729C594D63B4147919248FBB9A"",""assignmentId"":""f04ddba1-c413-4f8a-950a-5744ee9fe64b"",""projectId"":""a0a8f18c-a66e-4ba7-a170-23efbdc67501""}","https://test12345.live/?participantId=8EBBDD729C594D63B4147919248FBB9A&assignmentId=f04ddba1-c413-4f8a-950a-5744ee9fe64b&projectId=a0a8f18c-a66e-4ba7-a170-23efbdc67501","8EBBDD729C594D63B4147919248FBB9A-2024-11-24-18-44-18","","438","","images/causal_sequence/museum_causal/museum_causal_ten.png","0","",""
"","","","","","image-button-response","54","222560","0.0-10.0-1.0-2.9","8EBBDD729C594D63B4147919248FBB9A","8EBBDD729C594D63B4147919248FBB9A","f04ddba1-c413-4f8a-950a-5744ee9fe64b","a0a8f18c-a66e-4ba7-a170-23efbdc67501","{""participantId"":""8EBBDD729C594D63B4147919248FBB9A"",""assignmentId"":""f04ddba1-c413-4f8a-950a-5744ee9fe64b"",""projectId"":""a0a8f18c-a66e-4ba7-a170-23efbdc67501""}","https://test12345.live/?participantId=8EBBDD729C594D63B4147919248FBB9A&assignmentId=f04ddba1-c413-4f8a-950a-5744ee9fe64b&projectId=a0a8f18c-a66e-4ba7-a170-23efbdc67501","8EBBDD729C594D63B4147919248FBB9A-2024-11-24-18-44-18","","null","","[]","null","",""
"","","","","","html-audio-response","55","270598","0.0-11.0","8EBBDD729C594D63B4147919248FBB9A","8EBBDD729C594D63B4147919248FBB9A","f04ddba1-c413-4f8a-950a-5744ee9fe64b","a0a8f18c-a66e-4ba7-a170-23efbdc67501","{""participantId"":""8EBBDD729C594D63B4147919248FBB9A"",""assignmentId"":""f04ddba1-c413-4f8a-950a-5744ee9fe64b"",""projectId"":""a0a8f18c-a66e-4ba7-a170-23efbdc67501""}","https://test12345.live/?participantId=8EBBDD729C594D63B4147919248FBB9A&assignmentId=f04ddba1-c413-4f8a-950a-5744ee9fe64b&projectId=a0a8f18c-a66e-4ba7-a170-23efbdc67501","8EBBDD729C594D63B4147919248FBB9A-2024-11-24-18-44-18","","40891","","[""<span style=\""color: red; font-size: 24px\""> NOW RECORDING</span><p>Please say out loud all the images you saw, as many as you can remember. The images can be said in any order.</p>""]","","1","museum_causal"
"","","","","","image-button-response","56","276608","0.0-12.0-0.0","8EBBDD729C594D63B4147919248FBB9A","8EBBDD729C594D63B4147919248FBB9A","f04ddba1-c413-4f8a-950a-5744ee9fe64b","a0a8f18c-a66e-4ba7-a170-23efbdc67501","{""participantId"":""8EBBDD729C594D63B4147919248FBB9A"",""assignmentId"":""f04ddba1-c413-4f8a-950a-5744ee9fe64b"",""projectId"":""a0a8f18c-a66e-4ba7-a170-23efbdc67501""}","https://test12345.live/?participantId=8EBBDD729C594D63B4147919248FBB9A&assignmentId=f04ddba1-c413-4f8a-950a-5744ee9fe64b&projectId=a0a8f18c-a66e-4ba7-a170-23efbdc67501","8EBBDD729C594D63B4147919248FBB9A-2024-11-24-18-44-18","","null","","images/schematic_sequence/restaurant_scheme/restaurant_scheme_0.png","null","",""
"","","","","","image-button-response","57","281124","0.0-12.0-1.0-0.0","8EBBDD729C594D63B4147919248FBB9A","8EBBDD729C594D63B4147919248FBB9A","f04ddba1-c413-4f8a-950a-5744ee9fe64b","a0a8f18c-a66e-4ba7-a170-23efbdc67501","{""participantId"":""8EBBDD729C594D63B4147919248FBB9A"",""assignmentId"":""f04ddba1-c413-4f8a-950a-5744ee9fe64b"",""projectId"":""a0a8f18c-a66e-4ba7-a170-23efbdc67501""}","https://test12345.live/?participantId=8EBBDD729C594D63B4147919248FBB9A&assignmentId=f04ddba1-c413-4f8a-950a-5744ee9fe64b&projectId=a0a8f18c-a66e-4ba7-a170-23efbdc67501","8EBBDD729C594D63B4147919248FBB9A-2024-11-24-18-44-18","","null","","images/schematic_sequence/restaurant_scheme/restaurant_scheme_3.png","null","",""
"","","","","","image-button-response","58","283487","0.0-12.0-1.0-1.0","8EBBDD729C594D63B4147919248FBB9A","8EBBDD729C594D63B4147919248FBB9A","f04ddba1-c413-4f8a-950a-5744ee9fe64b","a0a8f18c-a66e-4ba7-a170-23efbdc67501","{""participantId"":""8EBBDD729C594D63B4147919248FBB9A"",""assignmentId"":""f04ddba1-c413-4f8a-950a-5744ee9fe64b"",""projectId"":""a0a8f18c-a66e-4ba7-a170-23efbdc67501""}","https://test12345.live/?participantId=8EBBDD729C594D63B4147919248FBB9A&assignmentId=f04ddba1-c413-4f8a-950a-5744ee9fe64b&projectId=a0a8f18c-a66e-4ba7-a170-23efbdc67501","8EBBDD729C594D63B4147919248FBB9A-2024-11-24-18-44-18","","2363","","images/schematic_sequence/restaurant_scheme/restaurant_scheme_3.png","1","",""
"","","","","","image-button-response","59","285289","0.0-12.0-1.0-2.0","8EBBDD729C594D63B4147919248FBB9A","8EBBDD729C594D63B4147919248FBB9A","f04ddba1-c413-4f8a-950a-5744ee9fe64b","a0a8f18c-a66e-4ba7-a170-23efbdc67501","{""participantId"":""8EBBDD729C594D63B4147919248FBB9A"",""assignmentId"":""f04ddba1-c413-4f8a-950a-5744ee9fe64b"",""projectId"":""a0a8f18c-a66e-4ba7-a170-23efbdc67501""}","https://test12345.live/?participantId=8EBBDD729C594D63B4147919248FBB9A&assignmentId=f04ddba1-c413-4f8a-950a-5744ee9fe64b&projectId=a0a8f18c-a66e-4ba7-a170-23efbdc67501","8EBBDD729C594D63B4147919248FBB9A-2024-11-24-18-44-18","","null","","[]","null","",""
"","","","","","image-button-response","60","289802","0.0-12.0-1.0-0.1","8EBBDD729C594D63B4147919248FBB9A","8EBBDD729C594D63B4147919248FBB9A","f04ddba1-c413-4f8a-950a-5744ee9fe64b","a0a8f18c-a66e-4ba7-a170-23efbdc67501","{""participantId"":""8EBBDD729C594D63B4147919248FBB9A"",""assignmentId"":""f04ddba1-c413-4f8a-950a-5744ee9fe64b"",""projectId"":""a0a8f18c-a66e-4ba7-a170-23efbdc67501""}","https://test12345.live/?participantId=8EBBDD729C594D63B4147919248FBB9A&assignmentId=f04ddba1-c413-4f8a-950a-5744ee9fe64b&projectId=a0a8f18c-a66e-4ba7-a170-23efbdc67501","8EBBDD729C594D63B4147919248FBB9A-2024-11-24-18-44-18","","null","","images/schematic_sequence/restaurant_scheme/restaurant_scheme_2.png","null","",""
"","","","","","image-button-response","61","290797","0.0-12.0-1.0-1.1","8EBBDD729C594D63B4147919248FBB9A","8EBBDD729C594D63B4147919248FBB9A","f04ddba1-c413-4f8a-950a-5744ee9fe64b","a0a8f18c-a66e-4ba7-a170-23efbdc67501","{""participantId"":""8EBBDD729C594D63B4147919248FBB9A"",""assignmentId"":""f04ddba1-c413-4f8a-950a-5744ee9fe64b"",""projectId"":""a0a8f18c-a66e-4ba7-a170-23efbdc67501""}","https://test12345.live/?participantId=8EBBDD729C594D63B4147919248FBB9A&assignmentId=f04ddba1-c413-4f8a-950a-5744ee9fe64b&projectId=a0a8f18c-a66e-4ba7-a170-23efbdc67501","8EBBDD729C594D63B4147919248FBB9A-2024-11-24-18-44-18","","992","","images/schematic_sequence/restaurant_scheme/restaurant_scheme_2.png","1","",""
"","","","","","image-button-response","62","292610","0.0-12.0-1.0-2.1","8EBBDD729C594D63B4147919248FBB9A","8EBBDD729C594D63B4147919248FBB9A","f04ddba1-c413-4f8a-950a-5744ee9fe64b","a0a8f18c-a66e-4ba7-a170-23efbdc67501","{""participantId"":""8EBBDD729C594D63B4147919248FBB9A"",""assignmentId"":""f04ddba1-c413-4f8a-950a-5744ee9fe64b"",""projectId"":""a0a8f18c-a66e-4ba7-a170-23efbdc67501""}","https://test12345.live/?participantId=8EBBDD729C594D63B4147919248FBB9A&assignmentId=f04ddba1-c413-4f8a-950a-5744ee9fe64b&projectId=a0a8f18c-a66e-4ba7-a170-23efbdc67501","8EBBDD729C594D63B4147919248FBB9A-2024-11-24-18-44-18","","null","","[]","null","",""
"","","","","","image-button-response","63","297112","0.0-12.0-1.0-0.2","8EBBDD729C594D63B4147919248FBB9A","8EBBDD729C594D63B4147919248FBB9A","f04ddba1-c413-4f8a-950a-5744ee9fe64b","a0a8f18c-a66e-4ba7-a170-23efbdc67501","{""participantId"":""8EBBDD729C594D63B4147919248FBB9A"",""assignmentId"":""f04ddba1-c413-4f8a-950a-5744ee9fe64b"",""projectId"":""a0a8f18c-a66e-4ba7-a170-23efbdc67501""}","https://test12345.live/?participantId=8EBBDD729C594D63B4147919248FBB9A&assignmentId=f04ddba1-c413-4f8a-950a-5744ee9fe64b&projectId=a0a8f18c-a66e-4ba7-a170-23efbdc67501","8EBBDD729C594D63B4147919248FBB9A-2024-11-24-18-44-18","","null","","images/schematic_sequence/restaurant_scheme/restaurant_scheme_9.png","null","",""
"","","","","","image-button-response","64","297966","0.0-12.0-1.0-1.2","8EBBDD729C594D63B4147919248FBB9A","8EBBDD729C594D63B4147919248FBB9A","f04ddba1-c413-4f8a-950a-5744ee9fe64b","a0a8f18c-a66e-4ba7-a170-23efbdc67501","{""participantId"":""8EBBDD729C594D63B4147919248FBB9A"",""assignmentId"":""f04ddba1-c413-4f8a-950a-5744ee9fe64b"",""projectId"":""a0a8f18c-a66e-4ba7-a170-23efbdc67501""}","https://test12345.live/?participantId=8EBBDD729C594D63B4147919248FBB9A&assignmentId=f04ddba1-c413-4f8a-950a-5744ee9fe64b&projectId=a0a8f18c-a66e-4ba7-a170-23efbdc67501","8EBBDD729C594D63B4147919248FBB9A-2024-11-24-18-44-18","","853","","images/schematic_sequence/restaurant_scheme/restaurant_scheme_9.png","0","",""
"","","","","","image-button-response","65","299767","0.0-12.0-1.0-2.2","8EBBDD729C594D63B4147919248FBB9A","8EBBDD729C594D63B4147919248FBB9A","f04ddba1-c413-4f8a-950a-5744ee9fe64b","a0a8f18c-a66e-4ba7-a170-23efbdc67501","{""participantId"":""8EBBDD729C594D63B4147919248FBB9A"",""assignmentId"":""f04ddba1-c413-4f8a-950a-5744ee9fe64b"",""projectId"":""a0a8f18c-a66e-4ba7-a170-23efbdc67501""}","https://test12345.live/?participantId=8EBBDD729C594D63B4147919248FBB9A&assignmentId=f04ddba1-c413-4f8a-950a-5744ee9fe64b&projectId=a0a8f18c-a66e-4ba7-a170-23efbdc67501","8EBBDD729C594D63B4147919248FBB9A-2024-11-24-18-44-18","","null","","[]","null","",""
"","","","","","image-button-response","66","304271","0.0-12.0-1.0-0.3","8EBBDD729C594D63B4147919248FBB9A","8EBBDD729C594D63B4147919248FBB9A","f04ddba1-c413-4f8a-950a-5744ee9fe64b","a0a8f18c-a66e-4ba7-a170-23efbdc67501","{""participantId"":""8EBBDD729C594D63B4147919248FBB9A"",""assignmentId"":""f04ddba1-c413-4f8a-950a-5744ee9fe64b"",""projectId"":""a0a8f18c-a66e-4ba7-a170-23efbdc67501""}","https://test12345.live/?participantId=8EBBDD729C594D63B4147919248FBB9A&assignmentId=f04ddba1-c413-4f8a-950a-5744ee9fe64b&projectId=a0a8f18c-a66e-4ba7-a170-23efbdc67501","8EBBDD729C594D63B4147919248FBB9A-2024-11-24-18-44-18","","null","","images/schematic_sequence/restaurant_scheme/restaurant_scheme_6.png","null","",""
"","","","","","image-button-response","67","304847","0.0-12.0-1.0-1.3","8EBBDD729C594D63B4147919248FBB9A","8EBBDD729C594D63B4147919248FBB9A","f04ddba1-c413-4f8a-950a-5744ee9fe64b","a0a8f18c-a66e-4ba7-a170-23efbdc67501","{""participantId"":""8EBBDD729C594D63B4147919248FBB9A"",""assignmentId"":""f04ddba1-c413-4f8a-950a-5744ee9fe64b"",""projectId"":""a0a8f18c-a66e-4ba7-a170-23efbdc67501""}","https://test12345.live/?participantId=8EBBDD729C594D63B4147919248FBB9A&assignmentId=f04ddba1-c413-4f8a-950a-5744ee9fe64b&projectId=a0a8f18c-a66e-4ba7-a170-23efbdc67501","8EBBDD729C594D63B4147919248FBB9A-2024-11-24-18-44-18","","575","","images/schematic_sequence/restaurant_scheme/restaurant_scheme_6.png","1","",""
"","","","","","image-button-response","68","306649","0.0-12.0-1.0-2.3","8EBBDD729C594D63B4147919248FBB9A","8EBBDD729C594D63B4147919248FBB9A","f04ddba1-c413-4f8a-950a-5744ee9fe64b","a0a8f18c-a66e-4ba7-a170-23efbdc67501","{""participantId"":""8EBBDD729C594D63B4147919248FBB9A"",""assignmentId"":""f04ddba1-c413-4f8a-950a-5744ee9fe64b"",""projectId"":""a0a8f18c-a66e-4ba7-a170-23efbdc67501""}","https://test12345.live/?participantId=8EBBDD729C594D63B4147919248FBB9A&assignmentId=f04ddba1-c413-4f8a-950a-5744ee9fe64b&projectId=a0a8f18c-a66e-4ba7-a170-23efbdc67501","8EBBDD729C594D63B4147919248FBB9A-2024-11-24-18-44-18","","null","","[]","null","",""
"","","","","","image-button-response","69","311155","0.0-12.0-1.0-0.4","8EBBDD729C594D63B4147919248FBB9A","8EBBDD729C594D63B4147919248FBB9A","f04ddba1-c413-4f8a-950a-5744ee9fe64b","a0a8f18c-a66e-4ba7-a170-23efbdc67501","{""participantId"":""8EBBDD729C594D63B4147919248FBB9A"",""assignmentId"":""f04ddba1-c413-4f8a-950a-5744ee9fe64b"",""projectId"":""a0a8f18c-a66e-4ba7-a170-23efbdc67501""}","https://test12345.live/?participantId=8EBBDD729C594D63B4147919248FBB9A&assignmentId=f04ddba1-c413-4f8a-950a-5744ee9fe64b&projectId=a0a8f18c-a66e-4ba7-a170-23efbdc67501","8EBBDD729C594D63B4147919248FBB9A-2024-11-24-18-44-18","","null","","images/schematic_sequence/restaurant_scheme/restaurant_scheme_7.png","null","",""
"","","","","","image-button-response","70","312076","0.0-12.0-1.0-1.4","8EBBDD729C594D63B4147919248FBB9A","8EBBDD729C594D63B4147919248FBB9A","f04ddba1-c413-4f8a-950a-5744ee9fe64b","a0a8f18c-a66e-4ba7-a170-23efbdc67501","{""participantId"":""8EBBDD729C594D63B4147919248FBB9A"",""assignmentId"":""f04ddba1-c413-4f8a-950a-5744ee9fe64b"",""projectId"":""a0a8f18c-a66e-4ba7-a170-23efbdc67501""}","https://test12345.live/?participantId=8EBBDD729C594D63B4147919248FBB9A&assignmentId=f04ddba1-c413-4f8a-950a-5744ee9fe64b&projectId=a0a8f18c-a66e-4ba7-a170-23efbdc67501","8EBBDD729C594D63B4147919248FBB9A-2024-11-24-18-44-18","","919","","images/schematic_sequence/restaurant_scheme/restaurant_scheme_7.png","1","",""
"","","","","","image-button-response","71","313889","0.0-12.0-1.0-2.4","8EBBDD729C594D63B4147919248FBB9A","8EBBDD729C594D63B4147919248FBB9A","f04ddba1-c413-4f8a-950a-5744ee9fe64b","a0a8f18c-a66e-4ba7-a170-23efbdc67501","{""participantId"":""8EBBDD729C594D63B4147919248FBB9A"",""assignmentId"":""f04ddba1-c413-4f8a-950a-5744ee9fe64b"",""projectId"":""a0a8f18c-a66e-4ba7-a170-23efbdc67501""}","https://test12345.live/?participantId=8EBBDD729C594D63B4147919248FBB9A&assignmentId=f04ddba1-c413-4f8a-950a-5744ee9fe64b&projectId=a0a8f18c-a66e-4ba7-a170-23efbdc67501","8EBBDD729C594D63B4147919248FBB9A-2024-11-24-18-44-18","","null","","[]","null","",""
"","","","","","image-button-response","72","318398","0.0-12.0-1.0-0.5","8EBBDD729C594D63B4147919248FBB9A","8EBBDD729C594D63B4147919248FBB9A","f04ddba1-c413-4f8a-950a-5744ee9fe64b","a0a8f18c-a66e-4ba7-a170-23efbdc67501","{""participantId"":""8EBBDD729C594D63B4147919248FBB9A"",""assignmentId"":""f04ddba1-c413-4f8a-950a-5744ee9fe64b"",""projectId"":""a0a8f18c-a66e-4ba7-a170-23efbdc67501""}","https://test12345.live/?participantId=8EBBDD729C594D63B4147919248FBB9A&assignmentId=f04ddba1-c413-4f8a-950a-5744ee9fe64b&projectId=a0a8f18c-a66e-4ba7-a170-23efbdc67501","8EBBDD729C594D63B4147919248FBB9A-2024-11-24-18-44-18","","null","","images/schematic_sequence/restaurant_scheme/restaurant_scheme_1.png","null","",""
"","","","","","image-button-response","73","319458","0.0-12.0-1.0-1.5","8EBBDD729C594D63B4147919248FBB9A","8EBBDD729C594D63B4147919248FBB9A","f04ddba1-c413-4f8a-950a-5744ee9fe64b","a0a8f18c-a66e-4ba7-a170-23efbdc67501","{""participantId"":""8EBBDD729C594D63B4147919248FBB9A"",""assignmentId"":""f04ddba1-c413-4f8a-950a-5744ee9fe64b"",""projectId"":""a0a8f18c-a66e-4ba7-a170-23efbdc67501""}","https://test12345.live/?participantId=8EBBDD729C594D63B4147919248FBB9A&assignmentId=f04ddba1-c413-4f8a-950a-5744ee9fe64b&projectId=a0a8f18c-a66e-4ba7-a170-23efbdc67501","8EBBDD729C594D63B4147919248FBB9A-2024-11-24-18-44-18","","1060","","images/schematic_sequence/restaurant_scheme/restaurant_scheme_1.png","0","",""
"","","","","","image-button-response","74","321274","0.0-12.0-1.0-2.5","8EBBDD729C594D63B4147919248FBB9A","8EBBDD729C594D63B4147919248FBB9A","f04ddba1-c413-4f8a-950a-5744ee9fe64b","a0a8f18c-a66e-4ba7-a170-23efbdc67501","{""participantId"":""8EBBDD729C594D63B4147919248FBB9A"",""assignmentId"":""f04ddba1-c413-4f8a-950a-5744ee9fe64b"",""projectId"":""a0a8f18c-a66e-4ba7-a170-23efbdc67501""}","https://test12345.live/?participantId=8EBBDD729C594D63B4147919248FBB9A&assignmentId=f04ddba1-c413-4f8a-950a-5744ee9fe64b&projectId=a0a8f18c-a66e-4ba7-a170-23efbdc67501","8EBBDD729C594D63B4147919248FBB9A-2024-11-24-18-44-18","","null","","[]","null","",""
"","","","","","image-button-response","75","325776","0.0-12.0-1.0-0.6","8EBBDD729C594D63B4147919248FBB9A","8EBBDD729C594D63B4147919248FBB9A","f04ddba1-c413-4f8a-950a-5744ee9fe64b","a0a8f18c-a66e-4ba7-a170-23efbdc67501","{""participantId"":""8EBBDD729C594D63B4147919248FBB9A"",""assignmentId"":""f04ddba1-c413-4f8a-950a-5744ee9fe64b"",""projectId"":""a0a8f18c-a66e-4ba7-a170-23efbdc67501""}","https://test12345.live/?participantId=8EBBDD729C594D63B4147919248FBB9A&assignmentId=f04ddba1-c413-4f8a-950a-5744ee9fe64b&projectId=a0a8f18c-a66e-4ba7-a170-23efbdc67501","8EBBDD729C594D63B4147919248FBB9A-2024-11-24-18-44-18","","null","","images/schematic_sequence/restaurant_scheme/restaurant_scheme_5.png","null","",""
"","","","","","image-button-response","76","326539","0.0-12.0-1.0-1.6","8EBBDD729C594D63B4147919248FBB9A","8EBBDD729C594D63B4147919248FBB9A","f04ddba1-c413-4f8a-950a-5744ee9fe64b","a0a8f18c-a66e-4ba7-a170-23efbdc67501","{""participantId"":""8EBBDD729C594D63B4147919248FBB9A"",""assignmentId"":""f04ddba1-c413-4f8a-950a-5744ee9fe64b"",""projectId"":""a0a8f18c-a66e-4ba7-a170-23efbdc67501""}","https://test12345.live/?participantId=8EBBDD729C594D63B4147919248FBB9A&assignmentId=f04ddba1-c413-4f8a-950a-5744ee9fe64b&projectId=a0a8f18c-a66e-4ba7-a170-23efbdc67501","8EBBDD729C594D63B4147919248FBB9A-2024-11-24-18-44-18","","762","","images/schematic_sequence/restaurant_scheme/restaurant_scheme_5.png","0","",""
"","","","","","image-button-response","77","328355","0.0-12.0-1.0-2.6","8EBBDD729C594D63B4147919248FBB9A","8EBBDD729C594D63B4147919248FBB9A","f04ddba1-c413-4f8a-950a-5744ee9fe64b","a0a8f18c-a66e-4ba7-a170-23efbdc67501","{""participantId"":""8EBBDD729C594D63B4147919248FBB9A"",""assignmentId"":""f04ddba1-c413-4f8a-950a-5744ee9fe64b"",""projectId"":""a0a8f18c-a66e-4ba7-a170-23efbdc67501""}","https://test12345.live/?participantId=8EBBDD729C594D63B4147919248FBB9A&assignmentId=f04ddba1-c413-4f8a-950a-5744ee9fe64b&projectId=a0a8f18c-a66e-4ba7-a170-23efbdc67501","8EBBDD729C594D63B4147919248FBB9A-2024-11-24-18-44-18","","null","","[]","null","",""
"","","","","","image-button-response","78","332863","0.0-12.0-1.0-0.7","8EBBDD729C594D63B4147919248FBB9A","8EBBDD729C594D63B4147919248FBB9A","f04ddba1-c413-4f8a-950a-5744ee9fe64b","a0a8f18c-a66e-4ba7-a170-23efbdc67501","{""participantId"":""8EBBDD729C594D63B4147919248FBB9A"",""assignmentId"":""f04ddba1-c413-4f8a-950a-5744ee9fe64b"",""projectId"":""a0a8f18c-a66e-4ba7-a170-23efbdc67501""}","https://test12345.live/?participantId=8EBBDD729C594D63B4147919248FBB9A&assignmentId=f04ddba1-c413-4f8a-950a-5744ee9fe64b&projectId=a0a8f18c-a66e-4ba7-a170-23efbdc67501","8EBBDD729C594D63B4147919248FBB9A-2024-11-24-18-44-18","","null","","images/schematic_sequence/restaurant_scheme/restaurant_scheme_8.png","null","",""
"","","","","","image-button-response","79","333712","0.0-12.0-1.0-1.7","8EBBDD729C594D63B4147919248FBB9A","8EBBDD729C594D63B4147919248FBB9A","f04ddba1-c413-4f8a-950a-5744ee9fe64b","a0a8f18c-a66e-4ba7-a170-23efbdc67501","{""participantId"":""8EBBDD729C594D63B4147919248FBB9A"",""assignmentId"":""f04ddba1-c413-4f8a-950a-5744ee9fe64b"",""projectId"":""a0a8f18c-a66e-4ba7-a170-23efbdc67501""}","https://test12345.live/?participantId=8EBBDD729C594D63B4147919248FBB9A&assignmentId=f04ddba1-c413-4f8a-950a-5744ee9fe64b&projectId=a0a8f18c-a66e-4ba7-a170-23efbdc67501","8EBBDD729C594D63B4147919248FBB9A-2024-11-24-18-44-18","","847","","images/schematic_sequence/restaurant_scheme/restaurant_scheme_8.png","0","",""
"","","","","","image-button-response","80","335518","0.0-12.0-1.0-2.7","8EBBDD729C594D63B4147919248FBB9A","8EBBDD729C594D63B4147919248FBB9A","f04ddba1-c413-4f8a-950a-5744ee9fe64b","a0a8f18c-a66e-4ba7-a170-23efbdc67501","{""participantId"":""8EBBDD729C594D63B4147919248FBB9A"",""assignmentId"":""f04ddba1-c413-4f8a-950a-5744ee9fe64b"",""projectId"":""a0a8f18c-a66e-4ba7-a170-23efbdc67501""}","https://test12345.live/?participantId=8EBBDD729C594D63B4147919248FBB9A&assignmentId=f04ddba1-c413-4f8a-950a-5744ee9fe64b&projectId=a0a8f18c-a66e-4ba7-a170-23efbdc67501","8EBBDD729C594D63B4147919248FBB9A-2024-11-24-18-44-18","","null","","[]","null","",""
"","","","","","image-button-response","81","340019","0.0-12.0-1.0-0.8","8EBBDD729C594D63B4147919248FBB9A","8EBBDD729C594D63B4147919248FBB9A","f04ddba1-c413-4f8a-950a-5744ee9fe64b","a0a8f18c-a66e-4ba7-a170-23efbdc67501","{""participantId"":""8EBBDD729C594D63B4147919248FBB9A"",""assignmentId"":""f04ddba1-c413-4f8a-950a-5744ee9fe64b"",""projectId"":""a0a8f18c-a66e-4ba7-a170-23efbdc67501""}","https://test12345.live/?participantId=8EBBDD729C594D63B4147919248FBB9A&assignmentId=f04ddba1-c413-4f8a-950a-5744ee9fe64b&projectId=a0a8f18c-a66e-4ba7-a170-23efbdc67501","8EBBDD729C594D63B4147919248FBB9A-2024-11-24-18-44-18","","null","","images/schematic_sequence/restaurant_scheme/restaurant_scheme_4.png","null","",""
"","","","","","image-button-response","82","340450","0.0-12.0-1.0-1.8","8EBBDD729C594D63B4147919248FBB9A","8EBBDD729C594D63B4147919248FBB9A","f04ddba1-c413-4f8a-950a-5744ee9fe64b","a0a8f18c-a66e-4ba7-a170-23efbdc67501","{""participantId"":""8EBBDD729C594D63B4147919248FBB9A"",""assignmentId"":""f04ddba1-c413-4f8a-950a-5744ee9fe64b"",""projectId"":""a0a8f18c-a66e-4ba7-a170-23efbdc67501""}","https://test12345.live/?participantId=8EBBDD729C594D63B4147919248FBB9A&assignmentId=f04ddba1-c413-4f8a-950a-5744ee9fe64b&projectId=a0a8f18c-a66e-4ba7-a170-23efbdc67501","8EBBDD729C594D63B4147919248FBB9A-2024-11-24-18-44-18","","431","","images/schematic_sequence/restaurant_scheme/restaurant_scheme_4.png","0","",""
"","","","","","image-button-response","83","342263","0.0-12.0-1.0-2.8","8EBBDD729C594D63B4147919248FBB9A","8EBBDD729C594D63B4147919248FBB9A","f04ddba1-c413-4f8a-950a-5744ee9fe64b","a0a8f18c-a66e-4ba7-a170-23efbdc67501","{""participantId"":""8EBBDD729C594D63B4147919248FBB9A"",""assignmentId"":""f04ddba1-c413-4f8a-950a-5744ee9fe64b"",""projectId"":""a0a8f18c-a66e-4ba7-a170-23efbdc67501""}","https://test12345.live/?participantId=8EBBDD729C594D63B4147919248FBB9A&assignmentId=f04ddba1-c413-4f8a-950a-5744ee9fe64b&projectId=a0a8f18c-a66e-4ba7-a170-23efbdc67501","8EBBDD729C594D63B4147919248FBB9A-2024-11-24-18-44-18","","null","","[]","null","",""
"","","","","","image-button-response","84","346772","0.0-12.0-1.0-0.9","8EBBDD729C594D63B4147919248FBB9A","8EBBDD729C594D63B4147919248FBB9A","f04ddba1-c413-4f8a-950a-5744ee9fe64b","a0a8f18c-a66e-4ba7-a170-23efbdc67501","{""participantId"":""8EBBDD729C594D63B4147919248FBB9A"",""assignmentId"":""f04ddba1-c413-4f8a-950a-5744ee9fe64b"",""projectId"":""a0a8f18c-a66e-4ba7-a170-23efbdc67501""}","https://test12345.live/?participantId=8EBBDD729C594D63B4147919248FBB9A&assignmentId=f04ddba1-c413-4f8a-950a-5744ee9fe64b&projectId=a0a8f18c-a66e-4ba7-a170-23efbdc67501","8EBBDD729C594D63B4147919248FBB9A-2024-11-24-18-44-18","","null","","images/schematic_sequence/restaurant_scheme/restaurant_scheme_ten.png","null","",""
"","","","","","image-button-response","85","347423","0.0-12.0-1.0-1.9","8EBBDD729C594D63B4147919248FBB9A","8EBBDD729C594D63B4147919248FBB9A","f04ddba1-c413-4f8a-950a-5744ee9fe64b","a0a8f18c-a66e-4ba7-a170-23efbdc67501","{""participantId"":""8EBBDD729C594D63B4147919248FBB9A"",""assignmentId"":""f04ddba1-c413-4f8a-950a-5744ee9fe64b"",""projectId"":""a0a8f18c-a66e-4ba7-a170-23efbdc67501""}","https://test12345.live/?participantId=8EBBDD729C594D63B4147919248FBB9A&assignmentId=f04ddba1-c413-4f8a-950a-5744ee9fe64b&projectId=a0a8f18c-a66e-4ba7-a170-23efbdc67501","8EBBDD729C594D63B4147919248FBB9A-2024-11-24-18-44-18","","649","","images/schematic_sequence/restaurant_scheme/restaurant_scheme_ten.png","0","",""
"","","","","","image-button-response","86","349224","0.0-12.0-1.0-2.9","8EBBDD729C594D63B4147919248FBB9A","8EBBDD729C594D63B4147919248FBB9A","f04ddba1-c413-4f8a-950a-5744ee9fe64b","a0a8f18c-a66e-4ba7-a170-23efbdc67501","{""participantId"":""8EBBDD729C594D63B4147919248FBB9A"",""assignmentId"":""f04ddba1-c413-4f8a-950a-5744ee9fe64b"",""projectId"":""a0a8f18c-a66e-4ba7-a170-23efbdc67501""}","https://test12345.live/?participantId=8EBBDD729C594D63B4147919248FBB9A&assignmentId=f04ddba1-c413-4f8a-950a-5744ee9fe64b&projectId=a0a8f18c-a66e-4ba7-a170-23efbdc67501","8EBBDD729C594D63B4147919248FBB9A-2024-11-24-18-44-18","","null","","[]","null","",""
"","","","","","html-audio-response","87","392218","0.0-13.0","8EBBDD729C594D63B4147919248FBB9A","8EBBDD729C594D63B4147919248FBB9A","f04ddba1-c413-4f8a-950a-5744ee9fe64b","a0a8f18c-a66e-4ba7-a170-23efbdc67501","{""participantId"":""8EBBDD729C594D63B4147919248FBB9A"",""assignmentId"":""f04ddba1-c413-4f8a-950a-5744ee9fe64b"",""projectId"":""a0a8f18c-a66e-4ba7-a170-23efbdc67501""}","https://test12345.live/?participantId=8EBBDD729C594D63B4147919248FBB9A&assignmentId=f04ddba1-c413-4f8a-950a-5744ee9fe64b&projectId=a0a8f18c-a66e-4ba7-a170-23efbdc67501","8EBBDD729C594D63B4147919248FBB9A-2024-11-24-18-44-18","","41563","","[""<span style=\""color: red; font-size: 24px\""> NOW RECORDING</span><p>Please say out loud all the images you saw, as many as you can remember. The images can be said in any order.</p>""]","","1","restaurant_scheme"
"","","","","","image-button-response","88","398234","0.0-14.0-0.0","8EBBDD729C594D63B4147919248FBB9A","8EBBDD729C594D63B4147919248FBB9A","f04ddba1-c413-4f8a-950a-5744ee9fe64b","a0a8f18c-a66e-4ba7-a170-23efbdc67501","{""participantId"":""8EBBDD729C594D63B4147919248FBB9A"",""assignmentId"":""f04ddba1-c413-4f8a-950a-5744ee9fe64b"",""projectId"":""a0a8f18c-a66e-4ba7-a170-23efbdc67501""}","https://test12345.live/?participantId=8EBBDD729C594D63B4147919248FBB9A&assignmentId=f04ddba1-c413-4f8a-950a-5744ee9fe64b&projectId=a0a8f18c-a66e-4ba7-a170-23efbdc67501","8EBBDD729C594D63B4147919248FBB9A-2024-11-24-18-44-18","","null","","images/causal_sequence/saving_a_cat_causal/saving_a_cat_causal_0.png","null","",""
"","","","","","image-button-response","89","402739","0.0-14.0-1.0-0.0","8EBBDD729C594D63B4147919248FBB9A","8EBBDD729C594D63B4147919248FBB9A","f04ddba1-c413-4f8a-950a-5744ee9fe64b","a0a8f18c-a66e-4ba7-a170-23efbdc67501","{""participantId"":""8EBBDD729C594D63B4147919248FBB9A"",""assignmentId"":""f04ddba1-c413-4f8a-950a-5744ee9fe64b"",""projectId"":""a0a8f18c-a66e-4ba7-a170-23efbdc67501""}","https://test12345.live/?participantId=8EBBDD729C594D63B4147919248FBB9A&assignmentId=f04ddba1-c413-4f8a-950a-5744ee9fe64b&projectId=a0a8f18c-a66e-4ba7-a170-23efbdc67501","8EBBDD729C594D63B4147919248FBB9A-2024-11-24-18-44-18","","null","","images/causal_sequence/saving_a_cat_causal/saving_a_cat_causal_1.png","null","",""
"","","","","","image-button-response","90","404733","0.0-14.0-1.0-1.0","8EBBDD729C594D63B4147919248FBB9A","8EBBDD729C594D63B4147919248FBB9A","f04ddba1-c413-4f8a-950a-5744ee9fe64b","a0a8f18c-a66e-4ba7-a170-23efbdc67501","{""participantId"":""8EBBDD729C594D63B4147919248FBB9A"",""assignmentId"":""f04ddba1-c413-4f8a-950a-5744ee9fe64b"",""projectId"":""a0a8f18c-a66e-4ba7-a170-23efbdc67501""}","https://test12345.live/?participantId=8EBBDD729C594D63B4147919248FBB9A&assignmentId=f04ddba1-c413-4f8a-950a-5744ee9fe64b&projectId=a0a8f18c-a66e-4ba7-a170-23efbdc67501","8EBBDD729C594D63B4147919248FBB9A-2024-11-24-18-44-18","","1994","","images/causal_sequence/saving_a_cat_causal/saving_a_cat_causal_1.png","0","",""
"","","","","","image-button-response","91","406537","0.0-14.0-1.0-2.0","8EBBDD729C594D63B4147919248FBB9A","8EBBDD729C594D63B4147919248FBB9A","f04ddba1-c413-4f8a-950a-5744ee9fe64b","a0a8f18c-a66e-4ba7-a170-23efbdc67501","{""participantId"":""8EBBDD729C594D63B4147919248FBB9A"",""assignmentId"":""f04ddba1-c413-4f8a-950a-5744ee9fe64b"",""projectId"":""a0a8f18c-a66e-4ba7-a170-23efbdc67501""}","https://test12345.live/?participantId=8EBBDD729C594D63B4147919248FBB9A&assignmentId=f04ddba1-c413-4f8a-950a-5744ee9fe64b&projectId=a0a8f18c-a66e-4ba7-a170-23efbdc67501","8EBBDD729C594D63B4147919248FBB9A-2024-11-24-18-44-18","","null","","[]","null","",""
"","","","","","image-button-response","92","411046","0.0-14.0-1.0-0.1","8EBBDD729C594D63B4147919248FBB9A","8EBBDD729C594D63B4147919248FBB9A","f04ddba1-c413-4f8a-950a-5744ee9fe64b","a0a8f18c-a66e-4ba7-a170-23efbdc67501","{""participantId"":""8EBBDD729C594D63B4147919248FBB9A"",""assignmentId"":""f04ddba1-c413-4f8a-950a-5744ee9fe64b"",""projectId"":""a0a8f18c-a66e-4ba7-a170-23efbdc67501""}","https://test12345.live/?participantId=8EBBDD729C594D63B4147919248FBB9A&assignmentId=f04ddba1-c413-4f8a-950a-5744ee9fe64b&projectId=a0a8f18c-a66e-4ba7-a170-23efbdc67501","8EBBDD729C594D63B4147919248FBB9A-2024-11-24-18-44-18","","null","","images/causal_sequence/saving_a_cat_causal/saving_a_cat_causal_2.png","null","",""
"","","","","","image-button-response","93","411630","0.0-14.0-1.0-1.1","8EBBDD729C594D63B4147919248FBB9A","8EBBDD729C594D63B4147919248FBB9A","f04ddba1-c413-4f8a-950a-5744ee9fe64b","a0a8f18c-a66e-4ba7-a170-23efbdc67501","{""participantId"":""8EBBDD729C594D63B4147919248FBB9A"",""assignmentId"":""f04ddba1-c413-4f8a-950a-5744ee9fe64b"",""projectId"":""a0a8f18c-a66e-4ba7-a170-23efbdc67501""}","https://test12345.live/?participantId=8EBBDD729C594D63B4147919248FBB9A&assignmentId=f04ddba1-c413-4f8a-950a-5744ee9fe64b&projectId=a0a8f18c-a66e-4ba7-a170-23efbdc67501","8EBBDD729C594D63B4147919248FBB9A-2024-11-24-18-44-18","","583","","images/causal_sequence/saving_a_cat_causal/saving_a_cat_causal_2.png","1","",""
"","","","","","image-button-response","94","413433","0.0-14.0-1.0-2.1","8EBBDD729C594D63B4147919248FBB9A","8EBBDD729C594D63B4147919248FBB9A","f04ddba1-c413-4f8a-950a-5744ee9fe64b","a0a8f18c-a66e-4ba7-a170-23efbdc67501","{""participantId"":""8EBBDD729C594D63B4147919248FBB9A"",""assignmentId"":""f04ddba1-c413-4f8a-950a-5744ee9fe64b"",""projectId"":""a0a8f18c-a66e-4ba7-a170-23efbdc67501""}","https://test12345.live/?participantId=8EBBDD729C594D63B4147919248FBB9A&assignmentId=f04ddba1-c413-4f8a-950a-5744ee9fe64b&projectId=a0a8f18c-a66e-4ba7-a170-23efbdc67501","8EBBDD729C594D63B4147919248FBB9A-2024-11-24-18-44-18","","null","","[]","null","",""
"","","","","","image-button-response","95","417935","0.0-14.0-1.0-0.2","8EBBDD729C594D63B4147919248FBB9A","8EBBDD729C594D63B4147919248FBB9A","f04ddba1-c413-4f8a-950a-5744ee9fe64b","a0a8f18c-a66e-4ba7-a170-23efbdc67501","{""participantId"":""8EBBDD729C594D63B4147919248FBB9A"",""assignmentId"":""f04ddba1-c413-4f8a-950a-5744ee9fe64b"",""projectId"":""a0a8f18c-a66e-4ba7-a170-23efbdc67501""}","https://test12345.live/?participantId=8EBBDD729C594D63B4147919248FBB9A&assignmentId=f04ddba1-c413-4f8a-950a-5744ee9fe64b&projectId=a0a8f18c-a66e-4ba7-a170-23efbdc67501","8EBBDD729C594D63B4147919248FBB9A-2024-11-24-18-44-18","","null","","images/causal_sequence/saving_a_cat_causal/saving_a_cat_causal_3.png","null","",""
"","","","","","image-button-response","96","418513","0.0-14.0-1.0-1.2","8EBBDD729C594D63B4147919248FBB9A","8EBBDD729C594D63B4147919248FBB9A","f04ddba1-c413-4f8a-950a-5744ee9fe64b","a0a8f18c-a66e-4ba7-a170-23efbdc67501","{""participantId"":""8EBBDD729C594D63B4147919248FBB9A"",""assignmentId"":""f04ddba1-c413-4f8a-950a-5744ee9fe64b"",""projectId"":""a0a8f18c-a66e-4ba7-a170-23efbdc67501""}","https://test12345.live/?participantId=8EBBDD729C594D63B4147919248FBB9A&assignmentId=f04ddba1-c413-4f8a-950a-5744ee9fe64b&projectId=a0a8f18c-a66e-4ba7-a170-23efbdc67501","8EBBDD729C594D63B4147919248FBB9A-2024-11-24-18-44-18","","577","","images/causal_sequence/saving_a_cat_causal/saving_a_cat_causal_3.png","1","",""
"","","","","","image-button-response","97","420327","0.0-14.0-1.0-2.2","8EBBDD729C594D63B4147919248FBB9A","8EBBDD729C594D63B4147919248FBB9A","f04ddba1-c413-4f8a-950a-5744ee9fe64b","a0a8f18c-a66e-4ba7-a170-23efbdc67501","{""participantId"":""8EBBDD729C594D63B4147919248FBB9A"",""assignmentId"":""f04ddba1-c413-4f8a-950a-5744ee9fe64b"",""projectId"":""a0a8f18c-a66e-4ba7-a170-23efbdc67501""}","https://test12345.live/?participantId=8EBBDD729C594D63B4147919248FBB9A&assignmentId=f04ddba1-c413-4f8a-950a-5744ee9fe64b&projectId=a0a8f18c-a66e-4ba7-a170-23efbdc67501","8EBBDD729C594D63B4147919248FBB9A-2024-11-24-18-44-18","","null","","[]","null","",""
"","","","","","image-button-response","98","424836","0.0-14.0-1.0-0.3","8EBBDD729C594D63B4147919248FBB9A","8EBBDD729C594D63B4147919248FBB9A","f04ddba1-c413-4f8a-950a-5744ee9fe64b","a0a8f18c-a66e-4ba7-a170-23efbdc67501","{""participantId"":""8EBBDD729C594D63B4147919248FBB9A"",""assignmentId"":""f04ddba1-c413-4f8a-950a-5744ee9fe64b"",""projectId"":""a0a8f18c-a66e-4ba7-a170-23efbdc67501""}","https://test12345.live/?participantId=8EBBDD729C594D63B4147919248FBB9A&assignmentId=f04ddba1-c413-4f8a-950a-5744ee9fe64b&projectId=a0a8f18c-a66e-4ba7-a170-23efbdc67501","8EBBDD729C594D63B4147919248FBB9A-2024-11-24-18-44-18","","null","","images/causal_sequence/saving_a_cat_causal/saving_a_cat_causal_4.png","null","",""
"","","","","","image-button-response","99","425666","0.0-14.0-1.0-1.3","8EBBDD729C594D63B4147919248FBB9A","8EBBDD729C594D63B4147919248FBB9A","f04ddba1-c413-4f8a-950a-5744ee9fe64b","a0a8f18c-a66e-4ba7-a170-23efbdc67501","{""participantId"":""8EBBDD729C594D63B4147919248FBB9A"",""assignmentId"":""f04ddba1-c413-4f8a-950a-5744ee9fe64b"",""projectId"":""a0a8f18c-a66e-4ba7-a170-23efbdc67501""}","https://test12345.live/?participantId=8EBBDD729C594D63B4147919248FBB9A&assignmentId=f04ddba1-c413-4f8a-950a-5744ee9fe64b&projectId=a0a8f18c-a66e-4ba7-a170-23efbdc67501","8EBBDD729C594D63B4147919248FBB9A-2024-11-24-18-44-18","","829","","images/causal_sequence/saving_a_cat_causal/saving_a_cat_causal_4.png","0","",""
"","","","","","image-button-response","100","427477","0.0-14.0-1.0-2.3","8EBBDD729C594D63B4147919248FBB9A","8EBBDD729C594D63B4147919248FBB9A","f04ddba1-c413-4f8a-950a-5744ee9fe64b","a0a8f18c-a66e-4ba7-a170-23efbdc67501","{""participantId"":""8EBBDD729C594D63B4147919248FBB9A"",""assignmentId"":""f04ddba1-c413-4f8a-950a-5744ee9fe64b"",""projectId"":""a0a8f18c-a66e-4ba7-a170-23efbdc67501""}","https://test12345.live/?participantId=8EBBDD729C594D63B4147919248FBB9A&assignmentId=f04ddba1-c413-4f8a-950a-5744ee9fe64b&projectId=a0a8f18c-a66e-4ba7-a170-23efbdc67501","8EBBDD729C594D63B4147919248FBB9A-2024-11-24-18-44-18","","null","","[]","null","",""
"","","","","","image-button-response","101","431979","0.0-14.0-1.0-0.4","8EBBDD729C594D63B4147919248FBB9A","8EBBDD729C594D63B4147919248FBB9A","f04ddba1-c413-4f8a-950a-5744ee9fe64b","a0a8f18c-a66e-4ba7-a170-23efbdc67501","{""participantId"":""8EBBDD729C594D63B4147919248FBB9A"",""assignmentId"":""f04ddba1-c413-4f8a-950a-5744ee9fe64b"",""projectId"":""a0a8f18c-a66e-4ba7-a170-23efbdc67501""}","https://test12345.live/?participantId=8EBBDD729C594D63B4147919248FBB9A&assignmentId=f04ddba1-c413-4f8a-950a-5744ee9fe64b&projectId=a0a8f18c-a66e-4ba7-a170-23efbdc67501","8EBBDD729C594D63B4147919248FBB9A-2024-11-24-18-44-18","","null","","images/causal_sequence/saving_a_cat_causal/saving_a_cat_causal_5.png","null","",""
"","","","","","image-button-response","102","432525","0.0-14.0-1.0-1.4","8EBBDD729C594D63B4147919248FBB9A","8EBBDD729C594D63B4147919248FBB9A","f04ddba1-c413-4f8a-950a-5744ee9fe64b","a0a8f18c-a66e-4ba7-a170-23efbdc67501","{""participantId"":""8EBBDD729C594D63B4147919248FBB9A"",""assignmentId"":""f04ddba1-c413-4f8a-950a-5744ee9fe64b"",""projectId"":""a0a8f18c-a66e-4ba7-a170-23efbdc67501""}","https://test12345.live/?participantId=8EBBDD729C594D63B4147919248FBB9A&assignmentId=f04ddba1-c413-4f8a-950a-5744ee9fe64b&projectId=a0a8f18c-a66e-4ba7-a170-23efbdc67501","8EBBDD729C594D63B4147919248FBB9A-2024-11-24-18-44-18","","545","","images/causal_sequence/saving_a_cat_causal/saving_a_cat_causal_5.png","0","",""
"","","","","","image-button-response","103","434337","0.0-14.0-1.0-2.4","8EBBDD729C594D63B4147919248FBB9A","8EBBDD729C594D63B4147919248FBB9A","f04ddba1-c413-4f8a-950a-5744ee9fe64b","a0a8f18c-a66e-4ba7-a170-23efbdc67501","{""participantId"":""8EBBDD729C594D63B4147919248FBB9A"",""assignmentId"":""f04ddba1-c413-4f8a-950a-5744ee9fe64b"",""projectId"":""a0a8f18c-a66e-4ba7-a170-23efbdc67501""}","https://test12345.live/?participantId=8EBBDD729C594D63B4147919248FBB9A&assignmentId=f04ddba1-c413-4f8a-950a-5744ee9fe64b&projectId=a0a8f18c-a66e-4ba7-a170-23efbdc67501","8EBBDD729C594D63B4147919248FBB9A-2024-11-24-18-44-18","","null","","[]","null","",""
"","","","","","image-button-response","104","438842","0.0-14.0-1.0-0.5","8EBBDD729C594D63B4147919248FBB9A","8EBBDD729C594D63B4147919248FBB9A","f04ddba1-c413-4f8a-950a-5744ee9fe64b","a0a8f18c-a66e-4ba7-a170-23efbdc67501","{""participantId"":""8EBBDD729C594D63B4147919248FBB9A"",""assignmentId"":""f04ddba1-c413-4f8a-950a-5744ee9fe64b"",""projectId"":""a0a8f18c-a66e-4ba7-a170-23efbdc67501""}","https://test12345.live/?participantId=8EBBDD729C594D63B4147919248FBB9A&assignmentId=f04ddba1-c413-4f8a-950a-5744ee9fe64b&projectId=a0a8f18c-a66e-4ba7-a170-23efbdc67501","8EBBDD729C594D63B4147919248FBB9A-2024-11-24-18-44-18","","null","","images/causal_sequence/saving_a_cat_causal/saving_a_cat_causal_6.png","null","",""
"","","","","","image-button-response","105","440226","0.0-14.0-1.0-1.5","8EBBDD729C594D63B4147919248FBB9A","8EBBDD729C594D63B4147919248FBB9A","f04ddba1-c413-4f8a-950a-5744ee9fe64b","a0a8f18c-a66e-4ba7-a170-23efbdc67501","{""participantId"":""8EBBDD729C594D63B4147919248FBB9A"",""assignmentId"":""f04ddba1-c413-4f8a-950a-5744ee9fe64b"",""projectId"":""a0a8f18c-a66e-4ba7-a170-23efbdc67501""}","https://test12345.live/?participantId=8EBBDD729C594D63B4147919248FBB9A&assignmentId=f04ddba1-c413-4f8a-950a-5744ee9fe64b&projectId=a0a8f18c-a66e-4ba7-a170-23efbdc67501","8EBBDD729C594D63B4147919248FBB9A-2024-11-24-18-44-18","","1383","","images/causal_sequence/saving_a_cat_causal/saving_a_cat_causal_6.png","0","",""
"","","","","","image-button-response","106","442028","0.0-14.0-1.0-2.5","8EBBDD729C594D63B4147919248FBB9A","8EBBDD729C594D63B4147919248FBB9A","f04ddba1-c413-4f8a-950a-5744ee9fe64b","a0a8f18c-a66e-4ba7-a170-23efbdc67501","{""participantId"":""8EBBDD729C594D63B4147919248FBB9A"",""assignmentId"":""f04ddba1-c413-4f8a-950a-5744ee9fe64b"",""projectId"":""a0a8f18c-a66e-4ba7-a170-23efbdc67501""}","https://test12345.live/?participantId=8EBBDD729C594D63B4147919248FBB9A&assignmentId=f04ddba1-c413-4f8a-950a-5744ee9fe64b&projectId=a0a8f18c-a66e-4ba7-a170-23efbdc67501","8EBBDD729C594D63B4147919248FBB9A-2024-11-24-18-44-18","","null","","[]","null","",""
"","","","","","image-button-response","107","446535","0.0-14.0-1.0-0.6","8EBBDD729C594D63B4147919248FBB9A","8EBBDD729C594D63B4147919248FBB9A","f04ddba1-c413-4f8a-950a-5744ee9fe64b","a0a8f18c-a66e-4ba7-a170-23efbdc67501","{""participantId"":""8EBBDD729C594D63B4147919248FBB9A"",""assignmentId"":""f04ddba1-c413-4f8a-950a-5744ee9fe64b"",""projectId"":""a0a8f18c-a66e-4ba7-a170-23efbdc67501""}","https://test12345.live/?participantId=8EBBDD729C594D63B4147919248FBB9A&assignmentId=f04ddba1-c413-4f8a-950a-5744ee9fe64b&projectId=a0a8f18c-a66e-4ba7-a170-23efbdc67501","8EBBDD729C594D63B4147919248FBB9A-2024-11-24-18-44-18","","null","","images/causal_sequence/saving_a_cat_causal/saving_a_cat_causal_7.png","null","",""
"","","","","","image-button-response","108","447538","0.0-14.0-1.0-1.6","8EBBDD729C594D63B4147919248FBB9A","8EBBDD729C594D63B4147919248FBB9A","f04ddba1-c413-4f8a-950a-5744ee9fe64b","a0a8f18c-a66e-4ba7-a170-23efbdc67501","{""participantId"":""8EBBDD729C594D63B4147919248FBB9A"",""assignmentId"":""f04ddba1-c413-4f8a-950a-5744ee9fe64b"",""projectId"":""a0a8f18c-a66e-4ba7-a170-23efbdc67501""}","https://test12345.live/?participantId=8EBBDD729C594D63B4147919248FBB9A&assignmentId=f04ddba1-c413-4f8a-950a-5744ee9fe64b&projectId=a0a8f18c-a66e-4ba7-a170-23efbdc67501","8EBBDD729C594D63B4147919248FBB9A-2024-11-24-18-44-18","","1002","","images/causal_sequence/saving_a_cat_causal/saving_a_cat_causal_7.png","0","",""
"","","","","","image-button-response","109","449348","0.0-14.0-1.0-2.6","8EBBDD729C594D63B4147919248FBB9A","8EBBDD729C594D63B4147919248FBB9A","f04ddba1-c413-4f8a-950a-5744ee9fe64b","a0a8f18c-a66e-4ba7-a170-23efbdc67501","{""participantId"":""8EBBDD729C594D63B4147919248FBB9A"",""assignmentId"":""f04ddba1-c413-4f8a-950a-5744ee9fe64b"",""projectId"":""a0a8f18c-a66e-4ba7-a170-23efbdc67501""}","https://test12345.live/?participantId=8EBBDD729C594D63B4147919248FBB9A&assignmentId=f04ddba1-c413-4f8a-950a-5744ee9fe64b&projectId=a0a8f18c-a66e-4ba7-a170-23efbdc67501","8EBBDD729C594D63B4147919248FBB9A-2024-11-24-18-44-18","","null","","[]","null","",""
"","","","","","image-button-response","110","453860","0.0-14.0-1.0-0.7","8EBBDD729C594D63B4147919248FBB9A","8EBBDD729C594D63B4147919248FBB9A","f04ddba1-c413-4f8a-950a-5744ee9fe64b","a0a8f18c-a66e-4ba7-a170-23efbdc67501","{""participantId"":""8EBBDD729C594D63B4147919248FBB9A"",""assignmentId"":""f04ddba1-c413-4f8a-950a-5744ee9fe64b"",""projectId"":""a0a8f18c-a66e-4ba7-a170-23efbdc67501""}","https://test12345.live/?participantId=8EBBDD729C594D63B4147919248FBB9A&assignmentId=f04ddba1-c413-4f8a-950a-5744ee9fe64b&projectId=a0a8f18c-a66e-4ba7-a170-23efbdc67501","8EBBDD729C594D63B4147919248FBB9A-2024-11-24-18-44-18","","null","","images/causal_sequence/saving_a_cat_causal/saving_a_cat_causal_8.png","null","",""
"","","","","","image-button-response","111","454487","0.0-14.0-1.0-1.7","8EBBDD729C594D63B4147919248FBB9A","8EBBDD729C594D63B4147919248FBB9A","f04ddba1-c413-4f8a-950a-5744ee9fe64b","a0a8f18c-a66e-4ba7-a170-23efbdc67501","{""participantId"":""8EBBDD729C594D63B4147919248FBB9A"",""assignmentId"":""f04ddba1-c413-4f8a-950a-5744ee9fe64b"",""projectId"":""a0a8f18c-a66e-4ba7-a170-23efbdc67501""}","https://test12345.live/?participantId=8EBBDD729C594D63B4147919248FBB9A&assignmentId=f04ddba1-c413-4f8a-950a-5744ee9fe64b&projectId=a0a8f18c-a66e-4ba7-a170-23efbdc67501","8EBBDD729C594D63B4147919248FBB9A-2024-11-24-18-44-18","","625","","images/causal_sequence/saving_a_cat_causal/saving_a_cat_causal_8.png","0","",""
"","","","","","image-button-response","112","456300","0.0-14.0-1.0-2.7","8EBBDD729C594D63B4147919248FBB9A","8EBBDD729C594D63B4147919248FBB9A","f04ddba1-c413-4f8a-950a-5744ee9fe64b","a0a8f18c-a66e-4ba7-a170-23efbdc67501","{""participantId"":""8EBBDD729C594D63B4147919248FBB9A"",""assignmentId"":""f04ddba1-c413-4f8a-950a-5744ee9fe64b"",""projectId"":""a0a8f18c-a66e-4ba7-a170-23efbdc67501""}","https://test12345.live/?participantId=8EBBDD729C594D63B4147919248FBB9A&assignmentId=f04ddba1-c413-4f8a-950a-5744ee9fe64b&projectId=a0a8f18c-a66e-4ba7-a170-23efbdc67501","8EBBDD729C594D63B4147919248FBB9A-2024-11-24-18-44-18","","null","","[]","null","",""
"","","","","","image-button-response","113","460801","0.0-14.0-1.0-0.8","8EBBDD729C594D63B4147919248FBB9A","8EBBDD729C594D63B4147919248FBB9A","f04ddba1-c413-4f8a-950a-5744ee9fe64b","a0a8f18c-a66e-4ba7-a170-23efbdc67501","{""participantId"":""8EBBDD729C594D63B4147919248FBB9A"",""assignmentId"":""f04ddba1-c413-4f8a-950a-5744ee9fe64b"",""projectId"":""a0a8f18c-a66e-4ba7-a170-23efbdc67501""}","https://test12345.live/?participantId=8EBBDD729C594D63B4147919248FBB9A&assignmentId=f04ddba1-c413-4f8a-950a-5744ee9fe64b&projectId=a0a8f18c-a66e-4ba7-a170-23efbdc67501","8EBBDD729C594D63B4147919248FBB9A-2024-11-24-18-44-18","","null","","images/causal_sequence/saving_a_cat_causal/saving_a_cat_causal_9.png","null","",""
"","","","","","image-button-response","114","461675","0.0-14.0-1.0-1.8","8EBBDD729C594D63B4147919248FBB9A","8EBBDD729C594D63B4147919248FBB9A","f04ddba1-c413-4f8a-950a-5744ee9fe64b","a0a8f18c-a66e-4ba7-a170-23efbdc67501","{""participantId"":""8EBBDD729C594D63B4147919248FBB9A"",""assignmentId"":""f04ddba1-c413-4f8a-950a-5744ee9fe64b"",""projectId"":""a0a8f18c-a66e-4ba7-a170-23efbdc67501""}","https://test12345.live/?participantId=8EBBDD729C594D63B4147919248FBB9A&assignmentId=f04ddba1-c413-4f8a-950a-5744ee9fe64b&projectId=a0a8f18c-a66e-4ba7-a170-23efbdc67501","8EBBDD729C594D63B4147919248FBB9A-2024-11-24-18-44-18","","873","","images/causal_sequence/saving_a_cat_causal/saving_a_cat_causal_9.png","0","",""
"","","","","","image-button-response","115","463475","0.0-14.0-1.0-2.8","8EBBDD729C594D63B4147919248FBB9A","8EBBDD729C594D63B4147919248FBB9A","f04ddba1-c413-4f8a-950a-5744ee9fe64b","a0a8f18c-a66e-4ba7-a170-23efbdc67501","{""participantId"":""8EBBDD729C594D63B4147919248FBB9A"",""assignmentId"":""f04ddba1-c413-4f8a-950a-5744ee9fe64b"",""projectId"":""a0a8f18c-a66e-4ba7-a170-23efbdc67501""}","https://test12345.live/?participantId=8EBBDD729C594D63B4147919248FBB9A&assignmentId=f04ddba1-c413-4f8a-950a-5744ee9fe64b&projectId=a0a8f18c-a66e-4ba7-a170-23efbdc67501","8EBBDD729C594D63B4147919248FBB9A-2024-11-24-18-44-18","","null","","[]","null","",""
"","","","","","image-button-response","116","467985","0.0-14.0-1.0-0.9","8EBBDD729C594D63B4147919248FBB9A","8EBBDD729C594D63B4147919248FBB9A","f04ddba1-c413-4f8a-950a-5744ee9fe64b","a0a8f18c-a66e-4ba7-a170-23efbdc67501","{""participantId"":""8EBBDD729C594D63B4147919248FBB9A"",""assignmentId"":""f04ddba1-c413-4f8a-950a-5744ee9fe64b"",""projectId"":""a0a8f18c-a66e-4ba7-a170-23efbdc67501""}","https://test12345.live/?participantId=8EBBDD729C594D63B4147919248FBB9A&assignmentId=f04ddba1-c413-4f8a-950a-5744ee9fe64b&projectId=a0a8f18c-a66e-4ba7-a170-23efbdc67501","8EBBDD729C594D63B4147919248FBB9A-2024-11-24-18-44-18","","null","","images/causal_sequence/saving_a_cat_causal/saving_a_cat_causal_ten.png","null","",""
"","","","","","image-button-response","117","468471","0.0-14.0-1.0-1.9","8EBBDD729C594D63B4147919248FBB9A","8EBBDD729C594D63B4147919248FBB9A","f04ddba1-c413-4f8a-950a-5744ee9fe64b","a0a8f18c-a66e-4ba7-a170-23efbdc67501","{""participantId"":""8EBBDD729C594D63B4147919248FBB9A"",""assignmentId"":""f04ddba1-c413-4f8a-950a-5744ee9fe64b"",""projectId"":""a0a8f18c-a66e-4ba7-a170-23efbdc67501""}","https://test12345.live/?participantId=8EBBDD729C594D63B4147919248FBB9A&assignmentId=f04ddba1-c413-4f8a-950a-5744ee9fe64b&projectId=a0a8f18c-a66e-4ba7-a170-23efbdc67501","8EBBDD729C594D63B4147919248FBB9A-2024-11-24-18-44-18","","484","","images/causal_sequence/saving_a_cat_causal/saving_a_cat_causal_ten.png","0","",""
"","","","","","image-button-response","118","470284","0.0-14.0-1.0-2.9","8EBBDD729C594D63B4147919248FBB9A","8EBBDD729C594D63B4147919248FBB9A","f04ddba1-c413-4f8a-950a-5744ee9fe64b","a0a8f18c-a66e-4ba7-a170-23efbdc67501","{""participantId"":""8EBBDD729C594D63B4147919248FBB9A"",""assignmentId"":""f04ddba1-c413-4f8a-950a-5744ee9fe64b"",""projectId"":""a0a8f18c-a66e-4ba7-a170-23efbdc67501""}","https://test12345.live/?participantId=8EBBDD729C594D63B4147919248FBB9A&assignmentId=f04ddba1-c413-4f8a-950a-5744ee9fe64b&projectId=a0a8f18c-a66e-4ba7-a170-23efbdc67501","8EBBDD729C594D63B4147919248FBB9A-2024-11-24-18-44-18","","null","","[]","null","",""
"","","","","","html-audio-response","119","518527","0.0-15.0","8EBBDD729C594D63B4147919248FBB9A","8EBBDD729C594D63B4147919248FBB9A","f04ddba1-c413-4f8a-950a-5744ee9fe64b","a0a8f18c-a66e-4ba7-a170-23efbdc67501","{""participantId"":""8EBBDD729C594D63B4147919248FBB9A"",""assignmentId"":""f04ddba1-c413-4f8a-950a-5744ee9fe64b"",""projectId"":""a0a8f18c-a66e-4ba7-a170-23efbdc67501""}","https://test12345.live/?participantId=8EBBDD729C594D63B4147919248FBB9A&assignmentId=f04ddba1-c413-4f8a-950a-5744ee9fe64b&projectId=a0a8f18c-a66e-4ba7-a170-23efbdc67501","8EBBDD729C594D63B4147919248FBB9A-2024-11-24-18-44-18","","33848","","[""<span style=\""color: red; font-size: 24px\""> NOW RECORDING</span><p>Please say out loud all the images you saw, as many as you can remember. The images can be said in any order.</p>""]","","2","saving_a_cat_causal"
"","","","","","image-button-response","120","524533","0.0-16.0-0.0","8EBBDD729C594D63B4147919248FBB9A","8EBBDD729C594D63B4147919248FBB9A","f04ddba1-c413-4f8a-950a-5744ee9fe64b","a0a8f18c-a66e-4ba7-a170-23efbdc67501","{""participantId"":""8EBBDD729C594D63B4147919248FBB9A"",""assignmentId"":""f04ddba1-c413-4f8a-950a-5744ee9fe64b"",""projectId"":""a0a8f18c-a66e-4ba7-a170-23efbdc67501""}","https://test12345.live/?participantId=8EBBDD729C594D63B4147919248FBB9A&assignmentId=f04ddba1-c413-4f8a-950a-5744ee9fe64b&projectId=a0a8f18c-a66e-4ba7-a170-23efbdc67501","8EBBDD729C594D63B4147919248FBB9A-2024-11-24-18-44-18","","null","","images/schematic_sequence/flight_scheme/flight_scheme_0.png","null","",""
"","","","","","image-button-response","121","529042","0.0-16.0-1.0-0.0","8EBBDD729C594D63B4147919248FBB9A","8EBBDD729C594D63B4147919248FBB9A","f04ddba1-c413-4f8a-950a-5744ee9fe64b","a0a8f18c-a66e-4ba7-a170-23efbdc67501","{""participantId"":""8EBBDD729C594D63B4147919248FBB9A"",""assignmentId"":""f04ddba1-c413-4f8a-950a-5744ee9fe64b"",""projectId"":""a0a8f18c-a66e-4ba7-a170-23efbdc67501""}","https://test12345.live/?participantId=8EBBDD729C594D63B4147919248FBB9A&assignmentId=f04ddba1-c413-4f8a-950a-5744ee9fe64b&projectId=a0a8f18c-a66e-4ba7-a170-23efbdc67501","8EBBDD729C594D63B4147919248FBB9A-2024-11-24-18-44-18","","null","","images/schematic_sequence/flight_scheme/flight_scheme_1.png","null","",""
"","","","","","image-button-response","122","531172","0.0-16.0-1.0-1.0","8EBBDD729C594D63B4147919248FBB9A","8EBBDD729C594D63B4147919248FBB9A","f04ddba1-c413-4f8a-950a-5744ee9fe64b","a0a8f18c-a66e-4ba7-a170-23efbdc67501","{""participantId"":""8EBBDD729C594D63B4147919248FBB9A"",""assignmentId"":""f04ddba1-c413-4f8a-950a-5744ee9fe64b"",""projectId"":""a0a8f18c-a66e-4ba7-a170-23efbdc67501""}","https://test12345.live/?participantId=8EBBDD729C594D63B4147919248FBB9A&assignmentId=f04ddba1-c413-4f8a-950a-5744ee9fe64b&projectId=a0a8f18c-a66e-4ba7-a170-23efbdc67501","8EBBDD729C594D63B4147919248FBB9A-2024-11-24-18-44-18","","2129","","images/schematic_sequence/flight_scheme/flight_scheme_1.png","0","",""
"","","","","","image-button-response","123","532973","0.0-16.0-1.0-2.0","8EBBDD729C594D63B4147919248FBB9A","8EBBDD729C594D63B4147919248FBB9A","f04ddba1-c413-4f8a-950a-5744ee9fe64b","a0a8f18c-a66e-4ba7-a170-23efbdc67501","{""participantId"":""8EBBDD729C594D63B4147919248FBB9A"",""assignmentId"":""f04ddba1-c413-4f8a-950a-5744ee9fe64b"",""projectId"":""a0a8f18c-a66e-4ba7-a170-23efbdc67501""}","https://test12345.live/?participantId=8EBBDD729C594D63B4147919248FBB9A&assignmentId=f04ddba1-c413-4f8a-950a-5744ee9fe64b&projectId=a0a8f18c-a66e-4ba7-a170-23efbdc67501","8EBBDD729C594D63B4147919248FBB9A-2024-11-24-18-44-18","","null","","[]","null","",""
"","","","","","image-button-response","124","537485","0.0-16.0-1.0-0.1","8EBBDD729C594D63B4147919248FBB9A","8EBBDD729C594D63B4147919248FBB9A","f04ddba1-c413-4f8a-950a-5744ee9fe64b","a0a8f18c-a66e-4ba7-a170-23efbdc67501","{""participantId"":""8EBBDD729C594D63B4147919248FBB9A"",""assignmentId"":""f04ddba1-c413-4f8a-950a-5744ee9fe64b"",""projectId"":""a0a8f18c-a66e-4ba7-a170-23efbdc67501""}","https://test12345.live/?participantId=8EBBDD729C594D63B4147919248FBB9A&assignmentId=f04ddba1-c413-4f8a-950a-5744ee9fe64b&projectId=a0a8f18c-a66e-4ba7-a170-23efbdc67501","8EBBDD729C594D63B4147919248FBB9A-2024-11-24-18-44-18","","null","","images/schematic_sequence/flight_scheme/flight_scheme_2.png","null","",""
"","","","","","image-button-response","125","537975","0.0-16.0-1.0-1.1","8EBBDD729C594D63B4147919248FBB9A","8EBBDD729C594D63B4147919248FBB9A","f04ddba1-c413-4f8a-950a-5744ee9fe64b","a0a8f18c-a66e-4ba7-a170-23efbdc67501","{""participantId"":""8EBBDD729C594D63B4147919248FBB9A"",""assignmentId"":""f04ddba1-c413-4f8a-950a-5744ee9fe64b"",""projectId"":""a0a8f18c-a66e-4ba7-a170-23efbdc67501""}","https://test12345.live/?participantId=8EBBDD729C594D63B4147919248FBB9A&assignmentId=f04ddba1-c413-4f8a-950a-5744ee9fe64b&projectId=a0a8f18c-a66e-4ba7-a170-23efbdc67501","8EBBDD729C594D63B4147919248FBB9A-2024-11-24-18-44-18","","489","","images/schematic_sequence/flight_scheme/flight_scheme_2.png","1","",""
"","","","","","image-button-response","126","539786","0.0-16.0-1.0-2.1","8EBBDD729C594D63B4147919248FBB9A","8EBBDD729C594D63B4147919248FBB9A","f04ddba1-c413-4f8a-950a-5744ee9fe64b","a0a8f18c-a66e-4ba7-a170-23efbdc67501","{""participantId"":""8EBBDD729C594D63B4147919248FBB9A"",""assignmentId"":""f04ddba1-c413-4f8a-950a-5744ee9fe64b"",""projectId"":""a0a8f18c-a66e-4ba7-a170-23efbdc67501""}","https://test12345.live/?participantId=8EBBDD729C594D63B4147919248FBB9A&assignmentId=f04ddba1-c413-4f8a-950a-5744ee9fe64b&projectId=a0a8f18c-a66e-4ba7-a170-23efbdc67501","8EBBDD729C594D63B4147919248FBB9A-2024-11-24-18-44-18","","null","","[]","null","",""
"","","","","","image-button-response","127","544292","0.0-16.0-1.0-0.2","8EBBDD729C594D63B4147919248FBB9A","8EBBDD729C594D63B4147919248FBB9A","f04ddba1-c413-4f8a-950a-5744ee9fe64b","a0a8f18c-a66e-4ba7-a170-23efbdc67501","{""participantId"":""8EBBDD729C594D63B4147919248FBB9A"",""assignmentId"":""f04ddba1-c413-4f8a-950a-5744ee9fe64b"",""projectId"":""a0a8f18c-a66e-4ba7-a170-23efbdc67501""}","https://test12345.live/?participantId=8EBBDD729C594D63B4147919248FBB9A&assignmentId=f04ddba1-c413-4f8a-950a-5744ee9fe64b&projectId=a0a8f18c-a66e-4ba7-a170-23efbdc67501","8EBBDD729C594D63B4147919248FBB9A-2024-11-24-18-44-18","","null","","images/schematic_sequence/flight_scheme/flight_scheme_3.png","null","",""
"","","","","","image-button-response","128","544935","0.0-16.0-1.0-1.2","8EBBDD729C594D63B4147919248FBB9A","8EBBDD729C594D63B4147919248FBB9A","f04ddba1-c413-4f8a-950a-5744ee9fe64b","a0a8f18c-a66e-4ba7-a170-23efbdc67501","{""participantId"":""8EBBDD729C594D63B4147919248FBB9A"",""assignmentId"":""f04ddba1-c413-4f8a-950a-5744ee9fe64b"",""projectId"":""a0a8f18c-a66e-4ba7-a170-23efbdc67501""}","https://test12345.live/?participantId=8EBBDD729C594D63B4147919248FBB9A&assignmentId=f04ddba1-c413-4f8a-950a-5744ee9fe64b&projectId=a0a8f18c-a66e-4ba7-a170-23efbdc67501","8EBBDD729C594D63B4147919248FBB9A-2024-11-24-18-44-18","","641","","images/schematic_sequence/flight_scheme/flight_scheme_3.png","0","",""
"","","","","","image-button-response","129","546741","0.0-16.0-1.0-2.2","8EBBDD729C594D63B4147919248FBB9A","8EBBDD729C594D63B4147919248FBB9A","f04ddba1-c413-4f8a-950a-5744ee9fe64b","a0a8f18c-a66e-4ba7-a170-23efbdc67501","{""participantId"":""8EBBDD729C594D63B4147919248FBB9A"",""assignmentId"":""f04ddba1-c413-4f8a-950a-5744ee9fe64b"",""projectId"":""a0a8f18c-a66e-4ba7-a170-23efbdc67501""}","https://test12345.live/?participantId=8EBBDD729C594D63B4147919248FBB9A&assignmentId=f04ddba1-c413-4f8a-950a-5744ee9fe64b&projectId=a0a8f18c-a66e-4ba7-a170-23efbdc67501","8EBBDD729C594D63B4147919248FBB9A-2024-11-24-18-44-18","","null","","[]","null","",""
"","","","","","image-button-response","130","551242","0.0-16.0-1.0-0.3","8EBBDD729C594D63B4147919248FBB9A","8EBBDD729C594D63B4147919248FBB9A","f04ddba1-c413-4f8a-950a-5744ee9fe64b","a0a8f18c-a66e-4ba7-a170-23efbdc67501","{""participantId"":""8EBBDD729C594D63B4147919248FBB9A"",""assignmentId"":""f04ddba1-c413-4f8a-950a-5744ee9fe64b"",""projectId"":""a0a8f18c-a66e-4ba7-a170-23efbdc67501""}","https://test12345.live/?participantId=8EBBDD729C594D63B4147919248FBB9A&assignmentId=f04ddba1-c413-4f8a-950a-5744ee9fe64b&projectId=a0a8f18c-a66e-4ba7-a170-23efbdc67501","8EBBDD729C594D63B4147919248FBB9A-2024-11-24-18-44-18","","null","","images/schematic_sequence/flight_scheme/flight_scheme_4.png","null","",""
"","","","","","image-button-response","131","551883","0.0-16.0-1.0-1.3","8EBBDD729C594D63B4147919248FBB9A","8EBBDD729C594D63B4147919248FBB9A","f04ddba1-c413-4f8a-950a-5744ee9fe64b","a0a8f18c-a66e-4ba7-a170-23efbdc67501","{""participantId"":""8EBBDD729C594D63B4147919248FBB9A"",""assignmentId"":""f04ddba1-c413-4f8a-950a-5744ee9fe64b"",""projectId"":""a0a8f18c-a66e-4ba7-a170-23efbdc67501""}","https://test12345.live/?participantId=8EBBDD729C594D63B4147919248FBB9A&assignmentId=f04ddba1-c413-4f8a-950a-5744ee9fe64b&projectId=a0a8f18c-a66e-4ba7-a170-23efbdc67501","8EBBDD729C594D63B4147919248FBB9A-2024-11-24-18-44-18","","640","","images/schematic_sequence/flight_scheme/flight_scheme_4.png","0","",""
"","","","","","image-button-response","132","553685","0.0-16.0-1.0-2.3","8EBBDD729C594D63B4147919248FBB9A","8EBBDD729C594D63B4147919248FBB9A","f04ddba1-c413-4f8a-950a-5744ee9fe64b","a0a8f18c-a66e-4ba7-a170-23efbdc67501","{""participantId"":""8EBBDD729C594D63B4147919248FBB9A"",""assignmentId"":""f04ddba1-c413-4f8a-950a-5744ee9fe64b"",""projectId"":""a0a8f18c-a66e-4ba7-a170-23efbdc67501""}","https://test12345.live/?participantId=8EBBDD729C594D63B4147919248FBB9A&assignmentId=f04ddba1-c413-4f8a-950a-5744ee9fe64b&projectId=a0a8f18c-a66e-4ba7-a170-23efbdc67501","8EBBDD729C594D63B4147919248FBB9A-2024-11-24-18-44-18","","null","","[]","null","",""
"","","","","","image-button-response","133","558199","0.0-16.0-1.0-0.4","8EBBDD729C594D63B4147919248FBB9A","8EBBDD729C594D63B4147919248FBB9A","f04ddba1-c413-4f8a-950a-5744ee9fe64b","a0a8f18c-a66e-4ba7-a170-23efbdc67501","{""participantId"":""8EBBDD729C594D63B4147919248FBB9A"",""assignmentId"":""f04ddba1-c413-4f8a-950a-5744ee9fe64b"",""projectId"":""a0a8f18c-a66e-4ba7-a170-23efbdc67501""}","https://test12345.live/?participantId=8EBBDD729C594D63B4147919248FBB9A&assignmentId=f04ddba1-c413-4f8a-950a-5744ee9fe64b&projectId=a0a8f18c-a66e-4ba7-a170-23efbdc67501","8EBBDD729C594D63B4147919248FBB9A-2024-11-24-18-44-18","","null","","images/schematic_sequence/flight_scheme/flight_scheme_5.png","null","",""
"","","","","","image-button-response","134","558826","0.0-16.0-1.0-1.4","8EBBDD729C594D63B4147919248FBB9A","8EBBDD729C594D63B4147919248FBB9A","f04ddba1-c413-4f8a-950a-5744ee9fe64b","a0a8f18c-a66e-4ba7-a170-23efbdc67501","{""participantId"":""8EBBDD729C594D63B4147919248FBB9A"",""assignmentId"":""f04ddba1-c413-4f8a-950a-5744ee9fe64b"",""projectId"":""a0a8f18c-a66e-4ba7-a170-23efbdc67501""}","https://test12345.live/?participantId=8EBBDD729C594D63B4147919248FBB9A&assignmentId=f04ddba1-c413-4f8a-950a-5744ee9fe64b&projectId=a0a8f18c-a66e-4ba7-a170-23efbdc67501","8EBBDD729C594D63B4147919248FBB9A-2024-11-24-18-44-18","","626","","images/schematic_sequence/flight_scheme/flight_scheme_5.png","0","",""
"","","","","","image-button-response","135","560629","0.0-16.0-1.0-2.4","8EBBDD729C594D63B4147919248FBB9A","8EBBDD729C594D63B4147919248FBB9A","f04ddba1-c413-4f8a-950a-5744ee9fe64b","a0a8f18c-a66e-4ba7-a170-23efbdc67501","{""participantId"":""8EBBDD729C594D63B4147919248FBB9A"",""assignmentId"":""f04ddba1-c413-4f8a-950a-5744ee9fe64b"",""projectId"":""a0a8f18c-a66e-4ba7-a170-23efbdc67501""}","https://test12345.live/?participantId=8EBBDD729C594D63B4147919248FBB9A&assignmentId=f04ddba1-c413-4f8a-950a-5744ee9fe64b&projectId=a0a8f18c-a66e-4ba7-a170-23efbdc67501","8EBBDD729C594D63B4147919248FBB9A-2024-11-24-18-44-18","","null","","[]","null","",""
"","","","","","image-button-response","136","565132","0.0-16.0-1.0-0.5","8EBBDD729C594D63B4147919248FBB9A","8EBBDD729C594D63B4147919248FBB9A","f04ddba1-c413-4f8a-950a-5744ee9fe64b","a0a8f18c-a66e-4ba7-a170-23efbdc67501","{""participantId"":""8EBBDD729C594D63B4147919248FBB9A"",""assignmentId"":""f04ddba1-c413-4f8a-950a-5744ee9fe64b"",""projectId"":""a0a8f18c-a66e-4ba7-a170-23efbdc67501""}","https://test12345.live/?participantId=8EBBDD729C594D63B4147919248FBB9A&assignmentId=f04ddba1-c413-4f8a-950a-5744ee9fe64b&projectId=a0a8f18c-a66e-4ba7-a170-23efbdc67501","8EBBDD729C594D63B4147919248FBB9A-2024-11-24-18-44-18","","null","","images/schematic_sequence/flight_scheme/flight_scheme_6.png","null","",""
"","","","","","image-button-response","137","565692","0.0-16.0-1.0-1.5","8EBBDD729C594D63B4147919248FBB9A","8EBBDD729C594D63B4147919248FBB9A","f04ddba1-c413-4f8a-950a-5744ee9fe64b","a0a8f18c-a66e-4ba7-a170-23efbdc67501","{""participantId"":""8EBBDD729C594D63B4147919248FBB9A"",""assignmentId"":""f04ddba1-c413-4f8a-950a-5744ee9fe64b"",""projectId"":""a0a8f18c-a66e-4ba7-a170-23efbdc67501""}","https://test12345.live/?participantId=8EBBDD729C594D63B4147919248FBB9A&assignmentId=f04ddba1-c413-4f8a-950a-5744ee9fe64b&projectId=a0a8f18c-a66e-4ba7-a170-23efbdc67501","8EBBDD729C594D63B4147919248FBB9A-2024-11-24-18-44-18","","557","","images/schematic_sequence/flight_scheme/flight_scheme_6.png","1","",""
"","","","","","image-button-response","138","567495","0.0-16.0-1.0-2.5","8EBBDD729C594D63B4147919248FBB9A","8EBBDD729C594D63B4147919248FBB9A","f04ddba1-c413-4f8a-950a-5744ee9fe64b","a0a8f18c-a66e-4ba7-a170-23efbdc67501","{""participantId"":""8EBBDD729C594D63B4147919248FBB9A"",""assignmentId"":""f04ddba1-c413-4f8a-950a-5744ee9fe64b"",""projectId"":""a0a8f18c-a66e-4ba7-a170-23efbdc67501""}","https://test12345.live/?participantId=8EBBDD729C594D63B4147919248FBB9A&assignmentId=f04ddba1-c413-4f8a-950a-5744ee9fe64b&projectId=a0a8f18c-a66e-4ba7-a170-23efbdc67501","8EBBDD729C594D63B4147919248FBB9A-2024-11-24-18-44-18","","null","","[]","null","",""
"","","","","","image-button-response","139","572003","0.0-16.0-1.0-0.6","8EBBDD729C594D63B4147919248FBB9A","8EBBDD729C594D63B4147919248FBB9A","f04ddba1-c413-4f8a-950a-5744ee9fe64b","a0a8f18c-a66e-4ba7-a170-23efbdc67501","{""participantId"":""8EBBDD729C594D63B4147919248FBB9A"",""assignmentId"":""f04ddba1-c413-4f8a-950a-5744ee9fe64b"",""projectId"":""a0a8f18c-a66e-4ba7-a170-23efbdc67501""}","https://test12345.live/?participantId=8EBBDD729C594D63B4147919248FBB9A&assignmentId=f04ddba1-c413-4f8a-950a-5744ee9fe64b&projectId=a0a8f18c-a66e-4ba7-a170-23efbdc67501","8EBBDD729C594D63B4147919248FBB9A-2024-11-24-18-44-18","","null","","images/schematic_sequence/flight_scheme/flight_scheme_7.png","null","",""
"","","","","","image-button-response","140","572617","0.0-16.0-1.0-1.6","8EBBDD729C594D63B4147919248FBB9A","8EBBDD729C594D63B4147919248FBB9A","f04ddba1-c413-4f8a-950a-5744ee9fe64b","a0a8f18c-a66e-4ba7-a170-23efbdc67501","{""participantId"":""8EBBDD729C594D63B4147919248FBB9A"",""assignmentId"":""f04ddba1-c413-4f8a-950a-5744ee9fe64b"",""projectId"":""a0a8f18c-a66e-4ba7-a170-23efbdc67501""}","https://test12345.live/?participantId=8EBBDD729C594D63B4147919248FBB9A&assignmentId=f04ddba1-c413-4f8a-950a-5744ee9fe64b&projectId=a0a8f18c-a66e-4ba7-a170-23efbdc67501","8EBBDD729C594D63B4147919248FBB9A-2024-11-24-18-44-18","","613","","images/schematic_sequence/flight_scheme/flight_scheme_7.png","1","",""
"","","","","","image-button-response","141","574429","0.0-16.0-1.0-2.6","8EBBDD729C594D63B4147919248FBB9A","8EBBDD729C594D63B4147919248FBB9A","f04ddba1-c413-4f8a-950a-5744ee9fe64b","a0a8f18c-a66e-4ba7-a170-23efbdc67501","{""participantId"":""8EBBDD729C594D63B4147919248FBB9A"",""assignmentId"":""f04ddba1-c413-4f8a-950a-5744ee9fe64b"",""projectId"":""a0a8f18c-a66e-4ba7-a170-23efbdc67501""}","https://test12345.live/?participantId=8EBBDD729C594D63B4147919248FBB9A&assignmentId=f04ddba1-c413-4f8a-950a-5744ee9fe64b&projectId=a0a8f18c-a66e-4ba7-a170-23efbdc67501","8EBBDD729C594D63B4147919248FBB9A-2024-11-24-18-44-18","","null","","[]","null","",""
"","","","","","image-button-response","142","578930","0.0-16.0-1.0-0.7","8EBBDD729C594D63B4147919248FBB9A","8EBBDD729C594D63B4147919248FBB9A","f04ddba1-c413-4f8a-950a-5744ee9fe64b","a0a8f18c-a66e-4ba7-a170-23efbdc67501","{""participantId"":""8EBBDD729C594D63B4147919248FBB9A"",""assignmentId"":""f04ddba1-c413-4f8a-950a-5744ee9fe64b"",""projectId"":""a0a8f18c-a66e-4ba7-a170-23efbdc67501""}","https://test12345.live/?participantId=8EBBDD729C594D63B4147919248FBB9A&assignmentId=f04ddba1-c413-4f8a-950a-5744ee9fe64b&projectId=a0a8f18c-a66e-4ba7-a170-23efbdc67501","8EBBDD729C594D63B4147919248FBB9A-2024-11-24-18-44-18","","null","","images/schematic_sequence/flight_scheme/flight_scheme_8.png","null","",""
"","","","","","image-button-response","143","579398","0.0-16.0-1.0-1.7","8EBBDD729C594D63B4147919248FBB9A","8EBBDD729C594D63B4147919248FBB9A","f04ddba1-c413-4f8a-950a-5744ee9fe64b","a0a8f18c-a66e-4ba7-a170-23efbdc67501","{""participantId"":""8EBBDD729C594D63B4147919248FBB9A"",""assignmentId"":""f04ddba1-c413-4f8a-950a-5744ee9fe64b"",""projectId"":""a0a8f18c-a66e-4ba7-a170-23efbdc67501""}","https://test12345.live/?participantId=8EBBDD729C594D63B4147919248FBB9A&assignmentId=f04ddba1-c413-4f8a-950a-5744ee9fe64b&projectId=a0a8f18c-a66e-4ba7-a170-23efbdc67501","8EBBDD729C594D63B4147919248FBB9A-2024-11-24-18-44-18","","467","","images/schematic_sequence/flight_scheme/flight_scheme_8.png","1","",""
