"success","timeout","failed_images","failed_audio","failed_video","trial_type","trial_index","time_elapsed","internal_node_id","subject","subject_id","study_id","session_id","urlvar","current_url","audio_id","view_history","rt","device_id","stimulus","response","estimated_stimulus_onset","seq_name"
"true","false","[]","[]","[]","preload","0","2431","0.0-0.0","8FD48F2ED02A4A36B643A64C8342D78D","8FD48F2ED02A4A36B643A64C8342D78D","f482a0d5-73da-4d4d-89b5-af40f9d2175d","051c06f1-75cc-4548-856d-4923ddaba0dc","{""num_scrambled_semantic"":""8"",""num_scrambled_causal"":""4"",""num_scrambled_schematic"":""4"",""participantId"":""8FD48F2ED02A4A36B643A64C8342D78D"",""assignmentId"":""f482a0d5-73da-4d4d-89b5-af40f9d2175d"",""projectId"":""051c06f1-75cc-4548-856d-4923ddaba0dc""}","https://test12345.live/?num_scrambled_semantic=8&num_scrambled_causal=4&num_scrambled_schematic=4&participantId=8FD48F2ED02A4A36B643A64C8342D78D&assignmentId=f482a0d5-73da-4d4d-89b5-af40f9d2175d&projectId=051c06f1-75cc-4548-856d-4923ddaba0dc","8FD48F2ED02A4A36B643A64C8342D78D-2025-05-15-18-52-10","","","","","","",""
"","","","","","instructions","1","11007","0.0-1.0","8FD48F2ED02A4A36B643A64C8342D78D","8FD48F2ED02A4A36B643A64C8342D78D","f482a0d5-73da-4d4d-89b5-af40f9d2175d","051c06f1-75cc-4548-856d-4923ddaba0dc","{""num_scrambled_semantic"":""8"",""num_scrambled_causal"":""4"",""num_scrambled_schematic"":""4"",""participantId"":""8FD48F2ED02A4A36B643A64C8342D78D"",""assignmentId"":""f482a0d5-73da-4d4d-89b5-af40f9d2175d"",""projectId"":""051c06f1-75cc-4548-856d-4923ddaba0dc""}","https://test12345.live/?num_scrambled_semantic=8&num_scrambled_causal=4&num_scrambled_schematic=4&participantId=8FD48F2ED02A4A36B643A64C8342D78D&assignmentId=f482a0d5-73da-4d4d-89b5-af40f9d2175d&projectId=051c06f1-75cc-4548-856d-4923ddaba0dc","8FD48F2ED02A4A36B643A64C8342D78D-2025-05-15-18-52-10","[{""page_index"":0,""viewing_time"":8575}]","8575","","","","",""
"","","","","","instructions","2","15976","0.0-2.0","8FD48F2ED02A4A36B643A64C8342D78D","8FD48F2ED02A4A36B643A64C8342D78D","f482a0d5-73da-4d4d-89b5-af40f9d2175d","051c06f1-75cc-4548-856d-4923ddaba0dc","{""num_scrambled_semantic"":""8"",""num_scrambled_causal"":""4"",""num_scrambled_schematic"":""4"",""participantId"":""8FD48F2ED02A4A36B643A64C8342D78D"",""assignmentId"":""f482a0d5-73da-4d4d-89b5-af40f9d2175d"",""projectId"":""051c06f1-75cc-4548-856d-4923ddaba0dc""}","https://test12345.live/?num_scrambled_semantic=8&num_scrambled_causal=4&num_scrambled_schematic=4&participantId=8FD48F2ED02A4A36B643A64C8342D78D&assignmentId=f482a0d5-73da-4d4d-89b5-af40f9d2175d&projectId=051c06f1-75cc-4548-856d-4923ddaba0dc","8FD48F2ED02A4A36B643A64C8342D78D-2025-05-15-18-52-10","[{""page_index"":0,""viewing_time"":4968}]","4969","","","","",""
"true","","","","","fullscreen","3","18300","0.0-3.0","8FD48F2ED02A4A36B643A64C8342D78D","8FD48F2ED02A4A36B643A64C8342D78D","f482a0d5-73da-4d4d-89b5-af40f9d2175d","051c06f1-75cc-4548-856d-4923ddaba0dc","{""num_scrambled_semantic"":""8"",""num_scrambled_causal"":""4"",""num_scrambled_schematic"":""4"",""participantId"":""8FD48F2ED02A4A36B643A64C8342D78D"",""assignmentId"":""f482a0d5-73da-4d4d-89b5-af40f9d2175d"",""projectId"":""051c06f1-75cc-4548-856d-4923ddaba0dc""}","https://test12345.live/?num_scrambled_semantic=8&num_scrambled_causal=4&num_scrambled_schematic=4&participantId=8FD48F2ED02A4A36B643A64C8342D78D&assignmentId=f482a0d5-73da-4d4d-89b5-af40f9d2175d&projectId=051c06f1-75cc-4548-856d-4923ddaba0dc","8FD48F2ED02A4A36B643A64C8342D78D-2025-05-15-18-52-10","","1319","","","","",""
"","","","","","initialize-microphone","4","24848","0.0-4.0-0.0","8FD48F2ED02A4A36B643A64C8342D78D","8FD48F2ED02A4A36B643A64C8342D78D","f482a0d5-73da-4d4d-89b5-af40f9d2175d","051c06f1-75cc-4548-856d-4923ddaba0dc","{""num_scrambled_semantic"":""8"",""num_scrambled_causal"":""4"",""num_scrambled_schematic"":""4"",""participantId"":""8FD48F2ED02A4A36B643A64C8342D78D"",""assignmentId"":""f482a0d5-73da-4d4d-89b5-af40f9d2175d"",""projectId"":""051c06f1-75cc-4548-856d-4923ddaba0dc""}","https://test12345.live/?num_scrambled_semantic=8&num_scrambled_causal=4&num_scrambled_schematic=4&participantId=8FD48F2ED02A4A36B643A64C8342D78D&assignmentId=f482a0d5-73da-4d4d-89b5-af40f9d2175d&projectId=051c06f1-75cc-4548-856d-4923ddaba0dc","8FD48F2ED02A4A36B643A64C8342D78D-2025-05-15-18-52-10","","","70ff9f7395ed89fc282f55a771007b5a90fecbd5ec5edcf215073ca0e284bdc6","","","",""
"","","","","","html-audio-response","5","35904","0.0-4.0-1.0","8FD48F2ED02A4A36B643A64C8342D78D","8FD48F2ED02A4A36B643A64C8342D78D","f482a0d5-73da-4d4d-89b5-af40f9d2175d","051c06f1-75cc-4548-856d-4923ddaba0dc","{""num_scrambled_semantic"":""8"",""num_scrambled_causal"":""4"",""num_scrambled_schematic"":""4"",""participantId"":""8FD48F2ED02A4A36B643A64C8342D78D"",""assignmentId"":""f482a0d5-73da-4d4d-89b5-af40f9d2175d"",""projectId"":""051c06f1-75cc-4548-856d-4923ddaba0dc""}","https://test12345.live/?num_scrambled_semantic=8&num_scrambled_causal=4&num_scrambled_schematic=4&participantId=8FD48F2ED02A4A36B643A64C8342D78D&assignmentId=f482a0d5-73da-4d4d-89b5-af40f9d2175d&projectId=051c06f1-75cc-4548-856d-4923ddaba0dc","8FD48F2ED02A4A36B643A64C8342D78D-2025-05-15-18-52-10","","4283","","<span style=""color: red; font-size: 24px""> NOW RECORDING</span>
        <p>Please test Microphone</p>","","6",""
"","","","","","html-button-response","6","37157","0.0-4.0-2.0","8FD48F2ED02A4A36B643A64C8342D78D","8FD48F2ED02A4A36B643A64C8342D78D","f482a0d5-73da-4d4d-89b5-af40f9d2175d","051c06f1-75cc-4548-856d-4923ddaba0dc","{""num_scrambled_semantic"":""8"",""num_scrambled_causal"":""4"",""num_scrambled_schematic"":""4"",""participantId"":""8FD48F2ED02A4A36B643A64C8342D78D"",""assignmentId"":""f482a0d5-73da-4d4d-89b5-af40f9d2175d"",""projectId"":""051c06f1-75cc-4548-856d-4923ddaba0dc""}","https://test12345.live/?num_scrambled_semantic=8&num_scrambled_causal=4&num_scrambled_schematic=4&participantId=8FD48F2ED02A4A36B643A64C8342D78D&assignmentId=f482a0d5-73da-4d4d-89b5-af40f9d2175d&projectId=051c06f1-75cc-4548-856d-4923ddaba0dc","8FD48F2ED02A4A36B643A64C8342D78D-2025-05-15-18-52-10","","1252","","<p style=""font-size:48px; color:red;"">Is Microphone OK?</p>","1","",""
"","","","","","instructions","7","47518","0.0-5.0","8FD48F2ED02A4A36B643A64C8342D78D","8FD48F2ED02A4A36B643A64C8342D78D","f482a0d5-73da-4d4d-89b5-af40f9d2175d","051c06f1-75cc-4548-856d-4923ddaba0dc","{""num_scrambled_semantic"":""8"",""num_scrambled_causal"":""4"",""num_scrambled_schematic"":""4"",""participantId"":""8FD48F2ED02A4A36B643A64C8342D78D"",""assignmentId"":""f482a0d5-73da-4d4d-89b5-af40f9d2175d"",""projectId"":""051c06f1-75cc-4548-856d-4923ddaba0dc""}","https://test12345.live/?num_scrambled_semantic=8&num_scrambled_causal=4&num_scrambled_schematic=4&participantId=8FD48F2ED02A4A36B643A64C8342D78D&assignmentId=f482a0d5-73da-4d4d-89b5-af40f9d2175d&projectId=051c06f1-75cc-4548-856d-4923ddaba0dc","8FD48F2ED02A4A36B643A64C8342D78D-2025-05-15-18-52-10","[{""page_index"":0,""viewing_time"":2651},{""page_index"":1,""viewing_time"":7709}]","10360","","","","",""
"","","","","","image-button-response","8","53531","0.0-6.0-0.0","8FD48F2ED02A4A36B643A64C8342D78D","8FD48F2ED02A4A36B643A64C8342D78D","f482a0d5-73da-4d4d-89b5-af40f9d2175d","051c06f1-75cc-4548-856d-4923ddaba0dc","{""num_scrambled_semantic"":""8"",""num_scrambled_causal"":""4"",""num_scrambled_schematic"":""4"",""participantId"":""8FD48F2ED02A4A36B643A64C8342D78D"",""assignmentId"":""f482a0d5-73da-4d4d-89b5-af40f9d2175d"",""projectId"":""051c06f1-75cc-4548-856d-4923ddaba0dc""}","https://test12345.live/?num_scrambled_semantic=8&num_scrambled_causal=4&num_scrambled_schematic=4&participantId=8FD48F2ED02A4A36B643A64C8342D78D&assignmentId=f482a0d5-73da-4d4d-89b5-af40f9d2175d&projectId=051c06f1-75cc-4548-856d-4923ddaba0dc","8FD48F2ED02A4A36B643A64C8342D78D-2025-05-15-18-52-10","","null","","images/instructions/movie_0.png","null","",""
"","","","","","image-button-response","9","58047","0.0-6.0-1.0-0.0","8FD48F2ED02A4A36B643A64C8342D78D","8FD48F2ED02A4A36B643A64C8342D78D","f482a0d5-73da-4d4d-89b5-af40f9d2175d","051c06f1-75cc-4548-856d-4923ddaba0dc","{""num_scrambled_semantic"":""8"",""num_scrambled_causal"":""4"",""num_scrambled_schematic"":""4"",""participantId"":""8FD48F2ED02A4A36B643A64C8342D78D"",""assignmentId"":""f482a0d5-73da-4d4d-89b5-af40f9d2175d"",""projectId"":""051c06f1-75cc-4548-856d-4923ddaba0dc""}","https://test12345.live/?num_scrambled_semantic=8&num_scrambled_causal=4&num_scrambled_schematic=4&participantId=8FD48F2ED02A4A36B643A64C8342D78D&assignmentId=f482a0d5-73da-4d4d-89b5-af40f9d2175d&projectId=051c06f1-75cc-4548-856d-4923ddaba0dc","8FD48F2ED02A4A36B643A64C8342D78D-2025-05-15-18-52-10","","null","","images/instructions/movie_1.png","null","",""
"","","","","","image-button-response","10","59889","0.0-6.0-1.0-1.0","8FD48F2ED02A4A36B643A64C8342D78D","8FD48F2ED02A4A36B643A64C8342D78D","f482a0d5-73da-4d4d-89b5-af40f9d2175d","051c06f1-75cc-4548-856d-4923ddaba0dc","{""num_scrambled_semantic"":""8"",""num_scrambled_causal"":""4"",""num_scrambled_schematic"":""4"",""participantId"":""8FD48F2ED02A4A36B643A64C8342D78D"",""assignmentId"":""f482a0d5-73da-4d4d-89b5-af40f9d2175d"",""projectId"":""051c06f1-75cc-4548-856d-4923ddaba0dc""}","https://test12345.live/?num_scrambled_semantic=8&num_scrambled_causal=4&num_scrambled_schematic=4&participantId=8FD48F2ED02A4A36B643A64C8342D78D&assignmentId=f482a0d5-73da-4d4d-89b5-af40f9d2175d&projectId=051c06f1-75cc-4548-856d-4923ddaba0dc","8FD48F2ED02A4A36B643A64C8342D78D-2025-05-15-18-52-10","","1841","","images/instructions/movie_1.png","0","",""
"","","","","","image-button-response","11","61693","0.0-6.0-1.0-2.0","8FD48F2ED02A4A36B643A64C8342D78D","8FD48F2ED02A4A36B643A64C8342D78D","f482a0d5-73da-4d4d-89b5-af40f9d2175d","051c06f1-75cc-4548-856d-4923ddaba0dc","{""num_scrambled_semantic"":""8"",""num_scrambled_causal"":""4"",""num_scrambled_schematic"":""4"",""participantId"":""8FD48F2ED02A4A36B643A64C8342D78D"",""assignmentId"":""f482a0d5-73da-4d4d-89b5-af40f9d2175d"",""projectId"":""051c06f1-75cc-4548-856d-4923ddaba0dc""}","https://test12345.live/?num_scrambled_semantic=8&num_scrambled_causal=4&num_scrambled_schematic=4&participantId=8FD48F2ED02A4A36B643A64C8342D78D&assignmentId=f482a0d5-73da-4d4d-89b5-af40f9d2175d&projectId=051c06f1-75cc-4548-856d-4923ddaba0dc","8FD48F2ED02A4A36B643A64C8342D78D-2025-05-15-18-52-10","","null","","[]","null","",""
"","","","","","image-button-response","12","66198","0.0-6.0-1.0-0.1","8FD48F2ED02A4A36B643A64C8342D78D","8FD48F2ED02A4A36B643A64C8342D78D","f482a0d5-73da-4d4d-89b5-af40f9d2175d","051c06f1-75cc-4548-856d-4923ddaba0dc","{""num_scrambled_semantic"":""8"",""num_scrambled_causal"":""4"",""num_scrambled_schematic"":""4"",""participantId"":""8FD48F2ED02A4A36B643A64C8342D78D"",""assignmentId"":""f482a0d5-73da-4d4d-89b5-af40f9d2175d"",""projectId"":""051c06f1-75cc-4548-856d-4923ddaba0dc""}","https://test12345.live/?num_scrambled_semantic=8&num_scrambled_causal=4&num_scrambled_schematic=4&participantId=8FD48F2ED02A4A36B643A64C8342D78D&assignmentId=f482a0d5-73da-4d4d-89b5-af40f9d2175d&projectId=051c06f1-75cc-4548-856d-4923ddaba0dc","8FD48F2ED02A4A36B643A64C8342D78D-2025-05-15-18-52-10","","null","","images/instructions/movie_2.png","null","",""
"","","","","","image-button-response","13","69508","0.0-6.0-1.0-1.1","8FD48F2ED02A4A36B643A64C8342D78D","8FD48F2ED02A4A36B643A64C8342D78D","f482a0d5-73da-4d4d-89b5-af40f9d2175d","051c06f1-75cc-4548-856d-4923ddaba0dc","{""num_scrambled_semantic"":""8"",""num_scrambled_causal"":""4"",""num_scrambled_schematic"":""4"",""participantId"":""8FD48F2ED02A4A36B643A64C8342D78D"",""assignmentId"":""f482a0d5-73da-4d4d-89b5-af40f9d2175d"",""projectId"":""051c06f1-75cc-4548-856d-4923ddaba0dc""}","https://test12345.live/?num_scrambled_semantic=8&num_scrambled_causal=4&num_scrambled_schematic=4&participantId=8FD48F2ED02A4A36B643A64C8342D78D&assignmentId=f482a0d5-73da-4d4d-89b5-af40f9d2175d&projectId=051c06f1-75cc-4548-856d-4923ddaba0dc","8FD48F2ED02A4A36B643A64C8342D78D-2025-05-15-18-52-10","","3309","","images/instructions/movie_2.png","0","",""
"","","","","","image-button-response","14","71311","0.0-6.0-1.0-2.1","8FD48F2ED02A4A36B643A64C8342D78D","8FD48F2ED02A4A36B643A64C8342D78D","f482a0d5-73da-4d4d-89b5-af40f9d2175d","051c06f1-75cc-4548-856d-4923ddaba0dc","{""num_scrambled_semantic"":""8"",""num_scrambled_causal"":""4"",""num_scrambled_schematic"":""4"",""participantId"":""8FD48F2ED02A4A36B643A64C8342D78D"",""assignmentId"":""f482a0d5-73da-4d4d-89b5-af40f9d2175d"",""projectId"":""051c06f1-75cc-4548-856d-4923ddaba0dc""}","https://test12345.live/?num_scrambled_semantic=8&num_scrambled_causal=4&num_scrambled_schematic=4&participantId=8FD48F2ED02A4A36B643A64C8342D78D&assignmentId=f482a0d5-73da-4d4d-89b5-af40f9d2175d&projectId=051c06f1-75cc-4548-856d-4923ddaba0dc","8FD48F2ED02A4A36B643A64C8342D78D-2025-05-15-18-52-10","","null","","[]","null","",""
"","","","","","image-button-response","15","75827","0.0-6.0-1.0-0.2","8FD48F2ED02A4A36B643A64C8342D78D","8FD48F2ED02A4A36B643A64C8342D78D","f482a0d5-73da-4d4d-89b5-af40f9d2175d","051c06f1-75cc-4548-856d-4923ddaba0dc","{""num_scrambled_semantic"":""8"",""num_scrambled_causal"":""4"",""num_scrambled_schematic"":""4"",""participantId"":""8FD48F2ED02A4A36B643A64C8342D78D"",""assignmentId"":""f482a0d5-73da-4d4d-89b5-af40f9d2175d"",""projectId"":""051c06f1-75cc-4548-856d-4923ddaba0dc""}","https://test12345.live/?num_scrambled_semantic=8&num_scrambled_causal=4&num_scrambled_schematic=4&participantId=8FD48F2ED02A4A36B643A64C8342D78D&assignmentId=f482a0d5-73da-4d4d-89b5-af40f9d2175d&projectId=051c06f1-75cc-4548-856d-4923ddaba0dc","8FD48F2ED02A4A36B643A64C8342D78D-2025-05-15-18-52-10","","null","","images/instructions/movie_3.png","null","",""
"","","","","","image-button-response","16","76835","0.0-6.0-1.0-1.2","8FD48F2ED02A4A36B643A64C8342D78D","8FD48F2ED02A4A36B643A64C8342D78D","f482a0d5-73da-4d4d-89b5-af40f9d2175d","051c06f1-75cc-4548-856d-4923ddaba0dc","{""num_scrambled_semantic"":""8"",""num_scrambled_causal"":""4"",""num_scrambled_schematic"":""4"",""participantId"":""8FD48F2ED02A4A36B643A64C8342D78D"",""assignmentId"":""f482a0d5-73da-4d4d-89b5-af40f9d2175d"",""projectId"":""051c06f1-75cc-4548-856d-4923ddaba0dc""}","https://test12345.live/?num_scrambled_semantic=8&num_scrambled_causal=4&num_scrambled_schematic=4&participantId=8FD48F2ED02A4A36B643A64C8342D78D&assignmentId=f482a0d5-73da-4d4d-89b5-af40f9d2175d&projectId=051c06f1-75cc-4548-856d-4923ddaba0dc","8FD48F2ED02A4A36B643A64C8342D78D-2025-05-15-18-52-10","","1006","","images/instructions/movie_3.png","0","",""
"","","","","","image-button-response","17","78650","0.0-6.0-1.0-2.2","8FD48F2ED02A4A36B643A64C8342D78D","8FD48F2ED02A4A36B643A64C8342D78D","f482a0d5-73da-4d4d-89b5-af40f9d2175d","051c06f1-75cc-4548-856d-4923ddaba0dc","{""num_scrambled_semantic"":""8"",""num_scrambled_causal"":""4"",""num_scrambled_schematic"":""4"",""participantId"":""8FD48F2ED02A4A36B643A64C8342D78D"",""assignmentId"":""f482a0d5-73da-4d4d-89b5-af40f9d2175d"",""projectId"":""051c06f1-75cc-4548-856d-4923ddaba0dc""}","https://test12345.live/?num_scrambled_semantic=8&num_scrambled_causal=4&num_scrambled_schematic=4&participantId=8FD48F2ED02A4A36B643A64C8342D78D&assignmentId=f482a0d5-73da-4d4d-89b5-af40f9d2175d&projectId=051c06f1-75cc-4548-856d-4923ddaba0dc","8FD48F2ED02A4A36B643A64C8342D78D-2025-05-15-18-52-10","","null","","[]","null","",""
"","","","","","image-button-response","18","83160","0.0-6.0-1.0-0.3","8FD48F2ED02A4A36B643A64C8342D78D","8FD48F2ED02A4A36B643A64C8342D78D","f482a0d5-73da-4d4d-89b5-af40f9d2175d","051c06f1-75cc-4548-856d-4923ddaba0dc","{""num_scrambled_semantic"":""8"",""num_scrambled_causal"":""4"",""num_scrambled_schematic"":""4"",""participantId"":""8FD48F2ED02A4A36B643A64C8342D78D"",""assignmentId"":""f482a0d5-73da-4d4d-89b5-af40f9d2175d"",""projectId"":""051c06f1-75cc-4548-856d-4923ddaba0dc""}","https://test12345.live/?num_scrambled_semantic=8&num_scrambled_causal=4&num_scrambled_schematic=4&participantId=8FD48F2ED02A4A36B643A64C8342D78D&assignmentId=f482a0d5-73da-4d4d-89b5-af40f9d2175d&projectId=051c06f1-75cc-4548-856d-4923ddaba0dc","8FD48F2ED02A4A36B643A64C8342D78D-2025-05-15-18-52-10","","null","","images/instructions/movie_4.png","null","",""
"","","","","","image-button-response","19","83948","0.0-6.0-1.0-1.3","8FD48F2ED02A4A36B643A64C8342D78D","8FD48F2ED02A4A36B643A64C8342D78D","f482a0d5-73da-4d4d-89b5-af40f9d2175d","051c06f1-75cc-4548-856d-4923ddaba0dc","{""num_scrambled_semantic"":""8"",""num_scrambled_causal"":""4"",""num_scrambled_schematic"":""4"",""participantId"":""8FD48F2ED02A4A36B643A64C8342D78D"",""assignmentId"":""f482a0d5-73da-4d4d-89b5-af40f9d2175d"",""projectId"":""051c06f1-75cc-4548-856d-4923ddaba0dc""}","https://test12345.live/?num_scrambled_semantic=8&num_scrambled_causal=4&num_scrambled_schematic=4&participantId=8FD48F2ED02A4A36B643A64C8342D78D&assignmentId=f482a0d5-73da-4d4d-89b5-af40f9d2175d&projectId=051c06f1-75cc-4548-856d-4923ddaba0dc","8FD48F2ED02A4A36B643A64C8342D78D-2025-05-15-18-52-10","","787","","images/instructions/movie_4.png","0","",""
"","","","","","image-button-response","20","85761","0.0-6.0-1.0-2.3","8FD48F2ED02A4A36B643A64C8342D78D","8FD48F2ED02A4A36B643A64C8342D78D","f482a0d5-73da-4d4d-89b5-af40f9d2175d","051c06f1-75cc-4548-856d-4923ddaba0dc","{""num_scrambled_semantic"":""8"",""num_scrambled_causal"":""4"",""num_scrambled_schematic"":""4"",""participantId"":""8FD48F2ED02A4A36B643A64C8342D78D"",""assignmentId"":""f482a0d5-73da-4d4d-89b5-af40f9d2175d"",""projectId"":""051c06f1-75cc-4548-856d-4923ddaba0dc""}","https://test12345.live/?num_scrambled_semantic=8&num_scrambled_causal=4&num_scrambled_schematic=4&participantId=8FD48F2ED02A4A36B643A64C8342D78D&assignmentId=f482a0d5-73da-4d4d-89b5-af40f9d2175d&projectId=051c06f1-75cc-4548-856d-4923ddaba0dc","8FD48F2ED02A4A36B643A64C8342D78D-2025-05-15-18-52-10","","null","","[]","null","",""
"","","","","","instructions","21","97792","0.0-7.0","8FD48F2ED02A4A36B643A64C8342D78D","8FD48F2ED02A4A36B643A64C8342D78D","f482a0d5-73da-4d4d-89b5-af40f9d2175d","051c06f1-75cc-4548-856d-4923ddaba0dc","{""num_scrambled_semantic"":""8"",""num_scrambled_causal"":""4"",""num_scrambled_schematic"":""4"",""participantId"":""8FD48F2ED02A4A36B643A64C8342D78D"",""assignmentId"":""f482a0d5-73da-4d4d-89b5-af40f9d2175d"",""projectId"":""051c06f1-75cc-4548-856d-4923ddaba0dc""}","https://test12345.live/?num_scrambled_semantic=8&num_scrambled_causal=4&num_scrambled_schematic=4&participantId=8FD48F2ED02A4A36B643A64C8342D78D&assignmentId=f482a0d5-73da-4d4d-89b5-af40f9d2175d&projectId=051c06f1-75cc-4548-856d-4923ddaba0dc","8FD48F2ED02A4A36B643A64C8342D78D-2025-05-15-18-52-10","[{""page_index"":0,""viewing_time"":11043},{""page_index"":1,""viewing_time"":987}]","12030","","","","",""
"","","","","","html-audio-response","22","127601","0.0-8.0","8FD48F2ED02A4A36B643A64C8342D78D","8FD48F2ED02A4A36B643A64C8342D78D","f482a0d5-73da-4d4d-89b5-af40f9d2175d","051c06f1-75cc-4548-856d-4923ddaba0dc","{""num_scrambled_semantic"":""8"",""num_scrambled_causal"":""4"",""num_scrambled_schematic"":""4"",""participantId"":""8FD48F2ED02A4A36B643A64C8342D78D"",""assignmentId"":""f482a0d5-73da-4d4d-89b5-af40f9d2175d"",""projectId"":""051c06f1-75cc-4548-856d-4923ddaba0dc""}","https://test12345.live/?num_scrambled_semantic=8&num_scrambled_causal=4&num_scrambled_schematic=4&participantId=8FD48F2ED02A4A36B643A64C8342D78D&assignmentId=f482a0d5-73da-4d4d-89b5-af40f9d2175d&projectId=051c06f1-75cc-4548-856d-4923ddaba0dc","8FD48F2ED02A4A36B643A64C8342D78D-2025-05-15-18-52-10","","13822","","[""<span style=\""color: red; font-size: 24px\""> NOW RECORDING</span><p>Please say out loud all the images you saw, as many as you can remember. The images can be said in any order.</p>""]","","3",""
"","","","","","instructions","23","128969","0.0-9.0","8FD48F2ED02A4A36B643A64C8342D78D","8FD48F2ED02A4A36B643A64C8342D78D","f482a0d5-73da-4d4d-89b5-af40f9d2175d","051c06f1-75cc-4548-856d-4923ddaba0dc","{""num_scrambled_semantic"":""8"",""num_scrambled_causal"":""4"",""num_scrambled_schematic"":""4"",""participantId"":""8FD48F2ED02A4A36B643A64C8342D78D"",""assignmentId"":""f482a0d5-73da-4d4d-89b5-af40f9d2175d"",""projectId"":""051c06f1-75cc-4548-856d-4923ddaba0dc""}","https://test12345.live/?num_scrambled_semantic=8&num_scrambled_causal=4&num_scrambled_schematic=4&participantId=8FD48F2ED02A4A36B643A64C8342D78D&assignmentId=f482a0d5-73da-4d4d-89b5-af40f9d2175d&projectId=051c06f1-75cc-4548-856d-4923ddaba0dc","8FD48F2ED02A4A36B643A64C8342D78D-2025-05-15-18-52-10","[{""page_index"":0,""viewing_time"":1366}]","1366","","","","",""
"","","","","","image-button-response","24","134982","0.0-10.0-0.0","8FD48F2ED02A4A36B643A64C8342D78D","8FD48F2ED02A4A36B643A64C8342D78D","f482a0d5-73da-4d4d-89b5-af40f9d2175d","051c06f1-75cc-4548-856d-4923ddaba0dc","{""num_scrambled_semantic"":""8"",""num_scrambled_causal"":""4"",""num_scrambled_schematic"":""4"",""participantId"":""8FD48F2ED02A4A36B643A64C8342D78D"",""assignmentId"":""f482a0d5-73da-4d4d-89b5-af40f9d2175d"",""projectId"":""051c06f1-75cc-4548-856d-4923ddaba0dc""}","https://test12345.live/?num_scrambled_semantic=8&num_scrambled_causal=4&num_scrambled_schematic=4&participantId=8FD48F2ED02A4A36B643A64C8342D78D&assignmentId=f482a0d5-73da-4d4d-89b5-af40f9d2175d&projectId=051c06f1-75cc-4548-856d-4923ddaba0dc","8FD48F2ED02A4A36B643A64C8342D78D-2025-05-15-18-52-10","","null","","images/causal_sequence/the_performance_causal/the_performance_causal_0.png","null","",""
"","","","","","image-button-response","25","139498","0.0-10.0-1.0-0.0","8FD48F2ED02A4A36B643A64C8342D78D","8FD48F2ED02A4A36B643A64C8342D78D","f482a0d5-73da-4d4d-89b5-af40f9d2175d","051c06f1-75cc-4548-856d-4923ddaba0dc","{""num_scrambled_semantic"":""8"",""num_scrambled_causal"":""4"",""num_scrambled_schematic"":""4"",""participantId"":""8FD48F2ED02A4A36B643A64C8342D78D"",""assignmentId"":""f482a0d5-73da-4d4d-89b5-af40f9d2175d"",""projectId"":""051c06f1-75cc-4548-856d-4923ddaba0dc""}","https://test12345.live/?num_scrambled_semantic=8&num_scrambled_causal=4&num_scrambled_schematic=4&participantId=8FD48F2ED02A4A36B643A64C8342D78D&assignmentId=f482a0d5-73da-4d4d-89b5-af40f9d2175d&projectId=051c06f1-75cc-4548-856d-4923ddaba0dc","8FD48F2ED02A4A36B643A64C8342D78D-2025-05-15-18-52-10","","null","","images/causal_sequence/the_performance_causal/the_performance_causal_8.png","null","",""
"","","","","","image-button-response","26","141690","0.0-10.0-1.0-1.0","8FD48F2ED02A4A36B643A64C8342D78D","8FD48F2ED02A4A36B643A64C8342D78D","f482a0d5-73da-4d4d-89b5-af40f9d2175d","051c06f1-75cc-4548-856d-4923ddaba0dc","{""num_scrambled_semantic"":""8"",""num_scrambled_causal"":""4"",""num_scrambled_schematic"":""4"",""participantId"":""8FD48F2ED02A4A36B643A64C8342D78D"",""assignmentId"":""f482a0d5-73da-4d4d-89b5-af40f9d2175d"",""projectId"":""051c06f1-75cc-4548-856d-4923ddaba0dc""}","https://test12345.live/?num_scrambled_semantic=8&num_scrambled_causal=4&num_scrambled_schematic=4&participantId=8FD48F2ED02A4A36B643A64C8342D78D&assignmentId=f482a0d5-73da-4d4d-89b5-af40f9d2175d&projectId=051c06f1-75cc-4548-856d-4923ddaba0dc","8FD48F2ED02A4A36B643A64C8342D78D-2025-05-15-18-52-10","","2191","","images/causal_sequence/the_performance_causal/the_performance_causal_8.png","0","",""
"","","","","","image-button-response","27","143492","0.0-10.0-1.0-2.0","8FD48F2ED02A4A36B643A64C8342D78D","8FD48F2ED02A4A36B643A64C8342D78D","f482a0d5-73da-4d4d-89b5-af40f9d2175d","051c06f1-75cc-4548-856d-4923ddaba0dc","{""num_scrambled_semantic"":""8"",""num_scrambled_causal"":""4"",""num_scrambled_schematic"":""4"",""participantId"":""8FD48F2ED02A4A36B643A64C8342D78D"",""assignmentId"":""f482a0d5-73da-4d4d-89b5-af40f9d2175d"",""projectId"":""051c06f1-75cc-4548-856d-4923ddaba0dc""}","https://test12345.live/?num_scrambled_semantic=8&num_scrambled_causal=4&num_scrambled_schematic=4&participantId=8FD48F2ED02A4A36B643A64C8342D78D&assignmentId=f482a0d5-73da-4d4d-89b5-af40f9d2175d&projectId=051c06f1-75cc-4548-856d-4923ddaba0dc","8FD48F2ED02A4A36B643A64C8342D78D-2025-05-15-18-52-10","","null","","[]","null","",""
"","","","","","image-button-response","28","147995","0.0-10.0-1.0-0.1","8FD48F2ED02A4A36B643A64C8342D78D","8FD48F2ED02A4A36B643A64C8342D78D","f482a0d5-73da-4d4d-89b5-af40f9d2175d","051c06f1-75cc-4548-856d-4923ddaba0dc","{""num_scrambled_semantic"":""8"",""num_scrambled_causal"":""4"",""num_scrambled_schematic"":""4"",""participantId"":""8FD48F2ED02A4A36B643A64C8342D78D"",""assignmentId"":""f482a0d5-73da-4d4d-89b5-af40f9d2175d"",""projectId"":""051c06f1-75cc-4548-856d-4923ddaba0dc""}","https://test12345.live/?num_scrambled_semantic=8&num_scrambled_causal=4&num_scrambled_schematic=4&participantId=8FD48F2ED02A4A36B643A64C8342D78D&assignmentId=f482a0d5-73da-4d4d-89b5-af40f9d2175d&projectId=051c06f1-75cc-4548-856d-4923ddaba0dc","8FD48F2ED02A4A36B643A64C8342D78D-2025-05-15-18-52-10","","null","","images/causal_sequence/the_performance_causal/the_performance_causal_6.png","null","",""
"","","","","","image-button-response","29","149147","0.0-10.0-1.0-1.1","8FD48F2ED02A4A36B643A64C8342D78D","8FD48F2ED02A4A36B643A64C8342D78D","f482a0d5-73da-4d4d-89b5-af40f9d2175d","051c06f1-75cc-4548-856d-4923ddaba0dc","{""num_scrambled_semantic"":""8"",""num_scrambled_causal"":""4"",""num_scrambled_schematic"":""4"",""participantId"":""8FD48F2ED02A4A36B643A64C8342D78D"",""assignmentId"":""f482a0d5-73da-4d4d-89b5-af40f9d2175d"",""projectId"":""051c06f1-75cc-4548-856d-4923ddaba0dc""}","https://test12345.live/?num_scrambled_semantic=8&num_scrambled_causal=4&num_scrambled_schematic=4&participantId=8FD48F2ED02A4A36B643A64C8342D78D&assignmentId=f482a0d5-73da-4d4d-89b5-af40f9d2175d&projectId=051c06f1-75cc-4548-856d-4923ddaba0dc","8FD48F2ED02A4A36B643A64C8342D78D-2025-05-15-18-52-10","","1150","","images/causal_sequence/the_performance_causal/the_performance_causal_6.png","0","",""
"","","","","","image-button-response","30","150965","0.0-10.0-1.0-2.1","8FD48F2ED02A4A36B643A64C8342D78D","8FD48F2ED02A4A36B643A64C8342D78D","f482a0d5-73da-4d4d-89b5-af40f9d2175d","051c06f1-75cc-4548-856d-4923ddaba0dc","{""num_scrambled_semantic"":""8"",""num_scrambled_causal"":""4"",""num_scrambled_schematic"":""4"",""participantId"":""8FD48F2ED02A4A36B643A64C8342D78D"",""assignmentId"":""f482a0d5-73da-4d4d-89b5-af40f9d2175d"",""projectId"":""051c06f1-75cc-4548-856d-4923ddaba0dc""}","https://test12345.live/?num_scrambled_semantic=8&num_scrambled_causal=4&num_scrambled_schematic=4&participantId=8FD48F2ED02A4A36B643A64C8342D78D&assignmentId=f482a0d5-73da-4d4d-89b5-af40f9d2175d&projectId=051c06f1-75cc-4548-856d-4923ddaba0dc","8FD48F2ED02A4A36B643A64C8342D78D-2025-05-15-18-52-10","","null","","[]","null","",""
"","","","","","image-button-response","31","155475","0.0-10.0-1.0-0.2","8FD48F2ED02A4A36B643A64C8342D78D","8FD48F2ED02A4A36B643A64C8342D78D","f482a0d5-73da-4d4d-89b5-af40f9d2175d","051c06f1-75cc-4548-856d-4923ddaba0dc","{""num_scrambled_semantic"":""8"",""num_scrambled_causal"":""4"",""num_scrambled_schematic"":""4"",""participantId"":""8FD48F2ED02A4A36B643A64C8342D78D"",""assignmentId"":""f482a0d5-73da-4d4d-89b5-af40f9d2175d"",""projectId"":""051c06f1-75cc-4548-856d-4923ddaba0dc""}","https://test12345.live/?num_scrambled_semantic=8&num_scrambled_causal=4&num_scrambled_schematic=4&participantId=8FD48F2ED02A4A36B643A64C8342D78D&assignmentId=f482a0d5-73da-4d4d-89b5-af40f9d2175d&projectId=051c06f1-75cc-4548-856d-4923ddaba0dc","8FD48F2ED02A4A36B643A64C8342D78D-2025-05-15-18-52-10","","null","","images/causal_sequence/the_performance_causal/the_performance_causal_4.png","null","",""
"","","","","","image-button-response","32","157215","0.0-10.0-1.0-1.2","8FD48F2ED02A4A36B643A64C8342D78D","8FD48F2ED02A4A36B643A64C8342D78D","f482a0d5-73da-4d4d-89b5-af40f9d2175d","051c06f1-75cc-4548-856d-4923ddaba0dc","{""num_scrambled_semantic"":""8"",""num_scrambled_causal"":""4"",""num_scrambled_schematic"":""4"",""participantId"":""8FD48F2ED02A4A36B643A64C8342D78D"",""assignmentId"":""f482a0d5-73da-4d4d-89b5-af40f9d2175d"",""projectId"":""051c06f1-75cc-4548-856d-4923ddaba0dc""}","https://test12345.live/?num_scrambled_semantic=8&num_scrambled_causal=4&num_scrambled_schematic=4&participantId=8FD48F2ED02A4A36B643A64C8342D78D&assignmentId=f482a0d5-73da-4d4d-89b5-af40f9d2175d&projectId=051c06f1-75cc-4548-856d-4923ddaba0dc","8FD48F2ED02A4A36B643A64C8342D78D-2025-05-15-18-52-10","","1737","","images/causal_sequence/the_performance_causal/the_performance_causal_4.png","0","",""
"","","","","","image-button-response","33","159016","0.0-10.0-1.0-2.2","8FD48F2ED02A4A36B643A64C8342D78D","8FD48F2ED02A4A36B643A64C8342D78D","f482a0d5-73da-4d4d-89b5-af40f9d2175d","051c06f1-75cc-4548-856d-4923ddaba0dc","{""num_scrambled_semantic"":""8"",""num_scrambled_causal"":""4"",""num_scrambled_schematic"":""4"",""participantId"":""8FD48F2ED02A4A36B643A64C8342D78D"",""assignmentId"":""f482a0d5-73da-4d4d-89b5-af40f9d2175d"",""projectId"":""051c06f1-75cc-4548-856d-4923ddaba0dc""}","https://test12345.live/?num_scrambled_semantic=8&num_scrambled_causal=4&num_scrambled_schematic=4&participantId=8FD48F2ED02A4A36B643A64C8342D78D&assignmentId=f482a0d5-73da-4d4d-89b5-af40f9d2175d&projectId=051c06f1-75cc-4548-856d-4923ddaba0dc","8FD48F2ED02A4A36B643A64C8342D78D-2025-05-15-18-52-10","","null","","[]","null","",""
"","","","","","image-button-response","34","163521","0.0-10.0-1.0-0.3","8FD48F2ED02A4A36B643A64C8342D78D","8FD48F2ED02A4A36B643A64C8342D78D","f482a0d5-73da-4d4d-89b5-af40f9d2175d","051c06f1-75cc-4548-856d-4923ddaba0dc","{""num_scrambled_semantic"":""8"",""num_scrambled_causal"":""4"",""num_scrambled_schematic"":""4"",""participantId"":""8FD48F2ED02A4A36B643A64C8342D78D"",""assignmentId"":""f482a0d5-73da-4d4d-89b5-af40f9d2175d"",""projectId"":""051c06f1-75cc-4548-856d-4923ddaba0dc""}","https://test12345.live/?num_scrambled_semantic=8&num_scrambled_causal=4&num_scrambled_schematic=4&participantId=8FD48F2ED02A4A36B643A64C8342D78D&assignmentId=f482a0d5-73da-4d4d-89b5-af40f9d2175d&projectId=051c06f1-75cc-4548-856d-4923ddaba0dc","8FD48F2ED02A4A36B643A64C8342D78D-2025-05-15-18-52-10","","null","","images/causal_sequence/the_performance_causal/the_performance_causal_9.png","null","",""
"","","","","","image-button-response","35","164409","0.0-10.0-1.0-1.3","8FD48F2ED02A4A36B643A64C8342D78D","8FD48F2ED02A4A36B643A64C8342D78D","f482a0d5-73da-4d4d-89b5-af40f9d2175d","051c06f1-75cc-4548-856d-4923ddaba0dc","{""num_scrambled_semantic"":""8"",""num_scrambled_causal"":""4"",""num_scrambled_schematic"":""4"",""participantId"":""8FD48F2ED02A4A36B643A64C8342D78D"",""assignmentId"":""f482a0d5-73da-4d4d-89b5-af40f9d2175d"",""projectId"":""051c06f1-75cc-4548-856d-4923ddaba0dc""}","https://test12345.live/?num_scrambled_semantic=8&num_scrambled_causal=4&num_scrambled_schematic=4&participantId=8FD48F2ED02A4A36B643A64C8342D78D&assignmentId=f482a0d5-73da-4d4d-89b5-af40f9d2175d&projectId=051c06f1-75cc-4548-856d-4923ddaba0dc","8FD48F2ED02A4A36B643A64C8342D78D-2025-05-15-18-52-10","","886","","images/causal_sequence/the_performance_causal/the_performance_causal_9.png","0","",""
"","","","","","image-button-response","36","166217","0.0-10.0-1.0-2.3","8FD48F2ED02A4A36B643A64C8342D78D","8FD48F2ED02A4A36B643A64C8342D78D","f482a0d5-73da-4d4d-89b5-af40f9d2175d","051c06f1-75cc-4548-856d-4923ddaba0dc","{""num_scrambled_semantic"":""8"",""num_scrambled_causal"":""4"",""num_scrambled_schematic"":""4"",""participantId"":""8FD48F2ED02A4A36B643A64C8342D78D"",""assignmentId"":""f482a0d5-73da-4d4d-89b5-af40f9d2175d"",""projectId"":""051c06f1-75cc-4548-856d-4923ddaba0dc""}","https://test12345.live/?num_scrambled_semantic=8&num_scrambled_causal=4&num_scrambled_schematic=4&participantId=8FD48F2ED02A4A36B643A64C8342D78D&assignmentId=f482a0d5-73da-4d4d-89b5-af40f9d2175d&projectId=051c06f1-75cc-4548-856d-4923ddaba0dc","8FD48F2ED02A4A36B643A64C8342D78D-2025-05-15-18-52-10","","null","","[]","null","",""
"","","","","","image-button-response","37","170735","0.0-10.0-1.0-0.4","8FD48F2ED02A4A36B643A64C8342D78D","8FD48F2ED02A4A36B643A64C8342D78D","f482a0d5-73da-4d4d-89b5-af40f9d2175d","051c06f1-75cc-4548-856d-4923ddaba0dc","{""num_scrambled_semantic"":""8"",""num_scrambled_causal"":""4"",""num_scrambled_schematic"":""4"",""participantId"":""8FD48F2ED02A4A36B643A64C8342D78D"",""assignmentId"":""f482a0d5-73da-4d4d-89b5-af40f9d2175d"",""projectId"":""051c06f1-75cc-4548-856d-4923ddaba0dc""}","https://test12345.live/?num_scrambled_semantic=8&num_scrambled_causal=4&num_scrambled_schematic=4&participantId=8FD48F2ED02A4A36B643A64C8342D78D&assignmentId=f482a0d5-73da-4d4d-89b5-af40f9d2175d&projectId=051c06f1-75cc-4548-856d-4923ddaba0dc","8FD48F2ED02A4A36B643A64C8342D78D-2025-05-15-18-52-10","","null","","images/causal_sequence/the_performance_causal/the_performance_causal_7.png","null","",""
"","","","","","image-button-response","38","171705","0.0-10.0-1.0-1.4","8FD48F2ED02A4A36B643A64C8342D78D","8FD48F2ED02A4A36B643A64C8342D78D","f482a0d5-73da-4d4d-89b5-af40f9d2175d","051c06f1-75cc-4548-856d-4923ddaba0dc","{""num_scrambled_semantic"":""8"",""num_scrambled_causal"":""4"",""num_scrambled_schematic"":""4"",""participantId"":""8FD48F2ED02A4A36B643A64C8342D78D"",""assignmentId"":""f482a0d5-73da-4d4d-89b5-af40f9d2175d"",""projectId"":""051c06f1-75cc-4548-856d-4923ddaba0dc""}","https://test12345.live/?num_scrambled_semantic=8&num_scrambled_causal=4&num_scrambled_schematic=4&participantId=8FD48F2ED02A4A36B643A64C8342D78D&assignmentId=f482a0d5-73da-4d4d-89b5-af40f9d2175d&projectId=051c06f1-75cc-4548-856d-4923ddaba0dc","8FD48F2ED02A4A36B643A64C8342D78D-2025-05-15-18-52-10","","968","","images/causal_sequence/the_performance_causal/the_performance_causal_7.png","0","",""
"","","","","","image-button-response","39","173514","0.0-10.0-1.0-2.4","8FD48F2ED02A4A36B643A64C8342D78D","8FD48F2ED02A4A36B643A64C8342D78D","f482a0d5-73da-4d4d-89b5-af40f9d2175d","051c06f1-75cc-4548-856d-4923ddaba0dc","{""num_scrambled_semantic"":""8"",""num_scrambled_causal"":""4"",""num_scrambled_schematic"":""4"",""participantId"":""8FD48F2ED02A4A36B643A64C8342D78D"",""assignmentId"":""f482a0d5-73da-4d4d-89b5-af40f9d2175d"",""projectId"":""051c06f1-75cc-4548-856d-4923ddaba0dc""}","https://test12345.live/?num_scrambled_semantic=8&num_scrambled_causal=4&num_scrambled_schematic=4&participantId=8FD48F2ED02A4A36B643A64C8342D78D&assignmentId=f482a0d5-73da-4d4d-89b5-af40f9d2175d&projectId=051c06f1-75cc-4548-856d-4923ddaba0dc","8FD48F2ED02A4A36B643A64C8342D78D-2025-05-15-18-52-10","","null","","[]","null","",""
"","","","","","image-button-response","40","178018","0.0-10.0-1.0-0.5","8FD48F2ED02A4A36B643A64C8342D78D","8FD48F2ED02A4A36B643A64C8342D78D","f482a0d5-73da-4d4d-89b5-af40f9d2175d","051c06f1-75cc-4548-856d-4923ddaba0dc","{""num_scrambled_semantic"":""8"",""num_scrambled_causal"":""4"",""num_scrambled_schematic"":""4"",""participantId"":""8FD48F2ED02A4A36B643A64C8342D78D"",""assignmentId"":""f482a0d5-73da-4d4d-89b5-af40f9d2175d"",""projectId"":""051c06f1-75cc-4548-856d-4923ddaba0dc""}","https://test12345.live/?num_scrambled_semantic=8&num_scrambled_causal=4&num_scrambled_schematic=4&participantId=8FD48F2ED02A4A36B643A64C8342D78D&assignmentId=f482a0d5-73da-4d4d-89b5-af40f9d2175d&projectId=051c06f1-75cc-4548-856d-4923ddaba0dc","8FD48F2ED02A4A36B643A64C8342D78D-2025-05-15-18-52-10","","null","","images/causal_sequence/the_performance_causal/the_performance_causal_3.png","null","",""
"","","","","","image-button-response","41","179107","0.0-10.0-1.0-1.5","8FD48F2ED02A4A36B643A64C8342D78D","8FD48F2ED02A4A36B643A64C8342D78D","f482a0d5-73da-4d4d-89b5-af40f9d2175d","051c06f1-75cc-4548-856d-4923ddaba0dc","{""num_scrambled_semantic"":""8"",""num_scrambled_causal"":""4"",""num_scrambled_schematic"":""4"",""participantId"":""8FD48F2ED02A4A36B643A64C8342D78D"",""assignmentId"":""f482a0d5-73da-4d4d-89b5-af40f9d2175d"",""projectId"":""051c06f1-75cc-4548-856d-4923ddaba0dc""}","https://test12345.live/?num_scrambled_semantic=8&num_scrambled_causal=4&num_scrambled_schematic=4&participantId=8FD48F2ED02A4A36B643A64C8342D78D&assignmentId=f482a0d5-73da-4d4d-89b5-af40f9d2175d&projectId=051c06f1-75cc-4548-856d-4923ddaba0dc","8FD48F2ED02A4A36B643A64C8342D78D-2025-05-15-18-52-10","","1086","","images/causal_sequence/the_performance_causal/the_performance_causal_3.png","0","",""
"","","","","","image-button-response","42","180908","0.0-10.0-1.0-2.5","8FD48F2ED02A4A36B643A64C8342D78D","8FD48F2ED02A4A36B643A64C8342D78D","f482a0d5-73da-4d4d-89b5-af40f9d2175d","051c06f1-75cc-4548-856d-4923ddaba0dc","{""num_scrambled_semantic"":""8"",""num_scrambled_causal"":""4"",""num_scrambled_schematic"":""4"",""participantId"":""8FD48F2ED02A4A36B643A64C8342D78D"",""assignmentId"":""f482a0d5-73da-4d4d-89b5-af40f9d2175d"",""projectId"":""051c06f1-75cc-4548-856d-4923ddaba0dc""}","https://test12345.live/?num_scrambled_semantic=8&num_scrambled_causal=4&num_scrambled_schematic=4&participantId=8FD48F2ED02A4A36B643A64C8342D78D&assignmentId=f482a0d5-73da-4d4d-89b5-af40f9d2175d&projectId=051c06f1-75cc-4548-856d-4923ddaba0dc","8FD48F2ED02A4A36B643A64C8342D78D-2025-05-15-18-52-10","","null","","[]","null","",""
"","","","","","image-button-response","43","185417","0.0-10.0-1.0-0.6","8FD48F2ED02A4A36B643A64C8342D78D","8FD48F2ED02A4A36B643A64C8342D78D","f482a0d5-73da-4d4d-89b5-af40f9d2175d","051c06f1-75cc-4548-856d-4923ddaba0dc","{""num_scrambled_semantic"":""8"",""num_scrambled_causal"":""4"",""num_scrambled_schematic"":""4"",""participantId"":""8FD48F2ED02A4A36B643A64C8342D78D"",""assignmentId"":""f482a0d5-73da-4d4d-89b5-af40f9d2175d"",""projectId"":""051c06f1-75cc-4548-856d-4923ddaba0dc""}","https://test12345.live/?num_scrambled_semantic=8&num_scrambled_causal=4&num_scrambled_schematic=4&participantId=8FD48F2ED02A4A36B643A64C8342D78D&assignmentId=f482a0d5-73da-4d4d-89b5-af40f9d2175d&projectId=051c06f1-75cc-4548-856d-4923ddaba0dc","8FD48F2ED02A4A36B643A64C8342D78D-2025-05-15-18-52-10","","null","","images/causal_sequence/the_performance_causal/the_performance_causal_2.png","null","",""
"","","","","","image-button-response","44","187774","0.0-10.0-1.0-1.6","8FD48F2ED02A4A36B643A64C8342D78D","8FD48F2ED02A4A36B643A64C8342D78D","f482a0d5-73da-4d4d-89b5-af40f9d2175d","051c06f1-75cc-4548-856d-4923ddaba0dc","{""num_scrambled_semantic"":""8"",""num_scrambled_causal"":""4"",""num_scrambled_schematic"":""4"",""participantId"":""8FD48F2ED02A4A36B643A64C8342D78D"",""assignmentId"":""f482a0d5-73da-4d4d-89b5-af40f9d2175d"",""projectId"":""051c06f1-75cc-4548-856d-4923ddaba0dc""}","https://test12345.live/?num_scrambled_semantic=8&num_scrambled_causal=4&num_scrambled_schematic=4&participantId=8FD48F2ED02A4A36B643A64C8342D78D&assignmentId=f482a0d5-73da-4d4d-89b5-af40f9d2175d&projectId=051c06f1-75cc-4548-856d-4923ddaba0dc","8FD48F2ED02A4A36B643A64C8342D78D-2025-05-15-18-52-10","","2356","","images/causal_sequence/the_performance_causal/the_performance_causal_2.png","0","",""
"","","","","","image-button-response","45","189577","0.0-10.0-1.0-2.6","8FD48F2ED02A4A36B643A64C8342D78D","8FD48F2ED02A4A36B643A64C8342D78D","f482a0d5-73da-4d4d-89b5-af40f9d2175d","051c06f1-75cc-4548-856d-4923ddaba0dc","{""num_scrambled_semantic"":""8"",""num_scrambled_causal"":""4"",""num_scrambled_schematic"":""4"",""participantId"":""8FD48F2ED02A4A36B643A64C8342D78D"",""assignmentId"":""f482a0d5-73da-4d4d-89b5-af40f9d2175d"",""projectId"":""051c06f1-75cc-4548-856d-4923ddaba0dc""}","https://test12345.live/?num_scrambled_semantic=8&num_scrambled_causal=4&num_scrambled_schematic=4&participantId=8FD48F2ED02A4A36B643A64C8342D78D&assignmentId=f482a0d5-73da-4d4d-89b5-af40f9d2175d&projectId=051c06f1-75cc-4548-856d-4923ddaba0dc","8FD48F2ED02A4A36B643A64C8342D78D-2025-05-15-18-52-10","","null","","[]","null","",""
"","","","","","image-button-response","46","194095","0.0-10.0-1.0-0.7","8FD48F2ED02A4A36B643A64C8342D78D","8FD48F2ED02A4A36B643A64C8342D78D","f482a0d5-73da-4d4d-89b5-af40f9d2175d","051c06f1-75cc-4548-856d-4923ddaba0dc","{""num_scrambled_semantic"":""8"",""num_scrambled_causal"":""4"",""num_scrambled_schematic"":""4"",""participantId"":""8FD48F2ED02A4A36B643A64C8342D78D"",""assignmentId"":""f482a0d5-73da-4d4d-89b5-af40f9d2175d"",""projectId"":""051c06f1-75cc-4548-856d-4923ddaba0dc""}","https://test12345.live/?num_scrambled_semantic=8&num_scrambled_causal=4&num_scrambled_schematic=4&participantId=8FD48F2ED02A4A36B643A64C8342D78D&assignmentId=f482a0d5-73da-4d4d-89b5-af40f9d2175d&projectId=051c06f1-75cc-4548-856d-4923ddaba0dc","8FD48F2ED02A4A36B643A64C8342D78D-2025-05-15-18-52-10","","null","","images/causal_sequence/the_performance_causal/the_performance_causal_5.png","null","",""
"","","","","","image-button-response","47","195231","0.0-10.0-1.0-1.7","8FD48F2ED02A4A36B643A64C8342D78D","8FD48F2ED02A4A36B643A64C8342D78D","f482a0d5-73da-4d4d-89b5-af40f9d2175d","051c06f1-75cc-4548-856d-4923ddaba0dc","{""num_scrambled_semantic"":""8"",""num_scrambled_causal"":""4"",""num_scrambled_schematic"":""4"",""participantId"":""8FD48F2ED02A4A36B643A64C8342D78D"",""assignmentId"":""f482a0d5-73da-4d4d-89b5-af40f9d2175d"",""projectId"":""051c06f1-75cc-4548-856d-4923ddaba0dc""}","https://test12345.live/?num_scrambled_semantic=8&num_scrambled_causal=4&num_scrambled_schematic=4&participantId=8FD48F2ED02A4A36B643A64C8342D78D&assignmentId=f482a0d5-73da-4d4d-89b5-af40f9d2175d&projectId=051c06f1-75cc-4548-856d-4923ddaba0dc","8FD48F2ED02A4A36B643A64C8342D78D-2025-05-15-18-52-10","","1134","","images/causal_sequence/the_performance_causal/the_performance_causal_5.png","0","",""
"","","","","","image-button-response","48","197041","0.0-10.0-1.0-2.7","8FD48F2ED02A4A36B643A64C8342D78D","8FD48F2ED02A4A36B643A64C8342D78D","f482a0d5-73da-4d4d-89b5-af40f9d2175d","051c06f1-75cc-4548-856d-4923ddaba0dc","{""num_scrambled_semantic"":""8"",""num_scrambled_causal"":""4"",""num_scrambled_schematic"":""4"",""participantId"":""8FD48F2ED02A4A36B643A64C8342D78D"",""assignmentId"":""f482a0d5-73da-4d4d-89b5-af40f9d2175d"",""projectId"":""051c06f1-75cc-4548-856d-4923ddaba0dc""}","https://test12345.live/?num_scrambled_semantic=8&num_scrambled_causal=4&num_scrambled_schematic=4&participantId=8FD48F2ED02A4A36B643A64C8342D78D&assignmentId=f482a0d5-73da-4d4d-89b5-af40f9d2175d&projectId=051c06f1-75cc-4548-856d-4923ddaba0dc","8FD48F2ED02A4A36B643A64C8342D78D-2025-05-15-18-52-10","","null","","[]","null","",""
"","","","","","image-button-response","49","201555","0.0-10.0-1.0-0.8","8FD48F2ED02A4A36B643A64C8342D78D","8FD48F2ED02A4A36B643A64C8342D78D","f482a0d5-73da-4d4d-89b5-af40f9d2175d","051c06f1-75cc-4548-856d-4923ddaba0dc","{""num_scrambled_semantic"":""8"",""num_scrambled_causal"":""4"",""num_scrambled_schematic"":""4"",""participantId"":""8FD48F2ED02A4A36B643A64C8342D78D"",""assignmentId"":""f482a0d5-73da-4d4d-89b5-af40f9d2175d"",""projectId"":""051c06f1-75cc-4548-856d-4923ddaba0dc""}","https://test12345.live/?num_scrambled_semantic=8&num_scrambled_causal=4&num_scrambled_schematic=4&participantId=8FD48F2ED02A4A36B643A64C8342D78D&assignmentId=f482a0d5-73da-4d4d-89b5-af40f9d2175d&projectId=051c06f1-75cc-4548-856d-4923ddaba0dc","8FD48F2ED02A4A36B643A64C8342D78D-2025-05-15-18-52-10","","null","","images/causal_sequence/the_performance_causal/the_performance_causal_ten.png","null","",""
"","","","","","image-button-response","50","203343","0.0-10.0-1.0-1.8","8FD48F2ED02A4A36B643A64C8342D78D","8FD48F2ED02A4A36B643A64C8342D78D","f482a0d5-73da-4d4d-89b5-af40f9d2175d","051c06f1-75cc-4548-856d-4923ddaba0dc","{""num_scrambled_semantic"":""8"",""num_scrambled_causal"":""4"",""num_scrambled_schematic"":""4"",""participantId"":""8FD48F2ED02A4A36B643A64C8342D78D"",""assignmentId"":""f482a0d5-73da-4d4d-89b5-af40f9d2175d"",""projectId"":""051c06f1-75cc-4548-856d-4923ddaba0dc""}","https://test12345.live/?num_scrambled_semantic=8&num_scrambled_causal=4&num_scrambled_schematic=4&participantId=8FD48F2ED02A4A36B643A64C8342D78D&assignmentId=f482a0d5-73da-4d4d-89b5-af40f9d2175d&projectId=051c06f1-75cc-4548-856d-4923ddaba0dc","8FD48F2ED02A4A36B643A64C8342D78D-2025-05-15-18-52-10","","1786","","images/causal_sequence/the_performance_causal/the_performance_causal_ten.png","0","",""
"","","","","","image-button-response","51","205157","0.0-10.0-1.0-2.8","8FD48F2ED02A4A36B643A64C8342D78D","8FD48F2ED02A4A36B643A64C8342D78D","f482a0d5-73da-4d4d-89b5-af40f9d2175d","051c06f1-75cc-4548-856d-4923ddaba0dc","{""num_scrambled_semantic"":""8"",""num_scrambled_causal"":""4"",""num_scrambled_schematic"":""4"",""participantId"":""8FD48F2ED02A4A36B643A64C8342D78D"",""assignmentId"":""f482a0d5-73da-4d4d-89b5-af40f9d2175d"",""projectId"":""051c06f1-75cc-4548-856d-4923ddaba0dc""}","https://test12345.live/?num_scrambled_semantic=8&num_scrambled_causal=4&num_scrambled_schematic=4&participantId=8FD48F2ED02A4A36B643A64C8342D78D&assignmentId=f482a0d5-73da-4d4d-89b5-af40f9d2175d&projectId=051c06f1-75cc-4548-856d-4923ddaba0dc","8FD48F2ED02A4A36B643A64C8342D78D-2025-05-15-18-52-10","","null","","[]","null","",""
"","","","","","image-button-response","52","209668","0.0-10.0-1.0-0.9","8FD48F2ED02A4A36B643A64C8342D78D","8FD48F2ED02A4A36B643A64C8342D78D","f482a0d5-73da-4d4d-89b5-af40f9d2175d","051c06f1-75cc-4548-856d-4923ddaba0dc","{""num_scrambled_semantic"":""8"",""num_scrambled_causal"":""4"",""num_scrambled_schematic"":""4"",""participantId"":""8FD48F2ED02A4A36B643A64C8342D78D"",""assignmentId"":""f482a0d5-73da-4d4d-89b5-af40f9d2175d"",""projectId"":""051c06f1-75cc-4548-856d-4923ddaba0dc""}","https://test12345.live/?num_scrambled_semantic=8&num_scrambled_causal=4&num_scrambled_schematic=4&participantId=8FD48F2ED02A4A36B643A64C8342D78D&assignmentId=f482a0d5-73da-4d4d-89b5-af40f9d2175d&projectId=051c06f1-75cc-4548-856d-4923ddaba0dc","8FD48F2ED02A4A36B643A64C8342D78D-2025-05-15-18-52-10","","null","","images/causal_sequence/the_performance_causal/the_performance_causal_1.png","null","",""
"","","","","","image-button-response","53","210516","0.0-10.0-1.0-1.9","8FD48F2ED02A4A36B643A64C8342D78D","8FD48F2ED02A4A36B643A64C8342D78D","f482a0d5-73da-4d4d-89b5-af40f9d2175d","051c06f1-75cc-4548-856d-4923ddaba0dc","{""num_scrambled_semantic"":""8"",""num_scrambled_causal"":""4"",""num_scrambled_schematic"":""4"",""participantId"":""8FD48F2ED02A4A36B643A64C8342D78D"",""assignmentId"":""f482a0d5-73da-4d4d-89b5-af40f9d2175d"",""projectId"":""051c06f1-75cc-4548-856d-4923ddaba0dc""}","https://test12345.live/?num_scrambled_semantic=8&num_scrambled_causal=4&num_scrambled_schematic=4&participantId=8FD48F2ED02A4A36B643A64C8342D78D&assignmentId=f482a0d5-73da-4d4d-89b5-af40f9d2175d&projectId=051c06f1-75cc-4548-856d-4923ddaba0dc","8FD48F2ED02A4A36B643A64C8342D78D-2025-05-15-18-52-10","","846","","images/causal_sequence/the_performance_causal/the_performance_causal_1.png","0","",""
"","","","","","image-button-response","54","212327","0.0-10.0-1.0-2.9","8FD48F2ED02A4A36B643A64C8342D78D","8FD48F2ED02A4A36B643A64C8342D78D","f482a0d5-73da-4d4d-89b5-af40f9d2175d","051c06f1-75cc-4548-856d-4923ddaba0dc","{""num_scrambled_semantic"":""8"",""num_scrambled_causal"":""4"",""num_scrambled_schematic"":""4"",""participantId"":""8FD48F2ED02A4A36B643A64C8342D78D"",""assignmentId"":""f482a0d5-73da-4d4d-89b5-af40f9d2175d"",""projectId"":""051c06f1-75cc-4548-856d-4923ddaba0dc""}","https://test12345.live/?num_scrambled_semantic=8&num_scrambled_causal=4&num_scrambled_schematic=4&participantId=8FD48F2ED02A4A36B643A64C8342D78D&assignmentId=f482a0d5-73da-4d4d-89b5-af40f9d2175d&projectId=051c06f1-75cc-4548-856d-4923ddaba0dc","8FD48F2ED02A4A36B643A64C8342D78D-2025-05-15-18-52-10","","null","","[]","null","",""
"","","","","","html-audio-response","55","322762","0.0-11.0","8FD48F2ED02A4A36B643A64C8342D78D","8FD48F2ED02A4A36B643A64C8342D78D","f482a0d5-73da-4d4d-89b5-af40f9d2175d","051c06f1-75cc-4548-856d-4923ddaba0dc","{""num_scrambled_semantic"":""8"",""num_scrambled_causal"":""4"",""num_scrambled_schematic"":""4"",""participantId"":""8FD48F2ED02A4A36B643A64C8342D78D"",""assignmentId"":""f482a0d5-73da-4d4d-89b5-af40f9d2175d"",""projectId"":""051c06f1-75cc-4548-856d-4923ddaba0dc""}","https://test12345.live/?num_scrambled_semantic=8&num_scrambled_causal=4&num_scrambled_schematic=4&participantId=8FD48F2ED02A4A36B643A64C8342D78D&assignmentId=f482a0d5-73da-4d4d-89b5-af40f9d2175d&projectId=051c06f1-75cc-4548-856d-4923ddaba0dc","8FD48F2ED02A4A36B643A64C8342D78D-2025-05-15-18-52-10","","37764","","[""<span style=\""color: red; font-size: 24px\""> NOW RECORDING</span><p>Please say out loud all the images you saw, as many as you can remember. The images can be said in any order.</p>""]","","4","the_performance_causal"
"","","","","","image-button-response","56","328780","0.0-12.0-0.0","8FD48F2ED02A4A36B643A64C8342D78D","8FD48F2ED02A4A36B643A64C8342D78D","f482a0d5-73da-4d4d-89b5-af40f9d2175d","051c06f1-75cc-4548-856d-4923ddaba0dc","{""num_scrambled_semantic"":""8"",""num_scrambled_causal"":""4"",""num_scrambled_schematic"":""4"",""participantId"":""8FD48F2ED02A4A36B643A64C8342D78D"",""assignmentId"":""f482a0d5-73da-4d4d-89b5-af40f9d2175d"",""projectId"":""051c06f1-75cc-4548-856d-4923ddaba0dc""}","https://test12345.live/?num_scrambled_semantic=8&num_scrambled_causal=4&num_scrambled_schematic=4&participantId=8FD48F2ED02A4A36B643A64C8342D78D&assignmentId=f482a0d5-73da-4d4d-89b5-af40f9d2175d&projectId=051c06f1-75cc-4548-856d-4923ddaba0dc","8FD48F2ED02A4A36B643A64C8342D78D-2025-05-15-18-52-10","","null","","images/semantic_sequence/using_technology_semantic/using_technology_semantic_0.png","null","",""
"","","","","","image-button-response","57","333285","0.0-12.0-1.0-0.0","8FD48F2ED02A4A36B643A64C8342D78D","8FD48F2ED02A4A36B643A64C8342D78D","f482a0d5-73da-4d4d-89b5-af40f9d2175d","051c06f1-75cc-4548-856d-4923ddaba0dc","{""num_scrambled_semantic"":""8"",""num_scrambled_causal"":""4"",""num_scrambled_schematic"":""4"",""participantId"":""8FD48F2ED02A4A36B643A64C8342D78D"",""assignmentId"":""f482a0d5-73da-4d4d-89b5-af40f9d2175d"",""projectId"":""051c06f1-75cc-4548-856d-4923ddaba0dc""}","https://test12345.live/?num_scrambled_semantic=8&num_scrambled_causal=4&num_scrambled_schematic=4&participantId=8FD48F2ED02A4A36B643A64C8342D78D&assignmentId=f482a0d5-73da-4d4d-89b5-af40f9d2175d&projectId=051c06f1-75cc-4548-856d-4923ddaba0dc","8FD48F2ED02A4A36B643A64C8342D78D-2025-05-15-18-52-10","","null","","images/semantic_sequence/using_technology_semantic/using_technology_semantic_3.png","null","",""
"","","","","","image-button-response","58","334332","0.0-12.0-1.0-1.0","8FD48F2ED02A4A36B643A64C8342D78D","8FD48F2ED02A4A36B643A64C8342D78D","f482a0d5-73da-4d4d-89b5-af40f9d2175d","051c06f1-75cc-4548-856d-4923ddaba0dc","{""num_scrambled_semantic"":""8"",""num_scrambled_causal"":""4"",""num_scrambled_schematic"":""4"",""participantId"":""8FD48F2ED02A4A36B643A64C8342D78D"",""assignmentId"":""f482a0d5-73da-4d4d-89b5-af40f9d2175d"",""projectId"":""051c06f1-75cc-4548-856d-4923ddaba0dc""}","https://test12345.live/?num_scrambled_semantic=8&num_scrambled_causal=4&num_scrambled_schematic=4&participantId=8FD48F2ED02A4A36B643A64C8342D78D&assignmentId=f482a0d5-73da-4d4d-89b5-af40f9d2175d&projectId=051c06f1-75cc-4548-856d-4923ddaba0dc","8FD48F2ED02A4A36B643A64C8342D78D-2025-05-15-18-52-10","","1046","","images/semantic_sequence/using_technology_semantic/using_technology_semantic_3.png","0","",""
"","","","","","image-button-response","59","336144","0.0-12.0-1.0-2.0","8FD48F2ED02A4A36B643A64C8342D78D","8FD48F2ED02A4A36B643A64C8342D78D","f482a0d5-73da-4d4d-89b5-af40f9d2175d","051c06f1-75cc-4548-856d-4923ddaba0dc","{""num_scrambled_semantic"":""8"",""num_scrambled_causal"":""4"",""num_scrambled_schematic"":""4"",""participantId"":""8FD48F2ED02A4A36B643A64C8342D78D"",""assignmentId"":""f482a0d5-73da-4d4d-89b5-af40f9d2175d"",""projectId"":""051c06f1-75cc-4548-856d-4923ddaba0dc""}","https://test12345.live/?num_scrambled_semantic=8&num_scrambled_causal=4&num_scrambled_schematic=4&participantId=8FD48F2ED02A4A36B643A64C8342D78D&assignmentId=f482a0d5-73da-4d4d-89b5-af40f9d2175d&projectId=051c06f1-75cc-4548-856d-4923ddaba0dc","8FD48F2ED02A4A36B643A64C8342D78D-2025-05-15-18-52-10","","null","","[]","null","",""
"","","","","","image-button-response","60","340648","0.0-12.0-1.0-0.1","8FD48F2ED02A4A36B643A64C8342D78D","8FD48F2ED02A4A36B643A64C8342D78D","f482a0d5-73da-4d4d-89b5-af40f9d2175d","051c06f1-75cc-4548-856d-4923ddaba0dc","{""num_scrambled_semantic"":""8"",""num_scrambled_causal"":""4"",""num_scrambled_schematic"":""4"",""participantId"":""8FD48F2ED02A4A36B643A64C8342D78D"",""assignmentId"":""f482a0d5-73da-4d4d-89b5-af40f9d2175d"",""projectId"":""051c06f1-75cc-4548-856d-4923ddaba0dc""}","https://test12345.live/?num_scrambled_semantic=8&num_scrambled_causal=4&num_scrambled_schematic=4&participantId=8FD48F2ED02A4A36B643A64C8342D78D&assignmentId=f482a0d5-73da-4d4d-89b5-af40f9d2175d&projectId=051c06f1-75cc-4548-856d-4923ddaba0dc","8FD48F2ED02A4A36B643A64C8342D78D-2025-05-15-18-52-10","","null","","images/semantic_sequence/using_technology_semantic/using_technology_semantic_4.png","null","",""
"","","","","","image-button-response","61","341399","0.0-12.0-1.0-1.1","8FD48F2ED02A4A36B643A64C8342D78D","8FD48F2ED02A4A36B643A64C8342D78D","f482a0d5-73da-4d4d-89b5-af40f9d2175d","051c06f1-75cc-4548-856d-4923ddaba0dc","{""num_scrambled_semantic"":""8"",""num_scrambled_causal"":""4"",""num_scrambled_schematic"":""4"",""participantId"":""8FD48F2ED02A4A36B643A64C8342D78D"",""assignmentId"":""f482a0d5-73da-4d4d-89b5-af40f9d2175d"",""projectId"":""051c06f1-75cc-4548-856d-4923ddaba0dc""}","https://test12345.live/?num_scrambled_semantic=8&num_scrambled_causal=4&num_scrambled_schematic=4&participantId=8FD48F2ED02A4A36B643A64C8342D78D&assignmentId=f482a0d5-73da-4d4d-89b5-af40f9d2175d&projectId=051c06f1-75cc-4548-856d-4923ddaba0dc","8FD48F2ED02A4A36B643A64C8342D78D-2025-05-15-18-52-10","","750","","images/semantic_sequence/using_technology_semantic/using_technology_semantic_4.png","0","",""
"","","","","","image-button-response","62","343215","0.0-12.0-1.0-2.1","8FD48F2ED02A4A36B643A64C8342D78D","8FD48F2ED02A4A36B643A64C8342D78D","f482a0d5-73da-4d4d-89b5-af40f9d2175d","051c06f1-75cc-4548-856d-4923ddaba0dc","{""num_scrambled_semantic"":""8"",""num_scrambled_causal"":""4"",""num_scrambled_schematic"":""4"",""participantId"":""8FD48F2ED02A4A36B643A64C8342D78D"",""assignmentId"":""f482a0d5-73da-4d4d-89b5-af40f9d2175d"",""projectId"":""051c06f1-75cc-4548-856d-4923ddaba0dc""}","https://test12345.live/?num_scrambled_semantic=8&num_scrambled_causal=4&num_scrambled_schematic=4&participantId=8FD48F2ED02A4A36B643A64C8342D78D&assignmentId=f482a0d5-73da-4d4d-89b5-af40f9d2175d&projectId=051c06f1-75cc-4548-856d-4923ddaba0dc","8FD48F2ED02A4A36B643A64C8342D78D-2025-05-15-18-52-10","","null","","[]","null","",""
"","","","","","image-button-response","63","347721","0.0-12.0-1.0-0.2","8FD48F2ED02A4A36B643A64C8342D78D","8FD48F2ED02A4A36B643A64C8342D78D","f482a0d5-73da-4d4d-89b5-af40f9d2175d","051c06f1-75cc-4548-856d-4923ddaba0dc","{""num_scrambled_semantic"":""8"",""num_scrambled_causal"":""4"",""num_scrambled_schematic"":""4"",""participantId"":""8FD48F2ED02A4A36B643A64C8342D78D"",""assignmentId"":""f482a0d5-73da-4d4d-89b5-af40f9d2175d"",""projectId"":""051c06f1-75cc-4548-856d-4923ddaba0dc""}","https://test12345.live/?num_scrambled_semantic=8&num_scrambled_causal=4&num_scrambled_schematic=4&participantId=8FD48F2ED02A4A36B643A64C8342D78D&assignmentId=f482a0d5-73da-4d4d-89b5-af40f9d2175d&projectId=051c06f1-75cc-4548-856d-4923ddaba0dc","8FD48F2ED02A4A36B643A64C8342D78D-2025-05-15-18-52-10","","null","","images/semantic_sequence/using_technology_semantic/using_technology_semantic_2.png","null","",""
"","","","","","image-button-response","64","348986","0.0-12.0-1.0-1.2","8FD48F2ED02A4A36B643A64C8342D78D","8FD48F2ED02A4A36B643A64C8342D78D","f482a0d5-73da-4d4d-89b5-af40f9d2175d","051c06f1-75cc-4548-856d-4923ddaba0dc","{""num_scrambled_semantic"":""8"",""num_scrambled_causal"":""4"",""num_scrambled_schematic"":""4"",""participantId"":""8FD48F2ED02A4A36B643A64C8342D78D"",""assignmentId"":""f482a0d5-73da-4d4d-89b5-af40f9d2175d"",""projectId"":""051c06f1-75cc-4548-856d-4923ddaba0dc""}","https://test12345.live/?num_scrambled_semantic=8&num_scrambled_causal=4&num_scrambled_schematic=4&participantId=8FD48F2ED02A4A36B643A64C8342D78D&assignmentId=f482a0d5-73da-4d4d-89b5-af40f9d2175d&projectId=051c06f1-75cc-4548-856d-4923ddaba0dc","8FD48F2ED02A4A36B643A64C8342D78D-2025-05-15-18-52-10","","1264","","images/semantic_sequence/using_technology_semantic/using_technology_semantic_2.png","0","",""
"","","","","","image-button-response","65","350797","0.0-12.0-1.0-2.2","8FD48F2ED02A4A36B643A64C8342D78D","8FD48F2ED02A4A36B643A64C8342D78D","f482a0d5-73da-4d4d-89b5-af40f9d2175d","051c06f1-75cc-4548-856d-4923ddaba0dc","{""num_scrambled_semantic"":""8"",""num_scrambled_causal"":""4"",""num_scrambled_schematic"":""4"",""participantId"":""8FD48F2ED02A4A36B643A64C8342D78D"",""assignmentId"":""f482a0d5-73da-4d4d-89b5-af40f9d2175d"",""projectId"":""051c06f1-75cc-4548-856d-4923ddaba0dc""}","https://test12345.live/?num_scrambled_semantic=8&num_scrambled_causal=4&num_scrambled_schematic=4&participantId=8FD48F2ED02A4A36B643A64C8342D78D&assignmentId=f482a0d5-73da-4d4d-89b5-af40f9d2175d&projectId=051c06f1-75cc-4548-856d-4923ddaba0dc","8FD48F2ED02A4A36B643A64C8342D78D-2025-05-15-18-52-10","","null","","[]","null","",""
"","","","","","image-button-response","66","355301","0.0-12.0-1.0-0.3","8FD48F2ED02A4A36B643A64C8342D78D","8FD48F2ED02A4A36B643A64C8342D78D","f482a0d5-73da-4d4d-89b5-af40f9d2175d","051c06f1-75cc-4548-856d-4923ddaba0dc","{""num_scrambled_semantic"":""8"",""num_scrambled_causal"":""4"",""num_scrambled_schematic"":""4"",""participantId"":""8FD48F2ED02A4A36B643A64C8342D78D"",""assignmentId"":""f482a0d5-73da-4d4d-89b5-af40f9d2175d"",""projectId"":""051c06f1-75cc-4548-856d-4923ddaba0dc""}","https://test12345.live/?num_scrambled_semantic=8&num_scrambled_causal=4&num_scrambled_schematic=4&participantId=8FD48F2ED02A4A36B643A64C8342D78D&assignmentId=f482a0d5-73da-4d4d-89b5-af40f9d2175d&projectId=051c06f1-75cc-4548-856d-4923ddaba0dc","8FD48F2ED02A4A36B643A64C8342D78D-2025-05-15-18-52-10","","null","","images/semantic_sequence/using_technology_semantic/using_technology_semantic_9.png","null","",""
"","","","","","image-button-response","67","356117","0.0-12.0-1.0-1.3","8FD48F2ED02A4A36B643A64C8342D78D","8FD48F2ED02A4A36B643A64C8342D78D","f482a0d5-73da-4d4d-89b5-af40f9d2175d","051c06f1-75cc-4548-856d-4923ddaba0dc","{""num_scrambled_semantic"":""8"",""num_scrambled_causal"":""4"",""num_scrambled_schematic"":""4"",""participantId"":""8FD48F2ED02A4A36B643A64C8342D78D"",""assignmentId"":""f482a0d5-73da-4d4d-89b5-af40f9d2175d"",""projectId"":""051c06f1-75cc-4548-856d-4923ddaba0dc""}","https://test12345.live/?num_scrambled_semantic=8&num_scrambled_causal=4&num_scrambled_schematic=4&participantId=8FD48F2ED02A4A36B643A64C8342D78D&assignmentId=f482a0d5-73da-4d4d-89b5-af40f9d2175d&projectId=051c06f1-75cc-4548-856d-4923ddaba0dc","8FD48F2ED02A4A36B643A64C8342D78D-2025-05-15-18-52-10","","814","","images/semantic_sequence/using_technology_semantic/using_technology_semantic_9.png","0","",""
"","","","","","image-button-response","68","357930","0.0-12.0-1.0-2.3","8FD48F2ED02A4A36B643A64C8342D78D","8FD48F2ED02A4A36B643A64C8342D78D","f482a0d5-73da-4d4d-89b5-af40f9d2175d","051c06f1-75cc-4548-856d-4923ddaba0dc","{""num_scrambled_semantic"":""8"",""num_scrambled_causal"":""4"",""num_scrambled_schematic"":""4"",""participantId"":""8FD48F2ED02A4A36B643A64C8342D78D"",""assignmentId"":""f482a0d5-73da-4d4d-89b5-af40f9d2175d"",""projectId"":""051c06f1-75cc-4548-856d-4923ddaba0dc""}","https://test12345.live/?num_scrambled_semantic=8&num_scrambled_causal=4&num_scrambled_schematic=4&participantId=8FD48F2ED02A4A36B643A64C8342D78D&assignmentId=f482a0d5-73da-4d4d-89b5-af40f9d2175d&projectId=051c06f1-75cc-4548-856d-4923ddaba0dc","8FD48F2ED02A4A36B643A64C8342D78D-2025-05-15-18-52-10","","null","","[]","null","",""
"","","","","","image-button-response","69","362437","0.0-12.0-1.0-0.4","8FD48F2ED02A4A36B643A64C8342D78D","8FD48F2ED02A4A36B643A64C8342D78D","f482a0d5-73da-4d4d-89b5-af40f9d2175d","051c06f1-75cc-4548-856d-4923ddaba0dc","{""num_scrambled_semantic"":""8"",""num_scrambled_causal"":""4"",""num_scrambled_schematic"":""4"",""participantId"":""8FD48F2ED02A4A36B643A64C8342D78D"",""assignmentId"":""f482a0d5-73da-4d4d-89b5-af40f9d2175d"",""projectId"":""051c06f1-75cc-4548-856d-4923ddaba0dc""}","https://test12345.live/?num_scrambled_semantic=8&num_scrambled_causal=4&num_scrambled_schematic=4&participantId=8FD48F2ED02A4A36B643A64C8342D78D&assignmentId=f482a0d5-73da-4d4d-89b5-af40f9d2175d&projectId=051c06f1-75cc-4548-856d-4923ddaba0dc","8FD48F2ED02A4A36B643A64C8342D78D-2025-05-15-18-52-10","","null","","images/semantic_sequence/using_technology_semantic/using_technology_semantic_ten.png","null","",""
"","","","","","image-button-response","70","363986","0.0-12.0-1.0-1.4","8FD48F2ED02A4A36B643A64C8342D78D","8FD48F2ED02A4A36B643A64C8342D78D","f482a0d5-73da-4d4d-89b5-af40f9d2175d","051c06f1-75cc-4548-856d-4923ddaba0dc","{""num_scrambled_semantic"":""8"",""num_scrambled_causal"":""4"",""num_scrambled_schematic"":""4"",""participantId"":""8FD48F2ED02A4A36B643A64C8342D78D"",""assignmentId"":""f482a0d5-73da-4d4d-89b5-af40f9d2175d"",""projectId"":""051c06f1-75cc-4548-856d-4923ddaba0dc""}","https://test12345.live/?num_scrambled_semantic=8&num_scrambled_causal=4&num_scrambled_schematic=4&participantId=8FD48F2ED02A4A36B643A64C8342D78D&assignmentId=f482a0d5-73da-4d4d-89b5-af40f9d2175d&projectId=051c06f1-75cc-4548-856d-4923ddaba0dc","8FD48F2ED02A4A36B643A64C8342D78D-2025-05-15-18-52-10","","1547","","images/semantic_sequence/using_technology_semantic/using_technology_semantic_ten.png","0","",""
"","","","","","image-button-response","71","365795","0.0-12.0-1.0-2.4","8FD48F2ED02A4A36B643A64C8342D78D","8FD48F2ED02A4A36B643A64C8342D78D","f482a0d5-73da-4d4d-89b5-af40f9d2175d","051c06f1-75cc-4548-856d-4923ddaba0dc","{""num_scrambled_semantic"":""8"",""num_scrambled_causal"":""4"",""num_scrambled_schematic"":""4"",""participantId"":""8FD48F2ED02A4A36B643A64C8342D78D"",""assignmentId"":""f482a0d5-73da-4d4d-89b5-af40f9d2175d"",""projectId"":""051c06f1-75cc-4548-856d-4923ddaba0dc""}","https://test12345.live/?num_scrambled_semantic=8&num_scrambled_causal=4&num_scrambled_schematic=4&participantId=8FD48F2ED02A4A36B643A64C8342D78D&assignmentId=f482a0d5-73da-4d4d-89b5-af40f9d2175d&projectId=051c06f1-75cc-4548-856d-4923ddaba0dc","8FD48F2ED02A4A36B643A64C8342D78D-2025-05-15-18-52-10","","null","","[]","null","",""
"","","","","","image-button-response","72","370297","0.0-12.0-1.0-0.5","8FD48F2ED02A4A36B643A64C8342D78D","8FD48F2ED02A4A36B643A64C8342D78D","f482a0d5-73da-4d4d-89b5-af40f9d2175d","051c06f1-75cc-4548-856d-4923ddaba0dc","{""num_scrambled_semantic"":""8"",""num_scrambled_causal"":""4"",""num_scrambled_schematic"":""4"",""participantId"":""8FD48F2ED02A4A36B643A64C8342D78D"",""assignmentId"":""f482a0d5-73da-4d4d-89b5-af40f9d2175d"",""projectId"":""051c06f1-75cc-4548-856d-4923ddaba0dc""}","https://test12345.live/?num_scrambled_semantic=8&num_scrambled_causal=4&num_scrambled_schematic=4&participantId=8FD48F2ED02A4A36B643A64C8342D78D&assignmentId=f482a0d5-73da-4d4d-89b5-af40f9d2175d&projectId=051c06f1-75cc-4548-856d-4923ddaba0dc","8FD48F2ED02A4A36B643A64C8342D78D-2025-05-15-18-52-10","","null","","images/semantic_sequence/using_technology_semantic/using_technology_semantic_1.png","null","",""
"","","","","","image-button-response","73","372537","0.0-12.0-1.0-1.5","8FD48F2ED02A4A36B643A64C8342D78D","8FD48F2ED02A4A36B643A64C8342D78D","f482a0d5-73da-4d4d-89b5-af40f9d2175d","051c06f1-75cc-4548-856d-4923ddaba0dc","{""num_scrambled_semantic"":""8"",""num_scrambled_causal"":""4"",""num_scrambled_schematic"":""4"",""participantId"":""8FD48F2ED02A4A36B643A64C8342D78D"",""assignmentId"":""f482a0d5-73da-4d4d-89b5-af40f9d2175d"",""projectId"":""051c06f1-75cc-4548-856d-4923ddaba0dc""}","https://test12345.live/?num_scrambled_semantic=8&num_scrambled_causal=4&num_scrambled_schematic=4&participantId=8FD48F2ED02A4A36B643A64C8342D78D&assignmentId=f482a0d5-73da-4d4d-89b5-af40f9d2175d&projectId=051c06f1-75cc-4548-856d-4923ddaba0dc","8FD48F2ED02A4A36B643A64C8342D78D-2025-05-15-18-52-10","","2238","","images/semantic_sequence/using_technology_semantic/using_technology_semantic_1.png","0","",""
"","","","","","image-button-response","74","374347","0.0-12.0-1.0-2.5","8FD48F2ED02A4A36B643A64C8342D78D","8FD48F2ED02A4A36B643A64C8342D78D","f482a0d5-73da-4d4d-89b5-af40f9d2175d","051c06f1-75cc-4548-856d-4923ddaba0dc","{""num_scrambled_semantic"":""8"",""num_scrambled_causal"":""4"",""num_scrambled_schematic"":""4"",""participantId"":""8FD48F2ED02A4A36B643A64C8342D78D"",""assignmentId"":""f482a0d5-73da-4d4d-89b5-af40f9d2175d"",""projectId"":""051c06f1-75cc-4548-856d-4923ddaba0dc""}","https://test12345.live/?num_scrambled_semantic=8&num_scrambled_causal=4&num_scrambled_schematic=4&participantId=8FD48F2ED02A4A36B643A64C8342D78D&assignmentId=f482a0d5-73da-4d4d-89b5-af40f9d2175d&projectId=051c06f1-75cc-4548-856d-4923ddaba0dc","8FD48F2ED02A4A36B643A64C8342D78D-2025-05-15-18-52-10","","null","","[]","null","",""
"","","","","","image-button-response","75","378855","0.0-12.0-1.0-0.6","8FD48F2ED02A4A36B643A64C8342D78D","8FD48F2ED02A4A36B643A64C8342D78D","f482a0d5-73da-4d4d-89b5-af40f9d2175d","051c06f1-75cc-4548-856d-4923ddaba0dc","{""num_scrambled_semantic"":""8"",""num_scrambled_causal"":""4"",""num_scrambled_schematic"":""4"",""participantId"":""8FD48F2ED02A4A36B643A64C8342D78D"",""assignmentId"":""f482a0d5-73da-4d4d-89b5-af40f9d2175d"",""projectId"":""051c06f1-75cc-4548-856d-4923ddaba0dc""}","https://test12345.live/?num_scrambled_semantic=8&num_scrambled_causal=4&num_scrambled_schematic=4&participantId=8FD48F2ED02A4A36B643A64C8342D78D&assignmentId=f482a0d5-73da-4d4d-89b5-af40f9d2175d&projectId=051c06f1-75cc-4548-856d-4923ddaba0dc","8FD48F2ED02A4A36B643A64C8342D78D-2025-05-15-18-52-10","","null","","images/semantic_sequence/using_technology_semantic/using_technology_semantic_6.png","null","",""
"","","","","","image-button-response","76","381146","0.0-12.0-1.0-1.6","8FD48F2ED02A4A36B643A64C8342D78D","8FD48F2ED02A4A36B643A64C8342D78D","f482a0d5-73da-4d4d-89b5-af40f9d2175d","051c06f1-75cc-4548-856d-4923ddaba0dc","{""num_scrambled_semantic"":""8"",""num_scrambled_causal"":""4"",""num_scrambled_schematic"":""4"",""participantId"":""8FD48F2ED02A4A36B643A64C8342D78D"",""assignmentId"":""f482a0d5-73da-4d4d-89b5-af40f9d2175d"",""projectId"":""051c06f1-75cc-4548-856d-4923ddaba0dc""}","https://test12345.live/?num_scrambled_semantic=8&num_scrambled_causal=4&num_scrambled_schematic=4&participantId=8FD48F2ED02A4A36B643A64C8342D78D&assignmentId=f482a0d5-73da-4d4d-89b5-af40f9d2175d&projectId=051c06f1-75cc-4548-856d-4923ddaba0dc","8FD48F2ED02A4A36B643A64C8342D78D-2025-05-15-18-52-10","","2289","","images/semantic_sequence/using_technology_semantic/using_technology_semantic_6.png","0","",""
"","","","","","image-button-response","77","382947","0.0-12.0-1.0-2.6","8FD48F2ED02A4A36B643A64C8342D78D","8FD48F2ED02A4A36B643A64C8342D78D","f482a0d5-73da-4d4d-89b5-af40f9d2175d","051c06f1-75cc-4548-856d-4923ddaba0dc","{""num_scrambled_semantic"":""8"",""num_scrambled_causal"":""4"",""num_scrambled_schematic"":""4"",""participantId"":""8FD48F2ED02A4A36B643A64C8342D78D"",""assignmentId"":""f482a0d5-73da-4d4d-89b5-af40f9d2175d"",""projectId"":""051c06f1-75cc-4548-856d-4923ddaba0dc""}","https://test12345.live/?num_scrambled_semantic=8&num_scrambled_causal=4&num_scrambled_schematic=4&participantId=8FD48F2ED02A4A36B643A64C8342D78D&assignmentId=f482a0d5-73da-4d4d-89b5-af40f9d2175d&projectId=051c06f1-75cc-4548-856d-4923ddaba0dc","8FD48F2ED02A4A36B643A64C8342D78D-2025-05-15-18-52-10","","null","","[]","null","",""
"","","","","","image-button-response","78","387465","0.0-12.0-1.0-0.7","8FD48F2ED02A4A36B643A64C8342D78D","8FD48F2ED02A4A36B643A64C8342D78D","f482a0d5-73da-4d4d-89b5-af40f9d2175d","051c06f1-75cc-4548-856d-4923ddaba0dc","{""num_scrambled_semantic"":""8"",""num_scrambled_causal"":""4"",""num_scrambled_schematic"":""4"",""participantId"":""8FD48F2ED02A4A36B643A64C8342D78D"",""assignmentId"":""f482a0d5-73da-4d4d-89b5-af40f9d2175d"",""projectId"":""051c06f1-75cc-4548-856d-4923ddaba0dc""}","https://test12345.live/?num_scrambled_semantic=8&num_scrambled_causal=4&num_scrambled_schematic=4&participantId=8FD48F2ED02A4A36B643A64C8342D78D&assignmentId=f482a0d5-73da-4d4d-89b5-af40f9d2175d&projectId=051c06f1-75cc-4548-856d-4923ddaba0dc","8FD48F2ED02A4A36B643A64C8342D78D-2025-05-15-18-52-10","","null","","images/semantic_sequence/using_technology_semantic/using_technology_semantic_5.png","null","",""
"","","","","","image-button-response","79","391479","0.0-12.0-1.0-1.7","8FD48F2ED02A4A36B643A64C8342D78D","8FD48F2ED02A4A36B643A64C8342D78D","f482a0d5-73da-4d4d-89b5-af40f9d2175d","051c06f1-75cc-4548-856d-4923ddaba0dc","{""num_scrambled_semantic"":""8"",""num_scrambled_causal"":""4"",""num_scrambled_schematic"":""4"",""participantId"":""8FD48F2ED02A4A36B643A64C8342D78D"",""assignmentId"":""f482a0d5-73da-4d4d-89b5-af40f9d2175d"",""projectId"":""051c06f1-75cc-4548-856d-4923ddaba0dc""}","https://test12345.live/?num_scrambled_semantic=8&num_scrambled_causal=4&num_scrambled_schematic=4&participantId=8FD48F2ED02A4A36B643A64C8342D78D&assignmentId=f482a0d5-73da-4d4d-89b5-af40f9d2175d&projectId=051c06f1-75cc-4548-856d-4923ddaba0dc","8FD48F2ED02A4A36B643A64C8342D78D-2025-05-15-18-52-10","","null","","images/semantic_sequence/using_technology_semantic/using_technology_semantic_5.png","null","",""
"","","","","","image-button-response","80","393285","0.0-12.0-1.0-2.7","8FD48F2ED02A4A36B643A64C8342D78D","8FD48F2ED02A4A36B643A64C8342D78D","f482a0d5-73da-4d4d-89b5-af40f9d2175d","051c06f1-75cc-4548-856d-4923ddaba0dc","{""num_scrambled_semantic"":""8"",""num_scrambled_causal"":""4"",""num_scrambled_schematic"":""4"",""participantId"":""8FD48F2ED02A4A36B643A64C8342D78D"",""assignmentId"":""f482a0d5-73da-4d4d-89b5-af40f9d2175d"",""projectId"":""051c06f1-75cc-4548-856d-4923ddaba0dc""}","https://test12345.live/?num_scrambled_semantic=8&num_scrambled_causal=4&num_scrambled_schematic=4&participantId=8FD48F2ED02A4A36B643A64C8342D78D&assignmentId=f482a0d5-73da-4d4d-89b5-af40f9d2175d&projectId=051c06f1-75cc-4548-856d-4923ddaba0dc","8FD48F2ED02A4A36B643A64C8342D78D-2025-05-15-18-52-10","","null","","[]","null","",""
"","","","","","image-button-response","81","397797","0.0-12.0-1.0-0.8","8FD48F2ED02A4A36B643A64C8342D78D","8FD48F2ED02A4A36B643A64C8342D78D","f482a0d5-73da-4d4d-89b5-af40f9d2175d","051c06f1-75cc-4548-856d-4923ddaba0dc","{""num_scrambled_semantic"":""8"",""num_scrambled_causal"":""4"",""num_scrambled_schematic"":""4"",""participantId"":""8FD48F2ED02A4A36B643A64C8342D78D"",""assignmentId"":""f482a0d5-73da-4d4d-89b5-af40f9d2175d"",""projectId"":""051c06f1-75cc-4548-856d-4923ddaba0dc""}","https://test12345.live/?num_scrambled_semantic=8&num_scrambled_causal=4&num_scrambled_schematic=4&participantId=8FD48F2ED02A4A36B643A64C8342D78D&assignmentId=f482a0d5-73da-4d4d-89b5-af40f9d2175d&projectId=051c06f1-75cc-4548-856d-4923ddaba0dc","8FD48F2ED02A4A36B643A64C8342D78D-2025-05-15-18-52-10","","null","","images/semantic_sequence/using_technology_semantic/using_technology_semantic_8.png","null","",""
"","","","","","image-button-response","82","398456","0.0-12.0-1.0-1.8","8FD48F2ED02A4A36B643A64C8342D78D","8FD48F2ED02A4A36B643A64C8342D78D","f482a0d5-73da-4d4d-89b5-af40f9d2175d","051c06f1-75cc-4548-856d-4923ddaba0dc","{""num_scrambled_semantic"":""8"",""num_scrambled_causal"":""4"",""num_scrambled_schematic"":""4"",""participantId"":""8FD48F2ED02A4A36B643A64C8342D78D"",""assignmentId"":""f482a0d5-73da-4d4d-89b5-af40f9d2175d"",""projectId"":""051c06f1-75cc-4548-856d-4923ddaba0dc""}","https://test12345.live/?num_scrambled_semantic=8&num_scrambled_causal=4&num_scrambled_schematic=4&participantId=8FD48F2ED02A4A36B643A64C8342D78D&assignmentId=f482a0d5-73da-4d4d-89b5-af40f9d2175d&projectId=051c06f1-75cc-4548-856d-4923ddaba0dc","8FD48F2ED02A4A36B643A64C8342D78D-2025-05-15-18-52-10","","657","","images/semantic_sequence/using_technology_semantic/using_technology_semantic_8.png","0","",""
"","","","","","image-button-response","83","400271","0.0-12.0-1.0-2.8","8FD48F2ED02A4A36B643A64C8342D78D","8FD48F2ED02A4A36B643A64C8342D78D","f482a0d5-73da-4d4d-89b5-af40f9d2175d","051c06f1-75cc-4548-856d-4923ddaba0dc","{""num_scrambled_semantic"":""8"",""num_scrambled_causal"":""4"",""num_scrambled_schematic"":""4"",""participantId"":""8FD48F2ED02A4A36B643A64C8342D78D"",""assignmentId"":""f482a0d5-73da-4d4d-89b5-af40f9d2175d"",""projectId"":""051c06f1-75cc-4548-856d-4923ddaba0dc""}","https://test12345.live/?num_scrambled_semantic=8&num_scrambled_causal=4&num_scrambled_schematic=4&participantId=8FD48F2ED02A4A36B643A64C8342D78D&assignmentId=f482a0d5-73da-4d4d-89b5-af40f9d2175d&projectId=051c06f1-75cc-4548-856d-4923ddaba0dc","8FD48F2ED02A4A36B643A64C8342D78D-2025-05-15-18-52-10","","null","","[]","null","",""
"","","","","","image-button-response","84","404787","0.0-12.0-1.0-0.9","8FD48F2ED02A4A36B643A64C8342D78D","8FD48F2ED02A4A36B643A64C8342D78D","f482a0d5-73da-4d4d-89b5-af40f9d2175d","051c06f1-75cc-4548-856d-4923ddaba0dc","{""num_scrambled_semantic"":""8"",""num_scrambled_causal"":""4"",""num_scrambled_schematic"":""4"",""participantId"":""8FD48F2ED02A4A36B643A64C8342D78D"",""assignmentId"":""f482a0d5-73da-4d4d-89b5-af40f9d2175d"",""projectId"":""051c06f1-75cc-4548-856d-4923ddaba0dc""}","https://test12345.live/?num_scrambled_semantic=8&num_scrambled_causal=4&num_scrambled_schematic=4&participantId=8FD48F2ED02A4A36B643A64C8342D78D&assignmentId=f482a0d5-73da-4d4d-89b5-af40f9d2175d&projectId=051c06f1-75cc-4548-856d-4923ddaba0dc","8FD48F2ED02A4A36B643A64C8342D78D-2025-05-15-18-52-10","","null","","images/semantic_sequence/using_technology_semantic/using_technology_semantic_7.png","null","",""
"","","","","","image-button-response","85","405325","0.0-12.0-1.0-1.9","8FD48F2ED02A4A36B643A64C8342D78D","8FD48F2ED02A4A36B643A64C8342D78D","f482a0d5-73da-4d4d-89b5-af40f9d2175d","051c06f1-75cc-4548-856d-4923ddaba0dc","{""num_scrambled_semantic"":""8"",""num_scrambled_causal"":""4"",""num_scrambled_schematic"":""4"",""participantId"":""8FD48F2ED02A4A36B643A64C8342D78D"",""assignmentId"":""f482a0d5-73da-4d4d-89b5-af40f9d2175d"",""projectId"":""051c06f1-75cc-4548-856d-4923ddaba0dc""}","https://test12345.live/?num_scrambled_semantic=8&num_scrambled_causal=4&num_scrambled_schematic=4&participantId=8FD48F2ED02A4A36B643A64C8342D78D&assignmentId=f482a0d5-73da-4d4d-89b5-af40f9d2175d&projectId=051c06f1-75cc-4548-856d-4923ddaba0dc","8FD48F2ED02A4A36B643A64C8342D78D-2025-05-15-18-52-10","","535","","images/semantic_sequence/using_technology_semantic/using_technology_semantic_7.png","0","",""
"","","","","","image-button-response","86","407129","0.0-12.0-1.0-2.9","8FD48F2ED02A4A36B643A64C8342D78D","8FD48F2ED02A4A36B643A64C8342D78D","f482a0d5-73da-4d4d-89b5-af40f9d2175d","051c06f1-75cc-4548-856d-4923ddaba0dc","{""num_scrambled_semantic"":""8"",""num_scrambled_causal"":""4"",""num_scrambled_schematic"":""4"",""participantId"":""8FD48F2ED02A4A36B643A64C8342D78D"",""assignmentId"":""f482a0d5-73da-4d4d-89b5-af40f9d2175d"",""projectId"":""051c06f1-75cc-4548-856d-4923ddaba0dc""}","https://test12345.live/?num_scrambled_semantic=8&num_scrambled_causal=4&num_scrambled_schematic=4&participantId=8FD48F2ED02A4A36B643A64C8342D78D&assignmentId=f482a0d5-73da-4d4d-89b5-af40f9d2175d&projectId=051c06f1-75cc-4548-856d-4923ddaba0dc","8FD48F2ED02A4A36B643A64C8342D78D-2025-05-15-18-52-10","","null","","[]","null","",""
"","","","","","html-audio-response","87","440153","0.0-13.0","8FD48F2ED02A4A36B643A64C8342D78D","8FD48F2ED02A4A36B643A64C8342D78D","f482a0d5-73da-4d4d-89b5-af40f9d2175d","051c06f1-75cc-4548-856d-4923ddaba0dc","{""num_scrambled_semantic"":""8"",""num_scrambled_causal"":""4"",""num_scrambled_schematic"":""4"",""participantId"":""8FD48F2ED02A4A36B643A64C8342D78D"",""assignmentId"":""f482a0d5-73da-4d4d-89b5-af40f9d2175d"",""projectId"":""051c06f1-75cc-4548-856d-4923ddaba0dc""}","https://test12345.live/?num_scrambled_semantic=8&num_scrambled_causal=4&num_scrambled_schematic=4&participantId=8FD48F2ED02A4A36B643A64C8342D78D&assignmentId=f482a0d5-73da-4d4d-89b5-af40f9d2175d&projectId=051c06f1-75cc-4548-856d-4923ddaba0dc","8FD48F2ED02A4A36B643A64C8342D78D-2025-05-15-18-52-10","","32215","","[""<span style=\""color: red; font-size: 24px\""> NOW RECORDING</span><p>Please say out loud all the images you saw, as many as you can remember. The images can be said in any order.</p>""]","","2","using_technology_semantic"
"","","","","","image-button-response","88","446170","0.0-14.0-0.0","8FD48F2ED02A4A36B643A64C8342D78D","8FD48F2ED02A4A36B643A64C8342D78D","f482a0d5-73da-4d4d-89b5-af40f9d2175d","051c06f1-75cc-4548-856d-4923ddaba0dc","{""num_scrambled_semantic"":""8"",""num_scrambled_causal"":""4"",""num_scrambled_schematic"":""4"",""participantId"":""8FD48F2ED02A4A36B643A64C8342D78D"",""assignmentId"":""f482a0d5-73da-4d4d-89b5-af40f9d2175d"",""projectId"":""051c06f1-75cc-4548-856d-4923ddaba0dc""}","https://test12345.live/?num_scrambled_semantic=8&num_scrambled_causal=4&num_scrambled_schematic=4&participantId=8FD48F2ED02A4A36B643A64C8342D78D&assignmentId=f482a0d5-73da-4d4d-89b5-af40f9d2175d&projectId=051c06f1-75cc-4548-856d-4923ddaba0dc","8FD48F2ED02A4A36B643A64C8342D78D-2025-05-15-18-52-10","","null","","images/causal_sequence/package_causal/package_causal_0.png","null","",""
"","","","","","image-button-response","89","450673","0.0-14.0-1.0-0.0","8FD48F2ED02A4A36B643A64C8342D78D","8FD48F2ED02A4A36B643A64C8342D78D","f482a0d5-73da-4d4d-89b5-af40f9d2175d","051c06f1-75cc-4548-856d-4923ddaba0dc","{""num_scrambled_semantic"":""8"",""num_scrambled_causal"":""4"",""num_scrambled_schematic"":""4"",""participantId"":""8FD48F2ED02A4A36B643A64C8342D78D"",""assignmentId"":""f482a0d5-73da-4d4d-89b5-af40f9d2175d"",""projectId"":""051c06f1-75cc-4548-856d-4923ddaba0dc""}","https://test12345.live/?num_scrambled_semantic=8&num_scrambled_causal=4&num_scrambled_schematic=4&participantId=8FD48F2ED02A4A36B643A64C8342D78D&assignmentId=f482a0d5-73da-4d4d-89b5-af40f9d2175d&projectId=051c06f1-75cc-4548-856d-4923ddaba0dc","8FD48F2ED02A4A36B643A64C8342D78D-2025-05-15-18-52-10","","null","","images/causal_sequence/package_causal/package_causal_4.png","null","",""
"","","","","","image-button-response","90","452087","0.0-14.0-1.0-1.0","8FD48F2ED02A4A36B643A64C8342D78D","8FD48F2ED02A4A36B643A64C8342D78D","f482a0d5-73da-4d4d-89b5-af40f9d2175d","051c06f1-75cc-4548-856d-4923ddaba0dc","{""num_scrambled_semantic"":""8"",""num_scrambled_causal"":""4"",""num_scrambled_schematic"":""4"",""participantId"":""8FD48F2ED02A4A36B643A64C8342D78D"",""assignmentId"":""f482a0d5-73da-4d4d-89b5-af40f9d2175d"",""projectId"":""051c06f1-75cc-4548-856d-4923ddaba0dc""}","https://test12345.live/?num_scrambled_semantic=8&num_scrambled_causal=4&num_scrambled_schematic=4&participantId=8FD48F2ED02A4A36B643A64C8342D78D&assignmentId=f482a0d5-73da-4d4d-89b5-af40f9d2175d&projectId=051c06f1-75cc-4548-856d-4923ddaba0dc","8FD48F2ED02A4A36B643A64C8342D78D-2025-05-15-18-52-10","","1413","","images/causal_sequence/package_causal/package_causal_4.png","1","",""
"","","","","","image-button-response","91","453888","0.0-14.0-1.0-2.0","8FD48F2ED02A4A36B643A64C8342D78D","8FD48F2ED02A4A36B643A64C8342D78D","f482a0d5-73da-4d4d-89b5-af40f9d2175d","051c06f1-75cc-4548-856d-4923ddaba0dc","{""num_scrambled_semantic"":""8"",""num_scrambled_causal"":""4"",""num_scrambled_schematic"":""4"",""participantId"":""8FD48F2ED02A4A36B643A64C8342D78D"",""assignmentId"":""f482a0d5-73da-4d4d-89b5-af40f9d2175d"",""projectId"":""051c06f1-75cc-4548-856d-4923ddaba0dc""}","https://test12345.live/?num_scrambled_semantic=8&num_scrambled_causal=4&num_scrambled_schematic=4&participantId=8FD48F2ED02A4A36B643A64C8342D78D&assignmentId=f482a0d5-73da-4d4d-89b5-af40f9d2175d&projectId=051c06f1-75cc-4548-856d-4923ddaba0dc","8FD48F2ED02A4A36B643A64C8342D78D-2025-05-15-18-52-10","","null","","[]","null","",""
"","","","","","image-button-response","92","458401","0.0-14.0-1.0-0.1","8FD48F2ED02A4A36B643A64C8342D78D","8FD48F2ED02A4A36B643A64C8342D78D","f482a0d5-73da-4d4d-89b5-af40f9d2175d","051c06f1-75cc-4548-856d-4923ddaba0dc","{""num_scrambled_semantic"":""8"",""num_scrambled_causal"":""4"",""num_scrambled_schematic"":""4"",""participantId"":""8FD48F2ED02A4A36B643A64C8342D78D"",""assignmentId"":""f482a0d5-73da-4d4d-89b5-af40f9d2175d"",""projectId"":""051c06f1-75cc-4548-856d-4923ddaba0dc""}","https://test12345.live/?num_scrambled_semantic=8&num_scrambled_causal=4&num_scrambled_schematic=4&participantId=8FD48F2ED02A4A36B643A64C8342D78D&assignmentId=f482a0d5-73da-4d4d-89b5-af40f9d2175d&projectId=051c06f1-75cc-4548-856d-4923ddaba0dc","8FD48F2ED02A4A36B643A64C8342D78D-2025-05-15-18-52-10","","null","","images/causal_sequence/package_causal/package_causal_9.png","null","",""
"","","","","","image-button-response","93","459522","0.0-14.0-1.0-1.1","8FD48F2ED02A4A36B643A64C8342D78D","8FD48F2ED02A4A36B643A64C8342D78D","f482a0d5-73da-4d4d-89b5-af40f9d2175d","051c06f1-75cc-4548-856d-4923ddaba0dc","{""num_scrambled_semantic"":""8"",""num_scrambled_causal"":""4"",""num_scrambled_schematic"":""4"",""participantId"":""8FD48F2ED02A4A36B643A64C8342D78D"",""assignmentId"":""f482a0d5-73da-4d4d-89b5-af40f9d2175d"",""projectId"":""051c06f1-75cc-4548-856d-4923ddaba0dc""}","https://test12345.live/?num_scrambled_semantic=8&num_scrambled_causal=4&num_scrambled_schematic=4&participantId=8FD48F2ED02A4A36B643A64C8342D78D&assignmentId=f482a0d5-73da-4d4d-89b5-af40f9d2175d&projectId=051c06f1-75cc-4548-856d-4923ddaba0dc","8FD48F2ED02A4A36B643A64C8342D78D-2025-05-15-18-52-10","","1118","","images/causal_sequence/package_causal/package_causal_9.png","0","",""
"","","","","","image-button-response","94","461337","0.0-14.0-1.0-2.1","8FD48F2ED02A4A36B643A64C8342D78D","8FD48F2ED02A4A36B643A64C8342D78D","f482a0d5-73da-4d4d-89b5-af40f9d2175d","051c06f1-75cc-4548-856d-4923ddaba0dc","{""num_scrambled_semantic"":""8"",""num_scrambled_causal"":""4"",""num_scrambled_schematic"":""4"",""participantId"":""8FD48F2ED02A4A36B643A64C8342D78D"",""assignmentId"":""f482a0d5-73da-4d4d-89b5-af40f9d2175d"",""projectId"":""051c06f1-75cc-4548-856d-4923ddaba0dc""}","https://test12345.live/?num_scrambled_semantic=8&num_scrambled_causal=4&num_scrambled_schematic=4&participantId=8FD48F2ED02A4A36B643A64C8342D78D&assignmentId=f482a0d5-73da-4d4d-89b5-af40f9d2175d&projectId=051c06f1-75cc-4548-856d-4923ddaba0dc","8FD48F2ED02A4A36B643A64C8342D78D-2025-05-15-18-52-10","","null","","[]","null","",""
"","","","","","image-button-response","95","465842","0.0-14.0-1.0-0.2","8FD48F2ED02A4A36B643A64C8342D78D","8FD48F2ED02A4A36B643A64C8342D78D","f482a0d5-73da-4d4d-89b5-af40f9d2175d","051c06f1-75cc-4548-856d-4923ddaba0dc","{""num_scrambled_semantic"":""8"",""num_scrambled_causal"":""4"",""num_scrambled_schematic"":""4"",""participantId"":""8FD48F2ED02A4A36B643A64C8342D78D"",""assignmentId"":""f482a0d5-73da-4d4d-89b5-af40f9d2175d"",""projectId"":""051c06f1-75cc-4548-856d-4923ddaba0dc""}","https://test12345.live/?num_scrambled_semantic=8&num_scrambled_causal=4&num_scrambled_schematic=4&participantId=8FD48F2ED02A4A36B643A64C8342D78D&assignmentId=f482a0d5-73da-4d4d-89b5-af40f9d2175d&projectId=051c06f1-75cc-4548-856d-4923ddaba0dc","8FD48F2ED02A4A36B643A64C8342D78D-2025-05-15-18-52-10","","null","","images/causal_sequence/package_causal/package_causal_3.png","null","",""
"","","","","","image-button-response","96","466573","0.0-14.0-1.0-1.2","8FD48F2ED02A4A36B643A64C8342D78D","8FD48F2ED02A4A36B643A64C8342D78D","f482a0d5-73da-4d4d-89b5-af40f9d2175d","051c06f1-75cc-4548-856d-4923ddaba0dc","{""num_scrambled_semantic"":""8"",""num_scrambled_causal"":""4"",""num_scrambled_schematic"":""4"",""participantId"":""8FD48F2ED02A4A36B643A64C8342D78D"",""assignmentId"":""f482a0d5-73da-4d4d-89b5-af40f9d2175d"",""projectId"":""051c06f1-75cc-4548-856d-4923ddaba0dc""}","https://test12345.live/?num_scrambled_semantic=8&num_scrambled_causal=4&num_scrambled_schematic=4&participantId=8FD48F2ED02A4A36B643A64C8342D78D&assignmentId=f482a0d5-73da-4d4d-89b5-af40f9d2175d&projectId=051c06f1-75cc-4548-856d-4923ddaba0dc","8FD48F2ED02A4A36B643A64C8342D78D-2025-05-15-18-52-10","","730","","images/causal_sequence/package_causal/package_causal_3.png","0","",""
"","","","","","image-button-response","97","468377","0.0-14.0-1.0-2.2","8FD48F2ED02A4A36B643A64C8342D78D","8FD48F2ED02A4A36B643A64C8342D78D","f482a0d5-73da-4d4d-89b5-af40f9d2175d","051c06f1-75cc-4548-856d-4923ddaba0dc","{""num_scrambled_semantic"":""8"",""num_scrambled_causal"":""4"",""num_scrambled_schematic"":""4"",""participantId"":""8FD48F2ED02A4A36B643A64C8342D78D"",""assignmentId"":""f482a0d5-73da-4d4d-89b5-af40f9d2175d"",""projectId"":""051c06f1-75cc-4548-856d-4923ddaba0dc""}","https://test12345.live/?num_scrambled_semantic=8&num_scrambled_causal=4&num_scrambled_schematic=4&participantId=8FD48F2ED02A4A36B643A64C8342D78D&assignmentId=f482a0d5-73da-4d4d-89b5-af40f9d2175d&projectId=051c06f1-75cc-4548-856d-4923ddaba0dc","8FD48F2ED02A4A36B643A64C8342D78D-2025-05-15-18-52-10","","null","","[]","null","",""
"","","","","","image-button-response","98","472881","0.0-14.0-1.0-0.3","8FD48F2ED02A4A36B643A64C8342D78D","8FD48F2ED02A4A36B643A64C8342D78D","f482a0d5-73da-4d4d-89b5-af40f9d2175d","051c06f1-75cc-4548-856d-4923ddaba0dc","{""num_scrambled_semantic"":""8"",""num_scrambled_causal"":""4"",""num_scrambled_schematic"":""4"",""participantId"":""8FD48F2ED02A4A36B643A64C8342D78D"",""assignmentId"":""f482a0d5-73da-4d4d-89b5-af40f9d2175d"",""projectId"":""051c06f1-75cc-4548-856d-4923ddaba0dc""}","https://test12345.live/?num_scrambled_semantic=8&num_scrambled_causal=4&num_scrambled_schematic=4&participantId=8FD48F2ED02A4A36B643A64C8342D78D&assignmentId=f482a0d5-73da-4d4d-89b5-af40f9d2175d&projectId=051c06f1-75cc-4548-856d-4923ddaba0dc","8FD48F2ED02A4A36B643A64C8342D78D-2025-05-15-18-52-10","","null","","images/causal_sequence/package_causal/package_causal_6.png","null","",""
"","","","","","image-button-response","99","473395","0.0-14.0-1.0-1.3","8FD48F2ED02A4A36B643A64C8342D78D","8FD48F2ED02A4A36B643A64C8342D78D","f482a0d5-73da-4d4d-89b5-af40f9d2175d","051c06f1-75cc-4548-856d-4923ddaba0dc","{""num_scrambled_semantic"":""8"",""num_scrambled_causal"":""4"",""num_scrambled_schematic"":""4"",""participantId"":""8FD48F2ED02A4A36B643A64C8342D78D"",""assignmentId"":""f482a0d5-73da-4d4d-89b5-af40f9d2175d"",""projectId"":""051c06f1-75cc-4548-856d-4923ddaba0dc""}","https://test12345.live/?num_scrambled_semantic=8&num_scrambled_causal=4&num_scrambled_schematic=4&participantId=8FD48F2ED02A4A36B643A64C8342D78D&assignmentId=f482a0d5-73da-4d4d-89b5-af40f9d2175d&projectId=051c06f1-75cc-4548-856d-4923ddaba0dc","8FD48F2ED02A4A36B643A64C8342D78D-2025-05-15-18-52-10","","512","","images/causal_sequence/package_causal/package_causal_6.png","0","",""
"","","","","","image-button-response","100","475207","0.0-14.0-1.0-2.3","8FD48F2ED02A4A36B643A64C8342D78D","8FD48F2ED02A4A36B643A64C8342D78D","f482a0d5-73da-4d4d-89b5-af40f9d2175d","051c06f1-75cc-4548-856d-4923ddaba0dc","{""num_scrambled_semantic"":""8"",""num_scrambled_causal"":""4"",""num_scrambled_schematic"":""4"",""participantId"":""8FD48F2ED02A4A36B643A64C8342D78D"",""assignmentId"":""f482a0d5-73da-4d4d-89b5-af40f9d2175d"",""projectId"":""051c06f1-75cc-4548-856d-4923ddaba0dc""}","https://test12345.live/?num_scrambled_semantic=8&num_scrambled_causal=4&num_scrambled_schematic=4&participantId=8FD48F2ED02A4A36B643A64C8342D78D&assignmentId=f482a0d5-73da-4d4d-89b5-af40f9d2175d&projectId=051c06f1-75cc-4548-856d-4923ddaba0dc","8FD48F2ED02A4A36B643A64C8342D78D-2025-05-15-18-52-10","","null","","[]","null","",""
"","","","","","image-button-response","101","479717","0.0-14.0-1.0-0.4","8FD48F2ED02A4A36B643A64C8342D78D","8FD48F2ED02A4A36B643A64C8342D78D","f482a0d5-73da-4d4d-89b5-af40f9d2175d","051c06f1-75cc-4548-856d-4923ddaba0dc","{""num_scrambled_semantic"":""8"",""num_scrambled_causal"":""4"",""num_scrambled_schematic"":""4"",""participantId"":""8FD48F2ED02A4A36B643A64C8342D78D"",""assignmentId"":""f482a0d5-73da-4d4d-89b5-af40f9d2175d"",""projectId"":""051c06f1-75cc-4548-856d-4923ddaba0dc""}","https://test12345.live/?num_scrambled_semantic=8&num_scrambled_causal=4&num_scrambled_schematic=4&participantId=8FD48F2ED02A4A36B643A64C8342D78D&assignmentId=f482a0d5-73da-4d4d-89b5-af40f9d2175d&projectId=051c06f1-75cc-4548-856d-4923ddaba0dc","8FD48F2ED02A4A36B643A64C8342D78D-2025-05-15-18-52-10","","null","","images/causal_sequence/package_causal/package_causal_8.png","null","",""
"","","","","","image-button-response","102","480117","0.0-14.0-1.0-1.4","8FD48F2ED02A4A36B643A64C8342D78D","8FD48F2ED02A4A36B643A64C8342D78D","f482a0d5-73da-4d4d-89b5-af40f9d2175d","051c06f1-75cc-4548-856d-4923ddaba0dc","{""num_scrambled_semantic"":""8"",""num_scrambled_causal"":""4"",""num_scrambled_schematic"":""4"",""participantId"":""8FD48F2ED02A4A36B643A64C8342D78D"",""assignmentId"":""f482a0d5-73da-4d4d-89b5-af40f9d2175d"",""projectId"":""051c06f1-75cc-4548-856d-4923ddaba0dc""}","https://test12345.live/?num_scrambled_semantic=8&num_scrambled_causal=4&num_scrambled_schematic=4&participantId=8FD48F2ED02A4A36B643A64C8342D78D&assignmentId=f482a0d5-73da-4d4d-89b5-af40f9d2175d&projectId=051c06f1-75cc-4548-856d-4923ddaba0dc","8FD48F2ED02A4A36B643A64C8342D78D-2025-05-15-18-52-10","","398","","images/causal_sequence/package_causal/package_causal_8.png","0","",""
"","","","","","image-button-response","103","481931","0.0-14.0-1.0-2.4","8FD48F2ED02A4A36B643A64C8342D78D","8FD48F2ED02A4A36B643A64C8342D78D","f482a0d5-73da-4d4d-89b5-af40f9d2175d","051c06f1-75cc-4548-856d-4923ddaba0dc","{""num_scrambled_semantic"":""8"",""num_scrambled_causal"":""4"",""num_scrambled_schematic"":""4"",""participantId"":""8FD48F2ED02A4A36B643A64C8342D78D"",""assignmentId"":""f482a0d5-73da-4d4d-89b5-af40f9d2175d"",""projectId"":""051c06f1-75cc-4548-856d-4923ddaba0dc""}","https://test12345.live/?num_scrambled_semantic=8&num_scrambled_causal=4&num_scrambled_schematic=4&participantId=8FD48F2ED02A4A36B643A64C8342D78D&assignmentId=f482a0d5-73da-4d4d-89b5-af40f9d2175d&projectId=051c06f1-75cc-4548-856d-4923ddaba0dc","8FD48F2ED02A4A36B643A64C8342D78D-2025-05-15-18-52-10","","null","","[]","null","",""
"","","","","","image-button-response","104","486444","0.0-14.0-1.0-0.5","8FD48F2ED02A4A36B643A64C8342D78D","8FD48F2ED02A4A36B643A64C8342D78D","f482a0d5-73da-4d4d-89b5-af40f9d2175d","051c06f1-75cc-4548-856d-4923ddaba0dc","{""num_scrambled_semantic"":""8"",""num_scrambled_causal"":""4"",""num_scrambled_schematic"":""4"",""participantId"":""8FD48F2ED02A4A36B643A64C8342D78D"",""assignmentId"":""f482a0d5-73da-4d4d-89b5-af40f9d2175d"",""projectId"":""051c06f1-75cc-4548-856d-4923ddaba0dc""}","https://test12345.live/?num_scrambled_semantic=8&num_scrambled_causal=4&num_scrambled_schematic=4&participantId=8FD48F2ED02A4A36B643A64C8342D78D&assignmentId=f482a0d5-73da-4d4d-89b5-af40f9d2175d&projectId=051c06f1-75cc-4548-856d-4923ddaba0dc","8FD48F2ED02A4A36B643A64C8342D78D-2025-05-15-18-52-10","","null","","images/causal_sequence/package_causal/package_causal_5.png","null","",""
"","","","","","image-button-response","105","487039","0.0-14.0-1.0-1.5","8FD48F2ED02A4A36B643A64C8342D78D","8FD48F2ED02A4A36B643A64C8342D78D","f482a0d5-73da-4d4d-89b5-af40f9d2175d","051c06f1-75cc-4548-856d-4923ddaba0dc","{""num_scrambled_semantic"":""8"",""num_scrambled_causal"":""4"",""num_scrambled_schematic"":""4"",""participantId"":""8FD48F2ED02A4A36B643A64C8342D78D"",""assignmentId"":""f482a0d5-73da-4d4d-89b5-af40f9d2175d"",""projectId"":""051c06f1-75cc-4548-856d-4923ddaba0dc""}","https://test12345.live/?num_scrambled_semantic=8&num_scrambled_causal=4&num_scrambled_schematic=4&participantId=8FD48F2ED02A4A36B643A64C8342D78D&assignmentId=f482a0d5-73da-4d4d-89b5-af40f9d2175d&projectId=051c06f1-75cc-4548-856d-4923ddaba0dc","8FD48F2ED02A4A36B643A64C8342D78D-2025-05-15-18-52-10","","594","","images/causal_sequence/package_causal/package_causal_5.png","0","",""
"","","","","","image-button-response","106","488842","0.0-14.0-1.0-2.5","8FD48F2ED02A4A36B643A64C8342D78D","8FD48F2ED02A4A36B643A64C8342D78D","f482a0d5-73da-4d4d-89b5-af40f9d2175d","051c06f1-75cc-4548-856d-4923ddaba0dc","{""num_scrambled_semantic"":""8"",""num_scrambled_causal"":""4"",""num_scrambled_schematic"":""4"",""participantId"":""8FD48F2ED02A4A36B643A64C8342D78D"",""assignmentId"":""f482a0d5-73da-4d4d-89b5-af40f9d2175d"",""projectId"":""051c06f1-75cc-4548-856d-4923ddaba0dc""}","https://test12345.live/?num_scrambled_semantic=8&num_scrambled_causal=4&num_scrambled_schematic=4&participantId=8FD48F2ED02A4A36B643A64C8342D78D&assignmentId=f482a0d5-73da-4d4d-89b5-af40f9d2175d&projectId=051c06f1-75cc-4548-856d-4923ddaba0dc","8FD48F2ED02A4A36B643A64C8342D78D-2025-05-15-18-52-10","","null","","[]","null","",""
"","","","","","image-button-response","107","493347","0.0-14.0-1.0-0.6","8FD48F2ED02A4A36B643A64C8342D78D","8FD48F2ED02A4A36B643A64C8342D78D","f482a0d5-73da-4d4d-89b5-af40f9d2175d","051c06f1-75cc-4548-856d-4923ddaba0dc","{""num_scrambled_semantic"":""8"",""num_scrambled_causal"":""4"",""num_scrambled_schematic"":""4"",""participantId"":""8FD48F2ED02A4A36B643A64C8342D78D"",""assignmentId"":""f482a0d5-73da-4d4d-89b5-af40f9d2175d"",""projectId"":""051c06f1-75cc-4548-856d-4923ddaba0dc""}","https://test12345.live/?num_scrambled_semantic=8&num_scrambled_causal=4&num_scrambled_schematic=4&participantId=8FD48F2ED02A4A36B643A64C8342D78D&assignmentId=f482a0d5-73da-4d4d-89b5-af40f9d2175d&projectId=051c06f1-75cc-4548-856d-4923ddaba0dc","8FD48F2ED02A4A36B643A64C8342D78D-2025-05-15-18-52-10","","null","","images/causal_sequence/package_causal/package_causal_ten.png","null","",""
"","","","","","image-button-response","108","493883","0.0-14.0-1.0-1.6","8FD48F2ED02A4A36B643A64C8342D78D","8FD48F2ED02A4A36B643A64C8342D78D","f482a0d5-73da-4d4d-89b5-af40f9d2175d","051c06f1-75cc-4548-856d-4923ddaba0dc","{""num_scrambled_semantic"":""8"",""num_scrambled_causal"":""4"",""num_scrambled_schematic"":""4"",""participantId"":""8FD48F2ED02A4A36B643A64C8342D78D"",""assignmentId"":""f482a0d5-73da-4d4d-89b5-af40f9d2175d"",""projectId"":""051c06f1-75cc-4548-856d-4923ddaba0dc""}","https://test12345.live/?num_scrambled_semantic=8&num_scrambled_causal=4&num_scrambled_schematic=4&participantId=8FD48F2ED02A4A36B643A64C8342D78D&assignmentId=f482a0d5-73da-4d4d-89b5-af40f9d2175d&projectId=051c06f1-75cc-4548-856d-4923ddaba0dc","8FD48F2ED02A4A36B643A64C8342D78D-2025-05-15-18-52-10","","534","","images/causal_sequence/package_causal/package_causal_ten.png","0","",""
"","","","","","image-button-response","109","495690","0.0-14.0-1.0-2.6","8FD48F2ED02A4A36B643A64C8342D78D","8FD48F2ED02A4A36B643A64C8342D78D","f482a0d5-73da-4d4d-89b5-af40f9d2175d","051c06f1-75cc-4548-856d-4923ddaba0dc","{""num_scrambled_semantic"":""8"",""num_scrambled_causal"":""4"",""num_scrambled_schematic"":""4"",""participantId"":""8FD48F2ED02A4A36B643A64C8342D78D"",""assignmentId"":""f482a0d5-73da-4d4d-89b5-af40f9d2175d"",""projectId"":""051c06f1-75cc-4548-856d-4923ddaba0dc""}","https://test12345.live/?num_scrambled_semantic=8&num_scrambled_causal=4&num_scrambled_schematic=4&participantId=8FD48F2ED02A4A36B643A64C8342D78D&assignmentId=f482a0d5-73da-4d4d-89b5-af40f9d2175d&projectId=051c06f1-75cc-4548-856d-4923ddaba0dc","8FD48F2ED02A4A36B643A64C8342D78D-2025-05-15-18-52-10","","null","","[]","null","",""
"","","","","","image-button-response","110","500201","0.0-14.0-1.0-0.7","8FD48F2ED02A4A36B643A64C8342D78D","8FD48F2ED02A4A36B643A64C8342D78D","f482a0d5-73da-4d4d-89b5-af40f9d2175d","051c06f1-75cc-4548-856d-4923ddaba0dc","{""num_scrambled_semantic"":""8"",""num_scrambled_causal"":""4"",""num_scrambled_schematic"":""4"",""participantId"":""8FD48F2ED02A4A36B643A64C8342D78D"",""assignmentId"":""f482a0d5-73da-4d4d-89b5-af40f9d2175d"",""projectId"":""051c06f1-75cc-4548-856d-4923ddaba0dc""}","https://test12345.live/?num_scrambled_semantic=8&num_scrambled_causal=4&num_scrambled_schematic=4&participantId=8FD48F2ED02A4A36B643A64C8342D78D&assignmentId=f482a0d5-73da-4d4d-89b5-af40f9d2175d&projectId=051c06f1-75cc-4548-856d-4923ddaba0dc","8FD48F2ED02A4A36B643A64C8342D78D-2025-05-15-18-52-10","","null","","images/causal_sequence/package_causal/package_causal_2.png","null","",""
"","","","","","image-button-response","111","500972","0.0-14.0-1.0-1.7","8FD48F2ED02A4A36B643A64C8342D78D","8FD48F2ED02A4A36B643A64C8342D78D","f482a0d5-73da-4d4d-89b5-af40f9d2175d","051c06f1-75cc-4548-856d-4923ddaba0dc","{""num_scrambled_semantic"":""8"",""num_scrambled_causal"":""4"",""num_scrambled_schematic"":""4"",""participantId"":""8FD48F2ED02A4A36B643A64C8342D78D"",""assignmentId"":""f482a0d5-73da-4d4d-89b5-af40f9d2175d"",""projectId"":""051c06f1-75cc-4548-856d-4923ddaba0dc""}","https://test12345.live/?num_scrambled_semantic=8&num_scrambled_causal=4&num_scrambled_schematic=4&participantId=8FD48F2ED02A4A36B643A64C8342D78D&assignmentId=f482a0d5-73da-4d4d-89b5-af40f9d2175d&projectId=051c06f1-75cc-4548-856d-4923ddaba0dc","8FD48F2ED02A4A36B643A64C8342D78D-2025-05-15-18-52-10","","769","","images/causal_sequence/package_causal/package_causal_2.png","0","",""
"","","","","","image-button-response","112","502777","0.0-14.0-1.0-2.7","8FD48F2ED02A4A36B643A64C8342D78D","8FD48F2ED02A4A36B643A64C8342D78D","f482a0d5-73da-4d4d-89b5-af40f9d2175d","051c06f1-75cc-4548-856d-4923ddaba0dc","{""num_scrambled_semantic"":""8"",""num_scrambled_causal"":""4"",""num_scrambled_schematic"":""4"",""participantId"":""8FD48F2ED02A4A36B643A64C8342D78D"",""assignmentId"":""f482a0d5-73da-4d4d-89b5-af40f9d2175d"",""projectId"":""051c06f1-75cc-4548-856d-4923ddaba0dc""}","https://test12345.live/?num_scrambled_semantic=8&num_scrambled_causal=4&num_scrambled_schematic=4&participantId=8FD48F2ED02A4A36B643A64C8342D78D&assignmentId=f482a0d5-73da-4d4d-89b5-af40f9d2175d&projectId=051c06f1-75cc-4548-856d-4923ddaba0dc","8FD48F2ED02A4A36B643A64C8342D78D-2025-05-15-18-52-10","","null","","[]","null","",""
"","","","","","image-button-response","113","507290","0.0-14.0-1.0-0.8","8FD48F2ED02A4A36B643A64C8342D78D","8FD48F2ED02A4A36B643A64C8342D78D","f482a0d5-73da-4d4d-89b5-af40f9d2175d","051c06f1-75cc-4548-856d-4923ddaba0dc","{""num_scrambled_semantic"":""8"",""num_scrambled_causal"":""4"",""num_scrambled_schematic"":""4"",""participantId"":""8FD48F2ED02A4A36B643A64C8342D78D"",""assignmentId"":""f482a0d5-73da-4d4d-89b5-af40f9d2175d"",""projectId"":""051c06f1-75cc-4548-856d-4923ddaba0dc""}","https://test12345.live/?num_scrambled_semantic=8&num_scrambled_causal=4&num_scrambled_schematic=4&participantId=8FD48F2ED02A4A36B643A64C8342D78D&assignmentId=f482a0d5-73da-4d4d-89b5-af40f9d2175d&projectId=051c06f1-75cc-4548-856d-4923ddaba0dc","8FD48F2ED02A4A36B643A64C8342D78D-2025-05-15-18-52-10","","null","","images/causal_sequence/package_causal/package_causal_7.png","null","",""
"","","","","","image-button-response","114","508063","0.0-14.0-1.0-1.8","8FD48F2ED02A4A36B643A64C8342D78D","8FD48F2ED02A4A36B643A64C8342D78D","f482a0d5-73da-4d4d-89b5-af40f9d2175d","051c06f1-75cc-4548-856d-4923ddaba0dc","{""num_scrambled_semantic"":""8"",""num_scrambled_causal"":""4"",""num_scrambled_schematic"":""4"",""participantId"":""8FD48F2ED02A4A36B643A64C8342D78D"",""assignmentId"":""f482a0d5-73da-4d4d-89b5-af40f9d2175d"",""projectId"":""051c06f1-75cc-4548-856d-4923ddaba0dc""}","https://test12345.live/?num_scrambled_semantic=8&num_scrambled_causal=4&num_scrambled_schematic=4&participantId=8FD48F2ED02A4A36B643A64C8342D78D&assignmentId=f482a0d5-73da-4d4d-89b5-af40f9d2175d&projectId=051c06f1-75cc-4548-856d-4923ddaba0dc","8FD48F2ED02A4A36B643A64C8342D78D-2025-05-15-18-52-10","","772","","images/causal_sequence/package_causal/package_causal_7.png","0","",""
