"success","timeout","failed_images","failed_audio","failed_video","trial_type","trial_index","time_elapsed","internal_node_id","subject","subject_id","study_id","session_id","urlvar","current_url","audio_id","view_history","rt","device_id","stimulus","response","estimated_stimulus_onset","seq_name"
"true","false","[]","[]","[]","preload","0","16808","0.0-0.0","923774E1DC524B0E9A666C35AB9E57E6","923774E1DC524B0E9A666C35AB9E57E6","ace9786e-2a8b-4bbb-959a-a8f479d7caed","9076ac92-be42-43a2-9634-8b67c7fe93a7","{""num_scrambled_semantic"":""8"",""num_scrambled_causal"":""4"",""num_scrambled_schematic"":""4"",""participantId"":""923774E1DC524B0E9A666C35AB9E57E6"",""assignmentId"":""ace9786e-2a8b-4bbb-959a-a8f479d7caed"",""projectId"":""9076ac92-be42-43a2-9634-8b67c7fe93a7""}","https://test12345.live/?num_scrambled_semantic=8&num_scrambled_causal=4&num_scrambled_schematic=4&participantId=923774E1DC524B0E9A666C35AB9E57E6&assignmentId=ace9786e-2a8b-4bbb-959a-a8f479d7caed&projectId=9076ac92-be42-43a2-9634-8b67c7fe93a7","923774E1DC524B0E9A666C35AB9E57E6-2025-05-22-19-24-35","","","","","","",""
"","","","","","instructions","1","75440","0.0-1.0","923774E1DC524B0E9A666C35AB9E57E6","923774E1DC524B0E9A666C35AB9E57E6","ace9786e-2a8b-4bbb-959a-a8f479d7caed","9076ac92-be42-43a2-9634-8b67c7fe93a7","{""num_scrambled_semantic"":""8"",""num_scrambled_causal"":""4"",""num_scrambled_schematic"":""4"",""participantId"":""923774E1DC524B0E9A666C35AB9E57E6"",""assignmentId"":""ace9786e-2a8b-4bbb-959a-a8f479d7caed"",""projectId"":""9076ac92-be42-43a2-9634-8b67c7fe93a7""}","https://test12345.live/?num_scrambled_semantic=8&num_scrambled_causal=4&num_scrambled_schematic=4&participantId=923774E1DC524B0E9A666C35AB9E57E6&assignmentId=ace9786e-2a8b-4bbb-959a-a8f479d7caed&projectId=9076ac92-be42-43a2-9634-8b67c7fe93a7","923774E1DC524B0E9A666C35AB9E57E6-2025-05-22-19-24-35","[{""page_index"":0,""viewing_time"":58630}]","58631","","","","",""
"","","","","","instructions","2","91662","0.0-2.0","923774E1DC524B0E9A666C35AB9E57E6","923774E1DC524B0E9A666C35AB9E57E6","ace9786e-2a8b-4bbb-959a-a8f479d7caed","9076ac92-be42-43a2-9634-8b67c7fe93a7","{""num_scrambled_semantic"":""8"",""num_scrambled_causal"":""4"",""num_scrambled_schematic"":""4"",""participantId"":""923774E1DC524B0E9A666C35AB9E57E6"",""assignmentId"":""ace9786e-2a8b-4bbb-959a-a8f479d7caed"",""projectId"":""9076ac92-be42-43a2-9634-8b67c7fe93a7""}","https://test12345.live/?num_scrambled_semantic=8&num_scrambled_causal=4&num_scrambled_schematic=4&participantId=923774E1DC524B0E9A666C35AB9E57E6&assignmentId=ace9786e-2a8b-4bbb-959a-a8f479d7caed&projectId=9076ac92-be42-43a2-9634-8b67c7fe93a7","923774E1DC524B0E9A666C35AB9E57E6-2025-05-22-19-24-35","[{""page_index"":0,""viewing_time"":16220}]","16221","","","","",""
"true","","","","","fullscreen","3","96288","0.0-3.0","923774E1DC524B0E9A666C35AB9E57E6","923774E1DC524B0E9A666C35AB9E57E6","ace9786e-2a8b-4bbb-959a-a8f479d7caed","9076ac92-be42-43a2-9634-8b67c7fe93a7","{""num_scrambled_semantic"":""8"",""num_scrambled_causal"":""4"",""num_scrambled_schematic"":""4"",""participantId"":""923774E1DC524B0E9A666C35AB9E57E6"",""assignmentId"":""ace9786e-2a8b-4bbb-959a-a8f479d7caed"",""projectId"":""9076ac92-be42-43a2-9634-8b67c7fe93a7""}","https://test12345.live/?num_scrambled_semantic=8&num_scrambled_causal=4&num_scrambled_schematic=4&participantId=923774E1DC524B0E9A666C35AB9E57E6&assignmentId=ace9786e-2a8b-4bbb-959a-a8f479d7caed&projectId=9076ac92-be42-43a2-9634-8b67c7fe93a7","923774E1DC524B0E9A666C35AB9E57E6-2025-05-22-19-24-35","","3616","","","","",""
"","","","","","initialize-microphone","4","105682","0.0-4.0-0.0","923774E1DC524B0E9A666C35AB9E57E6","923774E1DC524B0E9A666C35AB9E57E6","ace9786e-2a8b-4bbb-959a-a8f479d7caed","9076ac92-be42-43a2-9634-8b67c7fe93a7","{""num_scrambled_semantic"":""8"",""num_scrambled_causal"":""4"",""num_scrambled_schematic"":""4"",""participantId"":""923774E1DC524B0E9A666C35AB9E57E6"",""assignmentId"":""ace9786e-2a8b-4bbb-959a-a8f479d7caed"",""projectId"":""9076ac92-be42-43a2-9634-8b67c7fe93a7""}","https://test12345.live/?num_scrambled_semantic=8&num_scrambled_causal=4&num_scrambled_schematic=4&participantId=923774E1DC524B0E9A666C35AB9E57E6&assignmentId=ace9786e-2a8b-4bbb-959a-a8f479d7caed&projectId=9076ac92-be42-43a2-9634-8b67c7fe93a7","923774E1DC524B0E9A666C35AB9E57E6-2025-05-22-19-24-35","","","c56f7fe3d74c72f7e9c15afa11ba6c3a2345e52aa688ab5990dec85648bd7d32","","","",""
"","","","","","html-audio-response","5","133670","0.0-4.0-1.0","923774E1DC524B0E9A666C35AB9E57E6","923774E1DC524B0E9A666C35AB9E57E6","ace9786e-2a8b-4bbb-959a-a8f479d7caed","9076ac92-be42-43a2-9634-8b67c7fe93a7","{""num_scrambled_semantic"":""8"",""num_scrambled_causal"":""4"",""num_scrambled_schematic"":""4"",""participantId"":""923774E1DC524B0E9A666C35AB9E57E6"",""assignmentId"":""ace9786e-2a8b-4bbb-959a-a8f479d7caed"",""projectId"":""9076ac92-be42-43a2-9634-8b67c7fe93a7""}","https://test12345.live/?num_scrambled_semantic=8&num_scrambled_causal=4&num_scrambled_schematic=4&participantId=923774E1DC524B0E9A666C35AB9E57E6&assignmentId=ace9786e-2a8b-4bbb-959a-a8f479d7caed&projectId=9076ac92-be42-43a2-9634-8b67c7fe93a7","923774E1DC524B0E9A666C35AB9E57E6-2025-05-22-19-24-35","","8495","","<span style=""color: red; font-size: 24px""> NOW RECORDING</span>
        <p>Please test Microphone</p>","","3",""
"","","","","","html-button-response","6","136348","0.0-4.0-2.0","923774E1DC524B0E9A666C35AB9E57E6","923774E1DC524B0E9A666C35AB9E57E6","ace9786e-2a8b-4bbb-959a-a8f479d7caed","9076ac92-be42-43a2-9634-8b67c7fe93a7","{""num_scrambled_semantic"":""8"",""num_scrambled_causal"":""4"",""num_scrambled_schematic"":""4"",""participantId"":""923774E1DC524B0E9A666C35AB9E57E6"",""assignmentId"":""ace9786e-2a8b-4bbb-959a-a8f479d7caed"",""projectId"":""9076ac92-be42-43a2-9634-8b67c7fe93a7""}","https://test12345.live/?num_scrambled_semantic=8&num_scrambled_causal=4&num_scrambled_schematic=4&participantId=923774E1DC524B0E9A666C35AB9E57E6&assignmentId=ace9786e-2a8b-4bbb-959a-a8f479d7caed&projectId=9076ac92-be42-43a2-9634-8b67c7fe93a7","923774E1DC524B0E9A666C35AB9E57E6-2025-05-22-19-24-35","","2676","","<p style=""font-size:48px; color:red;"">Is Microphone OK?</p>","1","",""
"","","","","","instructions","7","156652","0.0-5.0","923774E1DC524B0E9A666C35AB9E57E6","923774E1DC524B0E9A666C35AB9E57E6","ace9786e-2a8b-4bbb-959a-a8f479d7caed","9076ac92-be42-43a2-9634-8b67c7fe93a7","{""num_scrambled_semantic"":""8"",""num_scrambled_causal"":""4"",""num_scrambled_schematic"":""4"",""participantId"":""923774E1DC524B0E9A666C35AB9E57E6"",""assignmentId"":""ace9786e-2a8b-4bbb-959a-a8f479d7caed"",""projectId"":""9076ac92-be42-43a2-9634-8b67c7fe93a7""}","https://test12345.live/?num_scrambled_semantic=8&num_scrambled_causal=4&num_scrambled_schematic=4&participantId=923774E1DC524B0E9A666C35AB9E57E6&assignmentId=ace9786e-2a8b-4bbb-959a-a8f479d7caed&projectId=9076ac92-be42-43a2-9634-8b67c7fe93a7","923774E1DC524B0E9A666C35AB9E57E6-2025-05-22-19-24-35","[{""page_index"":0,""viewing_time"":10408},{""page_index"":1,""viewing_time"":9894}]","20303","","","","",""
"","","","","","image-button-response","8","162666","0.0-6.0-0.0","923774E1DC524B0E9A666C35AB9E57E6","923774E1DC524B0E9A666C35AB9E57E6","ace9786e-2a8b-4bbb-959a-a8f479d7caed","9076ac92-be42-43a2-9634-8b67c7fe93a7","{""num_scrambled_semantic"":""8"",""num_scrambled_causal"":""4"",""num_scrambled_schematic"":""4"",""participantId"":""923774E1DC524B0E9A666C35AB9E57E6"",""assignmentId"":""ace9786e-2a8b-4bbb-959a-a8f479d7caed"",""projectId"":""9076ac92-be42-43a2-9634-8b67c7fe93a7""}","https://test12345.live/?num_scrambled_semantic=8&num_scrambled_causal=4&num_scrambled_schematic=4&participantId=923774E1DC524B0E9A666C35AB9E57E6&assignmentId=ace9786e-2a8b-4bbb-959a-a8f479d7caed&projectId=9076ac92-be42-43a2-9634-8b67c7fe93a7","923774E1DC524B0E9A666C35AB9E57E6-2025-05-22-19-24-35","","null","","images/instructions/movie_0.png","null","",""
"","","","","","image-button-response","9","167176","0.0-6.0-1.0-0.0","923774E1DC524B0E9A666C35AB9E57E6","923774E1DC524B0E9A666C35AB9E57E6","ace9786e-2a8b-4bbb-959a-a8f479d7caed","9076ac92-be42-43a2-9634-8b67c7fe93a7","{""num_scrambled_semantic"":""8"",""num_scrambled_causal"":""4"",""num_scrambled_schematic"":""4"",""participantId"":""923774E1DC524B0E9A666C35AB9E57E6"",""assignmentId"":""ace9786e-2a8b-4bbb-959a-a8f479d7caed"",""projectId"":""9076ac92-be42-43a2-9634-8b67c7fe93a7""}","https://test12345.live/?num_scrambled_semantic=8&num_scrambled_causal=4&num_scrambled_schematic=4&participantId=923774E1DC524B0E9A666C35AB9E57E6&assignmentId=ace9786e-2a8b-4bbb-959a-a8f479d7caed&projectId=9076ac92-be42-43a2-9634-8b67c7fe93a7","923774E1DC524B0E9A666C35AB9E57E6-2025-05-22-19-24-35","","null","","images/instructions/movie_1.png","null","",""
"","","","","","image-button-response","10","169002","0.0-6.0-1.0-1.0","923774E1DC524B0E9A666C35AB9E57E6","923774E1DC524B0E9A666C35AB9E57E6","ace9786e-2a8b-4bbb-959a-a8f479d7caed","9076ac92-be42-43a2-9634-8b67c7fe93a7","{""num_scrambled_semantic"":""8"",""num_scrambled_causal"":""4"",""num_scrambled_schematic"":""4"",""participantId"":""923774E1DC524B0E9A666C35AB9E57E6"",""assignmentId"":""ace9786e-2a8b-4bbb-959a-a8f479d7caed"",""projectId"":""9076ac92-be42-43a2-9634-8b67c7fe93a7""}","https://test12345.live/?num_scrambled_semantic=8&num_scrambled_causal=4&num_scrambled_schematic=4&participantId=923774E1DC524B0E9A666C35AB9E57E6&assignmentId=ace9786e-2a8b-4bbb-959a-a8f479d7caed&projectId=9076ac92-be42-43a2-9634-8b67c7fe93a7","923774E1DC524B0E9A666C35AB9E57E6-2025-05-22-19-24-35","","1823","","images/instructions/movie_1.png","0","",""
"","","","","","image-button-response","11","170806","0.0-6.0-1.0-2.0","923774E1DC524B0E9A666C35AB9E57E6","923774E1DC524B0E9A666C35AB9E57E6","ace9786e-2a8b-4bbb-959a-a8f479d7caed","9076ac92-be42-43a2-9634-8b67c7fe93a7","{""num_scrambled_semantic"":""8"",""num_scrambled_causal"":""4"",""num_scrambled_schematic"":""4"",""participantId"":""923774E1DC524B0E9A666C35AB9E57E6"",""assignmentId"":""ace9786e-2a8b-4bbb-959a-a8f479d7caed"",""projectId"":""9076ac92-be42-43a2-9634-8b67c7fe93a7""}","https://test12345.live/?num_scrambled_semantic=8&num_scrambled_causal=4&num_scrambled_schematic=4&participantId=923774E1DC524B0E9A666C35AB9E57E6&assignmentId=ace9786e-2a8b-4bbb-959a-a8f479d7caed&projectId=9076ac92-be42-43a2-9634-8b67c7fe93a7","923774E1DC524B0E9A666C35AB9E57E6-2025-05-22-19-24-35","","null","","[]","null","",""
"","","","","","image-button-response","12","175312","0.0-6.0-1.0-0.1","923774E1DC524B0E9A666C35AB9E57E6","923774E1DC524B0E9A666C35AB9E57E6","ace9786e-2a8b-4bbb-959a-a8f479d7caed","9076ac92-be42-43a2-9634-8b67c7fe93a7","{""num_scrambled_semantic"":""8"",""num_scrambled_causal"":""4"",""num_scrambled_schematic"":""4"",""participantId"":""923774E1DC524B0E9A666C35AB9E57E6"",""assignmentId"":""ace9786e-2a8b-4bbb-959a-a8f479d7caed"",""projectId"":""9076ac92-be42-43a2-9634-8b67c7fe93a7""}","https://test12345.live/?num_scrambled_semantic=8&num_scrambled_causal=4&num_scrambled_schematic=4&participantId=923774E1DC524B0E9A666C35AB9E57E6&assignmentId=ace9786e-2a8b-4bbb-959a-a8f479d7caed&projectId=9076ac92-be42-43a2-9634-8b67c7fe93a7","923774E1DC524B0E9A666C35AB9E57E6-2025-05-22-19-24-35","","null","","images/instructions/movie_2.png","null","",""
"","","","","","image-button-response","13","176868","0.0-6.0-1.0-1.1","923774E1DC524B0E9A666C35AB9E57E6","923774E1DC524B0E9A666C35AB9E57E6","ace9786e-2a8b-4bbb-959a-a8f479d7caed","9076ac92-be42-43a2-9634-8b67c7fe93a7","{""num_scrambled_semantic"":""8"",""num_scrambled_causal"":""4"",""num_scrambled_schematic"":""4"",""participantId"":""923774E1DC524B0E9A666C35AB9E57E6"",""assignmentId"":""ace9786e-2a8b-4bbb-959a-a8f479d7caed"",""projectId"":""9076ac92-be42-43a2-9634-8b67c7fe93a7""}","https://test12345.live/?num_scrambled_semantic=8&num_scrambled_causal=4&num_scrambled_schematic=4&participantId=923774E1DC524B0E9A666C35AB9E57E6&assignmentId=ace9786e-2a8b-4bbb-959a-a8f479d7caed&projectId=9076ac92-be42-43a2-9634-8b67c7fe93a7","923774E1DC524B0E9A666C35AB9E57E6-2025-05-22-19-24-35","","1553","","images/instructions/movie_2.png","0","",""
"","","","","","image-button-response","14","178675","0.0-6.0-1.0-2.1","923774E1DC524B0E9A666C35AB9E57E6","923774E1DC524B0E9A666C35AB9E57E6","ace9786e-2a8b-4bbb-959a-a8f479d7caed","9076ac92-be42-43a2-9634-8b67c7fe93a7","{""num_scrambled_semantic"":""8"",""num_scrambled_causal"":""4"",""num_scrambled_schematic"":""4"",""participantId"":""923774E1DC524B0E9A666C35AB9E57E6"",""assignmentId"":""ace9786e-2a8b-4bbb-959a-a8f479d7caed"",""projectId"":""9076ac92-be42-43a2-9634-8b67c7fe93a7""}","https://test12345.live/?num_scrambled_semantic=8&num_scrambled_causal=4&num_scrambled_schematic=4&participantId=923774E1DC524B0E9A666C35AB9E57E6&assignmentId=ace9786e-2a8b-4bbb-959a-a8f479d7caed&projectId=9076ac92-be42-43a2-9634-8b67c7fe93a7","923774E1DC524B0E9A666C35AB9E57E6-2025-05-22-19-24-35","","null","","[]","null","",""
"","","","","","image-button-response","15","183185","0.0-6.0-1.0-0.2","923774E1DC524B0E9A666C35AB9E57E6","923774E1DC524B0E9A666C35AB9E57E6","ace9786e-2a8b-4bbb-959a-a8f479d7caed","9076ac92-be42-43a2-9634-8b67c7fe93a7","{""num_scrambled_semantic"":""8"",""num_scrambled_causal"":""4"",""num_scrambled_schematic"":""4"",""participantId"":""923774E1DC524B0E9A666C35AB9E57E6"",""assignmentId"":""ace9786e-2a8b-4bbb-959a-a8f479d7caed"",""projectId"":""9076ac92-be42-43a2-9634-8b67c7fe93a7""}","https://test12345.live/?num_scrambled_semantic=8&num_scrambled_causal=4&num_scrambled_schematic=4&participantId=923774E1DC524B0E9A666C35AB9E57E6&assignmentId=ace9786e-2a8b-4bbb-959a-a8f479d7caed&projectId=9076ac92-be42-43a2-9634-8b67c7fe93a7","923774E1DC524B0E9A666C35AB9E57E6-2025-05-22-19-24-35","","null","","images/instructions/movie_3.png","null","",""
"","","","","","image-button-response","16","184314","0.0-6.0-1.0-1.2","923774E1DC524B0E9A666C35AB9E57E6","923774E1DC524B0E9A666C35AB9E57E6","ace9786e-2a8b-4bbb-959a-a8f479d7caed","9076ac92-be42-43a2-9634-8b67c7fe93a7","{""num_scrambled_semantic"":""8"",""num_scrambled_causal"":""4"",""num_scrambled_schematic"":""4"",""participantId"":""923774E1DC524B0E9A666C35AB9E57E6"",""assignmentId"":""ace9786e-2a8b-4bbb-959a-a8f479d7caed"",""projectId"":""9076ac92-be42-43a2-9634-8b67c7fe93a7""}","https://test12345.live/?num_scrambled_semantic=8&num_scrambled_causal=4&num_scrambled_schematic=4&participantId=923774E1DC524B0E9A666C35AB9E57E6&assignmentId=ace9786e-2a8b-4bbb-959a-a8f479d7caed&projectId=9076ac92-be42-43a2-9634-8b67c7fe93a7","923774E1DC524B0E9A666C35AB9E57E6-2025-05-22-19-24-35","","1126","","images/instructions/movie_3.png","0","",""
"","","","","","image-button-response","17","186122","0.0-6.0-1.0-2.2","923774E1DC524B0E9A666C35AB9E57E6","923774E1DC524B0E9A666C35AB9E57E6","ace9786e-2a8b-4bbb-959a-a8f479d7caed","9076ac92-be42-43a2-9634-8b67c7fe93a7","{""num_scrambled_semantic"":""8"",""num_scrambled_causal"":""4"",""num_scrambled_schematic"":""4"",""participantId"":""923774E1DC524B0E9A666C35AB9E57E6"",""assignmentId"":""ace9786e-2a8b-4bbb-959a-a8f479d7caed"",""projectId"":""9076ac92-be42-43a2-9634-8b67c7fe93a7""}","https://test12345.live/?num_scrambled_semantic=8&num_scrambled_causal=4&num_scrambled_schematic=4&participantId=923774E1DC524B0E9A666C35AB9E57E6&assignmentId=ace9786e-2a8b-4bbb-959a-a8f479d7caed&projectId=9076ac92-be42-43a2-9634-8b67c7fe93a7","923774E1DC524B0E9A666C35AB9E57E6-2025-05-22-19-24-35","","null","","[]","null","",""
"","","","","","image-button-response","18","190627","0.0-6.0-1.0-0.3","923774E1DC524B0E9A666C35AB9E57E6","923774E1DC524B0E9A666C35AB9E57E6","ace9786e-2a8b-4bbb-959a-a8f479d7caed","9076ac92-be42-43a2-9634-8b67c7fe93a7","{""num_scrambled_semantic"":""8"",""num_scrambled_causal"":""4"",""num_scrambled_schematic"":""4"",""participantId"":""923774E1DC524B0E9A666C35AB9E57E6"",""assignmentId"":""ace9786e-2a8b-4bbb-959a-a8f479d7caed"",""projectId"":""9076ac92-be42-43a2-9634-8b67c7fe93a7""}","https://test12345.live/?num_scrambled_semantic=8&num_scrambled_causal=4&num_scrambled_schematic=4&participantId=923774E1DC524B0E9A666C35AB9E57E6&assignmentId=ace9786e-2a8b-4bbb-959a-a8f479d7caed&projectId=9076ac92-be42-43a2-9634-8b67c7fe93a7","923774E1DC524B0E9A666C35AB9E57E6-2025-05-22-19-24-35","","null","","images/instructions/movie_4.png","null","",""
"","","","","","image-button-response","19","192384","0.0-6.0-1.0-1.3","923774E1DC524B0E9A666C35AB9E57E6","923774E1DC524B0E9A666C35AB9E57E6","ace9786e-2a8b-4bbb-959a-a8f479d7caed","9076ac92-be42-43a2-9634-8b67c7fe93a7","{""num_scrambled_semantic"":""8"",""num_scrambled_causal"":""4"",""num_scrambled_schematic"":""4"",""participantId"":""923774E1DC524B0E9A666C35AB9E57E6"",""assignmentId"":""ace9786e-2a8b-4bbb-959a-a8f479d7caed"",""projectId"":""9076ac92-be42-43a2-9634-8b67c7fe93a7""}","https://test12345.live/?num_scrambled_semantic=8&num_scrambled_causal=4&num_scrambled_schematic=4&participantId=923774E1DC524B0E9A666C35AB9E57E6&assignmentId=ace9786e-2a8b-4bbb-959a-a8f479d7caed&projectId=9076ac92-be42-43a2-9634-8b67c7fe93a7","923774E1DC524B0E9A666C35AB9E57E6-2025-05-22-19-24-35","","1755","","images/instructions/movie_4.png","0","",""
"","","","","","image-button-response","20","194186","0.0-6.0-1.0-2.3","923774E1DC524B0E9A666C35AB9E57E6","923774E1DC524B0E9A666C35AB9E57E6","ace9786e-2a8b-4bbb-959a-a8f479d7caed","9076ac92-be42-43a2-9634-8b67c7fe93a7","{""num_scrambled_semantic"":""8"",""num_scrambled_causal"":""4"",""num_scrambled_schematic"":""4"",""participantId"":""923774E1DC524B0E9A666C35AB9E57E6"",""assignmentId"":""ace9786e-2a8b-4bbb-959a-a8f479d7caed"",""projectId"":""9076ac92-be42-43a2-9634-8b67c7fe93a7""}","https://test12345.live/?num_scrambled_semantic=8&num_scrambled_causal=4&num_scrambled_schematic=4&participantId=923774E1DC524B0E9A666C35AB9E57E6&assignmentId=ace9786e-2a8b-4bbb-959a-a8f479d7caed&projectId=9076ac92-be42-43a2-9634-8b67c7fe93a7","923774E1DC524B0E9A666C35AB9E57E6-2025-05-22-19-24-35","","null","","[]","null","",""
"","","","","","instructions","21","208863","0.0-7.0","923774E1DC524B0E9A666C35AB9E57E6","923774E1DC524B0E9A666C35AB9E57E6","ace9786e-2a8b-4bbb-959a-a8f479d7caed","9076ac92-be42-43a2-9634-8b67c7fe93a7","{""num_scrambled_semantic"":""8"",""num_scrambled_causal"":""4"",""num_scrambled_schematic"":""4"",""participantId"":""923774E1DC524B0E9A666C35AB9E57E6"",""assignmentId"":""ace9786e-2a8b-4bbb-959a-a8f479d7caed"",""projectId"":""9076ac92-be42-43a2-9634-8b67c7fe93a7""}","https://test12345.live/?num_scrambled_semantic=8&num_scrambled_causal=4&num_scrambled_schematic=4&participantId=923774E1DC524B0E9A666C35AB9E57E6&assignmentId=ace9786e-2a8b-4bbb-959a-a8f479d7caed&projectId=9076ac92-be42-43a2-9634-8b67c7fe93a7","923774E1DC524B0E9A666C35AB9E57E6-2025-05-22-19-24-35","[{""page_index"":0,""viewing_time"":12307},{""page_index"":1,""viewing_time"":2368}]","14675","","","","",""
"","","","","","html-audio-response","22","252493","0.0-8.0","923774E1DC524B0E9A666C35AB9E57E6","923774E1DC524B0E9A666C35AB9E57E6","ace9786e-2a8b-4bbb-959a-a8f479d7caed","9076ac92-be42-43a2-9634-8b67c7fe93a7","{""num_scrambled_semantic"":""8"",""num_scrambled_causal"":""4"",""num_scrambled_schematic"":""4"",""participantId"":""923774E1DC524B0E9A666C35AB9E57E6"",""assignmentId"":""ace9786e-2a8b-4bbb-959a-a8f479d7caed"",""projectId"":""9076ac92-be42-43a2-9634-8b67c7fe93a7""}","https://test12345.live/?num_scrambled_semantic=8&num_scrambled_causal=4&num_scrambled_schematic=4&participantId=923774E1DC524B0E9A666C35AB9E57E6&assignmentId=ace9786e-2a8b-4bbb-959a-a8f479d7caed&projectId=9076ac92-be42-43a2-9634-8b67c7fe93a7","923774E1DC524B0E9A666C35AB9E57E6-2025-05-22-19-24-35","","18942","","[""<span style=\""color: red; font-size: 24px\""> NOW RECORDING</span><p>Please say out loud all the images you saw in the exact order you saw them. Try to recall as many images as you can, but remember: getting the order right is more important than the number of images you recall.</p>""]","","2",""
"","","","","","instructions","23","254635","0.0-9.0","923774E1DC524B0E9A666C35AB9E57E6","923774E1DC524B0E9A666C35AB9E57E6","ace9786e-2a8b-4bbb-959a-a8f479d7caed","9076ac92-be42-43a2-9634-8b67c7fe93a7","{""num_scrambled_semantic"":""8"",""num_scrambled_causal"":""4"",""num_scrambled_schematic"":""4"",""participantId"":""923774E1DC524B0E9A666C35AB9E57E6"",""assignmentId"":""ace9786e-2a8b-4bbb-959a-a8f479d7caed"",""projectId"":""9076ac92-be42-43a2-9634-8b67c7fe93a7""}","https://test12345.live/?num_scrambled_semantic=8&num_scrambled_causal=4&num_scrambled_schematic=4&participantId=923774E1DC524B0E9A666C35AB9E57E6&assignmentId=ace9786e-2a8b-4bbb-959a-a8f479d7caed&projectId=9076ac92-be42-43a2-9634-8b67c7fe93a7","923774E1DC524B0E9A666C35AB9E57E6-2025-05-22-19-24-35","[{""page_index"":0,""viewing_time"":2134}]","2135","","","","",""
"","","","","","image-button-response","24","260643","0.0-10.0-0.0","923774E1DC524B0E9A666C35AB9E57E6","923774E1DC524B0E9A666C35AB9E57E6","ace9786e-2a8b-4bbb-959a-a8f479d7caed","9076ac92-be42-43a2-9634-8b67c7fe93a7","{""num_scrambled_semantic"":""8"",""num_scrambled_causal"":""4"",""num_scrambled_schematic"":""4"",""participantId"":""923774E1DC524B0E9A666C35AB9E57E6"",""assignmentId"":""ace9786e-2a8b-4bbb-959a-a8f479d7caed"",""projectId"":""9076ac92-be42-43a2-9634-8b67c7fe93a7""}","https://test12345.live/?num_scrambled_semantic=8&num_scrambled_causal=4&num_scrambled_schematic=4&participantId=923774E1DC524B0E9A666C35AB9E57E6&assignmentId=ace9786e-2a8b-4bbb-959a-a8f479d7caed&projectId=9076ac92-be42-43a2-9634-8b67c7fe93a7","923774E1DC524B0E9A666C35AB9E57E6-2025-05-22-19-24-35","","null","","images/semantic_sequence/creative_activities_semantic/creative_activities_semantic_0.png","null","",""
"","","","","","image-button-response","25","265153","0.0-10.0-1.0-0.0","923774E1DC524B0E9A666C35AB9E57E6","923774E1DC524B0E9A666C35AB9E57E6","ace9786e-2a8b-4bbb-959a-a8f479d7caed","9076ac92-be42-43a2-9634-8b67c7fe93a7","{""num_scrambled_semantic"":""8"",""num_scrambled_causal"":""4"",""num_scrambled_schematic"":""4"",""participantId"":""923774E1DC524B0E9A666C35AB9E57E6"",""assignmentId"":""ace9786e-2a8b-4bbb-959a-a8f479d7caed"",""projectId"":""9076ac92-be42-43a2-9634-8b67c7fe93a7""}","https://test12345.live/?num_scrambled_semantic=8&num_scrambled_causal=4&num_scrambled_schematic=4&participantId=923774E1DC524B0E9A666C35AB9E57E6&assignmentId=ace9786e-2a8b-4bbb-959a-a8f479d7caed&projectId=9076ac92-be42-43a2-9634-8b67c7fe93a7","923774E1DC524B0E9A666C35AB9E57E6-2025-05-22-19-24-35","","null","","images/semantic_sequence/creative_activities_semantic/creative_activities_semantic_1.png","null","",""
"","","","","","image-button-response","26","267601","0.0-10.0-1.0-1.0","923774E1DC524B0E9A666C35AB9E57E6","923774E1DC524B0E9A666C35AB9E57E6","ace9786e-2a8b-4bbb-959a-a8f479d7caed","9076ac92-be42-43a2-9634-8b67c7fe93a7","{""num_scrambled_semantic"":""8"",""num_scrambled_causal"":""4"",""num_scrambled_schematic"":""4"",""participantId"":""923774E1DC524B0E9A666C35AB9E57E6"",""assignmentId"":""ace9786e-2a8b-4bbb-959a-a8f479d7caed"",""projectId"":""9076ac92-be42-43a2-9634-8b67c7fe93a7""}","https://test12345.live/?num_scrambled_semantic=8&num_scrambled_causal=4&num_scrambled_schematic=4&participantId=923774E1DC524B0E9A666C35AB9E57E6&assignmentId=ace9786e-2a8b-4bbb-959a-a8f479d7caed&projectId=9076ac92-be42-43a2-9634-8b67c7fe93a7","923774E1DC524B0E9A666C35AB9E57E6-2025-05-22-19-24-35","","2446","","images/semantic_sequence/creative_activities_semantic/creative_activities_semantic_1.png","0","",""
"","","","","","image-button-response","27","269408","0.0-10.0-1.0-2.0","923774E1DC524B0E9A666C35AB9E57E6","923774E1DC524B0E9A666C35AB9E57E6","ace9786e-2a8b-4bbb-959a-a8f479d7caed","9076ac92-be42-43a2-9634-8b67c7fe93a7","{""num_scrambled_semantic"":""8"",""num_scrambled_causal"":""4"",""num_scrambled_schematic"":""4"",""participantId"":""923774E1DC524B0E9A666C35AB9E57E6"",""assignmentId"":""ace9786e-2a8b-4bbb-959a-a8f479d7caed"",""projectId"":""9076ac92-be42-43a2-9634-8b67c7fe93a7""}","https://test12345.live/?num_scrambled_semantic=8&num_scrambled_causal=4&num_scrambled_schematic=4&participantId=923774E1DC524B0E9A666C35AB9E57E6&assignmentId=ace9786e-2a8b-4bbb-959a-a8f479d7caed&projectId=9076ac92-be42-43a2-9634-8b67c7fe93a7","923774E1DC524B0E9A666C35AB9E57E6-2025-05-22-19-24-35","","null","","[]","null","",""
"","","","","","image-button-response","28","273913","0.0-10.0-1.0-0.1","923774E1DC524B0E9A666C35AB9E57E6","923774E1DC524B0E9A666C35AB9E57E6","ace9786e-2a8b-4bbb-959a-a8f479d7caed","9076ac92-be42-43a2-9634-8b67c7fe93a7","{""num_scrambled_semantic"":""8"",""num_scrambled_causal"":""4"",""num_scrambled_schematic"":""4"",""participantId"":""923774E1DC524B0E9A666C35AB9E57E6"",""assignmentId"":""ace9786e-2a8b-4bbb-959a-a8f479d7caed"",""projectId"":""9076ac92-be42-43a2-9634-8b67c7fe93a7""}","https://test12345.live/?num_scrambled_semantic=8&num_scrambled_causal=4&num_scrambled_schematic=4&participantId=923774E1DC524B0E9A666C35AB9E57E6&assignmentId=ace9786e-2a8b-4bbb-959a-a8f479d7caed&projectId=9076ac92-be42-43a2-9634-8b67c7fe93a7","923774E1DC524B0E9A666C35AB9E57E6-2025-05-22-19-24-35","","null","","images/semantic_sequence/creative_activities_semantic/creative_activities_semantic_2.png","null","",""
"","","","","","image-button-response","29","274891","0.0-10.0-1.0-1.1","923774E1DC524B0E9A666C35AB9E57E6","923774E1DC524B0E9A666C35AB9E57E6","ace9786e-2a8b-4bbb-959a-a8f479d7caed","9076ac92-be42-43a2-9634-8b67c7fe93a7","{""num_scrambled_semantic"":""8"",""num_scrambled_causal"":""4"",""num_scrambled_schematic"":""4"",""participantId"":""923774E1DC524B0E9A666C35AB9E57E6"",""assignmentId"":""ace9786e-2a8b-4bbb-959a-a8f479d7caed"",""projectId"":""9076ac92-be42-43a2-9634-8b67c7fe93a7""}","https://test12345.live/?num_scrambled_semantic=8&num_scrambled_causal=4&num_scrambled_schematic=4&participantId=923774E1DC524B0E9A666C35AB9E57E6&assignmentId=ace9786e-2a8b-4bbb-959a-a8f479d7caed&projectId=9076ac92-be42-43a2-9634-8b67c7fe93a7","923774E1DC524B0E9A666C35AB9E57E6-2025-05-22-19-24-35","","976","","images/semantic_sequence/creative_activities_semantic/creative_activities_semantic_2.png","0","",""
"","","","","","image-button-response","30","276697","0.0-10.0-1.0-2.1","923774E1DC524B0E9A666C35AB9E57E6","923774E1DC524B0E9A666C35AB9E57E6","ace9786e-2a8b-4bbb-959a-a8f479d7caed","9076ac92-be42-43a2-9634-8b67c7fe93a7","{""num_scrambled_semantic"":""8"",""num_scrambled_causal"":""4"",""num_scrambled_schematic"":""4"",""participantId"":""923774E1DC524B0E9A666C35AB9E57E6"",""assignmentId"":""ace9786e-2a8b-4bbb-959a-a8f479d7caed"",""projectId"":""9076ac92-be42-43a2-9634-8b67c7fe93a7""}","https://test12345.live/?num_scrambled_semantic=8&num_scrambled_causal=4&num_scrambled_schematic=4&participantId=923774E1DC524B0E9A666C35AB9E57E6&assignmentId=ace9786e-2a8b-4bbb-959a-a8f479d7caed&projectId=9076ac92-be42-43a2-9634-8b67c7fe93a7","923774E1DC524B0E9A666C35AB9E57E6-2025-05-22-19-24-35","","null","","[]","null","",""
"","","","","","image-button-response","31","281210","0.0-10.0-1.0-0.2","923774E1DC524B0E9A666C35AB9E57E6","923774E1DC524B0E9A666C35AB9E57E6","ace9786e-2a8b-4bbb-959a-a8f479d7caed","9076ac92-be42-43a2-9634-8b67c7fe93a7","{""num_scrambled_semantic"":""8"",""num_scrambled_causal"":""4"",""num_scrambled_schematic"":""4"",""participantId"":""923774E1DC524B0E9A666C35AB9E57E6"",""assignmentId"":""ace9786e-2a8b-4bbb-959a-a8f479d7caed"",""projectId"":""9076ac92-be42-43a2-9634-8b67c7fe93a7""}","https://test12345.live/?num_scrambled_semantic=8&num_scrambled_causal=4&num_scrambled_schematic=4&participantId=923774E1DC524B0E9A666C35AB9E57E6&assignmentId=ace9786e-2a8b-4bbb-959a-a8f479d7caed&projectId=9076ac92-be42-43a2-9634-8b67c7fe93a7","923774E1DC524B0E9A666C35AB9E57E6-2025-05-22-19-24-35","","null","","images/semantic_sequence/creative_activities_semantic/creative_activities_semantic_3.png","null","",""
"","","","","","image-button-response","32","282672","0.0-10.0-1.0-1.2","923774E1DC524B0E9A666C35AB9E57E6","923774E1DC524B0E9A666C35AB9E57E6","ace9786e-2a8b-4bbb-959a-a8f479d7caed","9076ac92-be42-43a2-9634-8b67c7fe93a7","{""num_scrambled_semantic"":""8"",""num_scrambled_causal"":""4"",""num_scrambled_schematic"":""4"",""participantId"":""923774E1DC524B0E9A666C35AB9E57E6"",""assignmentId"":""ace9786e-2a8b-4bbb-959a-a8f479d7caed"",""projectId"":""9076ac92-be42-43a2-9634-8b67c7fe93a7""}","https://test12345.live/?num_scrambled_semantic=8&num_scrambled_causal=4&num_scrambled_schematic=4&participantId=923774E1DC524B0E9A666C35AB9E57E6&assignmentId=ace9786e-2a8b-4bbb-959a-a8f479d7caed&projectId=9076ac92-be42-43a2-9634-8b67c7fe93a7","923774E1DC524B0E9A666C35AB9E57E6-2025-05-22-19-24-35","","1459","","images/semantic_sequence/creative_activities_semantic/creative_activities_semantic_3.png","0","",""
"","","","","","image-button-response","33","284483","0.0-10.0-1.0-2.2","923774E1DC524B0E9A666C35AB9E57E6","923774E1DC524B0E9A666C35AB9E57E6","ace9786e-2a8b-4bbb-959a-a8f479d7caed","9076ac92-be42-43a2-9634-8b67c7fe93a7","{""num_scrambled_semantic"":""8"",""num_scrambled_causal"":""4"",""num_scrambled_schematic"":""4"",""participantId"":""923774E1DC524B0E9A666C35AB9E57E6"",""assignmentId"":""ace9786e-2a8b-4bbb-959a-a8f479d7caed"",""projectId"":""9076ac92-be42-43a2-9634-8b67c7fe93a7""}","https://test12345.live/?num_scrambled_semantic=8&num_scrambled_causal=4&num_scrambled_schematic=4&participantId=923774E1DC524B0E9A666C35AB9E57E6&assignmentId=ace9786e-2a8b-4bbb-959a-a8f479d7caed&projectId=9076ac92-be42-43a2-9634-8b67c7fe93a7","923774E1DC524B0E9A666C35AB9E57E6-2025-05-22-19-24-35","","null","","[]","null","",""
"","","","","","image-button-response","34","288993","0.0-10.0-1.0-0.3","923774E1DC524B0E9A666C35AB9E57E6","923774E1DC524B0E9A666C35AB9E57E6","ace9786e-2a8b-4bbb-959a-a8f479d7caed","9076ac92-be42-43a2-9634-8b67c7fe93a7","{""num_scrambled_semantic"":""8"",""num_scrambled_causal"":""4"",""num_scrambled_schematic"":""4"",""participantId"":""923774E1DC524B0E9A666C35AB9E57E6"",""assignmentId"":""ace9786e-2a8b-4bbb-959a-a8f479d7caed"",""projectId"":""9076ac92-be42-43a2-9634-8b67c7fe93a7""}","https://test12345.live/?num_scrambled_semantic=8&num_scrambled_causal=4&num_scrambled_schematic=4&participantId=923774E1DC524B0E9A666C35AB9E57E6&assignmentId=ace9786e-2a8b-4bbb-959a-a8f479d7caed&projectId=9076ac92-be42-43a2-9634-8b67c7fe93a7","923774E1DC524B0E9A666C35AB9E57E6-2025-05-22-19-24-35","","null","","images/semantic_sequence/creative_activities_semantic/creative_activities_semantic_4.png","null","",""
"","","","","","image-button-response","35","292652","0.0-10.0-1.0-1.3","923774E1DC524B0E9A666C35AB9E57E6","923774E1DC524B0E9A666C35AB9E57E6","ace9786e-2a8b-4bbb-959a-a8f479d7caed","9076ac92-be42-43a2-9634-8b67c7fe93a7","{""num_scrambled_semantic"":""8"",""num_scrambled_causal"":""4"",""num_scrambled_schematic"":""4"",""participantId"":""923774E1DC524B0E9A666C35AB9E57E6"",""assignmentId"":""ace9786e-2a8b-4bbb-959a-a8f479d7caed"",""projectId"":""9076ac92-be42-43a2-9634-8b67c7fe93a7""}","https://test12345.live/?num_scrambled_semantic=8&num_scrambled_causal=4&num_scrambled_schematic=4&participantId=923774E1DC524B0E9A666C35AB9E57E6&assignmentId=ace9786e-2a8b-4bbb-959a-a8f479d7caed&projectId=9076ac92-be42-43a2-9634-8b67c7fe93a7","923774E1DC524B0E9A666C35AB9E57E6-2025-05-22-19-24-35","","3656","","images/semantic_sequence/creative_activities_semantic/creative_activities_semantic_4.png","0","",""
"","","","","","image-button-response","36","294458","0.0-10.0-1.0-2.3","923774E1DC524B0E9A666C35AB9E57E6","923774E1DC524B0E9A666C35AB9E57E6","ace9786e-2a8b-4bbb-959a-a8f479d7caed","9076ac92-be42-43a2-9634-8b67c7fe93a7","{""num_scrambled_semantic"":""8"",""num_scrambled_causal"":""4"",""num_scrambled_schematic"":""4"",""participantId"":""923774E1DC524B0E9A666C35AB9E57E6"",""assignmentId"":""ace9786e-2a8b-4bbb-959a-a8f479d7caed"",""projectId"":""9076ac92-be42-43a2-9634-8b67c7fe93a7""}","https://test12345.live/?num_scrambled_semantic=8&num_scrambled_causal=4&num_scrambled_schematic=4&participantId=923774E1DC524B0E9A666C35AB9E57E6&assignmentId=ace9786e-2a8b-4bbb-959a-a8f479d7caed&projectId=9076ac92-be42-43a2-9634-8b67c7fe93a7","923774E1DC524B0E9A666C35AB9E57E6-2025-05-22-19-24-35","","null","","[]","null","",""
"","","","","","image-button-response","37","298971","0.0-10.0-1.0-0.4","923774E1DC524B0E9A666C35AB9E57E6","923774E1DC524B0E9A666C35AB9E57E6","ace9786e-2a8b-4bbb-959a-a8f479d7caed","9076ac92-be42-43a2-9634-8b67c7fe93a7","{""num_scrambled_semantic"":""8"",""num_scrambled_causal"":""4"",""num_scrambled_schematic"":""4"",""participantId"":""923774E1DC524B0E9A666C35AB9E57E6"",""assignmentId"":""ace9786e-2a8b-4bbb-959a-a8f479d7caed"",""projectId"":""9076ac92-be42-43a2-9634-8b67c7fe93a7""}","https://test12345.live/?num_scrambled_semantic=8&num_scrambled_causal=4&num_scrambled_schematic=4&participantId=923774E1DC524B0E9A666C35AB9E57E6&assignmentId=ace9786e-2a8b-4bbb-959a-a8f479d7caed&projectId=9076ac92-be42-43a2-9634-8b67c7fe93a7","923774E1DC524B0E9A666C35AB9E57E6-2025-05-22-19-24-35","","null","","images/semantic_sequence/creative_activities_semantic/creative_activities_semantic_5.png","null","",""
"","","","","","image-button-response","38","299992","0.0-10.0-1.0-1.4","923774E1DC524B0E9A666C35AB9E57E6","923774E1DC524B0E9A666C35AB9E57E6","ace9786e-2a8b-4bbb-959a-a8f479d7caed","9076ac92-be42-43a2-9634-8b67c7fe93a7","{""num_scrambled_semantic"":""8"",""num_scrambled_causal"":""4"",""num_scrambled_schematic"":""4"",""participantId"":""923774E1DC524B0E9A666C35AB9E57E6"",""assignmentId"":""ace9786e-2a8b-4bbb-959a-a8f479d7caed"",""projectId"":""9076ac92-be42-43a2-9634-8b67c7fe93a7""}","https://test12345.live/?num_scrambled_semantic=8&num_scrambled_causal=4&num_scrambled_schematic=4&participantId=923774E1DC524B0E9A666C35AB9E57E6&assignmentId=ace9786e-2a8b-4bbb-959a-a8f479d7caed&projectId=9076ac92-be42-43a2-9634-8b67c7fe93a7","923774E1DC524B0E9A666C35AB9E57E6-2025-05-22-19-24-35","","1019","","images/semantic_sequence/creative_activities_semantic/creative_activities_semantic_5.png","0","",""
"","","","","","image-button-response","39","301803","0.0-10.0-1.0-2.4","923774E1DC524B0E9A666C35AB9E57E6","923774E1DC524B0E9A666C35AB9E57E6","ace9786e-2a8b-4bbb-959a-a8f479d7caed","9076ac92-be42-43a2-9634-8b67c7fe93a7","{""num_scrambled_semantic"":""8"",""num_scrambled_causal"":""4"",""num_scrambled_schematic"":""4"",""participantId"":""923774E1DC524B0E9A666C35AB9E57E6"",""assignmentId"":""ace9786e-2a8b-4bbb-959a-a8f479d7caed"",""projectId"":""9076ac92-be42-43a2-9634-8b67c7fe93a7""}","https://test12345.live/?num_scrambled_semantic=8&num_scrambled_causal=4&num_scrambled_schematic=4&participantId=923774E1DC524B0E9A666C35AB9E57E6&assignmentId=ace9786e-2a8b-4bbb-959a-a8f479d7caed&projectId=9076ac92-be42-43a2-9634-8b67c7fe93a7","923774E1DC524B0E9A666C35AB9E57E6-2025-05-22-19-24-35","","null","","[]","null","",""
"","","","","","image-button-response","40","306317","0.0-10.0-1.0-0.5","923774E1DC524B0E9A666C35AB9E57E6","923774E1DC524B0E9A666C35AB9E57E6","ace9786e-2a8b-4bbb-959a-a8f479d7caed","9076ac92-be42-43a2-9634-8b67c7fe93a7","{""num_scrambled_semantic"":""8"",""num_scrambled_causal"":""4"",""num_scrambled_schematic"":""4"",""participantId"":""923774E1DC524B0E9A666C35AB9E57E6"",""assignmentId"":""ace9786e-2a8b-4bbb-959a-a8f479d7caed"",""projectId"":""9076ac92-be42-43a2-9634-8b67c7fe93a7""}","https://test12345.live/?num_scrambled_semantic=8&num_scrambled_causal=4&num_scrambled_schematic=4&participantId=923774E1DC524B0E9A666C35AB9E57E6&assignmentId=ace9786e-2a8b-4bbb-959a-a8f479d7caed&projectId=9076ac92-be42-43a2-9634-8b67c7fe93a7","923774E1DC524B0E9A666C35AB9E57E6-2025-05-22-19-24-35","","null","","images/semantic_sequence/creative_activities_semantic/creative_activities_semantic_6.png","null","",""
"","","","","","image-button-response","41","308452","0.0-10.0-1.0-1.5","923774E1DC524B0E9A666C35AB9E57E6","923774E1DC524B0E9A666C35AB9E57E6","ace9786e-2a8b-4bbb-959a-a8f479d7caed","9076ac92-be42-43a2-9634-8b67c7fe93a7","{""num_scrambled_semantic"":""8"",""num_scrambled_causal"":""4"",""num_scrambled_schematic"":""4"",""participantId"":""923774E1DC524B0E9A666C35AB9E57E6"",""assignmentId"":""ace9786e-2a8b-4bbb-959a-a8f479d7caed"",""projectId"":""9076ac92-be42-43a2-9634-8b67c7fe93a7""}","https://test12345.live/?num_scrambled_semantic=8&num_scrambled_causal=4&num_scrambled_schematic=4&participantId=923774E1DC524B0E9A666C35AB9E57E6&assignmentId=ace9786e-2a8b-4bbb-959a-a8f479d7caed&projectId=9076ac92-be42-43a2-9634-8b67c7fe93a7","923774E1DC524B0E9A666C35AB9E57E6-2025-05-22-19-24-35","","2133","","images/semantic_sequence/creative_activities_semantic/creative_activities_semantic_6.png","0","",""
"","","","","","image-button-response","42","310258","0.0-10.0-1.0-2.5","923774E1DC524B0E9A666C35AB9E57E6","923774E1DC524B0E9A666C35AB9E57E6","ace9786e-2a8b-4bbb-959a-a8f479d7caed","9076ac92-be42-43a2-9634-8b67c7fe93a7","{""num_scrambled_semantic"":""8"",""num_scrambled_causal"":""4"",""num_scrambled_schematic"":""4"",""participantId"":""923774E1DC524B0E9A666C35AB9E57E6"",""assignmentId"":""ace9786e-2a8b-4bbb-959a-a8f479d7caed"",""projectId"":""9076ac92-be42-43a2-9634-8b67c7fe93a7""}","https://test12345.live/?num_scrambled_semantic=8&num_scrambled_causal=4&num_scrambled_schematic=4&participantId=923774E1DC524B0E9A666C35AB9E57E6&assignmentId=ace9786e-2a8b-4bbb-959a-a8f479d7caed&projectId=9076ac92-be42-43a2-9634-8b67c7fe93a7","923774E1DC524B0E9A666C35AB9E57E6-2025-05-22-19-24-35","","null","","[]","null","",""
"","","","","","image-button-response","43","314768","0.0-10.0-1.0-0.6","923774E1DC524B0E9A666C35AB9E57E6","923774E1DC524B0E9A666C35AB9E57E6","ace9786e-2a8b-4bbb-959a-a8f479d7caed","9076ac92-be42-43a2-9634-8b67c7fe93a7","{""num_scrambled_semantic"":""8"",""num_scrambled_causal"":""4"",""num_scrambled_schematic"":""4"",""participantId"":""923774E1DC524B0E9A666C35AB9E57E6"",""assignmentId"":""ace9786e-2a8b-4bbb-959a-a8f479d7caed"",""projectId"":""9076ac92-be42-43a2-9634-8b67c7fe93a7""}","https://test12345.live/?num_scrambled_semantic=8&num_scrambled_causal=4&num_scrambled_schematic=4&participantId=923774E1DC524B0E9A666C35AB9E57E6&assignmentId=ace9786e-2a8b-4bbb-959a-a8f479d7caed&projectId=9076ac92-be42-43a2-9634-8b67c7fe93a7","923774E1DC524B0E9A666C35AB9E57E6-2025-05-22-19-24-35","","null","","images/semantic_sequence/creative_activities_semantic/creative_activities_semantic_7.png","null","",""
"","","","","","image-button-response","44","315756","0.0-10.0-1.0-1.6","923774E1DC524B0E9A666C35AB9E57E6","923774E1DC524B0E9A666C35AB9E57E6","ace9786e-2a8b-4bbb-959a-a8f479d7caed","9076ac92-be42-43a2-9634-8b67c7fe93a7","{""num_scrambled_semantic"":""8"",""num_scrambled_causal"":""4"",""num_scrambled_schematic"":""4"",""participantId"":""923774E1DC524B0E9A666C35AB9E57E6"",""assignmentId"":""ace9786e-2a8b-4bbb-959a-a8f479d7caed"",""projectId"":""9076ac92-be42-43a2-9634-8b67c7fe93a7""}","https://test12345.live/?num_scrambled_semantic=8&num_scrambled_causal=4&num_scrambled_schematic=4&participantId=923774E1DC524B0E9A666C35AB9E57E6&assignmentId=ace9786e-2a8b-4bbb-959a-a8f479d7caed&projectId=9076ac92-be42-43a2-9634-8b67c7fe93a7","923774E1DC524B0E9A666C35AB9E57E6-2025-05-22-19-24-35","","985","","images/semantic_sequence/creative_activities_semantic/creative_activities_semantic_7.png","0","",""
"","","","","","image-button-response","45","317564","0.0-10.0-1.0-2.6","923774E1DC524B0E9A666C35AB9E57E6","923774E1DC524B0E9A666C35AB9E57E6","ace9786e-2a8b-4bbb-959a-a8f479d7caed","9076ac92-be42-43a2-9634-8b67c7fe93a7","{""num_scrambled_semantic"":""8"",""num_scrambled_causal"":""4"",""num_scrambled_schematic"":""4"",""participantId"":""923774E1DC524B0E9A666C35AB9E57E6"",""assignmentId"":""ace9786e-2a8b-4bbb-959a-a8f479d7caed"",""projectId"":""9076ac92-be42-43a2-9634-8b67c7fe93a7""}","https://test12345.live/?num_scrambled_semantic=8&num_scrambled_causal=4&num_scrambled_schematic=4&participantId=923774E1DC524B0E9A666C35AB9E57E6&assignmentId=ace9786e-2a8b-4bbb-959a-a8f479d7caed&projectId=9076ac92-be42-43a2-9634-8b67c7fe93a7","923774E1DC524B0E9A666C35AB9E57E6-2025-05-22-19-24-35","","null","","[]","null","",""
"","","","","","image-button-response","46","322077","0.0-10.0-1.0-0.7","923774E1DC524B0E9A666C35AB9E57E6","923774E1DC524B0E9A666C35AB9E57E6","ace9786e-2a8b-4bbb-959a-a8f479d7caed","9076ac92-be42-43a2-9634-8b67c7fe93a7","{""num_scrambled_semantic"":""8"",""num_scrambled_causal"":""4"",""num_scrambled_schematic"":""4"",""participantId"":""923774E1DC524B0E9A666C35AB9E57E6"",""assignmentId"":""ace9786e-2a8b-4bbb-959a-a8f479d7caed"",""projectId"":""9076ac92-be42-43a2-9634-8b67c7fe93a7""}","https://test12345.live/?num_scrambled_semantic=8&num_scrambled_causal=4&num_scrambled_schematic=4&participantId=923774E1DC524B0E9A666C35AB9E57E6&assignmentId=ace9786e-2a8b-4bbb-959a-a8f479d7caed&projectId=9076ac92-be42-43a2-9634-8b67c7fe93a7","923774E1DC524B0E9A666C35AB9E57E6-2025-05-22-19-24-35","","null","","images/semantic_sequence/creative_activities_semantic/creative_activities_semantic_8.png","null","",""
"","","","","","image-button-response","47","323038","0.0-10.0-1.0-1.7","923774E1DC524B0E9A666C35AB9E57E6","923774E1DC524B0E9A666C35AB9E57E6","ace9786e-2a8b-4bbb-959a-a8f479d7caed","9076ac92-be42-43a2-9634-8b67c7fe93a7","{""num_scrambled_semantic"":""8"",""num_scrambled_causal"":""4"",""num_scrambled_schematic"":""4"",""participantId"":""923774E1DC524B0E9A666C35AB9E57E6"",""assignmentId"":""ace9786e-2a8b-4bbb-959a-a8f479d7caed"",""projectId"":""9076ac92-be42-43a2-9634-8b67c7fe93a7""}","https://test12345.live/?num_scrambled_semantic=8&num_scrambled_causal=4&num_scrambled_schematic=4&participantId=923774E1DC524B0E9A666C35AB9E57E6&assignmentId=ace9786e-2a8b-4bbb-959a-a8f479d7caed&projectId=9076ac92-be42-43a2-9634-8b67c7fe93a7","923774E1DC524B0E9A666C35AB9E57E6-2025-05-22-19-24-35","","958","","images/semantic_sequence/creative_activities_semantic/creative_activities_semantic_8.png","0","",""
"","","","","","image-button-response","48","324844","0.0-10.0-1.0-2.7","923774E1DC524B0E9A666C35AB9E57E6","923774E1DC524B0E9A666C35AB9E57E6","ace9786e-2a8b-4bbb-959a-a8f479d7caed","9076ac92-be42-43a2-9634-8b67c7fe93a7","{""num_scrambled_semantic"":""8"",""num_scrambled_causal"":""4"",""num_scrambled_schematic"":""4"",""participantId"":""923774E1DC524B0E9A666C35AB9E57E6"",""assignmentId"":""ace9786e-2a8b-4bbb-959a-a8f479d7caed"",""projectId"":""9076ac92-be42-43a2-9634-8b67c7fe93a7""}","https://test12345.live/?num_scrambled_semantic=8&num_scrambled_causal=4&num_scrambled_schematic=4&participantId=923774E1DC524B0E9A666C35AB9E57E6&assignmentId=ace9786e-2a8b-4bbb-959a-a8f479d7caed&projectId=9076ac92-be42-43a2-9634-8b67c7fe93a7","923774E1DC524B0E9A666C35AB9E57E6-2025-05-22-19-24-35","","null","","[]","null","",""
"","","","","","image-button-response","49","329357","0.0-10.0-1.0-0.8","923774E1DC524B0E9A666C35AB9E57E6","923774E1DC524B0E9A666C35AB9E57E6","ace9786e-2a8b-4bbb-959a-a8f479d7caed","9076ac92-be42-43a2-9634-8b67c7fe93a7","{""num_scrambled_semantic"":""8"",""num_scrambled_causal"":""4"",""num_scrambled_schematic"":""4"",""participantId"":""923774E1DC524B0E9A666C35AB9E57E6"",""assignmentId"":""ace9786e-2a8b-4bbb-959a-a8f479d7caed"",""projectId"":""9076ac92-be42-43a2-9634-8b67c7fe93a7""}","https://test12345.live/?num_scrambled_semantic=8&num_scrambled_causal=4&num_scrambled_schematic=4&participantId=923774E1DC524B0E9A666C35AB9E57E6&assignmentId=ace9786e-2a8b-4bbb-959a-a8f479d7caed&projectId=9076ac92-be42-43a2-9634-8b67c7fe93a7","923774E1DC524B0E9A666C35AB9E57E6-2025-05-22-19-24-35","","null","","images/semantic_sequence/creative_activities_semantic/creative_activities_semantic_9.png","null","",""
"","","","","","image-button-response","50","331110","0.0-10.0-1.0-1.8","923774E1DC524B0E9A666C35AB9E57E6","923774E1DC524B0E9A666C35AB9E57E6","ace9786e-2a8b-4bbb-959a-a8f479d7caed","9076ac92-be42-43a2-9634-8b67c7fe93a7","{""num_scrambled_semantic"":""8"",""num_scrambled_causal"":""4"",""num_scrambled_schematic"":""4"",""participantId"":""923774E1DC524B0E9A666C35AB9E57E6"",""assignmentId"":""ace9786e-2a8b-4bbb-959a-a8f479d7caed"",""projectId"":""9076ac92-be42-43a2-9634-8b67c7fe93a7""}","https://test12345.live/?num_scrambled_semantic=8&num_scrambled_causal=4&num_scrambled_schematic=4&participantId=923774E1DC524B0E9A666C35AB9E57E6&assignmentId=ace9786e-2a8b-4bbb-959a-a8f479d7caed&projectId=9076ac92-be42-43a2-9634-8b67c7fe93a7","923774E1DC524B0E9A666C35AB9E57E6-2025-05-22-19-24-35","","1750","","images/semantic_sequence/creative_activities_semantic/creative_activities_semantic_9.png","0","",""
"","","","","","image-button-response","51","332916","0.0-10.0-1.0-2.8","923774E1DC524B0E9A666C35AB9E57E6","923774E1DC524B0E9A666C35AB9E57E6","ace9786e-2a8b-4bbb-959a-a8f479d7caed","9076ac92-be42-43a2-9634-8b67c7fe93a7","{""num_scrambled_semantic"":""8"",""num_scrambled_causal"":""4"",""num_scrambled_schematic"":""4"",""participantId"":""923774E1DC524B0E9A666C35AB9E57E6"",""assignmentId"":""ace9786e-2a8b-4bbb-959a-a8f479d7caed"",""projectId"":""9076ac92-be42-43a2-9634-8b67c7fe93a7""}","https://test12345.live/?num_scrambled_semantic=8&num_scrambled_causal=4&num_scrambled_schematic=4&participantId=923774E1DC524B0E9A666C35AB9E57E6&assignmentId=ace9786e-2a8b-4bbb-959a-a8f479d7caed&projectId=9076ac92-be42-43a2-9634-8b67c7fe93a7","923774E1DC524B0E9A666C35AB9E57E6-2025-05-22-19-24-35","","null","","[]","null","",""
"","","","","","image-button-response","52","337428","0.0-10.0-1.0-0.9","923774E1DC524B0E9A666C35AB9E57E6","923774E1DC524B0E9A666C35AB9E57E6","ace9786e-2a8b-4bbb-959a-a8f479d7caed","9076ac92-be42-43a2-9634-8b67c7fe93a7","{""num_scrambled_semantic"":""8"",""num_scrambled_causal"":""4"",""num_scrambled_schematic"":""4"",""participantId"":""923774E1DC524B0E9A666C35AB9E57E6"",""assignmentId"":""ace9786e-2a8b-4bbb-959a-a8f479d7caed"",""projectId"":""9076ac92-be42-43a2-9634-8b67c7fe93a7""}","https://test12345.live/?num_scrambled_semantic=8&num_scrambled_causal=4&num_scrambled_schematic=4&participantId=923774E1DC524B0E9A666C35AB9E57E6&assignmentId=ace9786e-2a8b-4bbb-959a-a8f479d7caed&projectId=9076ac92-be42-43a2-9634-8b67c7fe93a7","923774E1DC524B0E9A666C35AB9E57E6-2025-05-22-19-24-35","","null","","images/semantic_sequence/creative_activities_semantic/creative_activities_semantic_ten.png","null","",""
"","","","","","image-button-response","53","339256","0.0-10.0-1.0-1.9","923774E1DC524B0E9A666C35AB9E57E6","923774E1DC524B0E9A666C35AB9E57E6","ace9786e-2a8b-4bbb-959a-a8f479d7caed","9076ac92-be42-43a2-9634-8b67c7fe93a7","{""num_scrambled_semantic"":""8"",""num_scrambled_causal"":""4"",""num_scrambled_schematic"":""4"",""participantId"":""923774E1DC524B0E9A666C35AB9E57E6"",""assignmentId"":""ace9786e-2a8b-4bbb-959a-a8f479d7caed"",""projectId"":""9076ac92-be42-43a2-9634-8b67c7fe93a7""}","https://test12345.live/?num_scrambled_semantic=8&num_scrambled_causal=4&num_scrambled_schematic=4&participantId=923774E1DC524B0E9A666C35AB9E57E6&assignmentId=ace9786e-2a8b-4bbb-959a-a8f479d7caed&projectId=9076ac92-be42-43a2-9634-8b67c7fe93a7","923774E1DC524B0E9A666C35AB9E57E6-2025-05-22-19-24-35","","1825","","images/semantic_sequence/creative_activities_semantic/creative_activities_semantic_ten.png","0","",""
"","","","","","image-button-response","54","341068","0.0-10.0-1.0-2.9","923774E1DC524B0E9A666C35AB9E57E6","923774E1DC524B0E9A666C35AB9E57E6","ace9786e-2a8b-4bbb-959a-a8f479d7caed","9076ac92-be42-43a2-9634-8b67c7fe93a7","{""num_scrambled_semantic"":""8"",""num_scrambled_causal"":""4"",""num_scrambled_schematic"":""4"",""participantId"":""923774E1DC524B0E9A666C35AB9E57E6"",""assignmentId"":""ace9786e-2a8b-4bbb-959a-a8f479d7caed"",""projectId"":""9076ac92-be42-43a2-9634-8b67c7fe93a7""}","https://test12345.live/?num_scrambled_semantic=8&num_scrambled_causal=4&num_scrambled_schematic=4&participantId=923774E1DC524B0E9A666C35AB9E57E6&assignmentId=ace9786e-2a8b-4bbb-959a-a8f479d7caed&projectId=9076ac92-be42-43a2-9634-8b67c7fe93a7","923774E1DC524B0E9A666C35AB9E57E6-2025-05-22-19-24-35","","null","","[]","null","",""
"","","","","","html-audio-response","55","395979","0.0-11.0","923774E1DC524B0E9A666C35AB9E57E6","923774E1DC524B0E9A666C35AB9E57E6","ace9786e-2a8b-4bbb-959a-a8f479d7caed","9076ac92-be42-43a2-9634-8b67c7fe93a7","{""num_scrambled_semantic"":""8"",""num_scrambled_causal"":""4"",""num_scrambled_schematic"":""4"",""participantId"":""923774E1DC524B0E9A666C35AB9E57E6"",""assignmentId"":""ace9786e-2a8b-4bbb-959a-a8f479d7caed"",""projectId"":""9076ac92-be42-43a2-9634-8b67c7fe93a7""}","https://test12345.live/?num_scrambled_semantic=8&num_scrambled_causal=4&num_scrambled_schematic=4&participantId=923774E1DC524B0E9A666C35AB9E57E6&assignmentId=ace9786e-2a8b-4bbb-959a-a8f479d7caed&projectId=9076ac92-be42-43a2-9634-8b67c7fe93a7","923774E1DC524B0E9A666C35AB9E57E6-2025-05-22-19-24-35","","24186","","[""<span style=\""color: red; font-size: 24px\""> NOW RECORDING</span><p>Please say out loud all the images you saw, in the exact order you saw them. Try to recall as many images as you can, but remember: getting the order right is more important than the number of images you recall.</p>""]","","1","creative_activities_semantic"
"","","","","","image-button-response","56","401995","0.0-12.0-0.0","923774E1DC524B0E9A666C35AB9E57E6","923774E1DC524B0E9A666C35AB9E57E6","ace9786e-2a8b-4bbb-959a-a8f479d7caed","9076ac92-be42-43a2-9634-8b67c7fe93a7","{""num_scrambled_semantic"":""8"",""num_scrambled_causal"":""4"",""num_scrambled_schematic"":""4"",""participantId"":""923774E1DC524B0E9A666C35AB9E57E6"",""assignmentId"":""ace9786e-2a8b-4bbb-959a-a8f479d7caed"",""projectId"":""9076ac92-be42-43a2-9634-8b67c7fe93a7""}","https://test12345.live/?num_scrambled_semantic=8&num_scrambled_causal=4&num_scrambled_schematic=4&participantId=923774E1DC524B0E9A666C35AB9E57E6&assignmentId=ace9786e-2a8b-4bbb-959a-a8f479d7caed&projectId=9076ac92-be42-43a2-9634-8b67c7fe93a7","923774E1DC524B0E9A666C35AB9E57E6-2025-05-22-19-24-35","","null","","images/semantic_sequence/visiting_cities_semantic/visiting_cities_semantic_0.png","null","",""
"","","","","","image-button-response","57","406509","0.0-12.0-1.0-0.0","923774E1DC524B0E9A666C35AB9E57E6","923774E1DC524B0E9A666C35AB9E57E6","ace9786e-2a8b-4bbb-959a-a8f479d7caed","9076ac92-be42-43a2-9634-8b67c7fe93a7","{""num_scrambled_semantic"":""8"",""num_scrambled_causal"":""4"",""num_scrambled_schematic"":""4"",""participantId"":""923774E1DC524B0E9A666C35AB9E57E6"",""assignmentId"":""ace9786e-2a8b-4bbb-959a-a8f479d7caed"",""projectId"":""9076ac92-be42-43a2-9634-8b67c7fe93a7""}","https://test12345.live/?num_scrambled_semantic=8&num_scrambled_causal=4&num_scrambled_schematic=4&participantId=923774E1DC524B0E9A666C35AB9E57E6&assignmentId=ace9786e-2a8b-4bbb-959a-a8f479d7caed&projectId=9076ac92-be42-43a2-9634-8b67c7fe93a7","923774E1DC524B0E9A666C35AB9E57E6-2025-05-22-19-24-35","","null","","images/semantic_sequence/visiting_cities_semantic/visiting_cities_semantic_8.png","null","",""
"","","","","","image-button-response","58","410515","0.0-12.0-1.0-1.0","923774E1DC524B0E9A666C35AB9E57E6","923774E1DC524B0E9A666C35AB9E57E6","ace9786e-2a8b-4bbb-959a-a8f479d7caed","9076ac92-be42-43a2-9634-8b67c7fe93a7","{""num_scrambled_semantic"":""8"",""num_scrambled_causal"":""4"",""num_scrambled_schematic"":""4"",""participantId"":""923774E1DC524B0E9A666C35AB9E57E6"",""assignmentId"":""ace9786e-2a8b-4bbb-959a-a8f479d7caed"",""projectId"":""9076ac92-be42-43a2-9634-8b67c7fe93a7""}","https://test12345.live/?num_scrambled_semantic=8&num_scrambled_causal=4&num_scrambled_schematic=4&participantId=923774E1DC524B0E9A666C35AB9E57E6&assignmentId=ace9786e-2a8b-4bbb-959a-a8f479d7caed&projectId=9076ac92-be42-43a2-9634-8b67c7fe93a7","923774E1DC524B0E9A666C35AB9E57E6-2025-05-22-19-24-35","","null","","images/semantic_sequence/visiting_cities_semantic/visiting_cities_semantic_8.png","null","",""
"","","","","","image-button-response","59","412322","0.0-12.0-1.0-2.0","923774E1DC524B0E9A666C35AB9E57E6","923774E1DC524B0E9A666C35AB9E57E6","ace9786e-2a8b-4bbb-959a-a8f479d7caed","9076ac92-be42-43a2-9634-8b67c7fe93a7","{""num_scrambled_semantic"":""8"",""num_scrambled_causal"":""4"",""num_scrambled_schematic"":""4"",""participantId"":""923774E1DC524B0E9A666C35AB9E57E6"",""assignmentId"":""ace9786e-2a8b-4bbb-959a-a8f479d7caed"",""projectId"":""9076ac92-be42-43a2-9634-8b67c7fe93a7""}","https://test12345.live/?num_scrambled_semantic=8&num_scrambled_causal=4&num_scrambled_schematic=4&participantId=923774E1DC524B0E9A666C35AB9E57E6&assignmentId=ace9786e-2a8b-4bbb-959a-a8f479d7caed&projectId=9076ac92-be42-43a2-9634-8b67c7fe93a7","923774E1DC524B0E9A666C35AB9E57E6-2025-05-22-19-24-35","","null","","[]","null","",""
"","","","","","image-button-response","60","416829","0.0-12.0-1.0-0.1","923774E1DC524B0E9A666C35AB9E57E6","923774E1DC524B0E9A666C35AB9E57E6","ace9786e-2a8b-4bbb-959a-a8f479d7caed","9076ac92-be42-43a2-9634-8b67c7fe93a7","{""num_scrambled_semantic"":""8"",""num_scrambled_causal"":""4"",""num_scrambled_schematic"":""4"",""participantId"":""923774E1DC524B0E9A666C35AB9E57E6"",""assignmentId"":""ace9786e-2a8b-4bbb-959a-a8f479d7caed"",""projectId"":""9076ac92-be42-43a2-9634-8b67c7fe93a7""}","https://test12345.live/?num_scrambled_semantic=8&num_scrambled_causal=4&num_scrambled_schematic=4&participantId=923774E1DC524B0E9A666C35AB9E57E6&assignmentId=ace9786e-2a8b-4bbb-959a-a8f479d7caed&projectId=9076ac92-be42-43a2-9634-8b67c7fe93a7","923774E1DC524B0E9A666C35AB9E57E6-2025-05-22-19-24-35","","null","","images/semantic_sequence/visiting_cities_semantic/visiting_cities_semantic_2.png","null","",""
"","","","","","image-button-response","61","420451","0.0-12.0-1.0-1.1","923774E1DC524B0E9A666C35AB9E57E6","923774E1DC524B0E9A666C35AB9E57E6","ace9786e-2a8b-4bbb-959a-a8f479d7caed","9076ac92-be42-43a2-9634-8b67c7fe93a7","{""num_scrambled_semantic"":""8"",""num_scrambled_causal"":""4"",""num_scrambled_schematic"":""4"",""participantId"":""923774E1DC524B0E9A666C35AB9E57E6"",""assignmentId"":""ace9786e-2a8b-4bbb-959a-a8f479d7caed"",""projectId"":""9076ac92-be42-43a2-9634-8b67c7fe93a7""}","https://test12345.live/?num_scrambled_semantic=8&num_scrambled_causal=4&num_scrambled_schematic=4&participantId=923774E1DC524B0E9A666C35AB9E57E6&assignmentId=ace9786e-2a8b-4bbb-959a-a8f479d7caed&projectId=9076ac92-be42-43a2-9634-8b67c7fe93a7","923774E1DC524B0E9A666C35AB9E57E6-2025-05-22-19-24-35","","3619","","images/semantic_sequence/visiting_cities_semantic/visiting_cities_semantic_2.png","1","",""
"","","","","","image-button-response","62","422260","0.0-12.0-1.0-2.1","923774E1DC524B0E9A666C35AB9E57E6","923774E1DC524B0E9A666C35AB9E57E6","ace9786e-2a8b-4bbb-959a-a8f479d7caed","9076ac92-be42-43a2-9634-8b67c7fe93a7","{""num_scrambled_semantic"":""8"",""num_scrambled_causal"":""4"",""num_scrambled_schematic"":""4"",""participantId"":""923774E1DC524B0E9A666C35AB9E57E6"",""assignmentId"":""ace9786e-2a8b-4bbb-959a-a8f479d7caed"",""projectId"":""9076ac92-be42-43a2-9634-8b67c7fe93a7""}","https://test12345.live/?num_scrambled_semantic=8&num_scrambled_causal=4&num_scrambled_schematic=4&participantId=923774E1DC524B0E9A666C35AB9E57E6&assignmentId=ace9786e-2a8b-4bbb-959a-a8f479d7caed&projectId=9076ac92-be42-43a2-9634-8b67c7fe93a7","923774E1DC524B0E9A666C35AB9E57E6-2025-05-22-19-24-35","","null","","[]","null","",""
"","","","","","image-button-response","63","426772","0.0-12.0-1.0-0.2","923774E1DC524B0E9A666C35AB9E57E6","923774E1DC524B0E9A666C35AB9E57E6","ace9786e-2a8b-4bbb-959a-a8f479d7caed","9076ac92-be42-43a2-9634-8b67c7fe93a7","{""num_scrambled_semantic"":""8"",""num_scrambled_causal"":""4"",""num_scrambled_schematic"":""4"",""participantId"":""923774E1DC524B0E9A666C35AB9E57E6"",""assignmentId"":""ace9786e-2a8b-4bbb-959a-a8f479d7caed"",""projectId"":""9076ac92-be42-43a2-9634-8b67c7fe93a7""}","https://test12345.live/?num_scrambled_semantic=8&num_scrambled_causal=4&num_scrambled_schematic=4&participantId=923774E1DC524B0E9A666C35AB9E57E6&assignmentId=ace9786e-2a8b-4bbb-959a-a8f479d7caed&projectId=9076ac92-be42-43a2-9634-8b67c7fe93a7","923774E1DC524B0E9A666C35AB9E57E6-2025-05-22-19-24-35","","null","","images/semantic_sequence/visiting_cities_semantic/visiting_cities_semantic_3.png","null","",""
"","","","","","image-button-response","64","430479","0.0-12.0-1.0-1.2","923774E1DC524B0E9A666C35AB9E57E6","923774E1DC524B0E9A666C35AB9E57E6","ace9786e-2a8b-4bbb-959a-a8f479d7caed","9076ac92-be42-43a2-9634-8b67c7fe93a7","{""num_scrambled_semantic"":""8"",""num_scrambled_causal"":""4"",""num_scrambled_schematic"":""4"",""participantId"":""923774E1DC524B0E9A666C35AB9E57E6"",""assignmentId"":""ace9786e-2a8b-4bbb-959a-a8f479d7caed"",""projectId"":""9076ac92-be42-43a2-9634-8b67c7fe93a7""}","https://test12345.live/?num_scrambled_semantic=8&num_scrambled_causal=4&num_scrambled_schematic=4&participantId=923774E1DC524B0E9A666C35AB9E57E6&assignmentId=ace9786e-2a8b-4bbb-959a-a8f479d7caed&projectId=9076ac92-be42-43a2-9634-8b67c7fe93a7","923774E1DC524B0E9A666C35AB9E57E6-2025-05-22-19-24-35","","3705","","images/semantic_sequence/visiting_cities_semantic/visiting_cities_semantic_3.png","1","",""
"","","","","","image-button-response","65","432285","0.0-12.0-1.0-2.2","923774E1DC524B0E9A666C35AB9E57E6","923774E1DC524B0E9A666C35AB9E57E6","ace9786e-2a8b-4bbb-959a-a8f479d7caed","9076ac92-be42-43a2-9634-8b67c7fe93a7","{""num_scrambled_semantic"":""8"",""num_scrambled_causal"":""4"",""num_scrambled_schematic"":""4"",""participantId"":""923774E1DC524B0E9A666C35AB9E57E6"",""assignmentId"":""ace9786e-2a8b-4bbb-959a-a8f479d7caed"",""projectId"":""9076ac92-be42-43a2-9634-8b67c7fe93a7""}","https://test12345.live/?num_scrambled_semantic=8&num_scrambled_causal=4&num_scrambled_schematic=4&participantId=923774E1DC524B0E9A666C35AB9E57E6&assignmentId=ace9786e-2a8b-4bbb-959a-a8f479d7caed&projectId=9076ac92-be42-43a2-9634-8b67c7fe93a7","923774E1DC524B0E9A666C35AB9E57E6-2025-05-22-19-24-35","","null","","[]","null","",""
"","","","","","image-button-response","66","436789","0.0-12.0-1.0-0.3","923774E1DC524B0E9A666C35AB9E57E6","923774E1DC524B0E9A666C35AB9E57E6","ace9786e-2a8b-4bbb-959a-a8f479d7caed","9076ac92-be42-43a2-9634-8b67c7fe93a7","{""num_scrambled_semantic"":""8"",""num_scrambled_causal"":""4"",""num_scrambled_schematic"":""4"",""participantId"":""923774E1DC524B0E9A666C35AB9E57E6"",""assignmentId"":""ace9786e-2a8b-4bbb-959a-a8f479d7caed"",""projectId"":""9076ac92-be42-43a2-9634-8b67c7fe93a7""}","https://test12345.live/?num_scrambled_semantic=8&num_scrambled_causal=4&num_scrambled_schematic=4&participantId=923774E1DC524B0E9A666C35AB9E57E6&assignmentId=ace9786e-2a8b-4bbb-959a-a8f479d7caed&projectId=9076ac92-be42-43a2-9634-8b67c7fe93a7","923774E1DC524B0E9A666C35AB9E57E6-2025-05-22-19-24-35","","null","","images/semantic_sequence/visiting_cities_semantic/visiting_cities_semantic_9.png","null","",""
"","","","","","image-button-response","67","440045","0.0-12.0-1.0-1.3","923774E1DC524B0E9A666C35AB9E57E6","923774E1DC524B0E9A666C35AB9E57E6","ace9786e-2a8b-4bbb-959a-a8f479d7caed","9076ac92-be42-43a2-9634-8b67c7fe93a7","{""num_scrambled_semantic"":""8"",""num_scrambled_causal"":""4"",""num_scrambled_schematic"":""4"",""participantId"":""923774E1DC524B0E9A666C35AB9E57E6"",""assignmentId"":""ace9786e-2a8b-4bbb-959a-a8f479d7caed"",""projectId"":""9076ac92-be42-43a2-9634-8b67c7fe93a7""}","https://test12345.live/?num_scrambled_semantic=8&num_scrambled_causal=4&num_scrambled_schematic=4&participantId=923774E1DC524B0E9A666C35AB9E57E6&assignmentId=ace9786e-2a8b-4bbb-959a-a8f479d7caed&projectId=9076ac92-be42-43a2-9634-8b67c7fe93a7","923774E1DC524B0E9A666C35AB9E57E6-2025-05-22-19-24-35","","3254","","images/semantic_sequence/visiting_cities_semantic/visiting_cities_semantic_9.png","1","",""
"","","","","","image-button-response","68","441853","0.0-12.0-1.0-2.3","923774E1DC524B0E9A666C35AB9E57E6","923774E1DC524B0E9A666C35AB9E57E6","ace9786e-2a8b-4bbb-959a-a8f479d7caed","9076ac92-be42-43a2-9634-8b67c7fe93a7","{""num_scrambled_semantic"":""8"",""num_scrambled_causal"":""4"",""num_scrambled_schematic"":""4"",""participantId"":""923774E1DC524B0E9A666C35AB9E57E6"",""assignmentId"":""ace9786e-2a8b-4bbb-959a-a8f479d7caed"",""projectId"":""9076ac92-be42-43a2-9634-8b67c7fe93a7""}","https://test12345.live/?num_scrambled_semantic=8&num_scrambled_causal=4&num_scrambled_schematic=4&participantId=923774E1DC524B0E9A666C35AB9E57E6&assignmentId=ace9786e-2a8b-4bbb-959a-a8f479d7caed&projectId=9076ac92-be42-43a2-9634-8b67c7fe93a7","923774E1DC524B0E9A666C35AB9E57E6-2025-05-22-19-24-35","","null","","[]","null","",""
"","","","","","image-button-response","69","446365","0.0-12.0-1.0-0.4","923774E1DC524B0E9A666C35AB9E57E6","923774E1DC524B0E9A666C35AB9E57E6","ace9786e-2a8b-4bbb-959a-a8f479d7caed","9076ac92-be42-43a2-9634-8b67c7fe93a7","{""num_scrambled_semantic"":""8"",""num_scrambled_causal"":""4"",""num_scrambled_schematic"":""4"",""participantId"":""923774E1DC524B0E9A666C35AB9E57E6"",""assignmentId"":""ace9786e-2a8b-4bbb-959a-a8f479d7caed"",""projectId"":""9076ac92-be42-43a2-9634-8b67c7fe93a7""}","https://test12345.live/?num_scrambled_semantic=8&num_scrambled_causal=4&num_scrambled_schematic=4&participantId=923774E1DC524B0E9A666C35AB9E57E6&assignmentId=ace9786e-2a8b-4bbb-959a-a8f479d7caed&projectId=9076ac92-be42-43a2-9634-8b67c7fe93a7","923774E1DC524B0E9A666C35AB9E57E6-2025-05-22-19-24-35","","null","","images/semantic_sequence/visiting_cities_semantic/visiting_cities_semantic_4.png","null","",""
"","","","","","image-button-response","70","450369","0.0-12.0-1.0-1.4","923774E1DC524B0E9A666C35AB9E57E6","923774E1DC524B0E9A666C35AB9E57E6","ace9786e-2a8b-4bbb-959a-a8f479d7caed","9076ac92-be42-43a2-9634-8b67c7fe93a7","{""num_scrambled_semantic"":""8"",""num_scrambled_causal"":""4"",""num_scrambled_schematic"":""4"",""participantId"":""923774E1DC524B0E9A666C35AB9E57E6"",""assignmentId"":""ace9786e-2a8b-4bbb-959a-a8f479d7caed"",""projectId"":""9076ac92-be42-43a2-9634-8b67c7fe93a7""}","https://test12345.live/?num_scrambled_semantic=8&num_scrambled_causal=4&num_scrambled_schematic=4&participantId=923774E1DC524B0E9A666C35AB9E57E6&assignmentId=ace9786e-2a8b-4bbb-959a-a8f479d7caed&projectId=9076ac92-be42-43a2-9634-8b67c7fe93a7","923774E1DC524B0E9A666C35AB9E57E6-2025-05-22-19-24-35","","null","","images/semantic_sequence/visiting_cities_semantic/visiting_cities_semantic_4.png","null","",""
"","","","","","image-button-response","71","452179","0.0-12.0-1.0-2.4","923774E1DC524B0E9A666C35AB9E57E6","923774E1DC524B0E9A666C35AB9E57E6","ace9786e-2a8b-4bbb-959a-a8f479d7caed","9076ac92-be42-43a2-9634-8b67c7fe93a7","{""num_scrambled_semantic"":""8"",""num_scrambled_causal"":""4"",""num_scrambled_schematic"":""4"",""participantId"":""923774E1DC524B0E9A666C35AB9E57E6"",""assignmentId"":""ace9786e-2a8b-4bbb-959a-a8f479d7caed"",""projectId"":""9076ac92-be42-43a2-9634-8b67c7fe93a7""}","https://test12345.live/?num_scrambled_semantic=8&num_scrambled_causal=4&num_scrambled_schematic=4&participantId=923774E1DC524B0E9A666C35AB9E57E6&assignmentId=ace9786e-2a8b-4bbb-959a-a8f479d7caed&projectId=9076ac92-be42-43a2-9634-8b67c7fe93a7","923774E1DC524B0E9A666C35AB9E57E6-2025-05-22-19-24-35","","null","","[]","null","",""
"","","","","","image-button-response","72","456690","0.0-12.0-1.0-0.5","923774E1DC524B0E9A666C35AB9E57E6","923774E1DC524B0E9A666C35AB9E57E6","ace9786e-2a8b-4bbb-959a-a8f479d7caed","9076ac92-be42-43a2-9634-8b67c7fe93a7","{""num_scrambled_semantic"":""8"",""num_scrambled_causal"":""4"",""num_scrambled_schematic"":""4"",""participantId"":""923774E1DC524B0E9A666C35AB9E57E6"",""assignmentId"":""ace9786e-2a8b-4bbb-959a-a8f479d7caed"",""projectId"":""9076ac92-be42-43a2-9634-8b67c7fe93a7""}","https://test12345.live/?num_scrambled_semantic=8&num_scrambled_causal=4&num_scrambled_schematic=4&participantId=923774E1DC524B0E9A666C35AB9E57E6&assignmentId=ace9786e-2a8b-4bbb-959a-a8f479d7caed&projectId=9076ac92-be42-43a2-9634-8b67c7fe93a7","923774E1DC524B0E9A666C35AB9E57E6-2025-05-22-19-24-35","","null","","images/semantic_sequence/visiting_cities_semantic/visiting_cities_semantic_7.png","null","",""
"","","","","","image-button-response","73","458711","0.0-12.0-1.0-1.5","923774E1DC524B0E9A666C35AB9E57E6","923774E1DC524B0E9A666C35AB9E57E6","ace9786e-2a8b-4bbb-959a-a8f479d7caed","9076ac92-be42-43a2-9634-8b67c7fe93a7","{""num_scrambled_semantic"":""8"",""num_scrambled_causal"":""4"",""num_scrambled_schematic"":""4"",""participantId"":""923774E1DC524B0E9A666C35AB9E57E6"",""assignmentId"":""ace9786e-2a8b-4bbb-959a-a8f479d7caed"",""projectId"":""9076ac92-be42-43a2-9634-8b67c7fe93a7""}","https://test12345.live/?num_scrambled_semantic=8&num_scrambled_causal=4&num_scrambled_schematic=4&participantId=923774E1DC524B0E9A666C35AB9E57E6&assignmentId=ace9786e-2a8b-4bbb-959a-a8f479d7caed&projectId=9076ac92-be42-43a2-9634-8b67c7fe93a7","923774E1DC524B0E9A666C35AB9E57E6-2025-05-22-19-24-35","","2019","","images/semantic_sequence/visiting_cities_semantic/visiting_cities_semantic_7.png","0","",""
"","","","","","image-button-response","74","460515","0.0-12.0-1.0-2.5","923774E1DC524B0E9A666C35AB9E57E6","923774E1DC524B0E9A666C35AB9E57E6","ace9786e-2a8b-4bbb-959a-a8f479d7caed","9076ac92-be42-43a2-9634-8b67c7fe93a7","{""num_scrambled_semantic"":""8"",""num_scrambled_causal"":""4"",""num_scrambled_schematic"":""4"",""participantId"":""923774E1DC524B0E9A666C35AB9E57E6"",""assignmentId"":""ace9786e-2a8b-4bbb-959a-a8f479d7caed"",""projectId"":""9076ac92-be42-43a2-9634-8b67c7fe93a7""}","https://test12345.live/?num_scrambled_semantic=8&num_scrambled_causal=4&num_scrambled_schematic=4&participantId=923774E1DC524B0E9A666C35AB9E57E6&assignmentId=ace9786e-2a8b-4bbb-959a-a8f479d7caed&projectId=9076ac92-be42-43a2-9634-8b67c7fe93a7","923774E1DC524B0E9A666C35AB9E57E6-2025-05-22-19-24-35","","null","","[]","null","",""
"","","","","","image-button-response","75","465030","0.0-12.0-1.0-0.6","923774E1DC524B0E9A666C35AB9E57E6","923774E1DC524B0E9A666C35AB9E57E6","ace9786e-2a8b-4bbb-959a-a8f479d7caed","9076ac92-be42-43a2-9634-8b67c7fe93a7","{""num_scrambled_semantic"":""8"",""num_scrambled_causal"":""4"",""num_scrambled_schematic"":""4"",""participantId"":""923774E1DC524B0E9A666C35AB9E57E6"",""assignmentId"":""ace9786e-2a8b-4bbb-959a-a8f479d7caed"",""projectId"":""9076ac92-be42-43a2-9634-8b67c7fe93a7""}","https://test12345.live/?num_scrambled_semantic=8&num_scrambled_causal=4&num_scrambled_schematic=4&participantId=923774E1DC524B0E9A666C35AB9E57E6&assignmentId=ace9786e-2a8b-4bbb-959a-a8f479d7caed&projectId=9076ac92-be42-43a2-9634-8b67c7fe93a7","923774E1DC524B0E9A666C35AB9E57E6-2025-05-22-19-24-35","","null","","images/semantic_sequence/visiting_cities_semantic/visiting_cities_semantic_1.png","null","",""
"","","","","","image-button-response","76","467720","0.0-12.0-1.0-1.6","923774E1DC524B0E9A666C35AB9E57E6","923774E1DC524B0E9A666C35AB9E57E6","ace9786e-2a8b-4bbb-959a-a8f479d7caed","9076ac92-be42-43a2-9634-8b67c7fe93a7","{""num_scrambled_semantic"":""8"",""num_scrambled_causal"":""4"",""num_scrambled_schematic"":""4"",""participantId"":""923774E1DC524B0E9A666C35AB9E57E6"",""assignmentId"":""ace9786e-2a8b-4bbb-959a-a8f479d7caed"",""projectId"":""9076ac92-be42-43a2-9634-8b67c7fe93a7""}","https://test12345.live/?num_scrambled_semantic=8&num_scrambled_causal=4&num_scrambled_schematic=4&participantId=923774E1DC524B0E9A666C35AB9E57E6&assignmentId=ace9786e-2a8b-4bbb-959a-a8f479d7caed&projectId=9076ac92-be42-43a2-9634-8b67c7fe93a7","923774E1DC524B0E9A666C35AB9E57E6-2025-05-22-19-24-35","","2688","","images/semantic_sequence/visiting_cities_semantic/visiting_cities_semantic_1.png","0","",""
"","","","","","image-button-response","77","469525","0.0-12.0-1.0-2.6","923774E1DC524B0E9A666C35AB9E57E6","923774E1DC524B0E9A666C35AB9E57E6","ace9786e-2a8b-4bbb-959a-a8f479d7caed","9076ac92-be42-43a2-9634-8b67c7fe93a7","{""num_scrambled_semantic"":""8"",""num_scrambled_causal"":""4"",""num_scrambled_schematic"":""4"",""participantId"":""923774E1DC524B0E9A666C35AB9E57E6"",""assignmentId"":""ace9786e-2a8b-4bbb-959a-a8f479d7caed"",""projectId"":""9076ac92-be42-43a2-9634-8b67c7fe93a7""}","https://test12345.live/?num_scrambled_semantic=8&num_scrambled_causal=4&num_scrambled_schematic=4&participantId=923774E1DC524B0E9A666C35AB9E57E6&assignmentId=ace9786e-2a8b-4bbb-959a-a8f479d7caed&projectId=9076ac92-be42-43a2-9634-8b67c7fe93a7","923774E1DC524B0E9A666C35AB9E57E6-2025-05-22-19-24-35","","null","","[]","null","",""
"","","","","","image-button-response","78","474036","0.0-12.0-1.0-0.7","923774E1DC524B0E9A666C35AB9E57E6","923774E1DC524B0E9A666C35AB9E57E6","ace9786e-2a8b-4bbb-959a-a8f479d7caed","9076ac92-be42-43a2-9634-8b67c7fe93a7","{""num_scrambled_semantic"":""8"",""num_scrambled_causal"":""4"",""num_scrambled_schematic"":""4"",""participantId"":""923774E1DC524B0E9A666C35AB9E57E6"",""assignmentId"":""ace9786e-2a8b-4bbb-959a-a8f479d7caed"",""projectId"":""9076ac92-be42-43a2-9634-8b67c7fe93a7""}","https://test12345.live/?num_scrambled_semantic=8&num_scrambled_causal=4&num_scrambled_schematic=4&participantId=923774E1DC524B0E9A666C35AB9E57E6&assignmentId=ace9786e-2a8b-4bbb-959a-a8f479d7caed&projectId=9076ac92-be42-43a2-9634-8b67c7fe93a7","923774E1DC524B0E9A666C35AB9E57E6-2025-05-22-19-24-35","","null","","images/semantic_sequence/visiting_cities_semantic/visiting_cities_semantic_5.png","null","",""
"","","","","","image-button-response","79","477040","0.0-12.0-1.0-1.7","923774E1DC524B0E9A666C35AB9E57E6","923774E1DC524B0E9A666C35AB9E57E6","ace9786e-2a8b-4bbb-959a-a8f479d7caed","9076ac92-be42-43a2-9634-8b67c7fe93a7","{""num_scrambled_semantic"":""8"",""num_scrambled_causal"":""4"",""num_scrambled_schematic"":""4"",""participantId"":""923774E1DC524B0E9A666C35AB9E57E6"",""assignmentId"":""ace9786e-2a8b-4bbb-959a-a8f479d7caed"",""projectId"":""9076ac92-be42-43a2-9634-8b67c7fe93a7""}","https://test12345.live/?num_scrambled_semantic=8&num_scrambled_causal=4&num_scrambled_schematic=4&participantId=923774E1DC524B0E9A666C35AB9E57E6&assignmentId=ace9786e-2a8b-4bbb-959a-a8f479d7caed&projectId=9076ac92-be42-43a2-9634-8b67c7fe93a7","923774E1DC524B0E9A666C35AB9E57E6-2025-05-22-19-24-35","","3002","","images/semantic_sequence/visiting_cities_semantic/visiting_cities_semantic_5.png","1","",""
"","","","","","image-button-response","80","478846","0.0-12.0-1.0-2.7","923774E1DC524B0E9A666C35AB9E57E6","923774E1DC524B0E9A666C35AB9E57E6","ace9786e-2a8b-4bbb-959a-a8f479d7caed","9076ac92-be42-43a2-9634-8b67c7fe93a7","{""num_scrambled_semantic"":""8"",""num_scrambled_causal"":""4"",""num_scrambled_schematic"":""4"",""participantId"":""923774E1DC524B0E9A666C35AB9E57E6"",""assignmentId"":""ace9786e-2a8b-4bbb-959a-a8f479d7caed"",""projectId"":""9076ac92-be42-43a2-9634-8b67c7fe93a7""}","https://test12345.live/?num_scrambled_semantic=8&num_scrambled_causal=4&num_scrambled_schematic=4&participantId=923774E1DC524B0E9A666C35AB9E57E6&assignmentId=ace9786e-2a8b-4bbb-959a-a8f479d7caed&projectId=9076ac92-be42-43a2-9634-8b67c7fe93a7","923774E1DC524B0E9A666C35AB9E57E6-2025-05-22-19-24-35","","null","","[]","null","",""
"","","","","","image-button-response","81","483356","0.0-12.0-1.0-0.8","923774E1DC524B0E9A666C35AB9E57E6","923774E1DC524B0E9A666C35AB9E57E6","ace9786e-2a8b-4bbb-959a-a8f479d7caed","9076ac92-be42-43a2-9634-8b67c7fe93a7","{""num_scrambled_semantic"":""8"",""num_scrambled_causal"":""4"",""num_scrambled_schematic"":""4"",""participantId"":""923774E1DC524B0E9A666C35AB9E57E6"",""assignmentId"":""ace9786e-2a8b-4bbb-959a-a8f479d7caed"",""projectId"":""9076ac92-be42-43a2-9634-8b67c7fe93a7""}","https://test12345.live/?num_scrambled_semantic=8&num_scrambled_causal=4&num_scrambled_schematic=4&participantId=923774E1DC524B0E9A666C35AB9E57E6&assignmentId=ace9786e-2a8b-4bbb-959a-a8f479d7caed&projectId=9076ac92-be42-43a2-9634-8b67c7fe93a7","923774E1DC524B0E9A666C35AB9E57E6-2025-05-22-19-24-35","","null","","images/semantic_sequence/visiting_cities_semantic/visiting_cities_semantic_6.png","null","",""
"","","","","","image-button-response","82","485688","0.0-12.0-1.0-1.8","923774E1DC524B0E9A666C35AB9E57E6","923774E1DC524B0E9A666C35AB9E57E6","ace9786e-2a8b-4bbb-959a-a8f479d7caed","9076ac92-be42-43a2-9634-8b67c7fe93a7","{""num_scrambled_semantic"":""8"",""num_scrambled_causal"":""4"",""num_scrambled_schematic"":""4"",""participantId"":""923774E1DC524B0E9A666C35AB9E57E6"",""assignmentId"":""ace9786e-2a8b-4bbb-959a-a8f479d7caed"",""projectId"":""9076ac92-be42-43a2-9634-8b67c7fe93a7""}","https://test12345.live/?num_scrambled_semantic=8&num_scrambled_causal=4&num_scrambled_schematic=4&participantId=923774E1DC524B0E9A666C35AB9E57E6&assignmentId=ace9786e-2a8b-4bbb-959a-a8f479d7caed&projectId=9076ac92-be42-43a2-9634-8b67c7fe93a7","923774E1DC524B0E9A666C35AB9E57E6-2025-05-22-19-24-35","","2330","","images/semantic_sequence/visiting_cities_semantic/visiting_cities_semantic_6.png","1","",""
"","","","","","image-button-response","83","487490","0.0-12.0-1.0-2.8","923774E1DC524B0E9A666C35AB9E57E6","923774E1DC524B0E9A666C35AB9E57E6","ace9786e-2a8b-4bbb-959a-a8f479d7caed","9076ac92-be42-43a2-9634-8b67c7fe93a7","{""num_scrambled_semantic"":""8"",""num_scrambled_causal"":""4"",""num_scrambled_schematic"":""4"",""participantId"":""923774E1DC524B0E9A666C35AB9E57E6"",""assignmentId"":""ace9786e-2a8b-4bbb-959a-a8f479d7caed"",""projectId"":""9076ac92-be42-43a2-9634-8b67c7fe93a7""}","https://test12345.live/?num_scrambled_semantic=8&num_scrambled_causal=4&num_scrambled_schematic=4&participantId=923774E1DC524B0E9A666C35AB9E57E6&assignmentId=ace9786e-2a8b-4bbb-959a-a8f479d7caed&projectId=9076ac92-be42-43a2-9634-8b67c7fe93a7","923774E1DC524B0E9A666C35AB9E57E6-2025-05-22-19-24-35","","null","","[]","null","",""
"","","","","","image-button-response","84","491997","0.0-12.0-1.0-0.9","923774E1DC524B0E9A666C35AB9E57E6","923774E1DC524B0E9A666C35AB9E57E6","ace9786e-2a8b-4bbb-959a-a8f479d7caed","9076ac92-be42-43a2-9634-8b67c7fe93a7","{""num_scrambled_semantic"":""8"",""num_scrambled_causal"":""4"",""num_scrambled_schematic"":""4"",""participantId"":""923774E1DC524B0E9A666C35AB9E57E6"",""assignmentId"":""ace9786e-2a8b-4bbb-959a-a8f479d7caed"",""projectId"":""9076ac92-be42-43a2-9634-8b67c7fe93a7""}","https://test12345.live/?num_scrambled_semantic=8&num_scrambled_causal=4&num_scrambled_schematic=4&participantId=923774E1DC524B0E9A666C35AB9E57E6&assignmentId=ace9786e-2a8b-4bbb-959a-a8f479d7caed&projectId=9076ac92-be42-43a2-9634-8b67c7fe93a7","923774E1DC524B0E9A666C35AB9E57E6-2025-05-22-19-24-35","","null","","images/semantic_sequence/visiting_cities_semantic/visiting_cities_semantic_ten.png","null","",""
"","","","","","image-button-response","85","495150","0.0-12.0-1.0-1.9","923774E1DC524B0E9A666C35AB9E57E6","923774E1DC524B0E9A666C35AB9E57E6","ace9786e-2a8b-4bbb-959a-a8f479d7caed","9076ac92-be42-43a2-9634-8b67c7fe93a7","{""num_scrambled_semantic"":""8"",""num_scrambled_causal"":""4"",""num_scrambled_schematic"":""4"",""participantId"":""923774E1DC524B0E9A666C35AB9E57E6"",""assignmentId"":""ace9786e-2a8b-4bbb-959a-a8f479d7caed"",""projectId"":""9076ac92-be42-43a2-9634-8b67c7fe93a7""}","https://test12345.live/?num_scrambled_semantic=8&num_scrambled_causal=4&num_scrambled_schematic=4&participantId=923774E1DC524B0E9A666C35AB9E57E6&assignmentId=ace9786e-2a8b-4bbb-959a-a8f479d7caed&projectId=9076ac92-be42-43a2-9634-8b67c7fe93a7","923774E1DC524B0E9A666C35AB9E57E6-2025-05-22-19-24-35","","3150","","images/semantic_sequence/visiting_cities_semantic/visiting_cities_semantic_ten.png","1","",""
"","","","","","image-button-response","86","496956","0.0-12.0-1.0-2.9","923774E1DC524B0E9A666C35AB9E57E6","923774E1DC524B0E9A666C35AB9E57E6","ace9786e-2a8b-4bbb-959a-a8f479d7caed","9076ac92-be42-43a2-9634-8b67c7fe93a7","{""num_scrambled_semantic"":""8"",""num_scrambled_causal"":""4"",""num_scrambled_schematic"":""4"",""participantId"":""923774E1DC524B0E9A666C35AB9E57E6"",""assignmentId"":""ace9786e-2a8b-4bbb-959a-a8f479d7caed"",""projectId"":""9076ac92-be42-43a2-9634-8b67c7fe93a7""}","https://test12345.live/?num_scrambled_semantic=8&num_scrambled_causal=4&num_scrambled_schematic=4&participantId=923774E1DC524B0E9A666C35AB9E57E6&assignmentId=ace9786e-2a8b-4bbb-959a-a8f479d7caed&projectId=9076ac92-be42-43a2-9634-8b67c7fe93a7","923774E1DC524B0E9A666C35AB9E57E6-2025-05-22-19-24-35","","null","","[]","null","",""
"","","","","","html-audio-response","87","528287","0.0-13.0","923774E1DC524B0E9A666C35AB9E57E6","923774E1DC524B0E9A666C35AB9E57E6","ace9786e-2a8b-4bbb-959a-a8f479d7caed","9076ac92-be42-43a2-9634-8b67c7fe93a7","{""num_scrambled_semantic"":""8"",""num_scrambled_causal"":""4"",""num_scrambled_schematic"":""4"",""participantId"":""923774E1DC524B0E9A666C35AB9E57E6"",""assignmentId"":""ace9786e-2a8b-4bbb-959a-a8f479d7caed"",""projectId"":""9076ac92-be42-43a2-9634-8b67c7fe93a7""}","https://test12345.live/?num_scrambled_semantic=8&num_scrambled_causal=4&num_scrambled_schematic=4&participantId=923774E1DC524B0E9A666C35AB9E57E6&assignmentId=ace9786e-2a8b-4bbb-959a-a8f479d7caed&projectId=9076ac92-be42-43a2-9634-8b67c7fe93a7","923774E1DC524B0E9A666C35AB9E57E6-2025-05-22-19-24-35","","15378","","[""<span style=\""color: red; font-size: 24px\""> NOW RECORDING</span><p>Please say out loud all the images you saw, in the exact order you saw them. Try to recall as many images as you can, but remember: getting the order right is more important than the number of images you recall.</p>""]","","1","visiting_cities_semantic"
"","","","","","image-button-response","88","534300","0.0-14.0-0.0","923774E1DC524B0E9A666C35AB9E57E6","923774E1DC524B0E9A666C35AB9E57E6","ace9786e-2a8b-4bbb-959a-a8f479d7caed","9076ac92-be42-43a2-9634-8b67c7fe93a7","{""num_scrambled_semantic"":""8"",""num_scrambled_causal"":""4"",""num_scrambled_schematic"":""4"",""participantId"":""923774E1DC524B0E9A666C35AB9E57E6"",""assignmentId"":""ace9786e-2a8b-4bbb-959a-a8f479d7caed"",""projectId"":""9076ac92-be42-43a2-9634-8b67c7fe93a7""}","https://test12345.live/?num_scrambled_semantic=8&num_scrambled_causal=4&num_scrambled_schematic=4&participantId=923774E1DC524B0E9A666C35AB9E57E6&assignmentId=ace9786e-2a8b-4bbb-959a-a8f479d7caed&projectId=9076ac92-be42-43a2-9634-8b67c7fe93a7","923774E1DC524B0E9A666C35AB9E57E6-2025-05-22-19-24-35","","null","","images/schematic_sequence/supermarket_scheme/supermarket_scheme_0.png","null","",""
"","","","","","image-button-response","89","538815","0.0-14.0-1.0-0.0","923774E1DC524B0E9A666C35AB9E57E6","923774E1DC524B0E9A666C35AB9E57E6","ace9786e-2a8b-4bbb-959a-a8f479d7caed","9076ac92-be42-43a2-9634-8b67c7fe93a7","{""num_scrambled_semantic"":""8"",""num_scrambled_causal"":""4"",""num_scrambled_schematic"":""4"",""participantId"":""923774E1DC524B0E9A666C35AB9E57E6"",""assignmentId"":""ace9786e-2a8b-4bbb-959a-a8f479d7caed"",""projectId"":""9076ac92-be42-43a2-9634-8b67c7fe93a7""}","https://test12345.live/?num_scrambled_semantic=8&num_scrambled_causal=4&num_scrambled_schematic=4&participantId=923774E1DC524B0E9A666C35AB9E57E6&assignmentId=ace9786e-2a8b-4bbb-959a-a8f479d7caed&projectId=9076ac92-be42-43a2-9634-8b67c7fe93a7","923774E1DC524B0E9A666C35AB9E57E6-2025-05-22-19-24-35","","null","","images/schematic_sequence/supermarket_scheme/supermarket_scheme_3.png","null","",""
"","","","","","image-button-response","90","541804","0.0-14.0-1.0-1.0","923774E1DC524B0E9A666C35AB9E57E6","923774E1DC524B0E9A666C35AB9E57E6","ace9786e-2a8b-4bbb-959a-a8f479d7caed","9076ac92-be42-43a2-9634-8b67c7fe93a7","{""num_scrambled_semantic"":""8"",""num_scrambled_causal"":""4"",""num_scrambled_schematic"":""4"",""participantId"":""923774E1DC524B0E9A666C35AB9E57E6"",""assignmentId"":""ace9786e-2a8b-4bbb-959a-a8f479d7caed"",""projectId"":""9076ac92-be42-43a2-9634-8b67c7fe93a7""}","https://test12345.live/?num_scrambled_semantic=8&num_scrambled_causal=4&num_scrambled_schematic=4&participantId=923774E1DC524B0E9A666C35AB9E57E6&assignmentId=ace9786e-2a8b-4bbb-959a-a8f479d7caed&projectId=9076ac92-be42-43a2-9634-8b67c7fe93a7","923774E1DC524B0E9A666C35AB9E57E6-2025-05-22-19-24-35","","2987","","images/schematic_sequence/supermarket_scheme/supermarket_scheme_3.png","1","",""
"","","","","","image-button-response","91","543611","0.0-14.0-1.0-2.0","923774E1DC524B0E9A666C35AB9E57E6","923774E1DC524B0E9A666C35AB9E57E6","ace9786e-2a8b-4bbb-959a-a8f479d7caed","9076ac92-be42-43a2-9634-8b67c7fe93a7","{""num_scrambled_semantic"":""8"",""num_scrambled_causal"":""4"",""num_scrambled_schematic"":""4"",""participantId"":""923774E1DC524B0E9A666C35AB9E57E6"",""assignmentId"":""ace9786e-2a8b-4bbb-959a-a8f479d7caed"",""projectId"":""9076ac92-be42-43a2-9634-8b67c7fe93a7""}","https://test12345.live/?num_scrambled_semantic=8&num_scrambled_causal=4&num_scrambled_schematic=4&participantId=923774E1DC524B0E9A666C35AB9E57E6&assignmentId=ace9786e-2a8b-4bbb-959a-a8f479d7caed&projectId=9076ac92-be42-43a2-9634-8b67c7fe93a7","923774E1DC524B0E9A666C35AB9E57E6-2025-05-22-19-24-35","","null","","[]","null","",""
"","","","","","image-button-response","92","548116","0.0-14.0-1.0-0.1","923774E1DC524B0E9A666C35AB9E57E6","923774E1DC524B0E9A666C35AB9E57E6","ace9786e-2a8b-4bbb-959a-a8f479d7caed","9076ac92-be42-43a2-9634-8b67c7fe93a7","{""num_scrambled_semantic"":""8"",""num_scrambled_causal"":""4"",""num_scrambled_schematic"":""4"",""participantId"":""923774E1DC524B0E9A666C35AB9E57E6"",""assignmentId"":""ace9786e-2a8b-4bbb-959a-a8f479d7caed"",""projectId"":""9076ac92-be42-43a2-9634-8b67c7fe93a7""}","https://test12345.live/?num_scrambled_semantic=8&num_scrambled_causal=4&num_scrambled_schematic=4&participantId=923774E1DC524B0E9A666C35AB9E57E6&assignmentId=ace9786e-2a8b-4bbb-959a-a8f479d7caed&projectId=9076ac92-be42-43a2-9634-8b67c7fe93a7","923774E1DC524B0E9A666C35AB9E57E6-2025-05-22-19-24-35","","null","","images/schematic_sequence/supermarket_scheme/supermarket_scheme_1.png","null","",""
"","","","","","image-button-response","93","550965","0.0-14.0-1.0-1.1","923774E1DC524B0E9A666C35AB9E57E6","923774E1DC524B0E9A666C35AB9E57E6","ace9786e-2a8b-4bbb-959a-a8f479d7caed","9076ac92-be42-43a2-9634-8b67c7fe93a7","{""num_scrambled_semantic"":""8"",""num_scrambled_causal"":""4"",""num_scrambled_schematic"":""4"",""participantId"":""923774E1DC524B0E9A666C35AB9E57E6"",""assignmentId"":""ace9786e-2a8b-4bbb-959a-a8f479d7caed"",""projectId"":""9076ac92-be42-43a2-9634-8b67c7fe93a7""}","https://test12345.live/?num_scrambled_semantic=8&num_scrambled_causal=4&num_scrambled_schematic=4&participantId=923774E1DC524B0E9A666C35AB9E57E6&assignmentId=ace9786e-2a8b-4bbb-959a-a8f479d7caed&projectId=9076ac92-be42-43a2-9634-8b67c7fe93a7","923774E1DC524B0E9A666C35AB9E57E6-2025-05-22-19-24-35","","2846","","images/schematic_sequence/supermarket_scheme/supermarket_scheme_1.png","1","",""
"","","","","","image-button-response","94","552776","0.0-14.0-1.0-2.1","923774E1DC524B0E9A666C35AB9E57E6","923774E1DC524B0E9A666C35AB9E57E6","ace9786e-2a8b-4bbb-959a-a8f479d7caed","9076ac92-be42-43a2-9634-8b67c7fe93a7","{""num_scrambled_semantic"":""8"",""num_scrambled_causal"":""4"",""num_scrambled_schematic"":""4"",""participantId"":""923774E1DC524B0E9A666C35AB9E57E6"",""assignmentId"":""ace9786e-2a8b-4bbb-959a-a8f479d7caed"",""projectId"":""9076ac92-be42-43a2-9634-8b67c7fe93a7""}","https://test12345.live/?num_scrambled_semantic=8&num_scrambled_causal=4&num_scrambled_schematic=4&participantId=923774E1DC524B0E9A666C35AB9E57E6&assignmentId=ace9786e-2a8b-4bbb-959a-a8f479d7caed&projectId=9076ac92-be42-43a2-9634-8b67c7fe93a7","923774E1DC524B0E9A666C35AB9E57E6-2025-05-22-19-24-35","","null","","[]","null","",""
"","","","","","image-button-response","95","557286","0.0-14.0-1.0-0.2","923774E1DC524B0E9A666C35AB9E57E6","923774E1DC524B0E9A666C35AB9E57E6","ace9786e-2a8b-4bbb-959a-a8f479d7caed","9076ac92-be42-43a2-9634-8b67c7fe93a7","{""num_scrambled_semantic"":""8"",""num_scrambled_causal"":""4"",""num_scrambled_schematic"":""4"",""participantId"":""923774E1DC524B0E9A666C35AB9E57E6"",""assignmentId"":""ace9786e-2a8b-4bbb-959a-a8f479d7caed"",""projectId"":""9076ac92-be42-43a2-9634-8b67c7fe93a7""}","https://test12345.live/?num_scrambled_semantic=8&num_scrambled_causal=4&num_scrambled_schematic=4&participantId=923774E1DC524B0E9A666C35AB9E57E6&assignmentId=ace9786e-2a8b-4bbb-959a-a8f479d7caed&projectId=9076ac92-be42-43a2-9634-8b67c7fe93a7","923774E1DC524B0E9A666C35AB9E57E6-2025-05-22-19-24-35","","null","","images/schematic_sequence/supermarket_scheme/supermarket_scheme_7.png","null","",""
"","","","","","image-button-response","96","560217","0.0-14.0-1.0-1.2","923774E1DC524B0E9A666C35AB9E57E6","923774E1DC524B0E9A666C35AB9E57E6","ace9786e-2a8b-4bbb-959a-a8f479d7caed","9076ac92-be42-43a2-9634-8b67c7fe93a7","{""num_scrambled_semantic"":""8"",""num_scrambled_causal"":""4"",""num_scrambled_schematic"":""4"",""participantId"":""923774E1DC524B0E9A666C35AB9E57E6"",""assignmentId"":""ace9786e-2a8b-4bbb-959a-a8f479d7caed"",""projectId"":""9076ac92-be42-43a2-9634-8b67c7fe93a7""}","https://test12345.live/?num_scrambled_semantic=8&num_scrambled_causal=4&num_scrambled_schematic=4&participantId=923774E1DC524B0E9A666C35AB9E57E6&assignmentId=ace9786e-2a8b-4bbb-959a-a8f479d7caed&projectId=9076ac92-be42-43a2-9634-8b67c7fe93a7","923774E1DC524B0E9A666C35AB9E57E6-2025-05-22-19-24-35","","2928","","images/schematic_sequence/supermarket_scheme/supermarket_scheme_7.png","0","",""
"","","","","","image-button-response","97","562024","0.0-14.0-1.0-2.2","923774E1DC524B0E9A666C35AB9E57E6","923774E1DC524B0E9A666C35AB9E57E6","ace9786e-2a8b-4bbb-959a-a8f479d7caed","9076ac92-be42-43a2-9634-8b67c7fe93a7","{""num_scrambled_semantic"":""8"",""num_scrambled_causal"":""4"",""num_scrambled_schematic"":""4"",""participantId"":""923774E1DC524B0E9A666C35AB9E57E6"",""assignmentId"":""ace9786e-2a8b-4bbb-959a-a8f479d7caed"",""projectId"":""9076ac92-be42-43a2-9634-8b67c7fe93a7""}","https://test12345.live/?num_scrambled_semantic=8&num_scrambled_causal=4&num_scrambled_schematic=4&participantId=923774E1DC524B0E9A666C35AB9E57E6&assignmentId=ace9786e-2a8b-4bbb-959a-a8f479d7caed&projectId=9076ac92-be42-43a2-9634-8b67c7fe93a7","923774E1DC524B0E9A666C35AB9E57E6-2025-05-22-19-24-35","","null","","[]","null","",""
"","","","","","image-button-response","98","566534","0.0-14.0-1.0-0.3","923774E1DC524B0E9A666C35AB9E57E6","923774E1DC524B0E9A666C35AB9E57E6","ace9786e-2a8b-4bbb-959a-a8f479d7caed","9076ac92-be42-43a2-9634-8b67c7fe93a7","{""num_scrambled_semantic"":""8"",""num_scrambled_causal"":""4"",""num_scrambled_schematic"":""4"",""participantId"":""923774E1DC524B0E9A666C35AB9E57E6"",""assignmentId"":""ace9786e-2a8b-4bbb-959a-a8f479d7caed"",""projectId"":""9076ac92-be42-43a2-9634-8b67c7fe93a7""}","https://test12345.live/?num_scrambled_semantic=8&num_scrambled_causal=4&num_scrambled_schematic=4&participantId=923774E1DC524B0E9A666C35AB9E57E6&assignmentId=ace9786e-2a8b-4bbb-959a-a8f479d7caed&projectId=9076ac92-be42-43a2-9634-8b67c7fe93a7","923774E1DC524B0E9A666C35AB9E57E6-2025-05-22-19-24-35","","null","","images/schematic_sequence/supermarket_scheme/supermarket_scheme_2.png","null","",""
"","","","","","image-button-response","99","568691","0.0-14.0-1.0-1.3","923774E1DC524B0E9A666C35AB9E57E6","923774E1DC524B0E9A666C35AB9E57E6","ace9786e-2a8b-4bbb-959a-a8f479d7caed","9076ac92-be42-43a2-9634-8b67c7fe93a7","{""num_scrambled_semantic"":""8"",""num_scrambled_causal"":""4"",""num_scrambled_schematic"":""4"",""participantId"":""923774E1DC524B0E9A666C35AB9E57E6"",""assignmentId"":""ace9786e-2a8b-4bbb-959a-a8f479d7caed"",""projectId"":""9076ac92-be42-43a2-9634-8b67c7fe93a7""}","https://test12345.live/?num_scrambled_semantic=8&num_scrambled_causal=4&num_scrambled_schematic=4&participantId=923774E1DC524B0E9A666C35AB9E57E6&assignmentId=ace9786e-2a8b-4bbb-959a-a8f479d7caed&projectId=9076ac92-be42-43a2-9634-8b67c7fe93a7","923774E1DC524B0E9A666C35AB9E57E6-2025-05-22-19-24-35","","2154","","images/schematic_sequence/supermarket_scheme/supermarket_scheme_2.png","1","",""
"","","","","","image-button-response","100","570501","0.0-14.0-1.0-2.3","923774E1DC524B0E9A666C35AB9E57E6","923774E1DC524B0E9A666C35AB9E57E6","ace9786e-2a8b-4bbb-959a-a8f479d7caed","9076ac92-be42-43a2-9634-8b67c7fe93a7","{""num_scrambled_semantic"":""8"",""num_scrambled_causal"":""4"",""num_scrambled_schematic"":""4"",""participantId"":""923774E1DC524B0E9A666C35AB9E57E6"",""assignmentId"":""ace9786e-2a8b-4bbb-959a-a8f479d7caed"",""projectId"":""9076ac92-be42-43a2-9634-8b67c7fe93a7""}","https://test12345.live/?num_scrambled_semantic=8&num_scrambled_causal=4&num_scrambled_schematic=4&participantId=923774E1DC524B0E9A666C35AB9E57E6&assignmentId=ace9786e-2a8b-4bbb-959a-a8f479d7caed&projectId=9076ac92-be42-43a2-9634-8b67c7fe93a7","923774E1DC524B0E9A666C35AB9E57E6-2025-05-22-19-24-35","","null","","[]","null","",""
"","","","","","image-button-response","101","575015","0.0-14.0-1.0-0.4","923774E1DC524B0E9A666C35AB9E57E6","923774E1DC524B0E9A666C35AB9E57E6","ace9786e-2a8b-4bbb-959a-a8f479d7caed","9076ac92-be42-43a2-9634-8b67c7fe93a7","{""num_scrambled_semantic"":""8"",""num_scrambled_causal"":""4"",""num_scrambled_schematic"":""4"",""participantId"":""923774E1DC524B0E9A666C35AB9E57E6"",""assignmentId"":""ace9786e-2a8b-4bbb-959a-a8f479d7caed"",""projectId"":""9076ac92-be42-43a2-9634-8b67c7fe93a7""}","https://test12345.live/?num_scrambled_semantic=8&num_scrambled_causal=4&num_scrambled_schematic=4&participantId=923774E1DC524B0E9A666C35AB9E57E6&assignmentId=ace9786e-2a8b-4bbb-959a-a8f479d7caed&projectId=9076ac92-be42-43a2-9634-8b67c7fe93a7","923774E1DC524B0E9A666C35AB9E57E6-2025-05-22-19-24-35","","null","","images/schematic_sequence/supermarket_scheme/supermarket_scheme_6.png","null","",""
"","","","","","image-button-response","102","577767","0.0-14.0-1.0-1.4","923774E1DC524B0E9A666C35AB9E57E6","923774E1DC524B0E9A666C35AB9E57E6","ace9786e-2a8b-4bbb-959a-a8f479d7caed","9076ac92-be42-43a2-9634-8b67c7fe93a7","{""num_scrambled_semantic"":""8"",""num_scrambled_causal"":""4"",""num_scrambled_schematic"":""4"",""participantId"":""923774E1DC524B0E9A666C35AB9E57E6"",""assignmentId"":""ace9786e-2a8b-4bbb-959a-a8f479d7caed"",""projectId"":""9076ac92-be42-43a2-9634-8b67c7fe93a7""}","https://test12345.live/?num_scrambled_semantic=8&num_scrambled_causal=4&num_scrambled_schematic=4&participantId=923774E1DC524B0E9A666C35AB9E57E6&assignmentId=ace9786e-2a8b-4bbb-959a-a8f479d7caed&projectId=9076ac92-be42-43a2-9634-8b67c7fe93a7","923774E1DC524B0E9A666C35AB9E57E6-2025-05-22-19-24-35","","2750","","images/schematic_sequence/supermarket_scheme/supermarket_scheme_6.png","0","",""
"","","","","","image-button-response","103","579571","0.0-14.0-1.0-2.4","923774E1DC524B0E9A666C35AB9E57E6","923774E1DC524B0E9A666C35AB9E57E6","ace9786e-2a8b-4bbb-959a-a8f479d7caed","9076ac92-be42-43a2-9634-8b67c7fe93a7","{""num_scrambled_semantic"":""8"",""num_scrambled_causal"":""4"",""num_scrambled_schematic"":""4"",""participantId"":""923774E1DC524B0E9A666C35AB9E57E6"",""assignmentId"":""ace9786e-2a8b-4bbb-959a-a8f479d7caed"",""projectId"":""9076ac92-be42-43a2-9634-8b67c7fe93a7""}","https://test12345.live/?num_scrambled_semantic=8&num_scrambled_causal=4&num_scrambled_schematic=4&participantId=923774E1DC524B0E9A666C35AB9E57E6&assignmentId=ace9786e-2a8b-4bbb-959a-a8f479d7caed&projectId=9076ac92-be42-43a2-9634-8b67c7fe93a7","923774E1DC524B0E9A666C35AB9E57E6-2025-05-22-19-24-35","","null","","[]","null","",""
"","","","","","image-button-response","104","584077","0.0-14.0-1.0-0.5","923774E1DC524B0E9A666C35AB9E57E6","923774E1DC524B0E9A666C35AB9E57E6","ace9786e-2a8b-4bbb-959a-a8f479d7caed","9076ac92-be42-43a2-9634-8b67c7fe93a7","{""num_scrambled_semantic"":""8"",""num_scrambled_causal"":""4"",""num_scrambled_schematic"":""4"",""participantId"":""923774E1DC524B0E9A666C35AB9E57E6"",""assignmentId"":""ace9786e-2a8b-4bbb-959a-a8f479d7caed"",""projectId"":""9076ac92-be42-43a2-9634-8b67c7fe93a7""}","https://test12345.live/?num_scrambled_semantic=8&num_scrambled_causal=4&num_scrambled_schematic=4&participantId=923774E1DC524B0E9A666C35AB9E57E6&assignmentId=ace9786e-2a8b-4bbb-959a-a8f479d7caed&projectId=9076ac92-be42-43a2-9634-8b67c7fe93a7","923774E1DC524B0E9A666C35AB9E57E6-2025-05-22-19-24-35","","null","","images/schematic_sequence/supermarket_scheme/supermarket_scheme_8.png","null","",""
"","","","","","image-button-response","105","585615","0.0-14.0-1.0-1.5","923774E1DC524B0E9A666C35AB9E57E6","923774E1DC524B0E9A666C35AB9E57E6","ace9786e-2a8b-4bbb-959a-a8f479d7caed","9076ac92-be42-43a2-9634-8b67c7fe93a7","{""num_scrambled_semantic"":""8"",""num_scrambled_causal"":""4"",""num_scrambled_schematic"":""4"",""participantId"":""923774E1DC524B0E9A666C35AB9E57E6"",""assignmentId"":""ace9786e-2a8b-4bbb-959a-a8f479d7caed"",""projectId"":""9076ac92-be42-43a2-9634-8b67c7fe93a7""}","https://test12345.live/?num_scrambled_semantic=8&num_scrambled_causal=4&num_scrambled_schematic=4&participantId=923774E1DC524B0E9A666C35AB9E57E6&assignmentId=ace9786e-2a8b-4bbb-959a-a8f479d7caed&projectId=9076ac92-be42-43a2-9634-8b67c7fe93a7","923774E1DC524B0E9A666C35AB9E57E6-2025-05-22-19-24-35","","1536","","images/schematic_sequence/supermarket_scheme/supermarket_scheme_8.png","0","",""
"","","","","","image-button-response","106","587421","0.0-14.0-1.0-2.5","923774E1DC524B0E9A666C35AB9E57E6","923774E1DC524B0E9A666C35AB9E57E6","ace9786e-2a8b-4bbb-959a-a8f479d7caed","9076ac92-be42-43a2-9634-8b67c7fe93a7","{""num_scrambled_semantic"":""8"",""num_scrambled_causal"":""4"",""num_scrambled_schematic"":""4"",""participantId"":""923774E1DC524B0E9A666C35AB9E57E6"",""assignmentId"":""ace9786e-2a8b-4bbb-959a-a8f479d7caed"",""projectId"":""9076ac92-be42-43a2-9634-8b67c7fe93a7""}","https://test12345.live/?num_scrambled_semantic=8&num_scrambled_causal=4&num_scrambled_schematic=4&participantId=923774E1DC524B0E9A666C35AB9E57E6&assignmentId=ace9786e-2a8b-4bbb-959a-a8f479d7caed&projectId=9076ac92-be42-43a2-9634-8b67c7fe93a7","923774E1DC524B0E9A666C35AB9E57E6-2025-05-22-19-24-35","","null","","[]","null","",""
"","","","","","image-button-response","107","591937","0.0-14.0-1.0-0.6","923774E1DC524B0E9A666C35AB9E57E6","923774E1DC524B0E9A666C35AB9E57E6","ace9786e-2a8b-4bbb-959a-a8f479d7caed","9076ac92-be42-43a2-9634-8b67c7fe93a7","{""num_scrambled_semantic"":""8"",""num_scrambled_causal"":""4"",""num_scrambled_schematic"":""4"",""participantId"":""923774E1DC524B0E9A666C35AB9E57E6"",""assignmentId"":""ace9786e-2a8b-4bbb-959a-a8f479d7caed"",""projectId"":""9076ac92-be42-43a2-9634-8b67c7fe93a7""}","https://test12345.live/?num_scrambled_semantic=8&num_scrambled_causal=4&num_scrambled_schematic=4&participantId=923774E1DC524B0E9A666C35AB9E57E6&assignmentId=ace9786e-2a8b-4bbb-959a-a8f479d7caed&projectId=9076ac92-be42-43a2-9634-8b67c7fe93a7","923774E1DC524B0E9A666C35AB9E57E6-2025-05-22-19-24-35","","null","","images/schematic_sequence/supermarket_scheme/supermarket_scheme_4.png","null","",""
"","","","","","image-button-response","108","595021","0.0-14.0-1.0-1.6","923774E1DC524B0E9A666C35AB9E57E6","923774E1DC524B0E9A666C35AB9E57E6","ace9786e-2a8b-4bbb-959a-a8f479d7caed","9076ac92-be42-43a2-9634-8b67c7fe93a7","{""num_scrambled_semantic"":""8"",""num_scrambled_causal"":""4"",""num_scrambled_schematic"":""4"",""participantId"":""923774E1DC524B0E9A666C35AB9E57E6"",""assignmentId"":""ace9786e-2a8b-4bbb-959a-a8f479d7caed"",""projectId"":""9076ac92-be42-43a2-9634-8b67c7fe93a7""}","https://test12345.live/?num_scrambled_semantic=8&num_scrambled_causal=4&num_scrambled_schematic=4&participantId=923774E1DC524B0E9A666C35AB9E57E6&assignmentId=ace9786e-2a8b-4bbb-959a-a8f479d7caed&projectId=9076ac92-be42-43a2-9634-8b67c7fe93a7","923774E1DC524B0E9A666C35AB9E57E6-2025-05-22-19-24-35","","3082","","images/schematic_sequence/supermarket_scheme/supermarket_scheme_4.png","0","",""
"","","","","","image-button-response","109","596831","0.0-14.0-1.0-2.6","923774E1DC524B0E9A666C35AB9E57E6","923774E1DC524B0E9A666C35AB9E57E6","ace9786e-2a8b-4bbb-959a-a8f479d7caed","9076ac92-be42-43a2-9634-8b67c7fe93a7","{""num_scrambled_semantic"":""8"",""num_scrambled_causal"":""4"",""num_scrambled_schematic"":""4"",""participantId"":""923774E1DC524B0E9A666C35AB9E57E6"",""assignmentId"":""ace9786e-2a8b-4bbb-959a-a8f479d7caed"",""projectId"":""9076ac92-be42-43a2-9634-8b67c7fe93a7""}","https://test12345.live/?num_scrambled_semantic=8&num_scrambled_causal=4&num_scrambled_schematic=4&participantId=923774E1DC524B0E9A666C35AB9E57E6&assignmentId=ace9786e-2a8b-4bbb-959a-a8f479d7caed&projectId=9076ac92-be42-43a2-9634-8b67c7fe93a7","923774E1DC524B0E9A666C35AB9E57E6-2025-05-22-19-24-35","","null","","[]","null","",""
"","","","","","image-button-response","110","601341","0.0-14.0-1.0-0.7","923774E1DC524B0E9A666C35AB9E57E6","923774E1DC524B0E9A666C35AB9E57E6","ace9786e-2a8b-4bbb-959a-a8f479d7caed","9076ac92-be42-43a2-9634-8b67c7fe93a7","{""num_scrambled_semantic"":""8"",""num_scrambled_causal"":""4"",""num_scrambled_schematic"":""4"",""participantId"":""923774E1DC524B0E9A666C35AB9E57E6"",""assignmentId"":""ace9786e-2a8b-4bbb-959a-a8f479d7caed"",""projectId"":""9076ac92-be42-43a2-9634-8b67c7fe93a7""}","https://test12345.live/?num_scrambled_semantic=8&num_scrambled_causal=4&num_scrambled_schematic=4&participantId=923774E1DC524B0E9A666C35AB9E57E6&assignmentId=ace9786e-2a8b-4bbb-959a-a8f479d7caed&projectId=9076ac92-be42-43a2-9634-8b67c7fe93a7","923774E1DC524B0E9A666C35AB9E57E6-2025-05-22-19-24-35","","null","","images/schematic_sequence/supermarket_scheme/supermarket_scheme_5.png","null","",""
"","","","","","image-button-response","111","602549","0.0-14.0-1.0-1.7","923774E1DC524B0E9A666C35AB9E57E6","923774E1DC524B0E9A666C35AB9E57E6","ace9786e-2a8b-4bbb-959a-a8f479d7caed","9076ac92-be42-43a2-9634-8b67c7fe93a7","{""num_scrambled_semantic"":""8"",""num_scrambled_causal"":""4"",""num_scrambled_schematic"":""4"",""participantId"":""923774E1DC524B0E9A666C35AB9E57E6"",""assignmentId"":""ace9786e-2a8b-4bbb-959a-a8f479d7caed"",""projectId"":""9076ac92-be42-43a2-9634-8b67c7fe93a7""}","https://test12345.live/?num_scrambled_semantic=8&num_scrambled_causal=4&num_scrambled_schematic=4&participantId=923774E1DC524B0E9A666C35AB9E57E6&assignmentId=ace9786e-2a8b-4bbb-959a-a8f479d7caed&projectId=9076ac92-be42-43a2-9634-8b67c7fe93a7","923774E1DC524B0E9A666C35AB9E57E6-2025-05-22-19-24-35","","1206","","images/schematic_sequence/supermarket_scheme/supermarket_scheme_5.png","1","",""
"","","","","","image-button-response","112","604360","0.0-14.0-1.0-2.7","923774E1DC524B0E9A666C35AB9E57E6","923774E1DC524B0E9A666C35AB9E57E6","ace9786e-2a8b-4bbb-959a-a8f479d7caed","9076ac92-be42-43a2-9634-8b67c7fe93a7","{""num_scrambled_semantic"":""8"",""num_scrambled_causal"":""4"",""num_scrambled_schematic"":""4"",""participantId"":""923774E1DC524B0E9A666C35AB9E57E6"",""assignmentId"":""ace9786e-2a8b-4bbb-959a-a8f479d7caed"",""projectId"":""9076ac92-be42-43a2-9634-8b67c7fe93a7""}","https://test12345.live/?num_scrambled_semantic=8&num_scrambled_causal=4&num_scrambled_schematic=4&participantId=923774E1DC524B0E9A666C35AB9E57E6&assignmentId=ace9786e-2a8b-4bbb-959a-a8f479d7caed&projectId=9076ac92-be42-43a2-9634-8b67c7fe93a7","923774E1DC524B0E9A666C35AB9E57E6-2025-05-22-19-24-35","","null","","[]","null","",""
"","","","","","image-button-response","113","608871","0.0-14.0-1.0-0.8","923774E1DC524B0E9A666C35AB9E57E6","923774E1DC524B0E9A666C35AB9E57E6","ace9786e-2a8b-4bbb-959a-a8f479d7caed","9076ac92-be42-43a2-9634-8b67c7fe93a7","{""num_scrambled_semantic"":""8"",""num_scrambled_causal"":""4"",""num_scrambled_schematic"":""4"",""participantId"":""923774E1DC524B0E9A666C35AB9E57E6"",""assignmentId"":""ace9786e-2a8b-4bbb-959a-a8f479d7caed"",""projectId"":""9076ac92-be42-43a2-9634-8b67c7fe93a7""}","https://test12345.live/?num_scrambled_semantic=8&num_scrambled_causal=4&num_scrambled_schematic=4&participantId=923774E1DC524B0E9A666C35AB9E57E6&assignmentId=ace9786e-2a8b-4bbb-959a-a8f479d7caed&projectId=9076ac92-be42-43a2-9634-8b67c7fe93a7","923774E1DC524B0E9A666C35AB9E57E6-2025-05-22-19-24-35","","null","","images/schematic_sequence/supermarket_scheme/supermarket_scheme_ten.png","null","",""
