"success","timeout","failed_images","failed_audio","failed_video","trial_type","trial_index","time_elapsed","internal_node_id","subject","subject_id","study_id","session_id","urlvar","current_url","audio_id","view_history","rt","device_id","stimulus","response","estimated_stimulus_onset","seq_name"
"true","false","[]","[]","[]","preload","0","1452","0.0-0.0","923D08CFD0894720B1F1D5D4C8C30F80","923D08CFD0894720B1F1D5D4C8C30F80","6dce60d4-c8ce-4581-afa5-616069d5228c","a0a8f18c-a66e-4ba7-a170-23efbdc67501","{""participantId"":""923D08CFD0894720B1F1D5D4C8C30F80"",""assignmentId"":""6dce60d4-c8ce-4581-afa5-616069d5228c"",""projectId"":""a0a8f18c-a66e-4ba7-a170-23efbdc67501""}","https://test12345.live/?participantId=923D08CFD0894720B1F1D5D4C8C30F80&assignmentId=6dce60d4-c8ce-4581-afa5-616069d5228c&projectId=a0a8f18c-a66e-4ba7-a170-23efbdc67501","923D08CFD0894720B1F1D5D4C8C30F80-2024-11-24-17-39-24","","","","","","",""
"","","","","","instructions","1","324142","0.0-1.0","923D08CFD0894720B1F1D5D4C8C30F80","923D08CFD0894720B1F1D5D4C8C30F80","6dce60d4-c8ce-4581-afa5-616069d5228c","a0a8f18c-a66e-4ba7-a170-23efbdc67501","{""participantId"":""923D08CFD0894720B1F1D5D4C8C30F80"",""assignmentId"":""6dce60d4-c8ce-4581-afa5-616069d5228c"",""projectId"":""a0a8f18c-a66e-4ba7-a170-23efbdc67501""}","https://test12345.live/?participantId=923D08CFD0894720B1F1D5D4C8C30F80&assignmentId=6dce60d4-c8ce-4581-afa5-616069d5228c&projectId=a0a8f18c-a66e-4ba7-a170-23efbdc67501","923D08CFD0894720B1F1D5D4C8C30F80-2024-11-24-17-39-24","[{""page_index"":0,""viewing_time"":322688}]","322689","","","","",""
"","","","","","instructions","2","328781","0.0-2.0","923D08CFD0894720B1F1D5D4C8C30F80","923D08CFD0894720B1F1D5D4C8C30F80","6dce60d4-c8ce-4581-afa5-616069d5228c","a0a8f18c-a66e-4ba7-a170-23efbdc67501","{""participantId"":""923D08CFD0894720B1F1D5D4C8C30F80"",""assignmentId"":""6dce60d4-c8ce-4581-afa5-616069d5228c"",""projectId"":""a0a8f18c-a66e-4ba7-a170-23efbdc67501""}","https://test12345.live/?participantId=923D08CFD0894720B1F1D5D4C8C30F80&assignmentId=6dce60d4-c8ce-4581-afa5-616069d5228c&projectId=a0a8f18c-a66e-4ba7-a170-23efbdc67501","923D08CFD0894720B1F1D5D4C8C30F80-2024-11-24-17-39-24","[{""page_index"":0,""viewing_time"":4637}]","4638","","","","",""
"true","","","","","fullscreen","3","332076","0.0-3.0","923D08CFD0894720B1F1D5D4C8C30F80","923D08CFD0894720B1F1D5D4C8C30F80","6dce60d4-c8ce-4581-afa5-616069d5228c","a0a8f18c-a66e-4ba7-a170-23efbdc67501","{""participantId"":""923D08CFD0894720B1F1D5D4C8C30F80"",""assignmentId"":""6dce60d4-c8ce-4581-afa5-616069d5228c"",""projectId"":""a0a8f18c-a66e-4ba7-a170-23efbdc67501""}","https://test12345.live/?participantId=923D08CFD0894720B1F1D5D4C8C30F80&assignmentId=6dce60d4-c8ce-4581-afa5-616069d5228c&projectId=a0a8f18c-a66e-4ba7-a170-23efbdc67501","923D08CFD0894720B1F1D5D4C8C30F80-2024-11-24-17-39-24","","2283","","","","",""
"","","","","","initialize-microphone","4","343344","0.0-4.0-0.0","923D08CFD0894720B1F1D5D4C8C30F80","923D08CFD0894720B1F1D5D4C8C30F80","6dce60d4-c8ce-4581-afa5-616069d5228c","a0a8f18c-a66e-4ba7-a170-23efbdc67501","{""participantId"":""923D08CFD0894720B1F1D5D4C8C30F80"",""assignmentId"":""6dce60d4-c8ce-4581-afa5-616069d5228c"",""projectId"":""a0a8f18c-a66e-4ba7-a170-23efbdc67501""}","https://test12345.live/?participantId=923D08CFD0894720B1F1D5D4C8C30F80&assignmentId=6dce60d4-c8ce-4581-afa5-616069d5228c&projectId=a0a8f18c-a66e-4ba7-a170-23efbdc67501","923D08CFD0894720B1F1D5D4C8C30F80-2024-11-24-17-39-24","","","6affefe8803ae796f52280d3a6f8aace52a252b8dc0494c91405eba84f048c36","","","",""
"","","","","","html-audio-response","5","355630","0.0-4.0-1.0","923D08CFD0894720B1F1D5D4C8C30F80","923D08CFD0894720B1F1D5D4C8C30F80","6dce60d4-c8ce-4581-afa5-616069d5228c","a0a8f18c-a66e-4ba7-a170-23efbdc67501","{""participantId"":""923D08CFD0894720B1F1D5D4C8C30F80"",""assignmentId"":""6dce60d4-c8ce-4581-afa5-616069d5228c"",""projectId"":""a0a8f18c-a66e-4ba7-a170-23efbdc67501""}","https://test12345.live/?participantId=923D08CFD0894720B1F1D5D4C8C30F80&assignmentId=6dce60d4-c8ce-4581-afa5-616069d5228c&projectId=a0a8f18c-a66e-4ba7-a170-23efbdc67501","923D08CFD0894720B1F1D5D4C8C30F80-2024-11-24-17-39-24","","4812","","<span style=""color: red; font-size: 24px""> NOW RECORDING</span>
        <p>Please test Microphone</p>","","1",""
"","","","","","html-button-response","6","356793","0.0-4.0-2.0","923D08CFD0894720B1F1D5D4C8C30F80","923D08CFD0894720B1F1D5D4C8C30F80","6dce60d4-c8ce-4581-afa5-616069d5228c","a0a8f18c-a66e-4ba7-a170-23efbdc67501","{""participantId"":""923D08CFD0894720B1F1D5D4C8C30F80"",""assignmentId"":""6dce60d4-c8ce-4581-afa5-616069d5228c"",""projectId"":""a0a8f18c-a66e-4ba7-a170-23efbdc67501""}","https://test12345.live/?participantId=923D08CFD0894720B1F1D5D4C8C30F80&assignmentId=6dce60d4-c8ce-4581-afa5-616069d5228c&projectId=a0a8f18c-a66e-4ba7-a170-23efbdc67501","923D08CFD0894720B1F1D5D4C8C30F80-2024-11-24-17-39-24","","1162","","<p style=""font-size:48px; color:red;"">Is Microphone OK?</p>","1","",""
"","","","","","instructions","7","362220","0.0-5.0","923D08CFD0894720B1F1D5D4C8C30F80","923D08CFD0894720B1F1D5D4C8C30F80","6dce60d4-c8ce-4581-afa5-616069d5228c","a0a8f18c-a66e-4ba7-a170-23efbdc67501","{""participantId"":""923D08CFD0894720B1F1D5D4C8C30F80"",""assignmentId"":""6dce60d4-c8ce-4581-afa5-616069d5228c"",""projectId"":""a0a8f18c-a66e-4ba7-a170-23efbdc67501""}","https://test12345.live/?participantId=923D08CFD0894720B1F1D5D4C8C30F80&assignmentId=6dce60d4-c8ce-4581-afa5-616069d5228c&projectId=a0a8f18c-a66e-4ba7-a170-23efbdc67501","923D08CFD0894720B1F1D5D4C8C30F80-2024-11-24-17-39-24","[{""page_index"":0,""viewing_time"":3805},{""page_index"":1,""viewing_time"":1622}]","5427","","","","",""
"","","","","","image-button-response","8","368226","0.0-6.0-0.0","923D08CFD0894720B1F1D5D4C8C30F80","923D08CFD0894720B1F1D5D4C8C30F80","6dce60d4-c8ce-4581-afa5-616069d5228c","a0a8f18c-a66e-4ba7-a170-23efbdc67501","{""participantId"":""923D08CFD0894720B1F1D5D4C8C30F80"",""assignmentId"":""6dce60d4-c8ce-4581-afa5-616069d5228c"",""projectId"":""a0a8f18c-a66e-4ba7-a170-23efbdc67501""}","https://test12345.live/?participantId=923D08CFD0894720B1F1D5D4C8C30F80&assignmentId=6dce60d4-c8ce-4581-afa5-616069d5228c&projectId=a0a8f18c-a66e-4ba7-a170-23efbdc67501","923D08CFD0894720B1F1D5D4C8C30F80-2024-11-24-17-39-24","","null","","images/instructions/movie_0.png","null","",""
"","","","","","image-button-response","9","372737","0.0-6.0-1.0-0.0","923D08CFD0894720B1F1D5D4C8C30F80","923D08CFD0894720B1F1D5D4C8C30F80","6dce60d4-c8ce-4581-afa5-616069d5228c","a0a8f18c-a66e-4ba7-a170-23efbdc67501","{""participantId"":""923D08CFD0894720B1F1D5D4C8C30F80"",""assignmentId"":""6dce60d4-c8ce-4581-afa5-616069d5228c"",""projectId"":""a0a8f18c-a66e-4ba7-a170-23efbdc67501""}","https://test12345.live/?participantId=923D08CFD0894720B1F1D5D4C8C30F80&assignmentId=6dce60d4-c8ce-4581-afa5-616069d5228c&projectId=a0a8f18c-a66e-4ba7-a170-23efbdc67501","923D08CFD0894720B1F1D5D4C8C30F80-2024-11-24-17-39-24","","null","","images/instructions/movie_1.png","null","",""
"","","","","","image-button-response","10","374526","0.0-6.0-1.0-1.0","923D08CFD0894720B1F1D5D4C8C30F80","923D08CFD0894720B1F1D5D4C8C30F80","6dce60d4-c8ce-4581-afa5-616069d5228c","a0a8f18c-a66e-4ba7-a170-23efbdc67501","{""participantId"":""923D08CFD0894720B1F1D5D4C8C30F80"",""assignmentId"":""6dce60d4-c8ce-4581-afa5-616069d5228c"",""projectId"":""a0a8f18c-a66e-4ba7-a170-23efbdc67501""}","https://test12345.live/?participantId=923D08CFD0894720B1F1D5D4C8C30F80&assignmentId=6dce60d4-c8ce-4581-afa5-616069d5228c&projectId=a0a8f18c-a66e-4ba7-a170-23efbdc67501","923D08CFD0894720B1F1D5D4C8C30F80-2024-11-24-17-39-24","","1787","","images/instructions/movie_1.png","0","",""
"","","","","","image-button-response","11","376338","0.0-6.0-1.0-2.0","923D08CFD0894720B1F1D5D4C8C30F80","923D08CFD0894720B1F1D5D4C8C30F80","6dce60d4-c8ce-4581-afa5-616069d5228c","a0a8f18c-a66e-4ba7-a170-23efbdc67501","{""participantId"":""923D08CFD0894720B1F1D5D4C8C30F80"",""assignmentId"":""6dce60d4-c8ce-4581-afa5-616069d5228c"",""projectId"":""a0a8f18c-a66e-4ba7-a170-23efbdc67501""}","https://test12345.live/?participantId=923D08CFD0894720B1F1D5D4C8C30F80&assignmentId=6dce60d4-c8ce-4581-afa5-616069d5228c&projectId=a0a8f18c-a66e-4ba7-a170-23efbdc67501","923D08CFD0894720B1F1D5D4C8C30F80-2024-11-24-17-39-24","","null","","[]","null","",""
"","","","","","image-button-response","12","380842","0.0-6.0-1.0-0.1","923D08CFD0894720B1F1D5D4C8C30F80","923D08CFD0894720B1F1D5D4C8C30F80","6dce60d4-c8ce-4581-afa5-616069d5228c","a0a8f18c-a66e-4ba7-a170-23efbdc67501","{""participantId"":""923D08CFD0894720B1F1D5D4C8C30F80"",""assignmentId"":""6dce60d4-c8ce-4581-afa5-616069d5228c"",""projectId"":""a0a8f18c-a66e-4ba7-a170-23efbdc67501""}","https://test12345.live/?participantId=923D08CFD0894720B1F1D5D4C8C30F80&assignmentId=6dce60d4-c8ce-4581-afa5-616069d5228c&projectId=a0a8f18c-a66e-4ba7-a170-23efbdc67501","923D08CFD0894720B1F1D5D4C8C30F80-2024-11-24-17-39-24","","null","","images/instructions/movie_2.png","null","",""
"","","","","","image-button-response","13","381555","0.0-6.0-1.0-1.1","923D08CFD0894720B1F1D5D4C8C30F80","923D08CFD0894720B1F1D5D4C8C30F80","6dce60d4-c8ce-4581-afa5-616069d5228c","a0a8f18c-a66e-4ba7-a170-23efbdc67501","{""participantId"":""923D08CFD0894720B1F1D5D4C8C30F80"",""assignmentId"":""6dce60d4-c8ce-4581-afa5-616069d5228c"",""projectId"":""a0a8f18c-a66e-4ba7-a170-23efbdc67501""}","https://test12345.live/?participantId=923D08CFD0894720B1F1D5D4C8C30F80&assignmentId=6dce60d4-c8ce-4581-afa5-616069d5228c&projectId=a0a8f18c-a66e-4ba7-a170-23efbdc67501","923D08CFD0894720B1F1D5D4C8C30F80-2024-11-24-17-39-24","","712","","images/instructions/movie_2.png","0","",""
"","","","","","image-button-response","14","383367","0.0-6.0-1.0-2.1","923D08CFD0894720B1F1D5D4C8C30F80","923D08CFD0894720B1F1D5D4C8C30F80","6dce60d4-c8ce-4581-afa5-616069d5228c","a0a8f18c-a66e-4ba7-a170-23efbdc67501","{""participantId"":""923D08CFD0894720B1F1D5D4C8C30F80"",""assignmentId"":""6dce60d4-c8ce-4581-afa5-616069d5228c"",""projectId"":""a0a8f18c-a66e-4ba7-a170-23efbdc67501""}","https://test12345.live/?participantId=923D08CFD0894720B1F1D5D4C8C30F80&assignmentId=6dce60d4-c8ce-4581-afa5-616069d5228c&projectId=a0a8f18c-a66e-4ba7-a170-23efbdc67501","923D08CFD0894720B1F1D5D4C8C30F80-2024-11-24-17-39-24","","null","","[]","null","",""
"","","","","","image-button-response","15","387873","0.0-6.0-1.0-0.2","923D08CFD0894720B1F1D5D4C8C30F80","923D08CFD0894720B1F1D5D4C8C30F80","6dce60d4-c8ce-4581-afa5-616069d5228c","a0a8f18c-a66e-4ba7-a170-23efbdc67501","{""participantId"":""923D08CFD0894720B1F1D5D4C8C30F80"",""assignmentId"":""6dce60d4-c8ce-4581-afa5-616069d5228c"",""projectId"":""a0a8f18c-a66e-4ba7-a170-23efbdc67501""}","https://test12345.live/?participantId=923D08CFD0894720B1F1D5D4C8C30F80&assignmentId=6dce60d4-c8ce-4581-afa5-616069d5228c&projectId=a0a8f18c-a66e-4ba7-a170-23efbdc67501","923D08CFD0894720B1F1D5D4C8C30F80-2024-11-24-17-39-24","","null","","images/instructions/movie_3.png","null","",""
"","","","","","image-button-response","16","389721","0.0-6.0-1.0-1.2","923D08CFD0894720B1F1D5D4C8C30F80","923D08CFD0894720B1F1D5D4C8C30F80","6dce60d4-c8ce-4581-afa5-616069d5228c","a0a8f18c-a66e-4ba7-a170-23efbdc67501","{""participantId"":""923D08CFD0894720B1F1D5D4C8C30F80"",""assignmentId"":""6dce60d4-c8ce-4581-afa5-616069d5228c"",""projectId"":""a0a8f18c-a66e-4ba7-a170-23efbdc67501""}","https://test12345.live/?participantId=923D08CFD0894720B1F1D5D4C8C30F80&assignmentId=6dce60d4-c8ce-4581-afa5-616069d5228c&projectId=a0a8f18c-a66e-4ba7-a170-23efbdc67501","923D08CFD0894720B1F1D5D4C8C30F80-2024-11-24-17-39-24","","1847","","images/instructions/movie_3.png","0","",""
"","","","","","image-button-response","17","391522","0.0-6.0-1.0-2.2","923D08CFD0894720B1F1D5D4C8C30F80","923D08CFD0894720B1F1D5D4C8C30F80","6dce60d4-c8ce-4581-afa5-616069d5228c","a0a8f18c-a66e-4ba7-a170-23efbdc67501","{""participantId"":""923D08CFD0894720B1F1D5D4C8C30F80"",""assignmentId"":""6dce60d4-c8ce-4581-afa5-616069d5228c"",""projectId"":""a0a8f18c-a66e-4ba7-a170-23efbdc67501""}","https://test12345.live/?participantId=923D08CFD0894720B1F1D5D4C8C30F80&assignmentId=6dce60d4-c8ce-4581-afa5-616069d5228c&projectId=a0a8f18c-a66e-4ba7-a170-23efbdc67501","923D08CFD0894720B1F1D5D4C8C30F80-2024-11-24-17-39-24","","null","","[]","null","",""
"","","","","","image-button-response","18","396037","0.0-6.0-1.0-0.3","923D08CFD0894720B1F1D5D4C8C30F80","923D08CFD0894720B1F1D5D4C8C30F80","6dce60d4-c8ce-4581-afa5-616069d5228c","a0a8f18c-a66e-4ba7-a170-23efbdc67501","{""participantId"":""923D08CFD0894720B1F1D5D4C8C30F80"",""assignmentId"":""6dce60d4-c8ce-4581-afa5-616069d5228c"",""projectId"":""a0a8f18c-a66e-4ba7-a170-23efbdc67501""}","https://test12345.live/?participantId=923D08CFD0894720B1F1D5D4C8C30F80&assignmentId=6dce60d4-c8ce-4581-afa5-616069d5228c&projectId=a0a8f18c-a66e-4ba7-a170-23efbdc67501","923D08CFD0894720B1F1D5D4C8C30F80-2024-11-24-17-39-24","","null","","images/instructions/movie_4.png","null","",""
"","","","","","image-button-response","19","397178","0.0-6.0-1.0-1.3","923D08CFD0894720B1F1D5D4C8C30F80","923D08CFD0894720B1F1D5D4C8C30F80","6dce60d4-c8ce-4581-afa5-616069d5228c","a0a8f18c-a66e-4ba7-a170-23efbdc67501","{""participantId"":""923D08CFD0894720B1F1D5D4C8C30F80"",""assignmentId"":""6dce60d4-c8ce-4581-afa5-616069d5228c"",""projectId"":""a0a8f18c-a66e-4ba7-a170-23efbdc67501""}","https://test12345.live/?participantId=923D08CFD0894720B1F1D5D4C8C30F80&assignmentId=6dce60d4-c8ce-4581-afa5-616069d5228c&projectId=a0a8f18c-a66e-4ba7-a170-23efbdc67501","923D08CFD0894720B1F1D5D4C8C30F80-2024-11-24-17-39-24","","1140","","images/instructions/movie_4.png","0","",""
"","","","","","image-button-response","20","398980","0.0-6.0-1.0-2.3","923D08CFD0894720B1F1D5D4C8C30F80","923D08CFD0894720B1F1D5D4C8C30F80","6dce60d4-c8ce-4581-afa5-616069d5228c","a0a8f18c-a66e-4ba7-a170-23efbdc67501","{""participantId"":""923D08CFD0894720B1F1D5D4C8C30F80"",""assignmentId"":""6dce60d4-c8ce-4581-afa5-616069d5228c"",""projectId"":""a0a8f18c-a66e-4ba7-a170-23efbdc67501""}","https://test12345.live/?participantId=923D08CFD0894720B1F1D5D4C8C30F80&assignmentId=6dce60d4-c8ce-4581-afa5-616069d5228c&projectId=a0a8f18c-a66e-4ba7-a170-23efbdc67501","923D08CFD0894720B1F1D5D4C8C30F80-2024-11-24-17-39-24","","null","","[]","null","",""
"","","","","","instructions","21","404228","0.0-7.0","923D08CFD0894720B1F1D5D4C8C30F80","923D08CFD0894720B1F1D5D4C8C30F80","6dce60d4-c8ce-4581-afa5-616069d5228c","a0a8f18c-a66e-4ba7-a170-23efbdc67501","{""participantId"":""923D08CFD0894720B1F1D5D4C8C30F80"",""assignmentId"":""6dce60d4-c8ce-4581-afa5-616069d5228c"",""projectId"":""a0a8f18c-a66e-4ba7-a170-23efbdc67501""}","https://test12345.live/?participantId=923D08CFD0894720B1F1D5D4C8C30F80&assignmentId=6dce60d4-c8ce-4581-afa5-616069d5228c&projectId=a0a8f18c-a66e-4ba7-a170-23efbdc67501","923D08CFD0894720B1F1D5D4C8C30F80-2024-11-24-17-39-24","[{""page_index"":0,""viewing_time"":4115},{""page_index"":1,""viewing_time"":1132}]","5248","","","","",""
"","","","","","html-audio-response","22","417860","0.0-8.0","923D08CFD0894720B1F1D5D4C8C30F80","923D08CFD0894720B1F1D5D4C8C30F80","6dce60d4-c8ce-4581-afa5-616069d5228c","a0a8f18c-a66e-4ba7-a170-23efbdc67501","{""participantId"":""923D08CFD0894720B1F1D5D4C8C30F80"",""assignmentId"":""6dce60d4-c8ce-4581-afa5-616069d5228c"",""projectId"":""a0a8f18c-a66e-4ba7-a170-23efbdc67501""}","https://test12345.live/?participantId=923D08CFD0894720B1F1D5D4C8C30F80&assignmentId=6dce60d4-c8ce-4581-afa5-616069d5228c&projectId=a0a8f18c-a66e-4ba7-a170-23efbdc67501","923D08CFD0894720B1F1D5D4C8C30F80-2024-11-24-17-39-24","","12307","","[""<span style=\""color: red; font-size: 24px\""> NOW RECORDING</span><p>Please say out loud all the images you saw, as many as you can remember. The images can be said in any order.</p>""]","","1",""
"","","","","","instructions","23","419009","0.0-9.0","923D08CFD0894720B1F1D5D4C8C30F80","923D08CFD0894720B1F1D5D4C8C30F80","6dce60d4-c8ce-4581-afa5-616069d5228c","a0a8f18c-a66e-4ba7-a170-23efbdc67501","{""participantId"":""923D08CFD0894720B1F1D5D4C8C30F80"",""assignmentId"":""6dce60d4-c8ce-4581-afa5-616069d5228c"",""projectId"":""a0a8f18c-a66e-4ba7-a170-23efbdc67501""}","https://test12345.live/?participantId=923D08CFD0894720B1F1D5D4C8C30F80&assignmentId=6dce60d4-c8ce-4581-afa5-616069d5228c&projectId=a0a8f18c-a66e-4ba7-a170-23efbdc67501","923D08CFD0894720B1F1D5D4C8C30F80-2024-11-24-17-39-24","[{""page_index"":0,""viewing_time"":1146}]","1147","","","","",""
"","","","","","image-button-response","24","425013","0.0-10.0-0.0","923D08CFD0894720B1F1D5D4C8C30F80","923D08CFD0894720B1F1D5D4C8C30F80","6dce60d4-c8ce-4581-afa5-616069d5228c","a0a8f18c-a66e-4ba7-a170-23efbdc67501","{""participantId"":""923D08CFD0894720B1F1D5D4C8C30F80"",""assignmentId"":""6dce60d4-c8ce-4581-afa5-616069d5228c"",""projectId"":""a0a8f18c-a66e-4ba7-a170-23efbdc67501""}","https://test12345.live/?participantId=923D08CFD0894720B1F1D5D4C8C30F80&assignmentId=6dce60d4-c8ce-4581-afa5-616069d5228c&projectId=a0a8f18c-a66e-4ba7-a170-23efbdc67501","923D08CFD0894720B1F1D5D4C8C30F80-2024-11-24-17-39-24","","null","","images/schematic_sequence/flight_scheme/flight_scheme_0.png","null","",""
"","","","","","image-button-response","25","429522","0.0-10.0-1.0-0.0","923D08CFD0894720B1F1D5D4C8C30F80","923D08CFD0894720B1F1D5D4C8C30F80","6dce60d4-c8ce-4581-afa5-616069d5228c","a0a8f18c-a66e-4ba7-a170-23efbdc67501","{""participantId"":""923D08CFD0894720B1F1D5D4C8C30F80"",""assignmentId"":""6dce60d4-c8ce-4581-afa5-616069d5228c"",""projectId"":""a0a8f18c-a66e-4ba7-a170-23efbdc67501""}","https://test12345.live/?participantId=923D08CFD0894720B1F1D5D4C8C30F80&assignmentId=6dce60d4-c8ce-4581-afa5-616069d5228c&projectId=a0a8f18c-a66e-4ba7-a170-23efbdc67501","923D08CFD0894720B1F1D5D4C8C30F80-2024-11-24-17-39-24","","null","","images/schematic_sequence/flight_scheme/flight_scheme_ten.png","null","",""
"","","","","","image-button-response","26","430981","0.0-10.0-1.0-1.0","923D08CFD0894720B1F1D5D4C8C30F80","923D08CFD0894720B1F1D5D4C8C30F80","6dce60d4-c8ce-4581-afa5-616069d5228c","a0a8f18c-a66e-4ba7-a170-23efbdc67501","{""participantId"":""923D08CFD0894720B1F1D5D4C8C30F80"",""assignmentId"":""6dce60d4-c8ce-4581-afa5-616069d5228c"",""projectId"":""a0a8f18c-a66e-4ba7-a170-23efbdc67501""}","https://test12345.live/?participantId=923D08CFD0894720B1F1D5D4C8C30F80&assignmentId=6dce60d4-c8ce-4581-afa5-616069d5228c&projectId=a0a8f18c-a66e-4ba7-a170-23efbdc67501","923D08CFD0894720B1F1D5D4C8C30F80-2024-11-24-17-39-24","","1458","","images/schematic_sequence/flight_scheme/flight_scheme_ten.png","0","",""
"","","","","","image-button-response","27","432782","0.0-10.0-1.0-2.0","923D08CFD0894720B1F1D5D4C8C30F80","923D08CFD0894720B1F1D5D4C8C30F80","6dce60d4-c8ce-4581-afa5-616069d5228c","a0a8f18c-a66e-4ba7-a170-23efbdc67501","{""participantId"":""923D08CFD0894720B1F1D5D4C8C30F80"",""assignmentId"":""6dce60d4-c8ce-4581-afa5-616069d5228c"",""projectId"":""a0a8f18c-a66e-4ba7-a170-23efbdc67501""}","https://test12345.live/?participantId=923D08CFD0894720B1F1D5D4C8C30F80&assignmentId=6dce60d4-c8ce-4581-afa5-616069d5228c&projectId=a0a8f18c-a66e-4ba7-a170-23efbdc67501","923D08CFD0894720B1F1D5D4C8C30F80-2024-11-24-17-39-24","","null","","[]","null","",""
"","","","","","image-button-response","28","437284","0.0-10.0-1.0-0.1","923D08CFD0894720B1F1D5D4C8C30F80","923D08CFD0894720B1F1D5D4C8C30F80","6dce60d4-c8ce-4581-afa5-616069d5228c","a0a8f18c-a66e-4ba7-a170-23efbdc67501","{""participantId"":""923D08CFD0894720B1F1D5D4C8C30F80"",""assignmentId"":""6dce60d4-c8ce-4581-afa5-616069d5228c"",""projectId"":""a0a8f18c-a66e-4ba7-a170-23efbdc67501""}","https://test12345.live/?participantId=923D08CFD0894720B1F1D5D4C8C30F80&assignmentId=6dce60d4-c8ce-4581-afa5-616069d5228c&projectId=a0a8f18c-a66e-4ba7-a170-23efbdc67501","923D08CFD0894720B1F1D5D4C8C30F80-2024-11-24-17-39-24","","null","","images/schematic_sequence/flight_scheme/flight_scheme_6.png","null","",""
"","","","","","image-button-response","29","438310","0.0-10.0-1.0-1.1","923D08CFD0894720B1F1D5D4C8C30F80","923D08CFD0894720B1F1D5D4C8C30F80","6dce60d4-c8ce-4581-afa5-616069d5228c","a0a8f18c-a66e-4ba7-a170-23efbdc67501","{""participantId"":""923D08CFD0894720B1F1D5D4C8C30F80"",""assignmentId"":""6dce60d4-c8ce-4581-afa5-616069d5228c"",""projectId"":""a0a8f18c-a66e-4ba7-a170-23efbdc67501""}","https://test12345.live/?participantId=923D08CFD0894720B1F1D5D4C8C30F80&assignmentId=6dce60d4-c8ce-4581-afa5-616069d5228c&projectId=a0a8f18c-a66e-4ba7-a170-23efbdc67501","923D08CFD0894720B1F1D5D4C8C30F80-2024-11-24-17-39-24","","1024","","images/schematic_sequence/flight_scheme/flight_scheme_6.png","0","",""
"","","","","","image-button-response","30","440122","0.0-10.0-1.0-2.1","923D08CFD0894720B1F1D5D4C8C30F80","923D08CFD0894720B1F1D5D4C8C30F80","6dce60d4-c8ce-4581-afa5-616069d5228c","a0a8f18c-a66e-4ba7-a170-23efbdc67501","{""participantId"":""923D08CFD0894720B1F1D5D4C8C30F80"",""assignmentId"":""6dce60d4-c8ce-4581-afa5-616069d5228c"",""projectId"":""a0a8f18c-a66e-4ba7-a170-23efbdc67501""}","https://test12345.live/?participantId=923D08CFD0894720B1F1D5D4C8C30F80&assignmentId=6dce60d4-c8ce-4581-afa5-616069d5228c&projectId=a0a8f18c-a66e-4ba7-a170-23efbdc67501","923D08CFD0894720B1F1D5D4C8C30F80-2024-11-24-17-39-24","","null","","[]","null","",""
"","","","","","image-button-response","31","444629","0.0-10.0-1.0-0.2","923D08CFD0894720B1F1D5D4C8C30F80","923D08CFD0894720B1F1D5D4C8C30F80","6dce60d4-c8ce-4581-afa5-616069d5228c","a0a8f18c-a66e-4ba7-a170-23efbdc67501","{""participantId"":""923D08CFD0894720B1F1D5D4C8C30F80"",""assignmentId"":""6dce60d4-c8ce-4581-afa5-616069d5228c"",""projectId"":""a0a8f18c-a66e-4ba7-a170-23efbdc67501""}","https://test12345.live/?participantId=923D08CFD0894720B1F1D5D4C8C30F80&assignmentId=6dce60d4-c8ce-4581-afa5-616069d5228c&projectId=a0a8f18c-a66e-4ba7-a170-23efbdc67501","923D08CFD0894720B1F1D5D4C8C30F80-2024-11-24-17-39-24","","null","","images/schematic_sequence/flight_scheme/flight_scheme_9.png","null","",""
"","","","","","image-button-response","32","445376","0.0-10.0-1.0-1.2","923D08CFD0894720B1F1D5D4C8C30F80","923D08CFD0894720B1F1D5D4C8C30F80","6dce60d4-c8ce-4581-afa5-616069d5228c","a0a8f18c-a66e-4ba7-a170-23efbdc67501","{""participantId"":""923D08CFD0894720B1F1D5D4C8C30F80"",""assignmentId"":""6dce60d4-c8ce-4581-afa5-616069d5228c"",""projectId"":""a0a8f18c-a66e-4ba7-a170-23efbdc67501""}","https://test12345.live/?participantId=923D08CFD0894720B1F1D5D4C8C30F80&assignmentId=6dce60d4-c8ce-4581-afa5-616069d5228c&projectId=a0a8f18c-a66e-4ba7-a170-23efbdc67501","923D08CFD0894720B1F1D5D4C8C30F80-2024-11-24-17-39-24","","746","","images/schematic_sequence/flight_scheme/flight_scheme_9.png","0","",""
"","","","","","image-button-response","33","447190","0.0-10.0-1.0-2.2","923D08CFD0894720B1F1D5D4C8C30F80","923D08CFD0894720B1F1D5D4C8C30F80","6dce60d4-c8ce-4581-afa5-616069d5228c","a0a8f18c-a66e-4ba7-a170-23efbdc67501","{""participantId"":""923D08CFD0894720B1F1D5D4C8C30F80"",""assignmentId"":""6dce60d4-c8ce-4581-afa5-616069d5228c"",""projectId"":""a0a8f18c-a66e-4ba7-a170-23efbdc67501""}","https://test12345.live/?participantId=923D08CFD0894720B1F1D5D4C8C30F80&assignmentId=6dce60d4-c8ce-4581-afa5-616069d5228c&projectId=a0a8f18c-a66e-4ba7-a170-23efbdc67501","923D08CFD0894720B1F1D5D4C8C30F80-2024-11-24-17-39-24","","null","","[]","null","",""
"","","","","","image-button-response","34","451698","0.0-10.0-1.0-0.3","923D08CFD0894720B1F1D5D4C8C30F80","923D08CFD0894720B1F1D5D4C8C30F80","6dce60d4-c8ce-4581-afa5-616069d5228c","a0a8f18c-a66e-4ba7-a170-23efbdc67501","{""participantId"":""923D08CFD0894720B1F1D5D4C8C30F80"",""assignmentId"":""6dce60d4-c8ce-4581-afa5-616069d5228c"",""projectId"":""a0a8f18c-a66e-4ba7-a170-23efbdc67501""}","https://test12345.live/?participantId=923D08CFD0894720B1F1D5D4C8C30F80&assignmentId=6dce60d4-c8ce-4581-afa5-616069d5228c&projectId=a0a8f18c-a66e-4ba7-a170-23efbdc67501","923D08CFD0894720B1F1D5D4C8C30F80-2024-11-24-17-39-24","","null","","images/schematic_sequence/flight_scheme/flight_scheme_3.png","null","",""
"","","","","","image-button-response","35","452411","0.0-10.0-1.0-1.3","923D08CFD0894720B1F1D5D4C8C30F80","923D08CFD0894720B1F1D5D4C8C30F80","6dce60d4-c8ce-4581-afa5-616069d5228c","a0a8f18c-a66e-4ba7-a170-23efbdc67501","{""participantId"":""923D08CFD0894720B1F1D5D4C8C30F80"",""assignmentId"":""6dce60d4-c8ce-4581-afa5-616069d5228c"",""projectId"":""a0a8f18c-a66e-4ba7-a170-23efbdc67501""}","https://test12345.live/?participantId=923D08CFD0894720B1F1D5D4C8C30F80&assignmentId=6dce60d4-c8ce-4581-afa5-616069d5228c&projectId=a0a8f18c-a66e-4ba7-a170-23efbdc67501","923D08CFD0894720B1F1D5D4C8C30F80-2024-11-24-17-39-24","","713","","images/schematic_sequence/flight_scheme/flight_scheme_3.png","0","",""
"","","","","","image-button-response","36","454222","0.0-10.0-1.0-2.3","923D08CFD0894720B1F1D5D4C8C30F80","923D08CFD0894720B1F1D5D4C8C30F80","6dce60d4-c8ce-4581-afa5-616069d5228c","a0a8f18c-a66e-4ba7-a170-23efbdc67501","{""participantId"":""923D08CFD0894720B1F1D5D4C8C30F80"",""assignmentId"":""6dce60d4-c8ce-4581-afa5-616069d5228c"",""projectId"":""a0a8f18c-a66e-4ba7-a170-23efbdc67501""}","https://test12345.live/?participantId=923D08CFD0894720B1F1D5D4C8C30F80&assignmentId=6dce60d4-c8ce-4581-afa5-616069d5228c&projectId=a0a8f18c-a66e-4ba7-a170-23efbdc67501","923D08CFD0894720B1F1D5D4C8C30F80-2024-11-24-17-39-24","","null","","[]","null","",""
"","","","","","image-button-response","37","458736","0.0-10.0-1.0-0.4","923D08CFD0894720B1F1D5D4C8C30F80","923D08CFD0894720B1F1D5D4C8C30F80","6dce60d4-c8ce-4581-afa5-616069d5228c","a0a8f18c-a66e-4ba7-a170-23efbdc67501","{""participantId"":""923D08CFD0894720B1F1D5D4C8C30F80"",""assignmentId"":""6dce60d4-c8ce-4581-afa5-616069d5228c"",""projectId"":""a0a8f18c-a66e-4ba7-a170-23efbdc67501""}","https://test12345.live/?participantId=923D08CFD0894720B1F1D5D4C8C30F80&assignmentId=6dce60d4-c8ce-4581-afa5-616069d5228c&projectId=a0a8f18c-a66e-4ba7-a170-23efbdc67501","923D08CFD0894720B1F1D5D4C8C30F80-2024-11-24-17-39-24","","null","","images/schematic_sequence/flight_scheme/flight_scheme_4.png","null","",""
"","","","","","image-button-response","38","459308","0.0-10.0-1.0-1.4","923D08CFD0894720B1F1D5D4C8C30F80","923D08CFD0894720B1F1D5D4C8C30F80","6dce60d4-c8ce-4581-afa5-616069d5228c","a0a8f18c-a66e-4ba7-a170-23efbdc67501","{""participantId"":""923D08CFD0894720B1F1D5D4C8C30F80"",""assignmentId"":""6dce60d4-c8ce-4581-afa5-616069d5228c"",""projectId"":""a0a8f18c-a66e-4ba7-a170-23efbdc67501""}","https://test12345.live/?participantId=923D08CFD0894720B1F1D5D4C8C30F80&assignmentId=6dce60d4-c8ce-4581-afa5-616069d5228c&projectId=a0a8f18c-a66e-4ba7-a170-23efbdc67501","923D08CFD0894720B1F1D5D4C8C30F80-2024-11-24-17-39-24","","571","","images/schematic_sequence/flight_scheme/flight_scheme_4.png","0","",""
"","","","","","image-button-response","39","461119","0.0-10.0-1.0-2.4","923D08CFD0894720B1F1D5D4C8C30F80","923D08CFD0894720B1F1D5D4C8C30F80","6dce60d4-c8ce-4581-afa5-616069d5228c","a0a8f18c-a66e-4ba7-a170-23efbdc67501","{""participantId"":""923D08CFD0894720B1F1D5D4C8C30F80"",""assignmentId"":""6dce60d4-c8ce-4581-afa5-616069d5228c"",""projectId"":""a0a8f18c-a66e-4ba7-a170-23efbdc67501""}","https://test12345.live/?participantId=923D08CFD0894720B1F1D5D4C8C30F80&assignmentId=6dce60d4-c8ce-4581-afa5-616069d5228c&projectId=a0a8f18c-a66e-4ba7-a170-23efbdc67501","923D08CFD0894720B1F1D5D4C8C30F80-2024-11-24-17-39-24","","null","","[]","null","",""
"","","","","","image-button-response","40","465624","0.0-10.0-1.0-0.5","923D08CFD0894720B1F1D5D4C8C30F80","923D08CFD0894720B1F1D5D4C8C30F80","6dce60d4-c8ce-4581-afa5-616069d5228c","a0a8f18c-a66e-4ba7-a170-23efbdc67501","{""participantId"":""923D08CFD0894720B1F1D5D4C8C30F80"",""assignmentId"":""6dce60d4-c8ce-4581-afa5-616069d5228c"",""projectId"":""a0a8f18c-a66e-4ba7-a170-23efbdc67501""}","https://test12345.live/?participantId=923D08CFD0894720B1F1D5D4C8C30F80&assignmentId=6dce60d4-c8ce-4581-afa5-616069d5228c&projectId=a0a8f18c-a66e-4ba7-a170-23efbdc67501","923D08CFD0894720B1F1D5D4C8C30F80-2024-11-24-17-39-24","","null","","images/schematic_sequence/flight_scheme/flight_scheme_2.png","null","",""
"","","","","","image-button-response","41","466174","0.0-10.0-1.0-1.5","923D08CFD0894720B1F1D5D4C8C30F80","923D08CFD0894720B1F1D5D4C8C30F80","6dce60d4-c8ce-4581-afa5-616069d5228c","a0a8f18c-a66e-4ba7-a170-23efbdc67501","{""participantId"":""923D08CFD0894720B1F1D5D4C8C30F80"",""assignmentId"":""6dce60d4-c8ce-4581-afa5-616069d5228c"",""projectId"":""a0a8f18c-a66e-4ba7-a170-23efbdc67501""}","https://test12345.live/?participantId=923D08CFD0894720B1F1D5D4C8C30F80&assignmentId=6dce60d4-c8ce-4581-afa5-616069d5228c&projectId=a0a8f18c-a66e-4ba7-a170-23efbdc67501","923D08CFD0894720B1F1D5D4C8C30F80-2024-11-24-17-39-24","","549","","images/schematic_sequence/flight_scheme/flight_scheme_2.png","0","",""
"","","","","","image-button-response","42","467978","0.0-10.0-1.0-2.5","923D08CFD0894720B1F1D5D4C8C30F80","923D08CFD0894720B1F1D5D4C8C30F80","6dce60d4-c8ce-4581-afa5-616069d5228c","a0a8f18c-a66e-4ba7-a170-23efbdc67501","{""participantId"":""923D08CFD0894720B1F1D5D4C8C30F80"",""assignmentId"":""6dce60d4-c8ce-4581-afa5-616069d5228c"",""projectId"":""a0a8f18c-a66e-4ba7-a170-23efbdc67501""}","https://test12345.live/?participantId=923D08CFD0894720B1F1D5D4C8C30F80&assignmentId=6dce60d4-c8ce-4581-afa5-616069d5228c&projectId=a0a8f18c-a66e-4ba7-a170-23efbdc67501","923D08CFD0894720B1F1D5D4C8C30F80-2024-11-24-17-39-24","","null","","[]","null","",""
"","","","","","image-button-response","43","472494","0.0-10.0-1.0-0.6","923D08CFD0894720B1F1D5D4C8C30F80","923D08CFD0894720B1F1D5D4C8C30F80","6dce60d4-c8ce-4581-afa5-616069d5228c","a0a8f18c-a66e-4ba7-a170-23efbdc67501","{""participantId"":""923D08CFD0894720B1F1D5D4C8C30F80"",""assignmentId"":""6dce60d4-c8ce-4581-afa5-616069d5228c"",""projectId"":""a0a8f18c-a66e-4ba7-a170-23efbdc67501""}","https://test12345.live/?participantId=923D08CFD0894720B1F1D5D4C8C30F80&assignmentId=6dce60d4-c8ce-4581-afa5-616069d5228c&projectId=a0a8f18c-a66e-4ba7-a170-23efbdc67501","923D08CFD0894720B1F1D5D4C8C30F80-2024-11-24-17-39-24","","null","","images/schematic_sequence/flight_scheme/flight_scheme_8.png","null","",""
"","","","","","image-button-response","44","473138","0.0-10.0-1.0-1.6","923D08CFD0894720B1F1D5D4C8C30F80","923D08CFD0894720B1F1D5D4C8C30F80","6dce60d4-c8ce-4581-afa5-616069d5228c","a0a8f18c-a66e-4ba7-a170-23efbdc67501","{""participantId"":""923D08CFD0894720B1F1D5D4C8C30F80"",""assignmentId"":""6dce60d4-c8ce-4581-afa5-616069d5228c"",""projectId"":""a0a8f18c-a66e-4ba7-a170-23efbdc67501""}","https://test12345.live/?participantId=923D08CFD0894720B1F1D5D4C8C30F80&assignmentId=6dce60d4-c8ce-4581-afa5-616069d5228c&projectId=a0a8f18c-a66e-4ba7-a170-23efbdc67501","923D08CFD0894720B1F1D5D4C8C30F80-2024-11-24-17-39-24","","643","","images/schematic_sequence/flight_scheme/flight_scheme_8.png","0","",""
"","","","","","image-button-response","45","474943","0.0-10.0-1.0-2.6","923D08CFD0894720B1F1D5D4C8C30F80","923D08CFD0894720B1F1D5D4C8C30F80","6dce60d4-c8ce-4581-afa5-616069d5228c","a0a8f18c-a66e-4ba7-a170-23efbdc67501","{""participantId"":""923D08CFD0894720B1F1D5D4C8C30F80"",""assignmentId"":""6dce60d4-c8ce-4581-afa5-616069d5228c"",""projectId"":""a0a8f18c-a66e-4ba7-a170-23efbdc67501""}","https://test12345.live/?participantId=923D08CFD0894720B1F1D5D4C8C30F80&assignmentId=6dce60d4-c8ce-4581-afa5-616069d5228c&projectId=a0a8f18c-a66e-4ba7-a170-23efbdc67501","923D08CFD0894720B1F1D5D4C8C30F80-2024-11-24-17-39-24","","null","","[]","null","",""
"","","","","","image-button-response","46","479458","0.0-10.0-1.0-0.7","923D08CFD0894720B1F1D5D4C8C30F80","923D08CFD0894720B1F1D5D4C8C30F80","6dce60d4-c8ce-4581-afa5-616069d5228c","a0a8f18c-a66e-4ba7-a170-23efbdc67501","{""participantId"":""923D08CFD0894720B1F1D5D4C8C30F80"",""assignmentId"":""6dce60d4-c8ce-4581-afa5-616069d5228c"",""projectId"":""a0a8f18c-a66e-4ba7-a170-23efbdc67501""}","https://test12345.live/?participantId=923D08CFD0894720B1F1D5D4C8C30F80&assignmentId=6dce60d4-c8ce-4581-afa5-616069d5228c&projectId=a0a8f18c-a66e-4ba7-a170-23efbdc67501","923D08CFD0894720B1F1D5D4C8C30F80-2024-11-24-17-39-24","","null","","images/schematic_sequence/flight_scheme/flight_scheme_1.png","null","",""
"","","","","","image-button-response","47","480096","0.0-10.0-1.0-1.7","923D08CFD0894720B1F1D5D4C8C30F80","923D08CFD0894720B1F1D5D4C8C30F80","6dce60d4-c8ce-4581-afa5-616069d5228c","a0a8f18c-a66e-4ba7-a170-23efbdc67501","{""participantId"":""923D08CFD0894720B1F1D5D4C8C30F80"",""assignmentId"":""6dce60d4-c8ce-4581-afa5-616069d5228c"",""projectId"":""a0a8f18c-a66e-4ba7-a170-23efbdc67501""}","https://test12345.live/?participantId=923D08CFD0894720B1F1D5D4C8C30F80&assignmentId=6dce60d4-c8ce-4581-afa5-616069d5228c&projectId=a0a8f18c-a66e-4ba7-a170-23efbdc67501","923D08CFD0894720B1F1D5D4C8C30F80-2024-11-24-17-39-24","","636","","images/schematic_sequence/flight_scheme/flight_scheme_1.png","0","",""
"","","","","","image-button-response","48","481909","0.0-10.0-1.0-2.7","923D08CFD0894720B1F1D5D4C8C30F80","923D08CFD0894720B1F1D5D4C8C30F80","6dce60d4-c8ce-4581-afa5-616069d5228c","a0a8f18c-a66e-4ba7-a170-23efbdc67501","{""participantId"":""923D08CFD0894720B1F1D5D4C8C30F80"",""assignmentId"":""6dce60d4-c8ce-4581-afa5-616069d5228c"",""projectId"":""a0a8f18c-a66e-4ba7-a170-23efbdc67501""}","https://test12345.live/?participantId=923D08CFD0894720B1F1D5D4C8C30F80&assignmentId=6dce60d4-c8ce-4581-afa5-616069d5228c&projectId=a0a8f18c-a66e-4ba7-a170-23efbdc67501","923D08CFD0894720B1F1D5D4C8C30F80-2024-11-24-17-39-24","","null","","[]","null","",""
"","","","","","image-button-response","49","486410","0.0-10.0-1.0-0.8","923D08CFD0894720B1F1D5D4C8C30F80","923D08CFD0894720B1F1D5D4C8C30F80","6dce60d4-c8ce-4581-afa5-616069d5228c","a0a8f18c-a66e-4ba7-a170-23efbdc67501","{""participantId"":""923D08CFD0894720B1F1D5D4C8C30F80"",""assignmentId"":""6dce60d4-c8ce-4581-afa5-616069d5228c"",""projectId"":""a0a8f18c-a66e-4ba7-a170-23efbdc67501""}","https://test12345.live/?participantId=923D08CFD0894720B1F1D5D4C8C30F80&assignmentId=6dce60d4-c8ce-4581-afa5-616069d5228c&projectId=a0a8f18c-a66e-4ba7-a170-23efbdc67501","923D08CFD0894720B1F1D5D4C8C30F80-2024-11-24-17-39-24","","null","","images/schematic_sequence/flight_scheme/flight_scheme_5.png","null","",""
"","","","","","image-button-response","50","487132","0.0-10.0-1.0-1.8","923D08CFD0894720B1F1D5D4C8C30F80","923D08CFD0894720B1F1D5D4C8C30F80","6dce60d4-c8ce-4581-afa5-616069d5228c","a0a8f18c-a66e-4ba7-a170-23efbdc67501","{""participantId"":""923D08CFD0894720B1F1D5D4C8C30F80"",""assignmentId"":""6dce60d4-c8ce-4581-afa5-616069d5228c"",""projectId"":""a0a8f18c-a66e-4ba7-a170-23efbdc67501""}","https://test12345.live/?participantId=923D08CFD0894720B1F1D5D4C8C30F80&assignmentId=6dce60d4-c8ce-4581-afa5-616069d5228c&projectId=a0a8f18c-a66e-4ba7-a170-23efbdc67501","923D08CFD0894720B1F1D5D4C8C30F80-2024-11-24-17-39-24","","722","","images/schematic_sequence/flight_scheme/flight_scheme_5.png","0","",""
"","","","","","image-button-response","51","488938","0.0-10.0-1.0-2.8","923D08CFD0894720B1F1D5D4C8C30F80","923D08CFD0894720B1F1D5D4C8C30F80","6dce60d4-c8ce-4581-afa5-616069d5228c","a0a8f18c-a66e-4ba7-a170-23efbdc67501","{""participantId"":""923D08CFD0894720B1F1D5D4C8C30F80"",""assignmentId"":""6dce60d4-c8ce-4581-afa5-616069d5228c"",""projectId"":""a0a8f18c-a66e-4ba7-a170-23efbdc67501""}","https://test12345.live/?participantId=923D08CFD0894720B1F1D5D4C8C30F80&assignmentId=6dce60d4-c8ce-4581-afa5-616069d5228c&projectId=a0a8f18c-a66e-4ba7-a170-23efbdc67501","923D08CFD0894720B1F1D5D4C8C30F80-2024-11-24-17-39-24","","null","","[]","null","",""
"","","","","","image-button-response","52","493450","0.0-10.0-1.0-0.9","923D08CFD0894720B1F1D5D4C8C30F80","923D08CFD0894720B1F1D5D4C8C30F80","6dce60d4-c8ce-4581-afa5-616069d5228c","a0a8f18c-a66e-4ba7-a170-23efbdc67501","{""participantId"":""923D08CFD0894720B1F1D5D4C8C30F80"",""assignmentId"":""6dce60d4-c8ce-4581-afa5-616069d5228c"",""projectId"":""a0a8f18c-a66e-4ba7-a170-23efbdc67501""}","https://test12345.live/?participantId=923D08CFD0894720B1F1D5D4C8C30F80&assignmentId=6dce60d4-c8ce-4581-afa5-616069d5228c&projectId=a0a8f18c-a66e-4ba7-a170-23efbdc67501","923D08CFD0894720B1F1D5D4C8C30F80-2024-11-24-17-39-24","","null","","images/schematic_sequence/flight_scheme/flight_scheme_7.png","null","",""
"","","","","","image-button-response","53","494167","0.0-10.0-1.0-1.9","923D08CFD0894720B1F1D5D4C8C30F80","923D08CFD0894720B1F1D5D4C8C30F80","6dce60d4-c8ce-4581-afa5-616069d5228c","a0a8f18c-a66e-4ba7-a170-23efbdc67501","{""participantId"":""923D08CFD0894720B1F1D5D4C8C30F80"",""assignmentId"":""6dce60d4-c8ce-4581-afa5-616069d5228c"",""projectId"":""a0a8f18c-a66e-4ba7-a170-23efbdc67501""}","https://test12345.live/?participantId=923D08CFD0894720B1F1D5D4C8C30F80&assignmentId=6dce60d4-c8ce-4581-afa5-616069d5228c&projectId=a0a8f18c-a66e-4ba7-a170-23efbdc67501","923D08CFD0894720B1F1D5D4C8C30F80-2024-11-24-17-39-24","","716","","images/schematic_sequence/flight_scheme/flight_scheme_7.png","1","",""
"","","","","","image-button-response","54","495983","0.0-10.0-1.0-2.9","923D08CFD0894720B1F1D5D4C8C30F80","923D08CFD0894720B1F1D5D4C8C30F80","6dce60d4-c8ce-4581-afa5-616069d5228c","a0a8f18c-a66e-4ba7-a170-23efbdc67501","{""participantId"":""923D08CFD0894720B1F1D5D4C8C30F80"",""assignmentId"":""6dce60d4-c8ce-4581-afa5-616069d5228c"",""projectId"":""a0a8f18c-a66e-4ba7-a170-23efbdc67501""}","https://test12345.live/?participantId=923D08CFD0894720B1F1D5D4C8C30F80&assignmentId=6dce60d4-c8ce-4581-afa5-616069d5228c&projectId=a0a8f18c-a66e-4ba7-a170-23efbdc67501","923D08CFD0894720B1F1D5D4C8C30F80-2024-11-24-17-39-24","","null","","[]","null","",""
"","","","","","html-audio-response","55","519787","0.0-11.0","923D08CFD0894720B1F1D5D4C8C30F80","923D08CFD0894720B1F1D5D4C8C30F80","6dce60d4-c8ce-4581-afa5-616069d5228c","a0a8f18c-a66e-4ba7-a170-23efbdc67501","{""participantId"":""923D08CFD0894720B1F1D5D4C8C30F80"",""assignmentId"":""6dce60d4-c8ce-4581-afa5-616069d5228c"",""projectId"":""a0a8f18c-a66e-4ba7-a170-23efbdc67501""}","https://test12345.live/?participantId=923D08CFD0894720B1F1D5D4C8C30F80&assignmentId=6dce60d4-c8ce-4581-afa5-616069d5228c&projectId=a0a8f18c-a66e-4ba7-a170-23efbdc67501","923D08CFD0894720B1F1D5D4C8C30F80-2024-11-24-17-39-24","","16326","","[""<span style=\""color: red; font-size: 24px\""> NOW RECORDING</span><p>Please say out loud all the images you saw, as many as you can remember. The images can be said in any order.</p>""]","","1","flight_scheme"
"","","","","","image-button-response","56","525794","0.0-12.0-0.0","923D08CFD0894720B1F1D5D4C8C30F80","923D08CFD0894720B1F1D5D4C8C30F80","6dce60d4-c8ce-4581-afa5-616069d5228c","a0a8f18c-a66e-4ba7-a170-23efbdc67501","{""participantId"":""923D08CFD0894720B1F1D5D4C8C30F80"",""assignmentId"":""6dce60d4-c8ce-4581-afa5-616069d5228c"",""projectId"":""a0a8f18c-a66e-4ba7-a170-23efbdc67501""}","https://test12345.live/?participantId=923D08CFD0894720B1F1D5D4C8C30F80&assignmentId=6dce60d4-c8ce-4581-afa5-616069d5228c&projectId=a0a8f18c-a66e-4ba7-a170-23efbdc67501","923D08CFD0894720B1F1D5D4C8C30F80-2024-11-24-17-39-24","","null","","images/causal_sequence/saving_a_cat_causal/saving_a_cat_causal_0.png","null","",""
"","","","","","image-button-response","57","530297","0.0-12.0-1.0-0.0","923D08CFD0894720B1F1D5D4C8C30F80","923D08CFD0894720B1F1D5D4C8C30F80","6dce60d4-c8ce-4581-afa5-616069d5228c","a0a8f18c-a66e-4ba7-a170-23efbdc67501","{""participantId"":""923D08CFD0894720B1F1D5D4C8C30F80"",""assignmentId"":""6dce60d4-c8ce-4581-afa5-616069d5228c"",""projectId"":""a0a8f18c-a66e-4ba7-a170-23efbdc67501""}","https://test12345.live/?participantId=923D08CFD0894720B1F1D5D4C8C30F80&assignmentId=6dce60d4-c8ce-4581-afa5-616069d5228c&projectId=a0a8f18c-a66e-4ba7-a170-23efbdc67501","923D08CFD0894720B1F1D5D4C8C30F80-2024-11-24-17-39-24","","null","","images/causal_sequence/saving_a_cat_causal/saving_a_cat_causal_1.png","null","",""
"","","","","","image-button-response","58","534313","0.0-12.0-1.0-1.0","923D08CFD0894720B1F1D5D4C8C30F80","923D08CFD0894720B1F1D5D4C8C30F80","6dce60d4-c8ce-4581-afa5-616069d5228c","a0a8f18c-a66e-4ba7-a170-23efbdc67501","{""participantId"":""923D08CFD0894720B1F1D5D4C8C30F80"",""assignmentId"":""6dce60d4-c8ce-4581-afa5-616069d5228c"",""projectId"":""a0a8f18c-a66e-4ba7-a170-23efbdc67501""}","https://test12345.live/?participantId=923D08CFD0894720B1F1D5D4C8C30F80&assignmentId=6dce60d4-c8ce-4581-afa5-616069d5228c&projectId=a0a8f18c-a66e-4ba7-a170-23efbdc67501","923D08CFD0894720B1F1D5D4C8C30F80-2024-11-24-17-39-24","","null","","images/causal_sequence/saving_a_cat_causal/saving_a_cat_causal_1.png","null","",""
"","","","","","image-button-response","59","536122","0.0-12.0-1.0-2.0","923D08CFD0894720B1F1D5D4C8C30F80","923D08CFD0894720B1F1D5D4C8C30F80","6dce60d4-c8ce-4581-afa5-616069d5228c","a0a8f18c-a66e-4ba7-a170-23efbdc67501","{""participantId"":""923D08CFD0894720B1F1D5D4C8C30F80"",""assignmentId"":""6dce60d4-c8ce-4581-afa5-616069d5228c"",""projectId"":""a0a8f18c-a66e-4ba7-a170-23efbdc67501""}","https://test12345.live/?participantId=923D08CFD0894720B1F1D5D4C8C30F80&assignmentId=6dce60d4-c8ce-4581-afa5-616069d5228c&projectId=a0a8f18c-a66e-4ba7-a170-23efbdc67501","923D08CFD0894720B1F1D5D4C8C30F80-2024-11-24-17-39-24","","null","","[]","null","",""
"","","","","","image-button-response","60","540637","0.0-12.0-1.0-0.1","923D08CFD0894720B1F1D5D4C8C30F80","923D08CFD0894720B1F1D5D4C8C30F80","6dce60d4-c8ce-4581-afa5-616069d5228c","a0a8f18c-a66e-4ba7-a170-23efbdc67501","{""participantId"":""923D08CFD0894720B1F1D5D4C8C30F80"",""assignmentId"":""6dce60d4-c8ce-4581-afa5-616069d5228c"",""projectId"":""a0a8f18c-a66e-4ba7-a170-23efbdc67501""}","https://test12345.live/?participantId=923D08CFD0894720B1F1D5D4C8C30F80&assignmentId=6dce60d4-c8ce-4581-afa5-616069d5228c&projectId=a0a8f18c-a66e-4ba7-a170-23efbdc67501","923D08CFD0894720B1F1D5D4C8C30F80-2024-11-24-17-39-24","","null","","images/causal_sequence/saving_a_cat_causal/saving_a_cat_causal_2.png","null","",""
"","","","","","image-button-response","61","541889","0.0-12.0-1.0-1.1","923D08CFD0894720B1F1D5D4C8C30F80","923D08CFD0894720B1F1D5D4C8C30F80","6dce60d4-c8ce-4581-afa5-616069d5228c","a0a8f18c-a66e-4ba7-a170-23efbdc67501","{""participantId"":""923D08CFD0894720B1F1D5D4C8C30F80"",""assignmentId"":""6dce60d4-c8ce-4581-afa5-616069d5228c"",""projectId"":""a0a8f18c-a66e-4ba7-a170-23efbdc67501""}","https://test12345.live/?participantId=923D08CFD0894720B1F1D5D4C8C30F80&assignmentId=6dce60d4-c8ce-4581-afa5-616069d5228c&projectId=a0a8f18c-a66e-4ba7-a170-23efbdc67501","923D08CFD0894720B1F1D5D4C8C30F80-2024-11-24-17-39-24","","1251","","images/causal_sequence/saving_a_cat_causal/saving_a_cat_causal_2.png","1","",""
"","","","","","image-button-response","62","543691","0.0-12.0-1.0-2.1","923D08CFD0894720B1F1D5D4C8C30F80","923D08CFD0894720B1F1D5D4C8C30F80","6dce60d4-c8ce-4581-afa5-616069d5228c","a0a8f18c-a66e-4ba7-a170-23efbdc67501","{""participantId"":""923D08CFD0894720B1F1D5D4C8C30F80"",""assignmentId"":""6dce60d4-c8ce-4581-afa5-616069d5228c"",""projectId"":""a0a8f18c-a66e-4ba7-a170-23efbdc67501""}","https://test12345.live/?participantId=923D08CFD0894720B1F1D5D4C8C30F80&assignmentId=6dce60d4-c8ce-4581-afa5-616069d5228c&projectId=a0a8f18c-a66e-4ba7-a170-23efbdc67501","923D08CFD0894720B1F1D5D4C8C30F80-2024-11-24-17-39-24","","null","","[]","null","",""
"","","","","","image-button-response","63","548201","0.0-12.0-1.0-0.2","923D08CFD0894720B1F1D5D4C8C30F80","923D08CFD0894720B1F1D5D4C8C30F80","6dce60d4-c8ce-4581-afa5-616069d5228c","a0a8f18c-a66e-4ba7-a170-23efbdc67501","{""participantId"":""923D08CFD0894720B1F1D5D4C8C30F80"",""assignmentId"":""6dce60d4-c8ce-4581-afa5-616069d5228c"",""projectId"":""a0a8f18c-a66e-4ba7-a170-23efbdc67501""}","https://test12345.live/?participantId=923D08CFD0894720B1F1D5D4C8C30F80&assignmentId=6dce60d4-c8ce-4581-afa5-616069d5228c&projectId=a0a8f18c-a66e-4ba7-a170-23efbdc67501","923D08CFD0894720B1F1D5D4C8C30F80-2024-11-24-17-39-24","","null","","images/causal_sequence/saving_a_cat_causal/saving_a_cat_causal_3.png","null","",""
"","","","","","image-button-response","64","549539","0.0-12.0-1.0-1.2","923D08CFD0894720B1F1D5D4C8C30F80","923D08CFD0894720B1F1D5D4C8C30F80","6dce60d4-c8ce-4581-afa5-616069d5228c","a0a8f18c-a66e-4ba7-a170-23efbdc67501","{""participantId"":""923D08CFD0894720B1F1D5D4C8C30F80"",""assignmentId"":""6dce60d4-c8ce-4581-afa5-616069d5228c"",""projectId"":""a0a8f18c-a66e-4ba7-a170-23efbdc67501""}","https://test12345.live/?participantId=923D08CFD0894720B1F1D5D4C8C30F80&assignmentId=6dce60d4-c8ce-4581-afa5-616069d5228c&projectId=a0a8f18c-a66e-4ba7-a170-23efbdc67501","923D08CFD0894720B1F1D5D4C8C30F80-2024-11-24-17-39-24","","1337","","images/causal_sequence/saving_a_cat_causal/saving_a_cat_causal_3.png","1","",""
"","","","","","image-button-response","65","551349","0.0-12.0-1.0-2.2","923D08CFD0894720B1F1D5D4C8C30F80","923D08CFD0894720B1F1D5D4C8C30F80","6dce60d4-c8ce-4581-afa5-616069d5228c","a0a8f18c-a66e-4ba7-a170-23efbdc67501","{""participantId"":""923D08CFD0894720B1F1D5D4C8C30F80"",""assignmentId"":""6dce60d4-c8ce-4581-afa5-616069d5228c"",""projectId"":""a0a8f18c-a66e-4ba7-a170-23efbdc67501""}","https://test12345.live/?participantId=923D08CFD0894720B1F1D5D4C8C30F80&assignmentId=6dce60d4-c8ce-4581-afa5-616069d5228c&projectId=a0a8f18c-a66e-4ba7-a170-23efbdc67501","923D08CFD0894720B1F1D5D4C8C30F80-2024-11-24-17-39-24","","null","","[]","null","",""
"","","","","","image-button-response","66","555864","0.0-12.0-1.0-0.3","923D08CFD0894720B1F1D5D4C8C30F80","923D08CFD0894720B1F1D5D4C8C30F80","6dce60d4-c8ce-4581-afa5-616069d5228c","a0a8f18c-a66e-4ba7-a170-23efbdc67501","{""participantId"":""923D08CFD0894720B1F1D5D4C8C30F80"",""assignmentId"":""6dce60d4-c8ce-4581-afa5-616069d5228c"",""projectId"":""a0a8f18c-a66e-4ba7-a170-23efbdc67501""}","https://test12345.live/?participantId=923D08CFD0894720B1F1D5D4C8C30F80&assignmentId=6dce60d4-c8ce-4581-afa5-616069d5228c&projectId=a0a8f18c-a66e-4ba7-a170-23efbdc67501","923D08CFD0894720B1F1D5D4C8C30F80-2024-11-24-17-39-24","","null","","images/causal_sequence/saving_a_cat_causal/saving_a_cat_causal_4.png","null","",""
"","","","","","image-button-response","67","557659","0.0-12.0-1.0-1.3","923D08CFD0894720B1F1D5D4C8C30F80","923D08CFD0894720B1F1D5D4C8C30F80","6dce60d4-c8ce-4581-afa5-616069d5228c","a0a8f18c-a66e-4ba7-a170-23efbdc67501","{""participantId"":""923D08CFD0894720B1F1D5D4C8C30F80"",""assignmentId"":""6dce60d4-c8ce-4581-afa5-616069d5228c"",""projectId"":""a0a8f18c-a66e-4ba7-a170-23efbdc67501""}","https://test12345.live/?participantId=923D08CFD0894720B1F1D5D4C8C30F80&assignmentId=6dce60d4-c8ce-4581-afa5-616069d5228c&projectId=a0a8f18c-a66e-4ba7-a170-23efbdc67501","923D08CFD0894720B1F1D5D4C8C30F80-2024-11-24-17-39-24","","1794","","images/causal_sequence/saving_a_cat_causal/saving_a_cat_causal_4.png","0","",""
"","","","","","image-button-response","68","559460","0.0-12.0-1.0-2.3","923D08CFD0894720B1F1D5D4C8C30F80","923D08CFD0894720B1F1D5D4C8C30F80","6dce60d4-c8ce-4581-afa5-616069d5228c","a0a8f18c-a66e-4ba7-a170-23efbdc67501","{""participantId"":""923D08CFD0894720B1F1D5D4C8C30F80"",""assignmentId"":""6dce60d4-c8ce-4581-afa5-616069d5228c"",""projectId"":""a0a8f18c-a66e-4ba7-a170-23efbdc67501""}","https://test12345.live/?participantId=923D08CFD0894720B1F1D5D4C8C30F80&assignmentId=6dce60d4-c8ce-4581-afa5-616069d5228c&projectId=a0a8f18c-a66e-4ba7-a170-23efbdc67501","923D08CFD0894720B1F1D5D4C8C30F80-2024-11-24-17-39-24","","null","","[]","null","",""
"","","","","","image-button-response","69","563961","0.0-12.0-1.0-0.4","923D08CFD0894720B1F1D5D4C8C30F80","923D08CFD0894720B1F1D5D4C8C30F80","6dce60d4-c8ce-4581-afa5-616069d5228c","a0a8f18c-a66e-4ba7-a170-23efbdc67501","{""participantId"":""923D08CFD0894720B1F1D5D4C8C30F80"",""assignmentId"":""6dce60d4-c8ce-4581-afa5-616069d5228c"",""projectId"":""a0a8f18c-a66e-4ba7-a170-23efbdc67501""}","https://test12345.live/?participantId=923D08CFD0894720B1F1D5D4C8C30F80&assignmentId=6dce60d4-c8ce-4581-afa5-616069d5228c&projectId=a0a8f18c-a66e-4ba7-a170-23efbdc67501","923D08CFD0894720B1F1D5D4C8C30F80-2024-11-24-17-39-24","","null","","images/causal_sequence/saving_a_cat_causal/saving_a_cat_causal_5.png","null","",""
"","","","","","image-button-response","70","564585","0.0-12.0-1.0-1.4","923D08CFD0894720B1F1D5D4C8C30F80","923D08CFD0894720B1F1D5D4C8C30F80","6dce60d4-c8ce-4581-afa5-616069d5228c","a0a8f18c-a66e-4ba7-a170-23efbdc67501","{""participantId"":""923D08CFD0894720B1F1D5D4C8C30F80"",""assignmentId"":""6dce60d4-c8ce-4581-afa5-616069d5228c"",""projectId"":""a0a8f18c-a66e-4ba7-a170-23efbdc67501""}","https://test12345.live/?participantId=923D08CFD0894720B1F1D5D4C8C30F80&assignmentId=6dce60d4-c8ce-4581-afa5-616069d5228c&projectId=a0a8f18c-a66e-4ba7-a170-23efbdc67501","923D08CFD0894720B1F1D5D4C8C30F80-2024-11-24-17-39-24","","624","","images/causal_sequence/saving_a_cat_causal/saving_a_cat_causal_5.png","0","",""
"","","","","","image-button-response","71","566391","0.0-12.0-1.0-2.4","923D08CFD0894720B1F1D5D4C8C30F80","923D08CFD0894720B1F1D5D4C8C30F80","6dce60d4-c8ce-4581-afa5-616069d5228c","a0a8f18c-a66e-4ba7-a170-23efbdc67501","{""participantId"":""923D08CFD0894720B1F1D5D4C8C30F80"",""assignmentId"":""6dce60d4-c8ce-4581-afa5-616069d5228c"",""projectId"":""a0a8f18c-a66e-4ba7-a170-23efbdc67501""}","https://test12345.live/?participantId=923D08CFD0894720B1F1D5D4C8C30F80&assignmentId=6dce60d4-c8ce-4581-afa5-616069d5228c&projectId=a0a8f18c-a66e-4ba7-a170-23efbdc67501","923D08CFD0894720B1F1D5D4C8C30F80-2024-11-24-17-39-24","","null","","[]","null","",""
"","","","","","image-button-response","72","570892","0.0-12.0-1.0-0.5","923D08CFD0894720B1F1D5D4C8C30F80","923D08CFD0894720B1F1D5D4C8C30F80","6dce60d4-c8ce-4581-afa5-616069d5228c","a0a8f18c-a66e-4ba7-a170-23efbdc67501","{""participantId"":""923D08CFD0894720B1F1D5D4C8C30F80"",""assignmentId"":""6dce60d4-c8ce-4581-afa5-616069d5228c"",""projectId"":""a0a8f18c-a66e-4ba7-a170-23efbdc67501""}","https://test12345.live/?participantId=923D08CFD0894720B1F1D5D4C8C30F80&assignmentId=6dce60d4-c8ce-4581-afa5-616069d5228c&projectId=a0a8f18c-a66e-4ba7-a170-23efbdc67501","923D08CFD0894720B1F1D5D4C8C30F80-2024-11-24-17-39-24","","null","","images/causal_sequence/saving_a_cat_causal/saving_a_cat_causal_6.png","null","",""
"","","","","","image-button-response","73","571519","0.0-12.0-1.0-1.5","923D08CFD0894720B1F1D5D4C8C30F80","923D08CFD0894720B1F1D5D4C8C30F80","6dce60d4-c8ce-4581-afa5-616069d5228c","a0a8f18c-a66e-4ba7-a170-23efbdc67501","{""participantId"":""923D08CFD0894720B1F1D5D4C8C30F80"",""assignmentId"":""6dce60d4-c8ce-4581-afa5-616069d5228c"",""projectId"":""a0a8f18c-a66e-4ba7-a170-23efbdc67501""}","https://test12345.live/?participantId=923D08CFD0894720B1F1D5D4C8C30F80&assignmentId=6dce60d4-c8ce-4581-afa5-616069d5228c&projectId=a0a8f18c-a66e-4ba7-a170-23efbdc67501","923D08CFD0894720B1F1D5D4C8C30F80-2024-11-24-17-39-24","","626","","images/causal_sequence/saving_a_cat_causal/saving_a_cat_causal_6.png","0","",""
"","","","","","image-button-response","74","573332","0.0-12.0-1.0-2.5","923D08CFD0894720B1F1D5D4C8C30F80","923D08CFD0894720B1F1D5D4C8C30F80","6dce60d4-c8ce-4581-afa5-616069d5228c","a0a8f18c-a66e-4ba7-a170-23efbdc67501","{""participantId"":""923D08CFD0894720B1F1D5D4C8C30F80"",""assignmentId"":""6dce60d4-c8ce-4581-afa5-616069d5228c"",""projectId"":""a0a8f18c-a66e-4ba7-a170-23efbdc67501""}","https://test12345.live/?participantId=923D08CFD0894720B1F1D5D4C8C30F80&assignmentId=6dce60d4-c8ce-4581-afa5-616069d5228c&projectId=a0a8f18c-a66e-4ba7-a170-23efbdc67501","923D08CFD0894720B1F1D5D4C8C30F80-2024-11-24-17-39-24","","null","","[]","null","",""
"","","","","","image-button-response","75","577835","0.0-12.0-1.0-0.6","923D08CFD0894720B1F1D5D4C8C30F80","923D08CFD0894720B1F1D5D4C8C30F80","6dce60d4-c8ce-4581-afa5-616069d5228c","a0a8f18c-a66e-4ba7-a170-23efbdc67501","{""participantId"":""923D08CFD0894720B1F1D5D4C8C30F80"",""assignmentId"":""6dce60d4-c8ce-4581-afa5-616069d5228c"",""projectId"":""a0a8f18c-a66e-4ba7-a170-23efbdc67501""}","https://test12345.live/?participantId=923D08CFD0894720B1F1D5D4C8C30F80&assignmentId=6dce60d4-c8ce-4581-afa5-616069d5228c&projectId=a0a8f18c-a66e-4ba7-a170-23efbdc67501","923D08CFD0894720B1F1D5D4C8C30F80-2024-11-24-17-39-24","","null","","images/causal_sequence/saving_a_cat_causal/saving_a_cat_causal_7.png","null","",""
"","","","","","image-button-response","76","578349","0.0-12.0-1.0-1.6","923D08CFD0894720B1F1D5D4C8C30F80","923D08CFD0894720B1F1D5D4C8C30F80","6dce60d4-c8ce-4581-afa5-616069d5228c","a0a8f18c-a66e-4ba7-a170-23efbdc67501","{""participantId"":""923D08CFD0894720B1F1D5D4C8C30F80"",""assignmentId"":""6dce60d4-c8ce-4581-afa5-616069d5228c"",""projectId"":""a0a8f18c-a66e-4ba7-a170-23efbdc67501""}","https://test12345.live/?participantId=923D08CFD0894720B1F1D5D4C8C30F80&assignmentId=6dce60d4-c8ce-4581-afa5-616069d5228c&projectId=a0a8f18c-a66e-4ba7-a170-23efbdc67501","923D08CFD0894720B1F1D5D4C8C30F80-2024-11-24-17-39-24","","513","","images/causal_sequence/saving_a_cat_causal/saving_a_cat_causal_7.png","0","",""
"","","","","","image-button-response","77","580161","0.0-12.0-1.0-2.6","923D08CFD0894720B1F1D5D4C8C30F80","923D08CFD0894720B1F1D5D4C8C30F80","6dce60d4-c8ce-4581-afa5-616069d5228c","a0a8f18c-a66e-4ba7-a170-23efbdc67501","{""participantId"":""923D08CFD0894720B1F1D5D4C8C30F80"",""assignmentId"":""6dce60d4-c8ce-4581-afa5-616069d5228c"",""projectId"":""a0a8f18c-a66e-4ba7-a170-23efbdc67501""}","https://test12345.live/?participantId=923D08CFD0894720B1F1D5D4C8C30F80&assignmentId=6dce60d4-c8ce-4581-afa5-616069d5228c&projectId=a0a8f18c-a66e-4ba7-a170-23efbdc67501","923D08CFD0894720B1F1D5D4C8C30F80-2024-11-24-17-39-24","","null","","[]","null","",""
"","","","","","image-button-response","78","584671","0.0-12.0-1.0-0.7","923D08CFD0894720B1F1D5D4C8C30F80","923D08CFD0894720B1F1D5D4C8C30F80","6dce60d4-c8ce-4581-afa5-616069d5228c","a0a8f18c-a66e-4ba7-a170-23efbdc67501","{""participantId"":""923D08CFD0894720B1F1D5D4C8C30F80"",""assignmentId"":""6dce60d4-c8ce-4581-afa5-616069d5228c"",""projectId"":""a0a8f18c-a66e-4ba7-a170-23efbdc67501""}","https://test12345.live/?participantId=923D08CFD0894720B1F1D5D4C8C30F80&assignmentId=6dce60d4-c8ce-4581-afa5-616069d5228c&projectId=a0a8f18c-a66e-4ba7-a170-23efbdc67501","923D08CFD0894720B1F1D5D4C8C30F80-2024-11-24-17-39-24","","null","","images/causal_sequence/saving_a_cat_causal/saving_a_cat_causal_8.png","null","",""
"","","","","","image-button-response","79","585305","0.0-12.0-1.0-1.7","923D08CFD0894720B1F1D5D4C8C30F80","923D08CFD0894720B1F1D5D4C8C30F80","6dce60d4-c8ce-4581-afa5-616069d5228c","a0a8f18c-a66e-4ba7-a170-23efbdc67501","{""participantId"":""923D08CFD0894720B1F1D5D4C8C30F80"",""assignmentId"":""6dce60d4-c8ce-4581-afa5-616069d5228c"",""projectId"":""a0a8f18c-a66e-4ba7-a170-23efbdc67501""}","https://test12345.live/?participantId=923D08CFD0894720B1F1D5D4C8C30F80&assignmentId=6dce60d4-c8ce-4581-afa5-616069d5228c&projectId=a0a8f18c-a66e-4ba7-a170-23efbdc67501","923D08CFD0894720B1F1D5D4C8C30F80-2024-11-24-17-39-24","","633","","images/causal_sequence/saving_a_cat_causal/saving_a_cat_causal_8.png","0","",""
"","","","","","image-button-response","80","587108","0.0-12.0-1.0-2.7","923D08CFD0894720B1F1D5D4C8C30F80","923D08CFD0894720B1F1D5D4C8C30F80","6dce60d4-c8ce-4581-afa5-616069d5228c","a0a8f18c-a66e-4ba7-a170-23efbdc67501","{""participantId"":""923D08CFD0894720B1F1D5D4C8C30F80"",""assignmentId"":""6dce60d4-c8ce-4581-afa5-616069d5228c"",""projectId"":""a0a8f18c-a66e-4ba7-a170-23efbdc67501""}","https://test12345.live/?participantId=923D08CFD0894720B1F1D5D4C8C30F80&assignmentId=6dce60d4-c8ce-4581-afa5-616069d5228c&projectId=a0a8f18c-a66e-4ba7-a170-23efbdc67501","923D08CFD0894720B1F1D5D4C8C30F80-2024-11-24-17-39-24","","null","","[]","null","",""
"","","","","","image-button-response","81","591613","0.0-12.0-1.0-0.8","923D08CFD0894720B1F1D5D4C8C30F80","923D08CFD0894720B1F1D5D4C8C30F80","6dce60d4-c8ce-4581-afa5-616069d5228c","a0a8f18c-a66e-4ba7-a170-23efbdc67501","{""participantId"":""923D08CFD0894720B1F1D5D4C8C30F80"",""assignmentId"":""6dce60d4-c8ce-4581-afa5-616069d5228c"",""projectId"":""a0a8f18c-a66e-4ba7-a170-23efbdc67501""}","https://test12345.live/?participantId=923D08CFD0894720B1F1D5D4C8C30F80&assignmentId=6dce60d4-c8ce-4581-afa5-616069d5228c&projectId=a0a8f18c-a66e-4ba7-a170-23efbdc67501","923D08CFD0894720B1F1D5D4C8C30F80-2024-11-24-17-39-24","","null","","images/causal_sequence/saving_a_cat_causal/saving_a_cat_causal_9.png","null","",""
"","","","","","image-button-response","82","592441","0.0-12.0-1.0-1.8","923D08CFD0894720B1F1D5D4C8C30F80","923D08CFD0894720B1F1D5D4C8C30F80","6dce60d4-c8ce-4581-afa5-616069d5228c","a0a8f18c-a66e-4ba7-a170-23efbdc67501","{""participantId"":""923D08CFD0894720B1F1D5D4C8C30F80"",""assignmentId"":""6dce60d4-c8ce-4581-afa5-616069d5228c"",""projectId"":""a0a8f18c-a66e-4ba7-a170-23efbdc67501""}","https://test12345.live/?participantId=923D08CFD0894720B1F1D5D4C8C30F80&assignmentId=6dce60d4-c8ce-4581-afa5-616069d5228c&projectId=a0a8f18c-a66e-4ba7-a170-23efbdc67501","923D08CFD0894720B1F1D5D4C8C30F80-2024-11-24-17-39-24","","827","","images/causal_sequence/saving_a_cat_causal/saving_a_cat_causal_9.png","0","",""
"","","","","","image-button-response","83","594244","0.0-12.0-1.0-2.8","923D08CFD0894720B1F1D5D4C8C30F80","923D08CFD0894720B1F1D5D4C8C30F80","6dce60d4-c8ce-4581-afa5-616069d5228c","a0a8f18c-a66e-4ba7-a170-23efbdc67501","{""participantId"":""923D08CFD0894720B1F1D5D4C8C30F80"",""assignmentId"":""6dce60d4-c8ce-4581-afa5-616069d5228c"",""projectId"":""a0a8f18c-a66e-4ba7-a170-23efbdc67501""}","https://test12345.live/?participantId=923D08CFD0894720B1F1D5D4C8C30F80&assignmentId=6dce60d4-c8ce-4581-afa5-616069d5228c&projectId=a0a8f18c-a66e-4ba7-a170-23efbdc67501","923D08CFD0894720B1F1D5D4C8C30F80-2024-11-24-17-39-24","","null","","[]","null","",""
"","","","","","image-button-response","84","598754","0.0-12.0-1.0-0.9","923D08CFD0894720B1F1D5D4C8C30F80","923D08CFD0894720B1F1D5D4C8C30F80","6dce60d4-c8ce-4581-afa5-616069d5228c","a0a8f18c-a66e-4ba7-a170-23efbdc67501","{""participantId"":""923D08CFD0894720B1F1D5D4C8C30F80"",""assignmentId"":""6dce60d4-c8ce-4581-afa5-616069d5228c"",""projectId"":""a0a8f18c-a66e-4ba7-a170-23efbdc67501""}","https://test12345.live/?participantId=923D08CFD0894720B1F1D5D4C8C30F80&assignmentId=6dce60d4-c8ce-4581-afa5-616069d5228c&projectId=a0a8f18c-a66e-4ba7-a170-23efbdc67501","923D08CFD0894720B1F1D5D4C8C30F80-2024-11-24-17-39-24","","null","","images/causal_sequence/saving_a_cat_causal/saving_a_cat_causal_ten.png","null","",""
"","","","","","image-button-response","85","599241","0.0-12.0-1.0-1.9","923D08CFD0894720B1F1D5D4C8C30F80","923D08CFD0894720B1F1D5D4C8C30F80","6dce60d4-c8ce-4581-afa5-616069d5228c","a0a8f18c-a66e-4ba7-a170-23efbdc67501","{""participantId"":""923D08CFD0894720B1F1D5D4C8C30F80"",""assignmentId"":""6dce60d4-c8ce-4581-afa5-616069d5228c"",""projectId"":""a0a8f18c-a66e-4ba7-a170-23efbdc67501""}","https://test12345.live/?participantId=923D08CFD0894720B1F1D5D4C8C30F80&assignmentId=6dce60d4-c8ce-4581-afa5-616069d5228c&projectId=a0a8f18c-a66e-4ba7-a170-23efbdc67501","923D08CFD0894720B1F1D5D4C8C30F80-2024-11-24-17-39-24","","485","","images/causal_sequence/saving_a_cat_causal/saving_a_cat_causal_ten.png","0","",""
"","","","","","image-button-response","86","601044","0.0-12.0-1.0-2.9","923D08CFD0894720B1F1D5D4C8C30F80","923D08CFD0894720B1F1D5D4C8C30F80","6dce60d4-c8ce-4581-afa5-616069d5228c","a0a8f18c-a66e-4ba7-a170-23efbdc67501","{""participantId"":""923D08CFD0894720B1F1D5D4C8C30F80"",""assignmentId"":""6dce60d4-c8ce-4581-afa5-616069d5228c"",""projectId"":""a0a8f18c-a66e-4ba7-a170-23efbdc67501""}","https://test12345.live/?participantId=923D08CFD0894720B1F1D5D4C8C30F80&assignmentId=6dce60d4-c8ce-4581-afa5-616069d5228c&projectId=a0a8f18c-a66e-4ba7-a170-23efbdc67501","923D08CFD0894720B1F1D5D4C8C30F80-2024-11-24-17-39-24","","null","","[]","null","",""
"","","","","","html-audio-response","87","624361","0.0-13.0","923D08CFD0894720B1F1D5D4C8C30F80","923D08CFD0894720B1F1D5D4C8C30F80","6dce60d4-c8ce-4581-afa5-616069d5228c","a0a8f18c-a66e-4ba7-a170-23efbdc67501","{""participantId"":""923D08CFD0894720B1F1D5D4C8C30F80"",""assignmentId"":""6dce60d4-c8ce-4581-afa5-616069d5228c"",""projectId"":""a0a8f18c-a66e-4ba7-a170-23efbdc67501""}","https://test12345.live/?participantId=923D08CFD0894720B1F1D5D4C8C30F80&assignmentId=6dce60d4-c8ce-4581-afa5-616069d5228c&projectId=a0a8f18c-a66e-4ba7-a170-23efbdc67501","923D08CFD0894720B1F1D5D4C8C30F80-2024-11-24-17-39-24","","21616","","[""<span style=\""color: red; font-size: 24px\""> NOW RECORDING</span><p>Please say out loud all the images you saw, as many as you can remember. The images can be said in any order.</p>""]","","1","saving_a_cat_causal"
"","","","","","image-button-response","88","630376","0.0-14.0-0.0","923D08CFD0894720B1F1D5D4C8C30F80","923D08CFD0894720B1F1D5D4C8C30F80","6dce60d4-c8ce-4581-afa5-616069d5228c","a0a8f18c-a66e-4ba7-a170-23efbdc67501","{""participantId"":""923D08CFD0894720B1F1D5D4C8C30F80"",""assignmentId"":""6dce60d4-c8ce-4581-afa5-616069d5228c"",""projectId"":""a0a8f18c-a66e-4ba7-a170-23efbdc67501""}","https://test12345.live/?participantId=923D08CFD0894720B1F1D5D4C8C30F80&assignmentId=6dce60d4-c8ce-4581-afa5-616069d5228c&projectId=a0a8f18c-a66e-4ba7-a170-23efbdc67501","923D08CFD0894720B1F1D5D4C8C30F80-2024-11-24-17-39-24","","null","","images/schematic_sequence/restaurant_scheme/restaurant_scheme_0.png","null","",""
"","","","","","image-button-response","89","634884","0.0-14.0-1.0-0.0","923D08CFD0894720B1F1D5D4C8C30F80","923D08CFD0894720B1F1D5D4C8C30F80","6dce60d4-c8ce-4581-afa5-616069d5228c","a0a8f18c-a66e-4ba7-a170-23efbdc67501","{""participantId"":""923D08CFD0894720B1F1D5D4C8C30F80"",""assignmentId"":""6dce60d4-c8ce-4581-afa5-616069d5228c"",""projectId"":""a0a8f18c-a66e-4ba7-a170-23efbdc67501""}","https://test12345.live/?participantId=923D08CFD0894720B1F1D5D4C8C30F80&assignmentId=6dce60d4-c8ce-4581-afa5-616069d5228c&projectId=a0a8f18c-a66e-4ba7-a170-23efbdc67501","923D08CFD0894720B1F1D5D4C8C30F80-2024-11-24-17-39-24","","null","","images/schematic_sequence/restaurant_scheme/restaurant_scheme_1.png","null","",""
"","","","","","image-button-response","90","636427","0.0-14.0-1.0-1.0","923D08CFD0894720B1F1D5D4C8C30F80","923D08CFD0894720B1F1D5D4C8C30F80","6dce60d4-c8ce-4581-afa5-616069d5228c","a0a8f18c-a66e-4ba7-a170-23efbdc67501","{""participantId"":""923D08CFD0894720B1F1D5D4C8C30F80"",""assignmentId"":""6dce60d4-c8ce-4581-afa5-616069d5228c"",""projectId"":""a0a8f18c-a66e-4ba7-a170-23efbdc67501""}","https://test12345.live/?participantId=923D08CFD0894720B1F1D5D4C8C30F80&assignmentId=6dce60d4-c8ce-4581-afa5-616069d5228c&projectId=a0a8f18c-a66e-4ba7-a170-23efbdc67501","923D08CFD0894720B1F1D5D4C8C30F80-2024-11-24-17-39-24","","1542","","images/schematic_sequence/restaurant_scheme/restaurant_scheme_1.png","0","",""
"","","","","","image-button-response","91","638241","0.0-14.0-1.0-2.0","923D08CFD0894720B1F1D5D4C8C30F80","923D08CFD0894720B1F1D5D4C8C30F80","6dce60d4-c8ce-4581-afa5-616069d5228c","a0a8f18c-a66e-4ba7-a170-23efbdc67501","{""participantId"":""923D08CFD0894720B1F1D5D4C8C30F80"",""assignmentId"":""6dce60d4-c8ce-4581-afa5-616069d5228c"",""projectId"":""a0a8f18c-a66e-4ba7-a170-23efbdc67501""}","https://test12345.live/?participantId=923D08CFD0894720B1F1D5D4C8C30F80&assignmentId=6dce60d4-c8ce-4581-afa5-616069d5228c&projectId=a0a8f18c-a66e-4ba7-a170-23efbdc67501","923D08CFD0894720B1F1D5D4C8C30F80-2024-11-24-17-39-24","","null","","[]","null","",""
"","","","","","image-button-response","92","642751","0.0-14.0-1.0-0.1","923D08CFD0894720B1F1D5D4C8C30F80","923D08CFD0894720B1F1D5D4C8C30F80","6dce60d4-c8ce-4581-afa5-616069d5228c","a0a8f18c-a66e-4ba7-a170-23efbdc67501","{""participantId"":""923D08CFD0894720B1F1D5D4C8C30F80"",""assignmentId"":""6dce60d4-c8ce-4581-afa5-616069d5228c"",""projectId"":""a0a8f18c-a66e-4ba7-a170-23efbdc67501""}","https://test12345.live/?participantId=923D08CFD0894720B1F1D5D4C8C30F80&assignmentId=6dce60d4-c8ce-4581-afa5-616069d5228c&projectId=a0a8f18c-a66e-4ba7-a170-23efbdc67501","923D08CFD0894720B1F1D5D4C8C30F80-2024-11-24-17-39-24","","null","","images/schematic_sequence/restaurant_scheme/restaurant_scheme_2.png","null","",""
"","","","","","image-button-response","93","643638","0.0-14.0-1.0-1.1","923D08CFD0894720B1F1D5D4C8C30F80","923D08CFD0894720B1F1D5D4C8C30F80","6dce60d4-c8ce-4581-afa5-616069d5228c","a0a8f18c-a66e-4ba7-a170-23efbdc67501","{""participantId"":""923D08CFD0894720B1F1D5D4C8C30F80"",""assignmentId"":""6dce60d4-c8ce-4581-afa5-616069d5228c"",""projectId"":""a0a8f18c-a66e-4ba7-a170-23efbdc67501""}","https://test12345.live/?participantId=923D08CFD0894720B1F1D5D4C8C30F80&assignmentId=6dce60d4-c8ce-4581-afa5-616069d5228c&projectId=a0a8f18c-a66e-4ba7-a170-23efbdc67501","923D08CFD0894720B1F1D5D4C8C30F80-2024-11-24-17-39-24","","886","","images/schematic_sequence/restaurant_scheme/restaurant_scheme_2.png","1","",""
"","","","","","image-button-response","94","645447","0.0-14.0-1.0-2.1","923D08CFD0894720B1F1D5D4C8C30F80","923D08CFD0894720B1F1D5D4C8C30F80","6dce60d4-c8ce-4581-afa5-616069d5228c","a0a8f18c-a66e-4ba7-a170-23efbdc67501","{""participantId"":""923D08CFD0894720B1F1D5D4C8C30F80"",""assignmentId"":""6dce60d4-c8ce-4581-afa5-616069d5228c"",""projectId"":""a0a8f18c-a66e-4ba7-a170-23efbdc67501""}","https://test12345.live/?participantId=923D08CFD0894720B1F1D5D4C8C30F80&assignmentId=6dce60d4-c8ce-4581-afa5-616069d5228c&projectId=a0a8f18c-a66e-4ba7-a170-23efbdc67501","923D08CFD0894720B1F1D5D4C8C30F80-2024-11-24-17-39-24","","null","","[]","null","",""
"","","","","","image-button-response","95","649958","0.0-14.0-1.0-0.2","923D08CFD0894720B1F1D5D4C8C30F80","923D08CFD0894720B1F1D5D4C8C30F80","6dce60d4-c8ce-4581-afa5-616069d5228c","a0a8f18c-a66e-4ba7-a170-23efbdc67501","{""participantId"":""923D08CFD0894720B1F1D5D4C8C30F80"",""assignmentId"":""6dce60d4-c8ce-4581-afa5-616069d5228c"",""projectId"":""a0a8f18c-a66e-4ba7-a170-23efbdc67501""}","https://test12345.live/?participantId=923D08CFD0894720B1F1D5D4C8C30F80&assignmentId=6dce60d4-c8ce-4581-afa5-616069d5228c&projectId=a0a8f18c-a66e-4ba7-a170-23efbdc67501","923D08CFD0894720B1F1D5D4C8C30F80-2024-11-24-17-39-24","","null","","images/schematic_sequence/restaurant_scheme/restaurant_scheme_3.png","null","",""
"","","","","","image-button-response","96","651033","0.0-14.0-1.0-1.2","923D08CFD0894720B1F1D5D4C8C30F80","923D08CFD0894720B1F1D5D4C8C30F80","6dce60d4-c8ce-4581-afa5-616069d5228c","a0a8f18c-a66e-4ba7-a170-23efbdc67501","{""participantId"":""923D08CFD0894720B1F1D5D4C8C30F80"",""assignmentId"":""6dce60d4-c8ce-4581-afa5-616069d5228c"",""projectId"":""a0a8f18c-a66e-4ba7-a170-23efbdc67501""}","https://test12345.live/?participantId=923D08CFD0894720B1F1D5D4C8C30F80&assignmentId=6dce60d4-c8ce-4581-afa5-616069d5228c&projectId=a0a8f18c-a66e-4ba7-a170-23efbdc67501","923D08CFD0894720B1F1D5D4C8C30F80-2024-11-24-17-39-24","","1074","","images/schematic_sequence/restaurant_scheme/restaurant_scheme_3.png","1","",""
"","","","","","image-button-response","97","652847","0.0-14.0-1.0-2.2","923D08CFD0894720B1F1D5D4C8C30F80","923D08CFD0894720B1F1D5D4C8C30F80","6dce60d4-c8ce-4581-afa5-616069d5228c","a0a8f18c-a66e-4ba7-a170-23efbdc67501","{""participantId"":""923D08CFD0894720B1F1D5D4C8C30F80"",""assignmentId"":""6dce60d4-c8ce-4581-afa5-616069d5228c"",""projectId"":""a0a8f18c-a66e-4ba7-a170-23efbdc67501""}","https://test12345.live/?participantId=923D08CFD0894720B1F1D5D4C8C30F80&assignmentId=6dce60d4-c8ce-4581-afa5-616069d5228c&projectId=a0a8f18c-a66e-4ba7-a170-23efbdc67501","923D08CFD0894720B1F1D5D4C8C30F80-2024-11-24-17-39-24","","null","","[]","null","",""
"","","","","","image-button-response","98","657357","0.0-14.0-1.0-0.3","923D08CFD0894720B1F1D5D4C8C30F80","923D08CFD0894720B1F1D5D4C8C30F80","6dce60d4-c8ce-4581-afa5-616069d5228c","a0a8f18c-a66e-4ba7-a170-23efbdc67501","{""participantId"":""923D08CFD0894720B1F1D5D4C8C30F80"",""assignmentId"":""6dce60d4-c8ce-4581-afa5-616069d5228c"",""projectId"":""a0a8f18c-a66e-4ba7-a170-23efbdc67501""}","https://test12345.live/?participantId=923D08CFD0894720B1F1D5D4C8C30F80&assignmentId=6dce60d4-c8ce-4581-afa5-616069d5228c&projectId=a0a8f18c-a66e-4ba7-a170-23efbdc67501","923D08CFD0894720B1F1D5D4C8C30F80-2024-11-24-17-39-24","","null","","images/schematic_sequence/restaurant_scheme/restaurant_scheme_4.png","null","",""
"","","","","","image-button-response","99","659299","0.0-14.0-1.0-1.3","923D08CFD0894720B1F1D5D4C8C30F80","923D08CFD0894720B1F1D5D4C8C30F80","6dce60d4-c8ce-4581-afa5-616069d5228c","a0a8f18c-a66e-4ba7-a170-23efbdc67501","{""participantId"":""923D08CFD0894720B1F1D5D4C8C30F80"",""assignmentId"":""6dce60d4-c8ce-4581-afa5-616069d5228c"",""projectId"":""a0a8f18c-a66e-4ba7-a170-23efbdc67501""}","https://test12345.live/?participantId=923D08CFD0894720B1F1D5D4C8C30F80&assignmentId=6dce60d4-c8ce-4581-afa5-616069d5228c&projectId=a0a8f18c-a66e-4ba7-a170-23efbdc67501","923D08CFD0894720B1F1D5D4C8C30F80-2024-11-24-17-39-24","","1941","","images/schematic_sequence/restaurant_scheme/restaurant_scheme_4.png","0","",""
"","","","","","image-button-response","100","661105","0.0-14.0-1.0-2.3","923D08CFD0894720B1F1D5D4C8C30F80","923D08CFD0894720B1F1D5D4C8C30F80","6dce60d4-c8ce-4581-afa5-616069d5228c","a0a8f18c-a66e-4ba7-a170-23efbdc67501","{""participantId"":""923D08CFD0894720B1F1D5D4C8C30F80"",""assignmentId"":""6dce60d4-c8ce-4581-afa5-616069d5228c"",""projectId"":""a0a8f18c-a66e-4ba7-a170-23efbdc67501""}","https://test12345.live/?participantId=923D08CFD0894720B1F1D5D4C8C30F80&assignmentId=6dce60d4-c8ce-4581-afa5-616069d5228c&projectId=a0a8f18c-a66e-4ba7-a170-23efbdc67501","923D08CFD0894720B1F1D5D4C8C30F80-2024-11-24-17-39-24","","null","","[]","null","",""
"","","","","","image-button-response","101","665607","0.0-14.0-1.0-0.4","923D08CFD0894720B1F1D5D4C8C30F80","923D08CFD0894720B1F1D5D4C8C30F80","6dce60d4-c8ce-4581-afa5-616069d5228c","a0a8f18c-a66e-4ba7-a170-23efbdc67501","{""participantId"":""923D08CFD0894720B1F1D5D4C8C30F80"",""assignmentId"":""6dce60d4-c8ce-4581-afa5-616069d5228c"",""projectId"":""a0a8f18c-a66e-4ba7-a170-23efbdc67501""}","https://test12345.live/?participantId=923D08CFD0894720B1F1D5D4C8C30F80&assignmentId=6dce60d4-c8ce-4581-afa5-616069d5228c&projectId=a0a8f18c-a66e-4ba7-a170-23efbdc67501","923D08CFD0894720B1F1D5D4C8C30F80-2024-11-24-17-39-24","","null","","images/schematic_sequence/restaurant_scheme/restaurant_scheme_5.png","null","",""
"","","","","","image-button-response","102","666209","0.0-14.0-1.0-1.4","923D08CFD0894720B1F1D5D4C8C30F80","923D08CFD0894720B1F1D5D4C8C30F80","6dce60d4-c8ce-4581-afa5-616069d5228c","a0a8f18c-a66e-4ba7-a170-23efbdc67501","{""participantId"":""923D08CFD0894720B1F1D5D4C8C30F80"",""assignmentId"":""6dce60d4-c8ce-4581-afa5-616069d5228c"",""projectId"":""a0a8f18c-a66e-4ba7-a170-23efbdc67501""}","https://test12345.live/?participantId=923D08CFD0894720B1F1D5D4C8C30F80&assignmentId=6dce60d4-c8ce-4581-afa5-616069d5228c&projectId=a0a8f18c-a66e-4ba7-a170-23efbdc67501","923D08CFD0894720B1F1D5D4C8C30F80-2024-11-24-17-39-24","","601","","images/schematic_sequence/restaurant_scheme/restaurant_scheme_5.png","0","",""
"","","","","","image-button-response","103","668021","0.0-14.0-1.0-2.4","923D08CFD0894720B1F1D5D4C8C30F80","923D08CFD0894720B1F1D5D4C8C30F80","6dce60d4-c8ce-4581-afa5-616069d5228c","a0a8f18c-a66e-4ba7-a170-23efbdc67501","{""participantId"":""923D08CFD0894720B1F1D5D4C8C30F80"",""assignmentId"":""6dce60d4-c8ce-4581-afa5-616069d5228c"",""projectId"":""a0a8f18c-a66e-4ba7-a170-23efbdc67501""}","https://test12345.live/?participantId=923D08CFD0894720B1F1D5D4C8C30F80&assignmentId=6dce60d4-c8ce-4581-afa5-616069d5228c&projectId=a0a8f18c-a66e-4ba7-a170-23efbdc67501","923D08CFD0894720B1F1D5D4C8C30F80-2024-11-24-17-39-24","","null","","[]","null","",""
"","","","","","image-button-response","104","672530","0.0-14.0-1.0-0.5","923D08CFD0894720B1F1D5D4C8C30F80","923D08CFD0894720B1F1D5D4C8C30F80","6dce60d4-c8ce-4581-afa5-616069d5228c","a0a8f18c-a66e-4ba7-a170-23efbdc67501","{""participantId"":""923D08CFD0894720B1F1D5D4C8C30F80"",""assignmentId"":""6dce60d4-c8ce-4581-afa5-616069d5228c"",""projectId"":""a0a8f18c-a66e-4ba7-a170-23efbdc67501""}","https://test12345.live/?participantId=923D08CFD0894720B1F1D5D4C8C30F80&assignmentId=6dce60d4-c8ce-4581-afa5-616069d5228c&projectId=a0a8f18c-a66e-4ba7-a170-23efbdc67501","923D08CFD0894720B1F1D5D4C8C30F80-2024-11-24-17-39-24","","null","","images/schematic_sequence/restaurant_scheme/restaurant_scheme_6.png","null","",""
"","","","","","image-button-response","105","673492","0.0-14.0-1.0-1.5","923D08CFD0894720B1F1D5D4C8C30F80","923D08CFD0894720B1F1D5D4C8C30F80","6dce60d4-c8ce-4581-afa5-616069d5228c","a0a8f18c-a66e-4ba7-a170-23efbdc67501","{""participantId"":""923D08CFD0894720B1F1D5D4C8C30F80"",""assignmentId"":""6dce60d4-c8ce-4581-afa5-616069d5228c"",""projectId"":""a0a8f18c-a66e-4ba7-a170-23efbdc67501""}","https://test12345.live/?participantId=923D08CFD0894720B1F1D5D4C8C30F80&assignmentId=6dce60d4-c8ce-4581-afa5-616069d5228c&projectId=a0a8f18c-a66e-4ba7-a170-23efbdc67501","923D08CFD0894720B1F1D5D4C8C30F80-2024-11-24-17-39-24","","962","","images/schematic_sequence/restaurant_scheme/restaurant_scheme_6.png","1","",""
"","","","","","image-button-response","106","675294","0.0-14.0-1.0-2.5","923D08CFD0894720B1F1D5D4C8C30F80","923D08CFD0894720B1F1D5D4C8C30F80","6dce60d4-c8ce-4581-afa5-616069d5228c","a0a8f18c-a66e-4ba7-a170-23efbdc67501","{""participantId"":""923D08CFD0894720B1F1D5D4C8C30F80"",""assignmentId"":""6dce60d4-c8ce-4581-afa5-616069d5228c"",""projectId"":""a0a8f18c-a66e-4ba7-a170-23efbdc67501""}","https://test12345.live/?participantId=923D08CFD0894720B1F1D5D4C8C30F80&assignmentId=6dce60d4-c8ce-4581-afa5-616069d5228c&projectId=a0a8f18c-a66e-4ba7-a170-23efbdc67501","923D08CFD0894720B1F1D5D4C8C30F80-2024-11-24-17-39-24","","null","","[]","null","",""
"","","","","","image-button-response","107","679799","0.0-14.0-1.0-0.6","923D08CFD0894720B1F1D5D4C8C30F80","923D08CFD0894720B1F1D5D4C8C30F80","6dce60d4-c8ce-4581-afa5-616069d5228c","a0a8f18c-a66e-4ba7-a170-23efbdc67501","{""participantId"":""923D08CFD0894720B1F1D5D4C8C30F80"",""assignmentId"":""6dce60d4-c8ce-4581-afa5-616069d5228c"",""projectId"":""a0a8f18c-a66e-4ba7-a170-23efbdc67501""}","https://test12345.live/?participantId=923D08CFD0894720B1F1D5D4C8C30F80&assignmentId=6dce60d4-c8ce-4581-afa5-616069d5228c&projectId=a0a8f18c-a66e-4ba7-a170-23efbdc67501","923D08CFD0894720B1F1D5D4C8C30F80-2024-11-24-17-39-24","","null","","images/schematic_sequence/restaurant_scheme/restaurant_scheme_7.png","null","",""
"","","","","","image-button-response","108","681012","0.0-14.0-1.0-1.6","923D08CFD0894720B1F1D5D4C8C30F80","923D08CFD0894720B1F1D5D4C8C30F80","6dce60d4-c8ce-4581-afa5-616069d5228c","a0a8f18c-a66e-4ba7-a170-23efbdc67501","{""participantId"":""923D08CFD0894720B1F1D5D4C8C30F80"",""assignmentId"":""6dce60d4-c8ce-4581-afa5-616069d5228c"",""projectId"":""a0a8f18c-a66e-4ba7-a170-23efbdc67501""}","https://test12345.live/?participantId=923D08CFD0894720B1F1D5D4C8C30F80&assignmentId=6dce60d4-c8ce-4581-afa5-616069d5228c&projectId=a0a8f18c-a66e-4ba7-a170-23efbdc67501","923D08CFD0894720B1F1D5D4C8C30F80-2024-11-24-17-39-24","","1212","","images/schematic_sequence/restaurant_scheme/restaurant_scheme_7.png","1","",""
"","","","","","image-button-response","109","682812","0.0-14.0-1.0-2.6","923D08CFD0894720B1F1D5D4C8C30F80","923D08CFD0894720B1F1D5D4C8C30F80","6dce60d4-c8ce-4581-afa5-616069d5228c","a0a8f18c-a66e-4ba7-a170-23efbdc67501","{""participantId"":""923D08CFD0894720B1F1D5D4C8C30F80"",""assignmentId"":""6dce60d4-c8ce-4581-afa5-616069d5228c"",""projectId"":""a0a8f18c-a66e-4ba7-a170-23efbdc67501""}","https://test12345.live/?participantId=923D08CFD0894720B1F1D5D4C8C30F80&assignmentId=6dce60d4-c8ce-4581-afa5-616069d5228c&projectId=a0a8f18c-a66e-4ba7-a170-23efbdc67501","923D08CFD0894720B1F1D5D4C8C30F80-2024-11-24-17-39-24","","null","","[]","null","",""
"","","","","","image-button-response","110","687313","0.0-14.0-1.0-0.7","923D08CFD0894720B1F1D5D4C8C30F80","923D08CFD0894720B1F1D5D4C8C30F80","6dce60d4-c8ce-4581-afa5-616069d5228c","a0a8f18c-a66e-4ba7-a170-23efbdc67501","{""participantId"":""923D08CFD0894720B1F1D5D4C8C30F80"",""assignmentId"":""6dce60d4-c8ce-4581-afa5-616069d5228c"",""projectId"":""a0a8f18c-a66e-4ba7-a170-23efbdc67501""}","https://test12345.live/?participantId=923D08CFD0894720B1F1D5D4C8C30F80&assignmentId=6dce60d4-c8ce-4581-afa5-616069d5228c&projectId=a0a8f18c-a66e-4ba7-a170-23efbdc67501","923D08CFD0894720B1F1D5D4C8C30F80-2024-11-24-17-39-24","","null","","images/schematic_sequence/restaurant_scheme/restaurant_scheme_8.png","null","",""
"","","","","","image-button-response","111","687990","0.0-14.0-1.0-1.7","923D08CFD0894720B1F1D5D4C8C30F80","923D08CFD0894720B1F1D5D4C8C30F80","6dce60d4-c8ce-4581-afa5-616069d5228c","a0a8f18c-a66e-4ba7-a170-23efbdc67501","{""participantId"":""923D08CFD0894720B1F1D5D4C8C30F80"",""assignmentId"":""6dce60d4-c8ce-4581-afa5-616069d5228c"",""projectId"":""a0a8f18c-a66e-4ba7-a170-23efbdc67501""}","https://test12345.live/?participantId=923D08CFD0894720B1F1D5D4C8C30F80&assignmentId=6dce60d4-c8ce-4581-afa5-616069d5228c&projectId=a0a8f18c-a66e-4ba7-a170-23efbdc67501","923D08CFD0894720B1F1D5D4C8C30F80-2024-11-24-17-39-24","","676","","images/schematic_sequence/restaurant_scheme/restaurant_scheme_8.png","1","",""
"","","","","","image-button-response","112","689805","0.0-14.0-1.0-2.7","923D08CFD0894720B1F1D5D4C8C30F80","923D08CFD0894720B1F1D5D4C8C30F80","6dce60d4-c8ce-4581-afa5-616069d5228c","a0a8f18c-a66e-4ba7-a170-23efbdc67501","{""participantId"":""923D08CFD0894720B1F1D5D4C8C30F80"",""assignmentId"":""6dce60d4-c8ce-4581-afa5-616069d5228c"",""projectId"":""a0a8f18c-a66e-4ba7-a170-23efbdc67501""}","https://test12345.live/?participantId=923D08CFD0894720B1F1D5D4C8C30F80&assignmentId=6dce60d4-c8ce-4581-afa5-616069d5228c&projectId=a0a8f18c-a66e-4ba7-a170-23efbdc67501","923D08CFD0894720B1F1D5D4C8C30F80-2024-11-24-17-39-24","","null","","[]","null","",""
"","","","","","image-button-response","113","694308","0.0-14.0-1.0-0.8","923D08CFD0894720B1F1D5D4C8C30F80","923D08CFD0894720B1F1D5D4C8C30F80","6dce60d4-c8ce-4581-afa5-616069d5228c","a0a8f18c-a66e-4ba7-a170-23efbdc67501","{""participantId"":""923D08CFD0894720B1F1D5D4C8C30F80"",""assignmentId"":""6dce60d4-c8ce-4581-afa5-616069d5228c"",""projectId"":""a0a8f18c-a66e-4ba7-a170-23efbdc67501""}","https://test12345.live/?participantId=923D08CFD0894720B1F1D5D4C8C30F80&assignmentId=6dce60d4-c8ce-4581-afa5-616069d5228c&projectId=a0a8f18c-a66e-4ba7-a170-23efbdc67501","923D08CFD0894720B1F1D5D4C8C30F80-2024-11-24-17-39-24","","null","","images/schematic_sequence/restaurant_scheme/restaurant_scheme_9.png","null","",""
"","","","","","image-button-response","114","694922","0.0-14.0-1.0-1.8","923D08CFD0894720B1F1D5D4C8C30F80","923D08CFD0894720B1F1D5D4C8C30F80","6dce60d4-c8ce-4581-afa5-616069d5228c","a0a8f18c-a66e-4ba7-a170-23efbdc67501","{""participantId"":""923D08CFD0894720B1F1D5D4C8C30F80"",""assignmentId"":""6dce60d4-c8ce-4581-afa5-616069d5228c"",""projectId"":""a0a8f18c-a66e-4ba7-a170-23efbdc67501""}","https://test12345.live/?participantId=923D08CFD0894720B1F1D5D4C8C30F80&assignmentId=6dce60d4-c8ce-4581-afa5-616069d5228c&projectId=a0a8f18c-a66e-4ba7-a170-23efbdc67501","923D08CFD0894720B1F1D5D4C8C30F80-2024-11-24-17-39-24","","614","","images/schematic_sequence/restaurant_scheme/restaurant_scheme_9.png","0","",""
"","","","","","image-button-response","115","696724","0.0-14.0-1.0-2.8","923D08CFD0894720B1F1D5D4C8C30F80","923D08CFD0894720B1F1D5D4C8C30F80","6dce60d4-c8ce-4581-afa5-616069d5228c","a0a8f18c-a66e-4ba7-a170-23efbdc67501","{""participantId"":""923D08CFD0894720B1F1D5D4C8C30F80"",""assignmentId"":""6dce60d4-c8ce-4581-afa5-616069d5228c"",""projectId"":""a0a8f18c-a66e-4ba7-a170-23efbdc67501""}","https://test12345.live/?participantId=923D08CFD0894720B1F1D5D4C8C30F80&assignmentId=6dce60d4-c8ce-4581-afa5-616069d5228c&projectId=a0a8f18c-a66e-4ba7-a170-23efbdc67501","923D08CFD0894720B1F1D5D4C8C30F80-2024-11-24-17-39-24","","null","","[]","null","",""
"","","","","","image-button-response","116","701227","0.0-14.0-1.0-0.9","923D08CFD0894720B1F1D5D4C8C30F80","923D08CFD0894720B1F1D5D4C8C30F80","6dce60d4-c8ce-4581-afa5-616069d5228c","a0a8f18c-a66e-4ba7-a170-23efbdc67501","{""participantId"":""923D08CFD0894720B1F1D5D4C8C30F80"",""assignmentId"":""6dce60d4-c8ce-4581-afa5-616069d5228c"",""projectId"":""a0a8f18c-a66e-4ba7-a170-23efbdc67501""}","https://test12345.live/?participantId=923D08CFD0894720B1F1D5D4C8C30F80&assignmentId=6dce60d4-c8ce-4581-afa5-616069d5228c&projectId=a0a8f18c-a66e-4ba7-a170-23efbdc67501","923D08CFD0894720B1F1D5D4C8C30F80-2024-11-24-17-39-24","","null","","images/schematic_sequence/restaurant_scheme/restaurant_scheme_ten.png","null","",""
"","","","","","image-button-response","117","702002","0.0-14.0-1.0-1.9","923D08CFD0894720B1F1D5D4C8C30F80","923D08CFD0894720B1F1D5D4C8C30F80","6dce60d4-c8ce-4581-afa5-616069d5228c","a0a8f18c-a66e-4ba7-a170-23efbdc67501","{""participantId"":""923D08CFD0894720B1F1D5D4C8C30F80"",""assignmentId"":""6dce60d4-c8ce-4581-afa5-616069d5228c"",""projectId"":""a0a8f18c-a66e-4ba7-a170-23efbdc67501""}","https://test12345.live/?participantId=923D08CFD0894720B1F1D5D4C8C30F80&assignmentId=6dce60d4-c8ce-4581-afa5-616069d5228c&projectId=a0a8f18c-a66e-4ba7-a170-23efbdc67501","923D08CFD0894720B1F1D5D4C8C30F80-2024-11-24-17-39-24","","774","","images/schematic_sequence/restaurant_scheme/restaurant_scheme_ten.png","0","",""
"","","","","","image-button-response","118","703812","0.0-14.0-1.0-2.9","923D08CFD0894720B1F1D5D4C8C30F80","923D08CFD0894720B1F1D5D4C8C30F80","6dce60d4-c8ce-4581-afa5-616069d5228c","a0a8f18c-a66e-4ba7-a170-23efbdc67501","{""participantId"":""923D08CFD0894720B1F1D5D4C8C30F80"",""assignmentId"":""6dce60d4-c8ce-4581-afa5-616069d5228c"",""projectId"":""a0a8f18c-a66e-4ba7-a170-23efbdc67501""}","https://test12345.live/?participantId=923D08CFD0894720B1F1D5D4C8C30F80&assignmentId=6dce60d4-c8ce-4581-afa5-616069d5228c&projectId=a0a8f18c-a66e-4ba7-a170-23efbdc67501","923D08CFD0894720B1F1D5D4C8C30F80-2024-11-24-17-39-24","","null","","[]","null","",""
"","","","","","html-audio-response","119","728889","0.0-15.0","923D08CFD0894720B1F1D5D4C8C30F80","923D08CFD0894720B1F1D5D4C8C30F80","6dce60d4-c8ce-4581-afa5-616069d5228c","a0a8f18c-a66e-4ba7-a170-23efbdc67501","{""participantId"":""923D08CFD0894720B1F1D5D4C8C30F80"",""assignmentId"":""6dce60d4-c8ce-4581-afa5-616069d5228c"",""projectId"":""a0a8f18c-a66e-4ba7-a170-23efbdc67501""}","https://test12345.live/?participantId=923D08CFD0894720B1F1D5D4C8C30F80&assignmentId=6dce60d4-c8ce-4581-afa5-616069d5228c&projectId=a0a8f18c-a66e-4ba7-a170-23efbdc67501","923D08CFD0894720B1F1D5D4C8C30F80-2024-11-24-17-39-24","","23700","","[""<span style=\""color: red; font-size: 24px\""> NOW RECORDING</span><p>Please say out loud all the images you saw, as many as you can remember. The images can be said in any order.</p>""]","","2","restaurant_scheme"
"","","","","","image-button-response","120","734895","0.0-16.0-0.0","923D08CFD0894720B1F1D5D4C8C30F80","923D08CFD0894720B1F1D5D4C8C30F80","6dce60d4-c8ce-4581-afa5-616069d5228c","a0a8f18c-a66e-4ba7-a170-23efbdc67501","{""participantId"":""923D08CFD0894720B1F1D5D4C8C30F80"",""assignmentId"":""6dce60d4-c8ce-4581-afa5-616069d5228c"",""projectId"":""a0a8f18c-a66e-4ba7-a170-23efbdc67501""}","https://test12345.live/?participantId=923D08CFD0894720B1F1D5D4C8C30F80&assignmentId=6dce60d4-c8ce-4581-afa5-616069d5228c&projectId=a0a8f18c-a66e-4ba7-a170-23efbdc67501","923D08CFD0894720B1F1D5D4C8C30F80-2024-11-24-17-39-24","","null","","images/semantic_sequence/physical_activity_semantic/physical_activity_semantic_0.png","null","",""
"","","","","","image-button-response","121","739406","0.0-16.0-1.0-0.0","923D08CFD0894720B1F1D5D4C8C30F80","923D08CFD0894720B1F1D5D4C8C30F80","6dce60d4-c8ce-4581-afa5-616069d5228c","a0a8f18c-a66e-4ba7-a170-23efbdc67501","{""participantId"":""923D08CFD0894720B1F1D5D4C8C30F80"",""assignmentId"":""6dce60d4-c8ce-4581-afa5-616069d5228c"",""projectId"":""a0a8f18c-a66e-4ba7-a170-23efbdc67501""}","https://test12345.live/?participantId=923D08CFD0894720B1F1D5D4C8C30F80&assignmentId=6dce60d4-c8ce-4581-afa5-616069d5228c&projectId=a0a8f18c-a66e-4ba7-a170-23efbdc67501","923D08CFD0894720B1F1D5D4C8C30F80-2024-11-24-17-39-24","","null","","images/semantic_sequence/physical_activity_semantic/physical_activity_semantic_1.png","null","",""
"","","","","","image-button-response","122","742494","0.0-16.0-1.0-1.0","923D08CFD0894720B1F1D5D4C8C30F80","923D08CFD0894720B1F1D5D4C8C30F80","6dce60d4-c8ce-4581-afa5-616069d5228c","a0a8f18c-a66e-4ba7-a170-23efbdc67501","{""participantId"":""923D08CFD0894720B1F1D5D4C8C30F80"",""assignmentId"":""6dce60d4-c8ce-4581-afa5-616069d5228c"",""projectId"":""a0a8f18c-a66e-4ba7-a170-23efbdc67501""}","https://test12345.live/?participantId=923D08CFD0894720B1F1D5D4C8C30F80&assignmentId=6dce60d4-c8ce-4581-afa5-616069d5228c&projectId=a0a8f18c-a66e-4ba7-a170-23efbdc67501","923D08CFD0894720B1F1D5D4C8C30F80-2024-11-24-17-39-24","","3087","","images/semantic_sequence/physical_activity_semantic/physical_activity_semantic_1.png","0","",""
"","","","","","image-button-response","123","744304","0.0-16.0-1.0-2.0","923D08CFD0894720B1F1D5D4C8C30F80","923D08CFD0894720B1F1D5D4C8C30F80","6dce60d4-c8ce-4581-afa5-616069d5228c","a0a8f18c-a66e-4ba7-a170-23efbdc67501","{""participantId"":""923D08CFD0894720B1F1D5D4C8C30F80"",""assignmentId"":""6dce60d4-c8ce-4581-afa5-616069d5228c"",""projectId"":""a0a8f18c-a66e-4ba7-a170-23efbdc67501""}","https://test12345.live/?participantId=923D08CFD0894720B1F1D5D4C8C30F80&assignmentId=6dce60d4-c8ce-4581-afa5-616069d5228c&projectId=a0a8f18c-a66e-4ba7-a170-23efbdc67501","923D08CFD0894720B1F1D5D4C8C30F80-2024-11-24-17-39-24","","null","","[]","null","",""
"","","","","","image-button-response","124","748810","0.0-16.0-1.0-0.1","923D08CFD0894720B1F1D5D4C8C30F80","923D08CFD0894720B1F1D5D4C8C30F80","6dce60d4-c8ce-4581-afa5-616069d5228c","a0a8f18c-a66e-4ba7-a170-23efbdc67501","{""participantId"":""923D08CFD0894720B1F1D5D4C8C30F80"",""assignmentId"":""6dce60d4-c8ce-4581-afa5-616069d5228c"",""projectId"":""a0a8f18c-a66e-4ba7-a170-23efbdc67501""}","https://test12345.live/?participantId=923D08CFD0894720B1F1D5D4C8C30F80&assignmentId=6dce60d4-c8ce-4581-afa5-616069d5228c&projectId=a0a8f18c-a66e-4ba7-a170-23efbdc67501","923D08CFD0894720B1F1D5D4C8C30F80-2024-11-24-17-39-24","","null","","images/semantic_sequence/physical_activity_semantic/physical_activity_semantic_2.png","null","",""
"","","","","","image-button-response","125","749308","0.0-16.0-1.0-1.1","923D08CFD0894720B1F1D5D4C8C30F80","923D08CFD0894720B1F1D5D4C8C30F80","6dce60d4-c8ce-4581-afa5-616069d5228c","a0a8f18c-a66e-4ba7-a170-23efbdc67501","{""participantId"":""923D08CFD0894720B1F1D5D4C8C30F80"",""assignmentId"":""6dce60d4-c8ce-4581-afa5-616069d5228c"",""projectId"":""a0a8f18c-a66e-4ba7-a170-23efbdc67501""}","https://test12345.live/?participantId=923D08CFD0894720B1F1D5D4C8C30F80&assignmentId=6dce60d4-c8ce-4581-afa5-616069d5228c&projectId=a0a8f18c-a66e-4ba7-a170-23efbdc67501","923D08CFD0894720B1F1D5D4C8C30F80-2024-11-24-17-39-24","","498","","images/semantic_sequence/physical_activity_semantic/physical_activity_semantic_2.png","0","",""
"","","","","","image-button-response","126","751115","0.0-16.0-1.0-2.1","923D08CFD0894720B1F1D5D4C8C30F80","923D08CFD0894720B1F1D5D4C8C30F80","6dce60d4-c8ce-4581-afa5-616069d5228c","a0a8f18c-a66e-4ba7-a170-23efbdc67501","{""participantId"":""923D08CFD0894720B1F1D5D4C8C30F80"",""assignmentId"":""6dce60d4-c8ce-4581-afa5-616069d5228c"",""projectId"":""a0a8f18c-a66e-4ba7-a170-23efbdc67501""}","https://test12345.live/?participantId=923D08CFD0894720B1F1D5D4C8C30F80&assignmentId=6dce60d4-c8ce-4581-afa5-616069d5228c&projectId=a0a8f18c-a66e-4ba7-a170-23efbdc67501","923D08CFD0894720B1F1D5D4C8C30F80-2024-11-24-17-39-24","","null","","[]","null","",""
"","","","","","image-button-response","127","755619","0.0-16.0-1.0-0.2","923D08CFD0894720B1F1D5D4C8C30F80","923D08CFD0894720B1F1D5D4C8C30F80","6dce60d4-c8ce-4581-afa5-616069d5228c","a0a8f18c-a66e-4ba7-a170-23efbdc67501","{""participantId"":""923D08CFD0894720B1F1D5D4C8C30F80"",""assignmentId"":""6dce60d4-c8ce-4581-afa5-616069d5228c"",""projectId"":""a0a8f18c-a66e-4ba7-a170-23efbdc67501""}","https://test12345.live/?participantId=923D08CFD0894720B1F1D5D4C8C30F80&assignmentId=6dce60d4-c8ce-4581-afa5-616069d5228c&projectId=a0a8f18c-a66e-4ba7-a170-23efbdc67501","923D08CFD0894720B1F1D5D4C8C30F80-2024-11-24-17-39-24","","null","","images/semantic_sequence/physical_activity_semantic/physical_activity_semantic_3.png","null","",""
"","","","","","image-button-response","128","756100","0.0-16.0-1.0-1.2","923D08CFD0894720B1F1D5D4C8C30F80","923D08CFD0894720B1F1D5D4C8C30F80","6dce60d4-c8ce-4581-afa5-616069d5228c","a0a8f18c-a66e-4ba7-a170-23efbdc67501","{""participantId"":""923D08CFD0894720B1F1D5D4C8C30F80"",""assignmentId"":""6dce60d4-c8ce-4581-afa5-616069d5228c"",""projectId"":""a0a8f18c-a66e-4ba7-a170-23efbdc67501""}","https://test12345.live/?participantId=923D08CFD0894720B1F1D5D4C8C30F80&assignmentId=6dce60d4-c8ce-4581-afa5-616069d5228c&projectId=a0a8f18c-a66e-4ba7-a170-23efbdc67501","923D08CFD0894720B1F1D5D4C8C30F80-2024-11-24-17-39-24","","480","","images/semantic_sequence/physical_activity_semantic/physical_activity_semantic_3.png","0","",""
"","","","","","image-button-response","129","757901","0.0-16.0-1.0-2.2","923D08CFD0894720B1F1D5D4C8C30F80","923D08CFD0894720B1F1D5D4C8C30F80","6dce60d4-c8ce-4581-afa5-616069d5228c","a0a8f18c-a66e-4ba7-a170-23efbdc67501","{""participantId"":""923D08CFD0894720B1F1D5D4C8C30F80"",""assignmentId"":""6dce60d4-c8ce-4581-afa5-616069d5228c"",""projectId"":""a0a8f18c-a66e-4ba7-a170-23efbdc67501""}","https://test12345.live/?participantId=923D08CFD0894720B1F1D5D4C8C30F80&assignmentId=6dce60d4-c8ce-4581-afa5-616069d5228c&projectId=a0a8f18c-a66e-4ba7-a170-23efbdc67501","923D08CFD0894720B1F1D5D4C8C30F80-2024-11-24-17-39-24","","null","","[]","null","",""
"","","","","","image-button-response","130","762417","0.0-16.0-1.0-0.3","923D08CFD0894720B1F1D5D4C8C30F80","923D08CFD0894720B1F1D5D4C8C30F80","6dce60d4-c8ce-4581-afa5-616069d5228c","a0a8f18c-a66e-4ba7-a170-23efbdc67501","{""participantId"":""923D08CFD0894720B1F1D5D4C8C30F80"",""assignmentId"":""6dce60d4-c8ce-4581-afa5-616069d5228c"",""projectId"":""a0a8f18c-a66e-4ba7-a170-23efbdc67501""}","https://test12345.live/?participantId=923D08CFD0894720B1F1D5D4C8C30F80&assignmentId=6dce60d4-c8ce-4581-afa5-616069d5228c&projectId=a0a8f18c-a66e-4ba7-a170-23efbdc67501","923D08CFD0894720B1F1D5D4C8C30F80-2024-11-24-17-39-24","","null","","images/semantic_sequence/physical_activity_semantic/physical_activity_semantic_4.png","null","",""
"","","","","","image-button-response","131","762900","0.0-16.0-1.0-1.3","923D08CFD0894720B1F1D5D4C8C30F80","923D08CFD0894720B1F1D5D4C8C30F80","6dce60d4-c8ce-4581-afa5-616069d5228c","a0a8f18c-a66e-4ba7-a170-23efbdc67501","{""participantId"":""923D08CFD0894720B1F1D5D4C8C30F80"",""assignmentId"":""6dce60d4-c8ce-4581-afa5-616069d5228c"",""projectId"":""a0a8f18c-a66e-4ba7-a170-23efbdc67501""}","https://test12345.live/?participantId=923D08CFD0894720B1F1D5D4C8C30F80&assignmentId=6dce60d4-c8ce-4581-afa5-616069d5228c&projectId=a0a8f18c-a66e-4ba7-a170-23efbdc67501","923D08CFD0894720B1F1D5D4C8C30F80-2024-11-24-17-39-24","","481","","images/semantic_sequence/physical_activity_semantic/physical_activity_semantic_4.png","0","",""
"","","","","","image-button-response","132","764702","0.0-16.0-1.0-2.3","923D08CFD0894720B1F1D5D4C8C30F80","923D08CFD0894720B1F1D5D4C8C30F80","6dce60d4-c8ce-4581-afa5-616069d5228c","a0a8f18c-a66e-4ba7-a170-23efbdc67501","{""participantId"":""923D08CFD0894720B1F1D5D4C8C30F80"",""assignmentId"":""6dce60d4-c8ce-4581-afa5-616069d5228c"",""projectId"":""a0a8f18c-a66e-4ba7-a170-23efbdc67501""}","https://test12345.live/?participantId=923D08CFD0894720B1F1D5D4C8C30F80&assignmentId=6dce60d4-c8ce-4581-afa5-616069d5228c&projectId=a0a8f18c-a66e-4ba7-a170-23efbdc67501","923D08CFD0894720B1F1D5D4C8C30F80-2024-11-24-17-39-24","","null","","[]","null","",""
"","","","","","image-button-response","133","769204","0.0-16.0-1.0-0.4","923D08CFD0894720B1F1D5D4C8C30F80","923D08CFD0894720B1F1D5D4C8C30F80","6dce60d4-c8ce-4581-afa5-616069d5228c","a0a8f18c-a66e-4ba7-a170-23efbdc67501","{""participantId"":""923D08CFD0894720B1F1D5D4C8C30F80"",""assignmentId"":""6dce60d4-c8ce-4581-afa5-616069d5228c"",""projectId"":""a0a8f18c-a66e-4ba7-a170-23efbdc67501""}","https://test12345.live/?participantId=923D08CFD0894720B1F1D5D4C8C30F80&assignmentId=6dce60d4-c8ce-4581-afa5-616069d5228c&projectId=a0a8f18c-a66e-4ba7-a170-23efbdc67501","923D08CFD0894720B1F1D5D4C8C30F80-2024-11-24-17-39-24","","null","","images/semantic_sequence/physical_activity_semantic/physical_activity_semantic_5.png","null","",""
"","","","","","image-button-response","134","770566","0.0-16.0-1.0-1.4","923D08CFD0894720B1F1D5D4C8C30F80","923D08CFD0894720B1F1D5D4C8C30F80","6dce60d4-c8ce-4581-afa5-616069d5228c","a0a8f18c-a66e-4ba7-a170-23efbdc67501","{""participantId"":""923D08CFD0894720B1F1D5D4C8C30F80"",""assignmentId"":""6dce60d4-c8ce-4581-afa5-616069d5228c"",""projectId"":""a0a8f18c-a66e-4ba7-a170-23efbdc67501""}","https://test12345.live/?participantId=923D08CFD0894720B1F1D5D4C8C30F80&assignmentId=6dce60d4-c8ce-4581-afa5-616069d5228c&projectId=a0a8f18c-a66e-4ba7-a170-23efbdc67501","923D08CFD0894720B1F1D5D4C8C30F80-2024-11-24-17-39-24","","1361","","images/semantic_sequence/physical_activity_semantic/physical_activity_semantic_5.png","0","",""
"","","","","","image-button-response","135","772375","0.0-16.0-1.0-2.4","923D08CFD0894720B1F1D5D4C8C30F80","923D08CFD0894720B1F1D5D4C8C30F80","6dce60d4-c8ce-4581-afa5-616069d5228c","a0a8f18c-a66e-4ba7-a170-23efbdc67501","{""participantId"":""923D08CFD0894720B1F1D5D4C8C30F80"",""assignmentId"":""6dce60d4-c8ce-4581-afa5-616069d5228c"",""projectId"":""a0a8f18c-a66e-4ba7-a170-23efbdc67501""}","https://test12345.live/?participantId=923D08CFD0894720B1F1D5D4C8C30F80&assignmentId=6dce60d4-c8ce-4581-afa5-616069d5228c&projectId=a0a8f18c-a66e-4ba7-a170-23efbdc67501","923D08CFD0894720B1F1D5D4C8C30F80-2024-11-24-17-39-24","","null","","[]","null","",""
"","","","","","image-button-response","136","776882","0.0-16.0-1.0-0.5","923D08CFD0894720B1F1D5D4C8C30F80","923D08CFD0894720B1F1D5D4C8C30F80","6dce60d4-c8ce-4581-afa5-616069d5228c","a0a8f18c-a66e-4ba7-a170-23efbdc67501","{""participantId"":""923D08CFD0894720B1F1D5D4C8C30F80"",""assignmentId"":""6dce60d4-c8ce-4581-afa5-616069d5228c"",""projectId"":""a0a8f18c-a66e-4ba7-a170-23efbdc67501""}","https://test12345.live/?participantId=923D08CFD0894720B1F1D5D4C8C30F80&assignmentId=6dce60d4-c8ce-4581-afa5-616069d5228c&projectId=a0a8f18c-a66e-4ba7-a170-23efbdc67501","923D08CFD0894720B1F1D5D4C8C30F80-2024-11-24-17-39-24","","null","","images/semantic_sequence/physical_activity_semantic/physical_activity_semantic_6.png","null","",""
"","","","","","image-button-response","137","777786","0.0-16.0-1.0-1.5","923D08CFD0894720B1F1D5D4C8C30F80","923D08CFD0894720B1F1D5D4C8C30F80","6dce60d4-c8ce-4581-afa5-616069d5228c","a0a8f18c-a66e-4ba7-a170-23efbdc67501","{""participantId"":""923D08CFD0894720B1F1D5D4C8C30F80"",""assignmentId"":""6dce60d4-c8ce-4581-afa5-616069d5228c"",""projectId"":""a0a8f18c-a66e-4ba7-a170-23efbdc67501""}","https://test12345.live/?participantId=923D08CFD0894720B1F1D5D4C8C30F80&assignmentId=6dce60d4-c8ce-4581-afa5-616069d5228c&projectId=a0a8f18c-a66e-4ba7-a170-23efbdc67501","923D08CFD0894720B1F1D5D4C8C30F80-2024-11-24-17-39-24","","903","","images/semantic_sequence/physical_activity_semantic/physical_activity_semantic_6.png","0","",""
"","","","","","image-button-response","138","779590","0.0-16.0-1.0-2.5","923D08CFD0894720B1F1D5D4C8C30F80","923D08CFD0894720B1F1D5D4C8C30F80","6dce60d4-c8ce-4581-afa5-616069d5228c","a0a8f18c-a66e-4ba7-a170-23efbdc67501","{""participantId"":""923D08CFD0894720B1F1D5D4C8C30F80"",""assignmentId"":""6dce60d4-c8ce-4581-afa5-616069d5228c"",""projectId"":""a0a8f18c-a66e-4ba7-a170-23efbdc67501""}","https://test12345.live/?participantId=923D08CFD0894720B1F1D5D4C8C30F80&assignmentId=6dce60d4-c8ce-4581-afa5-616069d5228c&projectId=a0a8f18c-a66e-4ba7-a170-23efbdc67501","923D08CFD0894720B1F1D5D4C8C30F80-2024-11-24-17-39-24","","null","","[]","null","",""
"","","","","","image-button-response","139","784104","0.0-16.0-1.0-0.6","923D08CFD0894720B1F1D5D4C8C30F80","923D08CFD0894720B1F1D5D4C8C30F80","6dce60d4-c8ce-4581-afa5-616069d5228c","a0a8f18c-a66e-4ba7-a170-23efbdc67501","{""participantId"":""923D08CFD0894720B1F1D5D4C8C30F80"",""assignmentId"":""6dce60d4-c8ce-4581-afa5-616069d5228c"",""projectId"":""a0a8f18c-a66e-4ba7-a170-23efbdc67501""}","https://test12345.live/?participantId=923D08CFD0894720B1F1D5D4C8C30F80&assignmentId=6dce60d4-c8ce-4581-afa5-616069d5228c&projectId=a0a8f18c-a66e-4ba7-a170-23efbdc67501","923D08CFD0894720B1F1D5D4C8C30F80-2024-11-24-17-39-24","","null","","images/semantic_sequence/physical_activity_semantic/physical_activity_semantic_7.png","null","",""
"","","","","","image-button-response","140","784836","0.0-16.0-1.0-1.6","923D08CFD0894720B1F1D5D4C8C30F80","923D08CFD0894720B1F1D5D4C8C30F80","6dce60d4-c8ce-4581-afa5-616069d5228c","a0a8f18c-a66e-4ba7-a170-23efbdc67501","{""participantId"":""923D08CFD0894720B1F1D5D4C8C30F80"",""assignmentId"":""6dce60d4-c8ce-4581-afa5-616069d5228c"",""projectId"":""a0a8f18c-a66e-4ba7-a170-23efbdc67501""}","https://test12345.live/?participantId=923D08CFD0894720B1F1D5D4C8C30F80&assignmentId=6dce60d4-c8ce-4581-afa5-616069d5228c&projectId=a0a8f18c-a66e-4ba7-a170-23efbdc67501","923D08CFD0894720B1F1D5D4C8C30F80-2024-11-24-17-39-24","","731","","images/semantic_sequence/physical_activity_semantic/physical_activity_semantic_7.png","0","",""
"","","","","","image-button-response","141","786642","0.0-16.0-1.0-2.6","923D08CFD0894720B1F1D5D4C8C30F80","923D08CFD0894720B1F1D5D4C8C30F80","6dce60d4-c8ce-4581-afa5-616069d5228c","a0a8f18c-a66e-4ba7-a170-23efbdc67501","{""participantId"":""923D08CFD0894720B1F1D5D4C8C30F80"",""assignmentId"":""6dce60d4-c8ce-4581-afa5-616069d5228c"",""projectId"":""a0a8f18c-a66e-4ba7-a170-23efbdc67501""}","https://test12345.live/?participantId=923D08CFD0894720B1F1D5D4C8C30F80&assignmentId=6dce60d4-c8ce-4581-afa5-616069d5228c&projectId=a0a8f18c-a66e-4ba7-a170-23efbdc67501","923D08CFD0894720B1F1D5D4C8C30F80-2024-11-24-17-39-24","","null","","[]","null","",""
"","","","","","image-button-response","142","791154","0.0-16.0-1.0-0.7","923D08CFD0894720B1F1D5D4C8C30F80","923D08CFD0894720B1F1D5D4C8C30F80","6dce60d4-c8ce-4581-afa5-616069d5228c","a0a8f18c-a66e-4ba7-a170-23efbdc67501","{""participantId"":""923D08CFD0894720B1F1D5D4C8C30F80"",""assignmentId"":""6dce60d4-c8ce-4581-afa5-616069d5228c"",""projectId"":""a0a8f18c-a66e-4ba7-a170-23efbdc67501""}","https://test12345.live/?participantId=923D08CFD0894720B1F1D5D4C8C30F80&assignmentId=6dce60d4-c8ce-4581-afa5-616069d5228c&projectId=a0a8f18c-a66e-4ba7-a170-23efbdc67501","923D08CFD0894720B1F1D5D4C8C30F80-2024-11-24-17-39-24","","null","","images/semantic_sequence/physical_activity_semantic/physical_activity_semantic_8.png","null","",""
