"success","timeout","failed_images","failed_audio","failed_video","trial_type","trial_index","time_elapsed","internal_node_id","subject","subject_id","study_id","session_id","urlvar","current_url","audio_id","view_history","rt","device_id","stimulus","response","estimated_stimulus_onset","seq_name"
"true","false","[]","[]","[]","preload","0","4812","0.0-0.0","945B815AA9D04EDBA58B91E4C01FA46D","945B815AA9D04EDBA58B91E4C01FA46D","0198be1e-e907-735c-926a-87e9f46d5e75","0198be1d-574a-752e-ae53-1d263a30e856","{""num_scrambled_semantic"":""8"",""num_scrambled_causal"":""4"",""num_scrambled_schematic"":""4"",""participantId"":""945B815AA9D04EDBA58B91E4C01FA46D"",""assignmentId"":""0198be1e-e907-735c-926a-87e9f46d5e75"",""projectId"":""0198be1d-574a-752e-ae53-1d263a30e856""}","https://test12345.live/?num_scrambled_semantic=8&num_scrambled_causal=4&num_scrambled_schematic=4&participantId=945B815AA9D04EDBA58B91E4C01FA46D&assignmentId=0198be1e-e907-735c-926a-87e9f46d5e75&projectId=0198be1d-574a-752e-ae53-1d263a30e856","945B815AA9D04EDBA58B91E4C01FA46D-2025-08-18-17-41-41","","","","","","",""
"","","","","","instructions","1","19790","0.0-1.0","945B815AA9D04EDBA58B91E4C01FA46D","945B815AA9D04EDBA58B91E4C01FA46D","0198be1e-e907-735c-926a-87e9f46d5e75","0198be1d-574a-752e-ae53-1d263a30e856","{""num_scrambled_semantic"":""8"",""num_scrambled_causal"":""4"",""num_scrambled_schematic"":""4"",""participantId"":""945B815AA9D04EDBA58B91E4C01FA46D"",""assignmentId"":""0198be1e-e907-735c-926a-87e9f46d5e75"",""projectId"":""0198be1d-574a-752e-ae53-1d263a30e856""}","https://test12345.live/?num_scrambled_semantic=8&num_scrambled_causal=4&num_scrambled_schematic=4&participantId=945B815AA9D04EDBA58B91E4C01FA46D&assignmentId=0198be1e-e907-735c-926a-87e9f46d5e75&projectId=0198be1d-574a-752e-ae53-1d263a30e856","945B815AA9D04EDBA58B91E4C01FA46D-2025-08-18-17-41-41","[{""page_index"":0,""viewing_time"":14978}]","14978","","","","",""
"","","","","","instructions","2","22024","0.0-2.0","945B815AA9D04EDBA58B91E4C01FA46D","945B815AA9D04EDBA58B91E4C01FA46D","0198be1e-e907-735c-926a-87e9f46d5e75","0198be1d-574a-752e-ae53-1d263a30e856","{""num_scrambled_semantic"":""8"",""num_scrambled_causal"":""4"",""num_scrambled_schematic"":""4"",""participantId"":""945B815AA9D04EDBA58B91E4C01FA46D"",""assignmentId"":""0198be1e-e907-735c-926a-87e9f46d5e75"",""projectId"":""0198be1d-574a-752e-ae53-1d263a30e856""}","https://test12345.live/?num_scrambled_semantic=8&num_scrambled_causal=4&num_scrambled_schematic=4&participantId=945B815AA9D04EDBA58B91E4C01FA46D&assignmentId=0198be1e-e907-735c-926a-87e9f46d5e75&projectId=0198be1d-574a-752e-ae53-1d263a30e856","945B815AA9D04EDBA58B91E4C01FA46D-2025-08-18-17-41-41","[{""page_index"":0,""viewing_time"":2233}]","2233","","","","",""
"true","","","","","fullscreen","3","23708","0.0-3.0","945B815AA9D04EDBA58B91E4C01FA46D","945B815AA9D04EDBA58B91E4C01FA46D","0198be1e-e907-735c-926a-87e9f46d5e75","0198be1d-574a-752e-ae53-1d263a30e856","{""num_scrambled_semantic"":""8"",""num_scrambled_causal"":""4"",""num_scrambled_schematic"":""4"",""participantId"":""945B815AA9D04EDBA58B91E4C01FA46D"",""assignmentId"":""0198be1e-e907-735c-926a-87e9f46d5e75"",""projectId"":""0198be1d-574a-752e-ae53-1d263a30e856""}","https://test12345.live/?num_scrambled_semantic=8&num_scrambled_causal=4&num_scrambled_schematic=4&participantId=945B815AA9D04EDBA58B91E4C01FA46D&assignmentId=0198be1e-e907-735c-926a-87e9f46d5e75&projectId=0198be1d-574a-752e-ae53-1d263a30e856","945B815AA9D04EDBA58B91E4C01FA46D-2025-08-18-17-41-41","","682","","","","",""
"","","","","","initialize-microphone","4","86778","0.0-4.0-0.0","945B815AA9D04EDBA58B91E4C01FA46D","945B815AA9D04EDBA58B91E4C01FA46D","0198be1e-e907-735c-926a-87e9f46d5e75","0198be1d-574a-752e-ae53-1d263a30e856","{""num_scrambled_semantic"":""8"",""num_scrambled_causal"":""4"",""num_scrambled_schematic"":""4"",""participantId"":""945B815AA9D04EDBA58B91E4C01FA46D"",""assignmentId"":""0198be1e-e907-735c-926a-87e9f46d5e75"",""projectId"":""0198be1d-574a-752e-ae53-1d263a30e856""}","https://test12345.live/?num_scrambled_semantic=8&num_scrambled_causal=4&num_scrambled_schematic=4&participantId=945B815AA9D04EDBA58B91E4C01FA46D&assignmentId=0198be1e-e907-735c-926a-87e9f46d5e75&projectId=0198be1d-574a-752e-ae53-1d263a30e856","945B815AA9D04EDBA58B91E4C01FA46D-2025-08-18-17-41-41","","","df2c82e7f20c4942cedbaeb2867f26d8547fd371170e979927641692eba1ad9c","","","",""
"","","","","","html-audio-response","5","223441","0.0-4.0-1.0","945B815AA9D04EDBA58B91E4C01FA46D","945B815AA9D04EDBA58B91E4C01FA46D","0198be1e-e907-735c-926a-87e9f46d5e75","0198be1d-574a-752e-ae53-1d263a30e856","{""num_scrambled_semantic"":""8"",""num_scrambled_causal"":""4"",""num_scrambled_schematic"":""4"",""participantId"":""945B815AA9D04EDBA58B91E4C01FA46D"",""assignmentId"":""0198be1e-e907-735c-926a-87e9f46d5e75"",""projectId"":""0198be1d-574a-752e-ae53-1d263a30e856""}","https://test12345.live/?num_scrambled_semantic=8&num_scrambled_causal=4&num_scrambled_schematic=4&participantId=945B815AA9D04EDBA58B91E4C01FA46D&assignmentId=0198be1e-e907-735c-926a-87e9f46d5e75&projectId=0198be1d-574a-752e-ae53-1d263a30e856","945B815AA9D04EDBA58B91E4C01FA46D-2025-08-18-17-41-41","","33812","","<span style=""color: red; font-size: 24px""> NOW RECORDING</span>
        <p>Please test Microphone</p>","","12",""
"","","","","","html-button-response","6","226607","0.0-4.0-2.0","945B815AA9D04EDBA58B91E4C01FA46D","945B815AA9D04EDBA58B91E4C01FA46D","0198be1e-e907-735c-926a-87e9f46d5e75","0198be1d-574a-752e-ae53-1d263a30e856","{""num_scrambled_semantic"":""8"",""num_scrambled_causal"":""4"",""num_scrambled_schematic"":""4"",""participantId"":""945B815AA9D04EDBA58B91E4C01FA46D"",""assignmentId"":""0198be1e-e907-735c-926a-87e9f46d5e75"",""projectId"":""0198be1d-574a-752e-ae53-1d263a30e856""}","https://test12345.live/?num_scrambled_semantic=8&num_scrambled_causal=4&num_scrambled_schematic=4&participantId=945B815AA9D04EDBA58B91E4C01FA46D&assignmentId=0198be1e-e907-735c-926a-87e9f46d5e75&projectId=0198be1d-574a-752e-ae53-1d263a30e856","945B815AA9D04EDBA58B91E4C01FA46D-2025-08-18-17-41-41","","3165","","<p style=""font-size:48px; color:red;"">Is Microphone OK?</p>","1","",""
"","","","","","instructions","7","229973","0.0-5.0","945B815AA9D04EDBA58B91E4C01FA46D","945B815AA9D04EDBA58B91E4C01FA46D","0198be1e-e907-735c-926a-87e9f46d5e75","0198be1d-574a-752e-ae53-1d263a30e856","{""num_scrambled_semantic"":""8"",""num_scrambled_causal"":""4"",""num_scrambled_schematic"":""4"",""participantId"":""945B815AA9D04EDBA58B91E4C01FA46D"",""assignmentId"":""0198be1e-e907-735c-926a-87e9f46d5e75"",""projectId"":""0198be1d-574a-752e-ae53-1d263a30e856""}","https://test12345.live/?num_scrambled_semantic=8&num_scrambled_causal=4&num_scrambled_schematic=4&participantId=945B815AA9D04EDBA58B91E4C01FA46D&assignmentId=0198be1e-e907-735c-926a-87e9f46d5e75&projectId=0198be1d-574a-752e-ae53-1d263a30e856","945B815AA9D04EDBA58B91E4C01FA46D-2025-08-18-17-41-41","[{""page_index"":0,""viewing_time"":2298},{""page_index"":1,""viewing_time"":1067}]","3365","","","","",""
"","","","","","image-button-response","8","235981","0.0-6.0-0.0","945B815AA9D04EDBA58B91E4C01FA46D","945B815AA9D04EDBA58B91E4C01FA46D","0198be1e-e907-735c-926a-87e9f46d5e75","0198be1d-574a-752e-ae53-1d263a30e856","{""num_scrambled_semantic"":""8"",""num_scrambled_causal"":""4"",""num_scrambled_schematic"":""4"",""participantId"":""945B815AA9D04EDBA58B91E4C01FA46D"",""assignmentId"":""0198be1e-e907-735c-926a-87e9f46d5e75"",""projectId"":""0198be1d-574a-752e-ae53-1d263a30e856""}","https://test12345.live/?num_scrambled_semantic=8&num_scrambled_causal=4&num_scrambled_schematic=4&participantId=945B815AA9D04EDBA58B91E4C01FA46D&assignmentId=0198be1e-e907-735c-926a-87e9f46d5e75&projectId=0198be1d-574a-752e-ae53-1d263a30e856","945B815AA9D04EDBA58B91E4C01FA46D-2025-08-18-17-41-41","","null","","images/instructions/movie_0.png","null","",""
"","","","","","image-button-response","9","240483","0.0-6.0-1.0-0.0","945B815AA9D04EDBA58B91E4C01FA46D","945B815AA9D04EDBA58B91E4C01FA46D","0198be1e-e907-735c-926a-87e9f46d5e75","0198be1d-574a-752e-ae53-1d263a30e856","{""num_scrambled_semantic"":""8"",""num_scrambled_causal"":""4"",""num_scrambled_schematic"":""4"",""participantId"":""945B815AA9D04EDBA58B91E4C01FA46D"",""assignmentId"":""0198be1e-e907-735c-926a-87e9f46d5e75"",""projectId"":""0198be1d-574a-752e-ae53-1d263a30e856""}","https://test12345.live/?num_scrambled_semantic=8&num_scrambled_causal=4&num_scrambled_schematic=4&participantId=945B815AA9D04EDBA58B91E4C01FA46D&assignmentId=0198be1e-e907-735c-926a-87e9f46d5e75&projectId=0198be1d-574a-752e-ae53-1d263a30e856","945B815AA9D04EDBA58B91E4C01FA46D-2025-08-18-17-41-41","","null","","images/instructions/movie_1.png","null","",""
"","","","","","image-button-response","10","243706","0.0-6.0-1.0-1.0","945B815AA9D04EDBA58B91E4C01FA46D","945B815AA9D04EDBA58B91E4C01FA46D","0198be1e-e907-735c-926a-87e9f46d5e75","0198be1d-574a-752e-ae53-1d263a30e856","{""num_scrambled_semantic"":""8"",""num_scrambled_causal"":""4"",""num_scrambled_schematic"":""4"",""participantId"":""945B815AA9D04EDBA58B91E4C01FA46D"",""assignmentId"":""0198be1e-e907-735c-926a-87e9f46d5e75"",""projectId"":""0198be1d-574a-752e-ae53-1d263a30e856""}","https://test12345.live/?num_scrambled_semantic=8&num_scrambled_causal=4&num_scrambled_schematic=4&participantId=945B815AA9D04EDBA58B91E4C01FA46D&assignmentId=0198be1e-e907-735c-926a-87e9f46d5e75&projectId=0198be1d-574a-752e-ae53-1d263a30e856","945B815AA9D04EDBA58B91E4C01FA46D-2025-08-18-17-41-41","","3222","","images/instructions/movie_1.png","0","",""
"","","","","","image-button-response","11","254513","0.0-6.0-1.0-2.0","945B815AA9D04EDBA58B91E4C01FA46D","945B815AA9D04EDBA58B91E4C01FA46D","0198be1e-e907-735c-926a-87e9f46d5e75","0198be1d-574a-752e-ae53-1d263a30e856","{""num_scrambled_semantic"":""8"",""num_scrambled_causal"":""4"",""num_scrambled_schematic"":""4"",""participantId"":""945B815AA9D04EDBA58B91E4C01FA46D"",""assignmentId"":""0198be1e-e907-735c-926a-87e9f46d5e75"",""projectId"":""0198be1d-574a-752e-ae53-1d263a30e856""}","https://test12345.live/?num_scrambled_semantic=8&num_scrambled_causal=4&num_scrambled_schematic=4&participantId=945B815AA9D04EDBA58B91E4C01FA46D&assignmentId=0198be1e-e907-735c-926a-87e9f46d5e75&projectId=0198be1d-574a-752e-ae53-1d263a30e856","945B815AA9D04EDBA58B91E4C01FA46D-2025-08-18-17-41-41","","null","","[]","null","",""
"","","","","","image-button-response","12","259015","0.0-6.0-1.0-0.1","945B815AA9D04EDBA58B91E4C01FA46D","945B815AA9D04EDBA58B91E4C01FA46D","0198be1e-e907-735c-926a-87e9f46d5e75","0198be1d-574a-752e-ae53-1d263a30e856","{""num_scrambled_semantic"":""8"",""num_scrambled_causal"":""4"",""num_scrambled_schematic"":""4"",""participantId"":""945B815AA9D04EDBA58B91E4C01FA46D"",""assignmentId"":""0198be1e-e907-735c-926a-87e9f46d5e75"",""projectId"":""0198be1d-574a-752e-ae53-1d263a30e856""}","https://test12345.live/?num_scrambled_semantic=8&num_scrambled_causal=4&num_scrambled_schematic=4&participantId=945B815AA9D04EDBA58B91E4C01FA46D&assignmentId=0198be1e-e907-735c-926a-87e9f46d5e75&projectId=0198be1d-574a-752e-ae53-1d263a30e856","945B815AA9D04EDBA58B91E4C01FA46D-2025-08-18-17-41-41","","null","","images/instructions/movie_2.png","null","",""
"","","","","","image-button-response","13","260873","0.0-6.0-1.0-1.1","945B815AA9D04EDBA58B91E4C01FA46D","945B815AA9D04EDBA58B91E4C01FA46D","0198be1e-e907-735c-926a-87e9f46d5e75","0198be1d-574a-752e-ae53-1d263a30e856","{""num_scrambled_semantic"":""8"",""num_scrambled_causal"":""4"",""num_scrambled_schematic"":""4"",""participantId"":""945B815AA9D04EDBA58B91E4C01FA46D"",""assignmentId"":""0198be1e-e907-735c-926a-87e9f46d5e75"",""projectId"":""0198be1d-574a-752e-ae53-1d263a30e856""}","https://test12345.live/?num_scrambled_semantic=8&num_scrambled_causal=4&num_scrambled_schematic=4&participantId=945B815AA9D04EDBA58B91E4C01FA46D&assignmentId=0198be1e-e907-735c-926a-87e9f46d5e75&projectId=0198be1d-574a-752e-ae53-1d263a30e856","945B815AA9D04EDBA58B91E4C01FA46D-2025-08-18-17-41-41","","1856","","images/instructions/movie_2.png","0","",""
"","","","","","image-button-response","14","271678","0.0-6.0-1.0-2.1","945B815AA9D04EDBA58B91E4C01FA46D","945B815AA9D04EDBA58B91E4C01FA46D","0198be1e-e907-735c-926a-87e9f46d5e75","0198be1d-574a-752e-ae53-1d263a30e856","{""num_scrambled_semantic"":""8"",""num_scrambled_causal"":""4"",""num_scrambled_schematic"":""4"",""participantId"":""945B815AA9D04EDBA58B91E4C01FA46D"",""assignmentId"":""0198be1e-e907-735c-926a-87e9f46d5e75"",""projectId"":""0198be1d-574a-752e-ae53-1d263a30e856""}","https://test12345.live/?num_scrambled_semantic=8&num_scrambled_causal=4&num_scrambled_schematic=4&participantId=945B815AA9D04EDBA58B91E4C01FA46D&assignmentId=0198be1e-e907-735c-926a-87e9f46d5e75&projectId=0198be1d-574a-752e-ae53-1d263a30e856","945B815AA9D04EDBA58B91E4C01FA46D-2025-08-18-17-41-41","","null","","[]","null","",""
"","","","","","image-button-response","15","276180","0.0-6.0-1.0-0.2","945B815AA9D04EDBA58B91E4C01FA46D","945B815AA9D04EDBA58B91E4C01FA46D","0198be1e-e907-735c-926a-87e9f46d5e75","0198be1d-574a-752e-ae53-1d263a30e856","{""num_scrambled_semantic"":""8"",""num_scrambled_causal"":""4"",""num_scrambled_schematic"":""4"",""participantId"":""945B815AA9D04EDBA58B91E4C01FA46D"",""assignmentId"":""0198be1e-e907-735c-926a-87e9f46d5e75"",""projectId"":""0198be1d-574a-752e-ae53-1d263a30e856""}","https://test12345.live/?num_scrambled_semantic=8&num_scrambled_causal=4&num_scrambled_schematic=4&participantId=945B815AA9D04EDBA58B91E4C01FA46D&assignmentId=0198be1e-e907-735c-926a-87e9f46d5e75&projectId=0198be1d-574a-752e-ae53-1d263a30e856","945B815AA9D04EDBA58B91E4C01FA46D-2025-08-18-17-41-41","","null","","images/instructions/movie_3.png","null","",""
"","","","","","image-button-response","16","277390","0.0-6.0-1.0-1.2","945B815AA9D04EDBA58B91E4C01FA46D","945B815AA9D04EDBA58B91E4C01FA46D","0198be1e-e907-735c-926a-87e9f46d5e75","0198be1d-574a-752e-ae53-1d263a30e856","{""num_scrambled_semantic"":""8"",""num_scrambled_causal"":""4"",""num_scrambled_schematic"":""4"",""participantId"":""945B815AA9D04EDBA58B91E4C01FA46D"",""assignmentId"":""0198be1e-e907-735c-926a-87e9f46d5e75"",""projectId"":""0198be1d-574a-752e-ae53-1d263a30e856""}","https://test12345.live/?num_scrambled_semantic=8&num_scrambled_causal=4&num_scrambled_schematic=4&participantId=945B815AA9D04EDBA58B91E4C01FA46D&assignmentId=0198be1e-e907-735c-926a-87e9f46d5e75&projectId=0198be1d-574a-752e-ae53-1d263a30e856","945B815AA9D04EDBA58B91E4C01FA46D-2025-08-18-17-41-41","","1208","","images/instructions/movie_3.png","0","",""
"","","","","","image-button-response","17","288193","0.0-6.0-1.0-2.2","945B815AA9D04EDBA58B91E4C01FA46D","945B815AA9D04EDBA58B91E4C01FA46D","0198be1e-e907-735c-926a-87e9f46d5e75","0198be1d-574a-752e-ae53-1d263a30e856","{""num_scrambled_semantic"":""8"",""num_scrambled_causal"":""4"",""num_scrambled_schematic"":""4"",""participantId"":""945B815AA9D04EDBA58B91E4C01FA46D"",""assignmentId"":""0198be1e-e907-735c-926a-87e9f46d5e75"",""projectId"":""0198be1d-574a-752e-ae53-1d263a30e856""}","https://test12345.live/?num_scrambled_semantic=8&num_scrambled_causal=4&num_scrambled_schematic=4&participantId=945B815AA9D04EDBA58B91E4C01FA46D&assignmentId=0198be1e-e907-735c-926a-87e9f46d5e75&projectId=0198be1d-574a-752e-ae53-1d263a30e856","945B815AA9D04EDBA58B91E4C01FA46D-2025-08-18-17-41-41","","null","","[]","null","",""
"","","","","","image-button-response","18","292696","0.0-6.0-1.0-0.3","945B815AA9D04EDBA58B91E4C01FA46D","945B815AA9D04EDBA58B91E4C01FA46D","0198be1e-e907-735c-926a-87e9f46d5e75","0198be1d-574a-752e-ae53-1d263a30e856","{""num_scrambled_semantic"":""8"",""num_scrambled_causal"":""4"",""num_scrambled_schematic"":""4"",""participantId"":""945B815AA9D04EDBA58B91E4C01FA46D"",""assignmentId"":""0198be1e-e907-735c-926a-87e9f46d5e75"",""projectId"":""0198be1d-574a-752e-ae53-1d263a30e856""}","https://test12345.live/?num_scrambled_semantic=8&num_scrambled_causal=4&num_scrambled_schematic=4&participantId=945B815AA9D04EDBA58B91E4C01FA46D&assignmentId=0198be1e-e907-735c-926a-87e9f46d5e75&projectId=0198be1d-574a-752e-ae53-1d263a30e856","945B815AA9D04EDBA58B91E4C01FA46D-2025-08-18-17-41-41","","null","","images/instructions/movie_4.png","null","",""
"","","","","","image-button-response","19","295256","0.0-6.0-1.0-1.3","945B815AA9D04EDBA58B91E4C01FA46D","945B815AA9D04EDBA58B91E4C01FA46D","0198be1e-e907-735c-926a-87e9f46d5e75","0198be1d-574a-752e-ae53-1d263a30e856","{""num_scrambled_semantic"":""8"",""num_scrambled_causal"":""4"",""num_scrambled_schematic"":""4"",""participantId"":""945B815AA9D04EDBA58B91E4C01FA46D"",""assignmentId"":""0198be1e-e907-735c-926a-87e9f46d5e75"",""projectId"":""0198be1d-574a-752e-ae53-1d263a30e856""}","https://test12345.live/?num_scrambled_semantic=8&num_scrambled_causal=4&num_scrambled_schematic=4&participantId=945B815AA9D04EDBA58B91E4C01FA46D&assignmentId=0198be1e-e907-735c-926a-87e9f46d5e75&projectId=0198be1d-574a-752e-ae53-1d263a30e856","945B815AA9D04EDBA58B91E4C01FA46D-2025-08-18-17-41-41","","2559","","images/instructions/movie_4.png","0","",""
"","","","","","image-button-response","20","306061","0.0-6.0-1.0-2.3","945B815AA9D04EDBA58B91E4C01FA46D","945B815AA9D04EDBA58B91E4C01FA46D","0198be1e-e907-735c-926a-87e9f46d5e75","0198be1d-574a-752e-ae53-1d263a30e856","{""num_scrambled_semantic"":""8"",""num_scrambled_causal"":""4"",""num_scrambled_schematic"":""4"",""participantId"":""945B815AA9D04EDBA58B91E4C01FA46D"",""assignmentId"":""0198be1e-e907-735c-926a-87e9f46d5e75"",""projectId"":""0198be1d-574a-752e-ae53-1d263a30e856""}","https://test12345.live/?num_scrambled_semantic=8&num_scrambled_causal=4&num_scrambled_schematic=4&participantId=945B815AA9D04EDBA58B91E4C01FA46D&assignmentId=0198be1e-e907-735c-926a-87e9f46d5e75&projectId=0198be1d-574a-752e-ae53-1d263a30e856","945B815AA9D04EDBA58B91E4C01FA46D-2025-08-18-17-41-41","","null","","[]","null","",""
"","","","","","instructions","21","343422","0.0-7.0","945B815AA9D04EDBA58B91E4C01FA46D","945B815AA9D04EDBA58B91E4C01FA46D","0198be1e-e907-735c-926a-87e9f46d5e75","0198be1d-574a-752e-ae53-1d263a30e856","{""num_scrambled_semantic"":""8"",""num_scrambled_causal"":""4"",""num_scrambled_schematic"":""4"",""participantId"":""945B815AA9D04EDBA58B91E4C01FA46D"",""assignmentId"":""0198be1e-e907-735c-926a-87e9f46d5e75"",""projectId"":""0198be1d-574a-752e-ae53-1d263a30e856""}","https://test12345.live/?num_scrambled_semantic=8&num_scrambled_causal=4&num_scrambled_schematic=4&participantId=945B815AA9D04EDBA58B91E4C01FA46D&assignmentId=0198be1e-e907-735c-926a-87e9f46d5e75&projectId=0198be1d-574a-752e-ae53-1d263a30e856","945B815AA9D04EDBA58B91E4C01FA46D-2025-08-18-17-41-41","[{""page_index"":0,""viewing_time"":36695},{""page_index"":1,""viewing_time"":666}]","37361","","","","",""
"","","","","","html-audio-response","22","389040","0.0-8.0","945B815AA9D04EDBA58B91E4C01FA46D","945B815AA9D04EDBA58B91E4C01FA46D","0198be1e-e907-735c-926a-87e9f46d5e75","0198be1d-574a-752e-ae53-1d263a30e856","{""num_scrambled_semantic"":""8"",""num_scrambled_causal"":""4"",""num_scrambled_schematic"":""4"",""participantId"":""945B815AA9D04EDBA58B91E4C01FA46D"",""assignmentId"":""0198be1e-e907-735c-926a-87e9f46d5e75"",""projectId"":""0198be1d-574a-752e-ae53-1d263a30e856""}","https://test12345.live/?num_scrambled_semantic=8&num_scrambled_causal=4&num_scrambled_schematic=4&participantId=945B815AA9D04EDBA58B91E4C01FA46D&assignmentId=0198be1e-e907-735c-926a-87e9f46d5e75&projectId=0198be1d-574a-752e-ae53-1d263a30e856","945B815AA9D04EDBA58B91E4C01FA46D-2025-08-18-17-41-41","","22896","","[""<span style=\""color: red; font-size: 24px\""> NOW RECORDING</span><p>Please say out loud all the images you saw in the exact order you saw them. Try to recall as many images as you can, but remember: getting the order right is more important than the number of images you recall.</p>""]","","2",""
"","","","","","instructions","23","390106","0.0-9.0","945B815AA9D04EDBA58B91E4C01FA46D","945B815AA9D04EDBA58B91E4C01FA46D","0198be1e-e907-735c-926a-87e9f46d5e75","0198be1d-574a-752e-ae53-1d263a30e856","{""num_scrambled_semantic"":""8"",""num_scrambled_causal"":""4"",""num_scrambled_schematic"":""4"",""participantId"":""945B815AA9D04EDBA58B91E4C01FA46D"",""assignmentId"":""0198be1e-e907-735c-926a-87e9f46d5e75"",""projectId"":""0198be1d-574a-752e-ae53-1d263a30e856""}","https://test12345.live/?num_scrambled_semantic=8&num_scrambled_causal=4&num_scrambled_schematic=4&participantId=945B815AA9D04EDBA58B91E4C01FA46D&assignmentId=0198be1e-e907-735c-926a-87e9f46d5e75&projectId=0198be1d-574a-752e-ae53-1d263a30e856","945B815AA9D04EDBA58B91E4C01FA46D-2025-08-18-17-41-41","[{""page_index"":0,""viewing_time"":1062}]","1062","","","","",""
"","","","","","image-button-response","24","396109","0.0-10.0-0.0","945B815AA9D04EDBA58B91E4C01FA46D","945B815AA9D04EDBA58B91E4C01FA46D","0198be1e-e907-735c-926a-87e9f46d5e75","0198be1d-574a-752e-ae53-1d263a30e856","{""num_scrambled_semantic"":""8"",""num_scrambled_causal"":""4"",""num_scrambled_schematic"":""4"",""participantId"":""945B815AA9D04EDBA58B91E4C01FA46D"",""assignmentId"":""0198be1e-e907-735c-926a-87e9f46d5e75"",""projectId"":""0198be1d-574a-752e-ae53-1d263a30e856""}","https://test12345.live/?num_scrambled_semantic=8&num_scrambled_causal=4&num_scrambled_schematic=4&participantId=945B815AA9D04EDBA58B91E4C01FA46D&assignmentId=0198be1e-e907-735c-926a-87e9f46d5e75&projectId=0198be1d-574a-752e-ae53-1d263a30e856","945B815AA9D04EDBA58B91E4C01FA46D-2025-08-18-17-41-41","","null","","images/semantic_sequence/redecorating_semantic/redecorating_semantic_0.png","null","",""
"","","","","","image-button-response","25","400613","0.0-10.0-1.0-0.0","945B815AA9D04EDBA58B91E4C01FA46D","945B815AA9D04EDBA58B91E4C01FA46D","0198be1e-e907-735c-926a-87e9f46d5e75","0198be1d-574a-752e-ae53-1d263a30e856","{""num_scrambled_semantic"":""8"",""num_scrambled_causal"":""4"",""num_scrambled_schematic"":""4"",""participantId"":""945B815AA9D04EDBA58B91E4C01FA46D"",""assignmentId"":""0198be1e-e907-735c-926a-87e9f46d5e75"",""projectId"":""0198be1d-574a-752e-ae53-1d263a30e856""}","https://test12345.live/?num_scrambled_semantic=8&num_scrambled_causal=4&num_scrambled_schematic=4&participantId=945B815AA9D04EDBA58B91E4C01FA46D&assignmentId=0198be1e-e907-735c-926a-87e9f46d5e75&projectId=0198be1d-574a-752e-ae53-1d263a30e856","945B815AA9D04EDBA58B91E4C01FA46D-2025-08-18-17-41-41","","null","","images/semantic_sequence/redecorating_semantic/redecorating_semantic_9.png","null","",""
"","","","","","image-button-response","26","403789","0.0-10.0-1.0-1.0","945B815AA9D04EDBA58B91E4C01FA46D","945B815AA9D04EDBA58B91E4C01FA46D","0198be1e-e907-735c-926a-87e9f46d5e75","0198be1d-574a-752e-ae53-1d263a30e856","{""num_scrambled_semantic"":""8"",""num_scrambled_causal"":""4"",""num_scrambled_schematic"":""4"",""participantId"":""945B815AA9D04EDBA58B91E4C01FA46D"",""assignmentId"":""0198be1e-e907-735c-926a-87e9f46d5e75"",""projectId"":""0198be1d-574a-752e-ae53-1d263a30e856""}","https://test12345.live/?num_scrambled_semantic=8&num_scrambled_causal=4&num_scrambled_schematic=4&participantId=945B815AA9D04EDBA58B91E4C01FA46D&assignmentId=0198be1e-e907-735c-926a-87e9f46d5e75&projectId=0198be1d-574a-752e-ae53-1d263a30e856","945B815AA9D04EDBA58B91E4C01FA46D-2025-08-18-17-41-41","","3175","","images/semantic_sequence/redecorating_semantic/redecorating_semantic_9.png","0","",""
"","","","","","image-button-response","27","414593","0.0-10.0-1.0-2.0","945B815AA9D04EDBA58B91E4C01FA46D","945B815AA9D04EDBA58B91E4C01FA46D","0198be1e-e907-735c-926a-87e9f46d5e75","0198be1d-574a-752e-ae53-1d263a30e856","{""num_scrambled_semantic"":""8"",""num_scrambled_causal"":""4"",""num_scrambled_schematic"":""4"",""participantId"":""945B815AA9D04EDBA58B91E4C01FA46D"",""assignmentId"":""0198be1e-e907-735c-926a-87e9f46d5e75"",""projectId"":""0198be1d-574a-752e-ae53-1d263a30e856""}","https://test12345.live/?num_scrambled_semantic=8&num_scrambled_causal=4&num_scrambled_schematic=4&participantId=945B815AA9D04EDBA58B91E4C01FA46D&assignmentId=0198be1e-e907-735c-926a-87e9f46d5e75&projectId=0198be1d-574a-752e-ae53-1d263a30e856","945B815AA9D04EDBA58B91E4C01FA46D-2025-08-18-17-41-41","","null","","[]","null","",""
"","","","","","image-button-response","28","419100","0.0-10.0-1.0-0.1","945B815AA9D04EDBA58B91E4C01FA46D","945B815AA9D04EDBA58B91E4C01FA46D","0198be1e-e907-735c-926a-87e9f46d5e75","0198be1d-574a-752e-ae53-1d263a30e856","{""num_scrambled_semantic"":""8"",""num_scrambled_causal"":""4"",""num_scrambled_schematic"":""4"",""participantId"":""945B815AA9D04EDBA58B91E4C01FA46D"",""assignmentId"":""0198be1e-e907-735c-926a-87e9f46d5e75"",""projectId"":""0198be1d-574a-752e-ae53-1d263a30e856""}","https://test12345.live/?num_scrambled_semantic=8&num_scrambled_causal=4&num_scrambled_schematic=4&participantId=945B815AA9D04EDBA58B91E4C01FA46D&assignmentId=0198be1e-e907-735c-926a-87e9f46d5e75&projectId=0198be1d-574a-752e-ae53-1d263a30e856","945B815AA9D04EDBA58B91E4C01FA46D-2025-08-18-17-41-41","","null","","images/semantic_sequence/redecorating_semantic/redecorating_semantic_3.png","null","",""
"","","","","","image-button-response","29","423103","0.0-10.0-1.0-1.1","945B815AA9D04EDBA58B91E4C01FA46D","945B815AA9D04EDBA58B91E4C01FA46D","0198be1e-e907-735c-926a-87e9f46d5e75","0198be1d-574a-752e-ae53-1d263a30e856","{""num_scrambled_semantic"":""8"",""num_scrambled_causal"":""4"",""num_scrambled_schematic"":""4"",""participantId"":""945B815AA9D04EDBA58B91E4C01FA46D"",""assignmentId"":""0198be1e-e907-735c-926a-87e9f46d5e75"",""projectId"":""0198be1d-574a-752e-ae53-1d263a30e856""}","https://test12345.live/?num_scrambled_semantic=8&num_scrambled_causal=4&num_scrambled_schematic=4&participantId=945B815AA9D04EDBA58B91E4C01FA46D&assignmentId=0198be1e-e907-735c-926a-87e9f46d5e75&projectId=0198be1d-574a-752e-ae53-1d263a30e856","945B815AA9D04EDBA58B91E4C01FA46D-2025-08-18-17-41-41","","null","","images/semantic_sequence/redecorating_semantic/redecorating_semantic_3.png","null","",""
"","","","","","image-button-response","30","433909","0.0-10.0-1.0-2.1","945B815AA9D04EDBA58B91E4C01FA46D","945B815AA9D04EDBA58B91E4C01FA46D","0198be1e-e907-735c-926a-87e9f46d5e75","0198be1d-574a-752e-ae53-1d263a30e856","{""num_scrambled_semantic"":""8"",""num_scrambled_causal"":""4"",""num_scrambled_schematic"":""4"",""participantId"":""945B815AA9D04EDBA58B91E4C01FA46D"",""assignmentId"":""0198be1e-e907-735c-926a-87e9f46d5e75"",""projectId"":""0198be1d-574a-752e-ae53-1d263a30e856""}","https://test12345.live/?num_scrambled_semantic=8&num_scrambled_causal=4&num_scrambled_schematic=4&participantId=945B815AA9D04EDBA58B91E4C01FA46D&assignmentId=0198be1e-e907-735c-926a-87e9f46d5e75&projectId=0198be1d-574a-752e-ae53-1d263a30e856","945B815AA9D04EDBA58B91E4C01FA46D-2025-08-18-17-41-41","","null","","[]","null","",""
"","","","","","image-button-response","31","438415","0.0-10.0-1.0-0.2","945B815AA9D04EDBA58B91E4C01FA46D","945B815AA9D04EDBA58B91E4C01FA46D","0198be1e-e907-735c-926a-87e9f46d5e75","0198be1d-574a-752e-ae53-1d263a30e856","{""num_scrambled_semantic"":""8"",""num_scrambled_causal"":""4"",""num_scrambled_schematic"":""4"",""participantId"":""945B815AA9D04EDBA58B91E4C01FA46D"",""assignmentId"":""0198be1e-e907-735c-926a-87e9f46d5e75"",""projectId"":""0198be1d-574a-752e-ae53-1d263a30e856""}","https://test12345.live/?num_scrambled_semantic=8&num_scrambled_causal=4&num_scrambled_schematic=4&participantId=945B815AA9D04EDBA58B91E4C01FA46D&assignmentId=0198be1e-e907-735c-926a-87e9f46d5e75&projectId=0198be1d-574a-752e-ae53-1d263a30e856","945B815AA9D04EDBA58B91E4C01FA46D-2025-08-18-17-41-41","","null","","images/semantic_sequence/redecorating_semantic/redecorating_semantic_8.png","null","",""
"","","","","","image-button-response","32","439738","0.0-10.0-1.0-1.2","945B815AA9D04EDBA58B91E4C01FA46D","945B815AA9D04EDBA58B91E4C01FA46D","0198be1e-e907-735c-926a-87e9f46d5e75","0198be1d-574a-752e-ae53-1d263a30e856","{""num_scrambled_semantic"":""8"",""num_scrambled_causal"":""4"",""num_scrambled_schematic"":""4"",""participantId"":""945B815AA9D04EDBA58B91E4C01FA46D"",""assignmentId"":""0198be1e-e907-735c-926a-87e9f46d5e75"",""projectId"":""0198be1d-574a-752e-ae53-1d263a30e856""}","https://test12345.live/?num_scrambled_semantic=8&num_scrambled_causal=4&num_scrambled_schematic=4&participantId=945B815AA9D04EDBA58B91E4C01FA46D&assignmentId=0198be1e-e907-735c-926a-87e9f46d5e75&projectId=0198be1d-574a-752e-ae53-1d263a30e856","945B815AA9D04EDBA58B91E4C01FA46D-2025-08-18-17-41-41","","1322","","images/semantic_sequence/redecorating_semantic/redecorating_semantic_8.png","0","",""
"","","","","","image-button-response","33","450540","0.0-10.0-1.0-2.2","945B815AA9D04EDBA58B91E4C01FA46D","945B815AA9D04EDBA58B91E4C01FA46D","0198be1e-e907-735c-926a-87e9f46d5e75","0198be1d-574a-752e-ae53-1d263a30e856","{""num_scrambled_semantic"":""8"",""num_scrambled_causal"":""4"",""num_scrambled_schematic"":""4"",""participantId"":""945B815AA9D04EDBA58B91E4C01FA46D"",""assignmentId"":""0198be1e-e907-735c-926a-87e9f46d5e75"",""projectId"":""0198be1d-574a-752e-ae53-1d263a30e856""}","https://test12345.live/?num_scrambled_semantic=8&num_scrambled_causal=4&num_scrambled_schematic=4&participantId=945B815AA9D04EDBA58B91E4C01FA46D&assignmentId=0198be1e-e907-735c-926a-87e9f46d5e75&projectId=0198be1d-574a-752e-ae53-1d263a30e856","945B815AA9D04EDBA58B91E4C01FA46D-2025-08-18-17-41-41","","null","","[]","null","",""
"","","","","","image-button-response","34","455043","0.0-10.0-1.0-0.3","945B815AA9D04EDBA58B91E4C01FA46D","945B815AA9D04EDBA58B91E4C01FA46D","0198be1e-e907-735c-926a-87e9f46d5e75","0198be1d-574a-752e-ae53-1d263a30e856","{""num_scrambled_semantic"":""8"",""num_scrambled_causal"":""4"",""num_scrambled_schematic"":""4"",""participantId"":""945B815AA9D04EDBA58B91E4C01FA46D"",""assignmentId"":""0198be1e-e907-735c-926a-87e9f46d5e75"",""projectId"":""0198be1d-574a-752e-ae53-1d263a30e856""}","https://test12345.live/?num_scrambled_semantic=8&num_scrambled_causal=4&num_scrambled_schematic=4&participantId=945B815AA9D04EDBA58B91E4C01FA46D&assignmentId=0198be1e-e907-735c-926a-87e9f46d5e75&projectId=0198be1d-574a-752e-ae53-1d263a30e856","945B815AA9D04EDBA58B91E4C01FA46D-2025-08-18-17-41-41","","null","","images/semantic_sequence/redecorating_semantic/redecorating_semantic_2.png","null","",""
"","","","","","image-button-response","35","456472","0.0-10.0-1.0-1.3","945B815AA9D04EDBA58B91E4C01FA46D","945B815AA9D04EDBA58B91E4C01FA46D","0198be1e-e907-735c-926a-87e9f46d5e75","0198be1d-574a-752e-ae53-1d263a30e856","{""num_scrambled_semantic"":""8"",""num_scrambled_causal"":""4"",""num_scrambled_schematic"":""4"",""participantId"":""945B815AA9D04EDBA58B91E4C01FA46D"",""assignmentId"":""0198be1e-e907-735c-926a-87e9f46d5e75"",""projectId"":""0198be1d-574a-752e-ae53-1d263a30e856""}","https://test12345.live/?num_scrambled_semantic=8&num_scrambled_causal=4&num_scrambled_schematic=4&participantId=945B815AA9D04EDBA58B91E4C01FA46D&assignmentId=0198be1e-e907-735c-926a-87e9f46d5e75&projectId=0198be1d-574a-752e-ae53-1d263a30e856","945B815AA9D04EDBA58B91E4C01FA46D-2025-08-18-17-41-41","","1428","","images/semantic_sequence/redecorating_semantic/redecorating_semantic_2.png","0","",""
"","","","","","image-button-response","36","467278","0.0-10.0-1.0-2.3","945B815AA9D04EDBA58B91E4C01FA46D","945B815AA9D04EDBA58B91E4C01FA46D","0198be1e-e907-735c-926a-87e9f46d5e75","0198be1d-574a-752e-ae53-1d263a30e856","{""num_scrambled_semantic"":""8"",""num_scrambled_causal"":""4"",""num_scrambled_schematic"":""4"",""participantId"":""945B815AA9D04EDBA58B91E4C01FA46D"",""assignmentId"":""0198be1e-e907-735c-926a-87e9f46d5e75"",""projectId"":""0198be1d-574a-752e-ae53-1d263a30e856""}","https://test12345.live/?num_scrambled_semantic=8&num_scrambled_causal=4&num_scrambled_schematic=4&participantId=945B815AA9D04EDBA58B91E4C01FA46D&assignmentId=0198be1e-e907-735c-926a-87e9f46d5e75&projectId=0198be1d-574a-752e-ae53-1d263a30e856","945B815AA9D04EDBA58B91E4C01FA46D-2025-08-18-17-41-41","","null","","[]","null","",""
"","","","","","image-button-response","37","471785","0.0-10.0-1.0-0.4","945B815AA9D04EDBA58B91E4C01FA46D","945B815AA9D04EDBA58B91E4C01FA46D","0198be1e-e907-735c-926a-87e9f46d5e75","0198be1d-574a-752e-ae53-1d263a30e856","{""num_scrambled_semantic"":""8"",""num_scrambled_causal"":""4"",""num_scrambled_schematic"":""4"",""participantId"":""945B815AA9D04EDBA58B91E4C01FA46D"",""assignmentId"":""0198be1e-e907-735c-926a-87e9f46d5e75"",""projectId"":""0198be1d-574a-752e-ae53-1d263a30e856""}","https://test12345.live/?num_scrambled_semantic=8&num_scrambled_causal=4&num_scrambled_schematic=4&participantId=945B815AA9D04EDBA58B91E4C01FA46D&assignmentId=0198be1e-e907-735c-926a-87e9f46d5e75&projectId=0198be1d-574a-752e-ae53-1d263a30e856","945B815AA9D04EDBA58B91E4C01FA46D-2025-08-18-17-41-41","","null","","images/semantic_sequence/redecorating_semantic/redecorating_semantic_6.png","null","",""
"","","","","","image-button-response","38","473805","0.0-10.0-1.0-1.4","945B815AA9D04EDBA58B91E4C01FA46D","945B815AA9D04EDBA58B91E4C01FA46D","0198be1e-e907-735c-926a-87e9f46d5e75","0198be1d-574a-752e-ae53-1d263a30e856","{""num_scrambled_semantic"":""8"",""num_scrambled_causal"":""4"",""num_scrambled_schematic"":""4"",""participantId"":""945B815AA9D04EDBA58B91E4C01FA46D"",""assignmentId"":""0198be1e-e907-735c-926a-87e9f46d5e75"",""projectId"":""0198be1d-574a-752e-ae53-1d263a30e856""}","https://test12345.live/?num_scrambled_semantic=8&num_scrambled_causal=4&num_scrambled_schematic=4&participantId=945B815AA9D04EDBA58B91E4C01FA46D&assignmentId=0198be1e-e907-735c-926a-87e9f46d5e75&projectId=0198be1d-574a-752e-ae53-1d263a30e856","945B815AA9D04EDBA58B91E4C01FA46D-2025-08-18-17-41-41","","2019","","images/semantic_sequence/redecorating_semantic/redecorating_semantic_6.png","0","",""
"","","","","","image-button-response","39","484607","0.0-10.0-1.0-2.4","945B815AA9D04EDBA58B91E4C01FA46D","945B815AA9D04EDBA58B91E4C01FA46D","0198be1e-e907-735c-926a-87e9f46d5e75","0198be1d-574a-752e-ae53-1d263a30e856","{""num_scrambled_semantic"":""8"",""num_scrambled_causal"":""4"",""num_scrambled_schematic"":""4"",""participantId"":""945B815AA9D04EDBA58B91E4C01FA46D"",""assignmentId"":""0198be1e-e907-735c-926a-87e9f46d5e75"",""projectId"":""0198be1d-574a-752e-ae53-1d263a30e856""}","https://test12345.live/?num_scrambled_semantic=8&num_scrambled_causal=4&num_scrambled_schematic=4&participantId=945B815AA9D04EDBA58B91E4C01FA46D&assignmentId=0198be1e-e907-735c-926a-87e9f46d5e75&projectId=0198be1d-574a-752e-ae53-1d263a30e856","945B815AA9D04EDBA58B91E4C01FA46D-2025-08-18-17-41-41","","null","","[]","null","",""
"","","","","","image-button-response","40","489113","0.0-10.0-1.0-0.5","945B815AA9D04EDBA58B91E4C01FA46D","945B815AA9D04EDBA58B91E4C01FA46D","0198be1e-e907-735c-926a-87e9f46d5e75","0198be1d-574a-752e-ae53-1d263a30e856","{""num_scrambled_semantic"":""8"",""num_scrambled_causal"":""4"",""num_scrambled_schematic"":""4"",""participantId"":""945B815AA9D04EDBA58B91E4C01FA46D"",""assignmentId"":""0198be1e-e907-735c-926a-87e9f46d5e75"",""projectId"":""0198be1d-574a-752e-ae53-1d263a30e856""}","https://test12345.live/?num_scrambled_semantic=8&num_scrambled_causal=4&num_scrambled_schematic=4&participantId=945B815AA9D04EDBA58B91E4C01FA46D&assignmentId=0198be1e-e907-735c-926a-87e9f46d5e75&projectId=0198be1d-574a-752e-ae53-1d263a30e856","945B815AA9D04EDBA58B91E4C01FA46D-2025-08-18-17-41-41","","null","","images/semantic_sequence/redecorating_semantic/redecorating_semantic_4.png","null","",""
"","","","","","image-button-response","41","491938","0.0-10.0-1.0-1.5","945B815AA9D04EDBA58B91E4C01FA46D","945B815AA9D04EDBA58B91E4C01FA46D","0198be1e-e907-735c-926a-87e9f46d5e75","0198be1d-574a-752e-ae53-1d263a30e856","{""num_scrambled_semantic"":""8"",""num_scrambled_causal"":""4"",""num_scrambled_schematic"":""4"",""participantId"":""945B815AA9D04EDBA58B91E4C01FA46D"",""assignmentId"":""0198be1e-e907-735c-926a-87e9f46d5e75"",""projectId"":""0198be1d-574a-752e-ae53-1d263a30e856""}","https://test12345.live/?num_scrambled_semantic=8&num_scrambled_causal=4&num_scrambled_schematic=4&participantId=945B815AA9D04EDBA58B91E4C01FA46D&assignmentId=0198be1e-e907-735c-926a-87e9f46d5e75&projectId=0198be1d-574a-752e-ae53-1d263a30e856","945B815AA9D04EDBA58B91E4C01FA46D-2025-08-18-17-41-41","","2824","","images/semantic_sequence/redecorating_semantic/redecorating_semantic_4.png","0","",""
"","","","","","image-button-response","42","502744","0.0-10.0-1.0-2.5","945B815AA9D04EDBA58B91E4C01FA46D","945B815AA9D04EDBA58B91E4C01FA46D","0198be1e-e907-735c-926a-87e9f46d5e75","0198be1d-574a-752e-ae53-1d263a30e856","{""num_scrambled_semantic"":""8"",""num_scrambled_causal"":""4"",""num_scrambled_schematic"":""4"",""participantId"":""945B815AA9D04EDBA58B91E4C01FA46D"",""assignmentId"":""0198be1e-e907-735c-926a-87e9f46d5e75"",""projectId"":""0198be1d-574a-752e-ae53-1d263a30e856""}","https://test12345.live/?num_scrambled_semantic=8&num_scrambled_causal=4&num_scrambled_schematic=4&participantId=945B815AA9D04EDBA58B91E4C01FA46D&assignmentId=0198be1e-e907-735c-926a-87e9f46d5e75&projectId=0198be1d-574a-752e-ae53-1d263a30e856","945B815AA9D04EDBA58B91E4C01FA46D-2025-08-18-17-41-41","","null","","[]","null","",""
"","","","","","image-button-response","43","507247","0.0-10.0-1.0-0.6","945B815AA9D04EDBA58B91E4C01FA46D","945B815AA9D04EDBA58B91E4C01FA46D","0198be1e-e907-735c-926a-87e9f46d5e75","0198be1d-574a-752e-ae53-1d263a30e856","{""num_scrambled_semantic"":""8"",""num_scrambled_causal"":""4"",""num_scrambled_schematic"":""4"",""participantId"":""945B815AA9D04EDBA58B91E4C01FA46D"",""assignmentId"":""0198be1e-e907-735c-926a-87e9f46d5e75"",""projectId"":""0198be1d-574a-752e-ae53-1d263a30e856""}","https://test12345.live/?num_scrambled_semantic=8&num_scrambled_causal=4&num_scrambled_schematic=4&participantId=945B815AA9D04EDBA58B91E4C01FA46D&assignmentId=0198be1e-e907-735c-926a-87e9f46d5e75&projectId=0198be1d-574a-752e-ae53-1d263a30e856","945B815AA9D04EDBA58B91E4C01FA46D-2025-08-18-17-41-41","","null","","images/semantic_sequence/redecorating_semantic/redecorating_semantic_1.png","null","",""
"","","","","","image-button-response","44","508755","0.0-10.0-1.0-1.6","945B815AA9D04EDBA58B91E4C01FA46D","945B815AA9D04EDBA58B91E4C01FA46D","0198be1e-e907-735c-926a-87e9f46d5e75","0198be1d-574a-752e-ae53-1d263a30e856","{""num_scrambled_semantic"":""8"",""num_scrambled_causal"":""4"",""num_scrambled_schematic"":""4"",""participantId"":""945B815AA9D04EDBA58B91E4C01FA46D"",""assignmentId"":""0198be1e-e907-735c-926a-87e9f46d5e75"",""projectId"":""0198be1d-574a-752e-ae53-1d263a30e856""}","https://test12345.live/?num_scrambled_semantic=8&num_scrambled_causal=4&num_scrambled_schematic=4&participantId=945B815AA9D04EDBA58B91E4C01FA46D&assignmentId=0198be1e-e907-735c-926a-87e9f46d5e75&projectId=0198be1d-574a-752e-ae53-1d263a30e856","945B815AA9D04EDBA58B91E4C01FA46D-2025-08-18-17-41-41","","1507","","images/semantic_sequence/redecorating_semantic/redecorating_semantic_1.png","0","",""
"","","","","","image-button-response","45","519558","0.0-10.0-1.0-2.6","945B815AA9D04EDBA58B91E4C01FA46D","945B815AA9D04EDBA58B91E4C01FA46D","0198be1e-e907-735c-926a-87e9f46d5e75","0198be1d-574a-752e-ae53-1d263a30e856","{""num_scrambled_semantic"":""8"",""num_scrambled_causal"":""4"",""num_scrambled_schematic"":""4"",""participantId"":""945B815AA9D04EDBA58B91E4C01FA46D"",""assignmentId"":""0198be1e-e907-735c-926a-87e9f46d5e75"",""projectId"":""0198be1d-574a-752e-ae53-1d263a30e856""}","https://test12345.live/?num_scrambled_semantic=8&num_scrambled_causal=4&num_scrambled_schematic=4&participantId=945B815AA9D04EDBA58B91E4C01FA46D&assignmentId=0198be1e-e907-735c-926a-87e9f46d5e75&projectId=0198be1d-574a-752e-ae53-1d263a30e856","945B815AA9D04EDBA58B91E4C01FA46D-2025-08-18-17-41-41","","null","","[]","null","",""
"","","","","","image-button-response","46","524062","0.0-10.0-1.0-0.7","945B815AA9D04EDBA58B91E4C01FA46D","945B815AA9D04EDBA58B91E4C01FA46D","0198be1e-e907-735c-926a-87e9f46d5e75","0198be1d-574a-752e-ae53-1d263a30e856","{""num_scrambled_semantic"":""8"",""num_scrambled_causal"":""4"",""num_scrambled_schematic"":""4"",""participantId"":""945B815AA9D04EDBA58B91E4C01FA46D"",""assignmentId"":""0198be1e-e907-735c-926a-87e9f46d5e75"",""projectId"":""0198be1d-574a-752e-ae53-1d263a30e856""}","https://test12345.live/?num_scrambled_semantic=8&num_scrambled_causal=4&num_scrambled_schematic=4&participantId=945B815AA9D04EDBA58B91E4C01FA46D&assignmentId=0198be1e-e907-735c-926a-87e9f46d5e75&projectId=0198be1d-574a-752e-ae53-1d263a30e856","945B815AA9D04EDBA58B91E4C01FA46D-2025-08-18-17-41-41","","null","","images/semantic_sequence/redecorating_semantic/redecorating_semantic_5.png","null","",""
"","","","","","image-button-response","47","525339","0.0-10.0-1.0-1.7","945B815AA9D04EDBA58B91E4C01FA46D","945B815AA9D04EDBA58B91E4C01FA46D","0198be1e-e907-735c-926a-87e9f46d5e75","0198be1d-574a-752e-ae53-1d263a30e856","{""num_scrambled_semantic"":""8"",""num_scrambled_causal"":""4"",""num_scrambled_schematic"":""4"",""participantId"":""945B815AA9D04EDBA58B91E4C01FA46D"",""assignmentId"":""0198be1e-e907-735c-926a-87e9f46d5e75"",""projectId"":""0198be1d-574a-752e-ae53-1d263a30e856""}","https://test12345.live/?num_scrambled_semantic=8&num_scrambled_causal=4&num_scrambled_schematic=4&participantId=945B815AA9D04EDBA58B91E4C01FA46D&assignmentId=0198be1e-e907-735c-926a-87e9f46d5e75&projectId=0198be1d-574a-752e-ae53-1d263a30e856","945B815AA9D04EDBA58B91E4C01FA46D-2025-08-18-17-41-41","","1275","","images/semantic_sequence/redecorating_semantic/redecorating_semantic_5.png","0","",""
"","","","","","image-button-response","48","536142","0.0-10.0-1.0-2.7","945B815AA9D04EDBA58B91E4C01FA46D","945B815AA9D04EDBA58B91E4C01FA46D","0198be1e-e907-735c-926a-87e9f46d5e75","0198be1d-574a-752e-ae53-1d263a30e856","{""num_scrambled_semantic"":""8"",""num_scrambled_causal"":""4"",""num_scrambled_schematic"":""4"",""participantId"":""945B815AA9D04EDBA58B91E4C01FA46D"",""assignmentId"":""0198be1e-e907-735c-926a-87e9f46d5e75"",""projectId"":""0198be1d-574a-752e-ae53-1d263a30e856""}","https://test12345.live/?num_scrambled_semantic=8&num_scrambled_causal=4&num_scrambled_schematic=4&participantId=945B815AA9D04EDBA58B91E4C01FA46D&assignmentId=0198be1e-e907-735c-926a-87e9f46d5e75&projectId=0198be1d-574a-752e-ae53-1d263a30e856","945B815AA9D04EDBA58B91E4C01FA46D-2025-08-18-17-41-41","","null","","[]","null","",""
"","","","","","image-button-response","49","540649","0.0-10.0-1.0-0.8","945B815AA9D04EDBA58B91E4C01FA46D","945B815AA9D04EDBA58B91E4C01FA46D","0198be1e-e907-735c-926a-87e9f46d5e75","0198be1d-574a-752e-ae53-1d263a30e856","{""num_scrambled_semantic"":""8"",""num_scrambled_causal"":""4"",""num_scrambled_schematic"":""4"",""participantId"":""945B815AA9D04EDBA58B91E4C01FA46D"",""assignmentId"":""0198be1e-e907-735c-926a-87e9f46d5e75"",""projectId"":""0198be1d-574a-752e-ae53-1d263a30e856""}","https://test12345.live/?num_scrambled_semantic=8&num_scrambled_causal=4&num_scrambled_schematic=4&participantId=945B815AA9D04EDBA58B91E4C01FA46D&assignmentId=0198be1e-e907-735c-926a-87e9f46d5e75&projectId=0198be1d-574a-752e-ae53-1d263a30e856","945B815AA9D04EDBA58B91E4C01FA46D-2025-08-18-17-41-41","","null","","images/semantic_sequence/redecorating_semantic/redecorating_semantic_ten.png","null","",""
"","","","","","image-button-response","50","543355","0.0-10.0-1.0-1.8","945B815AA9D04EDBA58B91E4C01FA46D","945B815AA9D04EDBA58B91E4C01FA46D","0198be1e-e907-735c-926a-87e9f46d5e75","0198be1d-574a-752e-ae53-1d263a30e856","{""num_scrambled_semantic"":""8"",""num_scrambled_causal"":""4"",""num_scrambled_schematic"":""4"",""participantId"":""945B815AA9D04EDBA58B91E4C01FA46D"",""assignmentId"":""0198be1e-e907-735c-926a-87e9f46d5e75"",""projectId"":""0198be1d-574a-752e-ae53-1d263a30e856""}","https://test12345.live/?num_scrambled_semantic=8&num_scrambled_causal=4&num_scrambled_schematic=4&participantId=945B815AA9D04EDBA58B91E4C01FA46D&assignmentId=0198be1e-e907-735c-926a-87e9f46d5e75&projectId=0198be1d-574a-752e-ae53-1d263a30e856","945B815AA9D04EDBA58B91E4C01FA46D-2025-08-18-17-41-41","","2705","","images/semantic_sequence/redecorating_semantic/redecorating_semantic_ten.png","0","",""
"","","","","","image-button-response","51","554158","0.0-10.0-1.0-2.8","945B815AA9D04EDBA58B91E4C01FA46D","945B815AA9D04EDBA58B91E4C01FA46D","0198be1e-e907-735c-926a-87e9f46d5e75","0198be1d-574a-752e-ae53-1d263a30e856","{""num_scrambled_semantic"":""8"",""num_scrambled_causal"":""4"",""num_scrambled_schematic"":""4"",""participantId"":""945B815AA9D04EDBA58B91E4C01FA46D"",""assignmentId"":""0198be1e-e907-735c-926a-87e9f46d5e75"",""projectId"":""0198be1d-574a-752e-ae53-1d263a30e856""}","https://test12345.live/?num_scrambled_semantic=8&num_scrambled_causal=4&num_scrambled_schematic=4&participantId=945B815AA9D04EDBA58B91E4C01FA46D&assignmentId=0198be1e-e907-735c-926a-87e9f46d5e75&projectId=0198be1d-574a-752e-ae53-1d263a30e856","945B815AA9D04EDBA58B91E4C01FA46D-2025-08-18-17-41-41","","null","","[]","null","",""
"","","","","","image-button-response","52","558662","0.0-10.0-1.0-0.9","945B815AA9D04EDBA58B91E4C01FA46D","945B815AA9D04EDBA58B91E4C01FA46D","0198be1e-e907-735c-926a-87e9f46d5e75","0198be1d-574a-752e-ae53-1d263a30e856","{""num_scrambled_semantic"":""8"",""num_scrambled_causal"":""4"",""num_scrambled_schematic"":""4"",""participantId"":""945B815AA9D04EDBA58B91E4C01FA46D"",""assignmentId"":""0198be1e-e907-735c-926a-87e9f46d5e75"",""projectId"":""0198be1d-574a-752e-ae53-1d263a30e856""}","https://test12345.live/?num_scrambled_semantic=8&num_scrambled_causal=4&num_scrambled_schematic=4&participantId=945B815AA9D04EDBA58B91E4C01FA46D&assignmentId=0198be1e-e907-735c-926a-87e9f46d5e75&projectId=0198be1d-574a-752e-ae53-1d263a30e856","945B815AA9D04EDBA58B91E4C01FA46D-2025-08-18-17-41-41","","null","","images/semantic_sequence/redecorating_semantic/redecorating_semantic_7.png","null","",""
"","","","","","image-button-response","53","560022","0.0-10.0-1.0-1.9","945B815AA9D04EDBA58B91E4C01FA46D","945B815AA9D04EDBA58B91E4C01FA46D","0198be1e-e907-735c-926a-87e9f46d5e75","0198be1d-574a-752e-ae53-1d263a30e856","{""num_scrambled_semantic"":""8"",""num_scrambled_causal"":""4"",""num_scrambled_schematic"":""4"",""participantId"":""945B815AA9D04EDBA58B91E4C01FA46D"",""assignmentId"":""0198be1e-e907-735c-926a-87e9f46d5e75"",""projectId"":""0198be1d-574a-752e-ae53-1d263a30e856""}","https://test12345.live/?num_scrambled_semantic=8&num_scrambled_causal=4&num_scrambled_schematic=4&participantId=945B815AA9D04EDBA58B91E4C01FA46D&assignmentId=0198be1e-e907-735c-926a-87e9f46d5e75&projectId=0198be1d-574a-752e-ae53-1d263a30e856","945B815AA9D04EDBA58B91E4C01FA46D-2025-08-18-17-41-41","","1358","","images/semantic_sequence/redecorating_semantic/redecorating_semantic_7.png","0","",""
"","","","","","image-button-response","54","570823","0.0-10.0-1.0-2.9","945B815AA9D04EDBA58B91E4C01FA46D","945B815AA9D04EDBA58B91E4C01FA46D","0198be1e-e907-735c-926a-87e9f46d5e75","0198be1d-574a-752e-ae53-1d263a30e856","{""num_scrambled_semantic"":""8"",""num_scrambled_causal"":""4"",""num_scrambled_schematic"":""4"",""participantId"":""945B815AA9D04EDBA58B91E4C01FA46D"",""assignmentId"":""0198be1e-e907-735c-926a-87e9f46d5e75"",""projectId"":""0198be1d-574a-752e-ae53-1d263a30e856""}","https://test12345.live/?num_scrambled_semantic=8&num_scrambled_causal=4&num_scrambled_schematic=4&participantId=945B815AA9D04EDBA58B91E4C01FA46D&assignmentId=0198be1e-e907-735c-926a-87e9f46d5e75&projectId=0198be1d-574a-752e-ae53-1d263a30e856","945B815AA9D04EDBA58B91E4C01FA46D-2025-08-18-17-41-41","","null","","[]","null","",""
"","","","","","html-audio-response","55","632505","0.0-11.0","945B815AA9D04EDBA58B91E4C01FA46D","945B815AA9D04EDBA58B91E4C01FA46D","0198be1e-e907-735c-926a-87e9f46d5e75","0198be1d-574a-752e-ae53-1d263a30e856","{""num_scrambled_semantic"":""8"",""num_scrambled_causal"":""4"",""num_scrambled_schematic"":""4"",""participantId"":""945B815AA9D04EDBA58B91E4C01FA46D"",""assignmentId"":""0198be1e-e907-735c-926a-87e9f46d5e75"",""projectId"":""0198be1d-574a-752e-ae53-1d263a30e856""}","https://test12345.live/?num_scrambled_semantic=8&num_scrambled_causal=4&num_scrambled_schematic=4&participantId=945B815AA9D04EDBA58B91E4C01FA46D&assignmentId=0198be1e-e907-735c-926a-87e9f46d5e75&projectId=0198be1d-574a-752e-ae53-1d263a30e856","945B815AA9D04EDBA58B91E4C01FA46D-2025-08-18-17-41-41","","43770","","[""<span style=\""color: red; font-size: 24px\""> NOW RECORDING</span><p>Please say out loud all the images you saw, in the exact order you saw them. Try to recall as many images as you can, but remember: getting the order right is more important than the number of images you recall.</p>""]","","1","redecorating_semantic"
"","","","","","image-button-response","56","638512","0.0-12.0-0.0","945B815AA9D04EDBA58B91E4C01FA46D","945B815AA9D04EDBA58B91E4C01FA46D","0198be1e-e907-735c-926a-87e9f46d5e75","0198be1d-574a-752e-ae53-1d263a30e856","{""num_scrambled_semantic"":""8"",""num_scrambled_causal"":""4"",""num_scrambled_schematic"":""4"",""participantId"":""945B815AA9D04EDBA58B91E4C01FA46D"",""assignmentId"":""0198be1e-e907-735c-926a-87e9f46d5e75"",""projectId"":""0198be1d-574a-752e-ae53-1d263a30e856""}","https://test12345.live/?num_scrambled_semantic=8&num_scrambled_causal=4&num_scrambled_schematic=4&participantId=945B815AA9D04EDBA58B91E4C01FA46D&assignmentId=0198be1e-e907-735c-926a-87e9f46d5e75&projectId=0198be1d-574a-752e-ae53-1d263a30e856","945B815AA9D04EDBA58B91E4C01FA46D-2025-08-18-17-41-41","","null","","images/causal_sequence/dog_causal/dog_causal_0.png","null","",""
"","","","","","image-button-response","57","643017","0.0-12.0-1.0-0.0","945B815AA9D04EDBA58B91E4C01FA46D","945B815AA9D04EDBA58B91E4C01FA46D","0198be1e-e907-735c-926a-87e9f46d5e75","0198be1d-574a-752e-ae53-1d263a30e856","{""num_scrambled_semantic"":""8"",""num_scrambled_causal"":""4"",""num_scrambled_schematic"":""4"",""participantId"":""945B815AA9D04EDBA58B91E4C01FA46D"",""assignmentId"":""0198be1e-e907-735c-926a-87e9f46d5e75"",""projectId"":""0198be1d-574a-752e-ae53-1d263a30e856""}","https://test12345.live/?num_scrambled_semantic=8&num_scrambled_causal=4&num_scrambled_schematic=4&participantId=945B815AA9D04EDBA58B91E4C01FA46D&assignmentId=0198be1e-e907-735c-926a-87e9f46d5e75&projectId=0198be1d-574a-752e-ae53-1d263a30e856","945B815AA9D04EDBA58B91E4C01FA46D-2025-08-18-17-41-41","","null","","images/causal_sequence/dog_causal/dog_causal_1.png","null","",""
"","","","","","image-button-response","58","644571","0.0-12.0-1.0-1.0","945B815AA9D04EDBA58B91E4C01FA46D","945B815AA9D04EDBA58B91E4C01FA46D","0198be1e-e907-735c-926a-87e9f46d5e75","0198be1d-574a-752e-ae53-1d263a30e856","{""num_scrambled_semantic"":""8"",""num_scrambled_causal"":""4"",""num_scrambled_schematic"":""4"",""participantId"":""945B815AA9D04EDBA58B91E4C01FA46D"",""assignmentId"":""0198be1e-e907-735c-926a-87e9f46d5e75"",""projectId"":""0198be1d-574a-752e-ae53-1d263a30e856""}","https://test12345.live/?num_scrambled_semantic=8&num_scrambled_causal=4&num_scrambled_schematic=4&participantId=945B815AA9D04EDBA58B91E4C01FA46D&assignmentId=0198be1e-e907-735c-926a-87e9f46d5e75&projectId=0198be1d-574a-752e-ae53-1d263a30e856","945B815AA9D04EDBA58B91E4C01FA46D-2025-08-18-17-41-41","","1553","","images/causal_sequence/dog_causal/dog_causal_1.png","0","",""
"","","","","","image-button-response","59","655377","0.0-12.0-1.0-2.0","945B815AA9D04EDBA58B91E4C01FA46D","945B815AA9D04EDBA58B91E4C01FA46D","0198be1e-e907-735c-926a-87e9f46d5e75","0198be1d-574a-752e-ae53-1d263a30e856","{""num_scrambled_semantic"":""8"",""num_scrambled_causal"":""4"",""num_scrambled_schematic"":""4"",""participantId"":""945B815AA9D04EDBA58B91E4C01FA46D"",""assignmentId"":""0198be1e-e907-735c-926a-87e9f46d5e75"",""projectId"":""0198be1d-574a-752e-ae53-1d263a30e856""}","https://test12345.live/?num_scrambled_semantic=8&num_scrambled_causal=4&num_scrambled_schematic=4&participantId=945B815AA9D04EDBA58B91E4C01FA46D&assignmentId=0198be1e-e907-735c-926a-87e9f46d5e75&projectId=0198be1d-574a-752e-ae53-1d263a30e856","945B815AA9D04EDBA58B91E4C01FA46D-2025-08-18-17-41-41","","null","","[]","null","",""
"","","","","","image-button-response","60","659880","0.0-12.0-1.0-0.1","945B815AA9D04EDBA58B91E4C01FA46D","945B815AA9D04EDBA58B91E4C01FA46D","0198be1e-e907-735c-926a-87e9f46d5e75","0198be1d-574a-752e-ae53-1d263a30e856","{""num_scrambled_semantic"":""8"",""num_scrambled_causal"":""4"",""num_scrambled_schematic"":""4"",""participantId"":""945B815AA9D04EDBA58B91E4C01FA46D"",""assignmentId"":""0198be1e-e907-735c-926a-87e9f46d5e75"",""projectId"":""0198be1d-574a-752e-ae53-1d263a30e856""}","https://test12345.live/?num_scrambled_semantic=8&num_scrambled_causal=4&num_scrambled_schematic=4&participantId=945B815AA9D04EDBA58B91E4C01FA46D&assignmentId=0198be1e-e907-735c-926a-87e9f46d5e75&projectId=0198be1d-574a-752e-ae53-1d263a30e856","945B815AA9D04EDBA58B91E4C01FA46D-2025-08-18-17-41-41","","null","","images/causal_sequence/dog_causal/dog_causal_7.png","null","",""
"","","","","","image-button-response","61","660938","0.0-12.0-1.0-1.1","945B815AA9D04EDBA58B91E4C01FA46D","945B815AA9D04EDBA58B91E4C01FA46D","0198be1e-e907-735c-926a-87e9f46d5e75","0198be1d-574a-752e-ae53-1d263a30e856","{""num_scrambled_semantic"":""8"",""num_scrambled_causal"":""4"",""num_scrambled_schematic"":""4"",""participantId"":""945B815AA9D04EDBA58B91E4C01FA46D"",""assignmentId"":""0198be1e-e907-735c-926a-87e9f46d5e75"",""projectId"":""0198be1d-574a-752e-ae53-1d263a30e856""}","https://test12345.live/?num_scrambled_semantic=8&num_scrambled_causal=4&num_scrambled_schematic=4&participantId=945B815AA9D04EDBA58B91E4C01FA46D&assignmentId=0198be1e-e907-735c-926a-87e9f46d5e75&projectId=0198be1d-574a-752e-ae53-1d263a30e856","945B815AA9D04EDBA58B91E4C01FA46D-2025-08-18-17-41-41","","1058","","images/causal_sequence/dog_causal/dog_causal_7.png","0","",""
"","","","","","image-button-response","62","671745","0.0-12.0-1.0-2.1","945B815AA9D04EDBA58B91E4C01FA46D","945B815AA9D04EDBA58B91E4C01FA46D","0198be1e-e907-735c-926a-87e9f46d5e75","0198be1d-574a-752e-ae53-1d263a30e856","{""num_scrambled_semantic"":""8"",""num_scrambled_causal"":""4"",""num_scrambled_schematic"":""4"",""participantId"":""945B815AA9D04EDBA58B91E4C01FA46D"",""assignmentId"":""0198be1e-e907-735c-926a-87e9f46d5e75"",""projectId"":""0198be1d-574a-752e-ae53-1d263a30e856""}","https://test12345.live/?num_scrambled_semantic=8&num_scrambled_causal=4&num_scrambled_schematic=4&participantId=945B815AA9D04EDBA58B91E4C01FA46D&assignmentId=0198be1e-e907-735c-926a-87e9f46d5e75&projectId=0198be1d-574a-752e-ae53-1d263a30e856","945B815AA9D04EDBA58B91E4C01FA46D-2025-08-18-17-41-41","","null","","[]","null","",""
"","","","","","image-button-response","63","676252","0.0-12.0-1.0-0.2","945B815AA9D04EDBA58B91E4C01FA46D","945B815AA9D04EDBA58B91E4C01FA46D","0198be1e-e907-735c-926a-87e9f46d5e75","0198be1d-574a-752e-ae53-1d263a30e856","{""num_scrambled_semantic"":""8"",""num_scrambled_causal"":""4"",""num_scrambled_schematic"":""4"",""participantId"":""945B815AA9D04EDBA58B91E4C01FA46D"",""assignmentId"":""0198be1e-e907-735c-926a-87e9f46d5e75"",""projectId"":""0198be1d-574a-752e-ae53-1d263a30e856""}","https://test12345.live/?num_scrambled_semantic=8&num_scrambled_causal=4&num_scrambled_schematic=4&participantId=945B815AA9D04EDBA58B91E4C01FA46D&assignmentId=0198be1e-e907-735c-926a-87e9f46d5e75&projectId=0198be1d-574a-752e-ae53-1d263a30e856","945B815AA9D04EDBA58B91E4C01FA46D-2025-08-18-17-41-41","","null","","images/causal_sequence/dog_causal/dog_causal_9.png","null","",""
"","","","","","image-button-response","64","678371","0.0-12.0-1.0-1.2","945B815AA9D04EDBA58B91E4C01FA46D","945B815AA9D04EDBA58B91E4C01FA46D","0198be1e-e907-735c-926a-87e9f46d5e75","0198be1d-574a-752e-ae53-1d263a30e856","{""num_scrambled_semantic"":""8"",""num_scrambled_causal"":""4"",""num_scrambled_schematic"":""4"",""participantId"":""945B815AA9D04EDBA58B91E4C01FA46D"",""assignmentId"":""0198be1e-e907-735c-926a-87e9f46d5e75"",""projectId"":""0198be1d-574a-752e-ae53-1d263a30e856""}","https://test12345.live/?num_scrambled_semantic=8&num_scrambled_causal=4&num_scrambled_schematic=4&participantId=945B815AA9D04EDBA58B91E4C01FA46D&assignmentId=0198be1e-e907-735c-926a-87e9f46d5e75&projectId=0198be1d-574a-752e-ae53-1d263a30e856","945B815AA9D04EDBA58B91E4C01FA46D-2025-08-18-17-41-41","","2119","","images/causal_sequence/dog_causal/dog_causal_9.png","0","",""
"","","","","","image-button-response","65","689176","0.0-12.0-1.0-2.2","945B815AA9D04EDBA58B91E4C01FA46D","945B815AA9D04EDBA58B91E4C01FA46D","0198be1e-e907-735c-926a-87e9f46d5e75","0198be1d-574a-752e-ae53-1d263a30e856","{""num_scrambled_semantic"":""8"",""num_scrambled_causal"":""4"",""num_scrambled_schematic"":""4"",""participantId"":""945B815AA9D04EDBA58B91E4C01FA46D"",""assignmentId"":""0198be1e-e907-735c-926a-87e9f46d5e75"",""projectId"":""0198be1d-574a-752e-ae53-1d263a30e856""}","https://test12345.live/?num_scrambled_semantic=8&num_scrambled_causal=4&num_scrambled_schematic=4&participantId=945B815AA9D04EDBA58B91E4C01FA46D&assignmentId=0198be1e-e907-735c-926a-87e9f46d5e75&projectId=0198be1d-574a-752e-ae53-1d263a30e856","945B815AA9D04EDBA58B91E4C01FA46D-2025-08-18-17-41-41","","null","","[]","null","",""
"","","","","","image-button-response","66","693677","0.0-12.0-1.0-0.3","945B815AA9D04EDBA58B91E4C01FA46D","945B815AA9D04EDBA58B91E4C01FA46D","0198be1e-e907-735c-926a-87e9f46d5e75","0198be1d-574a-752e-ae53-1d263a30e856","{""num_scrambled_semantic"":""8"",""num_scrambled_causal"":""4"",""num_scrambled_schematic"":""4"",""participantId"":""945B815AA9D04EDBA58B91E4C01FA46D"",""assignmentId"":""0198be1e-e907-735c-926a-87e9f46d5e75"",""projectId"":""0198be1d-574a-752e-ae53-1d263a30e856""}","https://test12345.live/?num_scrambled_semantic=8&num_scrambled_causal=4&num_scrambled_schematic=4&participantId=945B815AA9D04EDBA58B91E4C01FA46D&assignmentId=0198be1e-e907-735c-926a-87e9f46d5e75&projectId=0198be1d-574a-752e-ae53-1d263a30e856","945B815AA9D04EDBA58B91E4C01FA46D-2025-08-18-17-41-41","","null","","images/causal_sequence/dog_causal/dog_causal_8.png","null","",""
"","","","","","image-button-response","67","697018","0.0-12.0-1.0-1.3","945B815AA9D04EDBA58B91E4C01FA46D","945B815AA9D04EDBA58B91E4C01FA46D","0198be1e-e907-735c-926a-87e9f46d5e75","0198be1d-574a-752e-ae53-1d263a30e856","{""num_scrambled_semantic"":""8"",""num_scrambled_causal"":""4"",""num_scrambled_schematic"":""4"",""participantId"":""945B815AA9D04EDBA58B91E4C01FA46D"",""assignmentId"":""0198be1e-e907-735c-926a-87e9f46d5e75"",""projectId"":""0198be1d-574a-752e-ae53-1d263a30e856""}","https://test12345.live/?num_scrambled_semantic=8&num_scrambled_causal=4&num_scrambled_schematic=4&participantId=945B815AA9D04EDBA58B91E4C01FA46D&assignmentId=0198be1e-e907-735c-926a-87e9f46d5e75&projectId=0198be1d-574a-752e-ae53-1d263a30e856","945B815AA9D04EDBA58B91E4C01FA46D-2025-08-18-17-41-41","","3341","","images/causal_sequence/dog_causal/dog_causal_8.png","0","",""
"","","","","","image-button-response","68","707824","0.0-12.0-1.0-2.3","945B815AA9D04EDBA58B91E4C01FA46D","945B815AA9D04EDBA58B91E4C01FA46D","0198be1e-e907-735c-926a-87e9f46d5e75","0198be1d-574a-752e-ae53-1d263a30e856","{""num_scrambled_semantic"":""8"",""num_scrambled_causal"":""4"",""num_scrambled_schematic"":""4"",""participantId"":""945B815AA9D04EDBA58B91E4C01FA46D"",""assignmentId"":""0198be1e-e907-735c-926a-87e9f46d5e75"",""projectId"":""0198be1d-574a-752e-ae53-1d263a30e856""}","https://test12345.live/?num_scrambled_semantic=8&num_scrambled_causal=4&num_scrambled_schematic=4&participantId=945B815AA9D04EDBA58B91E4C01FA46D&assignmentId=0198be1e-e907-735c-926a-87e9f46d5e75&projectId=0198be1d-574a-752e-ae53-1d263a30e856","945B815AA9D04EDBA58B91E4C01FA46D-2025-08-18-17-41-41","","null","","[]","null","",""
"","","","","","image-button-response","69","712330","0.0-12.0-1.0-0.4","945B815AA9D04EDBA58B91E4C01FA46D","945B815AA9D04EDBA58B91E4C01FA46D","0198be1e-e907-735c-926a-87e9f46d5e75","0198be1d-574a-752e-ae53-1d263a30e856","{""num_scrambled_semantic"":""8"",""num_scrambled_causal"":""4"",""num_scrambled_schematic"":""4"",""participantId"":""945B815AA9D04EDBA58B91E4C01FA46D"",""assignmentId"":""0198be1e-e907-735c-926a-87e9f46d5e75"",""projectId"":""0198be1d-574a-752e-ae53-1d263a30e856""}","https://test12345.live/?num_scrambled_semantic=8&num_scrambled_causal=4&num_scrambled_schematic=4&participantId=945B815AA9D04EDBA58B91E4C01FA46D&assignmentId=0198be1e-e907-735c-926a-87e9f46d5e75&projectId=0198be1d-574a-752e-ae53-1d263a30e856","945B815AA9D04EDBA58B91E4C01FA46D-2025-08-18-17-41-41","","null","","images/causal_sequence/dog_causal/dog_causal_6.png","null","",""
"","","","","","image-button-response","70","712733","0.0-12.0-1.0-1.4","945B815AA9D04EDBA58B91E4C01FA46D","945B815AA9D04EDBA58B91E4C01FA46D","0198be1e-e907-735c-926a-87e9f46d5e75","0198be1d-574a-752e-ae53-1d263a30e856","{""num_scrambled_semantic"":""8"",""num_scrambled_causal"":""4"",""num_scrambled_schematic"":""4"",""participantId"":""945B815AA9D04EDBA58B91E4C01FA46D"",""assignmentId"":""0198be1e-e907-735c-926a-87e9f46d5e75"",""projectId"":""0198be1d-574a-752e-ae53-1d263a30e856""}","https://test12345.live/?num_scrambled_semantic=8&num_scrambled_causal=4&num_scrambled_schematic=4&participantId=945B815AA9D04EDBA58B91E4C01FA46D&assignmentId=0198be1e-e907-735c-926a-87e9f46d5e75&projectId=0198be1d-574a-752e-ae53-1d263a30e856","945B815AA9D04EDBA58B91E4C01FA46D-2025-08-18-17-41-41","","403","","images/causal_sequence/dog_causal/dog_causal_6.png","0","",""
"","","","","","image-button-response","71","723537","0.0-12.0-1.0-2.4","945B815AA9D04EDBA58B91E4C01FA46D","945B815AA9D04EDBA58B91E4C01FA46D","0198be1e-e907-735c-926a-87e9f46d5e75","0198be1d-574a-752e-ae53-1d263a30e856","{""num_scrambled_semantic"":""8"",""num_scrambled_causal"":""4"",""num_scrambled_schematic"":""4"",""participantId"":""945B815AA9D04EDBA58B91E4C01FA46D"",""assignmentId"":""0198be1e-e907-735c-926a-87e9f46d5e75"",""projectId"":""0198be1d-574a-752e-ae53-1d263a30e856""}","https://test12345.live/?num_scrambled_semantic=8&num_scrambled_causal=4&num_scrambled_schematic=4&participantId=945B815AA9D04EDBA58B91E4C01FA46D&assignmentId=0198be1e-e907-735c-926a-87e9f46d5e75&projectId=0198be1d-574a-752e-ae53-1d263a30e856","945B815AA9D04EDBA58B91E4C01FA46D-2025-08-18-17-41-41","","null","","[]","null","",""
"","","","","","image-button-response","72","728039","0.0-12.0-1.0-0.5","945B815AA9D04EDBA58B91E4C01FA46D","945B815AA9D04EDBA58B91E4C01FA46D","0198be1e-e907-735c-926a-87e9f46d5e75","0198be1d-574a-752e-ae53-1d263a30e856","{""num_scrambled_semantic"":""8"",""num_scrambled_causal"":""4"",""num_scrambled_schematic"":""4"",""participantId"":""945B815AA9D04EDBA58B91E4C01FA46D"",""assignmentId"":""0198be1e-e907-735c-926a-87e9f46d5e75"",""projectId"":""0198be1d-574a-752e-ae53-1d263a30e856""}","https://test12345.live/?num_scrambled_semantic=8&num_scrambled_causal=4&num_scrambled_schematic=4&participantId=945B815AA9D04EDBA58B91E4C01FA46D&assignmentId=0198be1e-e907-735c-926a-87e9f46d5e75&projectId=0198be1d-574a-752e-ae53-1d263a30e856","945B815AA9D04EDBA58B91E4C01FA46D-2025-08-18-17-41-41","","null","","images/causal_sequence/dog_causal/dog_causal_ten.png","null","",""
"","","","","","image-button-response","73","731133","0.0-12.0-1.0-1.5","945B815AA9D04EDBA58B91E4C01FA46D","945B815AA9D04EDBA58B91E4C01FA46D","0198be1e-e907-735c-926a-87e9f46d5e75","0198be1d-574a-752e-ae53-1d263a30e856","{""num_scrambled_semantic"":""8"",""num_scrambled_causal"":""4"",""num_scrambled_schematic"":""4"",""participantId"":""945B815AA9D04EDBA58B91E4C01FA46D"",""assignmentId"":""0198be1e-e907-735c-926a-87e9f46d5e75"",""projectId"":""0198be1d-574a-752e-ae53-1d263a30e856""}","https://test12345.live/?num_scrambled_semantic=8&num_scrambled_causal=4&num_scrambled_schematic=4&participantId=945B815AA9D04EDBA58B91E4C01FA46D&assignmentId=0198be1e-e907-735c-926a-87e9f46d5e75&projectId=0198be1d-574a-752e-ae53-1d263a30e856","945B815AA9D04EDBA58B91E4C01FA46D-2025-08-18-17-41-41","","3093","","images/causal_sequence/dog_causal/dog_causal_ten.png","0","",""
"","","","","","image-button-response","74","741937","0.0-12.0-1.0-2.5","945B815AA9D04EDBA58B91E4C01FA46D","945B815AA9D04EDBA58B91E4C01FA46D","0198be1e-e907-735c-926a-87e9f46d5e75","0198be1d-574a-752e-ae53-1d263a30e856","{""num_scrambled_semantic"":""8"",""num_scrambled_causal"":""4"",""num_scrambled_schematic"":""4"",""participantId"":""945B815AA9D04EDBA58B91E4C01FA46D"",""assignmentId"":""0198be1e-e907-735c-926a-87e9f46d5e75"",""projectId"":""0198be1d-574a-752e-ae53-1d263a30e856""}","https://test12345.live/?num_scrambled_semantic=8&num_scrambled_causal=4&num_scrambled_schematic=4&participantId=945B815AA9D04EDBA58B91E4C01FA46D&assignmentId=0198be1e-e907-735c-926a-87e9f46d5e75&projectId=0198be1d-574a-752e-ae53-1d263a30e856","945B815AA9D04EDBA58B91E4C01FA46D-2025-08-18-17-41-41","","null","","[]","null","",""
"","","","","","image-button-response","75","746443","0.0-12.0-1.0-0.6","945B815AA9D04EDBA58B91E4C01FA46D","945B815AA9D04EDBA58B91E4C01FA46D","0198be1e-e907-735c-926a-87e9f46d5e75","0198be1d-574a-752e-ae53-1d263a30e856","{""num_scrambled_semantic"":""8"",""num_scrambled_causal"":""4"",""num_scrambled_schematic"":""4"",""participantId"":""945B815AA9D04EDBA58B91E4C01FA46D"",""assignmentId"":""0198be1e-e907-735c-926a-87e9f46d5e75"",""projectId"":""0198be1d-574a-752e-ae53-1d263a30e856""}","https://test12345.live/?num_scrambled_semantic=8&num_scrambled_causal=4&num_scrambled_schematic=4&participantId=945B815AA9D04EDBA58B91E4C01FA46D&assignmentId=0198be1e-e907-735c-926a-87e9f46d5e75&projectId=0198be1d-574a-752e-ae53-1d263a30e856","945B815AA9D04EDBA58B91E4C01FA46D-2025-08-18-17-41-41","","null","","images/causal_sequence/dog_causal/dog_causal_5.png","null","",""
"","","","","","image-button-response","76","747183","0.0-12.0-1.0-1.6","945B815AA9D04EDBA58B91E4C01FA46D","945B815AA9D04EDBA58B91E4C01FA46D","0198be1e-e907-735c-926a-87e9f46d5e75","0198be1d-574a-752e-ae53-1d263a30e856","{""num_scrambled_semantic"":""8"",""num_scrambled_causal"":""4"",""num_scrambled_schematic"":""4"",""participantId"":""945B815AA9D04EDBA58B91E4C01FA46D"",""assignmentId"":""0198be1e-e907-735c-926a-87e9f46d5e75"",""projectId"":""0198be1d-574a-752e-ae53-1d263a30e856""}","https://test12345.live/?num_scrambled_semantic=8&num_scrambled_causal=4&num_scrambled_schematic=4&participantId=945B815AA9D04EDBA58B91E4C01FA46D&assignmentId=0198be1e-e907-735c-926a-87e9f46d5e75&projectId=0198be1d-574a-752e-ae53-1d263a30e856","945B815AA9D04EDBA58B91E4C01FA46D-2025-08-18-17-41-41","","739","","images/causal_sequence/dog_causal/dog_causal_5.png","0","",""
"","","","","","image-button-response","77","757988","0.0-12.0-1.0-2.6","945B815AA9D04EDBA58B91E4C01FA46D","945B815AA9D04EDBA58B91E4C01FA46D","0198be1e-e907-735c-926a-87e9f46d5e75","0198be1d-574a-752e-ae53-1d263a30e856","{""num_scrambled_semantic"":""8"",""num_scrambled_causal"":""4"",""num_scrambled_schematic"":""4"",""participantId"":""945B815AA9D04EDBA58B91E4C01FA46D"",""assignmentId"":""0198be1e-e907-735c-926a-87e9f46d5e75"",""projectId"":""0198be1d-574a-752e-ae53-1d263a30e856""}","https://test12345.live/?num_scrambled_semantic=8&num_scrambled_causal=4&num_scrambled_schematic=4&participantId=945B815AA9D04EDBA58B91E4C01FA46D&assignmentId=0198be1e-e907-735c-926a-87e9f46d5e75&projectId=0198be1d-574a-752e-ae53-1d263a30e856","945B815AA9D04EDBA58B91E4C01FA46D-2025-08-18-17-41-41","","null","","[]","null","",""
"","","","","","image-button-response","78","762490","0.0-12.0-1.0-0.7","945B815AA9D04EDBA58B91E4C01FA46D","945B815AA9D04EDBA58B91E4C01FA46D","0198be1e-e907-735c-926a-87e9f46d5e75","0198be1d-574a-752e-ae53-1d263a30e856","{""num_scrambled_semantic"":""8"",""num_scrambled_causal"":""4"",""num_scrambled_schematic"":""4"",""participantId"":""945B815AA9D04EDBA58B91E4C01FA46D"",""assignmentId"":""0198be1e-e907-735c-926a-87e9f46d5e75"",""projectId"":""0198be1d-574a-752e-ae53-1d263a30e856""}","https://test12345.live/?num_scrambled_semantic=8&num_scrambled_causal=4&num_scrambled_schematic=4&participantId=945B815AA9D04EDBA58B91E4C01FA46D&assignmentId=0198be1e-e907-735c-926a-87e9f46d5e75&projectId=0198be1d-574a-752e-ae53-1d263a30e856","945B815AA9D04EDBA58B91E4C01FA46D-2025-08-18-17-41-41","","null","","images/causal_sequence/dog_causal/dog_causal_4.png","null","",""
"","","","","","image-button-response","79","765616","0.0-12.0-1.0-1.7","945B815AA9D04EDBA58B91E4C01FA46D","945B815AA9D04EDBA58B91E4C01FA46D","0198be1e-e907-735c-926a-87e9f46d5e75","0198be1d-574a-752e-ae53-1d263a30e856","{""num_scrambled_semantic"":""8"",""num_scrambled_causal"":""4"",""num_scrambled_schematic"":""4"",""participantId"":""945B815AA9D04EDBA58B91E4C01FA46D"",""assignmentId"":""0198be1e-e907-735c-926a-87e9f46d5e75"",""projectId"":""0198be1d-574a-752e-ae53-1d263a30e856""}","https://test12345.live/?num_scrambled_semantic=8&num_scrambled_causal=4&num_scrambled_schematic=4&participantId=945B815AA9D04EDBA58B91E4C01FA46D&assignmentId=0198be1e-e907-735c-926a-87e9f46d5e75&projectId=0198be1d-574a-752e-ae53-1d263a30e856","945B815AA9D04EDBA58B91E4C01FA46D-2025-08-18-17-41-41","","3124","","images/causal_sequence/dog_causal/dog_causal_4.png","0","",""
"","","","","","image-button-response","80","776418","0.0-12.0-1.0-2.7","945B815AA9D04EDBA58B91E4C01FA46D","945B815AA9D04EDBA58B91E4C01FA46D","0198be1e-e907-735c-926a-87e9f46d5e75","0198be1d-574a-752e-ae53-1d263a30e856","{""num_scrambled_semantic"":""8"",""num_scrambled_causal"":""4"",""num_scrambled_schematic"":""4"",""participantId"":""945B815AA9D04EDBA58B91E4C01FA46D"",""assignmentId"":""0198be1e-e907-735c-926a-87e9f46d5e75"",""projectId"":""0198be1d-574a-752e-ae53-1d263a30e856""}","https://test12345.live/?num_scrambled_semantic=8&num_scrambled_causal=4&num_scrambled_schematic=4&participantId=945B815AA9D04EDBA58B91E4C01FA46D&assignmentId=0198be1e-e907-735c-926a-87e9f46d5e75&projectId=0198be1d-574a-752e-ae53-1d263a30e856","945B815AA9D04EDBA58B91E4C01FA46D-2025-08-18-17-41-41","","null","","[]","null","",""
"","","","","","image-button-response","81","780923","0.0-12.0-1.0-0.8","945B815AA9D04EDBA58B91E4C01FA46D","945B815AA9D04EDBA58B91E4C01FA46D","0198be1e-e907-735c-926a-87e9f46d5e75","0198be1d-574a-752e-ae53-1d263a30e856","{""num_scrambled_semantic"":""8"",""num_scrambled_causal"":""4"",""num_scrambled_schematic"":""4"",""participantId"":""945B815AA9D04EDBA58B91E4C01FA46D"",""assignmentId"":""0198be1e-e907-735c-926a-87e9f46d5e75"",""projectId"":""0198be1d-574a-752e-ae53-1d263a30e856""}","https://test12345.live/?num_scrambled_semantic=8&num_scrambled_causal=4&num_scrambled_schematic=4&participantId=945B815AA9D04EDBA58B91E4C01FA46D&assignmentId=0198be1e-e907-735c-926a-87e9f46d5e75&projectId=0198be1d-574a-752e-ae53-1d263a30e856","945B815AA9D04EDBA58B91E4C01FA46D-2025-08-18-17-41-41","","null","","images/causal_sequence/dog_causal/dog_causal_3.png","null","",""
"","","","","","image-button-response","82","782583","0.0-12.0-1.0-1.8","945B815AA9D04EDBA58B91E4C01FA46D","945B815AA9D04EDBA58B91E4C01FA46D","0198be1e-e907-735c-926a-87e9f46d5e75","0198be1d-574a-752e-ae53-1d263a30e856","{""num_scrambled_semantic"":""8"",""num_scrambled_causal"":""4"",""num_scrambled_schematic"":""4"",""participantId"":""945B815AA9D04EDBA58B91E4C01FA46D"",""assignmentId"":""0198be1e-e907-735c-926a-87e9f46d5e75"",""projectId"":""0198be1d-574a-752e-ae53-1d263a30e856""}","https://test12345.live/?num_scrambled_semantic=8&num_scrambled_causal=4&num_scrambled_schematic=4&participantId=945B815AA9D04EDBA58B91E4C01FA46D&assignmentId=0198be1e-e907-735c-926a-87e9f46d5e75&projectId=0198be1d-574a-752e-ae53-1d263a30e856","945B815AA9D04EDBA58B91E4C01FA46D-2025-08-18-17-41-41","","1658","","images/causal_sequence/dog_causal/dog_causal_3.png","0","",""
"","","","","","image-button-response","83","793387","0.0-12.0-1.0-2.8","945B815AA9D04EDBA58B91E4C01FA46D","945B815AA9D04EDBA58B91E4C01FA46D","0198be1e-e907-735c-926a-87e9f46d5e75","0198be1d-574a-752e-ae53-1d263a30e856","{""num_scrambled_semantic"":""8"",""num_scrambled_causal"":""4"",""num_scrambled_schematic"":""4"",""participantId"":""945B815AA9D04EDBA58B91E4C01FA46D"",""assignmentId"":""0198be1e-e907-735c-926a-87e9f46d5e75"",""projectId"":""0198be1d-574a-752e-ae53-1d263a30e856""}","https://test12345.live/?num_scrambled_semantic=8&num_scrambled_causal=4&num_scrambled_schematic=4&participantId=945B815AA9D04EDBA58B91E4C01FA46D&assignmentId=0198be1e-e907-735c-926a-87e9f46d5e75&projectId=0198be1d-574a-752e-ae53-1d263a30e856","945B815AA9D04EDBA58B91E4C01FA46D-2025-08-18-17-41-41","","null","","[]","null","",""
"","","","","","image-button-response","84","797893","0.0-12.0-1.0-0.9","945B815AA9D04EDBA58B91E4C01FA46D","945B815AA9D04EDBA58B91E4C01FA46D","0198be1e-e907-735c-926a-87e9f46d5e75","0198be1d-574a-752e-ae53-1d263a30e856","{""num_scrambled_semantic"":""8"",""num_scrambled_causal"":""4"",""num_scrambled_schematic"":""4"",""participantId"":""945B815AA9D04EDBA58B91E4C01FA46D"",""assignmentId"":""0198be1e-e907-735c-926a-87e9f46d5e75"",""projectId"":""0198be1d-574a-752e-ae53-1d263a30e856""}","https://test12345.live/?num_scrambled_semantic=8&num_scrambled_causal=4&num_scrambled_schematic=4&participantId=945B815AA9D04EDBA58B91E4C01FA46D&assignmentId=0198be1e-e907-735c-926a-87e9f46d5e75&projectId=0198be1d-574a-752e-ae53-1d263a30e856","945B815AA9D04EDBA58B91E4C01FA46D-2025-08-18-17-41-41","","null","","images/causal_sequence/dog_causal/dog_causal_2.png","null","",""
"","","","","","image-button-response","85","799449","0.0-12.0-1.0-1.9","945B815AA9D04EDBA58B91E4C01FA46D","945B815AA9D04EDBA58B91E4C01FA46D","0198be1e-e907-735c-926a-87e9f46d5e75","0198be1d-574a-752e-ae53-1d263a30e856","{""num_scrambled_semantic"":""8"",""num_scrambled_causal"":""4"",""num_scrambled_schematic"":""4"",""participantId"":""945B815AA9D04EDBA58B91E4C01FA46D"",""assignmentId"":""0198be1e-e907-735c-926a-87e9f46d5e75"",""projectId"":""0198be1d-574a-752e-ae53-1d263a30e856""}","https://test12345.live/?num_scrambled_semantic=8&num_scrambled_causal=4&num_scrambled_schematic=4&participantId=945B815AA9D04EDBA58B91E4C01FA46D&assignmentId=0198be1e-e907-735c-926a-87e9f46d5e75&projectId=0198be1d-574a-752e-ae53-1d263a30e856","945B815AA9D04EDBA58B91E4C01FA46D-2025-08-18-17-41-41","","1555","","images/causal_sequence/dog_causal/dog_causal_2.png","0","",""
"","","","","","image-button-response","86","810255","0.0-12.0-1.0-2.9","945B815AA9D04EDBA58B91E4C01FA46D","945B815AA9D04EDBA58B91E4C01FA46D","0198be1e-e907-735c-926a-87e9f46d5e75","0198be1d-574a-752e-ae53-1d263a30e856","{""num_scrambled_semantic"":""8"",""num_scrambled_causal"":""4"",""num_scrambled_schematic"":""4"",""participantId"":""945B815AA9D04EDBA58B91E4C01FA46D"",""assignmentId"":""0198be1e-e907-735c-926a-87e9f46d5e75"",""projectId"":""0198be1d-574a-752e-ae53-1d263a30e856""}","https://test12345.live/?num_scrambled_semantic=8&num_scrambled_causal=4&num_scrambled_schematic=4&participantId=945B815AA9D04EDBA58B91E4C01FA46D&assignmentId=0198be1e-e907-735c-926a-87e9f46d5e75&projectId=0198be1d-574a-752e-ae53-1d263a30e856","945B815AA9D04EDBA58B91E4C01FA46D-2025-08-18-17-41-41","","null","","[]","null","",""
"","","","","","html-audio-response","87","882066","0.0-13.0","945B815AA9D04EDBA58B91E4C01FA46D","945B815AA9D04EDBA58B91E4C01FA46D","0198be1e-e907-735c-926a-87e9f46d5e75","0198be1d-574a-752e-ae53-1d263a30e856","{""num_scrambled_semantic"":""8"",""num_scrambled_causal"":""4"",""num_scrambled_schematic"":""4"",""participantId"":""945B815AA9D04EDBA58B91E4C01FA46D"",""assignmentId"":""0198be1e-e907-735c-926a-87e9f46d5e75"",""projectId"":""0198be1d-574a-752e-ae53-1d263a30e856""}","https://test12345.live/?num_scrambled_semantic=8&num_scrambled_causal=4&num_scrambled_schematic=4&participantId=945B815AA9D04EDBA58B91E4C01FA46D&assignmentId=0198be1e-e907-735c-926a-87e9f46d5e75&projectId=0198be1d-574a-752e-ae53-1d263a30e856","945B815AA9D04EDBA58B91E4C01FA46D-2025-08-18-17-41-41","","null","","[""<span style=\""color: red; font-size: 24px\""> NOW RECORDING</span><p>Please say out loud all the images you saw, in the exact order you saw them. Try to recall as many images as you can, but remember: getting the order right is more important than the number of images you recall.</p>""]","","1","dog_causal"
"","","","","","image-button-response","88","888078","0.0-14.0-0.0","945B815AA9D04EDBA58B91E4C01FA46D","945B815AA9D04EDBA58B91E4C01FA46D","0198be1e-e907-735c-926a-87e9f46d5e75","0198be1d-574a-752e-ae53-1d263a30e856","{""num_scrambled_semantic"":""8"",""num_scrambled_causal"":""4"",""num_scrambled_schematic"":""4"",""participantId"":""945B815AA9D04EDBA58B91E4C01FA46D"",""assignmentId"":""0198be1e-e907-735c-926a-87e9f46d5e75"",""projectId"":""0198be1d-574a-752e-ae53-1d263a30e856""}","https://test12345.live/?num_scrambled_semantic=8&num_scrambled_causal=4&num_scrambled_schematic=4&participantId=945B815AA9D04EDBA58B91E4C01FA46D&assignmentId=0198be1e-e907-735c-926a-87e9f46d5e75&projectId=0198be1d-574a-752e-ae53-1d263a30e856","945B815AA9D04EDBA58B91E4C01FA46D-2025-08-18-17-41-41","","null","","images/causal_sequence/package_causal/package_causal_0.png","null","",""
"","","","","","image-button-response","89","892580","0.0-14.0-1.0-0.0","945B815AA9D04EDBA58B91E4C01FA46D","945B815AA9D04EDBA58B91E4C01FA46D","0198be1e-e907-735c-926a-87e9f46d5e75","0198be1d-574a-752e-ae53-1d263a30e856","{""num_scrambled_semantic"":""8"",""num_scrambled_causal"":""4"",""num_scrambled_schematic"":""4"",""participantId"":""945B815AA9D04EDBA58B91E4C01FA46D"",""assignmentId"":""0198be1e-e907-735c-926a-87e9f46d5e75"",""projectId"":""0198be1d-574a-752e-ae53-1d263a30e856""}","https://test12345.live/?num_scrambled_semantic=8&num_scrambled_causal=4&num_scrambled_schematic=4&participantId=945B815AA9D04EDBA58B91E4C01FA46D&assignmentId=0198be1e-e907-735c-926a-87e9f46d5e75&projectId=0198be1d-574a-752e-ae53-1d263a30e856","945B815AA9D04EDBA58B91E4C01FA46D-2025-08-18-17-41-41","","null","","images/causal_sequence/package_causal/package_causal_9.png","null","",""
"","","","","","image-button-response","90","894115","0.0-14.0-1.0-1.0","945B815AA9D04EDBA58B91E4C01FA46D","945B815AA9D04EDBA58B91E4C01FA46D","0198be1e-e907-735c-926a-87e9f46d5e75","0198be1d-574a-752e-ae53-1d263a30e856","{""num_scrambled_semantic"":""8"",""num_scrambled_causal"":""4"",""num_scrambled_schematic"":""4"",""participantId"":""945B815AA9D04EDBA58B91E4C01FA46D"",""assignmentId"":""0198be1e-e907-735c-926a-87e9f46d5e75"",""projectId"":""0198be1d-574a-752e-ae53-1d263a30e856""}","https://test12345.live/?num_scrambled_semantic=8&num_scrambled_causal=4&num_scrambled_schematic=4&participantId=945B815AA9D04EDBA58B91E4C01FA46D&assignmentId=0198be1e-e907-735c-926a-87e9f46d5e75&projectId=0198be1d-574a-752e-ae53-1d263a30e856","945B815AA9D04EDBA58B91E4C01FA46D-2025-08-18-17-41-41","","1534","","images/causal_sequence/package_causal/package_causal_9.png","0","",""
"","","","","","image-button-response","91","904922","0.0-14.0-1.0-2.0","945B815AA9D04EDBA58B91E4C01FA46D","945B815AA9D04EDBA58B91E4C01FA46D","0198be1e-e907-735c-926a-87e9f46d5e75","0198be1d-574a-752e-ae53-1d263a30e856","{""num_scrambled_semantic"":""8"",""num_scrambled_causal"":""4"",""num_scrambled_schematic"":""4"",""participantId"":""945B815AA9D04EDBA58B91E4C01FA46D"",""assignmentId"":""0198be1e-e907-735c-926a-87e9f46d5e75"",""projectId"":""0198be1d-574a-752e-ae53-1d263a30e856""}","https://test12345.live/?num_scrambled_semantic=8&num_scrambled_causal=4&num_scrambled_schematic=4&participantId=945B815AA9D04EDBA58B91E4C01FA46D&assignmentId=0198be1e-e907-735c-926a-87e9f46d5e75&projectId=0198be1d-574a-752e-ae53-1d263a30e856","945B815AA9D04EDBA58B91E4C01FA46D-2025-08-18-17-41-41","","null","","[]","null","",""
"","","","","","image-button-response","92","909429","0.0-14.0-1.0-0.1","945B815AA9D04EDBA58B91E4C01FA46D","945B815AA9D04EDBA58B91E4C01FA46D","0198be1e-e907-735c-926a-87e9f46d5e75","0198be1d-574a-752e-ae53-1d263a30e856","{""num_scrambled_semantic"":""8"",""num_scrambled_causal"":""4"",""num_scrambled_schematic"":""4"",""participantId"":""945B815AA9D04EDBA58B91E4C01FA46D"",""assignmentId"":""0198be1e-e907-735c-926a-87e9f46d5e75"",""projectId"":""0198be1d-574a-752e-ae53-1d263a30e856""}","https://test12345.live/?num_scrambled_semantic=8&num_scrambled_causal=4&num_scrambled_schematic=4&participantId=945B815AA9D04EDBA58B91E4C01FA46D&assignmentId=0198be1e-e907-735c-926a-87e9f46d5e75&projectId=0198be1d-574a-752e-ae53-1d263a30e856","945B815AA9D04EDBA58B91E4C01FA46D-2025-08-18-17-41-41","","null","","images/causal_sequence/package_causal/package_causal_1.png","null","",""
"","","","","","image-button-response","93","911532","0.0-14.0-1.0-1.1","945B815AA9D04EDBA58B91E4C01FA46D","945B815AA9D04EDBA58B91E4C01FA46D","0198be1e-e907-735c-926a-87e9f46d5e75","0198be1d-574a-752e-ae53-1d263a30e856","{""num_scrambled_semantic"":""8"",""num_scrambled_causal"":""4"",""num_scrambled_schematic"":""4"",""participantId"":""945B815AA9D04EDBA58B91E4C01FA46D"",""assignmentId"":""0198be1e-e907-735c-926a-87e9f46d5e75"",""projectId"":""0198be1d-574a-752e-ae53-1d263a30e856""}","https://test12345.live/?num_scrambled_semantic=8&num_scrambled_causal=4&num_scrambled_schematic=4&participantId=945B815AA9D04EDBA58B91E4C01FA46D&assignmentId=0198be1e-e907-735c-926a-87e9f46d5e75&projectId=0198be1d-574a-752e-ae53-1d263a30e856","945B815AA9D04EDBA58B91E4C01FA46D-2025-08-18-17-41-41","","2102","","images/causal_sequence/package_causal/package_causal_1.png","0","",""
"","","","","","image-button-response","94","922339","0.0-14.0-1.0-2.1","945B815AA9D04EDBA58B91E4C01FA46D","945B815AA9D04EDBA58B91E4C01FA46D","0198be1e-e907-735c-926a-87e9f46d5e75","0198be1d-574a-752e-ae53-1d263a30e856","{""num_scrambled_semantic"":""8"",""num_scrambled_causal"":""4"",""num_scrambled_schematic"":""4"",""participantId"":""945B815AA9D04EDBA58B91E4C01FA46D"",""assignmentId"":""0198be1e-e907-735c-926a-87e9f46d5e75"",""projectId"":""0198be1d-574a-752e-ae53-1d263a30e856""}","https://test12345.live/?num_scrambled_semantic=8&num_scrambled_causal=4&num_scrambled_schematic=4&participantId=945B815AA9D04EDBA58B91E4C01FA46D&assignmentId=0198be1e-e907-735c-926a-87e9f46d5e75&projectId=0198be1d-574a-752e-ae53-1d263a30e856","945B815AA9D04EDBA58B91E4C01FA46D-2025-08-18-17-41-41","","null","","[]","null","",""
"","","","","","image-button-response","95","926840","0.0-14.0-1.0-0.2","945B815AA9D04EDBA58B91E4C01FA46D","945B815AA9D04EDBA58B91E4C01FA46D","0198be1e-e907-735c-926a-87e9f46d5e75","0198be1d-574a-752e-ae53-1d263a30e856","{""num_scrambled_semantic"":""8"",""num_scrambled_causal"":""4"",""num_scrambled_schematic"":""4"",""participantId"":""945B815AA9D04EDBA58B91E4C01FA46D"",""assignmentId"":""0198be1e-e907-735c-926a-87e9f46d5e75"",""projectId"":""0198be1d-574a-752e-ae53-1d263a30e856""}","https://test12345.live/?num_scrambled_semantic=8&num_scrambled_causal=4&num_scrambled_schematic=4&participantId=945B815AA9D04EDBA58B91E4C01FA46D&assignmentId=0198be1e-e907-735c-926a-87e9f46d5e75&projectId=0198be1d-574a-752e-ae53-1d263a30e856","945B815AA9D04EDBA58B91E4C01FA46D-2025-08-18-17-41-41","","null","","images/causal_sequence/package_causal/package_causal_8.png","null","",""
"","","","","","image-button-response","96","928432","0.0-14.0-1.0-1.2","945B815AA9D04EDBA58B91E4C01FA46D","945B815AA9D04EDBA58B91E4C01FA46D","0198be1e-e907-735c-926a-87e9f46d5e75","0198be1d-574a-752e-ae53-1d263a30e856","{""num_scrambled_semantic"":""8"",""num_scrambled_causal"":""4"",""num_scrambled_schematic"":""4"",""participantId"":""945B815AA9D04EDBA58B91E4C01FA46D"",""assignmentId"":""0198be1e-e907-735c-926a-87e9f46d5e75"",""projectId"":""0198be1d-574a-752e-ae53-1d263a30e856""}","https://test12345.live/?num_scrambled_semantic=8&num_scrambled_causal=4&num_scrambled_schematic=4&participantId=945B815AA9D04EDBA58B91E4C01FA46D&assignmentId=0198be1e-e907-735c-926a-87e9f46d5e75&projectId=0198be1d-574a-752e-ae53-1d263a30e856","945B815AA9D04EDBA58B91E4C01FA46D-2025-08-18-17-41-41","","1591","","images/causal_sequence/package_causal/package_causal_8.png","0","",""
"","","","","","image-button-response","97","939236","0.0-14.0-1.0-2.2","945B815AA9D04EDBA58B91E4C01FA46D","945B815AA9D04EDBA58B91E4C01FA46D","0198be1e-e907-735c-926a-87e9f46d5e75","0198be1d-574a-752e-ae53-1d263a30e856","{""num_scrambled_semantic"":""8"",""num_scrambled_causal"":""4"",""num_scrambled_schematic"":""4"",""participantId"":""945B815AA9D04EDBA58B91E4C01FA46D"",""assignmentId"":""0198be1e-e907-735c-926a-87e9f46d5e75"",""projectId"":""0198be1d-574a-752e-ae53-1d263a30e856""}","https://test12345.live/?num_scrambled_semantic=8&num_scrambled_causal=4&num_scrambled_schematic=4&participantId=945B815AA9D04EDBA58B91E4C01FA46D&assignmentId=0198be1e-e907-735c-926a-87e9f46d5e75&projectId=0198be1d-574a-752e-ae53-1d263a30e856","945B815AA9D04EDBA58B91E4C01FA46D-2025-08-18-17-41-41","","null","","[]","null","",""
"","","","","","image-button-response","98","943743","0.0-14.0-1.0-0.3","945B815AA9D04EDBA58B91E4C01FA46D","945B815AA9D04EDBA58B91E4C01FA46D","0198be1e-e907-735c-926a-87e9f46d5e75","0198be1d-574a-752e-ae53-1d263a30e856","{""num_scrambled_semantic"":""8"",""num_scrambled_causal"":""4"",""num_scrambled_schematic"":""4"",""participantId"":""945B815AA9D04EDBA58B91E4C01FA46D"",""assignmentId"":""0198be1e-e907-735c-926a-87e9f46d5e75"",""projectId"":""0198be1d-574a-752e-ae53-1d263a30e856""}","https://test12345.live/?num_scrambled_semantic=8&num_scrambled_causal=4&num_scrambled_schematic=4&participantId=945B815AA9D04EDBA58B91E4C01FA46D&assignmentId=0198be1e-e907-735c-926a-87e9f46d5e75&projectId=0198be1d-574a-752e-ae53-1d263a30e856","945B815AA9D04EDBA58B91E4C01FA46D-2025-08-18-17-41-41","","null","","images/causal_sequence/package_causal/package_causal_3.png","null","",""
"","","","","","image-button-response","99","944632","0.0-14.0-1.0-1.3","945B815AA9D04EDBA58B91E4C01FA46D","945B815AA9D04EDBA58B91E4C01FA46D","0198be1e-e907-735c-926a-87e9f46d5e75","0198be1d-574a-752e-ae53-1d263a30e856","{""num_scrambled_semantic"":""8"",""num_scrambled_causal"":""4"",""num_scrambled_schematic"":""4"",""participantId"":""945B815AA9D04EDBA58B91E4C01FA46D"",""assignmentId"":""0198be1e-e907-735c-926a-87e9f46d5e75"",""projectId"":""0198be1d-574a-752e-ae53-1d263a30e856""}","https://test12345.live/?num_scrambled_semantic=8&num_scrambled_causal=4&num_scrambled_schematic=4&participantId=945B815AA9D04EDBA58B91E4C01FA46D&assignmentId=0198be1e-e907-735c-926a-87e9f46d5e75&projectId=0198be1d-574a-752e-ae53-1d263a30e856","945B815AA9D04EDBA58B91E4C01FA46D-2025-08-18-17-41-41","","888","","images/causal_sequence/package_causal/package_causal_3.png","0","",""
"","","","","","image-button-response","100","955438","0.0-14.0-1.0-2.3","945B815AA9D04EDBA58B91E4C01FA46D","945B815AA9D04EDBA58B91E4C01FA46D","0198be1e-e907-735c-926a-87e9f46d5e75","0198be1d-574a-752e-ae53-1d263a30e856","{""num_scrambled_semantic"":""8"",""num_scrambled_causal"":""4"",""num_scrambled_schematic"":""4"",""participantId"":""945B815AA9D04EDBA58B91E4C01FA46D"",""assignmentId"":""0198be1e-e907-735c-926a-87e9f46d5e75"",""projectId"":""0198be1d-574a-752e-ae53-1d263a30e856""}","https://test12345.live/?num_scrambled_semantic=8&num_scrambled_causal=4&num_scrambled_schematic=4&participantId=945B815AA9D04EDBA58B91E4C01FA46D&assignmentId=0198be1e-e907-735c-926a-87e9f46d5e75&projectId=0198be1d-574a-752e-ae53-1d263a30e856","945B815AA9D04EDBA58B91E4C01FA46D-2025-08-18-17-41-41","","null","","[]","null","",""
"","","","","","image-button-response","101","959940","0.0-14.0-1.0-0.4","945B815AA9D04EDBA58B91E4C01FA46D","945B815AA9D04EDBA58B91E4C01FA46D","0198be1e-e907-735c-926a-87e9f46d5e75","0198be1d-574a-752e-ae53-1d263a30e856","{""num_scrambled_semantic"":""8"",""num_scrambled_causal"":""4"",""num_scrambled_schematic"":""4"",""participantId"":""945B815AA9D04EDBA58B91E4C01FA46D"",""assignmentId"":""0198be1e-e907-735c-926a-87e9f46d5e75"",""projectId"":""0198be1d-574a-752e-ae53-1d263a30e856""}","https://test12345.live/?num_scrambled_semantic=8&num_scrambled_causal=4&num_scrambled_schematic=4&participantId=945B815AA9D04EDBA58B91E4C01FA46D&assignmentId=0198be1e-e907-735c-926a-87e9f46d5e75&projectId=0198be1d-574a-752e-ae53-1d263a30e856","945B815AA9D04EDBA58B91E4C01FA46D-2025-08-18-17-41-41","","null","","images/causal_sequence/package_causal/package_causal_6.png","null","",""
"","","","","","image-button-response","102","960665","0.0-14.0-1.0-1.4","945B815AA9D04EDBA58B91E4C01FA46D","945B815AA9D04EDBA58B91E4C01FA46D","0198be1e-e907-735c-926a-87e9f46d5e75","0198be1d-574a-752e-ae53-1d263a30e856","{""num_scrambled_semantic"":""8"",""num_scrambled_causal"":""4"",""num_scrambled_schematic"":""4"",""participantId"":""945B815AA9D04EDBA58B91E4C01FA46D"",""assignmentId"":""0198be1e-e907-735c-926a-87e9f46d5e75"",""projectId"":""0198be1d-574a-752e-ae53-1d263a30e856""}","https://test12345.live/?num_scrambled_semantic=8&num_scrambled_causal=4&num_scrambled_schematic=4&participantId=945B815AA9D04EDBA58B91E4C01FA46D&assignmentId=0198be1e-e907-735c-926a-87e9f46d5e75&projectId=0198be1d-574a-752e-ae53-1d263a30e856","945B815AA9D04EDBA58B91E4C01FA46D-2025-08-18-17-41-41","","724","","images/causal_sequence/package_causal/package_causal_6.png","0","",""
"","","","","","image-button-response","103","971471","0.0-14.0-1.0-2.4","945B815AA9D04EDBA58B91E4C01FA46D","945B815AA9D04EDBA58B91E4C01FA46D","0198be1e-e907-735c-926a-87e9f46d5e75","0198be1d-574a-752e-ae53-1d263a30e856","{""num_scrambled_semantic"":""8"",""num_scrambled_causal"":""4"",""num_scrambled_schematic"":""4"",""participantId"":""945B815AA9D04EDBA58B91E4C01FA46D"",""assignmentId"":""0198be1e-e907-735c-926a-87e9f46d5e75"",""projectId"":""0198be1d-574a-752e-ae53-1d263a30e856""}","https://test12345.live/?num_scrambled_semantic=8&num_scrambled_causal=4&num_scrambled_schematic=4&participantId=945B815AA9D04EDBA58B91E4C01FA46D&assignmentId=0198be1e-e907-735c-926a-87e9f46d5e75&projectId=0198be1d-574a-752e-ae53-1d263a30e856","945B815AA9D04EDBA58B91E4C01FA46D-2025-08-18-17-41-41","","null","","[]","null","",""
"","","","","","image-button-response","104","975979","0.0-14.0-1.0-0.5","945B815AA9D04EDBA58B91E4C01FA46D","945B815AA9D04EDBA58B91E4C01FA46D","0198be1e-e907-735c-926a-87e9f46d5e75","0198be1d-574a-752e-ae53-1d263a30e856","{""num_scrambled_semantic"":""8"",""num_scrambled_causal"":""4"",""num_scrambled_schematic"":""4"",""participantId"":""945B815AA9D04EDBA58B91E4C01FA46D"",""assignmentId"":""0198be1e-e907-735c-926a-87e9f46d5e75"",""projectId"":""0198be1d-574a-752e-ae53-1d263a30e856""}","https://test12345.live/?num_scrambled_semantic=8&num_scrambled_causal=4&num_scrambled_schematic=4&participantId=945B815AA9D04EDBA58B91E4C01FA46D&assignmentId=0198be1e-e907-735c-926a-87e9f46d5e75&projectId=0198be1d-574a-752e-ae53-1d263a30e856","945B815AA9D04EDBA58B91E4C01FA46D-2025-08-18-17-41-41","","null","","images/causal_sequence/package_causal/package_causal_2.png","null","",""
"","","","","","image-button-response","105","979981","0.0-14.0-1.0-1.5","945B815AA9D04EDBA58B91E4C01FA46D","945B815AA9D04EDBA58B91E4C01FA46D","0198be1e-e907-735c-926a-87e9f46d5e75","0198be1d-574a-752e-ae53-1d263a30e856","{""num_scrambled_semantic"":""8"",""num_scrambled_causal"":""4"",""num_scrambled_schematic"":""4"",""participantId"":""945B815AA9D04EDBA58B91E4C01FA46D"",""assignmentId"":""0198be1e-e907-735c-926a-87e9f46d5e75"",""projectId"":""0198be1d-574a-752e-ae53-1d263a30e856""}","https://test12345.live/?num_scrambled_semantic=8&num_scrambled_causal=4&num_scrambled_schematic=4&participantId=945B815AA9D04EDBA58B91E4C01FA46D&assignmentId=0198be1e-e907-735c-926a-87e9f46d5e75&projectId=0198be1d-574a-752e-ae53-1d263a30e856","945B815AA9D04EDBA58B91E4C01FA46D-2025-08-18-17-41-41","","null","","images/causal_sequence/package_causal/package_causal_2.png","null","",""
"","","","","","image-button-response","106","990786","0.0-14.0-1.0-2.5","945B815AA9D04EDBA58B91E4C01FA46D","945B815AA9D04EDBA58B91E4C01FA46D","0198be1e-e907-735c-926a-87e9f46d5e75","0198be1d-574a-752e-ae53-1d263a30e856","{""num_scrambled_semantic"":""8"",""num_scrambled_causal"":""4"",""num_scrambled_schematic"":""4"",""participantId"":""945B815AA9D04EDBA58B91E4C01FA46D"",""assignmentId"":""0198be1e-e907-735c-926a-87e9f46d5e75"",""projectId"":""0198be1d-574a-752e-ae53-1d263a30e856""}","https://test12345.live/?num_scrambled_semantic=8&num_scrambled_causal=4&num_scrambled_schematic=4&participantId=945B815AA9D04EDBA58B91E4C01FA46D&assignmentId=0198be1e-e907-735c-926a-87e9f46d5e75&projectId=0198be1d-574a-752e-ae53-1d263a30e856","945B815AA9D04EDBA58B91E4C01FA46D-2025-08-18-17-41-41","","null","","[]","null","",""
"","","","","","image-button-response","107","995292","0.0-14.0-1.0-0.6","945B815AA9D04EDBA58B91E4C01FA46D","945B815AA9D04EDBA58B91E4C01FA46D","0198be1e-e907-735c-926a-87e9f46d5e75","0198be1d-574a-752e-ae53-1d263a30e856","{""num_scrambled_semantic"":""8"",""num_scrambled_causal"":""4"",""num_scrambled_schematic"":""4"",""participantId"":""945B815AA9D04EDBA58B91E4C01FA46D"",""assignmentId"":""0198be1e-e907-735c-926a-87e9f46d5e75"",""projectId"":""0198be1d-574a-752e-ae53-1d263a30e856""}","https://test12345.live/?num_scrambled_semantic=8&num_scrambled_causal=4&num_scrambled_schematic=4&participantId=945B815AA9D04EDBA58B91E4C01FA46D&assignmentId=0198be1e-e907-735c-926a-87e9f46d5e75&projectId=0198be1d-574a-752e-ae53-1d263a30e856","945B815AA9D04EDBA58B91E4C01FA46D-2025-08-18-17-41-41","","null","","images/causal_sequence/package_causal/package_causal_4.png","null","",""
"","","","","","image-button-response","108","997248","0.0-14.0-1.0-1.6","945B815AA9D04EDBA58B91E4C01FA46D","945B815AA9D04EDBA58B91E4C01FA46D","0198be1e-e907-735c-926a-87e9f46d5e75","0198be1d-574a-752e-ae53-1d263a30e856","{""num_scrambled_semantic"":""8"",""num_scrambled_causal"":""4"",""num_scrambled_schematic"":""4"",""participantId"":""945B815AA9D04EDBA58B91E4C01FA46D"",""assignmentId"":""0198be1e-e907-735c-926a-87e9f46d5e75"",""projectId"":""0198be1d-574a-752e-ae53-1d263a30e856""}","https://test12345.live/?num_scrambled_semantic=8&num_scrambled_causal=4&num_scrambled_schematic=4&participantId=945B815AA9D04EDBA58B91E4C01FA46D&assignmentId=0198be1e-e907-735c-926a-87e9f46d5e75&projectId=0198be1d-574a-752e-ae53-1d263a30e856","945B815AA9D04EDBA58B91E4C01FA46D-2025-08-18-17-41-41","","1955","","images/causal_sequence/package_causal/package_causal_4.png","1","",""
"","","","","","image-button-response","109","1008053","0.0-14.0-1.0-2.6","945B815AA9D04EDBA58B91E4C01FA46D","945B815AA9D04EDBA58B91E4C01FA46D","0198be1e-e907-735c-926a-87e9f46d5e75","0198be1d-574a-752e-ae53-1d263a30e856","{""num_scrambled_semantic"":""8"",""num_scrambled_causal"":""4"",""num_scrambled_schematic"":""4"",""participantId"":""945B815AA9D04EDBA58B91E4C01FA46D"",""assignmentId"":""0198be1e-e907-735c-926a-87e9f46d5e75"",""projectId"":""0198be1d-574a-752e-ae53-1d263a30e856""}","https://test12345.live/?num_scrambled_semantic=8&num_scrambled_causal=4&num_scrambled_schematic=4&participantId=945B815AA9D04EDBA58B91E4C01FA46D&assignmentId=0198be1e-e907-735c-926a-87e9f46d5e75&projectId=0198be1d-574a-752e-ae53-1d263a30e856","945B815AA9D04EDBA58B91E4C01FA46D-2025-08-18-17-41-41","","null","","[]","null","",""
"","","","","","image-button-response","110","1012556","0.0-14.0-1.0-0.7","945B815AA9D04EDBA58B91E4C01FA46D","945B815AA9D04EDBA58B91E4C01FA46D","0198be1e-e907-735c-926a-87e9f46d5e75","0198be1d-574a-752e-ae53-1d263a30e856","{""num_scrambled_semantic"":""8"",""num_scrambled_causal"":""4"",""num_scrambled_schematic"":""4"",""participantId"":""945B815AA9D04EDBA58B91E4C01FA46D"",""assignmentId"":""0198be1e-e907-735c-926a-87e9f46d5e75"",""projectId"":""0198be1d-574a-752e-ae53-1d263a30e856""}","https://test12345.live/?num_scrambled_semantic=8&num_scrambled_causal=4&num_scrambled_schematic=4&participantId=945B815AA9D04EDBA58B91E4C01FA46D&assignmentId=0198be1e-e907-735c-926a-87e9f46d5e75&projectId=0198be1d-574a-752e-ae53-1d263a30e856","945B815AA9D04EDBA58B91E4C01FA46D-2025-08-18-17-41-41","","null","","images/causal_sequence/package_causal/package_causal_ten.png","null","",""
"","","","","","image-button-response","111","1013398","0.0-14.0-1.0-1.7","945B815AA9D04EDBA58B91E4C01FA46D","945B815AA9D04EDBA58B91E4C01FA46D","0198be1e-e907-735c-926a-87e9f46d5e75","0198be1d-574a-752e-ae53-1d263a30e856","{""num_scrambled_semantic"":""8"",""num_scrambled_causal"":""4"",""num_scrambled_schematic"":""4"",""participantId"":""945B815AA9D04EDBA58B91E4C01FA46D"",""assignmentId"":""0198be1e-e907-735c-926a-87e9f46d5e75"",""projectId"":""0198be1d-574a-752e-ae53-1d263a30e856""}","https://test12345.live/?num_scrambled_semantic=8&num_scrambled_causal=4&num_scrambled_schematic=4&participantId=945B815AA9D04EDBA58B91E4C01FA46D&assignmentId=0198be1e-e907-735c-926a-87e9f46d5e75&projectId=0198be1d-574a-752e-ae53-1d263a30e856","945B815AA9D04EDBA58B91E4C01FA46D-2025-08-18-17-41-41","","842","","images/causal_sequence/package_causal/package_causal_ten.png","0","",""
"","","","","","image-button-response","112","1024204","0.0-14.0-1.0-2.7","945B815AA9D04EDBA58B91E4C01FA46D","945B815AA9D04EDBA58B91E4C01FA46D","0198be1e-e907-735c-926a-87e9f46d5e75","0198be1d-574a-752e-ae53-1d263a30e856","{""num_scrambled_semantic"":""8"",""num_scrambled_causal"":""4"",""num_scrambled_schematic"":""4"",""participantId"":""945B815AA9D04EDBA58B91E4C01FA46D"",""assignmentId"":""0198be1e-e907-735c-926a-87e9f46d5e75"",""projectId"":""0198be1d-574a-752e-ae53-1d263a30e856""}","https://test12345.live/?num_scrambled_semantic=8&num_scrambled_causal=4&num_scrambled_schematic=4&participantId=945B815AA9D04EDBA58B91E4C01FA46D&assignmentId=0198be1e-e907-735c-926a-87e9f46d5e75&projectId=0198be1d-574a-752e-ae53-1d263a30e856","945B815AA9D04EDBA58B91E4C01FA46D-2025-08-18-17-41-41","","null","","[]","null","",""
"","","","","","image-button-response","113","1028711","0.0-14.0-1.0-0.8","945B815AA9D04EDBA58B91E4C01FA46D","945B815AA9D04EDBA58B91E4C01FA46D","0198be1e-e907-735c-926a-87e9f46d5e75","0198be1d-574a-752e-ae53-1d263a30e856","{""num_scrambled_semantic"":""8"",""num_scrambled_causal"":""4"",""num_scrambled_schematic"":""4"",""participantId"":""945B815AA9D04EDBA58B91E4C01FA46D"",""assignmentId"":""0198be1e-e907-735c-926a-87e9f46d5e75"",""projectId"":""0198be1d-574a-752e-ae53-1d263a30e856""}","https://test12345.live/?num_scrambled_semantic=8&num_scrambled_causal=4&num_scrambled_schematic=4&participantId=945B815AA9D04EDBA58B91E4C01FA46D&assignmentId=0198be1e-e907-735c-926a-87e9f46d5e75&projectId=0198be1d-574a-752e-ae53-1d263a30e856","945B815AA9D04EDBA58B91E4C01FA46D-2025-08-18-17-41-41","","null","","images/causal_sequence/package_causal/package_causal_5.png","null","",""
"","","","","","image-button-response","114","1029231","0.0-14.0-1.0-1.8","945B815AA9D04EDBA58B91E4C01FA46D","945B815AA9D04EDBA58B91E4C01FA46D","0198be1e-e907-735c-926a-87e9f46d5e75","0198be1d-574a-752e-ae53-1d263a30e856","{""num_scrambled_semantic"":""8"",""num_scrambled_causal"":""4"",""num_scrambled_schematic"":""4"",""participantId"":""945B815AA9D04EDBA58B91E4C01FA46D"",""assignmentId"":""0198be1e-e907-735c-926a-87e9f46d5e75"",""projectId"":""0198be1d-574a-752e-ae53-1d263a30e856""}","https://test12345.live/?num_scrambled_semantic=8&num_scrambled_causal=4&num_scrambled_schematic=4&participantId=945B815AA9D04EDBA58B91E4C01FA46D&assignmentId=0198be1e-e907-735c-926a-87e9f46d5e75&projectId=0198be1d-574a-752e-ae53-1d263a30e856","945B815AA9D04EDBA58B91E4C01FA46D-2025-08-18-17-41-41","","518","","images/causal_sequence/package_causal/package_causal_5.png","0","",""
