"success","timeout","failed_images","failed_audio","failed_video","trial_type","trial_index","time_elapsed","internal_node_id","subject","subject_id","study_id","session_id","urlvar","current_url","audio_id","view_history","rt","device_id","stimulus","response","estimated_stimulus_onset","seq_name"
"true","false","[]","[]","[]","preload","0","244759","0.0-0.0","97B90CBB3F9C4BF6A1C7B98303DAFD74","97B90CBB3F9C4BF6A1C7B98303DAFD74","94d48ed5-8c37-4efc-9fd3-6875cce37ab5","051c06f1-75cc-4548-856d-4923ddaba0dc","{""num_scrambled_semantic"":""8"",""num_scrambled_causal"":""4"",""num_scrambled_schematic"":""4"",""participantId"":""97B90CBB3F9C4BF6A1C7B98303DAFD74"",""assignmentId"":""94d48ed5-8c37-4efc-9fd3-6875cce37ab5"",""projectId"":""051c06f1-75cc-4548-856d-4923ddaba0dc""}","https://test12345.live/?num_scrambled_semantic=8&num_scrambled_causal=4&num_scrambled_schematic=4&participantId=97B90CBB3F9C4BF6A1C7B98303DAFD74&assignmentId=94d48ed5-8c37-4efc-9fd3-6875cce37ab5&projectId=051c06f1-75cc-4548-856d-4923ddaba0dc","97B90CBB3F9C4BF6A1C7B98303DAFD74-2025-05-15-18-50-30","","","","","","",""
"","","","","","instructions","1","296954","0.0-1.0","97B90CBB3F9C4BF6A1C7B98303DAFD74","97B90CBB3F9C4BF6A1C7B98303DAFD74","94d48ed5-8c37-4efc-9fd3-6875cce37ab5","051c06f1-75cc-4548-856d-4923ddaba0dc","{""num_scrambled_semantic"":""8"",""num_scrambled_causal"":""4"",""num_scrambled_schematic"":""4"",""participantId"":""97B90CBB3F9C4BF6A1C7B98303DAFD74"",""assignmentId"":""94d48ed5-8c37-4efc-9fd3-6875cce37ab5"",""projectId"":""051c06f1-75cc-4548-856d-4923ddaba0dc""}","https://test12345.live/?num_scrambled_semantic=8&num_scrambled_causal=4&num_scrambled_schematic=4&participantId=97B90CBB3F9C4BF6A1C7B98303DAFD74&assignmentId=94d48ed5-8c37-4efc-9fd3-6875cce37ab5&projectId=051c06f1-75cc-4548-856d-4923ddaba0dc","97B90CBB3F9C4BF6A1C7B98303DAFD74-2025-05-15-18-50-30","[{""page_index"":0,""viewing_time"":52194}]","52194","","","","",""
"","","","","","instructions","2","314569","0.0-2.0","97B90CBB3F9C4BF6A1C7B98303DAFD74","97B90CBB3F9C4BF6A1C7B98303DAFD74","94d48ed5-8c37-4efc-9fd3-6875cce37ab5","051c06f1-75cc-4548-856d-4923ddaba0dc","{""num_scrambled_semantic"":""8"",""num_scrambled_causal"":""4"",""num_scrambled_schematic"":""4"",""participantId"":""97B90CBB3F9C4BF6A1C7B98303DAFD74"",""assignmentId"":""94d48ed5-8c37-4efc-9fd3-6875cce37ab5"",""projectId"":""051c06f1-75cc-4548-856d-4923ddaba0dc""}","https://test12345.live/?num_scrambled_semantic=8&num_scrambled_causal=4&num_scrambled_schematic=4&participantId=97B90CBB3F9C4BF6A1C7B98303DAFD74&assignmentId=94d48ed5-8c37-4efc-9fd3-6875cce37ab5&projectId=051c06f1-75cc-4548-856d-4923ddaba0dc","97B90CBB3F9C4BF6A1C7B98303DAFD74-2025-05-15-18-50-30","[{""page_index"":0,""viewing_time"":17614}]","17615","","","","",""
"true","","","","","fullscreen","3","323330","0.0-3.0","97B90CBB3F9C4BF6A1C7B98303DAFD74","97B90CBB3F9C4BF6A1C7B98303DAFD74","94d48ed5-8c37-4efc-9fd3-6875cce37ab5","051c06f1-75cc-4548-856d-4923ddaba0dc","{""num_scrambled_semantic"":""8"",""num_scrambled_causal"":""4"",""num_scrambled_schematic"":""4"",""participantId"":""97B90CBB3F9C4BF6A1C7B98303DAFD74"",""assignmentId"":""94d48ed5-8c37-4efc-9fd3-6875cce37ab5"",""projectId"":""051c06f1-75cc-4548-856d-4923ddaba0dc""}","https://test12345.live/?num_scrambled_semantic=8&num_scrambled_causal=4&num_scrambled_schematic=4&participantId=97B90CBB3F9C4BF6A1C7B98303DAFD74&assignmentId=94d48ed5-8c37-4efc-9fd3-6875cce37ab5&projectId=051c06f1-75cc-4548-856d-4923ddaba0dc","97B90CBB3F9C4BF6A1C7B98303DAFD74-2025-05-15-18-50-30","","7758","","","","",""
"","","","","","initialize-microphone","4","334683","0.0-4.0-0.0","97B90CBB3F9C4BF6A1C7B98303DAFD74","97B90CBB3F9C4BF6A1C7B98303DAFD74","94d48ed5-8c37-4efc-9fd3-6875cce37ab5","051c06f1-75cc-4548-856d-4923ddaba0dc","{""num_scrambled_semantic"":""8"",""num_scrambled_causal"":""4"",""num_scrambled_schematic"":""4"",""participantId"":""97B90CBB3F9C4BF6A1C7B98303DAFD74"",""assignmentId"":""94d48ed5-8c37-4efc-9fd3-6875cce37ab5"",""projectId"":""051c06f1-75cc-4548-856d-4923ddaba0dc""}","https://test12345.live/?num_scrambled_semantic=8&num_scrambled_causal=4&num_scrambled_schematic=4&participantId=97B90CBB3F9C4BF6A1C7B98303DAFD74&assignmentId=94d48ed5-8c37-4efc-9fd3-6875cce37ab5&projectId=051c06f1-75cc-4548-856d-4923ddaba0dc","97B90CBB3F9C4BF6A1C7B98303DAFD74-2025-05-15-18-50-30","","","16e869c95210697d538fd1436cb3700299d3f8276540a20e51a8b6fe88a73c4b","","","",""
"","","","","","html-audio-response","5","348019","0.0-4.0-1.0","97B90CBB3F9C4BF6A1C7B98303DAFD74","97B90CBB3F9C4BF6A1C7B98303DAFD74","94d48ed5-8c37-4efc-9fd3-6875cce37ab5","051c06f1-75cc-4548-856d-4923ddaba0dc","{""num_scrambled_semantic"":""8"",""num_scrambled_causal"":""4"",""num_scrambled_schematic"":""4"",""participantId"":""97B90CBB3F9C4BF6A1C7B98303DAFD74"",""assignmentId"":""94d48ed5-8c37-4efc-9fd3-6875cce37ab5"",""projectId"":""051c06f1-75cc-4548-856d-4923ddaba0dc""}","https://test12345.live/?num_scrambled_semantic=8&num_scrambled_causal=4&num_scrambled_schematic=4&participantId=97B90CBB3F9C4BF6A1C7B98303DAFD74&assignmentId=94d48ed5-8c37-4efc-9fd3-6875cce37ab5&projectId=051c06f1-75cc-4548-856d-4923ddaba0dc","97B90CBB3F9C4BF6A1C7B98303DAFD74-2025-05-15-18-50-30","","5360","","<span style=""color: red; font-size: 24px""> NOW RECORDING</span>
        <p>Please test Microphone</p>","","8",""
"","","","","","html-button-response","6","351833","0.0-4.0-2.0","97B90CBB3F9C4BF6A1C7B98303DAFD74","97B90CBB3F9C4BF6A1C7B98303DAFD74","94d48ed5-8c37-4efc-9fd3-6875cce37ab5","051c06f1-75cc-4548-856d-4923ddaba0dc","{""num_scrambled_semantic"":""8"",""num_scrambled_causal"":""4"",""num_scrambled_schematic"":""4"",""participantId"":""97B90CBB3F9C4BF6A1C7B98303DAFD74"",""assignmentId"":""94d48ed5-8c37-4efc-9fd3-6875cce37ab5"",""projectId"":""051c06f1-75cc-4548-856d-4923ddaba0dc""}","https://test12345.live/?num_scrambled_semantic=8&num_scrambled_causal=4&num_scrambled_schematic=4&participantId=97B90CBB3F9C4BF6A1C7B98303DAFD74&assignmentId=94d48ed5-8c37-4efc-9fd3-6875cce37ab5&projectId=051c06f1-75cc-4548-856d-4923ddaba0dc","97B90CBB3F9C4BF6A1C7B98303DAFD74-2025-05-15-18-50-30","","3813","","<p style=""font-size:48px; color:red;"">Is Microphone OK?</p>","1","",""
"","","","","","instructions","7","371825","0.0-5.0","97B90CBB3F9C4BF6A1C7B98303DAFD74","97B90CBB3F9C4BF6A1C7B98303DAFD74","94d48ed5-8c37-4efc-9fd3-6875cce37ab5","051c06f1-75cc-4548-856d-4923ddaba0dc","{""num_scrambled_semantic"":""8"",""num_scrambled_causal"":""4"",""num_scrambled_schematic"":""4"",""participantId"":""97B90CBB3F9C4BF6A1C7B98303DAFD74"",""assignmentId"":""94d48ed5-8c37-4efc-9fd3-6875cce37ab5"",""projectId"":""051c06f1-75cc-4548-856d-4923ddaba0dc""}","https://test12345.live/?num_scrambled_semantic=8&num_scrambled_causal=4&num_scrambled_schematic=4&participantId=97B90CBB3F9C4BF6A1C7B98303DAFD74&assignmentId=94d48ed5-8c37-4efc-9fd3-6875cce37ab5&projectId=051c06f1-75cc-4548-856d-4923ddaba0dc","97B90CBB3F9C4BF6A1C7B98303DAFD74-2025-05-15-18-50-30","[{""page_index"":0,""viewing_time"":9808},{""page_index"":1,""viewing_time"":10183}]","19991","","","","",""
"","","","","","image-button-response","8","377829","0.0-6.0-0.0","97B90CBB3F9C4BF6A1C7B98303DAFD74","97B90CBB3F9C4BF6A1C7B98303DAFD74","94d48ed5-8c37-4efc-9fd3-6875cce37ab5","051c06f1-75cc-4548-856d-4923ddaba0dc","{""num_scrambled_semantic"":""8"",""num_scrambled_causal"":""4"",""num_scrambled_schematic"":""4"",""participantId"":""97B90CBB3F9C4BF6A1C7B98303DAFD74"",""assignmentId"":""94d48ed5-8c37-4efc-9fd3-6875cce37ab5"",""projectId"":""051c06f1-75cc-4548-856d-4923ddaba0dc""}","https://test12345.live/?num_scrambled_semantic=8&num_scrambled_causal=4&num_scrambled_schematic=4&participantId=97B90CBB3F9C4BF6A1C7B98303DAFD74&assignmentId=94d48ed5-8c37-4efc-9fd3-6875cce37ab5&projectId=051c06f1-75cc-4548-856d-4923ddaba0dc","97B90CBB3F9C4BF6A1C7B98303DAFD74-2025-05-15-18-50-30","","null","","images/instructions/movie_0.png","null","",""
"","","","","","image-button-response","9","382336","0.0-6.0-1.0-0.0","97B90CBB3F9C4BF6A1C7B98303DAFD74","97B90CBB3F9C4BF6A1C7B98303DAFD74","94d48ed5-8c37-4efc-9fd3-6875cce37ab5","051c06f1-75cc-4548-856d-4923ddaba0dc","{""num_scrambled_semantic"":""8"",""num_scrambled_causal"":""4"",""num_scrambled_schematic"":""4"",""participantId"":""97B90CBB3F9C4BF6A1C7B98303DAFD74"",""assignmentId"":""94d48ed5-8c37-4efc-9fd3-6875cce37ab5"",""projectId"":""051c06f1-75cc-4548-856d-4923ddaba0dc""}","https://test12345.live/?num_scrambled_semantic=8&num_scrambled_causal=4&num_scrambled_schematic=4&participantId=97B90CBB3F9C4BF6A1C7B98303DAFD74&assignmentId=94d48ed5-8c37-4efc-9fd3-6875cce37ab5&projectId=051c06f1-75cc-4548-856d-4923ddaba0dc","97B90CBB3F9C4BF6A1C7B98303DAFD74-2025-05-15-18-50-30","","null","","images/instructions/movie_1.png","null","",""
"","","","","","image-button-response","10","386338","0.0-6.0-1.0-1.0","97B90CBB3F9C4BF6A1C7B98303DAFD74","97B90CBB3F9C4BF6A1C7B98303DAFD74","94d48ed5-8c37-4efc-9fd3-6875cce37ab5","051c06f1-75cc-4548-856d-4923ddaba0dc","{""num_scrambled_semantic"":""8"",""num_scrambled_causal"":""4"",""num_scrambled_schematic"":""4"",""participantId"":""97B90CBB3F9C4BF6A1C7B98303DAFD74"",""assignmentId"":""94d48ed5-8c37-4efc-9fd3-6875cce37ab5"",""projectId"":""051c06f1-75cc-4548-856d-4923ddaba0dc""}","https://test12345.live/?num_scrambled_semantic=8&num_scrambled_causal=4&num_scrambled_schematic=4&participantId=97B90CBB3F9C4BF6A1C7B98303DAFD74&assignmentId=94d48ed5-8c37-4efc-9fd3-6875cce37ab5&projectId=051c06f1-75cc-4548-856d-4923ddaba0dc","97B90CBB3F9C4BF6A1C7B98303DAFD74-2025-05-15-18-50-30","","null","","images/instructions/movie_1.png","null","",""
"","","","","","image-button-response","11","388151","0.0-6.0-1.0-2.0","97B90CBB3F9C4BF6A1C7B98303DAFD74","97B90CBB3F9C4BF6A1C7B98303DAFD74","94d48ed5-8c37-4efc-9fd3-6875cce37ab5","051c06f1-75cc-4548-856d-4923ddaba0dc","{""num_scrambled_semantic"":""8"",""num_scrambled_causal"":""4"",""num_scrambled_schematic"":""4"",""participantId"":""97B90CBB3F9C4BF6A1C7B98303DAFD74"",""assignmentId"":""94d48ed5-8c37-4efc-9fd3-6875cce37ab5"",""projectId"":""051c06f1-75cc-4548-856d-4923ddaba0dc""}","https://test12345.live/?num_scrambled_semantic=8&num_scrambled_causal=4&num_scrambled_schematic=4&participantId=97B90CBB3F9C4BF6A1C7B98303DAFD74&assignmentId=94d48ed5-8c37-4efc-9fd3-6875cce37ab5&projectId=051c06f1-75cc-4548-856d-4923ddaba0dc","97B90CBB3F9C4BF6A1C7B98303DAFD74-2025-05-15-18-50-30","","null","","[]","null","",""
"","","","","","image-button-response","12","392654","0.0-6.0-1.0-0.1","97B90CBB3F9C4BF6A1C7B98303DAFD74","97B90CBB3F9C4BF6A1C7B98303DAFD74","94d48ed5-8c37-4efc-9fd3-6875cce37ab5","051c06f1-75cc-4548-856d-4923ddaba0dc","{""num_scrambled_semantic"":""8"",""num_scrambled_causal"":""4"",""num_scrambled_schematic"":""4"",""participantId"":""97B90CBB3F9C4BF6A1C7B98303DAFD74"",""assignmentId"":""94d48ed5-8c37-4efc-9fd3-6875cce37ab5"",""projectId"":""051c06f1-75cc-4548-856d-4923ddaba0dc""}","https://test12345.live/?num_scrambled_semantic=8&num_scrambled_causal=4&num_scrambled_schematic=4&participantId=97B90CBB3F9C4BF6A1C7B98303DAFD74&assignmentId=94d48ed5-8c37-4efc-9fd3-6875cce37ab5&projectId=051c06f1-75cc-4548-856d-4923ddaba0dc","97B90CBB3F9C4BF6A1C7B98303DAFD74-2025-05-15-18-50-30","","null","","images/instructions/movie_2.png","null","",""
"","","","","","image-button-response","13","393537","0.0-6.0-1.0-1.1","97B90CBB3F9C4BF6A1C7B98303DAFD74","97B90CBB3F9C4BF6A1C7B98303DAFD74","94d48ed5-8c37-4efc-9fd3-6875cce37ab5","051c06f1-75cc-4548-856d-4923ddaba0dc","{""num_scrambled_semantic"":""8"",""num_scrambled_causal"":""4"",""num_scrambled_schematic"":""4"",""participantId"":""97B90CBB3F9C4BF6A1C7B98303DAFD74"",""assignmentId"":""94d48ed5-8c37-4efc-9fd3-6875cce37ab5"",""projectId"":""051c06f1-75cc-4548-856d-4923ddaba0dc""}","https://test12345.live/?num_scrambled_semantic=8&num_scrambled_causal=4&num_scrambled_schematic=4&participantId=97B90CBB3F9C4BF6A1C7B98303DAFD74&assignmentId=94d48ed5-8c37-4efc-9fd3-6875cce37ab5&projectId=051c06f1-75cc-4548-856d-4923ddaba0dc","97B90CBB3F9C4BF6A1C7B98303DAFD74-2025-05-15-18-50-30","","882","","images/instructions/movie_2.png","0","",""
"","","","","","image-button-response","14","395349","0.0-6.0-1.0-2.1","97B90CBB3F9C4BF6A1C7B98303DAFD74","97B90CBB3F9C4BF6A1C7B98303DAFD74","94d48ed5-8c37-4efc-9fd3-6875cce37ab5","051c06f1-75cc-4548-856d-4923ddaba0dc","{""num_scrambled_semantic"":""8"",""num_scrambled_causal"":""4"",""num_scrambled_schematic"":""4"",""participantId"":""97B90CBB3F9C4BF6A1C7B98303DAFD74"",""assignmentId"":""94d48ed5-8c37-4efc-9fd3-6875cce37ab5"",""projectId"":""051c06f1-75cc-4548-856d-4923ddaba0dc""}","https://test12345.live/?num_scrambled_semantic=8&num_scrambled_causal=4&num_scrambled_schematic=4&participantId=97B90CBB3F9C4BF6A1C7B98303DAFD74&assignmentId=94d48ed5-8c37-4efc-9fd3-6875cce37ab5&projectId=051c06f1-75cc-4548-856d-4923ddaba0dc","97B90CBB3F9C4BF6A1C7B98303DAFD74-2025-05-15-18-50-30","","null","","[]","null","",""
"","","","","","image-button-response","15","399866","0.0-6.0-1.0-0.2","97B90CBB3F9C4BF6A1C7B98303DAFD74","97B90CBB3F9C4BF6A1C7B98303DAFD74","94d48ed5-8c37-4efc-9fd3-6875cce37ab5","051c06f1-75cc-4548-856d-4923ddaba0dc","{""num_scrambled_semantic"":""8"",""num_scrambled_causal"":""4"",""num_scrambled_schematic"":""4"",""participantId"":""97B90CBB3F9C4BF6A1C7B98303DAFD74"",""assignmentId"":""94d48ed5-8c37-4efc-9fd3-6875cce37ab5"",""projectId"":""051c06f1-75cc-4548-856d-4923ddaba0dc""}","https://test12345.live/?num_scrambled_semantic=8&num_scrambled_causal=4&num_scrambled_schematic=4&participantId=97B90CBB3F9C4BF6A1C7B98303DAFD74&assignmentId=94d48ed5-8c37-4efc-9fd3-6875cce37ab5&projectId=051c06f1-75cc-4548-856d-4923ddaba0dc","97B90CBB3F9C4BF6A1C7B98303DAFD74-2025-05-15-18-50-30","","null","","images/instructions/movie_3.png","null","",""
"","","","","","image-button-response","16","401225","0.0-6.0-1.0-1.2","97B90CBB3F9C4BF6A1C7B98303DAFD74","97B90CBB3F9C4BF6A1C7B98303DAFD74","94d48ed5-8c37-4efc-9fd3-6875cce37ab5","051c06f1-75cc-4548-856d-4923ddaba0dc","{""num_scrambled_semantic"":""8"",""num_scrambled_causal"":""4"",""num_scrambled_schematic"":""4"",""participantId"":""97B90CBB3F9C4BF6A1C7B98303DAFD74"",""assignmentId"":""94d48ed5-8c37-4efc-9fd3-6875cce37ab5"",""projectId"":""051c06f1-75cc-4548-856d-4923ddaba0dc""}","https://test12345.live/?num_scrambled_semantic=8&num_scrambled_causal=4&num_scrambled_schematic=4&participantId=97B90CBB3F9C4BF6A1C7B98303DAFD74&assignmentId=94d48ed5-8c37-4efc-9fd3-6875cce37ab5&projectId=051c06f1-75cc-4548-856d-4923ddaba0dc","97B90CBB3F9C4BF6A1C7B98303DAFD74-2025-05-15-18-50-30","","1358","","images/instructions/movie_3.png","0","",""
"","","","","","image-button-response","17","403032","0.0-6.0-1.0-2.2","97B90CBB3F9C4BF6A1C7B98303DAFD74","97B90CBB3F9C4BF6A1C7B98303DAFD74","94d48ed5-8c37-4efc-9fd3-6875cce37ab5","051c06f1-75cc-4548-856d-4923ddaba0dc","{""num_scrambled_semantic"":""8"",""num_scrambled_causal"":""4"",""num_scrambled_schematic"":""4"",""participantId"":""97B90CBB3F9C4BF6A1C7B98303DAFD74"",""assignmentId"":""94d48ed5-8c37-4efc-9fd3-6875cce37ab5"",""projectId"":""051c06f1-75cc-4548-856d-4923ddaba0dc""}","https://test12345.live/?num_scrambled_semantic=8&num_scrambled_causal=4&num_scrambled_schematic=4&participantId=97B90CBB3F9C4BF6A1C7B98303DAFD74&assignmentId=94d48ed5-8c37-4efc-9fd3-6875cce37ab5&projectId=051c06f1-75cc-4548-856d-4923ddaba0dc","97B90CBB3F9C4BF6A1C7B98303DAFD74-2025-05-15-18-50-30","","null","","[]","null","",""
"","","","","","image-button-response","18","407538","0.0-6.0-1.0-0.3","97B90CBB3F9C4BF6A1C7B98303DAFD74","97B90CBB3F9C4BF6A1C7B98303DAFD74","94d48ed5-8c37-4efc-9fd3-6875cce37ab5","051c06f1-75cc-4548-856d-4923ddaba0dc","{""num_scrambled_semantic"":""8"",""num_scrambled_causal"":""4"",""num_scrambled_schematic"":""4"",""participantId"":""97B90CBB3F9C4BF6A1C7B98303DAFD74"",""assignmentId"":""94d48ed5-8c37-4efc-9fd3-6875cce37ab5"",""projectId"":""051c06f1-75cc-4548-856d-4923ddaba0dc""}","https://test12345.live/?num_scrambled_semantic=8&num_scrambled_causal=4&num_scrambled_schematic=4&participantId=97B90CBB3F9C4BF6A1C7B98303DAFD74&assignmentId=94d48ed5-8c37-4efc-9fd3-6875cce37ab5&projectId=051c06f1-75cc-4548-856d-4923ddaba0dc","97B90CBB3F9C4BF6A1C7B98303DAFD74-2025-05-15-18-50-30","","null","","images/instructions/movie_4.png","null","",""
"","","","","","image-button-response","19","409089","0.0-6.0-1.0-1.3","97B90CBB3F9C4BF6A1C7B98303DAFD74","97B90CBB3F9C4BF6A1C7B98303DAFD74","94d48ed5-8c37-4efc-9fd3-6875cce37ab5","051c06f1-75cc-4548-856d-4923ddaba0dc","{""num_scrambled_semantic"":""8"",""num_scrambled_causal"":""4"",""num_scrambled_schematic"":""4"",""participantId"":""97B90CBB3F9C4BF6A1C7B98303DAFD74"",""assignmentId"":""94d48ed5-8c37-4efc-9fd3-6875cce37ab5"",""projectId"":""051c06f1-75cc-4548-856d-4923ddaba0dc""}","https://test12345.live/?num_scrambled_semantic=8&num_scrambled_causal=4&num_scrambled_schematic=4&participantId=97B90CBB3F9C4BF6A1C7B98303DAFD74&assignmentId=94d48ed5-8c37-4efc-9fd3-6875cce37ab5&projectId=051c06f1-75cc-4548-856d-4923ddaba0dc","97B90CBB3F9C4BF6A1C7B98303DAFD74-2025-05-15-18-50-30","","1550","","images/instructions/movie_4.png","0","",""
"","","","","","image-button-response","20","410898","0.0-6.0-1.0-2.3","97B90CBB3F9C4BF6A1C7B98303DAFD74","97B90CBB3F9C4BF6A1C7B98303DAFD74","94d48ed5-8c37-4efc-9fd3-6875cce37ab5","051c06f1-75cc-4548-856d-4923ddaba0dc","{""num_scrambled_semantic"":""8"",""num_scrambled_causal"":""4"",""num_scrambled_schematic"":""4"",""participantId"":""97B90CBB3F9C4BF6A1C7B98303DAFD74"",""assignmentId"":""94d48ed5-8c37-4efc-9fd3-6875cce37ab5"",""projectId"":""051c06f1-75cc-4548-856d-4923ddaba0dc""}","https://test12345.live/?num_scrambled_semantic=8&num_scrambled_causal=4&num_scrambled_schematic=4&participantId=97B90CBB3F9C4BF6A1C7B98303DAFD74&assignmentId=94d48ed5-8c37-4efc-9fd3-6875cce37ab5&projectId=051c06f1-75cc-4548-856d-4923ddaba0dc","97B90CBB3F9C4BF6A1C7B98303DAFD74-2025-05-15-18-50-30","","null","","[]","null","",""
"","","","","","instructions","21","426169","0.0-7.0","97B90CBB3F9C4BF6A1C7B98303DAFD74","97B90CBB3F9C4BF6A1C7B98303DAFD74","94d48ed5-8c37-4efc-9fd3-6875cce37ab5","051c06f1-75cc-4548-856d-4923ddaba0dc","{""num_scrambled_semantic"":""8"",""num_scrambled_causal"":""4"",""num_scrambled_schematic"":""4"",""participantId"":""97B90CBB3F9C4BF6A1C7B98303DAFD74"",""assignmentId"":""94d48ed5-8c37-4efc-9fd3-6875cce37ab5"",""projectId"":""051c06f1-75cc-4548-856d-4923ddaba0dc""}","https://test12345.live/?num_scrambled_semantic=8&num_scrambled_causal=4&num_scrambled_schematic=4&participantId=97B90CBB3F9C4BF6A1C7B98303DAFD74&assignmentId=94d48ed5-8c37-4efc-9fd3-6875cce37ab5&projectId=051c06f1-75cc-4548-856d-4923ddaba0dc","97B90CBB3F9C4BF6A1C7B98303DAFD74-2025-05-15-18-50-30","[{""page_index"":0,""viewing_time"":8791},{""page_index"":1,""viewing_time"":6480}]","15271","","","","",""
"","","","","","html-audio-response","22","441825","0.0-8.0","97B90CBB3F9C4BF6A1C7B98303DAFD74","97B90CBB3F9C4BF6A1C7B98303DAFD74","94d48ed5-8c37-4efc-9fd3-6875cce37ab5","051c06f1-75cc-4548-856d-4923ddaba0dc","{""num_scrambled_semantic"":""8"",""num_scrambled_causal"":""4"",""num_scrambled_schematic"":""4"",""participantId"":""97B90CBB3F9C4BF6A1C7B98303DAFD74"",""assignmentId"":""94d48ed5-8c37-4efc-9fd3-6875cce37ab5"",""projectId"":""051c06f1-75cc-4548-856d-4923ddaba0dc""}","https://test12345.live/?num_scrambled_semantic=8&num_scrambled_causal=4&num_scrambled_schematic=4&participantId=97B90CBB3F9C4BF6A1C7B98303DAFD74&assignmentId=94d48ed5-8c37-4efc-9fd3-6875cce37ab5&projectId=051c06f1-75cc-4548-856d-4923ddaba0dc","97B90CBB3F9C4BF6A1C7B98303DAFD74-2025-05-15-18-50-30","","10843","","[""<span style=\""color: red; font-size: 24px\""> NOW RECORDING</span><p>Please say out loud all the images you saw, as many as you can remember. The images can be said in any order.</p>""]","","16",""
"","","","","","instructions","23","444337","0.0-9.0","97B90CBB3F9C4BF6A1C7B98303DAFD74","97B90CBB3F9C4BF6A1C7B98303DAFD74","94d48ed5-8c37-4efc-9fd3-6875cce37ab5","051c06f1-75cc-4548-856d-4923ddaba0dc","{""num_scrambled_semantic"":""8"",""num_scrambled_causal"":""4"",""num_scrambled_schematic"":""4"",""participantId"":""97B90CBB3F9C4BF6A1C7B98303DAFD74"",""assignmentId"":""94d48ed5-8c37-4efc-9fd3-6875cce37ab5"",""projectId"":""051c06f1-75cc-4548-856d-4923ddaba0dc""}","https://test12345.live/?num_scrambled_semantic=8&num_scrambled_causal=4&num_scrambled_schematic=4&participantId=97B90CBB3F9C4BF6A1C7B98303DAFD74&assignmentId=94d48ed5-8c37-4efc-9fd3-6875cce37ab5&projectId=051c06f1-75cc-4548-856d-4923ddaba0dc","97B90CBB3F9C4BF6A1C7B98303DAFD74-2025-05-15-18-50-30","[{""page_index"":0,""viewing_time"":2508}]","2508","","","","",""
"","","","","","image-button-response","24","450347","0.0-10.0-0.0","97B90CBB3F9C4BF6A1C7B98303DAFD74","97B90CBB3F9C4BF6A1C7B98303DAFD74","94d48ed5-8c37-4efc-9fd3-6875cce37ab5","051c06f1-75cc-4548-856d-4923ddaba0dc","{""num_scrambled_semantic"":""8"",""num_scrambled_causal"":""4"",""num_scrambled_schematic"":""4"",""participantId"":""97B90CBB3F9C4BF6A1C7B98303DAFD74"",""assignmentId"":""94d48ed5-8c37-4efc-9fd3-6875cce37ab5"",""projectId"":""051c06f1-75cc-4548-856d-4923ddaba0dc""}","https://test12345.live/?num_scrambled_semantic=8&num_scrambled_causal=4&num_scrambled_schematic=4&participantId=97B90CBB3F9C4BF6A1C7B98303DAFD74&assignmentId=94d48ed5-8c37-4efc-9fd3-6875cce37ab5&projectId=051c06f1-75cc-4548-856d-4923ddaba0dc","97B90CBB3F9C4BF6A1C7B98303DAFD74-2025-05-15-18-50-30","","null","","images/schematic_sequence/restaurant_scheme/restaurant_scheme_0.png","null","",""
"","","","","","image-button-response","25","454854","0.0-10.0-1.0-0.0","97B90CBB3F9C4BF6A1C7B98303DAFD74","97B90CBB3F9C4BF6A1C7B98303DAFD74","94d48ed5-8c37-4efc-9fd3-6875cce37ab5","051c06f1-75cc-4548-856d-4923ddaba0dc","{""num_scrambled_semantic"":""8"",""num_scrambled_causal"":""4"",""num_scrambled_schematic"":""4"",""participantId"":""97B90CBB3F9C4BF6A1C7B98303DAFD74"",""assignmentId"":""94d48ed5-8c37-4efc-9fd3-6875cce37ab5"",""projectId"":""051c06f1-75cc-4548-856d-4923ddaba0dc""}","https://test12345.live/?num_scrambled_semantic=8&num_scrambled_causal=4&num_scrambled_schematic=4&participantId=97B90CBB3F9C4BF6A1C7B98303DAFD74&assignmentId=94d48ed5-8c37-4efc-9fd3-6875cce37ab5&projectId=051c06f1-75cc-4548-856d-4923ddaba0dc","97B90CBB3F9C4BF6A1C7B98303DAFD74-2025-05-15-18-50-30","","null","","images/schematic_sequence/restaurant_scheme/restaurant_scheme_5.png","null","",""
"","","","","","image-button-response","26","456569","0.0-10.0-1.0-1.0","97B90CBB3F9C4BF6A1C7B98303DAFD74","97B90CBB3F9C4BF6A1C7B98303DAFD74","94d48ed5-8c37-4efc-9fd3-6875cce37ab5","051c06f1-75cc-4548-856d-4923ddaba0dc","{""num_scrambled_semantic"":""8"",""num_scrambled_causal"":""4"",""num_scrambled_schematic"":""4"",""participantId"":""97B90CBB3F9C4BF6A1C7B98303DAFD74"",""assignmentId"":""94d48ed5-8c37-4efc-9fd3-6875cce37ab5"",""projectId"":""051c06f1-75cc-4548-856d-4923ddaba0dc""}","https://test12345.live/?num_scrambled_semantic=8&num_scrambled_causal=4&num_scrambled_schematic=4&participantId=97B90CBB3F9C4BF6A1C7B98303DAFD74&assignmentId=94d48ed5-8c37-4efc-9fd3-6875cce37ab5&projectId=051c06f1-75cc-4548-856d-4923ddaba0dc","97B90CBB3F9C4BF6A1C7B98303DAFD74-2025-05-15-18-50-30","","1714","","images/schematic_sequence/restaurant_scheme/restaurant_scheme_5.png","0","",""
"","","","","","image-button-response","27","458379","0.0-10.0-1.0-2.0","97B90CBB3F9C4BF6A1C7B98303DAFD74","97B90CBB3F9C4BF6A1C7B98303DAFD74","94d48ed5-8c37-4efc-9fd3-6875cce37ab5","051c06f1-75cc-4548-856d-4923ddaba0dc","{""num_scrambled_semantic"":""8"",""num_scrambled_causal"":""4"",""num_scrambled_schematic"":""4"",""participantId"":""97B90CBB3F9C4BF6A1C7B98303DAFD74"",""assignmentId"":""94d48ed5-8c37-4efc-9fd3-6875cce37ab5"",""projectId"":""051c06f1-75cc-4548-856d-4923ddaba0dc""}","https://test12345.live/?num_scrambled_semantic=8&num_scrambled_causal=4&num_scrambled_schematic=4&participantId=97B90CBB3F9C4BF6A1C7B98303DAFD74&assignmentId=94d48ed5-8c37-4efc-9fd3-6875cce37ab5&projectId=051c06f1-75cc-4548-856d-4923ddaba0dc","97B90CBB3F9C4BF6A1C7B98303DAFD74-2025-05-15-18-50-30","","null","","[]","null","",""
"","","","","","image-button-response","28","462895","0.0-10.0-1.0-0.1","97B90CBB3F9C4BF6A1C7B98303DAFD74","97B90CBB3F9C4BF6A1C7B98303DAFD74","94d48ed5-8c37-4efc-9fd3-6875cce37ab5","051c06f1-75cc-4548-856d-4923ddaba0dc","{""num_scrambled_semantic"":""8"",""num_scrambled_causal"":""4"",""num_scrambled_schematic"":""4"",""participantId"":""97B90CBB3F9C4BF6A1C7B98303DAFD74"",""assignmentId"":""94d48ed5-8c37-4efc-9fd3-6875cce37ab5"",""projectId"":""051c06f1-75cc-4548-856d-4923ddaba0dc""}","https://test12345.live/?num_scrambled_semantic=8&num_scrambled_causal=4&num_scrambled_schematic=4&participantId=97B90CBB3F9C4BF6A1C7B98303DAFD74&assignmentId=94d48ed5-8c37-4efc-9fd3-6875cce37ab5&projectId=051c06f1-75cc-4548-856d-4923ddaba0dc","97B90CBB3F9C4BF6A1C7B98303DAFD74-2025-05-15-18-50-30","","null","","images/schematic_sequence/restaurant_scheme/restaurant_scheme_9.png","null","",""
"","","","","","image-button-response","29","464961","0.0-10.0-1.0-1.1","97B90CBB3F9C4BF6A1C7B98303DAFD74","97B90CBB3F9C4BF6A1C7B98303DAFD74","94d48ed5-8c37-4efc-9fd3-6875cce37ab5","051c06f1-75cc-4548-856d-4923ddaba0dc","{""num_scrambled_semantic"":""8"",""num_scrambled_causal"":""4"",""num_scrambled_schematic"":""4"",""participantId"":""97B90CBB3F9C4BF6A1C7B98303DAFD74"",""assignmentId"":""94d48ed5-8c37-4efc-9fd3-6875cce37ab5"",""projectId"":""051c06f1-75cc-4548-856d-4923ddaba0dc""}","https://test12345.live/?num_scrambled_semantic=8&num_scrambled_causal=4&num_scrambled_schematic=4&participantId=97B90CBB3F9C4BF6A1C7B98303DAFD74&assignmentId=94d48ed5-8c37-4efc-9fd3-6875cce37ab5&projectId=051c06f1-75cc-4548-856d-4923ddaba0dc","97B90CBB3F9C4BF6A1C7B98303DAFD74-2025-05-15-18-50-30","","2065","","images/schematic_sequence/restaurant_scheme/restaurant_scheme_9.png","0","",""
"","","","","","image-button-response","30","466766","0.0-10.0-1.0-2.1","97B90CBB3F9C4BF6A1C7B98303DAFD74","97B90CBB3F9C4BF6A1C7B98303DAFD74","94d48ed5-8c37-4efc-9fd3-6875cce37ab5","051c06f1-75cc-4548-856d-4923ddaba0dc","{""num_scrambled_semantic"":""8"",""num_scrambled_causal"":""4"",""num_scrambled_schematic"":""4"",""participantId"":""97B90CBB3F9C4BF6A1C7B98303DAFD74"",""assignmentId"":""94d48ed5-8c37-4efc-9fd3-6875cce37ab5"",""projectId"":""051c06f1-75cc-4548-856d-4923ddaba0dc""}","https://test12345.live/?num_scrambled_semantic=8&num_scrambled_causal=4&num_scrambled_schematic=4&participantId=97B90CBB3F9C4BF6A1C7B98303DAFD74&assignmentId=94d48ed5-8c37-4efc-9fd3-6875cce37ab5&projectId=051c06f1-75cc-4548-856d-4923ddaba0dc","97B90CBB3F9C4BF6A1C7B98303DAFD74-2025-05-15-18-50-30","","null","","[]","null","",""
"","","","","","image-button-response","31","471277","0.0-10.0-1.0-0.2","97B90CBB3F9C4BF6A1C7B98303DAFD74","97B90CBB3F9C4BF6A1C7B98303DAFD74","94d48ed5-8c37-4efc-9fd3-6875cce37ab5","051c06f1-75cc-4548-856d-4923ddaba0dc","{""num_scrambled_semantic"":""8"",""num_scrambled_causal"":""4"",""num_scrambled_schematic"":""4"",""participantId"":""97B90CBB3F9C4BF6A1C7B98303DAFD74"",""assignmentId"":""94d48ed5-8c37-4efc-9fd3-6875cce37ab5"",""projectId"":""051c06f1-75cc-4548-856d-4923ddaba0dc""}","https://test12345.live/?num_scrambled_semantic=8&num_scrambled_causal=4&num_scrambled_schematic=4&participantId=97B90CBB3F9C4BF6A1C7B98303DAFD74&assignmentId=94d48ed5-8c37-4efc-9fd3-6875cce37ab5&projectId=051c06f1-75cc-4548-856d-4923ddaba0dc","97B90CBB3F9C4BF6A1C7B98303DAFD74-2025-05-15-18-50-30","","null","","images/schematic_sequence/restaurant_scheme/restaurant_scheme_4.png","null","",""
"","","","","","image-button-response","32","472297","0.0-10.0-1.0-1.2","97B90CBB3F9C4BF6A1C7B98303DAFD74","97B90CBB3F9C4BF6A1C7B98303DAFD74","94d48ed5-8c37-4efc-9fd3-6875cce37ab5","051c06f1-75cc-4548-856d-4923ddaba0dc","{""num_scrambled_semantic"":""8"",""num_scrambled_causal"":""4"",""num_scrambled_schematic"":""4"",""participantId"":""97B90CBB3F9C4BF6A1C7B98303DAFD74"",""assignmentId"":""94d48ed5-8c37-4efc-9fd3-6875cce37ab5"",""projectId"":""051c06f1-75cc-4548-856d-4923ddaba0dc""}","https://test12345.live/?num_scrambled_semantic=8&num_scrambled_causal=4&num_scrambled_schematic=4&participantId=97B90CBB3F9C4BF6A1C7B98303DAFD74&assignmentId=94d48ed5-8c37-4efc-9fd3-6875cce37ab5&projectId=051c06f1-75cc-4548-856d-4923ddaba0dc","97B90CBB3F9C4BF6A1C7B98303DAFD74-2025-05-15-18-50-30","","1019","","images/schematic_sequence/restaurant_scheme/restaurant_scheme_4.png","0","",""
"","","","","","image-button-response","33","474112","0.0-10.0-1.0-2.2","97B90CBB3F9C4BF6A1C7B98303DAFD74","97B90CBB3F9C4BF6A1C7B98303DAFD74","94d48ed5-8c37-4efc-9fd3-6875cce37ab5","051c06f1-75cc-4548-856d-4923ddaba0dc","{""num_scrambled_semantic"":""8"",""num_scrambled_causal"":""4"",""num_scrambled_schematic"":""4"",""participantId"":""97B90CBB3F9C4BF6A1C7B98303DAFD74"",""assignmentId"":""94d48ed5-8c37-4efc-9fd3-6875cce37ab5"",""projectId"":""051c06f1-75cc-4548-856d-4923ddaba0dc""}","https://test12345.live/?num_scrambled_semantic=8&num_scrambled_causal=4&num_scrambled_schematic=4&participantId=97B90CBB3F9C4BF6A1C7B98303DAFD74&assignmentId=94d48ed5-8c37-4efc-9fd3-6875cce37ab5&projectId=051c06f1-75cc-4548-856d-4923ddaba0dc","97B90CBB3F9C4BF6A1C7B98303DAFD74-2025-05-15-18-50-30","","null","","[]","null","",""
"","","","","","image-button-response","34","478614","0.0-10.0-1.0-0.3","97B90CBB3F9C4BF6A1C7B98303DAFD74","97B90CBB3F9C4BF6A1C7B98303DAFD74","94d48ed5-8c37-4efc-9fd3-6875cce37ab5","051c06f1-75cc-4548-856d-4923ddaba0dc","{""num_scrambled_semantic"":""8"",""num_scrambled_causal"":""4"",""num_scrambled_schematic"":""4"",""participantId"":""97B90CBB3F9C4BF6A1C7B98303DAFD74"",""assignmentId"":""94d48ed5-8c37-4efc-9fd3-6875cce37ab5"",""projectId"":""051c06f1-75cc-4548-856d-4923ddaba0dc""}","https://test12345.live/?num_scrambled_semantic=8&num_scrambled_causal=4&num_scrambled_schematic=4&participantId=97B90CBB3F9C4BF6A1C7B98303DAFD74&assignmentId=94d48ed5-8c37-4efc-9fd3-6875cce37ab5&projectId=051c06f1-75cc-4548-856d-4923ddaba0dc","97B90CBB3F9C4BF6A1C7B98303DAFD74-2025-05-15-18-50-30","","null","","images/schematic_sequence/restaurant_scheme/restaurant_scheme_1.png","null","",""
"","","","","","image-button-response","35","479801","0.0-10.0-1.0-1.3","97B90CBB3F9C4BF6A1C7B98303DAFD74","97B90CBB3F9C4BF6A1C7B98303DAFD74","94d48ed5-8c37-4efc-9fd3-6875cce37ab5","051c06f1-75cc-4548-856d-4923ddaba0dc","{""num_scrambled_semantic"":""8"",""num_scrambled_causal"":""4"",""num_scrambled_schematic"":""4"",""participantId"":""97B90CBB3F9C4BF6A1C7B98303DAFD74"",""assignmentId"":""94d48ed5-8c37-4efc-9fd3-6875cce37ab5"",""projectId"":""051c06f1-75cc-4548-856d-4923ddaba0dc""}","https://test12345.live/?num_scrambled_semantic=8&num_scrambled_causal=4&num_scrambled_schematic=4&participantId=97B90CBB3F9C4BF6A1C7B98303DAFD74&assignmentId=94d48ed5-8c37-4efc-9fd3-6875cce37ab5&projectId=051c06f1-75cc-4548-856d-4923ddaba0dc","97B90CBB3F9C4BF6A1C7B98303DAFD74-2025-05-15-18-50-30","","1186","","images/schematic_sequence/restaurant_scheme/restaurant_scheme_1.png","0","",""
"","","","","","image-button-response","36","481614","0.0-10.0-1.0-2.3","97B90CBB3F9C4BF6A1C7B98303DAFD74","97B90CBB3F9C4BF6A1C7B98303DAFD74","94d48ed5-8c37-4efc-9fd3-6875cce37ab5","051c06f1-75cc-4548-856d-4923ddaba0dc","{""num_scrambled_semantic"":""8"",""num_scrambled_causal"":""4"",""num_scrambled_schematic"":""4"",""participantId"":""97B90CBB3F9C4BF6A1C7B98303DAFD74"",""assignmentId"":""94d48ed5-8c37-4efc-9fd3-6875cce37ab5"",""projectId"":""051c06f1-75cc-4548-856d-4923ddaba0dc""}","https://test12345.live/?num_scrambled_semantic=8&num_scrambled_causal=4&num_scrambled_schematic=4&participantId=97B90CBB3F9C4BF6A1C7B98303DAFD74&assignmentId=94d48ed5-8c37-4efc-9fd3-6875cce37ab5&projectId=051c06f1-75cc-4548-856d-4923ddaba0dc","97B90CBB3F9C4BF6A1C7B98303DAFD74-2025-05-15-18-50-30","","null","","[]","null","",""
"","","","","","image-button-response","37","486118","0.0-10.0-1.0-0.4","97B90CBB3F9C4BF6A1C7B98303DAFD74","97B90CBB3F9C4BF6A1C7B98303DAFD74","94d48ed5-8c37-4efc-9fd3-6875cce37ab5","051c06f1-75cc-4548-856d-4923ddaba0dc","{""num_scrambled_semantic"":""8"",""num_scrambled_causal"":""4"",""num_scrambled_schematic"":""4"",""participantId"":""97B90CBB3F9C4BF6A1C7B98303DAFD74"",""assignmentId"":""94d48ed5-8c37-4efc-9fd3-6875cce37ab5"",""projectId"":""051c06f1-75cc-4548-856d-4923ddaba0dc""}","https://test12345.live/?num_scrambled_semantic=8&num_scrambled_causal=4&num_scrambled_schematic=4&participantId=97B90CBB3F9C4BF6A1C7B98303DAFD74&assignmentId=94d48ed5-8c37-4efc-9fd3-6875cce37ab5&projectId=051c06f1-75cc-4548-856d-4923ddaba0dc","97B90CBB3F9C4BF6A1C7B98303DAFD74-2025-05-15-18-50-30","","null","","images/schematic_sequence/restaurant_scheme/restaurant_scheme_7.png","null","",""
"","","","","","image-button-response","38","486873","0.0-10.0-1.0-1.4","97B90CBB3F9C4BF6A1C7B98303DAFD74","97B90CBB3F9C4BF6A1C7B98303DAFD74","94d48ed5-8c37-4efc-9fd3-6875cce37ab5","051c06f1-75cc-4548-856d-4923ddaba0dc","{""num_scrambled_semantic"":""8"",""num_scrambled_causal"":""4"",""num_scrambled_schematic"":""4"",""participantId"":""97B90CBB3F9C4BF6A1C7B98303DAFD74"",""assignmentId"":""94d48ed5-8c37-4efc-9fd3-6875cce37ab5"",""projectId"":""051c06f1-75cc-4548-856d-4923ddaba0dc""}","https://test12345.live/?num_scrambled_semantic=8&num_scrambled_causal=4&num_scrambled_schematic=4&participantId=97B90CBB3F9C4BF6A1C7B98303DAFD74&assignmentId=94d48ed5-8c37-4efc-9fd3-6875cce37ab5&projectId=051c06f1-75cc-4548-856d-4923ddaba0dc","97B90CBB3F9C4BF6A1C7B98303DAFD74-2025-05-15-18-50-30","","754","","images/schematic_sequence/restaurant_scheme/restaurant_scheme_7.png","0","",""
"","","","","","image-button-response","39","488675","0.0-10.0-1.0-2.4","97B90CBB3F9C4BF6A1C7B98303DAFD74","97B90CBB3F9C4BF6A1C7B98303DAFD74","94d48ed5-8c37-4efc-9fd3-6875cce37ab5","051c06f1-75cc-4548-856d-4923ddaba0dc","{""num_scrambled_semantic"":""8"",""num_scrambled_causal"":""4"",""num_scrambled_schematic"":""4"",""participantId"":""97B90CBB3F9C4BF6A1C7B98303DAFD74"",""assignmentId"":""94d48ed5-8c37-4efc-9fd3-6875cce37ab5"",""projectId"":""051c06f1-75cc-4548-856d-4923ddaba0dc""}","https://test12345.live/?num_scrambled_semantic=8&num_scrambled_causal=4&num_scrambled_schematic=4&participantId=97B90CBB3F9C4BF6A1C7B98303DAFD74&assignmentId=94d48ed5-8c37-4efc-9fd3-6875cce37ab5&projectId=051c06f1-75cc-4548-856d-4923ddaba0dc","97B90CBB3F9C4BF6A1C7B98303DAFD74-2025-05-15-18-50-30","","null","","[]","null","",""
"","","","","","image-button-response","40","493182","0.0-10.0-1.0-0.5","97B90CBB3F9C4BF6A1C7B98303DAFD74","97B90CBB3F9C4BF6A1C7B98303DAFD74","94d48ed5-8c37-4efc-9fd3-6875cce37ab5","051c06f1-75cc-4548-856d-4923ddaba0dc","{""num_scrambled_semantic"":""8"",""num_scrambled_causal"":""4"",""num_scrambled_schematic"":""4"",""participantId"":""97B90CBB3F9C4BF6A1C7B98303DAFD74"",""assignmentId"":""94d48ed5-8c37-4efc-9fd3-6875cce37ab5"",""projectId"":""051c06f1-75cc-4548-856d-4923ddaba0dc""}","https://test12345.live/?num_scrambled_semantic=8&num_scrambled_causal=4&num_scrambled_schematic=4&participantId=97B90CBB3F9C4BF6A1C7B98303DAFD74&assignmentId=94d48ed5-8c37-4efc-9fd3-6875cce37ab5&projectId=051c06f1-75cc-4548-856d-4923ddaba0dc","97B90CBB3F9C4BF6A1C7B98303DAFD74-2025-05-15-18-50-30","","null","","images/schematic_sequence/restaurant_scheme/restaurant_scheme_2.png","null","",""
"","","","","","image-button-response","41","494121","0.0-10.0-1.0-1.5","97B90CBB3F9C4BF6A1C7B98303DAFD74","97B90CBB3F9C4BF6A1C7B98303DAFD74","94d48ed5-8c37-4efc-9fd3-6875cce37ab5","051c06f1-75cc-4548-856d-4923ddaba0dc","{""num_scrambled_semantic"":""8"",""num_scrambled_causal"":""4"",""num_scrambled_schematic"":""4"",""participantId"":""97B90CBB3F9C4BF6A1C7B98303DAFD74"",""assignmentId"":""94d48ed5-8c37-4efc-9fd3-6875cce37ab5"",""projectId"":""051c06f1-75cc-4548-856d-4923ddaba0dc""}","https://test12345.live/?num_scrambled_semantic=8&num_scrambled_causal=4&num_scrambled_schematic=4&participantId=97B90CBB3F9C4BF6A1C7B98303DAFD74&assignmentId=94d48ed5-8c37-4efc-9fd3-6875cce37ab5&projectId=051c06f1-75cc-4548-856d-4923ddaba0dc","97B90CBB3F9C4BF6A1C7B98303DAFD74-2025-05-15-18-50-30","","938","","images/schematic_sequence/restaurant_scheme/restaurant_scheme_2.png","0","",""
"","","","","","image-button-response","42","495933","0.0-10.0-1.0-2.5","97B90CBB3F9C4BF6A1C7B98303DAFD74","97B90CBB3F9C4BF6A1C7B98303DAFD74","94d48ed5-8c37-4efc-9fd3-6875cce37ab5","051c06f1-75cc-4548-856d-4923ddaba0dc","{""num_scrambled_semantic"":""8"",""num_scrambled_causal"":""4"",""num_scrambled_schematic"":""4"",""participantId"":""97B90CBB3F9C4BF6A1C7B98303DAFD74"",""assignmentId"":""94d48ed5-8c37-4efc-9fd3-6875cce37ab5"",""projectId"":""051c06f1-75cc-4548-856d-4923ddaba0dc""}","https://test12345.live/?num_scrambled_semantic=8&num_scrambled_causal=4&num_scrambled_schematic=4&participantId=97B90CBB3F9C4BF6A1C7B98303DAFD74&assignmentId=94d48ed5-8c37-4efc-9fd3-6875cce37ab5&projectId=051c06f1-75cc-4548-856d-4923ddaba0dc","97B90CBB3F9C4BF6A1C7B98303DAFD74-2025-05-15-18-50-30","","null","","[]","null","",""
"","","","","","image-button-response","43","500439","0.0-10.0-1.0-0.6","97B90CBB3F9C4BF6A1C7B98303DAFD74","97B90CBB3F9C4BF6A1C7B98303DAFD74","94d48ed5-8c37-4efc-9fd3-6875cce37ab5","051c06f1-75cc-4548-856d-4923ddaba0dc","{""num_scrambled_semantic"":""8"",""num_scrambled_causal"":""4"",""num_scrambled_schematic"":""4"",""participantId"":""97B90CBB3F9C4BF6A1C7B98303DAFD74"",""assignmentId"":""94d48ed5-8c37-4efc-9fd3-6875cce37ab5"",""projectId"":""051c06f1-75cc-4548-856d-4923ddaba0dc""}","https://test12345.live/?num_scrambled_semantic=8&num_scrambled_causal=4&num_scrambled_schematic=4&participantId=97B90CBB3F9C4BF6A1C7B98303DAFD74&assignmentId=94d48ed5-8c37-4efc-9fd3-6875cce37ab5&projectId=051c06f1-75cc-4548-856d-4923ddaba0dc","97B90CBB3F9C4BF6A1C7B98303DAFD74-2025-05-15-18-50-30","","null","","images/schematic_sequence/restaurant_scheme/restaurant_scheme_6.png","null","",""
"","","","","","image-button-response","44","501465","0.0-10.0-1.0-1.6","97B90CBB3F9C4BF6A1C7B98303DAFD74","97B90CBB3F9C4BF6A1C7B98303DAFD74","94d48ed5-8c37-4efc-9fd3-6875cce37ab5","051c06f1-75cc-4548-856d-4923ddaba0dc","{""num_scrambled_semantic"":""8"",""num_scrambled_causal"":""4"",""num_scrambled_schematic"":""4"",""participantId"":""97B90CBB3F9C4BF6A1C7B98303DAFD74"",""assignmentId"":""94d48ed5-8c37-4efc-9fd3-6875cce37ab5"",""projectId"":""051c06f1-75cc-4548-856d-4923ddaba0dc""}","https://test12345.live/?num_scrambled_semantic=8&num_scrambled_causal=4&num_scrambled_schematic=4&participantId=97B90CBB3F9C4BF6A1C7B98303DAFD74&assignmentId=94d48ed5-8c37-4efc-9fd3-6875cce37ab5&projectId=051c06f1-75cc-4548-856d-4923ddaba0dc","97B90CBB3F9C4BF6A1C7B98303DAFD74-2025-05-15-18-50-30","","1025","","images/schematic_sequence/restaurant_scheme/restaurant_scheme_6.png","0","",""
"","","","","","image-button-response","45","503267","0.0-10.0-1.0-2.6","97B90CBB3F9C4BF6A1C7B98303DAFD74","97B90CBB3F9C4BF6A1C7B98303DAFD74","94d48ed5-8c37-4efc-9fd3-6875cce37ab5","051c06f1-75cc-4548-856d-4923ddaba0dc","{""num_scrambled_semantic"":""8"",""num_scrambled_causal"":""4"",""num_scrambled_schematic"":""4"",""participantId"":""97B90CBB3F9C4BF6A1C7B98303DAFD74"",""assignmentId"":""94d48ed5-8c37-4efc-9fd3-6875cce37ab5"",""projectId"":""051c06f1-75cc-4548-856d-4923ddaba0dc""}","https://test12345.live/?num_scrambled_semantic=8&num_scrambled_causal=4&num_scrambled_schematic=4&participantId=97B90CBB3F9C4BF6A1C7B98303DAFD74&assignmentId=94d48ed5-8c37-4efc-9fd3-6875cce37ab5&projectId=051c06f1-75cc-4548-856d-4923ddaba0dc","97B90CBB3F9C4BF6A1C7B98303DAFD74-2025-05-15-18-50-30","","null","","[]","null","",""
"","","","","","image-button-response","46","507778","0.0-10.0-1.0-0.7","97B90CBB3F9C4BF6A1C7B98303DAFD74","97B90CBB3F9C4BF6A1C7B98303DAFD74","94d48ed5-8c37-4efc-9fd3-6875cce37ab5","051c06f1-75cc-4548-856d-4923ddaba0dc","{""num_scrambled_semantic"":""8"",""num_scrambled_causal"":""4"",""num_scrambled_schematic"":""4"",""participantId"":""97B90CBB3F9C4BF6A1C7B98303DAFD74"",""assignmentId"":""94d48ed5-8c37-4efc-9fd3-6875cce37ab5"",""projectId"":""051c06f1-75cc-4548-856d-4923ddaba0dc""}","https://test12345.live/?num_scrambled_semantic=8&num_scrambled_causal=4&num_scrambled_schematic=4&participantId=97B90CBB3F9C4BF6A1C7B98303DAFD74&assignmentId=94d48ed5-8c37-4efc-9fd3-6875cce37ab5&projectId=051c06f1-75cc-4548-856d-4923ddaba0dc","97B90CBB3F9C4BF6A1C7B98303DAFD74-2025-05-15-18-50-30","","null","","images/schematic_sequence/restaurant_scheme/restaurant_scheme_8.png","null","",""
"","","","","","image-button-response","47","509153","0.0-10.0-1.0-1.7","97B90CBB3F9C4BF6A1C7B98303DAFD74","97B90CBB3F9C4BF6A1C7B98303DAFD74","94d48ed5-8c37-4efc-9fd3-6875cce37ab5","051c06f1-75cc-4548-856d-4923ddaba0dc","{""num_scrambled_semantic"":""8"",""num_scrambled_causal"":""4"",""num_scrambled_schematic"":""4"",""participantId"":""97B90CBB3F9C4BF6A1C7B98303DAFD74"",""assignmentId"":""94d48ed5-8c37-4efc-9fd3-6875cce37ab5"",""projectId"":""051c06f1-75cc-4548-856d-4923ddaba0dc""}","https://test12345.live/?num_scrambled_semantic=8&num_scrambled_causal=4&num_scrambled_schematic=4&participantId=97B90CBB3F9C4BF6A1C7B98303DAFD74&assignmentId=94d48ed5-8c37-4efc-9fd3-6875cce37ab5&projectId=051c06f1-75cc-4548-856d-4923ddaba0dc","97B90CBB3F9C4BF6A1C7B98303DAFD74-2025-05-15-18-50-30","","1374","","images/schematic_sequence/restaurant_scheme/restaurant_scheme_8.png","1","",""
"","","","","","image-button-response","48","510965","0.0-10.0-1.0-2.7","97B90CBB3F9C4BF6A1C7B98303DAFD74","97B90CBB3F9C4BF6A1C7B98303DAFD74","94d48ed5-8c37-4efc-9fd3-6875cce37ab5","051c06f1-75cc-4548-856d-4923ddaba0dc","{""num_scrambled_semantic"":""8"",""num_scrambled_causal"":""4"",""num_scrambled_schematic"":""4"",""participantId"":""97B90CBB3F9C4BF6A1C7B98303DAFD74"",""assignmentId"":""94d48ed5-8c37-4efc-9fd3-6875cce37ab5"",""projectId"":""051c06f1-75cc-4548-856d-4923ddaba0dc""}","https://test12345.live/?num_scrambled_semantic=8&num_scrambled_causal=4&num_scrambled_schematic=4&participantId=97B90CBB3F9C4BF6A1C7B98303DAFD74&assignmentId=94d48ed5-8c37-4efc-9fd3-6875cce37ab5&projectId=051c06f1-75cc-4548-856d-4923ddaba0dc","97B90CBB3F9C4BF6A1C7B98303DAFD74-2025-05-15-18-50-30","","null","","[]","null","",""
"","","","","","image-button-response","49","515468","0.0-10.0-1.0-0.8","97B90CBB3F9C4BF6A1C7B98303DAFD74","97B90CBB3F9C4BF6A1C7B98303DAFD74","94d48ed5-8c37-4efc-9fd3-6875cce37ab5","051c06f1-75cc-4548-856d-4923ddaba0dc","{""num_scrambled_semantic"":""8"",""num_scrambled_causal"":""4"",""num_scrambled_schematic"":""4"",""participantId"":""97B90CBB3F9C4BF6A1C7B98303DAFD74"",""assignmentId"":""94d48ed5-8c37-4efc-9fd3-6875cce37ab5"",""projectId"":""051c06f1-75cc-4548-856d-4923ddaba0dc""}","https://test12345.live/?num_scrambled_semantic=8&num_scrambled_causal=4&num_scrambled_schematic=4&participantId=97B90CBB3F9C4BF6A1C7B98303DAFD74&assignmentId=94d48ed5-8c37-4efc-9fd3-6875cce37ab5&projectId=051c06f1-75cc-4548-856d-4923ddaba0dc","97B90CBB3F9C4BF6A1C7B98303DAFD74-2025-05-15-18-50-30","","null","","images/schematic_sequence/restaurant_scheme/restaurant_scheme_ten.png","null","",""
"","","","","","image-button-response","50","516889","0.0-10.0-1.0-1.8","97B90CBB3F9C4BF6A1C7B98303DAFD74","97B90CBB3F9C4BF6A1C7B98303DAFD74","94d48ed5-8c37-4efc-9fd3-6875cce37ab5","051c06f1-75cc-4548-856d-4923ddaba0dc","{""num_scrambled_semantic"":""8"",""num_scrambled_causal"":""4"",""num_scrambled_schematic"":""4"",""participantId"":""97B90CBB3F9C4BF6A1C7B98303DAFD74"",""assignmentId"":""94d48ed5-8c37-4efc-9fd3-6875cce37ab5"",""projectId"":""051c06f1-75cc-4548-856d-4923ddaba0dc""}","https://test12345.live/?num_scrambled_semantic=8&num_scrambled_causal=4&num_scrambled_schematic=4&participantId=97B90CBB3F9C4BF6A1C7B98303DAFD74&assignmentId=94d48ed5-8c37-4efc-9fd3-6875cce37ab5&projectId=051c06f1-75cc-4548-856d-4923ddaba0dc","97B90CBB3F9C4BF6A1C7B98303DAFD74-2025-05-15-18-50-30","","1420","","images/schematic_sequence/restaurant_scheme/restaurant_scheme_ten.png","0","",""
"","","","","","image-button-response","51","518692","0.0-10.0-1.0-2.8","97B90CBB3F9C4BF6A1C7B98303DAFD74","97B90CBB3F9C4BF6A1C7B98303DAFD74","94d48ed5-8c37-4efc-9fd3-6875cce37ab5","051c06f1-75cc-4548-856d-4923ddaba0dc","{""num_scrambled_semantic"":""8"",""num_scrambled_causal"":""4"",""num_scrambled_schematic"":""4"",""participantId"":""97B90CBB3F9C4BF6A1C7B98303DAFD74"",""assignmentId"":""94d48ed5-8c37-4efc-9fd3-6875cce37ab5"",""projectId"":""051c06f1-75cc-4548-856d-4923ddaba0dc""}","https://test12345.live/?num_scrambled_semantic=8&num_scrambled_causal=4&num_scrambled_schematic=4&participantId=97B90CBB3F9C4BF6A1C7B98303DAFD74&assignmentId=94d48ed5-8c37-4efc-9fd3-6875cce37ab5&projectId=051c06f1-75cc-4548-856d-4923ddaba0dc","97B90CBB3F9C4BF6A1C7B98303DAFD74-2025-05-15-18-50-30","","null","","[]","null","",""
"","","","","","image-button-response","52","523199","0.0-10.0-1.0-0.9","97B90CBB3F9C4BF6A1C7B98303DAFD74","97B90CBB3F9C4BF6A1C7B98303DAFD74","94d48ed5-8c37-4efc-9fd3-6875cce37ab5","051c06f1-75cc-4548-856d-4923ddaba0dc","{""num_scrambled_semantic"":""8"",""num_scrambled_causal"":""4"",""num_scrambled_schematic"":""4"",""participantId"":""97B90CBB3F9C4BF6A1C7B98303DAFD74"",""assignmentId"":""94d48ed5-8c37-4efc-9fd3-6875cce37ab5"",""projectId"":""051c06f1-75cc-4548-856d-4923ddaba0dc""}","https://test12345.live/?num_scrambled_semantic=8&num_scrambled_causal=4&num_scrambled_schematic=4&participantId=97B90CBB3F9C4BF6A1C7B98303DAFD74&assignmentId=94d48ed5-8c37-4efc-9fd3-6875cce37ab5&projectId=051c06f1-75cc-4548-856d-4923ddaba0dc","97B90CBB3F9C4BF6A1C7B98303DAFD74-2025-05-15-18-50-30","","null","","images/schematic_sequence/restaurant_scheme/restaurant_scheme_3.png","null","",""
"","","","","","image-button-response","53","524217","0.0-10.0-1.0-1.9","97B90CBB3F9C4BF6A1C7B98303DAFD74","97B90CBB3F9C4BF6A1C7B98303DAFD74","94d48ed5-8c37-4efc-9fd3-6875cce37ab5","051c06f1-75cc-4548-856d-4923ddaba0dc","{""num_scrambled_semantic"":""8"",""num_scrambled_causal"":""4"",""num_scrambled_schematic"":""4"",""participantId"":""97B90CBB3F9C4BF6A1C7B98303DAFD74"",""assignmentId"":""94d48ed5-8c37-4efc-9fd3-6875cce37ab5"",""projectId"":""051c06f1-75cc-4548-856d-4923ddaba0dc""}","https://test12345.live/?num_scrambled_semantic=8&num_scrambled_causal=4&num_scrambled_schematic=4&participantId=97B90CBB3F9C4BF6A1C7B98303DAFD74&assignmentId=94d48ed5-8c37-4efc-9fd3-6875cce37ab5&projectId=051c06f1-75cc-4548-856d-4923ddaba0dc","97B90CBB3F9C4BF6A1C7B98303DAFD74-2025-05-15-18-50-30","","1017","","images/schematic_sequence/restaurant_scheme/restaurant_scheme_3.png","0","",""
"","","","","","image-button-response","54","526021","0.0-10.0-1.0-2.9","97B90CBB3F9C4BF6A1C7B98303DAFD74","97B90CBB3F9C4BF6A1C7B98303DAFD74","94d48ed5-8c37-4efc-9fd3-6875cce37ab5","051c06f1-75cc-4548-856d-4923ddaba0dc","{""num_scrambled_semantic"":""8"",""num_scrambled_causal"":""4"",""num_scrambled_schematic"":""4"",""participantId"":""97B90CBB3F9C4BF6A1C7B98303DAFD74"",""assignmentId"":""94d48ed5-8c37-4efc-9fd3-6875cce37ab5"",""projectId"":""051c06f1-75cc-4548-856d-4923ddaba0dc""}","https://test12345.live/?num_scrambled_semantic=8&num_scrambled_causal=4&num_scrambled_schematic=4&participantId=97B90CBB3F9C4BF6A1C7B98303DAFD74&assignmentId=94d48ed5-8c37-4efc-9fd3-6875cce37ab5&projectId=051c06f1-75cc-4548-856d-4923ddaba0dc","97B90CBB3F9C4BF6A1C7B98303DAFD74-2025-05-15-18-50-30","","null","","[]","null","",""
"","","","","","html-audio-response","55","542681","0.0-11.0","97B90CBB3F9C4BF6A1C7B98303DAFD74","97B90CBB3F9C4BF6A1C7B98303DAFD74","94d48ed5-8c37-4efc-9fd3-6875cce37ab5","051c06f1-75cc-4548-856d-4923ddaba0dc","{""num_scrambled_semantic"":""8"",""num_scrambled_causal"":""4"",""num_scrambled_schematic"":""4"",""participantId"":""97B90CBB3F9C4BF6A1C7B98303DAFD74"",""assignmentId"":""94d48ed5-8c37-4efc-9fd3-6875cce37ab5"",""projectId"":""051c06f1-75cc-4548-856d-4923ddaba0dc""}","https://test12345.live/?num_scrambled_semantic=8&num_scrambled_causal=4&num_scrambled_schematic=4&participantId=97B90CBB3F9C4BF6A1C7B98303DAFD74&assignmentId=94d48ed5-8c37-4efc-9fd3-6875cce37ab5&projectId=051c06f1-75cc-4548-856d-4923ddaba0dc","97B90CBB3F9C4BF6A1C7B98303DAFD74-2025-05-15-18-50-30","","7265","","[""<span style=\""color: red; font-size: 24px\""> NOW RECORDING</span><p>Please say out loud all the images you saw, as many as you can remember. The images can be said in any order.</p>""]","","1","restaurant_scheme"
"","","","","","image-button-response","56","548683","0.0-12.0-0.0","97B90CBB3F9C4BF6A1C7B98303DAFD74","97B90CBB3F9C4BF6A1C7B98303DAFD74","94d48ed5-8c37-4efc-9fd3-6875cce37ab5","051c06f1-75cc-4548-856d-4923ddaba0dc","{""num_scrambled_semantic"":""8"",""num_scrambled_causal"":""4"",""num_scrambled_schematic"":""4"",""participantId"":""97B90CBB3F9C4BF6A1C7B98303DAFD74"",""assignmentId"":""94d48ed5-8c37-4efc-9fd3-6875cce37ab5"",""projectId"":""051c06f1-75cc-4548-856d-4923ddaba0dc""}","https://test12345.live/?num_scrambled_semantic=8&num_scrambled_causal=4&num_scrambled_schematic=4&participantId=97B90CBB3F9C4BF6A1C7B98303DAFD74&assignmentId=94d48ed5-8c37-4efc-9fd3-6875cce37ab5&projectId=051c06f1-75cc-4548-856d-4923ddaba0dc","97B90CBB3F9C4BF6A1C7B98303DAFD74-2025-05-15-18-50-30","","null","","images/causal_sequence/saving_a_cat_causal/saving_a_cat_causal_0.png","null","",""
"","","","","","image-button-response","57","553185","0.0-12.0-1.0-0.0","97B90CBB3F9C4BF6A1C7B98303DAFD74","97B90CBB3F9C4BF6A1C7B98303DAFD74","94d48ed5-8c37-4efc-9fd3-6875cce37ab5","051c06f1-75cc-4548-856d-4923ddaba0dc","{""num_scrambled_semantic"":""8"",""num_scrambled_causal"":""4"",""num_scrambled_schematic"":""4"",""participantId"":""97B90CBB3F9C4BF6A1C7B98303DAFD74"",""assignmentId"":""94d48ed5-8c37-4efc-9fd3-6875cce37ab5"",""projectId"":""051c06f1-75cc-4548-856d-4923ddaba0dc""}","https://test12345.live/?num_scrambled_semantic=8&num_scrambled_causal=4&num_scrambled_schematic=4&participantId=97B90CBB3F9C4BF6A1C7B98303DAFD74&assignmentId=94d48ed5-8c37-4efc-9fd3-6875cce37ab5&projectId=051c06f1-75cc-4548-856d-4923ddaba0dc","97B90CBB3F9C4BF6A1C7B98303DAFD74-2025-05-15-18-50-30","","null","","images/causal_sequence/saving_a_cat_causal/saving_a_cat_causal_8.png","null","",""
"","","","","","image-button-response","58","555481","0.0-12.0-1.0-1.0","97B90CBB3F9C4BF6A1C7B98303DAFD74","97B90CBB3F9C4BF6A1C7B98303DAFD74","94d48ed5-8c37-4efc-9fd3-6875cce37ab5","051c06f1-75cc-4548-856d-4923ddaba0dc","{""num_scrambled_semantic"":""8"",""num_scrambled_causal"":""4"",""num_scrambled_schematic"":""4"",""participantId"":""97B90CBB3F9C4BF6A1C7B98303DAFD74"",""assignmentId"":""94d48ed5-8c37-4efc-9fd3-6875cce37ab5"",""projectId"":""051c06f1-75cc-4548-856d-4923ddaba0dc""}","https://test12345.live/?num_scrambled_semantic=8&num_scrambled_causal=4&num_scrambled_schematic=4&participantId=97B90CBB3F9C4BF6A1C7B98303DAFD74&assignmentId=94d48ed5-8c37-4efc-9fd3-6875cce37ab5&projectId=051c06f1-75cc-4548-856d-4923ddaba0dc","97B90CBB3F9C4BF6A1C7B98303DAFD74-2025-05-15-18-50-30","","2295","","images/causal_sequence/saving_a_cat_causal/saving_a_cat_causal_8.png","0","",""
"","","","","","image-button-response","59","557293","0.0-12.0-1.0-2.0","97B90CBB3F9C4BF6A1C7B98303DAFD74","97B90CBB3F9C4BF6A1C7B98303DAFD74","94d48ed5-8c37-4efc-9fd3-6875cce37ab5","051c06f1-75cc-4548-856d-4923ddaba0dc","{""num_scrambled_semantic"":""8"",""num_scrambled_causal"":""4"",""num_scrambled_schematic"":""4"",""participantId"":""97B90CBB3F9C4BF6A1C7B98303DAFD74"",""assignmentId"":""94d48ed5-8c37-4efc-9fd3-6875cce37ab5"",""projectId"":""051c06f1-75cc-4548-856d-4923ddaba0dc""}","https://test12345.live/?num_scrambled_semantic=8&num_scrambled_causal=4&num_scrambled_schematic=4&participantId=97B90CBB3F9C4BF6A1C7B98303DAFD74&assignmentId=94d48ed5-8c37-4efc-9fd3-6875cce37ab5&projectId=051c06f1-75cc-4548-856d-4923ddaba0dc","97B90CBB3F9C4BF6A1C7B98303DAFD74-2025-05-15-18-50-30","","null","","[]","null","",""
"","","","","","image-button-response","60","561798","0.0-12.0-1.0-0.1","97B90CBB3F9C4BF6A1C7B98303DAFD74","97B90CBB3F9C4BF6A1C7B98303DAFD74","94d48ed5-8c37-4efc-9fd3-6875cce37ab5","051c06f1-75cc-4548-856d-4923ddaba0dc","{""num_scrambled_semantic"":""8"",""num_scrambled_causal"":""4"",""num_scrambled_schematic"":""4"",""participantId"":""97B90CBB3F9C4BF6A1C7B98303DAFD74"",""assignmentId"":""94d48ed5-8c37-4efc-9fd3-6875cce37ab5"",""projectId"":""051c06f1-75cc-4548-856d-4923ddaba0dc""}","https://test12345.live/?num_scrambled_semantic=8&num_scrambled_causal=4&num_scrambled_schematic=4&participantId=97B90CBB3F9C4BF6A1C7B98303DAFD74&assignmentId=94d48ed5-8c37-4efc-9fd3-6875cce37ab5&projectId=051c06f1-75cc-4548-856d-4923ddaba0dc","97B90CBB3F9C4BF6A1C7B98303DAFD74-2025-05-15-18-50-30","","null","","images/causal_sequence/saving_a_cat_causal/saving_a_cat_causal_2.png","null","",""
"","","","","","image-button-response","61","562833","0.0-12.0-1.0-1.1","97B90CBB3F9C4BF6A1C7B98303DAFD74","97B90CBB3F9C4BF6A1C7B98303DAFD74","94d48ed5-8c37-4efc-9fd3-6875cce37ab5","051c06f1-75cc-4548-856d-4923ddaba0dc","{""num_scrambled_semantic"":""8"",""num_scrambled_causal"":""4"",""num_scrambled_schematic"":""4"",""participantId"":""97B90CBB3F9C4BF6A1C7B98303DAFD74"",""assignmentId"":""94d48ed5-8c37-4efc-9fd3-6875cce37ab5"",""projectId"":""051c06f1-75cc-4548-856d-4923ddaba0dc""}","https://test12345.live/?num_scrambled_semantic=8&num_scrambled_causal=4&num_scrambled_schematic=4&participantId=97B90CBB3F9C4BF6A1C7B98303DAFD74&assignmentId=94d48ed5-8c37-4efc-9fd3-6875cce37ab5&projectId=051c06f1-75cc-4548-856d-4923ddaba0dc","97B90CBB3F9C4BF6A1C7B98303DAFD74-2025-05-15-18-50-30","","1034","","images/causal_sequence/saving_a_cat_causal/saving_a_cat_causal_2.png","1","",""
"","","","","","image-button-response","62","564640","0.0-12.0-1.0-2.1","97B90CBB3F9C4BF6A1C7B98303DAFD74","97B90CBB3F9C4BF6A1C7B98303DAFD74","94d48ed5-8c37-4efc-9fd3-6875cce37ab5","051c06f1-75cc-4548-856d-4923ddaba0dc","{""num_scrambled_semantic"":""8"",""num_scrambled_causal"":""4"",""num_scrambled_schematic"":""4"",""participantId"":""97B90CBB3F9C4BF6A1C7B98303DAFD74"",""assignmentId"":""94d48ed5-8c37-4efc-9fd3-6875cce37ab5"",""projectId"":""051c06f1-75cc-4548-856d-4923ddaba0dc""}","https://test12345.live/?num_scrambled_semantic=8&num_scrambled_causal=4&num_scrambled_schematic=4&participantId=97B90CBB3F9C4BF6A1C7B98303DAFD74&assignmentId=94d48ed5-8c37-4efc-9fd3-6875cce37ab5&projectId=051c06f1-75cc-4548-856d-4923ddaba0dc","97B90CBB3F9C4BF6A1C7B98303DAFD74-2025-05-15-18-50-30","","null","","[]","null","",""
"","","","","","image-button-response","63","569145","0.0-12.0-1.0-0.2","97B90CBB3F9C4BF6A1C7B98303DAFD74","97B90CBB3F9C4BF6A1C7B98303DAFD74","94d48ed5-8c37-4efc-9fd3-6875cce37ab5","051c06f1-75cc-4548-856d-4923ddaba0dc","{""num_scrambled_semantic"":""8"",""num_scrambled_causal"":""4"",""num_scrambled_schematic"":""4"",""participantId"":""97B90CBB3F9C4BF6A1C7B98303DAFD74"",""assignmentId"":""94d48ed5-8c37-4efc-9fd3-6875cce37ab5"",""projectId"":""051c06f1-75cc-4548-856d-4923ddaba0dc""}","https://test12345.live/?num_scrambled_semantic=8&num_scrambled_causal=4&num_scrambled_schematic=4&participantId=97B90CBB3F9C4BF6A1C7B98303DAFD74&assignmentId=94d48ed5-8c37-4efc-9fd3-6875cce37ab5&projectId=051c06f1-75cc-4548-856d-4923ddaba0dc","97B90CBB3F9C4BF6A1C7B98303DAFD74-2025-05-15-18-50-30","","null","","images/causal_sequence/saving_a_cat_causal/saving_a_cat_causal_3.png","null","",""
"","","","","","image-button-response","64","570217","0.0-12.0-1.0-1.2","97B90CBB3F9C4BF6A1C7B98303DAFD74","97B90CBB3F9C4BF6A1C7B98303DAFD74","94d48ed5-8c37-4efc-9fd3-6875cce37ab5","051c06f1-75cc-4548-856d-4923ddaba0dc","{""num_scrambled_semantic"":""8"",""num_scrambled_causal"":""4"",""num_scrambled_schematic"":""4"",""participantId"":""97B90CBB3F9C4BF6A1C7B98303DAFD74"",""assignmentId"":""94d48ed5-8c37-4efc-9fd3-6875cce37ab5"",""projectId"":""051c06f1-75cc-4548-856d-4923ddaba0dc""}","https://test12345.live/?num_scrambled_semantic=8&num_scrambled_causal=4&num_scrambled_schematic=4&participantId=97B90CBB3F9C4BF6A1C7B98303DAFD74&assignmentId=94d48ed5-8c37-4efc-9fd3-6875cce37ab5&projectId=051c06f1-75cc-4548-856d-4923ddaba0dc","97B90CBB3F9C4BF6A1C7B98303DAFD74-2025-05-15-18-50-30","","1071","","images/causal_sequence/saving_a_cat_causal/saving_a_cat_causal_3.png","1","",""
"","","","","","image-button-response","65","572023","0.0-12.0-1.0-2.2","97B90CBB3F9C4BF6A1C7B98303DAFD74","97B90CBB3F9C4BF6A1C7B98303DAFD74","94d48ed5-8c37-4efc-9fd3-6875cce37ab5","051c06f1-75cc-4548-856d-4923ddaba0dc","{""num_scrambled_semantic"":""8"",""num_scrambled_causal"":""4"",""num_scrambled_schematic"":""4"",""participantId"":""97B90CBB3F9C4BF6A1C7B98303DAFD74"",""assignmentId"":""94d48ed5-8c37-4efc-9fd3-6875cce37ab5"",""projectId"":""051c06f1-75cc-4548-856d-4923ddaba0dc""}","https://test12345.live/?num_scrambled_semantic=8&num_scrambled_causal=4&num_scrambled_schematic=4&participantId=97B90CBB3F9C4BF6A1C7B98303DAFD74&assignmentId=94d48ed5-8c37-4efc-9fd3-6875cce37ab5&projectId=051c06f1-75cc-4548-856d-4923ddaba0dc","97B90CBB3F9C4BF6A1C7B98303DAFD74-2025-05-15-18-50-30","","null","","[]","null","",""
"","","","","","image-button-response","66","576529","0.0-12.0-1.0-0.3","97B90CBB3F9C4BF6A1C7B98303DAFD74","97B90CBB3F9C4BF6A1C7B98303DAFD74","94d48ed5-8c37-4efc-9fd3-6875cce37ab5","051c06f1-75cc-4548-856d-4923ddaba0dc","{""num_scrambled_semantic"":""8"",""num_scrambled_causal"":""4"",""num_scrambled_schematic"":""4"",""participantId"":""97B90CBB3F9C4BF6A1C7B98303DAFD74"",""assignmentId"":""94d48ed5-8c37-4efc-9fd3-6875cce37ab5"",""projectId"":""051c06f1-75cc-4548-856d-4923ddaba0dc""}","https://test12345.live/?num_scrambled_semantic=8&num_scrambled_causal=4&num_scrambled_schematic=4&participantId=97B90CBB3F9C4BF6A1C7B98303DAFD74&assignmentId=94d48ed5-8c37-4efc-9fd3-6875cce37ab5&projectId=051c06f1-75cc-4548-856d-4923ddaba0dc","97B90CBB3F9C4BF6A1C7B98303DAFD74-2025-05-15-18-50-30","","null","","images/causal_sequence/saving_a_cat_causal/saving_a_cat_causal_7.png","null","",""
"","","","","","image-button-response","67","578505","0.0-12.0-1.0-1.3","97B90CBB3F9C4BF6A1C7B98303DAFD74","97B90CBB3F9C4BF6A1C7B98303DAFD74","94d48ed5-8c37-4efc-9fd3-6875cce37ab5","051c06f1-75cc-4548-856d-4923ddaba0dc","{""num_scrambled_semantic"":""8"",""num_scrambled_causal"":""4"",""num_scrambled_schematic"":""4"",""participantId"":""97B90CBB3F9C4BF6A1C7B98303DAFD74"",""assignmentId"":""94d48ed5-8c37-4efc-9fd3-6875cce37ab5"",""projectId"":""051c06f1-75cc-4548-856d-4923ddaba0dc""}","https://test12345.live/?num_scrambled_semantic=8&num_scrambled_causal=4&num_scrambled_schematic=4&participantId=97B90CBB3F9C4BF6A1C7B98303DAFD74&assignmentId=94d48ed5-8c37-4efc-9fd3-6875cce37ab5&projectId=051c06f1-75cc-4548-856d-4923ddaba0dc","97B90CBB3F9C4BF6A1C7B98303DAFD74-2025-05-15-18-50-30","","1974","","images/causal_sequence/saving_a_cat_causal/saving_a_cat_causal_7.png","0","",""
"","","","","","image-button-response","68","580308","0.0-12.0-1.0-2.3","97B90CBB3F9C4BF6A1C7B98303DAFD74","97B90CBB3F9C4BF6A1C7B98303DAFD74","94d48ed5-8c37-4efc-9fd3-6875cce37ab5","051c06f1-75cc-4548-856d-4923ddaba0dc","{""num_scrambled_semantic"":""8"",""num_scrambled_causal"":""4"",""num_scrambled_schematic"":""4"",""participantId"":""97B90CBB3F9C4BF6A1C7B98303DAFD74"",""assignmentId"":""94d48ed5-8c37-4efc-9fd3-6875cce37ab5"",""projectId"":""051c06f1-75cc-4548-856d-4923ddaba0dc""}","https://test12345.live/?num_scrambled_semantic=8&num_scrambled_causal=4&num_scrambled_schematic=4&participantId=97B90CBB3F9C4BF6A1C7B98303DAFD74&assignmentId=94d48ed5-8c37-4efc-9fd3-6875cce37ab5&projectId=051c06f1-75cc-4548-856d-4923ddaba0dc","97B90CBB3F9C4BF6A1C7B98303DAFD74-2025-05-15-18-50-30","","null","","[]","null","",""
"","","","","","image-button-response","69","584821","0.0-12.0-1.0-0.4","97B90CBB3F9C4BF6A1C7B98303DAFD74","97B90CBB3F9C4BF6A1C7B98303DAFD74","94d48ed5-8c37-4efc-9fd3-6875cce37ab5","051c06f1-75cc-4548-856d-4923ddaba0dc","{""num_scrambled_semantic"":""8"",""num_scrambled_causal"":""4"",""num_scrambled_schematic"":""4"",""participantId"":""97B90CBB3F9C4BF6A1C7B98303DAFD74"",""assignmentId"":""94d48ed5-8c37-4efc-9fd3-6875cce37ab5"",""projectId"":""051c06f1-75cc-4548-856d-4923ddaba0dc""}","https://test12345.live/?num_scrambled_semantic=8&num_scrambled_causal=4&num_scrambled_schematic=4&participantId=97B90CBB3F9C4BF6A1C7B98303DAFD74&assignmentId=94d48ed5-8c37-4efc-9fd3-6875cce37ab5&projectId=051c06f1-75cc-4548-856d-4923ddaba0dc","97B90CBB3F9C4BF6A1C7B98303DAFD74-2025-05-15-18-50-30","","null","","images/causal_sequence/saving_a_cat_causal/saving_a_cat_causal_ten.png","null","",""
"","","","","","image-button-response","70","588329","0.0-12.0-1.0-1.4","97B90CBB3F9C4BF6A1C7B98303DAFD74","97B90CBB3F9C4BF6A1C7B98303DAFD74","94d48ed5-8c37-4efc-9fd3-6875cce37ab5","051c06f1-75cc-4548-856d-4923ddaba0dc","{""num_scrambled_semantic"":""8"",""num_scrambled_causal"":""4"",""num_scrambled_schematic"":""4"",""participantId"":""97B90CBB3F9C4BF6A1C7B98303DAFD74"",""assignmentId"":""94d48ed5-8c37-4efc-9fd3-6875cce37ab5"",""projectId"":""051c06f1-75cc-4548-856d-4923ddaba0dc""}","https://test12345.live/?num_scrambled_semantic=8&num_scrambled_causal=4&num_scrambled_schematic=4&participantId=97B90CBB3F9C4BF6A1C7B98303DAFD74&assignmentId=94d48ed5-8c37-4efc-9fd3-6875cce37ab5&projectId=051c06f1-75cc-4548-856d-4923ddaba0dc","97B90CBB3F9C4BF6A1C7B98303DAFD74-2025-05-15-18-50-30","","3507","","images/causal_sequence/saving_a_cat_causal/saving_a_cat_causal_ten.png","0","",""
"","","","","","image-button-response","71","590137","0.0-12.0-1.0-2.4","97B90CBB3F9C4BF6A1C7B98303DAFD74","97B90CBB3F9C4BF6A1C7B98303DAFD74","94d48ed5-8c37-4efc-9fd3-6875cce37ab5","051c06f1-75cc-4548-856d-4923ddaba0dc","{""num_scrambled_semantic"":""8"",""num_scrambled_causal"":""4"",""num_scrambled_schematic"":""4"",""participantId"":""97B90CBB3F9C4BF6A1C7B98303DAFD74"",""assignmentId"":""94d48ed5-8c37-4efc-9fd3-6875cce37ab5"",""projectId"":""051c06f1-75cc-4548-856d-4923ddaba0dc""}","https://test12345.live/?num_scrambled_semantic=8&num_scrambled_causal=4&num_scrambled_schematic=4&participantId=97B90CBB3F9C4BF6A1C7B98303DAFD74&assignmentId=94d48ed5-8c37-4efc-9fd3-6875cce37ab5&projectId=051c06f1-75cc-4548-856d-4923ddaba0dc","97B90CBB3F9C4BF6A1C7B98303DAFD74-2025-05-15-18-50-30","","null","","[]","null","",""
"","","","","","image-button-response","72","594642","0.0-12.0-1.0-0.5","97B90CBB3F9C4BF6A1C7B98303DAFD74","97B90CBB3F9C4BF6A1C7B98303DAFD74","94d48ed5-8c37-4efc-9fd3-6875cce37ab5","051c06f1-75cc-4548-856d-4923ddaba0dc","{""num_scrambled_semantic"":""8"",""num_scrambled_causal"":""4"",""num_scrambled_schematic"":""4"",""participantId"":""97B90CBB3F9C4BF6A1C7B98303DAFD74"",""assignmentId"":""94d48ed5-8c37-4efc-9fd3-6875cce37ab5"",""projectId"":""051c06f1-75cc-4548-856d-4923ddaba0dc""}","https://test12345.live/?num_scrambled_semantic=8&num_scrambled_causal=4&num_scrambled_schematic=4&participantId=97B90CBB3F9C4BF6A1C7B98303DAFD74&assignmentId=94d48ed5-8c37-4efc-9fd3-6875cce37ab5&projectId=051c06f1-75cc-4548-856d-4923ddaba0dc","97B90CBB3F9C4BF6A1C7B98303DAFD74-2025-05-15-18-50-30","","null","","images/causal_sequence/saving_a_cat_causal/saving_a_cat_causal_5.png","null","",""
"","","","","","image-button-response","73","596105","0.0-12.0-1.0-1.5","97B90CBB3F9C4BF6A1C7B98303DAFD74","97B90CBB3F9C4BF6A1C7B98303DAFD74","94d48ed5-8c37-4efc-9fd3-6875cce37ab5","051c06f1-75cc-4548-856d-4923ddaba0dc","{""num_scrambled_semantic"":""8"",""num_scrambled_causal"":""4"",""num_scrambled_schematic"":""4"",""participantId"":""97B90CBB3F9C4BF6A1C7B98303DAFD74"",""assignmentId"":""94d48ed5-8c37-4efc-9fd3-6875cce37ab5"",""projectId"":""051c06f1-75cc-4548-856d-4923ddaba0dc""}","https://test12345.live/?num_scrambled_semantic=8&num_scrambled_causal=4&num_scrambled_schematic=4&participantId=97B90CBB3F9C4BF6A1C7B98303DAFD74&assignmentId=94d48ed5-8c37-4efc-9fd3-6875cce37ab5&projectId=051c06f1-75cc-4548-856d-4923ddaba0dc","97B90CBB3F9C4BF6A1C7B98303DAFD74-2025-05-15-18-50-30","","1461","","images/causal_sequence/saving_a_cat_causal/saving_a_cat_causal_5.png","0","",""
"","","","","","image-button-response","74","597918","0.0-12.0-1.0-2.5","97B90CBB3F9C4BF6A1C7B98303DAFD74","97B90CBB3F9C4BF6A1C7B98303DAFD74","94d48ed5-8c37-4efc-9fd3-6875cce37ab5","051c06f1-75cc-4548-856d-4923ddaba0dc","{""num_scrambled_semantic"":""8"",""num_scrambled_causal"":""4"",""num_scrambled_schematic"":""4"",""participantId"":""97B90CBB3F9C4BF6A1C7B98303DAFD74"",""assignmentId"":""94d48ed5-8c37-4efc-9fd3-6875cce37ab5"",""projectId"":""051c06f1-75cc-4548-856d-4923ddaba0dc""}","https://test12345.live/?num_scrambled_semantic=8&num_scrambled_causal=4&num_scrambled_schematic=4&participantId=97B90CBB3F9C4BF6A1C7B98303DAFD74&assignmentId=94d48ed5-8c37-4efc-9fd3-6875cce37ab5&projectId=051c06f1-75cc-4548-856d-4923ddaba0dc","97B90CBB3F9C4BF6A1C7B98303DAFD74-2025-05-15-18-50-30","","null","","[]","null","",""
"","","","","","image-button-response","75","602419","0.0-12.0-1.0-0.6","97B90CBB3F9C4BF6A1C7B98303DAFD74","97B90CBB3F9C4BF6A1C7B98303DAFD74","94d48ed5-8c37-4efc-9fd3-6875cce37ab5","051c06f1-75cc-4548-856d-4923ddaba0dc","{""num_scrambled_semantic"":""8"",""num_scrambled_causal"":""4"",""num_scrambled_schematic"":""4"",""participantId"":""97B90CBB3F9C4BF6A1C7B98303DAFD74"",""assignmentId"":""94d48ed5-8c37-4efc-9fd3-6875cce37ab5"",""projectId"":""051c06f1-75cc-4548-856d-4923ddaba0dc""}","https://test12345.live/?num_scrambled_semantic=8&num_scrambled_causal=4&num_scrambled_schematic=4&participantId=97B90CBB3F9C4BF6A1C7B98303DAFD74&assignmentId=94d48ed5-8c37-4efc-9fd3-6875cce37ab5&projectId=051c06f1-75cc-4548-856d-4923ddaba0dc","97B90CBB3F9C4BF6A1C7B98303DAFD74-2025-05-15-18-50-30","","null","","images/causal_sequence/saving_a_cat_causal/saving_a_cat_causal_1.png","null","",""
"","","","","","image-button-response","76","604033","0.0-12.0-1.0-1.6","97B90CBB3F9C4BF6A1C7B98303DAFD74","97B90CBB3F9C4BF6A1C7B98303DAFD74","94d48ed5-8c37-4efc-9fd3-6875cce37ab5","051c06f1-75cc-4548-856d-4923ddaba0dc","{""num_scrambled_semantic"":""8"",""num_scrambled_causal"":""4"",""num_scrambled_schematic"":""4"",""participantId"":""97B90CBB3F9C4BF6A1C7B98303DAFD74"",""assignmentId"":""94d48ed5-8c37-4efc-9fd3-6875cce37ab5"",""projectId"":""051c06f1-75cc-4548-856d-4923ddaba0dc""}","https://test12345.live/?num_scrambled_semantic=8&num_scrambled_causal=4&num_scrambled_schematic=4&participantId=97B90CBB3F9C4BF6A1C7B98303DAFD74&assignmentId=94d48ed5-8c37-4efc-9fd3-6875cce37ab5&projectId=051c06f1-75cc-4548-856d-4923ddaba0dc","97B90CBB3F9C4BF6A1C7B98303DAFD74-2025-05-15-18-50-30","","1612","","images/causal_sequence/saving_a_cat_causal/saving_a_cat_causal_1.png","0","",""
"","","","","","image-button-response","77","605837","0.0-12.0-1.0-2.6","97B90CBB3F9C4BF6A1C7B98303DAFD74","97B90CBB3F9C4BF6A1C7B98303DAFD74","94d48ed5-8c37-4efc-9fd3-6875cce37ab5","051c06f1-75cc-4548-856d-4923ddaba0dc","{""num_scrambled_semantic"":""8"",""num_scrambled_causal"":""4"",""num_scrambled_schematic"":""4"",""participantId"":""97B90CBB3F9C4BF6A1C7B98303DAFD74"",""assignmentId"":""94d48ed5-8c37-4efc-9fd3-6875cce37ab5"",""projectId"":""051c06f1-75cc-4548-856d-4923ddaba0dc""}","https://test12345.live/?num_scrambled_semantic=8&num_scrambled_causal=4&num_scrambled_schematic=4&participantId=97B90CBB3F9C4BF6A1C7B98303DAFD74&assignmentId=94d48ed5-8c37-4efc-9fd3-6875cce37ab5&projectId=051c06f1-75cc-4548-856d-4923ddaba0dc","97B90CBB3F9C4BF6A1C7B98303DAFD74-2025-05-15-18-50-30","","null","","[]","null","",""
"","","","","","image-button-response","78","610350","0.0-12.0-1.0-0.7","97B90CBB3F9C4BF6A1C7B98303DAFD74","97B90CBB3F9C4BF6A1C7B98303DAFD74","94d48ed5-8c37-4efc-9fd3-6875cce37ab5","051c06f1-75cc-4548-856d-4923ddaba0dc","{""num_scrambled_semantic"":""8"",""num_scrambled_causal"":""4"",""num_scrambled_schematic"":""4"",""participantId"":""97B90CBB3F9C4BF6A1C7B98303DAFD74"",""assignmentId"":""94d48ed5-8c37-4efc-9fd3-6875cce37ab5"",""projectId"":""051c06f1-75cc-4548-856d-4923ddaba0dc""}","https://test12345.live/?num_scrambled_semantic=8&num_scrambled_causal=4&num_scrambled_schematic=4&participantId=97B90CBB3F9C4BF6A1C7B98303DAFD74&assignmentId=94d48ed5-8c37-4efc-9fd3-6875cce37ab5&projectId=051c06f1-75cc-4548-856d-4923ddaba0dc","97B90CBB3F9C4BF6A1C7B98303DAFD74-2025-05-15-18-50-30","","null","","images/causal_sequence/saving_a_cat_causal/saving_a_cat_causal_9.png","null","",""
"","","","","","image-button-response","79","611129","0.0-12.0-1.0-1.7","97B90CBB3F9C4BF6A1C7B98303DAFD74","97B90CBB3F9C4BF6A1C7B98303DAFD74","94d48ed5-8c37-4efc-9fd3-6875cce37ab5","051c06f1-75cc-4548-856d-4923ddaba0dc","{""num_scrambled_semantic"":""8"",""num_scrambled_causal"":""4"",""num_scrambled_schematic"":""4"",""participantId"":""97B90CBB3F9C4BF6A1C7B98303DAFD74"",""assignmentId"":""94d48ed5-8c37-4efc-9fd3-6875cce37ab5"",""projectId"":""051c06f1-75cc-4548-856d-4923ddaba0dc""}","https://test12345.live/?num_scrambled_semantic=8&num_scrambled_causal=4&num_scrambled_schematic=4&participantId=97B90CBB3F9C4BF6A1C7B98303DAFD74&assignmentId=94d48ed5-8c37-4efc-9fd3-6875cce37ab5&projectId=051c06f1-75cc-4548-856d-4923ddaba0dc","97B90CBB3F9C4BF6A1C7B98303DAFD74-2025-05-15-18-50-30","","778","","images/causal_sequence/saving_a_cat_causal/saving_a_cat_causal_9.png","0","",""
"","","","","","image-button-response","80","612931","0.0-12.0-1.0-2.7","97B90CBB3F9C4BF6A1C7B98303DAFD74","97B90CBB3F9C4BF6A1C7B98303DAFD74","94d48ed5-8c37-4efc-9fd3-6875cce37ab5","051c06f1-75cc-4548-856d-4923ddaba0dc","{""num_scrambled_semantic"":""8"",""num_scrambled_causal"":""4"",""num_scrambled_schematic"":""4"",""participantId"":""97B90CBB3F9C4BF6A1C7B98303DAFD74"",""assignmentId"":""94d48ed5-8c37-4efc-9fd3-6875cce37ab5"",""projectId"":""051c06f1-75cc-4548-856d-4923ddaba0dc""}","https://test12345.live/?num_scrambled_semantic=8&num_scrambled_causal=4&num_scrambled_schematic=4&participantId=97B90CBB3F9C4BF6A1C7B98303DAFD74&assignmentId=94d48ed5-8c37-4efc-9fd3-6875cce37ab5&projectId=051c06f1-75cc-4548-856d-4923ddaba0dc","97B90CBB3F9C4BF6A1C7B98303DAFD74-2025-05-15-18-50-30","","null","","[]","null","",""
"","","","","","image-button-response","81","617441","0.0-12.0-1.0-0.8","97B90CBB3F9C4BF6A1C7B98303DAFD74","97B90CBB3F9C4BF6A1C7B98303DAFD74","94d48ed5-8c37-4efc-9fd3-6875cce37ab5","051c06f1-75cc-4548-856d-4923ddaba0dc","{""num_scrambled_semantic"":""8"",""num_scrambled_causal"":""4"",""num_scrambled_schematic"":""4"",""participantId"":""97B90CBB3F9C4BF6A1C7B98303DAFD74"",""assignmentId"":""94d48ed5-8c37-4efc-9fd3-6875cce37ab5"",""projectId"":""051c06f1-75cc-4548-856d-4923ddaba0dc""}","https://test12345.live/?num_scrambled_semantic=8&num_scrambled_causal=4&num_scrambled_schematic=4&participantId=97B90CBB3F9C4BF6A1C7B98303DAFD74&assignmentId=94d48ed5-8c37-4efc-9fd3-6875cce37ab5&projectId=051c06f1-75cc-4548-856d-4923ddaba0dc","97B90CBB3F9C4BF6A1C7B98303DAFD74-2025-05-15-18-50-30","","null","","images/causal_sequence/saving_a_cat_causal/saving_a_cat_causal_4.png","null","",""
"","","","","","image-button-response","82","618537","0.0-12.0-1.0-1.8","97B90CBB3F9C4BF6A1C7B98303DAFD74","97B90CBB3F9C4BF6A1C7B98303DAFD74","94d48ed5-8c37-4efc-9fd3-6875cce37ab5","051c06f1-75cc-4548-856d-4923ddaba0dc","{""num_scrambled_semantic"":""8"",""num_scrambled_causal"":""4"",""num_scrambled_schematic"":""4"",""participantId"":""97B90CBB3F9C4BF6A1C7B98303DAFD74"",""assignmentId"":""94d48ed5-8c37-4efc-9fd3-6875cce37ab5"",""projectId"":""051c06f1-75cc-4548-856d-4923ddaba0dc""}","https://test12345.live/?num_scrambled_semantic=8&num_scrambled_causal=4&num_scrambled_schematic=4&participantId=97B90CBB3F9C4BF6A1C7B98303DAFD74&assignmentId=94d48ed5-8c37-4efc-9fd3-6875cce37ab5&projectId=051c06f1-75cc-4548-856d-4923ddaba0dc","97B90CBB3F9C4BF6A1C7B98303DAFD74-2025-05-15-18-50-30","","1094","","images/causal_sequence/saving_a_cat_causal/saving_a_cat_causal_4.png","0","",""
"","","","","","image-button-response","83","620343","0.0-12.0-1.0-2.8","97B90CBB3F9C4BF6A1C7B98303DAFD74","97B90CBB3F9C4BF6A1C7B98303DAFD74","94d48ed5-8c37-4efc-9fd3-6875cce37ab5","051c06f1-75cc-4548-856d-4923ddaba0dc","{""num_scrambled_semantic"":""8"",""num_scrambled_causal"":""4"",""num_scrambled_schematic"":""4"",""participantId"":""97B90CBB3F9C4BF6A1C7B98303DAFD74"",""assignmentId"":""94d48ed5-8c37-4efc-9fd3-6875cce37ab5"",""projectId"":""051c06f1-75cc-4548-856d-4923ddaba0dc""}","https://test12345.live/?num_scrambled_semantic=8&num_scrambled_causal=4&num_scrambled_schematic=4&participantId=97B90CBB3F9C4BF6A1C7B98303DAFD74&assignmentId=94d48ed5-8c37-4efc-9fd3-6875cce37ab5&projectId=051c06f1-75cc-4548-856d-4923ddaba0dc","97B90CBB3F9C4BF6A1C7B98303DAFD74-2025-05-15-18-50-30","","null","","[]","null","",""
"","","","","","image-button-response","84","624855","0.0-12.0-1.0-0.9","97B90CBB3F9C4BF6A1C7B98303DAFD74","97B90CBB3F9C4BF6A1C7B98303DAFD74","94d48ed5-8c37-4efc-9fd3-6875cce37ab5","051c06f1-75cc-4548-856d-4923ddaba0dc","{""num_scrambled_semantic"":""8"",""num_scrambled_causal"":""4"",""num_scrambled_schematic"":""4"",""participantId"":""97B90CBB3F9C4BF6A1C7B98303DAFD74"",""assignmentId"":""94d48ed5-8c37-4efc-9fd3-6875cce37ab5"",""projectId"":""051c06f1-75cc-4548-856d-4923ddaba0dc""}","https://test12345.live/?num_scrambled_semantic=8&num_scrambled_causal=4&num_scrambled_schematic=4&participantId=97B90CBB3F9C4BF6A1C7B98303DAFD74&assignmentId=94d48ed5-8c37-4efc-9fd3-6875cce37ab5&projectId=051c06f1-75cc-4548-856d-4923ddaba0dc","97B90CBB3F9C4BF6A1C7B98303DAFD74-2025-05-15-18-50-30","","null","","images/causal_sequence/saving_a_cat_causal/saving_a_cat_causal_6.png","null","",""
"","","","","","image-button-response","85","625969","0.0-12.0-1.0-1.9","97B90CBB3F9C4BF6A1C7B98303DAFD74","97B90CBB3F9C4BF6A1C7B98303DAFD74","94d48ed5-8c37-4efc-9fd3-6875cce37ab5","051c06f1-75cc-4548-856d-4923ddaba0dc","{""num_scrambled_semantic"":""8"",""num_scrambled_causal"":""4"",""num_scrambled_schematic"":""4"",""participantId"":""97B90CBB3F9C4BF6A1C7B98303DAFD74"",""assignmentId"":""94d48ed5-8c37-4efc-9fd3-6875cce37ab5"",""projectId"":""051c06f1-75cc-4548-856d-4923ddaba0dc""}","https://test12345.live/?num_scrambled_semantic=8&num_scrambled_causal=4&num_scrambled_schematic=4&participantId=97B90CBB3F9C4BF6A1C7B98303DAFD74&assignmentId=94d48ed5-8c37-4efc-9fd3-6875cce37ab5&projectId=051c06f1-75cc-4548-856d-4923ddaba0dc","97B90CBB3F9C4BF6A1C7B98303DAFD74-2025-05-15-18-50-30","","1112","","images/causal_sequence/saving_a_cat_causal/saving_a_cat_causal_6.png","0","",""
"","","","","","image-button-response","86","627775","0.0-12.0-1.0-2.9","97B90CBB3F9C4BF6A1C7B98303DAFD74","97B90CBB3F9C4BF6A1C7B98303DAFD74","94d48ed5-8c37-4efc-9fd3-6875cce37ab5","051c06f1-75cc-4548-856d-4923ddaba0dc","{""num_scrambled_semantic"":""8"",""num_scrambled_causal"":""4"",""num_scrambled_schematic"":""4"",""participantId"":""97B90CBB3F9C4BF6A1C7B98303DAFD74"",""assignmentId"":""94d48ed5-8c37-4efc-9fd3-6875cce37ab5"",""projectId"":""051c06f1-75cc-4548-856d-4923ddaba0dc""}","https://test12345.live/?num_scrambled_semantic=8&num_scrambled_causal=4&num_scrambled_schematic=4&participantId=97B90CBB3F9C4BF6A1C7B98303DAFD74&assignmentId=94d48ed5-8c37-4efc-9fd3-6875cce37ab5&projectId=051c06f1-75cc-4548-856d-4923ddaba0dc","97B90CBB3F9C4BF6A1C7B98303DAFD74-2025-05-15-18-50-30","","null","","[]","null","",""
"","","","","","html-audio-response","87","641328","0.0-13.0","97B90CBB3F9C4BF6A1C7B98303DAFD74","97B90CBB3F9C4BF6A1C7B98303DAFD74","94d48ed5-8c37-4efc-9fd3-6875cce37ab5","051c06f1-75cc-4548-856d-4923ddaba0dc","{""num_scrambled_semantic"":""8"",""num_scrambled_causal"":""4"",""num_scrambled_schematic"":""4"",""participantId"":""97B90CBB3F9C4BF6A1C7B98303DAFD74"",""assignmentId"":""94d48ed5-8c37-4efc-9fd3-6875cce37ab5"",""projectId"":""051c06f1-75cc-4548-856d-4923ddaba0dc""}","https://test12345.live/?num_scrambled_semantic=8&num_scrambled_causal=4&num_scrambled_schematic=4&participantId=97B90CBB3F9C4BF6A1C7B98303DAFD74&assignmentId=94d48ed5-8c37-4efc-9fd3-6875cce37ab5&projectId=051c06f1-75cc-4548-856d-4923ddaba0dc","97B90CBB3F9C4BF6A1C7B98303DAFD74-2025-05-15-18-50-30","","4787","","[""<span style=\""color: red; font-size: 24px\""> NOW RECORDING</span><p>Please say out loud all the images you saw, as many as you can remember. The images can be said in any order.</p>""]","","1","saving_a_cat_causal"
"","","","","","image-button-response","88","647338","0.0-14.0-0.0","97B90CBB3F9C4BF6A1C7B98303DAFD74","97B90CBB3F9C4BF6A1C7B98303DAFD74","94d48ed5-8c37-4efc-9fd3-6875cce37ab5","051c06f1-75cc-4548-856d-4923ddaba0dc","{""num_scrambled_semantic"":""8"",""num_scrambled_causal"":""4"",""num_scrambled_schematic"":""4"",""participantId"":""97B90CBB3F9C4BF6A1C7B98303DAFD74"",""assignmentId"":""94d48ed5-8c37-4efc-9fd3-6875cce37ab5"",""projectId"":""051c06f1-75cc-4548-856d-4923ddaba0dc""}","https://test12345.live/?num_scrambled_semantic=8&num_scrambled_causal=4&num_scrambled_schematic=4&participantId=97B90CBB3F9C4BF6A1C7B98303DAFD74&assignmentId=94d48ed5-8c37-4efc-9fd3-6875cce37ab5&projectId=051c06f1-75cc-4548-856d-4923ddaba0dc","97B90CBB3F9C4BF6A1C7B98303DAFD74-2025-05-15-18-50-30","","null","","images/causal_sequence/the_performance_causal/the_performance_causal_0.png","null","",""
"","","","","","image-button-response","89","651840","0.0-14.0-1.0-0.0","97B90CBB3F9C4BF6A1C7B98303DAFD74","97B90CBB3F9C4BF6A1C7B98303DAFD74","94d48ed5-8c37-4efc-9fd3-6875cce37ab5","051c06f1-75cc-4548-856d-4923ddaba0dc","{""num_scrambled_semantic"":""8"",""num_scrambled_causal"":""4"",""num_scrambled_schematic"":""4"",""participantId"":""97B90CBB3F9C4BF6A1C7B98303DAFD74"",""assignmentId"":""94d48ed5-8c37-4efc-9fd3-6875cce37ab5"",""projectId"":""051c06f1-75cc-4548-856d-4923ddaba0dc""}","https://test12345.live/?num_scrambled_semantic=8&num_scrambled_causal=4&num_scrambled_schematic=4&participantId=97B90CBB3F9C4BF6A1C7B98303DAFD74&assignmentId=94d48ed5-8c37-4efc-9fd3-6875cce37ab5&projectId=051c06f1-75cc-4548-856d-4923ddaba0dc","97B90CBB3F9C4BF6A1C7B98303DAFD74-2025-05-15-18-50-30","","null","","images/causal_sequence/the_performance_causal/the_performance_causal_7.png","null","",""
"","","","","","image-button-response","90","654089","0.0-14.0-1.0-1.0","97B90CBB3F9C4BF6A1C7B98303DAFD74","97B90CBB3F9C4BF6A1C7B98303DAFD74","94d48ed5-8c37-4efc-9fd3-6875cce37ab5","051c06f1-75cc-4548-856d-4923ddaba0dc","{""num_scrambled_semantic"":""8"",""num_scrambled_causal"":""4"",""num_scrambled_schematic"":""4"",""participantId"":""97B90CBB3F9C4BF6A1C7B98303DAFD74"",""assignmentId"":""94d48ed5-8c37-4efc-9fd3-6875cce37ab5"",""projectId"":""051c06f1-75cc-4548-856d-4923ddaba0dc""}","https://test12345.live/?num_scrambled_semantic=8&num_scrambled_causal=4&num_scrambled_schematic=4&participantId=97B90CBB3F9C4BF6A1C7B98303DAFD74&assignmentId=94d48ed5-8c37-4efc-9fd3-6875cce37ab5&projectId=051c06f1-75cc-4548-856d-4923ddaba0dc","97B90CBB3F9C4BF6A1C7B98303DAFD74-2025-05-15-18-50-30","","2248","","images/causal_sequence/the_performance_causal/the_performance_causal_7.png","0","",""
"","","","","","image-button-response","91","655900","0.0-14.0-1.0-2.0","97B90CBB3F9C4BF6A1C7B98303DAFD74","97B90CBB3F9C4BF6A1C7B98303DAFD74","94d48ed5-8c37-4efc-9fd3-6875cce37ab5","051c06f1-75cc-4548-856d-4923ddaba0dc","{""num_scrambled_semantic"":""8"",""num_scrambled_causal"":""4"",""num_scrambled_schematic"":""4"",""participantId"":""97B90CBB3F9C4BF6A1C7B98303DAFD74"",""assignmentId"":""94d48ed5-8c37-4efc-9fd3-6875cce37ab5"",""projectId"":""051c06f1-75cc-4548-856d-4923ddaba0dc""}","https://test12345.live/?num_scrambled_semantic=8&num_scrambled_causal=4&num_scrambled_schematic=4&participantId=97B90CBB3F9C4BF6A1C7B98303DAFD74&assignmentId=94d48ed5-8c37-4efc-9fd3-6875cce37ab5&projectId=051c06f1-75cc-4548-856d-4923ddaba0dc","97B90CBB3F9C4BF6A1C7B98303DAFD74-2025-05-15-18-50-30","","null","","[]","null","",""
"","","","","","image-button-response","92","660408","0.0-14.0-1.0-0.1","97B90CBB3F9C4BF6A1C7B98303DAFD74","97B90CBB3F9C4BF6A1C7B98303DAFD74","94d48ed5-8c37-4efc-9fd3-6875cce37ab5","051c06f1-75cc-4548-856d-4923ddaba0dc","{""num_scrambled_semantic"":""8"",""num_scrambled_causal"":""4"",""num_scrambled_schematic"":""4"",""participantId"":""97B90CBB3F9C4BF6A1C7B98303DAFD74"",""assignmentId"":""94d48ed5-8c37-4efc-9fd3-6875cce37ab5"",""projectId"":""051c06f1-75cc-4548-856d-4923ddaba0dc""}","https://test12345.live/?num_scrambled_semantic=8&num_scrambled_causal=4&num_scrambled_schematic=4&participantId=97B90CBB3F9C4BF6A1C7B98303DAFD74&assignmentId=94d48ed5-8c37-4efc-9fd3-6875cce37ab5&projectId=051c06f1-75cc-4548-856d-4923ddaba0dc","97B90CBB3F9C4BF6A1C7B98303DAFD74-2025-05-15-18-50-30","","null","","images/causal_sequence/the_performance_causal/the_performance_causal_1.png","null","",""
"","","","","","image-button-response","93","662000","0.0-14.0-1.0-1.1","97B90CBB3F9C4BF6A1C7B98303DAFD74","97B90CBB3F9C4BF6A1C7B98303DAFD74","94d48ed5-8c37-4efc-9fd3-6875cce37ab5","051c06f1-75cc-4548-856d-4923ddaba0dc","{""num_scrambled_semantic"":""8"",""num_scrambled_causal"":""4"",""num_scrambled_schematic"":""4"",""participantId"":""97B90CBB3F9C4BF6A1C7B98303DAFD74"",""assignmentId"":""94d48ed5-8c37-4efc-9fd3-6875cce37ab5"",""projectId"":""051c06f1-75cc-4548-856d-4923ddaba0dc""}","https://test12345.live/?num_scrambled_semantic=8&num_scrambled_causal=4&num_scrambled_schematic=4&participantId=97B90CBB3F9C4BF6A1C7B98303DAFD74&assignmentId=94d48ed5-8c37-4efc-9fd3-6875cce37ab5&projectId=051c06f1-75cc-4548-856d-4923ddaba0dc","97B90CBB3F9C4BF6A1C7B98303DAFD74-2025-05-15-18-50-30","","1591","","images/causal_sequence/the_performance_causal/the_performance_causal_1.png","0","",""
"","","","","","image-button-response","94","663807","0.0-14.0-1.0-2.1","97B90CBB3F9C4BF6A1C7B98303DAFD74","97B90CBB3F9C4BF6A1C7B98303DAFD74","94d48ed5-8c37-4efc-9fd3-6875cce37ab5","051c06f1-75cc-4548-856d-4923ddaba0dc","{""num_scrambled_semantic"":""8"",""num_scrambled_causal"":""4"",""num_scrambled_schematic"":""4"",""participantId"":""97B90CBB3F9C4BF6A1C7B98303DAFD74"",""assignmentId"":""94d48ed5-8c37-4efc-9fd3-6875cce37ab5"",""projectId"":""051c06f1-75cc-4548-856d-4923ddaba0dc""}","https://test12345.live/?num_scrambled_semantic=8&num_scrambled_causal=4&num_scrambled_schematic=4&participantId=97B90CBB3F9C4BF6A1C7B98303DAFD74&assignmentId=94d48ed5-8c37-4efc-9fd3-6875cce37ab5&projectId=051c06f1-75cc-4548-856d-4923ddaba0dc","97B90CBB3F9C4BF6A1C7B98303DAFD74-2025-05-15-18-50-30","","null","","[]","null","",""
"","","","","","image-button-response","95","668311","0.0-14.0-1.0-0.2","97B90CBB3F9C4BF6A1C7B98303DAFD74","97B90CBB3F9C4BF6A1C7B98303DAFD74","94d48ed5-8c37-4efc-9fd3-6875cce37ab5","051c06f1-75cc-4548-856d-4923ddaba0dc","{""num_scrambled_semantic"":""8"",""num_scrambled_causal"":""4"",""num_scrambled_schematic"":""4"",""participantId"":""97B90CBB3F9C4BF6A1C7B98303DAFD74"",""assignmentId"":""94d48ed5-8c37-4efc-9fd3-6875cce37ab5"",""projectId"":""051c06f1-75cc-4548-856d-4923ddaba0dc""}","https://test12345.live/?num_scrambled_semantic=8&num_scrambled_causal=4&num_scrambled_schematic=4&participantId=97B90CBB3F9C4BF6A1C7B98303DAFD74&assignmentId=94d48ed5-8c37-4efc-9fd3-6875cce37ab5&projectId=051c06f1-75cc-4548-856d-4923ddaba0dc","97B90CBB3F9C4BF6A1C7B98303DAFD74-2025-05-15-18-50-30","","null","","images/causal_sequence/the_performance_causal/the_performance_causal_8.png","null","",""
"","","","","","image-button-response","96","669808","0.0-14.0-1.0-1.2","97B90CBB3F9C4BF6A1C7B98303DAFD74","97B90CBB3F9C4BF6A1C7B98303DAFD74","94d48ed5-8c37-4efc-9fd3-6875cce37ab5","051c06f1-75cc-4548-856d-4923ddaba0dc","{""num_scrambled_semantic"":""8"",""num_scrambled_causal"":""4"",""num_scrambled_schematic"":""4"",""participantId"":""97B90CBB3F9C4BF6A1C7B98303DAFD74"",""assignmentId"":""94d48ed5-8c37-4efc-9fd3-6875cce37ab5"",""projectId"":""051c06f1-75cc-4548-856d-4923ddaba0dc""}","https://test12345.live/?num_scrambled_semantic=8&num_scrambled_causal=4&num_scrambled_schematic=4&participantId=97B90CBB3F9C4BF6A1C7B98303DAFD74&assignmentId=94d48ed5-8c37-4efc-9fd3-6875cce37ab5&projectId=051c06f1-75cc-4548-856d-4923ddaba0dc","97B90CBB3F9C4BF6A1C7B98303DAFD74-2025-05-15-18-50-30","","1496","","images/causal_sequence/the_performance_causal/the_performance_causal_8.png","0","",""
"","","","","","image-button-response","97","671616","0.0-14.0-1.0-2.2","97B90CBB3F9C4BF6A1C7B98303DAFD74","97B90CBB3F9C4BF6A1C7B98303DAFD74","94d48ed5-8c37-4efc-9fd3-6875cce37ab5","051c06f1-75cc-4548-856d-4923ddaba0dc","{""num_scrambled_semantic"":""8"",""num_scrambled_causal"":""4"",""num_scrambled_schematic"":""4"",""participantId"":""97B90CBB3F9C4BF6A1C7B98303DAFD74"",""assignmentId"":""94d48ed5-8c37-4efc-9fd3-6875cce37ab5"",""projectId"":""051c06f1-75cc-4548-856d-4923ddaba0dc""}","https://test12345.live/?num_scrambled_semantic=8&num_scrambled_causal=4&num_scrambled_schematic=4&participantId=97B90CBB3F9C4BF6A1C7B98303DAFD74&assignmentId=94d48ed5-8c37-4efc-9fd3-6875cce37ab5&projectId=051c06f1-75cc-4548-856d-4923ddaba0dc","97B90CBB3F9C4BF6A1C7B98303DAFD74-2025-05-15-18-50-30","","null","","[]","null","",""
"","","","","","image-button-response","98","676118","0.0-14.0-1.0-0.3","97B90CBB3F9C4BF6A1C7B98303DAFD74","97B90CBB3F9C4BF6A1C7B98303DAFD74","94d48ed5-8c37-4efc-9fd3-6875cce37ab5","051c06f1-75cc-4548-856d-4923ddaba0dc","{""num_scrambled_semantic"":""8"",""num_scrambled_causal"":""4"",""num_scrambled_schematic"":""4"",""participantId"":""97B90CBB3F9C4BF6A1C7B98303DAFD74"",""assignmentId"":""94d48ed5-8c37-4efc-9fd3-6875cce37ab5"",""projectId"":""051c06f1-75cc-4548-856d-4923ddaba0dc""}","https://test12345.live/?num_scrambled_semantic=8&num_scrambled_causal=4&num_scrambled_schematic=4&participantId=97B90CBB3F9C4BF6A1C7B98303DAFD74&assignmentId=94d48ed5-8c37-4efc-9fd3-6875cce37ab5&projectId=051c06f1-75cc-4548-856d-4923ddaba0dc","97B90CBB3F9C4BF6A1C7B98303DAFD74-2025-05-15-18-50-30","","null","","images/causal_sequence/the_performance_causal/the_performance_causal_6.png","null","",""
"","","","","","image-button-response","99","677192","0.0-14.0-1.0-1.3","97B90CBB3F9C4BF6A1C7B98303DAFD74","97B90CBB3F9C4BF6A1C7B98303DAFD74","94d48ed5-8c37-4efc-9fd3-6875cce37ab5","051c06f1-75cc-4548-856d-4923ddaba0dc","{""num_scrambled_semantic"":""8"",""num_scrambled_causal"":""4"",""num_scrambled_schematic"":""4"",""participantId"":""97B90CBB3F9C4BF6A1C7B98303DAFD74"",""assignmentId"":""94d48ed5-8c37-4efc-9fd3-6875cce37ab5"",""projectId"":""051c06f1-75cc-4548-856d-4923ddaba0dc""}","https://test12345.live/?num_scrambled_semantic=8&num_scrambled_causal=4&num_scrambled_schematic=4&participantId=97B90CBB3F9C4BF6A1C7B98303DAFD74&assignmentId=94d48ed5-8c37-4efc-9fd3-6875cce37ab5&projectId=051c06f1-75cc-4548-856d-4923ddaba0dc","97B90CBB3F9C4BF6A1C7B98303DAFD74-2025-05-15-18-50-30","","1074","","images/causal_sequence/the_performance_causal/the_performance_causal_6.png","0","",""
"","","","","","image-button-response","100","679001","0.0-14.0-1.0-2.3","97B90CBB3F9C4BF6A1C7B98303DAFD74","97B90CBB3F9C4BF6A1C7B98303DAFD74","94d48ed5-8c37-4efc-9fd3-6875cce37ab5","051c06f1-75cc-4548-856d-4923ddaba0dc","{""num_scrambled_semantic"":""8"",""num_scrambled_causal"":""4"",""num_scrambled_schematic"":""4"",""participantId"":""97B90CBB3F9C4BF6A1C7B98303DAFD74"",""assignmentId"":""94d48ed5-8c37-4efc-9fd3-6875cce37ab5"",""projectId"":""051c06f1-75cc-4548-856d-4923ddaba0dc""}","https://test12345.live/?num_scrambled_semantic=8&num_scrambled_causal=4&num_scrambled_schematic=4&participantId=97B90CBB3F9C4BF6A1C7B98303DAFD74&assignmentId=94d48ed5-8c37-4efc-9fd3-6875cce37ab5&projectId=051c06f1-75cc-4548-856d-4923ddaba0dc","97B90CBB3F9C4BF6A1C7B98303DAFD74-2025-05-15-18-50-30","","null","","[]","null","",""
"","","","","","image-button-response","101","683505","0.0-14.0-1.0-0.4","97B90CBB3F9C4BF6A1C7B98303DAFD74","97B90CBB3F9C4BF6A1C7B98303DAFD74","94d48ed5-8c37-4efc-9fd3-6875cce37ab5","051c06f1-75cc-4548-856d-4923ddaba0dc","{""num_scrambled_semantic"":""8"",""num_scrambled_causal"":""4"",""num_scrambled_schematic"":""4"",""participantId"":""97B90CBB3F9C4BF6A1C7B98303DAFD74"",""assignmentId"":""94d48ed5-8c37-4efc-9fd3-6875cce37ab5"",""projectId"":""051c06f1-75cc-4548-856d-4923ddaba0dc""}","https://test12345.live/?num_scrambled_semantic=8&num_scrambled_causal=4&num_scrambled_schematic=4&participantId=97B90CBB3F9C4BF6A1C7B98303DAFD74&assignmentId=94d48ed5-8c37-4efc-9fd3-6875cce37ab5&projectId=051c06f1-75cc-4548-856d-4923ddaba0dc","97B90CBB3F9C4BF6A1C7B98303DAFD74-2025-05-15-18-50-30","","null","","images/causal_sequence/the_performance_causal/the_performance_causal_3.png","null","",""
"","","","","","image-button-response","102","684688","0.0-14.0-1.0-1.4","97B90CBB3F9C4BF6A1C7B98303DAFD74","97B90CBB3F9C4BF6A1C7B98303DAFD74","94d48ed5-8c37-4efc-9fd3-6875cce37ab5","051c06f1-75cc-4548-856d-4923ddaba0dc","{""num_scrambled_semantic"":""8"",""num_scrambled_causal"":""4"",""num_scrambled_schematic"":""4"",""participantId"":""97B90CBB3F9C4BF6A1C7B98303DAFD74"",""assignmentId"":""94d48ed5-8c37-4efc-9fd3-6875cce37ab5"",""projectId"":""051c06f1-75cc-4548-856d-4923ddaba0dc""}","https://test12345.live/?num_scrambled_semantic=8&num_scrambled_causal=4&num_scrambled_schematic=4&participantId=97B90CBB3F9C4BF6A1C7B98303DAFD74&assignmentId=94d48ed5-8c37-4efc-9fd3-6875cce37ab5&projectId=051c06f1-75cc-4548-856d-4923ddaba0dc","97B90CBB3F9C4BF6A1C7B98303DAFD74-2025-05-15-18-50-30","","1183","","images/causal_sequence/the_performance_causal/the_performance_causal_3.png","0","",""
"","","","","","image-button-response","103","686489","0.0-14.0-1.0-2.4","97B90CBB3F9C4BF6A1C7B98303DAFD74","97B90CBB3F9C4BF6A1C7B98303DAFD74","94d48ed5-8c37-4efc-9fd3-6875cce37ab5","051c06f1-75cc-4548-856d-4923ddaba0dc","{""num_scrambled_semantic"":""8"",""num_scrambled_causal"":""4"",""num_scrambled_schematic"":""4"",""participantId"":""97B90CBB3F9C4BF6A1C7B98303DAFD74"",""assignmentId"":""94d48ed5-8c37-4efc-9fd3-6875cce37ab5"",""projectId"":""051c06f1-75cc-4548-856d-4923ddaba0dc""}","https://test12345.live/?num_scrambled_semantic=8&num_scrambled_causal=4&num_scrambled_schematic=4&participantId=97B90CBB3F9C4BF6A1C7B98303DAFD74&assignmentId=94d48ed5-8c37-4efc-9fd3-6875cce37ab5&projectId=051c06f1-75cc-4548-856d-4923ddaba0dc","97B90CBB3F9C4BF6A1C7B98303DAFD74-2025-05-15-18-50-30","","null","","[]","null","",""
"","","","","","image-button-response","104","691006","0.0-14.0-1.0-0.5","97B90CBB3F9C4BF6A1C7B98303DAFD74","97B90CBB3F9C4BF6A1C7B98303DAFD74","94d48ed5-8c37-4efc-9fd3-6875cce37ab5","051c06f1-75cc-4548-856d-4923ddaba0dc","{""num_scrambled_semantic"":""8"",""num_scrambled_causal"":""4"",""num_scrambled_schematic"":""4"",""participantId"":""97B90CBB3F9C4BF6A1C7B98303DAFD74"",""assignmentId"":""94d48ed5-8c37-4efc-9fd3-6875cce37ab5"",""projectId"":""051c06f1-75cc-4548-856d-4923ddaba0dc""}","https://test12345.live/?num_scrambled_semantic=8&num_scrambled_causal=4&num_scrambled_schematic=4&participantId=97B90CBB3F9C4BF6A1C7B98303DAFD74&assignmentId=94d48ed5-8c37-4efc-9fd3-6875cce37ab5&projectId=051c06f1-75cc-4548-856d-4923ddaba0dc","97B90CBB3F9C4BF6A1C7B98303DAFD74-2025-05-15-18-50-30","","null","","images/causal_sequence/the_performance_causal/the_performance_causal_2.png","null","",""
"","","","","","image-button-response","105","693520","0.0-14.0-1.0-1.5","97B90CBB3F9C4BF6A1C7B98303DAFD74","97B90CBB3F9C4BF6A1C7B98303DAFD74","94d48ed5-8c37-4efc-9fd3-6875cce37ab5","051c06f1-75cc-4548-856d-4923ddaba0dc","{""num_scrambled_semantic"":""8"",""num_scrambled_causal"":""4"",""num_scrambled_schematic"":""4"",""participantId"":""97B90CBB3F9C4BF6A1C7B98303DAFD74"",""assignmentId"":""94d48ed5-8c37-4efc-9fd3-6875cce37ab5"",""projectId"":""051c06f1-75cc-4548-856d-4923ddaba0dc""}","https://test12345.live/?num_scrambled_semantic=8&num_scrambled_causal=4&num_scrambled_schematic=4&participantId=97B90CBB3F9C4BF6A1C7B98303DAFD74&assignmentId=94d48ed5-8c37-4efc-9fd3-6875cce37ab5&projectId=051c06f1-75cc-4548-856d-4923ddaba0dc","97B90CBB3F9C4BF6A1C7B98303DAFD74-2025-05-15-18-50-30","","2514","","images/causal_sequence/the_performance_causal/the_performance_causal_2.png","0","",""
"","","","","","image-button-response","106","695330","0.0-14.0-1.0-2.5","97B90CBB3F9C4BF6A1C7B98303DAFD74","97B90CBB3F9C4BF6A1C7B98303DAFD74","94d48ed5-8c37-4efc-9fd3-6875cce37ab5","051c06f1-75cc-4548-856d-4923ddaba0dc","{""num_scrambled_semantic"":""8"",""num_scrambled_causal"":""4"",""num_scrambled_schematic"":""4"",""participantId"":""97B90CBB3F9C4BF6A1C7B98303DAFD74"",""assignmentId"":""94d48ed5-8c37-4efc-9fd3-6875cce37ab5"",""projectId"":""051c06f1-75cc-4548-856d-4923ddaba0dc""}","https://test12345.live/?num_scrambled_semantic=8&num_scrambled_causal=4&num_scrambled_schematic=4&participantId=97B90CBB3F9C4BF6A1C7B98303DAFD74&assignmentId=94d48ed5-8c37-4efc-9fd3-6875cce37ab5&projectId=051c06f1-75cc-4548-856d-4923ddaba0dc","97B90CBB3F9C4BF6A1C7B98303DAFD74-2025-05-15-18-50-30","","null","","[]","null","",""
"","","","","","image-button-response","107","699832","0.0-14.0-1.0-0.6","97B90CBB3F9C4BF6A1C7B98303DAFD74","97B90CBB3F9C4BF6A1C7B98303DAFD74","94d48ed5-8c37-4efc-9fd3-6875cce37ab5","051c06f1-75cc-4548-856d-4923ddaba0dc","{""num_scrambled_semantic"":""8"",""num_scrambled_causal"":""4"",""num_scrambled_schematic"":""4"",""participantId"":""97B90CBB3F9C4BF6A1C7B98303DAFD74"",""assignmentId"":""94d48ed5-8c37-4efc-9fd3-6875cce37ab5"",""projectId"":""051c06f1-75cc-4548-856d-4923ddaba0dc""}","https://test12345.live/?num_scrambled_semantic=8&num_scrambled_causal=4&num_scrambled_schematic=4&participantId=97B90CBB3F9C4BF6A1C7B98303DAFD74&assignmentId=94d48ed5-8c37-4efc-9fd3-6875cce37ab5&projectId=051c06f1-75cc-4548-856d-4923ddaba0dc","97B90CBB3F9C4BF6A1C7B98303DAFD74-2025-05-15-18-50-30","","null","","images/causal_sequence/the_performance_causal/the_performance_causal_4.png","null","",""
"","","","","","image-button-response","108","701760","0.0-14.0-1.0-1.6","97B90CBB3F9C4BF6A1C7B98303DAFD74","97B90CBB3F9C4BF6A1C7B98303DAFD74","94d48ed5-8c37-4efc-9fd3-6875cce37ab5","051c06f1-75cc-4548-856d-4923ddaba0dc","{""num_scrambled_semantic"":""8"",""num_scrambled_causal"":""4"",""num_scrambled_schematic"":""4"",""participantId"":""97B90CBB3F9C4BF6A1C7B98303DAFD74"",""assignmentId"":""94d48ed5-8c37-4efc-9fd3-6875cce37ab5"",""projectId"":""051c06f1-75cc-4548-856d-4923ddaba0dc""}","https://test12345.live/?num_scrambled_semantic=8&num_scrambled_causal=4&num_scrambled_schematic=4&participantId=97B90CBB3F9C4BF6A1C7B98303DAFD74&assignmentId=94d48ed5-8c37-4efc-9fd3-6875cce37ab5&projectId=051c06f1-75cc-4548-856d-4923ddaba0dc","97B90CBB3F9C4BF6A1C7B98303DAFD74-2025-05-15-18-50-30","","1927","","images/causal_sequence/the_performance_causal/the_performance_causal_4.png","0","",""
"","","","","","image-button-response","109","703573","0.0-14.0-1.0-2.6","97B90CBB3F9C4BF6A1C7B98303DAFD74","97B90CBB3F9C4BF6A1C7B98303DAFD74","94d48ed5-8c37-4efc-9fd3-6875cce37ab5","051c06f1-75cc-4548-856d-4923ddaba0dc","{""num_scrambled_semantic"":""8"",""num_scrambled_causal"":""4"",""num_scrambled_schematic"":""4"",""participantId"":""97B90CBB3F9C4BF6A1C7B98303DAFD74"",""assignmentId"":""94d48ed5-8c37-4efc-9fd3-6875cce37ab5"",""projectId"":""051c06f1-75cc-4548-856d-4923ddaba0dc""}","https://test12345.live/?num_scrambled_semantic=8&num_scrambled_causal=4&num_scrambled_schematic=4&participantId=97B90CBB3F9C4BF6A1C7B98303DAFD74&assignmentId=94d48ed5-8c37-4efc-9fd3-6875cce37ab5&projectId=051c06f1-75cc-4548-856d-4923ddaba0dc","97B90CBB3F9C4BF6A1C7B98303DAFD74-2025-05-15-18-50-30","","null","","[]","null","",""
"","","","","","image-button-response","110","708086","0.0-14.0-1.0-0.7","97B90CBB3F9C4BF6A1C7B98303DAFD74","97B90CBB3F9C4BF6A1C7B98303DAFD74","94d48ed5-8c37-4efc-9fd3-6875cce37ab5","051c06f1-75cc-4548-856d-4923ddaba0dc","{""num_scrambled_semantic"":""8"",""num_scrambled_causal"":""4"",""num_scrambled_schematic"":""4"",""participantId"":""97B90CBB3F9C4BF6A1C7B98303DAFD74"",""assignmentId"":""94d48ed5-8c37-4efc-9fd3-6875cce37ab5"",""projectId"":""051c06f1-75cc-4548-856d-4923ddaba0dc""}","https://test12345.live/?num_scrambled_semantic=8&num_scrambled_causal=4&num_scrambled_schematic=4&participantId=97B90CBB3F9C4BF6A1C7B98303DAFD74&assignmentId=94d48ed5-8c37-4efc-9fd3-6875cce37ab5&projectId=051c06f1-75cc-4548-856d-4923ddaba0dc","97B90CBB3F9C4BF6A1C7B98303DAFD74-2025-05-15-18-50-30","","null","","images/causal_sequence/the_performance_causal/the_performance_causal_9.png","null","",""
"","","","","","image-button-response","111","709280","0.0-14.0-1.0-1.7","97B90CBB3F9C4BF6A1C7B98303DAFD74","97B90CBB3F9C4BF6A1C7B98303DAFD74","94d48ed5-8c37-4efc-9fd3-6875cce37ab5","051c06f1-75cc-4548-856d-4923ddaba0dc","{""num_scrambled_semantic"":""8"",""num_scrambled_causal"":""4"",""num_scrambled_schematic"":""4"",""participantId"":""97B90CBB3F9C4BF6A1C7B98303DAFD74"",""assignmentId"":""94d48ed5-8c37-4efc-9fd3-6875cce37ab5"",""projectId"":""051c06f1-75cc-4548-856d-4923ddaba0dc""}","https://test12345.live/?num_scrambled_semantic=8&num_scrambled_causal=4&num_scrambled_schematic=4&participantId=97B90CBB3F9C4BF6A1C7B98303DAFD74&assignmentId=94d48ed5-8c37-4efc-9fd3-6875cce37ab5&projectId=051c06f1-75cc-4548-856d-4923ddaba0dc","97B90CBB3F9C4BF6A1C7B98303DAFD74-2025-05-15-18-50-30","","1193","","images/causal_sequence/the_performance_causal/the_performance_causal_9.png","0","",""
"","","","","","image-button-response","112","711090","0.0-14.0-1.0-2.7","97B90CBB3F9C4BF6A1C7B98303DAFD74","97B90CBB3F9C4BF6A1C7B98303DAFD74","94d48ed5-8c37-4efc-9fd3-6875cce37ab5","051c06f1-75cc-4548-856d-4923ddaba0dc","{""num_scrambled_semantic"":""8"",""num_scrambled_causal"":""4"",""num_scrambled_schematic"":""4"",""participantId"":""97B90CBB3F9C4BF6A1C7B98303DAFD74"",""assignmentId"":""94d48ed5-8c37-4efc-9fd3-6875cce37ab5"",""projectId"":""051c06f1-75cc-4548-856d-4923ddaba0dc""}","https://test12345.live/?num_scrambled_semantic=8&num_scrambled_causal=4&num_scrambled_schematic=4&participantId=97B90CBB3F9C4BF6A1C7B98303DAFD74&assignmentId=94d48ed5-8c37-4efc-9fd3-6875cce37ab5&projectId=051c06f1-75cc-4548-856d-4923ddaba0dc","97B90CBB3F9C4BF6A1C7B98303DAFD74-2025-05-15-18-50-30","","null","","[]","null","",""
"","","","","","image-button-response","113","715598","0.0-14.0-1.0-0.8","97B90CBB3F9C4BF6A1C7B98303DAFD74","97B90CBB3F9C4BF6A1C7B98303DAFD74","94d48ed5-8c37-4efc-9fd3-6875cce37ab5","051c06f1-75cc-4548-856d-4923ddaba0dc","{""num_scrambled_semantic"":""8"",""num_scrambled_causal"":""4"",""num_scrambled_schematic"":""4"",""participantId"":""97B90CBB3F9C4BF6A1C7B98303DAFD74"",""assignmentId"":""94d48ed5-8c37-4efc-9fd3-6875cce37ab5"",""projectId"":""051c06f1-75cc-4548-856d-4923ddaba0dc""}","https://test12345.live/?num_scrambled_semantic=8&num_scrambled_causal=4&num_scrambled_schematic=4&participantId=97B90CBB3F9C4BF6A1C7B98303DAFD74&assignmentId=94d48ed5-8c37-4efc-9fd3-6875cce37ab5&projectId=051c06f1-75cc-4548-856d-4923ddaba0dc","97B90CBB3F9C4BF6A1C7B98303DAFD74-2025-05-15-18-50-30","","null","","images/causal_sequence/the_performance_causal/the_performance_causal_ten.png","null","",""
"","","","","","image-button-response","114","717424","0.0-14.0-1.0-1.8","97B90CBB3F9C4BF6A1C7B98303DAFD74","97B90CBB3F9C4BF6A1C7B98303DAFD74","94d48ed5-8c37-4efc-9fd3-6875cce37ab5","051c06f1-75cc-4548-856d-4923ddaba0dc","{""num_scrambled_semantic"":""8"",""num_scrambled_causal"":""4"",""num_scrambled_schematic"":""4"",""participantId"":""97B90CBB3F9C4BF6A1C7B98303DAFD74"",""assignmentId"":""94d48ed5-8c37-4efc-9fd3-6875cce37ab5"",""projectId"":""051c06f1-75cc-4548-856d-4923ddaba0dc""}","https://test12345.live/?num_scrambled_semantic=8&num_scrambled_causal=4&num_scrambled_schematic=4&participantId=97B90CBB3F9C4BF6A1C7B98303DAFD74&assignmentId=94d48ed5-8c37-4efc-9fd3-6875cce37ab5&projectId=051c06f1-75cc-4548-856d-4923ddaba0dc","97B90CBB3F9C4BF6A1C7B98303DAFD74-2025-05-15-18-50-30","","1826","","images/causal_sequence/the_performance_causal/the_performance_causal_ten.png","0","",""
