"success","timeout","failed_images","failed_audio","failed_video","trial_type","trial_index","time_elapsed","internal_node_id","subject","subject_id","study_id","session_id","urlvar","current_url","audio_id","view_history","rt","device_id","stimulus","response","estimated_stimulus_onset","seq_name"
"true","false","[]","[]","[]","preload","0","154016","0.0-0.0","97C7CEDA6B8043BA9096300DBE1AAB8C","97C7CEDA6B8043BA9096300DBE1AAB8C","7332957a-f8c8-437e-a4c6-6595ee853edc","5e631737-0fa4-44a6-b227-7ba1d7345015","{""num_scrambled_semantic"":""8"",""num_scrambled_causal"":""4"",""num_scrambled_schematic"":""4"",""participantId"":""97C7CEDA6B8043BA9096300DBE1AAB8C"",""assignmentId"":""7332957a-f8c8-437e-a4c6-6595ee853edc"",""projectId"":""5e631737-0fa4-44a6-b227-7ba1d7345015""}","https://test12345.live/?num_scrambled_semantic=8&num_scrambled_causal=4&num_scrambled_schematic=4&participantId=97C7CEDA6B8043BA9096300DBE1AAB8C&assignmentId=7332957a-f8c8-437e-a4c6-6595ee853edc&projectId=5e631737-0fa4-44a6-b227-7ba1d7345015","97C7CEDA6B8043BA9096300DBE1AAB8C-2025-05-27-18-30-16","","","","","","",""
"","","","","","instructions","1","163331","0.0-1.0","97C7CEDA6B8043BA9096300DBE1AAB8C","97C7CEDA6B8043BA9096300DBE1AAB8C","7332957a-f8c8-437e-a4c6-6595ee853edc","5e631737-0fa4-44a6-b227-7ba1d7345015","{""num_scrambled_semantic"":""8"",""num_scrambled_causal"":""4"",""num_scrambled_schematic"":""4"",""participantId"":""97C7CEDA6B8043BA9096300DBE1AAB8C"",""assignmentId"":""7332957a-f8c8-437e-a4c6-6595ee853edc"",""projectId"":""5e631737-0fa4-44a6-b227-7ba1d7345015""}","https://test12345.live/?num_scrambled_semantic=8&num_scrambled_causal=4&num_scrambled_schematic=4&participantId=97C7CEDA6B8043BA9096300DBE1AAB8C&assignmentId=7332957a-f8c8-437e-a4c6-6595ee853edc&projectId=5e631737-0fa4-44a6-b227-7ba1d7345015","97C7CEDA6B8043BA9096300DBE1AAB8C-2025-05-27-18-30-16","[{""page_index"":0,""viewing_time"":9312}]","9313","","","","",""
"","","","","","instructions","2","169328","0.0-2.0","97C7CEDA6B8043BA9096300DBE1AAB8C","97C7CEDA6B8043BA9096300DBE1AAB8C","7332957a-f8c8-437e-a4c6-6595ee853edc","5e631737-0fa4-44a6-b227-7ba1d7345015","{""num_scrambled_semantic"":""8"",""num_scrambled_causal"":""4"",""num_scrambled_schematic"":""4"",""participantId"":""97C7CEDA6B8043BA9096300DBE1AAB8C"",""assignmentId"":""7332957a-f8c8-437e-a4c6-6595ee853edc"",""projectId"":""5e631737-0fa4-44a6-b227-7ba1d7345015""}","https://test12345.live/?num_scrambled_semantic=8&num_scrambled_causal=4&num_scrambled_schematic=4&participantId=97C7CEDA6B8043BA9096300DBE1AAB8C&assignmentId=7332957a-f8c8-437e-a4c6-6595ee853edc&projectId=5e631737-0fa4-44a6-b227-7ba1d7345015","97C7CEDA6B8043BA9096300DBE1AAB8C-2025-05-27-18-30-16","[{""page_index"":0,""viewing_time"":5997}]","5997","","","","",""
"true","","","","","fullscreen","3","174632","0.0-3.0","97C7CEDA6B8043BA9096300DBE1AAB8C","97C7CEDA6B8043BA9096300DBE1AAB8C","7332957a-f8c8-437e-a4c6-6595ee853edc","5e631737-0fa4-44a6-b227-7ba1d7345015","{""num_scrambled_semantic"":""8"",""num_scrambled_causal"":""4"",""num_scrambled_schematic"":""4"",""participantId"":""97C7CEDA6B8043BA9096300DBE1AAB8C"",""assignmentId"":""7332957a-f8c8-437e-a4c6-6595ee853edc"",""projectId"":""5e631737-0fa4-44a6-b227-7ba1d7345015""}","https://test12345.live/?num_scrambled_semantic=8&num_scrambled_causal=4&num_scrambled_schematic=4&participantId=97C7CEDA6B8043BA9096300DBE1AAB8C&assignmentId=7332957a-f8c8-437e-a4c6-6595ee853edc&projectId=5e631737-0fa4-44a6-b227-7ba1d7345015","97C7CEDA6B8043BA9096300DBE1AAB8C-2025-05-27-18-30-16","","4284","","","","",""
"","","","","","initialize-microphone","4","179045","0.0-4.0-0.0","97C7CEDA6B8043BA9096300DBE1AAB8C","97C7CEDA6B8043BA9096300DBE1AAB8C","7332957a-f8c8-437e-a4c6-6595ee853edc","5e631737-0fa4-44a6-b227-7ba1d7345015","{""num_scrambled_semantic"":""8"",""num_scrambled_causal"":""4"",""num_scrambled_schematic"":""4"",""participantId"":""97C7CEDA6B8043BA9096300DBE1AAB8C"",""assignmentId"":""7332957a-f8c8-437e-a4c6-6595ee853edc"",""projectId"":""5e631737-0fa4-44a6-b227-7ba1d7345015""}","https://test12345.live/?num_scrambled_semantic=8&num_scrambled_causal=4&num_scrambled_schematic=4&participantId=97C7CEDA6B8043BA9096300DBE1AAB8C&assignmentId=7332957a-f8c8-437e-a4c6-6595ee853edc&projectId=5e631737-0fa4-44a6-b227-7ba1d7345015","97C7CEDA6B8043BA9096300DBE1AAB8C-2025-05-27-18-30-16","","","827412427ce328c03ff393318412c6d02eb26b71e26ae1624acc148f2b69431a","","","",""
"","","","","","html-audio-response","5","186739","0.0-4.0-1.0","97C7CEDA6B8043BA9096300DBE1AAB8C","97C7CEDA6B8043BA9096300DBE1AAB8C","7332957a-f8c8-437e-a4c6-6595ee853edc","5e631737-0fa4-44a6-b227-7ba1d7345015","{""num_scrambled_semantic"":""8"",""num_scrambled_causal"":""4"",""num_scrambled_schematic"":""4"",""participantId"":""97C7CEDA6B8043BA9096300DBE1AAB8C"",""assignmentId"":""7332957a-f8c8-437e-a4c6-6595ee853edc"",""projectId"":""5e631737-0fa4-44a6-b227-7ba1d7345015""}","https://test12345.live/?num_scrambled_semantic=8&num_scrambled_causal=4&num_scrambled_schematic=4&participantId=97C7CEDA6B8043BA9096300DBE1AAB8C&assignmentId=7332957a-f8c8-437e-a4c6-6595ee853edc&projectId=5e631737-0fa4-44a6-b227-7ba1d7345015","97C7CEDA6B8043BA9096300DBE1AAB8C-2025-05-27-18-30-16","","3335","","<span style=""color: red; font-size: 24px""> NOW RECORDING</span>
        <p>Please test Microphone</p>","","43",""
"","","","","","html-button-response","6","187880","0.0-4.0-2.0","97C7CEDA6B8043BA9096300DBE1AAB8C","97C7CEDA6B8043BA9096300DBE1AAB8C","7332957a-f8c8-437e-a4c6-6595ee853edc","5e631737-0fa4-44a6-b227-7ba1d7345015","{""num_scrambled_semantic"":""8"",""num_scrambled_causal"":""4"",""num_scrambled_schematic"":""4"",""participantId"":""97C7CEDA6B8043BA9096300DBE1AAB8C"",""assignmentId"":""7332957a-f8c8-437e-a4c6-6595ee853edc"",""projectId"":""5e631737-0fa4-44a6-b227-7ba1d7345015""}","https://test12345.live/?num_scrambled_semantic=8&num_scrambled_causal=4&num_scrambled_schematic=4&participantId=97C7CEDA6B8043BA9096300DBE1AAB8C&assignmentId=7332957a-f8c8-437e-a4c6-6595ee853edc&projectId=5e631737-0fa4-44a6-b227-7ba1d7345015","97C7CEDA6B8043BA9096300DBE1AAB8C-2025-05-27-18-30-16","","1137","","<p style=""font-size:48px; color:red;"">Is Microphone OK?</p>","1","",""
"","","","","","instructions","7","195046","0.0-5.0","97C7CEDA6B8043BA9096300DBE1AAB8C","97C7CEDA6B8043BA9096300DBE1AAB8C","7332957a-f8c8-437e-a4c6-6595ee853edc","5e631737-0fa4-44a6-b227-7ba1d7345015","{""num_scrambled_semantic"":""8"",""num_scrambled_causal"":""4"",""num_scrambled_schematic"":""4"",""participantId"":""97C7CEDA6B8043BA9096300DBE1AAB8C"",""assignmentId"":""7332957a-f8c8-437e-a4c6-6595ee853edc"",""projectId"":""5e631737-0fa4-44a6-b227-7ba1d7345015""}","https://test12345.live/?num_scrambled_semantic=8&num_scrambled_causal=4&num_scrambled_schematic=4&participantId=97C7CEDA6B8043BA9096300DBE1AAB8C&assignmentId=7332957a-f8c8-437e-a4c6-6595ee853edc&projectId=5e631737-0fa4-44a6-b227-7ba1d7345015","97C7CEDA6B8043BA9096300DBE1AAB8C-2025-05-27-18-30-16","[{""page_index"":0,""viewing_time"":3418},{""page_index"":1,""viewing_time"":3738}]","7155","","","","",""
"","","","","","image-button-response","8","201051","0.0-6.0-0.0","97C7CEDA6B8043BA9096300DBE1AAB8C","97C7CEDA6B8043BA9096300DBE1AAB8C","7332957a-f8c8-437e-a4c6-6595ee853edc","5e631737-0fa4-44a6-b227-7ba1d7345015","{""num_scrambled_semantic"":""8"",""num_scrambled_causal"":""4"",""num_scrambled_schematic"":""4"",""participantId"":""97C7CEDA6B8043BA9096300DBE1AAB8C"",""assignmentId"":""7332957a-f8c8-437e-a4c6-6595ee853edc"",""projectId"":""5e631737-0fa4-44a6-b227-7ba1d7345015""}","https://test12345.live/?num_scrambled_semantic=8&num_scrambled_causal=4&num_scrambled_schematic=4&participantId=97C7CEDA6B8043BA9096300DBE1AAB8C&assignmentId=7332957a-f8c8-437e-a4c6-6595ee853edc&projectId=5e631737-0fa4-44a6-b227-7ba1d7345015","97C7CEDA6B8043BA9096300DBE1AAB8C-2025-05-27-18-30-16","","null","","images/instructions/movie_0.png","null","",""
"","","","","","image-button-response","9","205556","0.0-6.0-1.0-0.0","97C7CEDA6B8043BA9096300DBE1AAB8C","97C7CEDA6B8043BA9096300DBE1AAB8C","7332957a-f8c8-437e-a4c6-6595ee853edc","5e631737-0fa4-44a6-b227-7ba1d7345015","{""num_scrambled_semantic"":""8"",""num_scrambled_causal"":""4"",""num_scrambled_schematic"":""4"",""participantId"":""97C7CEDA6B8043BA9096300DBE1AAB8C"",""assignmentId"":""7332957a-f8c8-437e-a4c6-6595ee853edc"",""projectId"":""5e631737-0fa4-44a6-b227-7ba1d7345015""}","https://test12345.live/?num_scrambled_semantic=8&num_scrambled_causal=4&num_scrambled_schematic=4&participantId=97C7CEDA6B8043BA9096300DBE1AAB8C&assignmentId=7332957a-f8c8-437e-a4c6-6595ee853edc&projectId=5e631737-0fa4-44a6-b227-7ba1d7345015","97C7CEDA6B8043BA9096300DBE1AAB8C-2025-05-27-18-30-16","","null","","images/instructions/movie_1.png","null","",""
"","","","","","image-button-response","10","207101","0.0-6.0-1.0-1.0","97C7CEDA6B8043BA9096300DBE1AAB8C","97C7CEDA6B8043BA9096300DBE1AAB8C","7332957a-f8c8-437e-a4c6-6595ee853edc","5e631737-0fa4-44a6-b227-7ba1d7345015","{""num_scrambled_semantic"":""8"",""num_scrambled_causal"":""4"",""num_scrambled_schematic"":""4"",""participantId"":""97C7CEDA6B8043BA9096300DBE1AAB8C"",""assignmentId"":""7332957a-f8c8-437e-a4c6-6595ee853edc"",""projectId"":""5e631737-0fa4-44a6-b227-7ba1d7345015""}","https://test12345.live/?num_scrambled_semantic=8&num_scrambled_causal=4&num_scrambled_schematic=4&participantId=97C7CEDA6B8043BA9096300DBE1AAB8C&assignmentId=7332957a-f8c8-437e-a4c6-6595ee853edc&projectId=5e631737-0fa4-44a6-b227-7ba1d7345015","97C7CEDA6B8043BA9096300DBE1AAB8C-2025-05-27-18-30-16","","1542","","images/instructions/movie_1.png","0","",""
"","","","","","image-button-response","11","208904","0.0-6.0-1.0-2.0","97C7CEDA6B8043BA9096300DBE1AAB8C","97C7CEDA6B8043BA9096300DBE1AAB8C","7332957a-f8c8-437e-a4c6-6595ee853edc","5e631737-0fa4-44a6-b227-7ba1d7345015","{""num_scrambled_semantic"":""8"",""num_scrambled_causal"":""4"",""num_scrambled_schematic"":""4"",""participantId"":""97C7CEDA6B8043BA9096300DBE1AAB8C"",""assignmentId"":""7332957a-f8c8-437e-a4c6-6595ee853edc"",""projectId"":""5e631737-0fa4-44a6-b227-7ba1d7345015""}","https://test12345.live/?num_scrambled_semantic=8&num_scrambled_causal=4&num_scrambled_schematic=4&participantId=97C7CEDA6B8043BA9096300DBE1AAB8C&assignmentId=7332957a-f8c8-437e-a4c6-6595ee853edc&projectId=5e631737-0fa4-44a6-b227-7ba1d7345015","97C7CEDA6B8043BA9096300DBE1AAB8C-2025-05-27-18-30-16","","null","","[]","null","",""
"","","","","","image-button-response","12","213410","0.0-6.0-1.0-0.1","97C7CEDA6B8043BA9096300DBE1AAB8C","97C7CEDA6B8043BA9096300DBE1AAB8C","7332957a-f8c8-437e-a4c6-6595ee853edc","5e631737-0fa4-44a6-b227-7ba1d7345015","{""num_scrambled_semantic"":""8"",""num_scrambled_causal"":""4"",""num_scrambled_schematic"":""4"",""participantId"":""97C7CEDA6B8043BA9096300DBE1AAB8C"",""assignmentId"":""7332957a-f8c8-437e-a4c6-6595ee853edc"",""projectId"":""5e631737-0fa4-44a6-b227-7ba1d7345015""}","https://test12345.live/?num_scrambled_semantic=8&num_scrambled_causal=4&num_scrambled_schematic=4&participantId=97C7CEDA6B8043BA9096300DBE1AAB8C&assignmentId=7332957a-f8c8-437e-a4c6-6595ee853edc&projectId=5e631737-0fa4-44a6-b227-7ba1d7345015","97C7CEDA6B8043BA9096300DBE1AAB8C-2025-05-27-18-30-16","","null","","images/instructions/movie_2.png","null","",""
"","","","","","image-button-response","13","214092","0.0-6.0-1.0-1.1","97C7CEDA6B8043BA9096300DBE1AAB8C","97C7CEDA6B8043BA9096300DBE1AAB8C","7332957a-f8c8-437e-a4c6-6595ee853edc","5e631737-0fa4-44a6-b227-7ba1d7345015","{""num_scrambled_semantic"":""8"",""num_scrambled_causal"":""4"",""num_scrambled_schematic"":""4"",""participantId"":""97C7CEDA6B8043BA9096300DBE1AAB8C"",""assignmentId"":""7332957a-f8c8-437e-a4c6-6595ee853edc"",""projectId"":""5e631737-0fa4-44a6-b227-7ba1d7345015""}","https://test12345.live/?num_scrambled_semantic=8&num_scrambled_causal=4&num_scrambled_schematic=4&participantId=97C7CEDA6B8043BA9096300DBE1AAB8C&assignmentId=7332957a-f8c8-437e-a4c6-6595ee853edc&projectId=5e631737-0fa4-44a6-b227-7ba1d7345015","97C7CEDA6B8043BA9096300DBE1AAB8C-2025-05-27-18-30-16","","680","","images/instructions/movie_2.png","0","",""
"","","","","","image-button-response","14","215895","0.0-6.0-1.0-2.1","97C7CEDA6B8043BA9096300DBE1AAB8C","97C7CEDA6B8043BA9096300DBE1AAB8C","7332957a-f8c8-437e-a4c6-6595ee853edc","5e631737-0fa4-44a6-b227-7ba1d7345015","{""num_scrambled_semantic"":""8"",""num_scrambled_causal"":""4"",""num_scrambled_schematic"":""4"",""participantId"":""97C7CEDA6B8043BA9096300DBE1AAB8C"",""assignmentId"":""7332957a-f8c8-437e-a4c6-6595ee853edc"",""projectId"":""5e631737-0fa4-44a6-b227-7ba1d7345015""}","https://test12345.live/?num_scrambled_semantic=8&num_scrambled_causal=4&num_scrambled_schematic=4&participantId=97C7CEDA6B8043BA9096300DBE1AAB8C&assignmentId=7332957a-f8c8-437e-a4c6-6595ee853edc&projectId=5e631737-0fa4-44a6-b227-7ba1d7345015","97C7CEDA6B8043BA9096300DBE1AAB8C-2025-05-27-18-30-16","","null","","[]","null","",""
"","","","","","image-button-response","15","220397","0.0-6.0-1.0-0.2","97C7CEDA6B8043BA9096300DBE1AAB8C","97C7CEDA6B8043BA9096300DBE1AAB8C","7332957a-f8c8-437e-a4c6-6595ee853edc","5e631737-0fa4-44a6-b227-7ba1d7345015","{""num_scrambled_semantic"":""8"",""num_scrambled_causal"":""4"",""num_scrambled_schematic"":""4"",""participantId"":""97C7CEDA6B8043BA9096300DBE1AAB8C"",""assignmentId"":""7332957a-f8c8-437e-a4c6-6595ee853edc"",""projectId"":""5e631737-0fa4-44a6-b227-7ba1d7345015""}","https://test12345.live/?num_scrambled_semantic=8&num_scrambled_causal=4&num_scrambled_schematic=4&participantId=97C7CEDA6B8043BA9096300DBE1AAB8C&assignmentId=7332957a-f8c8-437e-a4c6-6595ee853edc&projectId=5e631737-0fa4-44a6-b227-7ba1d7345015","97C7CEDA6B8043BA9096300DBE1AAB8C-2025-05-27-18-30-16","","null","","images/instructions/movie_3.png","null","",""
"","","","","","image-button-response","16","221067","0.0-6.0-1.0-1.2","97C7CEDA6B8043BA9096300DBE1AAB8C","97C7CEDA6B8043BA9096300DBE1AAB8C","7332957a-f8c8-437e-a4c6-6595ee853edc","5e631737-0fa4-44a6-b227-7ba1d7345015","{""num_scrambled_semantic"":""8"",""num_scrambled_causal"":""4"",""num_scrambled_schematic"":""4"",""participantId"":""97C7CEDA6B8043BA9096300DBE1AAB8C"",""assignmentId"":""7332957a-f8c8-437e-a4c6-6595ee853edc"",""projectId"":""5e631737-0fa4-44a6-b227-7ba1d7345015""}","https://test12345.live/?num_scrambled_semantic=8&num_scrambled_causal=4&num_scrambled_schematic=4&participantId=97C7CEDA6B8043BA9096300DBE1AAB8C&assignmentId=7332957a-f8c8-437e-a4c6-6595ee853edc&projectId=5e631737-0fa4-44a6-b227-7ba1d7345015","97C7CEDA6B8043BA9096300DBE1AAB8C-2025-05-27-18-30-16","","668","","images/instructions/movie_3.png","0","",""
"","","","","","image-button-response","17","222869","0.0-6.0-1.0-2.2","97C7CEDA6B8043BA9096300DBE1AAB8C","97C7CEDA6B8043BA9096300DBE1AAB8C","7332957a-f8c8-437e-a4c6-6595ee853edc","5e631737-0fa4-44a6-b227-7ba1d7345015","{""num_scrambled_semantic"":""8"",""num_scrambled_causal"":""4"",""num_scrambled_schematic"":""4"",""participantId"":""97C7CEDA6B8043BA9096300DBE1AAB8C"",""assignmentId"":""7332957a-f8c8-437e-a4c6-6595ee853edc"",""projectId"":""5e631737-0fa4-44a6-b227-7ba1d7345015""}","https://test12345.live/?num_scrambled_semantic=8&num_scrambled_causal=4&num_scrambled_schematic=4&participantId=97C7CEDA6B8043BA9096300DBE1AAB8C&assignmentId=7332957a-f8c8-437e-a4c6-6595ee853edc&projectId=5e631737-0fa4-44a6-b227-7ba1d7345015","97C7CEDA6B8043BA9096300DBE1AAB8C-2025-05-27-18-30-16","","null","","[]","null","",""
"","","","","","image-button-response","18","227372","0.0-6.0-1.0-0.3","97C7CEDA6B8043BA9096300DBE1AAB8C","97C7CEDA6B8043BA9096300DBE1AAB8C","7332957a-f8c8-437e-a4c6-6595ee853edc","5e631737-0fa4-44a6-b227-7ba1d7345015","{""num_scrambled_semantic"":""8"",""num_scrambled_causal"":""4"",""num_scrambled_schematic"":""4"",""participantId"":""97C7CEDA6B8043BA9096300DBE1AAB8C"",""assignmentId"":""7332957a-f8c8-437e-a4c6-6595ee853edc"",""projectId"":""5e631737-0fa4-44a6-b227-7ba1d7345015""}","https://test12345.live/?num_scrambled_semantic=8&num_scrambled_causal=4&num_scrambled_schematic=4&participantId=97C7CEDA6B8043BA9096300DBE1AAB8C&assignmentId=7332957a-f8c8-437e-a4c6-6595ee853edc&projectId=5e631737-0fa4-44a6-b227-7ba1d7345015","97C7CEDA6B8043BA9096300DBE1AAB8C-2025-05-27-18-30-16","","null","","images/instructions/movie_4.png","null","",""
"","","","","","image-button-response","19","228466","0.0-6.0-1.0-1.3","97C7CEDA6B8043BA9096300DBE1AAB8C","97C7CEDA6B8043BA9096300DBE1AAB8C","7332957a-f8c8-437e-a4c6-6595ee853edc","5e631737-0fa4-44a6-b227-7ba1d7345015","{""num_scrambled_semantic"":""8"",""num_scrambled_causal"":""4"",""num_scrambled_schematic"":""4"",""participantId"":""97C7CEDA6B8043BA9096300DBE1AAB8C"",""assignmentId"":""7332957a-f8c8-437e-a4c6-6595ee853edc"",""projectId"":""5e631737-0fa4-44a6-b227-7ba1d7345015""}","https://test12345.live/?num_scrambled_semantic=8&num_scrambled_causal=4&num_scrambled_schematic=4&participantId=97C7CEDA6B8043BA9096300DBE1AAB8C&assignmentId=7332957a-f8c8-437e-a4c6-6595ee853edc&projectId=5e631737-0fa4-44a6-b227-7ba1d7345015","97C7CEDA6B8043BA9096300DBE1AAB8C-2025-05-27-18-30-16","","1092","","images/instructions/movie_4.png","0","",""
"","","","","","image-button-response","20","230269","0.0-6.0-1.0-2.3","97C7CEDA6B8043BA9096300DBE1AAB8C","97C7CEDA6B8043BA9096300DBE1AAB8C","7332957a-f8c8-437e-a4c6-6595ee853edc","5e631737-0fa4-44a6-b227-7ba1d7345015","{""num_scrambled_semantic"":""8"",""num_scrambled_causal"":""4"",""num_scrambled_schematic"":""4"",""participantId"":""97C7CEDA6B8043BA9096300DBE1AAB8C"",""assignmentId"":""7332957a-f8c8-437e-a4c6-6595ee853edc"",""projectId"":""5e631737-0fa4-44a6-b227-7ba1d7345015""}","https://test12345.live/?num_scrambled_semantic=8&num_scrambled_causal=4&num_scrambled_schematic=4&participantId=97C7CEDA6B8043BA9096300DBE1AAB8C&assignmentId=7332957a-f8c8-437e-a4c6-6595ee853edc&projectId=5e631737-0fa4-44a6-b227-7ba1d7345015","97C7CEDA6B8043BA9096300DBE1AAB8C-2025-05-27-18-30-16","","null","","[]","null","",""
"","","","","","instructions","21","237812","0.0-7.0","97C7CEDA6B8043BA9096300DBE1AAB8C","97C7CEDA6B8043BA9096300DBE1AAB8C","7332957a-f8c8-437e-a4c6-6595ee853edc","5e631737-0fa4-44a6-b227-7ba1d7345015","{""num_scrambled_semantic"":""8"",""num_scrambled_causal"":""4"",""num_scrambled_schematic"":""4"",""participantId"":""97C7CEDA6B8043BA9096300DBE1AAB8C"",""assignmentId"":""7332957a-f8c8-437e-a4c6-6595ee853edc"",""projectId"":""5e631737-0fa4-44a6-b227-7ba1d7345015""}","https://test12345.live/?num_scrambled_semantic=8&num_scrambled_causal=4&num_scrambled_schematic=4&participantId=97C7CEDA6B8043BA9096300DBE1AAB8C&assignmentId=7332957a-f8c8-437e-a4c6-6595ee853edc&projectId=5e631737-0fa4-44a6-b227-7ba1d7345015","97C7CEDA6B8043BA9096300DBE1AAB8C-2025-05-27-18-30-16","[{""page_index"":0,""viewing_time"":6429},{""page_index"":1,""viewing_time"":1113}]","7543","","","","",""
"","","","","","html-audio-response","22","263333","0.0-8.0","97C7CEDA6B8043BA9096300DBE1AAB8C","97C7CEDA6B8043BA9096300DBE1AAB8C","7332957a-f8c8-437e-a4c6-6595ee853edc","5e631737-0fa4-44a6-b227-7ba1d7345015","{""num_scrambled_semantic"":""8"",""num_scrambled_causal"":""4"",""num_scrambled_schematic"":""4"",""participantId"":""97C7CEDA6B8043BA9096300DBE1AAB8C"",""assignmentId"":""7332957a-f8c8-437e-a4c6-6595ee853edc"",""projectId"":""5e631737-0fa4-44a6-b227-7ba1d7345015""}","https://test12345.live/?num_scrambled_semantic=8&num_scrambled_causal=4&num_scrambled_schematic=4&participantId=97C7CEDA6B8043BA9096300DBE1AAB8C&assignmentId=7332957a-f8c8-437e-a4c6-6595ee853edc&projectId=5e631737-0fa4-44a6-b227-7ba1d7345015","97C7CEDA6B8043BA9096300DBE1AAB8C-2025-05-27-18-30-16","","9686","","[""<span style=\""color: red; font-size: 24px\""> NOW RECORDING</span><p>Please say out loud all the images you saw in the exact order you saw them. Try to recall as many images as you can, but remember: getting the order right is more important than the number of images you recall.</p>""]","","2",""
"","","","","","instructions","23","264278","0.0-9.0","97C7CEDA6B8043BA9096300DBE1AAB8C","97C7CEDA6B8043BA9096300DBE1AAB8C","7332957a-f8c8-437e-a4c6-6595ee853edc","5e631737-0fa4-44a6-b227-7ba1d7345015","{""num_scrambled_semantic"":""8"",""num_scrambled_causal"":""4"",""num_scrambled_schematic"":""4"",""participantId"":""97C7CEDA6B8043BA9096300DBE1AAB8C"",""assignmentId"":""7332957a-f8c8-437e-a4c6-6595ee853edc"",""projectId"":""5e631737-0fa4-44a6-b227-7ba1d7345015""}","https://test12345.live/?num_scrambled_semantic=8&num_scrambled_causal=4&num_scrambled_schematic=4&participantId=97C7CEDA6B8043BA9096300DBE1AAB8C&assignmentId=7332957a-f8c8-437e-a4c6-6595ee853edc&projectId=5e631737-0fa4-44a6-b227-7ba1d7345015","97C7CEDA6B8043BA9096300DBE1AAB8C-2025-05-27-18-30-16","[{""page_index"":0,""viewing_time"":939}]","940","","","","",""
"","","","","","image-button-response","24","270281","0.0-10.0-0.0","97C7CEDA6B8043BA9096300DBE1AAB8C","97C7CEDA6B8043BA9096300DBE1AAB8C","7332957a-f8c8-437e-a4c6-6595ee853edc","5e631737-0fa4-44a6-b227-7ba1d7345015","{""num_scrambled_semantic"":""8"",""num_scrambled_causal"":""4"",""num_scrambled_schematic"":""4"",""participantId"":""97C7CEDA6B8043BA9096300DBE1AAB8C"",""assignmentId"":""7332957a-f8c8-437e-a4c6-6595ee853edc"",""projectId"":""5e631737-0fa4-44a6-b227-7ba1d7345015""}","https://test12345.live/?num_scrambled_semantic=8&num_scrambled_causal=4&num_scrambled_schematic=4&participantId=97C7CEDA6B8043BA9096300DBE1AAB8C&assignmentId=7332957a-f8c8-437e-a4c6-6595ee853edc&projectId=5e631737-0fa4-44a6-b227-7ba1d7345015","97C7CEDA6B8043BA9096300DBE1AAB8C-2025-05-27-18-30-16","","null","","images/schematic_sequence/dinner_party_scheme/dinner_party_scheme_0.png","null","",""
"","","","","","image-button-response","25","274783","0.0-10.0-1.0-0.0","97C7CEDA6B8043BA9096300DBE1AAB8C","97C7CEDA6B8043BA9096300DBE1AAB8C","7332957a-f8c8-437e-a4c6-6595ee853edc","5e631737-0fa4-44a6-b227-7ba1d7345015","{""num_scrambled_semantic"":""8"",""num_scrambled_causal"":""4"",""num_scrambled_schematic"":""4"",""participantId"":""97C7CEDA6B8043BA9096300DBE1AAB8C"",""assignmentId"":""7332957a-f8c8-437e-a4c6-6595ee853edc"",""projectId"":""5e631737-0fa4-44a6-b227-7ba1d7345015""}","https://test12345.live/?num_scrambled_semantic=8&num_scrambled_causal=4&num_scrambled_schematic=4&participantId=97C7CEDA6B8043BA9096300DBE1AAB8C&assignmentId=7332957a-f8c8-437e-a4c6-6595ee853edc&projectId=5e631737-0fa4-44a6-b227-7ba1d7345015","97C7CEDA6B8043BA9096300DBE1AAB8C-2025-05-27-18-30-16","","null","","images/schematic_sequence/dinner_party_scheme/dinner_party_scheme_9.png","null","",""
"","","","","","image-button-response","26","276291","0.0-10.0-1.0-1.0","97C7CEDA6B8043BA9096300DBE1AAB8C","97C7CEDA6B8043BA9096300DBE1AAB8C","7332957a-f8c8-437e-a4c6-6595ee853edc","5e631737-0fa4-44a6-b227-7ba1d7345015","{""num_scrambled_semantic"":""8"",""num_scrambled_causal"":""4"",""num_scrambled_schematic"":""4"",""participantId"":""97C7CEDA6B8043BA9096300DBE1AAB8C"",""assignmentId"":""7332957a-f8c8-437e-a4c6-6595ee853edc"",""projectId"":""5e631737-0fa4-44a6-b227-7ba1d7345015""}","https://test12345.live/?num_scrambled_semantic=8&num_scrambled_causal=4&num_scrambled_schematic=4&participantId=97C7CEDA6B8043BA9096300DBE1AAB8C&assignmentId=7332957a-f8c8-437e-a4c6-6595ee853edc&projectId=5e631737-0fa4-44a6-b227-7ba1d7345015","97C7CEDA6B8043BA9096300DBE1AAB8C-2025-05-27-18-30-16","","1506","","images/schematic_sequence/dinner_party_scheme/dinner_party_scheme_9.png","0","",""
"","","","","","image-button-response","27","278094","0.0-10.0-1.0-2.0","97C7CEDA6B8043BA9096300DBE1AAB8C","97C7CEDA6B8043BA9096300DBE1AAB8C","7332957a-f8c8-437e-a4c6-6595ee853edc","5e631737-0fa4-44a6-b227-7ba1d7345015","{""num_scrambled_semantic"":""8"",""num_scrambled_causal"":""4"",""num_scrambled_schematic"":""4"",""participantId"":""97C7CEDA6B8043BA9096300DBE1AAB8C"",""assignmentId"":""7332957a-f8c8-437e-a4c6-6595ee853edc"",""projectId"":""5e631737-0fa4-44a6-b227-7ba1d7345015""}","https://test12345.live/?num_scrambled_semantic=8&num_scrambled_causal=4&num_scrambled_schematic=4&participantId=97C7CEDA6B8043BA9096300DBE1AAB8C&assignmentId=7332957a-f8c8-437e-a4c6-6595ee853edc&projectId=5e631737-0fa4-44a6-b227-7ba1d7345015","97C7CEDA6B8043BA9096300DBE1AAB8C-2025-05-27-18-30-16","","null","","[]","null","",""
"","","","","","image-button-response","28","282595","0.0-10.0-1.0-0.1","97C7CEDA6B8043BA9096300DBE1AAB8C","97C7CEDA6B8043BA9096300DBE1AAB8C","7332957a-f8c8-437e-a4c6-6595ee853edc","5e631737-0fa4-44a6-b227-7ba1d7345015","{""num_scrambled_semantic"":""8"",""num_scrambled_causal"":""4"",""num_scrambled_schematic"":""4"",""participantId"":""97C7CEDA6B8043BA9096300DBE1AAB8C"",""assignmentId"":""7332957a-f8c8-437e-a4c6-6595ee853edc"",""projectId"":""5e631737-0fa4-44a6-b227-7ba1d7345015""}","https://test12345.live/?num_scrambled_semantic=8&num_scrambled_causal=4&num_scrambled_schematic=4&participantId=97C7CEDA6B8043BA9096300DBE1AAB8C&assignmentId=7332957a-f8c8-437e-a4c6-6595ee853edc&projectId=5e631737-0fa4-44a6-b227-7ba1d7345015","97C7CEDA6B8043BA9096300DBE1AAB8C-2025-05-27-18-30-16","","null","","images/schematic_sequence/dinner_party_scheme/dinner_party_scheme_7.png","null","",""
"","","","","","image-button-response","29","283382","0.0-10.0-1.0-1.1","97C7CEDA6B8043BA9096300DBE1AAB8C","97C7CEDA6B8043BA9096300DBE1AAB8C","7332957a-f8c8-437e-a4c6-6595ee853edc","5e631737-0fa4-44a6-b227-7ba1d7345015","{""num_scrambled_semantic"":""8"",""num_scrambled_causal"":""4"",""num_scrambled_schematic"":""4"",""participantId"":""97C7CEDA6B8043BA9096300DBE1AAB8C"",""assignmentId"":""7332957a-f8c8-437e-a4c6-6595ee853edc"",""projectId"":""5e631737-0fa4-44a6-b227-7ba1d7345015""}","https://test12345.live/?num_scrambled_semantic=8&num_scrambled_causal=4&num_scrambled_schematic=4&participantId=97C7CEDA6B8043BA9096300DBE1AAB8C&assignmentId=7332957a-f8c8-437e-a4c6-6595ee853edc&projectId=5e631737-0fa4-44a6-b227-7ba1d7345015","97C7CEDA6B8043BA9096300DBE1AAB8C-2025-05-27-18-30-16","","785","","images/schematic_sequence/dinner_party_scheme/dinner_party_scheme_7.png","0","",""
"","","","","","image-button-response","30","285185","0.0-10.0-1.0-2.1","97C7CEDA6B8043BA9096300DBE1AAB8C","97C7CEDA6B8043BA9096300DBE1AAB8C","7332957a-f8c8-437e-a4c6-6595ee853edc","5e631737-0fa4-44a6-b227-7ba1d7345015","{""num_scrambled_semantic"":""8"",""num_scrambled_causal"":""4"",""num_scrambled_schematic"":""4"",""participantId"":""97C7CEDA6B8043BA9096300DBE1AAB8C"",""assignmentId"":""7332957a-f8c8-437e-a4c6-6595ee853edc"",""projectId"":""5e631737-0fa4-44a6-b227-7ba1d7345015""}","https://test12345.live/?num_scrambled_semantic=8&num_scrambled_causal=4&num_scrambled_schematic=4&participantId=97C7CEDA6B8043BA9096300DBE1AAB8C&assignmentId=7332957a-f8c8-437e-a4c6-6595ee853edc&projectId=5e631737-0fa4-44a6-b227-7ba1d7345015","97C7CEDA6B8043BA9096300DBE1AAB8C-2025-05-27-18-30-16","","null","","[]","null","",""
"","","","","","image-button-response","31","289688","0.0-10.0-1.0-0.2","97C7CEDA6B8043BA9096300DBE1AAB8C","97C7CEDA6B8043BA9096300DBE1AAB8C","7332957a-f8c8-437e-a4c6-6595ee853edc","5e631737-0fa4-44a6-b227-7ba1d7345015","{""num_scrambled_semantic"":""8"",""num_scrambled_causal"":""4"",""num_scrambled_schematic"":""4"",""participantId"":""97C7CEDA6B8043BA9096300DBE1AAB8C"",""assignmentId"":""7332957a-f8c8-437e-a4c6-6595ee853edc"",""projectId"":""5e631737-0fa4-44a6-b227-7ba1d7345015""}","https://test12345.live/?num_scrambled_semantic=8&num_scrambled_causal=4&num_scrambled_schematic=4&participantId=97C7CEDA6B8043BA9096300DBE1AAB8C&assignmentId=7332957a-f8c8-437e-a4c6-6595ee853edc&projectId=5e631737-0fa4-44a6-b227-7ba1d7345015","97C7CEDA6B8043BA9096300DBE1AAB8C-2025-05-27-18-30-16","","null","","images/schematic_sequence/dinner_party_scheme/dinner_party_scheme_5.png","null","",""
"","","","","","image-button-response","32","290798","0.0-10.0-1.0-1.2","97C7CEDA6B8043BA9096300DBE1AAB8C","97C7CEDA6B8043BA9096300DBE1AAB8C","7332957a-f8c8-437e-a4c6-6595ee853edc","5e631737-0fa4-44a6-b227-7ba1d7345015","{""num_scrambled_semantic"":""8"",""num_scrambled_causal"":""4"",""num_scrambled_schematic"":""4"",""participantId"":""97C7CEDA6B8043BA9096300DBE1AAB8C"",""assignmentId"":""7332957a-f8c8-437e-a4c6-6595ee853edc"",""projectId"":""5e631737-0fa4-44a6-b227-7ba1d7345015""}","https://test12345.live/?num_scrambled_semantic=8&num_scrambled_causal=4&num_scrambled_schematic=4&participantId=97C7CEDA6B8043BA9096300DBE1AAB8C&assignmentId=7332957a-f8c8-437e-a4c6-6595ee853edc&projectId=5e631737-0fa4-44a6-b227-7ba1d7345015","97C7CEDA6B8043BA9096300DBE1AAB8C-2025-05-27-18-30-16","","1108","","images/schematic_sequence/dinner_party_scheme/dinner_party_scheme_5.png","0","",""
"","","","","","image-button-response","33","292600","0.0-10.0-1.0-2.2","97C7CEDA6B8043BA9096300DBE1AAB8C","97C7CEDA6B8043BA9096300DBE1AAB8C","7332957a-f8c8-437e-a4c6-6595ee853edc","5e631737-0fa4-44a6-b227-7ba1d7345015","{""num_scrambled_semantic"":""8"",""num_scrambled_causal"":""4"",""num_scrambled_schematic"":""4"",""participantId"":""97C7CEDA6B8043BA9096300DBE1AAB8C"",""assignmentId"":""7332957a-f8c8-437e-a4c6-6595ee853edc"",""projectId"":""5e631737-0fa4-44a6-b227-7ba1d7345015""}","https://test12345.live/?num_scrambled_semantic=8&num_scrambled_causal=4&num_scrambled_schematic=4&participantId=97C7CEDA6B8043BA9096300DBE1AAB8C&assignmentId=7332957a-f8c8-437e-a4c6-6595ee853edc&projectId=5e631737-0fa4-44a6-b227-7ba1d7345015","97C7CEDA6B8043BA9096300DBE1AAB8C-2025-05-27-18-30-16","","null","","[]","null","",""
"","","","","","image-button-response","34","297102","0.0-10.0-1.0-0.3","97C7CEDA6B8043BA9096300DBE1AAB8C","97C7CEDA6B8043BA9096300DBE1AAB8C","7332957a-f8c8-437e-a4c6-6595ee853edc","5e631737-0fa4-44a6-b227-7ba1d7345015","{""num_scrambled_semantic"":""8"",""num_scrambled_causal"":""4"",""num_scrambled_schematic"":""4"",""participantId"":""97C7CEDA6B8043BA9096300DBE1AAB8C"",""assignmentId"":""7332957a-f8c8-437e-a4c6-6595ee853edc"",""projectId"":""5e631737-0fa4-44a6-b227-7ba1d7345015""}","https://test12345.live/?num_scrambled_semantic=8&num_scrambled_causal=4&num_scrambled_schematic=4&participantId=97C7CEDA6B8043BA9096300DBE1AAB8C&assignmentId=7332957a-f8c8-437e-a4c6-6595ee853edc&projectId=5e631737-0fa4-44a6-b227-7ba1d7345015","97C7CEDA6B8043BA9096300DBE1AAB8C-2025-05-27-18-30-16","","null","","images/schematic_sequence/dinner_party_scheme/dinner_party_scheme_8.png","null","",""
"","","","","","image-button-response","35","298032","0.0-10.0-1.0-1.3","97C7CEDA6B8043BA9096300DBE1AAB8C","97C7CEDA6B8043BA9096300DBE1AAB8C","7332957a-f8c8-437e-a4c6-6595ee853edc","5e631737-0fa4-44a6-b227-7ba1d7345015","{""num_scrambled_semantic"":""8"",""num_scrambled_causal"":""4"",""num_scrambled_schematic"":""4"",""participantId"":""97C7CEDA6B8043BA9096300DBE1AAB8C"",""assignmentId"":""7332957a-f8c8-437e-a4c6-6595ee853edc"",""projectId"":""5e631737-0fa4-44a6-b227-7ba1d7345015""}","https://test12345.live/?num_scrambled_semantic=8&num_scrambled_causal=4&num_scrambled_schematic=4&participantId=97C7CEDA6B8043BA9096300DBE1AAB8C&assignmentId=7332957a-f8c8-437e-a4c6-6595ee853edc&projectId=5e631737-0fa4-44a6-b227-7ba1d7345015","97C7CEDA6B8043BA9096300DBE1AAB8C-2025-05-27-18-30-16","","928","","images/schematic_sequence/dinner_party_scheme/dinner_party_scheme_8.png","0","",""
"","","","","","image-button-response","36","299835","0.0-10.0-1.0-2.3","97C7CEDA6B8043BA9096300DBE1AAB8C","97C7CEDA6B8043BA9096300DBE1AAB8C","7332957a-f8c8-437e-a4c6-6595ee853edc","5e631737-0fa4-44a6-b227-7ba1d7345015","{""num_scrambled_semantic"":""8"",""num_scrambled_causal"":""4"",""num_scrambled_schematic"":""4"",""participantId"":""97C7CEDA6B8043BA9096300DBE1AAB8C"",""assignmentId"":""7332957a-f8c8-437e-a4c6-6595ee853edc"",""projectId"":""5e631737-0fa4-44a6-b227-7ba1d7345015""}","https://test12345.live/?num_scrambled_semantic=8&num_scrambled_causal=4&num_scrambled_schematic=4&participantId=97C7CEDA6B8043BA9096300DBE1AAB8C&assignmentId=7332957a-f8c8-437e-a4c6-6595ee853edc&projectId=5e631737-0fa4-44a6-b227-7ba1d7345015","97C7CEDA6B8043BA9096300DBE1AAB8C-2025-05-27-18-30-16","","null","","[]","null","",""
"","","","","","image-button-response","37","304337","0.0-10.0-1.0-0.4","97C7CEDA6B8043BA9096300DBE1AAB8C","97C7CEDA6B8043BA9096300DBE1AAB8C","7332957a-f8c8-437e-a4c6-6595ee853edc","5e631737-0fa4-44a6-b227-7ba1d7345015","{""num_scrambled_semantic"":""8"",""num_scrambled_causal"":""4"",""num_scrambled_schematic"":""4"",""participantId"":""97C7CEDA6B8043BA9096300DBE1AAB8C"",""assignmentId"":""7332957a-f8c8-437e-a4c6-6595ee853edc"",""projectId"":""5e631737-0fa4-44a6-b227-7ba1d7345015""}","https://test12345.live/?num_scrambled_semantic=8&num_scrambled_causal=4&num_scrambled_schematic=4&participantId=97C7CEDA6B8043BA9096300DBE1AAB8C&assignmentId=7332957a-f8c8-437e-a4c6-6595ee853edc&projectId=5e631737-0fa4-44a6-b227-7ba1d7345015","97C7CEDA6B8043BA9096300DBE1AAB8C-2025-05-27-18-30-16","","null","","images/schematic_sequence/dinner_party_scheme/dinner_party_scheme_ten.png","null","",""
"","","","","","image-button-response","38","305120","0.0-10.0-1.0-1.4","97C7CEDA6B8043BA9096300DBE1AAB8C","97C7CEDA6B8043BA9096300DBE1AAB8C","7332957a-f8c8-437e-a4c6-6595ee853edc","5e631737-0fa4-44a6-b227-7ba1d7345015","{""num_scrambled_semantic"":""8"",""num_scrambled_causal"":""4"",""num_scrambled_schematic"":""4"",""participantId"":""97C7CEDA6B8043BA9096300DBE1AAB8C"",""assignmentId"":""7332957a-f8c8-437e-a4c6-6595ee853edc"",""projectId"":""5e631737-0fa4-44a6-b227-7ba1d7345015""}","https://test12345.live/?num_scrambled_semantic=8&num_scrambled_causal=4&num_scrambled_schematic=4&participantId=97C7CEDA6B8043BA9096300DBE1AAB8C&assignmentId=7332957a-f8c8-437e-a4c6-6595ee853edc&projectId=5e631737-0fa4-44a6-b227-7ba1d7345015","97C7CEDA6B8043BA9096300DBE1AAB8C-2025-05-27-18-30-16","","782","","images/schematic_sequence/dinner_party_scheme/dinner_party_scheme_ten.png","0","",""
"","","","","","image-button-response","39","306923","0.0-10.0-1.0-2.4","97C7CEDA6B8043BA9096300DBE1AAB8C","97C7CEDA6B8043BA9096300DBE1AAB8C","7332957a-f8c8-437e-a4c6-6595ee853edc","5e631737-0fa4-44a6-b227-7ba1d7345015","{""num_scrambled_semantic"":""8"",""num_scrambled_causal"":""4"",""num_scrambled_schematic"":""4"",""participantId"":""97C7CEDA6B8043BA9096300DBE1AAB8C"",""assignmentId"":""7332957a-f8c8-437e-a4c6-6595ee853edc"",""projectId"":""5e631737-0fa4-44a6-b227-7ba1d7345015""}","https://test12345.live/?num_scrambled_semantic=8&num_scrambled_causal=4&num_scrambled_schematic=4&participantId=97C7CEDA6B8043BA9096300DBE1AAB8C&assignmentId=7332957a-f8c8-437e-a4c6-6595ee853edc&projectId=5e631737-0fa4-44a6-b227-7ba1d7345015","97C7CEDA6B8043BA9096300DBE1AAB8C-2025-05-27-18-30-16","","null","","[]","null","",""
"","","","","","image-button-response","40","311425","0.0-10.0-1.0-0.5","97C7CEDA6B8043BA9096300DBE1AAB8C","97C7CEDA6B8043BA9096300DBE1AAB8C","7332957a-f8c8-437e-a4c6-6595ee853edc","5e631737-0fa4-44a6-b227-7ba1d7345015","{""num_scrambled_semantic"":""8"",""num_scrambled_causal"":""4"",""num_scrambled_schematic"":""4"",""participantId"":""97C7CEDA6B8043BA9096300DBE1AAB8C"",""assignmentId"":""7332957a-f8c8-437e-a4c6-6595ee853edc"",""projectId"":""5e631737-0fa4-44a6-b227-7ba1d7345015""}","https://test12345.live/?num_scrambled_semantic=8&num_scrambled_causal=4&num_scrambled_schematic=4&participantId=97C7CEDA6B8043BA9096300DBE1AAB8C&assignmentId=7332957a-f8c8-437e-a4c6-6595ee853edc&projectId=5e631737-0fa4-44a6-b227-7ba1d7345015","97C7CEDA6B8043BA9096300DBE1AAB8C-2025-05-27-18-30-16","","null","","images/schematic_sequence/dinner_party_scheme/dinner_party_scheme_2.png","null","",""
"","","","","","image-button-response","41","312076","0.0-10.0-1.0-1.5","97C7CEDA6B8043BA9096300DBE1AAB8C","97C7CEDA6B8043BA9096300DBE1AAB8C","7332957a-f8c8-437e-a4c6-6595ee853edc","5e631737-0fa4-44a6-b227-7ba1d7345015","{""num_scrambled_semantic"":""8"",""num_scrambled_causal"":""4"",""num_scrambled_schematic"":""4"",""participantId"":""97C7CEDA6B8043BA9096300DBE1AAB8C"",""assignmentId"":""7332957a-f8c8-437e-a4c6-6595ee853edc"",""projectId"":""5e631737-0fa4-44a6-b227-7ba1d7345015""}","https://test12345.live/?num_scrambled_semantic=8&num_scrambled_causal=4&num_scrambled_schematic=4&participantId=97C7CEDA6B8043BA9096300DBE1AAB8C&assignmentId=7332957a-f8c8-437e-a4c6-6595ee853edc&projectId=5e631737-0fa4-44a6-b227-7ba1d7345015","97C7CEDA6B8043BA9096300DBE1AAB8C-2025-05-27-18-30-16","","649","","images/schematic_sequence/dinner_party_scheme/dinner_party_scheme_2.png","0","",""
"","","","","","image-button-response","42","313877","0.0-10.0-1.0-2.5","97C7CEDA6B8043BA9096300DBE1AAB8C","97C7CEDA6B8043BA9096300DBE1AAB8C","7332957a-f8c8-437e-a4c6-6595ee853edc","5e631737-0fa4-44a6-b227-7ba1d7345015","{""num_scrambled_semantic"":""8"",""num_scrambled_causal"":""4"",""num_scrambled_schematic"":""4"",""participantId"":""97C7CEDA6B8043BA9096300DBE1AAB8C"",""assignmentId"":""7332957a-f8c8-437e-a4c6-6595ee853edc"",""projectId"":""5e631737-0fa4-44a6-b227-7ba1d7345015""}","https://test12345.live/?num_scrambled_semantic=8&num_scrambled_causal=4&num_scrambled_schematic=4&participantId=97C7CEDA6B8043BA9096300DBE1AAB8C&assignmentId=7332957a-f8c8-437e-a4c6-6595ee853edc&projectId=5e631737-0fa4-44a6-b227-7ba1d7345015","97C7CEDA6B8043BA9096300DBE1AAB8C-2025-05-27-18-30-16","","null","","[]","null","",""
"","","","","","image-button-response","43","318379","0.0-10.0-1.0-0.6","97C7CEDA6B8043BA9096300DBE1AAB8C","97C7CEDA6B8043BA9096300DBE1AAB8C","7332957a-f8c8-437e-a4c6-6595ee853edc","5e631737-0fa4-44a6-b227-7ba1d7345015","{""num_scrambled_semantic"":""8"",""num_scrambled_causal"":""4"",""num_scrambled_schematic"":""4"",""participantId"":""97C7CEDA6B8043BA9096300DBE1AAB8C"",""assignmentId"":""7332957a-f8c8-437e-a4c6-6595ee853edc"",""projectId"":""5e631737-0fa4-44a6-b227-7ba1d7345015""}","https://test12345.live/?num_scrambled_semantic=8&num_scrambled_causal=4&num_scrambled_schematic=4&participantId=97C7CEDA6B8043BA9096300DBE1AAB8C&assignmentId=7332957a-f8c8-437e-a4c6-6595ee853edc&projectId=5e631737-0fa4-44a6-b227-7ba1d7345015","97C7CEDA6B8043BA9096300DBE1AAB8C-2025-05-27-18-30-16","","null","","images/schematic_sequence/dinner_party_scheme/dinner_party_scheme_3.png","null","",""
"","","","","","image-button-response","44","319186","0.0-10.0-1.0-1.6","97C7CEDA6B8043BA9096300DBE1AAB8C","97C7CEDA6B8043BA9096300DBE1AAB8C","7332957a-f8c8-437e-a4c6-6595ee853edc","5e631737-0fa4-44a6-b227-7ba1d7345015","{""num_scrambled_semantic"":""8"",""num_scrambled_causal"":""4"",""num_scrambled_schematic"":""4"",""participantId"":""97C7CEDA6B8043BA9096300DBE1AAB8C"",""assignmentId"":""7332957a-f8c8-437e-a4c6-6595ee853edc"",""projectId"":""5e631737-0fa4-44a6-b227-7ba1d7345015""}","https://test12345.live/?num_scrambled_semantic=8&num_scrambled_causal=4&num_scrambled_schematic=4&participantId=97C7CEDA6B8043BA9096300DBE1AAB8C&assignmentId=7332957a-f8c8-437e-a4c6-6595ee853edc&projectId=5e631737-0fa4-44a6-b227-7ba1d7345015","97C7CEDA6B8043BA9096300DBE1AAB8C-2025-05-27-18-30-16","","806","","images/schematic_sequence/dinner_party_scheme/dinner_party_scheme_3.png","0","",""
"","","","","","image-button-response","45","320989","0.0-10.0-1.0-2.6","97C7CEDA6B8043BA9096300DBE1AAB8C","97C7CEDA6B8043BA9096300DBE1AAB8C","7332957a-f8c8-437e-a4c6-6595ee853edc","5e631737-0fa4-44a6-b227-7ba1d7345015","{""num_scrambled_semantic"":""8"",""num_scrambled_causal"":""4"",""num_scrambled_schematic"":""4"",""participantId"":""97C7CEDA6B8043BA9096300DBE1AAB8C"",""assignmentId"":""7332957a-f8c8-437e-a4c6-6595ee853edc"",""projectId"":""5e631737-0fa4-44a6-b227-7ba1d7345015""}","https://test12345.live/?num_scrambled_semantic=8&num_scrambled_causal=4&num_scrambled_schematic=4&participantId=97C7CEDA6B8043BA9096300DBE1AAB8C&assignmentId=7332957a-f8c8-437e-a4c6-6595ee853edc&projectId=5e631737-0fa4-44a6-b227-7ba1d7345015","97C7CEDA6B8043BA9096300DBE1AAB8C-2025-05-27-18-30-16","","null","","[]","null","",""
"","","","","","image-button-response","46","325492","0.0-10.0-1.0-0.7","97C7CEDA6B8043BA9096300DBE1AAB8C","97C7CEDA6B8043BA9096300DBE1AAB8C","7332957a-f8c8-437e-a4c6-6595ee853edc","5e631737-0fa4-44a6-b227-7ba1d7345015","{""num_scrambled_semantic"":""8"",""num_scrambled_causal"":""4"",""num_scrambled_schematic"":""4"",""participantId"":""97C7CEDA6B8043BA9096300DBE1AAB8C"",""assignmentId"":""7332957a-f8c8-437e-a4c6-6595ee853edc"",""projectId"":""5e631737-0fa4-44a6-b227-7ba1d7345015""}","https://test12345.live/?num_scrambled_semantic=8&num_scrambled_causal=4&num_scrambled_schematic=4&participantId=97C7CEDA6B8043BA9096300DBE1AAB8C&assignmentId=7332957a-f8c8-437e-a4c6-6595ee853edc&projectId=5e631737-0fa4-44a6-b227-7ba1d7345015","97C7CEDA6B8043BA9096300DBE1AAB8C-2025-05-27-18-30-16","","null","","images/schematic_sequence/dinner_party_scheme/dinner_party_scheme_1.png","null","",""
"","","","","","image-button-response","47","326219","0.0-10.0-1.0-1.7","97C7CEDA6B8043BA9096300DBE1AAB8C","97C7CEDA6B8043BA9096300DBE1AAB8C","7332957a-f8c8-437e-a4c6-6595ee853edc","5e631737-0fa4-44a6-b227-7ba1d7345015","{""num_scrambled_semantic"":""8"",""num_scrambled_causal"":""4"",""num_scrambled_schematic"":""4"",""participantId"":""97C7CEDA6B8043BA9096300DBE1AAB8C"",""assignmentId"":""7332957a-f8c8-437e-a4c6-6595ee853edc"",""projectId"":""5e631737-0fa4-44a6-b227-7ba1d7345015""}","https://test12345.live/?num_scrambled_semantic=8&num_scrambled_causal=4&num_scrambled_schematic=4&participantId=97C7CEDA6B8043BA9096300DBE1AAB8C&assignmentId=7332957a-f8c8-437e-a4c6-6595ee853edc&projectId=5e631737-0fa4-44a6-b227-7ba1d7345015","97C7CEDA6B8043BA9096300DBE1AAB8C-2025-05-27-18-30-16","","725","","images/schematic_sequence/dinner_party_scheme/dinner_party_scheme_1.png","0","",""
"","","","","","image-button-response","48","328021","0.0-10.0-1.0-2.7","97C7CEDA6B8043BA9096300DBE1AAB8C","97C7CEDA6B8043BA9096300DBE1AAB8C","7332957a-f8c8-437e-a4c6-6595ee853edc","5e631737-0fa4-44a6-b227-7ba1d7345015","{""num_scrambled_semantic"":""8"",""num_scrambled_causal"":""4"",""num_scrambled_schematic"":""4"",""participantId"":""97C7CEDA6B8043BA9096300DBE1AAB8C"",""assignmentId"":""7332957a-f8c8-437e-a4c6-6595ee853edc"",""projectId"":""5e631737-0fa4-44a6-b227-7ba1d7345015""}","https://test12345.live/?num_scrambled_semantic=8&num_scrambled_causal=4&num_scrambled_schematic=4&participantId=97C7CEDA6B8043BA9096300DBE1AAB8C&assignmentId=7332957a-f8c8-437e-a4c6-6595ee853edc&projectId=5e631737-0fa4-44a6-b227-7ba1d7345015","97C7CEDA6B8043BA9096300DBE1AAB8C-2025-05-27-18-30-16","","null","","[]","null","",""
"","","","","","image-button-response","49","332523","0.0-10.0-1.0-0.8","97C7CEDA6B8043BA9096300DBE1AAB8C","97C7CEDA6B8043BA9096300DBE1AAB8C","7332957a-f8c8-437e-a4c6-6595ee853edc","5e631737-0fa4-44a6-b227-7ba1d7345015","{""num_scrambled_semantic"":""8"",""num_scrambled_causal"":""4"",""num_scrambled_schematic"":""4"",""participantId"":""97C7CEDA6B8043BA9096300DBE1AAB8C"",""assignmentId"":""7332957a-f8c8-437e-a4c6-6595ee853edc"",""projectId"":""5e631737-0fa4-44a6-b227-7ba1d7345015""}","https://test12345.live/?num_scrambled_semantic=8&num_scrambled_causal=4&num_scrambled_schematic=4&participantId=97C7CEDA6B8043BA9096300DBE1AAB8C&assignmentId=7332957a-f8c8-437e-a4c6-6595ee853edc&projectId=5e631737-0fa4-44a6-b227-7ba1d7345015","97C7CEDA6B8043BA9096300DBE1AAB8C-2025-05-27-18-30-16","","null","","images/schematic_sequence/dinner_party_scheme/dinner_party_scheme_6.png","null","",""
"","","","","","image-button-response","50","333330","0.0-10.0-1.0-1.8","97C7CEDA6B8043BA9096300DBE1AAB8C","97C7CEDA6B8043BA9096300DBE1AAB8C","7332957a-f8c8-437e-a4c6-6595ee853edc","5e631737-0fa4-44a6-b227-7ba1d7345015","{""num_scrambled_semantic"":""8"",""num_scrambled_causal"":""4"",""num_scrambled_schematic"":""4"",""participantId"":""97C7CEDA6B8043BA9096300DBE1AAB8C"",""assignmentId"":""7332957a-f8c8-437e-a4c6-6595ee853edc"",""projectId"":""5e631737-0fa4-44a6-b227-7ba1d7345015""}","https://test12345.live/?num_scrambled_semantic=8&num_scrambled_causal=4&num_scrambled_schematic=4&participantId=97C7CEDA6B8043BA9096300DBE1AAB8C&assignmentId=7332957a-f8c8-437e-a4c6-6595ee853edc&projectId=5e631737-0fa4-44a6-b227-7ba1d7345015","97C7CEDA6B8043BA9096300DBE1AAB8C-2025-05-27-18-30-16","","804","","images/schematic_sequence/dinner_party_scheme/dinner_party_scheme_6.png","0","",""
"","","","","","image-button-response","51","335132","0.0-10.0-1.0-2.8","97C7CEDA6B8043BA9096300DBE1AAB8C","97C7CEDA6B8043BA9096300DBE1AAB8C","7332957a-f8c8-437e-a4c6-6595ee853edc","5e631737-0fa4-44a6-b227-7ba1d7345015","{""num_scrambled_semantic"":""8"",""num_scrambled_causal"":""4"",""num_scrambled_schematic"":""4"",""participantId"":""97C7CEDA6B8043BA9096300DBE1AAB8C"",""assignmentId"":""7332957a-f8c8-437e-a4c6-6595ee853edc"",""projectId"":""5e631737-0fa4-44a6-b227-7ba1d7345015""}","https://test12345.live/?num_scrambled_semantic=8&num_scrambled_causal=4&num_scrambled_schematic=4&participantId=97C7CEDA6B8043BA9096300DBE1AAB8C&assignmentId=7332957a-f8c8-437e-a4c6-6595ee853edc&projectId=5e631737-0fa4-44a6-b227-7ba1d7345015","97C7CEDA6B8043BA9096300DBE1AAB8C-2025-05-27-18-30-16","","null","","[]","null","",""
"","","","","","image-button-response","52","339634","0.0-10.0-1.0-0.9","97C7CEDA6B8043BA9096300DBE1AAB8C","97C7CEDA6B8043BA9096300DBE1AAB8C","7332957a-f8c8-437e-a4c6-6595ee853edc","5e631737-0fa4-44a6-b227-7ba1d7345015","{""num_scrambled_semantic"":""8"",""num_scrambled_causal"":""4"",""num_scrambled_schematic"":""4"",""participantId"":""97C7CEDA6B8043BA9096300DBE1AAB8C"",""assignmentId"":""7332957a-f8c8-437e-a4c6-6595ee853edc"",""projectId"":""5e631737-0fa4-44a6-b227-7ba1d7345015""}","https://test12345.live/?num_scrambled_semantic=8&num_scrambled_causal=4&num_scrambled_schematic=4&participantId=97C7CEDA6B8043BA9096300DBE1AAB8C&assignmentId=7332957a-f8c8-437e-a4c6-6595ee853edc&projectId=5e631737-0fa4-44a6-b227-7ba1d7345015","97C7CEDA6B8043BA9096300DBE1AAB8C-2025-05-27-18-30-16","","null","","images/schematic_sequence/dinner_party_scheme/dinner_party_scheme_4.png","null","",""
"","","","","","image-button-response","53","340343","0.0-10.0-1.0-1.9","97C7CEDA6B8043BA9096300DBE1AAB8C","97C7CEDA6B8043BA9096300DBE1AAB8C","7332957a-f8c8-437e-a4c6-6595ee853edc","5e631737-0fa4-44a6-b227-7ba1d7345015","{""num_scrambled_semantic"":""8"",""num_scrambled_causal"":""4"",""num_scrambled_schematic"":""4"",""participantId"":""97C7CEDA6B8043BA9096300DBE1AAB8C"",""assignmentId"":""7332957a-f8c8-437e-a4c6-6595ee853edc"",""projectId"":""5e631737-0fa4-44a6-b227-7ba1d7345015""}","https://test12345.live/?num_scrambled_semantic=8&num_scrambled_causal=4&num_scrambled_schematic=4&participantId=97C7CEDA6B8043BA9096300DBE1AAB8C&assignmentId=7332957a-f8c8-437e-a4c6-6595ee853edc&projectId=5e631737-0fa4-44a6-b227-7ba1d7345015","97C7CEDA6B8043BA9096300DBE1AAB8C-2025-05-27-18-30-16","","706","","images/schematic_sequence/dinner_party_scheme/dinner_party_scheme_4.png","0","",""
"","","","","","image-button-response","54","342145","0.0-10.0-1.0-2.9","97C7CEDA6B8043BA9096300DBE1AAB8C","97C7CEDA6B8043BA9096300DBE1AAB8C","7332957a-f8c8-437e-a4c6-6595ee853edc","5e631737-0fa4-44a6-b227-7ba1d7345015","{""num_scrambled_semantic"":""8"",""num_scrambled_causal"":""4"",""num_scrambled_schematic"":""4"",""participantId"":""97C7CEDA6B8043BA9096300DBE1AAB8C"",""assignmentId"":""7332957a-f8c8-437e-a4c6-6595ee853edc"",""projectId"":""5e631737-0fa4-44a6-b227-7ba1d7345015""}","https://test12345.live/?num_scrambled_semantic=8&num_scrambled_causal=4&num_scrambled_schematic=4&participantId=97C7CEDA6B8043BA9096300DBE1AAB8C&assignmentId=7332957a-f8c8-437e-a4c6-6595ee853edc&projectId=5e631737-0fa4-44a6-b227-7ba1d7345015","97C7CEDA6B8043BA9096300DBE1AAB8C-2025-05-27-18-30-16","","null","","[]","null","",""
"","","","","","html-audio-response","55","402770","0.0-11.0","97C7CEDA6B8043BA9096300DBE1AAB8C","97C7CEDA6B8043BA9096300DBE1AAB8C","7332957a-f8c8-437e-a4c6-6595ee853edc","5e631737-0fa4-44a6-b227-7ba1d7345015","{""num_scrambled_semantic"":""8"",""num_scrambled_causal"":""4"",""num_scrambled_schematic"":""4"",""participantId"":""97C7CEDA6B8043BA9096300DBE1AAB8C"",""assignmentId"":""7332957a-f8c8-437e-a4c6-6595ee853edc"",""projectId"":""5e631737-0fa4-44a6-b227-7ba1d7345015""}","https://test12345.live/?num_scrambled_semantic=8&num_scrambled_causal=4&num_scrambled_schematic=4&participantId=97C7CEDA6B8043BA9096300DBE1AAB8C&assignmentId=7332957a-f8c8-437e-a4c6-6595ee853edc&projectId=5e631737-0fa4-44a6-b227-7ba1d7345015","97C7CEDA6B8043BA9096300DBE1AAB8C-2025-05-27-18-30-16","","27843","","[""<span style=\""color: red; font-size: 24px\""> NOW RECORDING</span><p>Please say out loud all the images you saw, in the exact order you saw them. Try to recall as many images as you can, but remember: getting the order right is more important than the number of images you recall.</p>""]","","3","dinner_party_scheme"
"","","","","","image-button-response","56","408779","0.0-12.0-0.0","97C7CEDA6B8043BA9096300DBE1AAB8C","97C7CEDA6B8043BA9096300DBE1AAB8C","7332957a-f8c8-437e-a4c6-6595ee853edc","5e631737-0fa4-44a6-b227-7ba1d7345015","{""num_scrambled_semantic"":""8"",""num_scrambled_causal"":""4"",""num_scrambled_schematic"":""4"",""participantId"":""97C7CEDA6B8043BA9096300DBE1AAB8C"",""assignmentId"":""7332957a-f8c8-437e-a4c6-6595ee853edc"",""projectId"":""5e631737-0fa4-44a6-b227-7ba1d7345015""}","https://test12345.live/?num_scrambled_semantic=8&num_scrambled_causal=4&num_scrambled_schematic=4&participantId=97C7CEDA6B8043BA9096300DBE1AAB8C&assignmentId=7332957a-f8c8-437e-a4c6-6595ee853edc&projectId=5e631737-0fa4-44a6-b227-7ba1d7345015","97C7CEDA6B8043BA9096300DBE1AAB8C-2025-05-27-18-30-16","","null","","images/semantic_sequence/redecorating_semantic/redecorating_semantic_0.png","null","",""
"","","","","","image-button-response","57","413281","0.0-12.0-1.0-0.0","97C7CEDA6B8043BA9096300DBE1AAB8C","97C7CEDA6B8043BA9096300DBE1AAB8C","7332957a-f8c8-437e-a4c6-6595ee853edc","5e631737-0fa4-44a6-b227-7ba1d7345015","{""num_scrambled_semantic"":""8"",""num_scrambled_causal"":""4"",""num_scrambled_schematic"":""4"",""participantId"":""97C7CEDA6B8043BA9096300DBE1AAB8C"",""assignmentId"":""7332957a-f8c8-437e-a4c6-6595ee853edc"",""projectId"":""5e631737-0fa4-44a6-b227-7ba1d7345015""}","https://test12345.live/?num_scrambled_semantic=8&num_scrambled_causal=4&num_scrambled_schematic=4&participantId=97C7CEDA6B8043BA9096300DBE1AAB8C&assignmentId=7332957a-f8c8-437e-a4c6-6595ee853edc&projectId=5e631737-0fa4-44a6-b227-7ba1d7345015","97C7CEDA6B8043BA9096300DBE1AAB8C-2025-05-27-18-30-16","","null","","images/semantic_sequence/redecorating_semantic/redecorating_semantic_5.png","null","",""
"","","","","","image-button-response","58","417285","0.0-12.0-1.0-1.0","97C7CEDA6B8043BA9096300DBE1AAB8C","97C7CEDA6B8043BA9096300DBE1AAB8C","7332957a-f8c8-437e-a4c6-6595ee853edc","5e631737-0fa4-44a6-b227-7ba1d7345015","{""num_scrambled_semantic"":""8"",""num_scrambled_causal"":""4"",""num_scrambled_schematic"":""4"",""participantId"":""97C7CEDA6B8043BA9096300DBE1AAB8C"",""assignmentId"":""7332957a-f8c8-437e-a4c6-6595ee853edc"",""projectId"":""5e631737-0fa4-44a6-b227-7ba1d7345015""}","https://test12345.live/?num_scrambled_semantic=8&num_scrambled_causal=4&num_scrambled_schematic=4&participantId=97C7CEDA6B8043BA9096300DBE1AAB8C&assignmentId=7332957a-f8c8-437e-a4c6-6595ee853edc&projectId=5e631737-0fa4-44a6-b227-7ba1d7345015","97C7CEDA6B8043BA9096300DBE1AAB8C-2025-05-27-18-30-16","","null","","images/semantic_sequence/redecorating_semantic/redecorating_semantic_5.png","null","",""
"","","","","","image-button-response","59","419088","0.0-12.0-1.0-2.0","97C7CEDA6B8043BA9096300DBE1AAB8C","97C7CEDA6B8043BA9096300DBE1AAB8C","7332957a-f8c8-437e-a4c6-6595ee853edc","5e631737-0fa4-44a6-b227-7ba1d7345015","{""num_scrambled_semantic"":""8"",""num_scrambled_causal"":""4"",""num_scrambled_schematic"":""4"",""participantId"":""97C7CEDA6B8043BA9096300DBE1AAB8C"",""assignmentId"":""7332957a-f8c8-437e-a4c6-6595ee853edc"",""projectId"":""5e631737-0fa4-44a6-b227-7ba1d7345015""}","https://test12345.live/?num_scrambled_semantic=8&num_scrambled_causal=4&num_scrambled_schematic=4&participantId=97C7CEDA6B8043BA9096300DBE1AAB8C&assignmentId=7332957a-f8c8-437e-a4c6-6595ee853edc&projectId=5e631737-0fa4-44a6-b227-7ba1d7345015","97C7CEDA6B8043BA9096300DBE1AAB8C-2025-05-27-18-30-16","","null","","[]","null","",""
"","","","","","image-button-response","60","423590","0.0-12.0-1.0-0.1","97C7CEDA6B8043BA9096300DBE1AAB8C","97C7CEDA6B8043BA9096300DBE1AAB8C","7332957a-f8c8-437e-a4c6-6595ee853edc","5e631737-0fa4-44a6-b227-7ba1d7345015","{""num_scrambled_semantic"":""8"",""num_scrambled_causal"":""4"",""num_scrambled_schematic"":""4"",""participantId"":""97C7CEDA6B8043BA9096300DBE1AAB8C"",""assignmentId"":""7332957a-f8c8-437e-a4c6-6595ee853edc"",""projectId"":""5e631737-0fa4-44a6-b227-7ba1d7345015""}","https://test12345.live/?num_scrambled_semantic=8&num_scrambled_causal=4&num_scrambled_schematic=4&participantId=97C7CEDA6B8043BA9096300DBE1AAB8C&assignmentId=7332957a-f8c8-437e-a4c6-6595ee853edc&projectId=5e631737-0fa4-44a6-b227-7ba1d7345015","97C7CEDA6B8043BA9096300DBE1AAB8C-2025-05-27-18-30-16","","null","","images/semantic_sequence/redecorating_semantic/redecorating_semantic_7.png","null","",""
"","","","","","image-button-response","61","427593","0.0-12.0-1.0-1.1","97C7CEDA6B8043BA9096300DBE1AAB8C","97C7CEDA6B8043BA9096300DBE1AAB8C","7332957a-f8c8-437e-a4c6-6595ee853edc","5e631737-0fa4-44a6-b227-7ba1d7345015","{""num_scrambled_semantic"":""8"",""num_scrambled_causal"":""4"",""num_scrambled_schematic"":""4"",""participantId"":""97C7CEDA6B8043BA9096300DBE1AAB8C"",""assignmentId"":""7332957a-f8c8-437e-a4c6-6595ee853edc"",""projectId"":""5e631737-0fa4-44a6-b227-7ba1d7345015""}","https://test12345.live/?num_scrambled_semantic=8&num_scrambled_causal=4&num_scrambled_schematic=4&participantId=97C7CEDA6B8043BA9096300DBE1AAB8C&assignmentId=7332957a-f8c8-437e-a4c6-6595ee853edc&projectId=5e631737-0fa4-44a6-b227-7ba1d7345015","97C7CEDA6B8043BA9096300DBE1AAB8C-2025-05-27-18-30-16","","null","","images/semantic_sequence/redecorating_semantic/redecorating_semantic_7.png","null","",""
"","","","","","image-button-response","62","429397","0.0-12.0-1.0-2.1","97C7CEDA6B8043BA9096300DBE1AAB8C","97C7CEDA6B8043BA9096300DBE1AAB8C","7332957a-f8c8-437e-a4c6-6595ee853edc","5e631737-0fa4-44a6-b227-7ba1d7345015","{""num_scrambled_semantic"":""8"",""num_scrambled_causal"":""4"",""num_scrambled_schematic"":""4"",""participantId"":""97C7CEDA6B8043BA9096300DBE1AAB8C"",""assignmentId"":""7332957a-f8c8-437e-a4c6-6595ee853edc"",""projectId"":""5e631737-0fa4-44a6-b227-7ba1d7345015""}","https://test12345.live/?num_scrambled_semantic=8&num_scrambled_causal=4&num_scrambled_schematic=4&participantId=97C7CEDA6B8043BA9096300DBE1AAB8C&assignmentId=7332957a-f8c8-437e-a4c6-6595ee853edc&projectId=5e631737-0fa4-44a6-b227-7ba1d7345015","97C7CEDA6B8043BA9096300DBE1AAB8C-2025-05-27-18-30-16","","null","","[]","null","",""
"","","","","","image-button-response","63","433899","0.0-12.0-1.0-0.2","97C7CEDA6B8043BA9096300DBE1AAB8C","97C7CEDA6B8043BA9096300DBE1AAB8C","7332957a-f8c8-437e-a4c6-6595ee853edc","5e631737-0fa4-44a6-b227-7ba1d7345015","{""num_scrambled_semantic"":""8"",""num_scrambled_causal"":""4"",""num_scrambled_schematic"":""4"",""participantId"":""97C7CEDA6B8043BA9096300DBE1AAB8C"",""assignmentId"":""7332957a-f8c8-437e-a4c6-6595ee853edc"",""projectId"":""5e631737-0fa4-44a6-b227-7ba1d7345015""}","https://test12345.live/?num_scrambled_semantic=8&num_scrambled_causal=4&num_scrambled_schematic=4&participantId=97C7CEDA6B8043BA9096300DBE1AAB8C&assignmentId=7332957a-f8c8-437e-a4c6-6595ee853edc&projectId=5e631737-0fa4-44a6-b227-7ba1d7345015","97C7CEDA6B8043BA9096300DBE1AAB8C-2025-05-27-18-30-16","","null","","images/semantic_sequence/redecorating_semantic/redecorating_semantic_ten.png","null","",""
"","","","","","image-button-response","64","435294","0.0-12.0-1.0-1.2","97C7CEDA6B8043BA9096300DBE1AAB8C","97C7CEDA6B8043BA9096300DBE1AAB8C","7332957a-f8c8-437e-a4c6-6595ee853edc","5e631737-0fa4-44a6-b227-7ba1d7345015","{""num_scrambled_semantic"":""8"",""num_scrambled_causal"":""4"",""num_scrambled_schematic"":""4"",""participantId"":""97C7CEDA6B8043BA9096300DBE1AAB8C"",""assignmentId"":""7332957a-f8c8-437e-a4c6-6595ee853edc"",""projectId"":""5e631737-0fa4-44a6-b227-7ba1d7345015""}","https://test12345.live/?num_scrambled_semantic=8&num_scrambled_causal=4&num_scrambled_schematic=4&participantId=97C7CEDA6B8043BA9096300DBE1AAB8C&assignmentId=7332957a-f8c8-437e-a4c6-6595ee853edc&projectId=5e631737-0fa4-44a6-b227-7ba1d7345015","97C7CEDA6B8043BA9096300DBE1AAB8C-2025-05-27-18-30-16","","1393","","images/semantic_sequence/redecorating_semantic/redecorating_semantic_ten.png","0","",""
"","","","","","image-button-response","65","437097","0.0-12.0-1.0-2.2","97C7CEDA6B8043BA9096300DBE1AAB8C","97C7CEDA6B8043BA9096300DBE1AAB8C","7332957a-f8c8-437e-a4c6-6595ee853edc","5e631737-0fa4-44a6-b227-7ba1d7345015","{""num_scrambled_semantic"":""8"",""num_scrambled_causal"":""4"",""num_scrambled_schematic"":""4"",""participantId"":""97C7CEDA6B8043BA9096300DBE1AAB8C"",""assignmentId"":""7332957a-f8c8-437e-a4c6-6595ee853edc"",""projectId"":""5e631737-0fa4-44a6-b227-7ba1d7345015""}","https://test12345.live/?num_scrambled_semantic=8&num_scrambled_causal=4&num_scrambled_schematic=4&participantId=97C7CEDA6B8043BA9096300DBE1AAB8C&assignmentId=7332957a-f8c8-437e-a4c6-6595ee853edc&projectId=5e631737-0fa4-44a6-b227-7ba1d7345015","97C7CEDA6B8043BA9096300DBE1AAB8C-2025-05-27-18-30-16","","null","","[]","null","",""
"","","","","","image-button-response","66","441599","0.0-12.0-1.0-0.3","97C7CEDA6B8043BA9096300DBE1AAB8C","97C7CEDA6B8043BA9096300DBE1AAB8C","7332957a-f8c8-437e-a4c6-6595ee853edc","5e631737-0fa4-44a6-b227-7ba1d7345015","{""num_scrambled_semantic"":""8"",""num_scrambled_causal"":""4"",""num_scrambled_schematic"":""4"",""participantId"":""97C7CEDA6B8043BA9096300DBE1AAB8C"",""assignmentId"":""7332957a-f8c8-437e-a4c6-6595ee853edc"",""projectId"":""5e631737-0fa4-44a6-b227-7ba1d7345015""}","https://test12345.live/?num_scrambled_semantic=8&num_scrambled_causal=4&num_scrambled_schematic=4&participantId=97C7CEDA6B8043BA9096300DBE1AAB8C&assignmentId=7332957a-f8c8-437e-a4c6-6595ee853edc&projectId=5e631737-0fa4-44a6-b227-7ba1d7345015","97C7CEDA6B8043BA9096300DBE1AAB8C-2025-05-27-18-30-16","","null","","images/semantic_sequence/redecorating_semantic/redecorating_semantic_9.png","null","",""
"","","","","","image-button-response","67","442658","0.0-12.0-1.0-1.3","97C7CEDA6B8043BA9096300DBE1AAB8C","97C7CEDA6B8043BA9096300DBE1AAB8C","7332957a-f8c8-437e-a4c6-6595ee853edc","5e631737-0fa4-44a6-b227-7ba1d7345015","{""num_scrambled_semantic"":""8"",""num_scrambled_causal"":""4"",""num_scrambled_schematic"":""4"",""participantId"":""97C7CEDA6B8043BA9096300DBE1AAB8C"",""assignmentId"":""7332957a-f8c8-437e-a4c6-6595ee853edc"",""projectId"":""5e631737-0fa4-44a6-b227-7ba1d7345015""}","https://test12345.live/?num_scrambled_semantic=8&num_scrambled_causal=4&num_scrambled_schematic=4&participantId=97C7CEDA6B8043BA9096300DBE1AAB8C&assignmentId=7332957a-f8c8-437e-a4c6-6595ee853edc&projectId=5e631737-0fa4-44a6-b227-7ba1d7345015","97C7CEDA6B8043BA9096300DBE1AAB8C-2025-05-27-18-30-16","","1057","","images/semantic_sequence/redecorating_semantic/redecorating_semantic_9.png","0","",""
"","","","","","image-button-response","68","444460","0.0-12.0-1.0-2.3","97C7CEDA6B8043BA9096300DBE1AAB8C","97C7CEDA6B8043BA9096300DBE1AAB8C","7332957a-f8c8-437e-a4c6-6595ee853edc","5e631737-0fa4-44a6-b227-7ba1d7345015","{""num_scrambled_semantic"":""8"",""num_scrambled_causal"":""4"",""num_scrambled_schematic"":""4"",""participantId"":""97C7CEDA6B8043BA9096300DBE1AAB8C"",""assignmentId"":""7332957a-f8c8-437e-a4c6-6595ee853edc"",""projectId"":""5e631737-0fa4-44a6-b227-7ba1d7345015""}","https://test12345.live/?num_scrambled_semantic=8&num_scrambled_causal=4&num_scrambled_schematic=4&participantId=97C7CEDA6B8043BA9096300DBE1AAB8C&assignmentId=7332957a-f8c8-437e-a4c6-6595ee853edc&projectId=5e631737-0fa4-44a6-b227-7ba1d7345015","97C7CEDA6B8043BA9096300DBE1AAB8C-2025-05-27-18-30-16","","null","","[]","null","",""
"","","","","","image-button-response","69","448962","0.0-12.0-1.0-0.4","97C7CEDA6B8043BA9096300DBE1AAB8C","97C7CEDA6B8043BA9096300DBE1AAB8C","7332957a-f8c8-437e-a4c6-6595ee853edc","5e631737-0fa4-44a6-b227-7ba1d7345015","{""num_scrambled_semantic"":""8"",""num_scrambled_causal"":""4"",""num_scrambled_schematic"":""4"",""participantId"":""97C7CEDA6B8043BA9096300DBE1AAB8C"",""assignmentId"":""7332957a-f8c8-437e-a4c6-6595ee853edc"",""projectId"":""5e631737-0fa4-44a6-b227-7ba1d7345015""}","https://test12345.live/?num_scrambled_semantic=8&num_scrambled_causal=4&num_scrambled_schematic=4&participantId=97C7CEDA6B8043BA9096300DBE1AAB8C&assignmentId=7332957a-f8c8-437e-a4c6-6595ee853edc&projectId=5e631737-0fa4-44a6-b227-7ba1d7345015","97C7CEDA6B8043BA9096300DBE1AAB8C-2025-05-27-18-30-16","","null","","images/semantic_sequence/redecorating_semantic/redecorating_semantic_1.png","null","",""
"","","","","","image-button-response","70","450038","0.0-12.0-1.0-1.4","97C7CEDA6B8043BA9096300DBE1AAB8C","97C7CEDA6B8043BA9096300DBE1AAB8C","7332957a-f8c8-437e-a4c6-6595ee853edc","5e631737-0fa4-44a6-b227-7ba1d7345015","{""num_scrambled_semantic"":""8"",""num_scrambled_causal"":""4"",""num_scrambled_schematic"":""4"",""participantId"":""97C7CEDA6B8043BA9096300DBE1AAB8C"",""assignmentId"":""7332957a-f8c8-437e-a4c6-6595ee853edc"",""projectId"":""5e631737-0fa4-44a6-b227-7ba1d7345015""}","https://test12345.live/?num_scrambled_semantic=8&num_scrambled_causal=4&num_scrambled_schematic=4&participantId=97C7CEDA6B8043BA9096300DBE1AAB8C&assignmentId=7332957a-f8c8-437e-a4c6-6595ee853edc&projectId=5e631737-0fa4-44a6-b227-7ba1d7345015","97C7CEDA6B8043BA9096300DBE1AAB8C-2025-05-27-18-30-16","","1074","","images/semantic_sequence/redecorating_semantic/redecorating_semantic_1.png","0","",""
"","","","","","image-button-response","71","451840","0.0-12.0-1.0-2.4","97C7CEDA6B8043BA9096300DBE1AAB8C","97C7CEDA6B8043BA9096300DBE1AAB8C","7332957a-f8c8-437e-a4c6-6595ee853edc","5e631737-0fa4-44a6-b227-7ba1d7345015","{""num_scrambled_semantic"":""8"",""num_scrambled_causal"":""4"",""num_scrambled_schematic"":""4"",""participantId"":""97C7CEDA6B8043BA9096300DBE1AAB8C"",""assignmentId"":""7332957a-f8c8-437e-a4c6-6595ee853edc"",""projectId"":""5e631737-0fa4-44a6-b227-7ba1d7345015""}","https://test12345.live/?num_scrambled_semantic=8&num_scrambled_causal=4&num_scrambled_schematic=4&participantId=97C7CEDA6B8043BA9096300DBE1AAB8C&assignmentId=7332957a-f8c8-437e-a4c6-6595ee853edc&projectId=5e631737-0fa4-44a6-b227-7ba1d7345015","97C7CEDA6B8043BA9096300DBE1AAB8C-2025-05-27-18-30-16","","null","","[]","null","",""
"","","","","","image-button-response","72","456342","0.0-12.0-1.0-0.5","97C7CEDA6B8043BA9096300DBE1AAB8C","97C7CEDA6B8043BA9096300DBE1AAB8C","7332957a-f8c8-437e-a4c6-6595ee853edc","5e631737-0fa4-44a6-b227-7ba1d7345015","{""num_scrambled_semantic"":""8"",""num_scrambled_causal"":""4"",""num_scrambled_schematic"":""4"",""participantId"":""97C7CEDA6B8043BA9096300DBE1AAB8C"",""assignmentId"":""7332957a-f8c8-437e-a4c6-6595ee853edc"",""projectId"":""5e631737-0fa4-44a6-b227-7ba1d7345015""}","https://test12345.live/?num_scrambled_semantic=8&num_scrambled_causal=4&num_scrambled_schematic=4&participantId=97C7CEDA6B8043BA9096300DBE1AAB8C&assignmentId=7332957a-f8c8-437e-a4c6-6595ee853edc&projectId=5e631737-0fa4-44a6-b227-7ba1d7345015","97C7CEDA6B8043BA9096300DBE1AAB8C-2025-05-27-18-30-16","","null","","images/semantic_sequence/redecorating_semantic/redecorating_semantic_8.png","null","",""
"","","","","","image-button-response","73","457112","0.0-12.0-1.0-1.5","97C7CEDA6B8043BA9096300DBE1AAB8C","97C7CEDA6B8043BA9096300DBE1AAB8C","7332957a-f8c8-437e-a4c6-6595ee853edc","5e631737-0fa4-44a6-b227-7ba1d7345015","{""num_scrambled_semantic"":""8"",""num_scrambled_causal"":""4"",""num_scrambled_schematic"":""4"",""participantId"":""97C7CEDA6B8043BA9096300DBE1AAB8C"",""assignmentId"":""7332957a-f8c8-437e-a4c6-6595ee853edc"",""projectId"":""5e631737-0fa4-44a6-b227-7ba1d7345015""}","https://test12345.live/?num_scrambled_semantic=8&num_scrambled_causal=4&num_scrambled_schematic=4&participantId=97C7CEDA6B8043BA9096300DBE1AAB8C&assignmentId=7332957a-f8c8-437e-a4c6-6595ee853edc&projectId=5e631737-0fa4-44a6-b227-7ba1d7345015","97C7CEDA6B8043BA9096300DBE1AAB8C-2025-05-27-18-30-16","","768","","images/semantic_sequence/redecorating_semantic/redecorating_semantic_8.png","0","",""
"","","","","","image-button-response","74","458914","0.0-12.0-1.0-2.5","97C7CEDA6B8043BA9096300DBE1AAB8C","97C7CEDA6B8043BA9096300DBE1AAB8C","7332957a-f8c8-437e-a4c6-6595ee853edc","5e631737-0fa4-44a6-b227-7ba1d7345015","{""num_scrambled_semantic"":""8"",""num_scrambled_causal"":""4"",""num_scrambled_schematic"":""4"",""participantId"":""97C7CEDA6B8043BA9096300DBE1AAB8C"",""assignmentId"":""7332957a-f8c8-437e-a4c6-6595ee853edc"",""projectId"":""5e631737-0fa4-44a6-b227-7ba1d7345015""}","https://test12345.live/?num_scrambled_semantic=8&num_scrambled_causal=4&num_scrambled_schematic=4&participantId=97C7CEDA6B8043BA9096300DBE1AAB8C&assignmentId=7332957a-f8c8-437e-a4c6-6595ee853edc&projectId=5e631737-0fa4-44a6-b227-7ba1d7345015","97C7CEDA6B8043BA9096300DBE1AAB8C-2025-05-27-18-30-16","","null","","[]","null","",""
"","","","","","image-button-response","75","463416","0.0-12.0-1.0-0.6","97C7CEDA6B8043BA9096300DBE1AAB8C","97C7CEDA6B8043BA9096300DBE1AAB8C","7332957a-f8c8-437e-a4c6-6595ee853edc","5e631737-0fa4-44a6-b227-7ba1d7345015","{""num_scrambled_semantic"":""8"",""num_scrambled_causal"":""4"",""num_scrambled_schematic"":""4"",""participantId"":""97C7CEDA6B8043BA9096300DBE1AAB8C"",""assignmentId"":""7332957a-f8c8-437e-a4c6-6595ee853edc"",""projectId"":""5e631737-0fa4-44a6-b227-7ba1d7345015""}","https://test12345.live/?num_scrambled_semantic=8&num_scrambled_causal=4&num_scrambled_schematic=4&participantId=97C7CEDA6B8043BA9096300DBE1AAB8C&assignmentId=7332957a-f8c8-437e-a4c6-6595ee853edc&projectId=5e631737-0fa4-44a6-b227-7ba1d7345015","97C7CEDA6B8043BA9096300DBE1AAB8C-2025-05-27-18-30-16","","null","","images/semantic_sequence/redecorating_semantic/redecorating_semantic_2.png","null","",""
"","","","","","image-button-response","76","464148","0.0-12.0-1.0-1.6","97C7CEDA6B8043BA9096300DBE1AAB8C","97C7CEDA6B8043BA9096300DBE1AAB8C","7332957a-f8c8-437e-a4c6-6595ee853edc","5e631737-0fa4-44a6-b227-7ba1d7345015","{""num_scrambled_semantic"":""8"",""num_scrambled_causal"":""4"",""num_scrambled_schematic"":""4"",""participantId"":""97C7CEDA6B8043BA9096300DBE1AAB8C"",""assignmentId"":""7332957a-f8c8-437e-a4c6-6595ee853edc"",""projectId"":""5e631737-0fa4-44a6-b227-7ba1d7345015""}","https://test12345.live/?num_scrambled_semantic=8&num_scrambled_causal=4&num_scrambled_schematic=4&participantId=97C7CEDA6B8043BA9096300DBE1AAB8C&assignmentId=7332957a-f8c8-437e-a4c6-6595ee853edc&projectId=5e631737-0fa4-44a6-b227-7ba1d7345015","97C7CEDA6B8043BA9096300DBE1AAB8C-2025-05-27-18-30-16","","729","","images/semantic_sequence/redecorating_semantic/redecorating_semantic_2.png","0","",""
"","","","","","image-button-response","77","465950","0.0-12.0-1.0-2.6","97C7CEDA6B8043BA9096300DBE1AAB8C","97C7CEDA6B8043BA9096300DBE1AAB8C","7332957a-f8c8-437e-a4c6-6595ee853edc","5e631737-0fa4-44a6-b227-7ba1d7345015","{""num_scrambled_semantic"":""8"",""num_scrambled_causal"":""4"",""num_scrambled_schematic"":""4"",""participantId"":""97C7CEDA6B8043BA9096300DBE1AAB8C"",""assignmentId"":""7332957a-f8c8-437e-a4c6-6595ee853edc"",""projectId"":""5e631737-0fa4-44a6-b227-7ba1d7345015""}","https://test12345.live/?num_scrambled_semantic=8&num_scrambled_causal=4&num_scrambled_schematic=4&participantId=97C7CEDA6B8043BA9096300DBE1AAB8C&assignmentId=7332957a-f8c8-437e-a4c6-6595ee853edc&projectId=5e631737-0fa4-44a6-b227-7ba1d7345015","97C7CEDA6B8043BA9096300DBE1AAB8C-2025-05-27-18-30-16","","null","","[]","null","",""
"","","","","","image-button-response","78","470452","0.0-12.0-1.0-0.7","97C7CEDA6B8043BA9096300DBE1AAB8C","97C7CEDA6B8043BA9096300DBE1AAB8C","7332957a-f8c8-437e-a4c6-6595ee853edc","5e631737-0fa4-44a6-b227-7ba1d7345015","{""num_scrambled_semantic"":""8"",""num_scrambled_causal"":""4"",""num_scrambled_schematic"":""4"",""participantId"":""97C7CEDA6B8043BA9096300DBE1AAB8C"",""assignmentId"":""7332957a-f8c8-437e-a4c6-6595ee853edc"",""projectId"":""5e631737-0fa4-44a6-b227-7ba1d7345015""}","https://test12345.live/?num_scrambled_semantic=8&num_scrambled_causal=4&num_scrambled_schematic=4&participantId=97C7CEDA6B8043BA9096300DBE1AAB8C&assignmentId=7332957a-f8c8-437e-a4c6-6595ee853edc&projectId=5e631737-0fa4-44a6-b227-7ba1d7345015","97C7CEDA6B8043BA9096300DBE1AAB8C-2025-05-27-18-30-16","","null","","images/semantic_sequence/redecorating_semantic/redecorating_semantic_3.png","null","",""
"","","","","","image-button-response","79","471248","0.0-12.0-1.0-1.7","97C7CEDA6B8043BA9096300DBE1AAB8C","97C7CEDA6B8043BA9096300DBE1AAB8C","7332957a-f8c8-437e-a4c6-6595ee853edc","5e631737-0fa4-44a6-b227-7ba1d7345015","{""num_scrambled_semantic"":""8"",""num_scrambled_causal"":""4"",""num_scrambled_schematic"":""4"",""participantId"":""97C7CEDA6B8043BA9096300DBE1AAB8C"",""assignmentId"":""7332957a-f8c8-437e-a4c6-6595ee853edc"",""projectId"":""5e631737-0fa4-44a6-b227-7ba1d7345015""}","https://test12345.live/?num_scrambled_semantic=8&num_scrambled_causal=4&num_scrambled_schematic=4&participantId=97C7CEDA6B8043BA9096300DBE1AAB8C&assignmentId=7332957a-f8c8-437e-a4c6-6595ee853edc&projectId=5e631737-0fa4-44a6-b227-7ba1d7345015","97C7CEDA6B8043BA9096300DBE1AAB8C-2025-05-27-18-30-16","","794","","images/semantic_sequence/redecorating_semantic/redecorating_semantic_3.png","0","",""
"","","","","","image-button-response","80","473051","0.0-12.0-1.0-2.7","97C7CEDA6B8043BA9096300DBE1AAB8C","97C7CEDA6B8043BA9096300DBE1AAB8C","7332957a-f8c8-437e-a4c6-6595ee853edc","5e631737-0fa4-44a6-b227-7ba1d7345015","{""num_scrambled_semantic"":""8"",""num_scrambled_causal"":""4"",""num_scrambled_schematic"":""4"",""participantId"":""97C7CEDA6B8043BA9096300DBE1AAB8C"",""assignmentId"":""7332957a-f8c8-437e-a4c6-6595ee853edc"",""projectId"":""5e631737-0fa4-44a6-b227-7ba1d7345015""}","https://test12345.live/?num_scrambled_semantic=8&num_scrambled_causal=4&num_scrambled_schematic=4&participantId=97C7CEDA6B8043BA9096300DBE1AAB8C&assignmentId=7332957a-f8c8-437e-a4c6-6595ee853edc&projectId=5e631737-0fa4-44a6-b227-7ba1d7345015","97C7CEDA6B8043BA9096300DBE1AAB8C-2025-05-27-18-30-16","","null","","[]","null","",""
"","","","","","image-button-response","81","477553","0.0-12.0-1.0-0.8","97C7CEDA6B8043BA9096300DBE1AAB8C","97C7CEDA6B8043BA9096300DBE1AAB8C","7332957a-f8c8-437e-a4c6-6595ee853edc","5e631737-0fa4-44a6-b227-7ba1d7345015","{""num_scrambled_semantic"":""8"",""num_scrambled_causal"":""4"",""num_scrambled_schematic"":""4"",""participantId"":""97C7CEDA6B8043BA9096300DBE1AAB8C"",""assignmentId"":""7332957a-f8c8-437e-a4c6-6595ee853edc"",""projectId"":""5e631737-0fa4-44a6-b227-7ba1d7345015""}","https://test12345.live/?num_scrambled_semantic=8&num_scrambled_causal=4&num_scrambled_schematic=4&participantId=97C7CEDA6B8043BA9096300DBE1AAB8C&assignmentId=7332957a-f8c8-437e-a4c6-6595ee853edc&projectId=5e631737-0fa4-44a6-b227-7ba1d7345015","97C7CEDA6B8043BA9096300DBE1AAB8C-2025-05-27-18-30-16","","null","","images/semantic_sequence/redecorating_semantic/redecorating_semantic_6.png","null","",""
"","","","","","image-button-response","82","478443","0.0-12.0-1.0-1.8","97C7CEDA6B8043BA9096300DBE1AAB8C","97C7CEDA6B8043BA9096300DBE1AAB8C","7332957a-f8c8-437e-a4c6-6595ee853edc","5e631737-0fa4-44a6-b227-7ba1d7345015","{""num_scrambled_semantic"":""8"",""num_scrambled_causal"":""4"",""num_scrambled_schematic"":""4"",""participantId"":""97C7CEDA6B8043BA9096300DBE1AAB8C"",""assignmentId"":""7332957a-f8c8-437e-a4c6-6595ee853edc"",""projectId"":""5e631737-0fa4-44a6-b227-7ba1d7345015""}","https://test12345.live/?num_scrambled_semantic=8&num_scrambled_causal=4&num_scrambled_schematic=4&participantId=97C7CEDA6B8043BA9096300DBE1AAB8C&assignmentId=7332957a-f8c8-437e-a4c6-6595ee853edc&projectId=5e631737-0fa4-44a6-b227-7ba1d7345015","97C7CEDA6B8043BA9096300DBE1AAB8C-2025-05-27-18-30-16","","888","","images/semantic_sequence/redecorating_semantic/redecorating_semantic_6.png","0","",""
"","","","","","image-button-response","83","480246","0.0-12.0-1.0-2.8","97C7CEDA6B8043BA9096300DBE1AAB8C","97C7CEDA6B8043BA9096300DBE1AAB8C","7332957a-f8c8-437e-a4c6-6595ee853edc","5e631737-0fa4-44a6-b227-7ba1d7345015","{""num_scrambled_semantic"":""8"",""num_scrambled_causal"":""4"",""num_scrambled_schematic"":""4"",""participantId"":""97C7CEDA6B8043BA9096300DBE1AAB8C"",""assignmentId"":""7332957a-f8c8-437e-a4c6-6595ee853edc"",""projectId"":""5e631737-0fa4-44a6-b227-7ba1d7345015""}","https://test12345.live/?num_scrambled_semantic=8&num_scrambled_causal=4&num_scrambled_schematic=4&participantId=97C7CEDA6B8043BA9096300DBE1AAB8C&assignmentId=7332957a-f8c8-437e-a4c6-6595ee853edc&projectId=5e631737-0fa4-44a6-b227-7ba1d7345015","97C7CEDA6B8043BA9096300DBE1AAB8C-2025-05-27-18-30-16","","null","","[]","null","",""
"","","","","","image-button-response","84","484748","0.0-12.0-1.0-0.9","97C7CEDA6B8043BA9096300DBE1AAB8C","97C7CEDA6B8043BA9096300DBE1AAB8C","7332957a-f8c8-437e-a4c6-6595ee853edc","5e631737-0fa4-44a6-b227-7ba1d7345015","{""num_scrambled_semantic"":""8"",""num_scrambled_causal"":""4"",""num_scrambled_schematic"":""4"",""participantId"":""97C7CEDA6B8043BA9096300DBE1AAB8C"",""assignmentId"":""7332957a-f8c8-437e-a4c6-6595ee853edc"",""projectId"":""5e631737-0fa4-44a6-b227-7ba1d7345015""}","https://test12345.live/?num_scrambled_semantic=8&num_scrambled_causal=4&num_scrambled_schematic=4&participantId=97C7CEDA6B8043BA9096300DBE1AAB8C&assignmentId=7332957a-f8c8-437e-a4c6-6595ee853edc&projectId=5e631737-0fa4-44a6-b227-7ba1d7345015","97C7CEDA6B8043BA9096300DBE1AAB8C-2025-05-27-18-30-16","","null","","images/semantic_sequence/redecorating_semantic/redecorating_semantic_4.png","null","",""
"","","","","","image-button-response","85","485407","0.0-12.0-1.0-1.9","97C7CEDA6B8043BA9096300DBE1AAB8C","97C7CEDA6B8043BA9096300DBE1AAB8C","7332957a-f8c8-437e-a4c6-6595ee853edc","5e631737-0fa4-44a6-b227-7ba1d7345015","{""num_scrambled_semantic"":""8"",""num_scrambled_causal"":""4"",""num_scrambled_schematic"":""4"",""participantId"":""97C7CEDA6B8043BA9096300DBE1AAB8C"",""assignmentId"":""7332957a-f8c8-437e-a4c6-6595ee853edc"",""projectId"":""5e631737-0fa4-44a6-b227-7ba1d7345015""}","https://test12345.live/?num_scrambled_semantic=8&num_scrambled_causal=4&num_scrambled_schematic=4&participantId=97C7CEDA6B8043BA9096300DBE1AAB8C&assignmentId=7332957a-f8c8-437e-a4c6-6595ee853edc&projectId=5e631737-0fa4-44a6-b227-7ba1d7345015","97C7CEDA6B8043BA9096300DBE1AAB8C-2025-05-27-18-30-16","","657","","images/semantic_sequence/redecorating_semantic/redecorating_semantic_4.png","0","",""
"","","","","","image-button-response","86","487210","0.0-12.0-1.0-2.9","97C7CEDA6B8043BA9096300DBE1AAB8C","97C7CEDA6B8043BA9096300DBE1AAB8C","7332957a-f8c8-437e-a4c6-6595ee853edc","5e631737-0fa4-44a6-b227-7ba1d7345015","{""num_scrambled_semantic"":""8"",""num_scrambled_causal"":""4"",""num_scrambled_schematic"":""4"",""participantId"":""97C7CEDA6B8043BA9096300DBE1AAB8C"",""assignmentId"":""7332957a-f8c8-437e-a4c6-6595ee853edc"",""projectId"":""5e631737-0fa4-44a6-b227-7ba1d7345015""}","https://test12345.live/?num_scrambled_semantic=8&num_scrambled_causal=4&num_scrambled_schematic=4&participantId=97C7CEDA6B8043BA9096300DBE1AAB8C&assignmentId=7332957a-f8c8-437e-a4c6-6595ee853edc&projectId=5e631737-0fa4-44a6-b227-7ba1d7345015","97C7CEDA6B8043BA9096300DBE1AAB8C-2025-05-27-18-30-16","","null","","[]","null","",""
"","","","","","html-audio-response","87","509407","0.0-13.0","97C7CEDA6B8043BA9096300DBE1AAB8C","97C7CEDA6B8043BA9096300DBE1AAB8C","7332957a-f8c8-437e-a4c6-6595ee853edc","5e631737-0fa4-44a6-b227-7ba1d7345015","{""num_scrambled_semantic"":""8"",""num_scrambled_causal"":""4"",""num_scrambled_schematic"":""4"",""participantId"":""97C7CEDA6B8043BA9096300DBE1AAB8C"",""assignmentId"":""7332957a-f8c8-437e-a4c6-6595ee853edc"",""projectId"":""5e631737-0fa4-44a6-b227-7ba1d7345015""}","https://test12345.live/?num_scrambled_semantic=8&num_scrambled_causal=4&num_scrambled_schematic=4&participantId=97C7CEDA6B8043BA9096300DBE1AAB8C&assignmentId=7332957a-f8c8-437e-a4c6-6595ee853edc&projectId=5e631737-0fa4-44a6-b227-7ba1d7345015","97C7CEDA6B8043BA9096300DBE1AAB8C-2025-05-27-18-30-16","","17283","","[""<span style=\""color: red; font-size: 24px\""> NOW RECORDING</span><p>Please say out loud all the images you saw, in the exact order you saw them. Try to recall as many images as you can, but remember: getting the order right is more important than the number of images you recall.</p>""]","","2","redecorating_semantic"
"","","","","","image-button-response","88","515413","0.0-14.0-0.0","97C7CEDA6B8043BA9096300DBE1AAB8C","97C7CEDA6B8043BA9096300DBE1AAB8C","7332957a-f8c8-437e-a4c6-6595ee853edc","5e631737-0fa4-44a6-b227-7ba1d7345015","{""num_scrambled_semantic"":""8"",""num_scrambled_causal"":""4"",""num_scrambled_schematic"":""4"",""participantId"":""97C7CEDA6B8043BA9096300DBE1AAB8C"",""assignmentId"":""7332957a-f8c8-437e-a4c6-6595ee853edc"",""projectId"":""5e631737-0fa4-44a6-b227-7ba1d7345015""}","https://test12345.live/?num_scrambled_semantic=8&num_scrambled_causal=4&num_scrambled_schematic=4&participantId=97C7CEDA6B8043BA9096300DBE1AAB8C&assignmentId=7332957a-f8c8-437e-a4c6-6595ee853edc&projectId=5e631737-0fa4-44a6-b227-7ba1d7345015","97C7CEDA6B8043BA9096300DBE1AAB8C-2025-05-27-18-30-16","","null","","images/semantic_sequence/creative_activities_semantic/creative_activities_semantic_0.png","null","",""
"","","","","","image-button-response","89","519915","0.0-14.0-1.0-0.0","97C7CEDA6B8043BA9096300DBE1AAB8C","97C7CEDA6B8043BA9096300DBE1AAB8C","7332957a-f8c8-437e-a4c6-6595ee853edc","5e631737-0fa4-44a6-b227-7ba1d7345015","{""num_scrambled_semantic"":""8"",""num_scrambled_causal"":""4"",""num_scrambled_schematic"":""4"",""participantId"":""97C7CEDA6B8043BA9096300DBE1AAB8C"",""assignmentId"":""7332957a-f8c8-437e-a4c6-6595ee853edc"",""projectId"":""5e631737-0fa4-44a6-b227-7ba1d7345015""}","https://test12345.live/?num_scrambled_semantic=8&num_scrambled_causal=4&num_scrambled_schematic=4&participantId=97C7CEDA6B8043BA9096300DBE1AAB8C&assignmentId=7332957a-f8c8-437e-a4c6-6595ee853edc&projectId=5e631737-0fa4-44a6-b227-7ba1d7345015","97C7CEDA6B8043BA9096300DBE1AAB8C-2025-05-27-18-30-16","","null","","images/semantic_sequence/creative_activities_semantic/creative_activities_semantic_2.png","null","",""
"","","","","","image-button-response","90","521144","0.0-14.0-1.0-1.0","97C7CEDA6B8043BA9096300DBE1AAB8C","97C7CEDA6B8043BA9096300DBE1AAB8C","7332957a-f8c8-437e-a4c6-6595ee853edc","5e631737-0fa4-44a6-b227-7ba1d7345015","{""num_scrambled_semantic"":""8"",""num_scrambled_causal"":""4"",""num_scrambled_schematic"":""4"",""participantId"":""97C7CEDA6B8043BA9096300DBE1AAB8C"",""assignmentId"":""7332957a-f8c8-437e-a4c6-6595ee853edc"",""projectId"":""5e631737-0fa4-44a6-b227-7ba1d7345015""}","https://test12345.live/?num_scrambled_semantic=8&num_scrambled_causal=4&num_scrambled_schematic=4&participantId=97C7CEDA6B8043BA9096300DBE1AAB8C&assignmentId=7332957a-f8c8-437e-a4c6-6595ee853edc&projectId=5e631737-0fa4-44a6-b227-7ba1d7345015","97C7CEDA6B8043BA9096300DBE1AAB8C-2025-05-27-18-30-16","","1226","","images/semantic_sequence/creative_activities_semantic/creative_activities_semantic_2.png","0","",""
"","","","","","image-button-response","91","522946","0.0-14.0-1.0-2.0","97C7CEDA6B8043BA9096300DBE1AAB8C","97C7CEDA6B8043BA9096300DBE1AAB8C","7332957a-f8c8-437e-a4c6-6595ee853edc","5e631737-0fa4-44a6-b227-7ba1d7345015","{""num_scrambled_semantic"":""8"",""num_scrambled_causal"":""4"",""num_scrambled_schematic"":""4"",""participantId"":""97C7CEDA6B8043BA9096300DBE1AAB8C"",""assignmentId"":""7332957a-f8c8-437e-a4c6-6595ee853edc"",""projectId"":""5e631737-0fa4-44a6-b227-7ba1d7345015""}","https://test12345.live/?num_scrambled_semantic=8&num_scrambled_causal=4&num_scrambled_schematic=4&participantId=97C7CEDA6B8043BA9096300DBE1AAB8C&assignmentId=7332957a-f8c8-437e-a4c6-6595ee853edc&projectId=5e631737-0fa4-44a6-b227-7ba1d7345015","97C7CEDA6B8043BA9096300DBE1AAB8C-2025-05-27-18-30-16","","null","","[]","null","",""
"","","","","","image-button-response","92","527449","0.0-14.0-1.0-0.1","97C7CEDA6B8043BA9096300DBE1AAB8C","97C7CEDA6B8043BA9096300DBE1AAB8C","7332957a-f8c8-437e-a4c6-6595ee853edc","5e631737-0fa4-44a6-b227-7ba1d7345015","{""num_scrambled_semantic"":""8"",""num_scrambled_causal"":""4"",""num_scrambled_schematic"":""4"",""participantId"":""97C7CEDA6B8043BA9096300DBE1AAB8C"",""assignmentId"":""7332957a-f8c8-437e-a4c6-6595ee853edc"",""projectId"":""5e631737-0fa4-44a6-b227-7ba1d7345015""}","https://test12345.live/?num_scrambled_semantic=8&num_scrambled_causal=4&num_scrambled_schematic=4&participantId=97C7CEDA6B8043BA9096300DBE1AAB8C&assignmentId=7332957a-f8c8-437e-a4c6-6595ee853edc&projectId=5e631737-0fa4-44a6-b227-7ba1d7345015","97C7CEDA6B8043BA9096300DBE1AAB8C-2025-05-27-18-30-16","","null","","images/semantic_sequence/creative_activities_semantic/creative_activities_semantic_3.png","null","",""
"","","","","","image-button-response","93","528012","0.0-14.0-1.0-1.1","97C7CEDA6B8043BA9096300DBE1AAB8C","97C7CEDA6B8043BA9096300DBE1AAB8C","7332957a-f8c8-437e-a4c6-6595ee853edc","5e631737-0fa4-44a6-b227-7ba1d7345015","{""num_scrambled_semantic"":""8"",""num_scrambled_causal"":""4"",""num_scrambled_schematic"":""4"",""participantId"":""97C7CEDA6B8043BA9096300DBE1AAB8C"",""assignmentId"":""7332957a-f8c8-437e-a4c6-6595ee853edc"",""projectId"":""5e631737-0fa4-44a6-b227-7ba1d7345015""}","https://test12345.live/?num_scrambled_semantic=8&num_scrambled_causal=4&num_scrambled_schematic=4&participantId=97C7CEDA6B8043BA9096300DBE1AAB8C&assignmentId=7332957a-f8c8-437e-a4c6-6595ee853edc&projectId=5e631737-0fa4-44a6-b227-7ba1d7345015","97C7CEDA6B8043BA9096300DBE1AAB8C-2025-05-27-18-30-16","","562","","images/semantic_sequence/creative_activities_semantic/creative_activities_semantic_3.png","0","",""
"","","","","","image-button-response","94","529815","0.0-14.0-1.0-2.1","97C7CEDA6B8043BA9096300DBE1AAB8C","97C7CEDA6B8043BA9096300DBE1AAB8C","7332957a-f8c8-437e-a4c6-6595ee853edc","5e631737-0fa4-44a6-b227-7ba1d7345015","{""num_scrambled_semantic"":""8"",""num_scrambled_causal"":""4"",""num_scrambled_schematic"":""4"",""participantId"":""97C7CEDA6B8043BA9096300DBE1AAB8C"",""assignmentId"":""7332957a-f8c8-437e-a4c6-6595ee853edc"",""projectId"":""5e631737-0fa4-44a6-b227-7ba1d7345015""}","https://test12345.live/?num_scrambled_semantic=8&num_scrambled_causal=4&num_scrambled_schematic=4&participantId=97C7CEDA6B8043BA9096300DBE1AAB8C&assignmentId=7332957a-f8c8-437e-a4c6-6595ee853edc&projectId=5e631737-0fa4-44a6-b227-7ba1d7345015","97C7CEDA6B8043BA9096300DBE1AAB8C-2025-05-27-18-30-16","","null","","[]","null","",""
"","","","","","image-button-response","95","534317","0.0-14.0-1.0-0.2","97C7CEDA6B8043BA9096300DBE1AAB8C","97C7CEDA6B8043BA9096300DBE1AAB8C","7332957a-f8c8-437e-a4c6-6595ee853edc","5e631737-0fa4-44a6-b227-7ba1d7345015","{""num_scrambled_semantic"":""8"",""num_scrambled_causal"":""4"",""num_scrambled_schematic"":""4"",""participantId"":""97C7CEDA6B8043BA9096300DBE1AAB8C"",""assignmentId"":""7332957a-f8c8-437e-a4c6-6595ee853edc"",""projectId"":""5e631737-0fa4-44a6-b227-7ba1d7345015""}","https://test12345.live/?num_scrambled_semantic=8&num_scrambled_causal=4&num_scrambled_schematic=4&participantId=97C7CEDA6B8043BA9096300DBE1AAB8C&assignmentId=7332957a-f8c8-437e-a4c6-6595ee853edc&projectId=5e631737-0fa4-44a6-b227-7ba1d7345015","97C7CEDA6B8043BA9096300DBE1AAB8C-2025-05-27-18-30-16","","null","","images/semantic_sequence/creative_activities_semantic/creative_activities_semantic_5.png","null","",""
"","","","","","image-button-response","96","535258","0.0-14.0-1.0-1.2","97C7CEDA6B8043BA9096300DBE1AAB8C","97C7CEDA6B8043BA9096300DBE1AAB8C","7332957a-f8c8-437e-a4c6-6595ee853edc","5e631737-0fa4-44a6-b227-7ba1d7345015","{""num_scrambled_semantic"":""8"",""num_scrambled_causal"":""4"",""num_scrambled_schematic"":""4"",""participantId"":""97C7CEDA6B8043BA9096300DBE1AAB8C"",""assignmentId"":""7332957a-f8c8-437e-a4c6-6595ee853edc"",""projectId"":""5e631737-0fa4-44a6-b227-7ba1d7345015""}","https://test12345.live/?num_scrambled_semantic=8&num_scrambled_causal=4&num_scrambled_schematic=4&participantId=97C7CEDA6B8043BA9096300DBE1AAB8C&assignmentId=7332957a-f8c8-437e-a4c6-6595ee853edc&projectId=5e631737-0fa4-44a6-b227-7ba1d7345015","97C7CEDA6B8043BA9096300DBE1AAB8C-2025-05-27-18-30-16","","939","","images/semantic_sequence/creative_activities_semantic/creative_activities_semantic_5.png","0","",""
"","","","","","image-button-response","97","537061","0.0-14.0-1.0-2.2","97C7CEDA6B8043BA9096300DBE1AAB8C","97C7CEDA6B8043BA9096300DBE1AAB8C","7332957a-f8c8-437e-a4c6-6595ee853edc","5e631737-0fa4-44a6-b227-7ba1d7345015","{""num_scrambled_semantic"":""8"",""num_scrambled_causal"":""4"",""num_scrambled_schematic"":""4"",""participantId"":""97C7CEDA6B8043BA9096300DBE1AAB8C"",""assignmentId"":""7332957a-f8c8-437e-a4c6-6595ee853edc"",""projectId"":""5e631737-0fa4-44a6-b227-7ba1d7345015""}","https://test12345.live/?num_scrambled_semantic=8&num_scrambled_causal=4&num_scrambled_schematic=4&participantId=97C7CEDA6B8043BA9096300DBE1AAB8C&assignmentId=7332957a-f8c8-437e-a4c6-6595ee853edc&projectId=5e631737-0fa4-44a6-b227-7ba1d7345015","97C7CEDA6B8043BA9096300DBE1AAB8C-2025-05-27-18-30-16","","null","","[]","null","",""
"","","","","","image-button-response","98","541564","0.0-14.0-1.0-0.3","97C7CEDA6B8043BA9096300DBE1AAB8C","97C7CEDA6B8043BA9096300DBE1AAB8C","7332957a-f8c8-437e-a4c6-6595ee853edc","5e631737-0fa4-44a6-b227-7ba1d7345015","{""num_scrambled_semantic"":""8"",""num_scrambled_causal"":""4"",""num_scrambled_schematic"":""4"",""participantId"":""97C7CEDA6B8043BA9096300DBE1AAB8C"",""assignmentId"":""7332957a-f8c8-437e-a4c6-6595ee853edc"",""projectId"":""5e631737-0fa4-44a6-b227-7ba1d7345015""}","https://test12345.live/?num_scrambled_semantic=8&num_scrambled_causal=4&num_scrambled_schematic=4&participantId=97C7CEDA6B8043BA9096300DBE1AAB8C&assignmentId=7332957a-f8c8-437e-a4c6-6595ee853edc&projectId=5e631737-0fa4-44a6-b227-7ba1d7345015","97C7CEDA6B8043BA9096300DBE1AAB8C-2025-05-27-18-30-16","","null","","images/semantic_sequence/creative_activities_semantic/creative_activities_semantic_9.png","null","",""
"","","","","","image-button-response","99","542952","0.0-14.0-1.0-1.3","97C7CEDA6B8043BA9096300DBE1AAB8C","97C7CEDA6B8043BA9096300DBE1AAB8C","7332957a-f8c8-437e-a4c6-6595ee853edc","5e631737-0fa4-44a6-b227-7ba1d7345015","{""num_scrambled_semantic"":""8"",""num_scrambled_causal"":""4"",""num_scrambled_schematic"":""4"",""participantId"":""97C7CEDA6B8043BA9096300DBE1AAB8C"",""assignmentId"":""7332957a-f8c8-437e-a4c6-6595ee853edc"",""projectId"":""5e631737-0fa4-44a6-b227-7ba1d7345015""}","https://test12345.live/?num_scrambled_semantic=8&num_scrambled_causal=4&num_scrambled_schematic=4&participantId=97C7CEDA6B8043BA9096300DBE1AAB8C&assignmentId=7332957a-f8c8-437e-a4c6-6595ee853edc&projectId=5e631737-0fa4-44a6-b227-7ba1d7345015","97C7CEDA6B8043BA9096300DBE1AAB8C-2025-05-27-18-30-16","","1386","","images/semantic_sequence/creative_activities_semantic/creative_activities_semantic_9.png","0","",""
"","","","","","image-button-response","100","544756","0.0-14.0-1.0-2.3","97C7CEDA6B8043BA9096300DBE1AAB8C","97C7CEDA6B8043BA9096300DBE1AAB8C","7332957a-f8c8-437e-a4c6-6595ee853edc","5e631737-0fa4-44a6-b227-7ba1d7345015","{""num_scrambled_semantic"":""8"",""num_scrambled_causal"":""4"",""num_scrambled_schematic"":""4"",""participantId"":""97C7CEDA6B8043BA9096300DBE1AAB8C"",""assignmentId"":""7332957a-f8c8-437e-a4c6-6595ee853edc"",""projectId"":""5e631737-0fa4-44a6-b227-7ba1d7345015""}","https://test12345.live/?num_scrambled_semantic=8&num_scrambled_causal=4&num_scrambled_schematic=4&participantId=97C7CEDA6B8043BA9096300DBE1AAB8C&assignmentId=7332957a-f8c8-437e-a4c6-6595ee853edc&projectId=5e631737-0fa4-44a6-b227-7ba1d7345015","97C7CEDA6B8043BA9096300DBE1AAB8C-2025-05-27-18-30-16","","null","","[]","null","",""
"","","","","","image-button-response","101","549258","0.0-14.0-1.0-0.4","97C7CEDA6B8043BA9096300DBE1AAB8C","97C7CEDA6B8043BA9096300DBE1AAB8C","7332957a-f8c8-437e-a4c6-6595ee853edc","5e631737-0fa4-44a6-b227-7ba1d7345015","{""num_scrambled_semantic"":""8"",""num_scrambled_causal"":""4"",""num_scrambled_schematic"":""4"",""participantId"":""97C7CEDA6B8043BA9096300DBE1AAB8C"",""assignmentId"":""7332957a-f8c8-437e-a4c6-6595ee853edc"",""projectId"":""5e631737-0fa4-44a6-b227-7ba1d7345015""}","https://test12345.live/?num_scrambled_semantic=8&num_scrambled_causal=4&num_scrambled_schematic=4&participantId=97C7CEDA6B8043BA9096300DBE1AAB8C&assignmentId=7332957a-f8c8-437e-a4c6-6595ee853edc&projectId=5e631737-0fa4-44a6-b227-7ba1d7345015","97C7CEDA6B8043BA9096300DBE1AAB8C-2025-05-27-18-30-16","","null","","images/semantic_sequence/creative_activities_semantic/creative_activities_semantic_7.png","null","",""
"","","","","","image-button-response","102","550033","0.0-14.0-1.0-1.4","97C7CEDA6B8043BA9096300DBE1AAB8C","97C7CEDA6B8043BA9096300DBE1AAB8C","7332957a-f8c8-437e-a4c6-6595ee853edc","5e631737-0fa4-44a6-b227-7ba1d7345015","{""num_scrambled_semantic"":""8"",""num_scrambled_causal"":""4"",""num_scrambled_schematic"":""4"",""participantId"":""97C7CEDA6B8043BA9096300DBE1AAB8C"",""assignmentId"":""7332957a-f8c8-437e-a4c6-6595ee853edc"",""projectId"":""5e631737-0fa4-44a6-b227-7ba1d7345015""}","https://test12345.live/?num_scrambled_semantic=8&num_scrambled_causal=4&num_scrambled_schematic=4&participantId=97C7CEDA6B8043BA9096300DBE1AAB8C&assignmentId=7332957a-f8c8-437e-a4c6-6595ee853edc&projectId=5e631737-0fa4-44a6-b227-7ba1d7345015","97C7CEDA6B8043BA9096300DBE1AAB8C-2025-05-27-18-30-16","","772","","images/semantic_sequence/creative_activities_semantic/creative_activities_semantic_7.png","0","",""
"","","","","","image-button-response","103","551835","0.0-14.0-1.0-2.4","97C7CEDA6B8043BA9096300DBE1AAB8C","97C7CEDA6B8043BA9096300DBE1AAB8C","7332957a-f8c8-437e-a4c6-6595ee853edc","5e631737-0fa4-44a6-b227-7ba1d7345015","{""num_scrambled_semantic"":""8"",""num_scrambled_causal"":""4"",""num_scrambled_schematic"":""4"",""participantId"":""97C7CEDA6B8043BA9096300DBE1AAB8C"",""assignmentId"":""7332957a-f8c8-437e-a4c6-6595ee853edc"",""projectId"":""5e631737-0fa4-44a6-b227-7ba1d7345015""}","https://test12345.live/?num_scrambled_semantic=8&num_scrambled_causal=4&num_scrambled_schematic=4&participantId=97C7CEDA6B8043BA9096300DBE1AAB8C&assignmentId=7332957a-f8c8-437e-a4c6-6595ee853edc&projectId=5e631737-0fa4-44a6-b227-7ba1d7345015","97C7CEDA6B8043BA9096300DBE1AAB8C-2025-05-27-18-30-16","","null","","[]","null","",""
"","","","","","image-button-response","104","556338","0.0-14.0-1.0-0.5","97C7CEDA6B8043BA9096300DBE1AAB8C","97C7CEDA6B8043BA9096300DBE1AAB8C","7332957a-f8c8-437e-a4c6-6595ee853edc","5e631737-0fa4-44a6-b227-7ba1d7345015","{""num_scrambled_semantic"":""8"",""num_scrambled_causal"":""4"",""num_scrambled_schematic"":""4"",""participantId"":""97C7CEDA6B8043BA9096300DBE1AAB8C"",""assignmentId"":""7332957a-f8c8-437e-a4c6-6595ee853edc"",""projectId"":""5e631737-0fa4-44a6-b227-7ba1d7345015""}","https://test12345.live/?num_scrambled_semantic=8&num_scrambled_causal=4&num_scrambled_schematic=4&participantId=97C7CEDA6B8043BA9096300DBE1AAB8C&assignmentId=7332957a-f8c8-437e-a4c6-6595ee853edc&projectId=5e631737-0fa4-44a6-b227-7ba1d7345015","97C7CEDA6B8043BA9096300DBE1AAB8C-2025-05-27-18-30-16","","null","","images/semantic_sequence/creative_activities_semantic/creative_activities_semantic_6.png","null","",""
"","","","","","image-button-response","105","557279","0.0-14.0-1.0-1.5","97C7CEDA6B8043BA9096300DBE1AAB8C","97C7CEDA6B8043BA9096300DBE1AAB8C","7332957a-f8c8-437e-a4c6-6595ee853edc","5e631737-0fa4-44a6-b227-7ba1d7345015","{""num_scrambled_semantic"":""8"",""num_scrambled_causal"":""4"",""num_scrambled_schematic"":""4"",""participantId"":""97C7CEDA6B8043BA9096300DBE1AAB8C"",""assignmentId"":""7332957a-f8c8-437e-a4c6-6595ee853edc"",""projectId"":""5e631737-0fa4-44a6-b227-7ba1d7345015""}","https://test12345.live/?num_scrambled_semantic=8&num_scrambled_causal=4&num_scrambled_schematic=4&participantId=97C7CEDA6B8043BA9096300DBE1AAB8C&assignmentId=7332957a-f8c8-437e-a4c6-6595ee853edc&projectId=5e631737-0fa4-44a6-b227-7ba1d7345015","97C7CEDA6B8043BA9096300DBE1AAB8C-2025-05-27-18-30-16","","939","","images/semantic_sequence/creative_activities_semantic/creative_activities_semantic_6.png","0","",""
"","","","","","image-button-response","106","559082","0.0-14.0-1.0-2.5","97C7CEDA6B8043BA9096300DBE1AAB8C","97C7CEDA6B8043BA9096300DBE1AAB8C","7332957a-f8c8-437e-a4c6-6595ee853edc","5e631737-0fa4-44a6-b227-7ba1d7345015","{""num_scrambled_semantic"":""8"",""num_scrambled_causal"":""4"",""num_scrambled_schematic"":""4"",""participantId"":""97C7CEDA6B8043BA9096300DBE1AAB8C"",""assignmentId"":""7332957a-f8c8-437e-a4c6-6595ee853edc"",""projectId"":""5e631737-0fa4-44a6-b227-7ba1d7345015""}","https://test12345.live/?num_scrambled_semantic=8&num_scrambled_causal=4&num_scrambled_schematic=4&participantId=97C7CEDA6B8043BA9096300DBE1AAB8C&assignmentId=7332957a-f8c8-437e-a4c6-6595ee853edc&projectId=5e631737-0fa4-44a6-b227-7ba1d7345015","97C7CEDA6B8043BA9096300DBE1AAB8C-2025-05-27-18-30-16","","null","","[]","null","",""
"","","","","","image-button-response","107","563585","0.0-14.0-1.0-0.6","97C7CEDA6B8043BA9096300DBE1AAB8C","97C7CEDA6B8043BA9096300DBE1AAB8C","7332957a-f8c8-437e-a4c6-6595ee853edc","5e631737-0fa4-44a6-b227-7ba1d7345015","{""num_scrambled_semantic"":""8"",""num_scrambled_causal"":""4"",""num_scrambled_schematic"":""4"",""participantId"":""97C7CEDA6B8043BA9096300DBE1AAB8C"",""assignmentId"":""7332957a-f8c8-437e-a4c6-6595ee853edc"",""projectId"":""5e631737-0fa4-44a6-b227-7ba1d7345015""}","https://test12345.live/?num_scrambled_semantic=8&num_scrambled_causal=4&num_scrambled_schematic=4&participantId=97C7CEDA6B8043BA9096300DBE1AAB8C&assignmentId=7332957a-f8c8-437e-a4c6-6595ee853edc&projectId=5e631737-0fa4-44a6-b227-7ba1d7345015","97C7CEDA6B8043BA9096300DBE1AAB8C-2025-05-27-18-30-16","","null","","images/semantic_sequence/creative_activities_semantic/creative_activities_semantic_1.png","null","",""
"","","","","","image-button-response","108","564223","0.0-14.0-1.0-1.6","97C7CEDA6B8043BA9096300DBE1AAB8C","97C7CEDA6B8043BA9096300DBE1AAB8C","7332957a-f8c8-437e-a4c6-6595ee853edc","5e631737-0fa4-44a6-b227-7ba1d7345015","{""num_scrambled_semantic"":""8"",""num_scrambled_causal"":""4"",""num_scrambled_schematic"":""4"",""participantId"":""97C7CEDA6B8043BA9096300DBE1AAB8C"",""assignmentId"":""7332957a-f8c8-437e-a4c6-6595ee853edc"",""projectId"":""5e631737-0fa4-44a6-b227-7ba1d7345015""}","https://test12345.live/?num_scrambled_semantic=8&num_scrambled_causal=4&num_scrambled_schematic=4&participantId=97C7CEDA6B8043BA9096300DBE1AAB8C&assignmentId=7332957a-f8c8-437e-a4c6-6595ee853edc&projectId=5e631737-0fa4-44a6-b227-7ba1d7345015","97C7CEDA6B8043BA9096300DBE1AAB8C-2025-05-27-18-30-16","","635","","images/semantic_sequence/creative_activities_semantic/creative_activities_semantic_1.png","0","",""
"","","","","","image-button-response","109","566025","0.0-14.0-1.0-2.6","97C7CEDA6B8043BA9096300DBE1AAB8C","97C7CEDA6B8043BA9096300DBE1AAB8C","7332957a-f8c8-437e-a4c6-6595ee853edc","5e631737-0fa4-44a6-b227-7ba1d7345015","{""num_scrambled_semantic"":""8"",""num_scrambled_causal"":""4"",""num_scrambled_schematic"":""4"",""participantId"":""97C7CEDA6B8043BA9096300DBE1AAB8C"",""assignmentId"":""7332957a-f8c8-437e-a4c6-6595ee853edc"",""projectId"":""5e631737-0fa4-44a6-b227-7ba1d7345015""}","https://test12345.live/?num_scrambled_semantic=8&num_scrambled_causal=4&num_scrambled_schematic=4&participantId=97C7CEDA6B8043BA9096300DBE1AAB8C&assignmentId=7332957a-f8c8-437e-a4c6-6595ee853edc&projectId=5e631737-0fa4-44a6-b227-7ba1d7345015","97C7CEDA6B8043BA9096300DBE1AAB8C-2025-05-27-18-30-16","","null","","[]","null","",""
"","","","","","image-button-response","110","570528","0.0-14.0-1.0-0.7","97C7CEDA6B8043BA9096300DBE1AAB8C","97C7CEDA6B8043BA9096300DBE1AAB8C","7332957a-f8c8-437e-a4c6-6595ee853edc","5e631737-0fa4-44a6-b227-7ba1d7345015","{""num_scrambled_semantic"":""8"",""num_scrambled_causal"":""4"",""num_scrambled_schematic"":""4"",""participantId"":""97C7CEDA6B8043BA9096300DBE1AAB8C"",""assignmentId"":""7332957a-f8c8-437e-a4c6-6595ee853edc"",""projectId"":""5e631737-0fa4-44a6-b227-7ba1d7345015""}","https://test12345.live/?num_scrambled_semantic=8&num_scrambled_causal=4&num_scrambled_schematic=4&participantId=97C7CEDA6B8043BA9096300DBE1AAB8C&assignmentId=7332957a-f8c8-437e-a4c6-6595ee853edc&projectId=5e631737-0fa4-44a6-b227-7ba1d7345015","97C7CEDA6B8043BA9096300DBE1AAB8C-2025-05-27-18-30-16","","null","","images/semantic_sequence/creative_activities_semantic/creative_activities_semantic_ten.png","null","",""
"","","","","","image-button-response","111","571390","0.0-14.0-1.0-1.7","97C7CEDA6B8043BA9096300DBE1AAB8C","97C7CEDA6B8043BA9096300DBE1AAB8C","7332957a-f8c8-437e-a4c6-6595ee853edc","5e631737-0fa4-44a6-b227-7ba1d7345015","{""num_scrambled_semantic"":""8"",""num_scrambled_causal"":""4"",""num_scrambled_schematic"":""4"",""participantId"":""97C7CEDA6B8043BA9096300DBE1AAB8C"",""assignmentId"":""7332957a-f8c8-437e-a4c6-6595ee853edc"",""projectId"":""5e631737-0fa4-44a6-b227-7ba1d7345015""}","https://test12345.live/?num_scrambled_semantic=8&num_scrambled_causal=4&num_scrambled_schematic=4&participantId=97C7CEDA6B8043BA9096300DBE1AAB8C&assignmentId=7332957a-f8c8-437e-a4c6-6595ee853edc&projectId=5e631737-0fa4-44a6-b227-7ba1d7345015","97C7CEDA6B8043BA9096300DBE1AAB8C-2025-05-27-18-30-16","","860","","images/semantic_sequence/creative_activities_semantic/creative_activities_semantic_ten.png","0","",""
"","","","","","image-button-response","112","573192","0.0-14.0-1.0-2.7","97C7CEDA6B8043BA9096300DBE1AAB8C","97C7CEDA6B8043BA9096300DBE1AAB8C","7332957a-f8c8-437e-a4c6-6595ee853edc","5e631737-0fa4-44a6-b227-7ba1d7345015","{""num_scrambled_semantic"":""8"",""num_scrambled_causal"":""4"",""num_scrambled_schematic"":""4"",""participantId"":""97C7CEDA6B8043BA9096300DBE1AAB8C"",""assignmentId"":""7332957a-f8c8-437e-a4c6-6595ee853edc"",""projectId"":""5e631737-0fa4-44a6-b227-7ba1d7345015""}","https://test12345.live/?num_scrambled_semantic=8&num_scrambled_causal=4&num_scrambled_schematic=4&participantId=97C7CEDA6B8043BA9096300DBE1AAB8C&assignmentId=7332957a-f8c8-437e-a4c6-6595ee853edc&projectId=5e631737-0fa4-44a6-b227-7ba1d7345015","97C7CEDA6B8043BA9096300DBE1AAB8C-2025-05-27-18-30-16","","null","","[]","null","",""
"","","","","","image-button-response","113","577695","0.0-14.0-1.0-0.8","97C7CEDA6B8043BA9096300DBE1AAB8C","97C7CEDA6B8043BA9096300DBE1AAB8C","7332957a-f8c8-437e-a4c6-6595ee853edc","5e631737-0fa4-44a6-b227-7ba1d7345015","{""num_scrambled_semantic"":""8"",""num_scrambled_causal"":""4"",""num_scrambled_schematic"":""4"",""participantId"":""97C7CEDA6B8043BA9096300DBE1AAB8C"",""assignmentId"":""7332957a-f8c8-437e-a4c6-6595ee853edc"",""projectId"":""5e631737-0fa4-44a6-b227-7ba1d7345015""}","https://test12345.live/?num_scrambled_semantic=8&num_scrambled_causal=4&num_scrambled_schematic=4&participantId=97C7CEDA6B8043BA9096300DBE1AAB8C&assignmentId=7332957a-f8c8-437e-a4c6-6595ee853edc&projectId=5e631737-0fa4-44a6-b227-7ba1d7345015","97C7CEDA6B8043BA9096300DBE1AAB8C-2025-05-27-18-30-16","","null","","images/semantic_sequence/creative_activities_semantic/creative_activities_semantic_4.png","null","",""
