"success","timeout","failed_images","failed_audio","failed_video","trial_type","trial_index","time_elapsed","internal_node_id","subject","subject_id","study_id","session_id","urlvar","current_url","audio_id","view_history","rt","device_id","stimulus","response","estimated_stimulus_onset","seq_name"
"true","false","[]","[]","[]","preload","0","16793","0.0-0.0","98C16A8BE0E143998A224A5676B7C245","98C16A8BE0E143998A224A5676B7C245","34a350ff-3e85-43bf-92e7-2dcc5dc55631","6487686c-d5c6-46ca-8906-b38f097f73ac","{""participantId"":""98C16A8BE0E143998A224A5676B7C245"",""assignmentId"":""34a350ff-3e85-43bf-92e7-2dcc5dc55631"",""projectId"":""6487686c-d5c6-46ca-8906-b38f097f73ac""}","https://test12345.live/?participantId=98C16A8BE0E143998A224A5676B7C245&assignmentId=34a350ff-3e85-43bf-92e7-2dcc5dc55631&projectId=6487686c-d5c6-46ca-8906-b38f097f73ac","98C16A8BE0E143998A224A5676B7C245-2025-05-12-22-41-49","","","","","","",""
"","","","","","instructions","1","33760","0.0-1.0","98C16A8BE0E143998A224A5676B7C245","98C16A8BE0E143998A224A5676B7C245","34a350ff-3e85-43bf-92e7-2dcc5dc55631","6487686c-d5c6-46ca-8906-b38f097f73ac","{""participantId"":""98C16A8BE0E143998A224A5676B7C245"",""assignmentId"":""34a350ff-3e85-43bf-92e7-2dcc5dc55631"",""projectId"":""6487686c-d5c6-46ca-8906-b38f097f73ac""}","https://test12345.live/?participantId=98C16A8BE0E143998A224A5676B7C245&assignmentId=34a350ff-3e85-43bf-92e7-2dcc5dc55631&projectId=6487686c-d5c6-46ca-8906-b38f097f73ac","98C16A8BE0E143998A224A5676B7C245-2025-05-12-22-41-49","[{""page_index"":0,""viewing_time"":16967}]","16967","","","","",""
"","","","","","instructions","2","43496","0.0-2.0","98C16A8BE0E143998A224A5676B7C245","98C16A8BE0E143998A224A5676B7C245","34a350ff-3e85-43bf-92e7-2dcc5dc55631","6487686c-d5c6-46ca-8906-b38f097f73ac","{""participantId"":""98C16A8BE0E143998A224A5676B7C245"",""assignmentId"":""34a350ff-3e85-43bf-92e7-2dcc5dc55631"",""projectId"":""6487686c-d5c6-46ca-8906-b38f097f73ac""}","https://test12345.live/?participantId=98C16A8BE0E143998A224A5676B7C245&assignmentId=34a350ff-3e85-43bf-92e7-2dcc5dc55631&projectId=6487686c-d5c6-46ca-8906-b38f097f73ac","98C16A8BE0E143998A224A5676B7C245-2025-05-12-22-41-49","[{""page_index"":0,""viewing_time"":9736}]","9736","","","","",""
"true","","","","","fullscreen","3","46699","0.0-3.0","98C16A8BE0E143998A224A5676B7C245","98C16A8BE0E143998A224A5676B7C245","34a350ff-3e85-43bf-92e7-2dcc5dc55631","6487686c-d5c6-46ca-8906-b38f097f73ac","{""participantId"":""98C16A8BE0E143998A224A5676B7C245"",""assignmentId"":""34a350ff-3e85-43bf-92e7-2dcc5dc55631"",""projectId"":""6487686c-d5c6-46ca-8906-b38f097f73ac""}","https://test12345.live/?participantId=98C16A8BE0E143998A224A5676B7C245&assignmentId=34a350ff-3e85-43bf-92e7-2dcc5dc55631&projectId=6487686c-d5c6-46ca-8906-b38f097f73ac","98C16A8BE0E143998A224A5676B7C245-2025-05-12-22-41-49","","2200","","","","",""
"","","","","","initialize-microphone","4","55424","0.0-4.0-0.0","98C16A8BE0E143998A224A5676B7C245","98C16A8BE0E143998A224A5676B7C245","34a350ff-3e85-43bf-92e7-2dcc5dc55631","6487686c-d5c6-46ca-8906-b38f097f73ac","{""participantId"":""98C16A8BE0E143998A224A5676B7C245"",""assignmentId"":""34a350ff-3e85-43bf-92e7-2dcc5dc55631"",""projectId"":""6487686c-d5c6-46ca-8906-b38f097f73ac""}","https://test12345.live/?participantId=98C16A8BE0E143998A224A5676B7C245&assignmentId=34a350ff-3e85-43bf-92e7-2dcc5dc55631&projectId=6487686c-d5c6-46ca-8906-b38f097f73ac","98C16A8BE0E143998A224A5676B7C245-2025-05-12-22-41-49","","","77f373d2c315de7991281fa991aa4a7a33e666da3b79b59b48d41f17f4dcae85","","","",""
"","","","","","html-audio-response","5","72406","0.0-4.0-1.0","98C16A8BE0E143998A224A5676B7C245","98C16A8BE0E143998A224A5676B7C245","34a350ff-3e85-43bf-92e7-2dcc5dc55631","6487686c-d5c6-46ca-8906-b38f097f73ac","{""participantId"":""98C16A8BE0E143998A224A5676B7C245"",""assignmentId"":""34a350ff-3e85-43bf-92e7-2dcc5dc55631"",""projectId"":""6487686c-d5c6-46ca-8906-b38f097f73ac""}","https://test12345.live/?participantId=98C16A8BE0E143998A224A5676B7C245&assignmentId=34a350ff-3e85-43bf-92e7-2dcc5dc55631&projectId=6487686c-d5c6-46ca-8906-b38f097f73ac","98C16A8BE0E143998A224A5676B7C245-2025-05-12-22-41-49","","6213","","<span style=""color: red; font-size: 24px""> NOW RECORDING</span>
        <p>Please test Microphone</p>","","1",""
"","","","","","html-button-response","6","74473","0.0-4.0-2.0","98C16A8BE0E143998A224A5676B7C245","98C16A8BE0E143998A224A5676B7C245","34a350ff-3e85-43bf-92e7-2dcc5dc55631","6487686c-d5c6-46ca-8906-b38f097f73ac","{""participantId"":""98C16A8BE0E143998A224A5676B7C245"",""assignmentId"":""34a350ff-3e85-43bf-92e7-2dcc5dc55631"",""projectId"":""6487686c-d5c6-46ca-8906-b38f097f73ac""}","https://test12345.live/?participantId=98C16A8BE0E143998A224A5676B7C245&assignmentId=34a350ff-3e85-43bf-92e7-2dcc5dc55631&projectId=6487686c-d5c6-46ca-8906-b38f097f73ac","98C16A8BE0E143998A224A5676B7C245-2025-05-12-22-41-49","","2066","","<p style=""font-size:48px; color:red;"">Is Microphone OK?</p>","1","",""
"","","","","","instructions","7","94130","0.0-5.0","98C16A8BE0E143998A224A5676B7C245","98C16A8BE0E143998A224A5676B7C245","34a350ff-3e85-43bf-92e7-2dcc5dc55631","6487686c-d5c6-46ca-8906-b38f097f73ac","{""participantId"":""98C16A8BE0E143998A224A5676B7C245"",""assignmentId"":""34a350ff-3e85-43bf-92e7-2dcc5dc55631"",""projectId"":""6487686c-d5c6-46ca-8906-b38f097f73ac""}","https://test12345.live/?participantId=98C16A8BE0E143998A224A5676B7C245&assignmentId=34a350ff-3e85-43bf-92e7-2dcc5dc55631&projectId=6487686c-d5c6-46ca-8906-b38f097f73ac","98C16A8BE0E143998A224A5676B7C245-2025-05-12-22-41-49","[{""page_index"":0,""viewing_time"":13754},{""page_index"":1,""viewing_time"":5902}]","19656","","","","",""
"","","","","","image-button-response","8","100134","0.0-6.0-0.0","98C16A8BE0E143998A224A5676B7C245","98C16A8BE0E143998A224A5676B7C245","34a350ff-3e85-43bf-92e7-2dcc5dc55631","6487686c-d5c6-46ca-8906-b38f097f73ac","{""participantId"":""98C16A8BE0E143998A224A5676B7C245"",""assignmentId"":""34a350ff-3e85-43bf-92e7-2dcc5dc55631"",""projectId"":""6487686c-d5c6-46ca-8906-b38f097f73ac""}","https://test12345.live/?participantId=98C16A8BE0E143998A224A5676B7C245&assignmentId=34a350ff-3e85-43bf-92e7-2dcc5dc55631&projectId=6487686c-d5c6-46ca-8906-b38f097f73ac","98C16A8BE0E143998A224A5676B7C245-2025-05-12-22-41-49","","null","","images/instructions/movie_0.png","null","",""
"","","","","","image-button-response","9","104637","0.0-6.0-1.0-0.0","98C16A8BE0E143998A224A5676B7C245","98C16A8BE0E143998A224A5676B7C245","34a350ff-3e85-43bf-92e7-2dcc5dc55631","6487686c-d5c6-46ca-8906-b38f097f73ac","{""participantId"":""98C16A8BE0E143998A224A5676B7C245"",""assignmentId"":""34a350ff-3e85-43bf-92e7-2dcc5dc55631"",""projectId"":""6487686c-d5c6-46ca-8906-b38f097f73ac""}","https://test12345.live/?participantId=98C16A8BE0E143998A224A5676B7C245&assignmentId=34a350ff-3e85-43bf-92e7-2dcc5dc55631&projectId=6487686c-d5c6-46ca-8906-b38f097f73ac","98C16A8BE0E143998A224A5676B7C245-2025-05-12-22-41-49","","null","","images/instructions/movie_1.png","null","",""
"","","","","","image-button-response","10","107318","0.0-6.0-1.0-1.0","98C16A8BE0E143998A224A5676B7C245","98C16A8BE0E143998A224A5676B7C245","34a350ff-3e85-43bf-92e7-2dcc5dc55631","6487686c-d5c6-46ca-8906-b38f097f73ac","{""participantId"":""98C16A8BE0E143998A224A5676B7C245"",""assignmentId"":""34a350ff-3e85-43bf-92e7-2dcc5dc55631"",""projectId"":""6487686c-d5c6-46ca-8906-b38f097f73ac""}","https://test12345.live/?participantId=98C16A8BE0E143998A224A5676B7C245&assignmentId=34a350ff-3e85-43bf-92e7-2dcc5dc55631&projectId=6487686c-d5c6-46ca-8906-b38f097f73ac","98C16A8BE0E143998A224A5676B7C245-2025-05-12-22-41-49","","2680","","images/instructions/movie_1.png","0","",""
"","","","","","image-button-response","11","109123","0.0-6.0-1.0-2.0","98C16A8BE0E143998A224A5676B7C245","98C16A8BE0E143998A224A5676B7C245","34a350ff-3e85-43bf-92e7-2dcc5dc55631","6487686c-d5c6-46ca-8906-b38f097f73ac","{""participantId"":""98C16A8BE0E143998A224A5676B7C245"",""assignmentId"":""34a350ff-3e85-43bf-92e7-2dcc5dc55631"",""projectId"":""6487686c-d5c6-46ca-8906-b38f097f73ac""}","https://test12345.live/?participantId=98C16A8BE0E143998A224A5676B7C245&assignmentId=34a350ff-3e85-43bf-92e7-2dcc5dc55631&projectId=6487686c-d5c6-46ca-8906-b38f097f73ac","98C16A8BE0E143998A224A5676B7C245-2025-05-12-22-41-49","","null","","[]","null","",""
"","","","","","image-button-response","12","113627","0.0-6.0-1.0-0.1","98C16A8BE0E143998A224A5676B7C245","98C16A8BE0E143998A224A5676B7C245","34a350ff-3e85-43bf-92e7-2dcc5dc55631","6487686c-d5c6-46ca-8906-b38f097f73ac","{""participantId"":""98C16A8BE0E143998A224A5676B7C245"",""assignmentId"":""34a350ff-3e85-43bf-92e7-2dcc5dc55631"",""projectId"":""6487686c-d5c6-46ca-8906-b38f097f73ac""}","https://test12345.live/?participantId=98C16A8BE0E143998A224A5676B7C245&assignmentId=34a350ff-3e85-43bf-92e7-2dcc5dc55631&projectId=6487686c-d5c6-46ca-8906-b38f097f73ac","98C16A8BE0E143998A224A5676B7C245-2025-05-12-22-41-49","","null","","images/instructions/movie_2.png","null","",""
"","","","","","image-button-response","13","116670","0.0-6.0-1.0-1.1","98C16A8BE0E143998A224A5676B7C245","98C16A8BE0E143998A224A5676B7C245","34a350ff-3e85-43bf-92e7-2dcc5dc55631","6487686c-d5c6-46ca-8906-b38f097f73ac","{""participantId"":""98C16A8BE0E143998A224A5676B7C245"",""assignmentId"":""34a350ff-3e85-43bf-92e7-2dcc5dc55631"",""projectId"":""6487686c-d5c6-46ca-8906-b38f097f73ac""}","https://test12345.live/?participantId=98C16A8BE0E143998A224A5676B7C245&assignmentId=34a350ff-3e85-43bf-92e7-2dcc5dc55631&projectId=6487686c-d5c6-46ca-8906-b38f097f73ac","98C16A8BE0E143998A224A5676B7C245-2025-05-12-22-41-49","","3042","","images/instructions/movie_2.png","0","",""
"","","","","","image-button-response","14","118474","0.0-6.0-1.0-2.1","98C16A8BE0E143998A224A5676B7C245","98C16A8BE0E143998A224A5676B7C245","34a350ff-3e85-43bf-92e7-2dcc5dc55631","6487686c-d5c6-46ca-8906-b38f097f73ac","{""participantId"":""98C16A8BE0E143998A224A5676B7C245"",""assignmentId"":""34a350ff-3e85-43bf-92e7-2dcc5dc55631"",""projectId"":""6487686c-d5c6-46ca-8906-b38f097f73ac""}","https://test12345.live/?participantId=98C16A8BE0E143998A224A5676B7C245&assignmentId=34a350ff-3e85-43bf-92e7-2dcc5dc55631&projectId=6487686c-d5c6-46ca-8906-b38f097f73ac","98C16A8BE0E143998A224A5676B7C245-2025-05-12-22-41-49","","null","","[]","null","",""
"","","","","","image-button-response","15","122980","0.0-6.0-1.0-0.2","98C16A8BE0E143998A224A5676B7C245","98C16A8BE0E143998A224A5676B7C245","34a350ff-3e85-43bf-92e7-2dcc5dc55631","6487686c-d5c6-46ca-8906-b38f097f73ac","{""participantId"":""98C16A8BE0E143998A224A5676B7C245"",""assignmentId"":""34a350ff-3e85-43bf-92e7-2dcc5dc55631"",""projectId"":""6487686c-d5c6-46ca-8906-b38f097f73ac""}","https://test12345.live/?participantId=98C16A8BE0E143998A224A5676B7C245&assignmentId=34a350ff-3e85-43bf-92e7-2dcc5dc55631&projectId=6487686c-d5c6-46ca-8906-b38f097f73ac","98C16A8BE0E143998A224A5676B7C245-2025-05-12-22-41-49","","null","","images/instructions/movie_3.png","null","",""
"","","","","","image-button-response","16","124172","0.0-6.0-1.0-1.2","98C16A8BE0E143998A224A5676B7C245","98C16A8BE0E143998A224A5676B7C245","34a350ff-3e85-43bf-92e7-2dcc5dc55631","6487686c-d5c6-46ca-8906-b38f097f73ac","{""participantId"":""98C16A8BE0E143998A224A5676B7C245"",""assignmentId"":""34a350ff-3e85-43bf-92e7-2dcc5dc55631"",""projectId"":""6487686c-d5c6-46ca-8906-b38f097f73ac""}","https://test12345.live/?participantId=98C16A8BE0E143998A224A5676B7C245&assignmentId=34a350ff-3e85-43bf-92e7-2dcc5dc55631&projectId=6487686c-d5c6-46ca-8906-b38f097f73ac","98C16A8BE0E143998A224A5676B7C245-2025-05-12-22-41-49","","1191","","images/instructions/movie_3.png","0","",""
"","","","","","image-button-response","17","125976","0.0-6.0-1.0-2.2","98C16A8BE0E143998A224A5676B7C245","98C16A8BE0E143998A224A5676B7C245","34a350ff-3e85-43bf-92e7-2dcc5dc55631","6487686c-d5c6-46ca-8906-b38f097f73ac","{""participantId"":""98C16A8BE0E143998A224A5676B7C245"",""assignmentId"":""34a350ff-3e85-43bf-92e7-2dcc5dc55631"",""projectId"":""6487686c-d5c6-46ca-8906-b38f097f73ac""}","https://test12345.live/?participantId=98C16A8BE0E143998A224A5676B7C245&assignmentId=34a350ff-3e85-43bf-92e7-2dcc5dc55631&projectId=6487686c-d5c6-46ca-8906-b38f097f73ac","98C16A8BE0E143998A224A5676B7C245-2025-05-12-22-41-49","","null","","[]","null","",""
"","","","","","image-button-response","18","130480","0.0-6.0-1.0-0.3","98C16A8BE0E143998A224A5676B7C245","98C16A8BE0E143998A224A5676B7C245","34a350ff-3e85-43bf-92e7-2dcc5dc55631","6487686c-d5c6-46ca-8906-b38f097f73ac","{""participantId"":""98C16A8BE0E143998A224A5676B7C245"",""assignmentId"":""34a350ff-3e85-43bf-92e7-2dcc5dc55631"",""projectId"":""6487686c-d5c6-46ca-8906-b38f097f73ac""}","https://test12345.live/?participantId=98C16A8BE0E143998A224A5676B7C245&assignmentId=34a350ff-3e85-43bf-92e7-2dcc5dc55631&projectId=6487686c-d5c6-46ca-8906-b38f097f73ac","98C16A8BE0E143998A224A5676B7C245-2025-05-12-22-41-49","","null","","images/instructions/movie_4.png","null","",""
"","","","","","image-button-response","19","131308","0.0-6.0-1.0-1.3","98C16A8BE0E143998A224A5676B7C245","98C16A8BE0E143998A224A5676B7C245","34a350ff-3e85-43bf-92e7-2dcc5dc55631","6487686c-d5c6-46ca-8906-b38f097f73ac","{""participantId"":""98C16A8BE0E143998A224A5676B7C245"",""assignmentId"":""34a350ff-3e85-43bf-92e7-2dcc5dc55631"",""projectId"":""6487686c-d5c6-46ca-8906-b38f097f73ac""}","https://test12345.live/?participantId=98C16A8BE0E143998A224A5676B7C245&assignmentId=34a350ff-3e85-43bf-92e7-2dcc5dc55631&projectId=6487686c-d5c6-46ca-8906-b38f097f73ac","98C16A8BE0E143998A224A5676B7C245-2025-05-12-22-41-49","","827","","images/instructions/movie_4.png","0","",""
"","","","","","image-button-response","20","133115","0.0-6.0-1.0-2.3","98C16A8BE0E143998A224A5676B7C245","98C16A8BE0E143998A224A5676B7C245","34a350ff-3e85-43bf-92e7-2dcc5dc55631","6487686c-d5c6-46ca-8906-b38f097f73ac","{""participantId"":""98C16A8BE0E143998A224A5676B7C245"",""assignmentId"":""34a350ff-3e85-43bf-92e7-2dcc5dc55631"",""projectId"":""6487686c-d5c6-46ca-8906-b38f097f73ac""}","https://test12345.live/?participantId=98C16A8BE0E143998A224A5676B7C245&assignmentId=34a350ff-3e85-43bf-92e7-2dcc5dc55631&projectId=6487686c-d5c6-46ca-8906-b38f097f73ac","98C16A8BE0E143998A224A5676B7C245-2025-05-12-22-41-49","","null","","[]","null","",""
"","","","","","instructions","21","138043","0.0-7.0","98C16A8BE0E143998A224A5676B7C245","98C16A8BE0E143998A224A5676B7C245","34a350ff-3e85-43bf-92e7-2dcc5dc55631","6487686c-d5c6-46ca-8906-b38f097f73ac","{""participantId"":""98C16A8BE0E143998A224A5676B7C245"",""assignmentId"":""34a350ff-3e85-43bf-92e7-2dcc5dc55631"",""projectId"":""6487686c-d5c6-46ca-8906-b38f097f73ac""}","https://test12345.live/?participantId=98C16A8BE0E143998A224A5676B7C245&assignmentId=34a350ff-3e85-43bf-92e7-2dcc5dc55631&projectId=6487686c-d5c6-46ca-8906-b38f097f73ac","98C16A8BE0E143998A224A5676B7C245-2025-05-12-22-41-49","[{""page_index"":0,""viewing_time"":3895},{""page_index"":1,""viewing_time"":1033}]","4928","","","","",""
"","","","","","html-audio-response","22","185959","0.0-8.0","98C16A8BE0E143998A224A5676B7C245","98C16A8BE0E143998A224A5676B7C245","34a350ff-3e85-43bf-92e7-2dcc5dc55631","6487686c-d5c6-46ca-8906-b38f097f73ac","{""participantId"":""98C16A8BE0E143998A224A5676B7C245"",""assignmentId"":""34a350ff-3e85-43bf-92e7-2dcc5dc55631"",""projectId"":""6487686c-d5c6-46ca-8906-b38f097f73ac""}","https://test12345.live/?participantId=98C16A8BE0E143998A224A5676B7C245&assignmentId=34a350ff-3e85-43bf-92e7-2dcc5dc55631&projectId=6487686c-d5c6-46ca-8906-b38f097f73ac","98C16A8BE0E143998A224A5676B7C245-2025-05-12-22-41-49","","12040","","[""<span style=\""color: red; font-size: 24px\""> NOW RECORDING</span><p>Please say out loud all the images you saw, as many as you can remember. The images can be said in any order.</p>""]","","4",""
"","","","","","instructions","23","187526","0.0-9.0","98C16A8BE0E143998A224A5676B7C245","98C16A8BE0E143998A224A5676B7C245","34a350ff-3e85-43bf-92e7-2dcc5dc55631","6487686c-d5c6-46ca-8906-b38f097f73ac","{""participantId"":""98C16A8BE0E143998A224A5676B7C245"",""assignmentId"":""34a350ff-3e85-43bf-92e7-2dcc5dc55631"",""projectId"":""6487686c-d5c6-46ca-8906-b38f097f73ac""}","https://test12345.live/?participantId=98C16A8BE0E143998A224A5676B7C245&assignmentId=34a350ff-3e85-43bf-92e7-2dcc5dc55631&projectId=6487686c-d5c6-46ca-8906-b38f097f73ac","98C16A8BE0E143998A224A5676B7C245-2025-05-12-22-41-49","[{""page_index"":0,""viewing_time"":1562}]","1563","","","","",""
"","","","","","image-button-response","24","193530","0.0-10.0-0.0","98C16A8BE0E143998A224A5676B7C245","98C16A8BE0E143998A224A5676B7C245","34a350ff-3e85-43bf-92e7-2dcc5dc55631","6487686c-d5c6-46ca-8906-b38f097f73ac","{""participantId"":""98C16A8BE0E143998A224A5676B7C245"",""assignmentId"":""34a350ff-3e85-43bf-92e7-2dcc5dc55631"",""projectId"":""6487686c-d5c6-46ca-8906-b38f097f73ac""}","https://test12345.live/?participantId=98C16A8BE0E143998A224A5676B7C245&assignmentId=34a350ff-3e85-43bf-92e7-2dcc5dc55631&projectId=6487686c-d5c6-46ca-8906-b38f097f73ac","98C16A8BE0E143998A224A5676B7C245-2025-05-12-22-41-49","","null","","images/schematic_sequence/flight_scheme/flight_scheme_0.png","null","",""
"","","","","","image-button-response","25","198036","0.0-10.0-1.0-0.0","98C16A8BE0E143998A224A5676B7C245","98C16A8BE0E143998A224A5676B7C245","34a350ff-3e85-43bf-92e7-2dcc5dc55631","6487686c-d5c6-46ca-8906-b38f097f73ac","{""participantId"":""98C16A8BE0E143998A224A5676B7C245"",""assignmentId"":""34a350ff-3e85-43bf-92e7-2dcc5dc55631"",""projectId"":""6487686c-d5c6-46ca-8906-b38f097f73ac""}","https://test12345.live/?participantId=98C16A8BE0E143998A224A5676B7C245&assignmentId=34a350ff-3e85-43bf-92e7-2dcc5dc55631&projectId=6487686c-d5c6-46ca-8906-b38f097f73ac","98C16A8BE0E143998A224A5676B7C245-2025-05-12-22-41-49","","null","","images/schematic_sequence/flight_scheme/flight_scheme_5.png","null","",""
"","","","","","image-button-response","26","200347","0.0-10.0-1.0-1.0","98C16A8BE0E143998A224A5676B7C245","98C16A8BE0E143998A224A5676B7C245","34a350ff-3e85-43bf-92e7-2dcc5dc55631","6487686c-d5c6-46ca-8906-b38f097f73ac","{""participantId"":""98C16A8BE0E143998A224A5676B7C245"",""assignmentId"":""34a350ff-3e85-43bf-92e7-2dcc5dc55631"",""projectId"":""6487686c-d5c6-46ca-8906-b38f097f73ac""}","https://test12345.live/?participantId=98C16A8BE0E143998A224A5676B7C245&assignmentId=34a350ff-3e85-43bf-92e7-2dcc5dc55631&projectId=6487686c-d5c6-46ca-8906-b38f097f73ac","98C16A8BE0E143998A224A5676B7C245-2025-05-12-22-41-49","","2311","","images/schematic_sequence/flight_scheme/flight_scheme_5.png","0","",""
"","","","","","image-button-response","27","202149","0.0-10.0-1.0-2.0","98C16A8BE0E143998A224A5676B7C245","98C16A8BE0E143998A224A5676B7C245","34a350ff-3e85-43bf-92e7-2dcc5dc55631","6487686c-d5c6-46ca-8906-b38f097f73ac","{""participantId"":""98C16A8BE0E143998A224A5676B7C245"",""assignmentId"":""34a350ff-3e85-43bf-92e7-2dcc5dc55631"",""projectId"":""6487686c-d5c6-46ca-8906-b38f097f73ac""}","https://test12345.live/?participantId=98C16A8BE0E143998A224A5676B7C245&assignmentId=34a350ff-3e85-43bf-92e7-2dcc5dc55631&projectId=6487686c-d5c6-46ca-8906-b38f097f73ac","98C16A8BE0E143998A224A5676B7C245-2025-05-12-22-41-49","","null","","[]","null","",""
"","","","","","image-button-response","28","206651","0.0-10.0-1.0-0.1","98C16A8BE0E143998A224A5676B7C245","98C16A8BE0E143998A224A5676B7C245","34a350ff-3e85-43bf-92e7-2dcc5dc55631","6487686c-d5c6-46ca-8906-b38f097f73ac","{""participantId"":""98C16A8BE0E143998A224A5676B7C245"",""assignmentId"":""34a350ff-3e85-43bf-92e7-2dcc5dc55631"",""projectId"":""6487686c-d5c6-46ca-8906-b38f097f73ac""}","https://test12345.live/?participantId=98C16A8BE0E143998A224A5676B7C245&assignmentId=34a350ff-3e85-43bf-92e7-2dcc5dc55631&projectId=6487686c-d5c6-46ca-8906-b38f097f73ac","98C16A8BE0E143998A224A5676B7C245-2025-05-12-22-41-49","","null","","images/schematic_sequence/flight_scheme/flight_scheme_8.png","null","",""
"","","","","","image-button-response","29","208316","0.0-10.0-1.0-1.1","98C16A8BE0E143998A224A5676B7C245","98C16A8BE0E143998A224A5676B7C245","34a350ff-3e85-43bf-92e7-2dcc5dc55631","6487686c-d5c6-46ca-8906-b38f097f73ac","{""participantId"":""98C16A8BE0E143998A224A5676B7C245"",""assignmentId"":""34a350ff-3e85-43bf-92e7-2dcc5dc55631"",""projectId"":""6487686c-d5c6-46ca-8906-b38f097f73ac""}","https://test12345.live/?participantId=98C16A8BE0E143998A224A5676B7C245&assignmentId=34a350ff-3e85-43bf-92e7-2dcc5dc55631&projectId=6487686c-d5c6-46ca-8906-b38f097f73ac","98C16A8BE0E143998A224A5676B7C245-2025-05-12-22-41-49","","1665","","images/schematic_sequence/flight_scheme/flight_scheme_8.png","0","",""
"","","","","","image-button-response","30","210121","0.0-10.0-1.0-2.1","98C16A8BE0E143998A224A5676B7C245","98C16A8BE0E143998A224A5676B7C245","34a350ff-3e85-43bf-92e7-2dcc5dc55631","6487686c-d5c6-46ca-8906-b38f097f73ac","{""participantId"":""98C16A8BE0E143998A224A5676B7C245"",""assignmentId"":""34a350ff-3e85-43bf-92e7-2dcc5dc55631"",""projectId"":""6487686c-d5c6-46ca-8906-b38f097f73ac""}","https://test12345.live/?participantId=98C16A8BE0E143998A224A5676B7C245&assignmentId=34a350ff-3e85-43bf-92e7-2dcc5dc55631&projectId=6487686c-d5c6-46ca-8906-b38f097f73ac","98C16A8BE0E143998A224A5676B7C245-2025-05-12-22-41-49","","null","","[]","null","",""
"","","","","","image-button-response","31","214623","0.0-10.0-1.0-0.2","98C16A8BE0E143998A224A5676B7C245","98C16A8BE0E143998A224A5676B7C245","34a350ff-3e85-43bf-92e7-2dcc5dc55631","6487686c-d5c6-46ca-8906-b38f097f73ac","{""participantId"":""98C16A8BE0E143998A224A5676B7C245"",""assignmentId"":""34a350ff-3e85-43bf-92e7-2dcc5dc55631"",""projectId"":""6487686c-d5c6-46ca-8906-b38f097f73ac""}","https://test12345.live/?participantId=98C16A8BE0E143998A224A5676B7C245&assignmentId=34a350ff-3e85-43bf-92e7-2dcc5dc55631&projectId=6487686c-d5c6-46ca-8906-b38f097f73ac","98C16A8BE0E143998A224A5676B7C245-2025-05-12-22-41-49","","null","","images/schematic_sequence/flight_scheme/flight_scheme_1.png","null","",""
"","","","","","image-button-response","32","215468","0.0-10.0-1.0-1.2","98C16A8BE0E143998A224A5676B7C245","98C16A8BE0E143998A224A5676B7C245","34a350ff-3e85-43bf-92e7-2dcc5dc55631","6487686c-d5c6-46ca-8906-b38f097f73ac","{""participantId"":""98C16A8BE0E143998A224A5676B7C245"",""assignmentId"":""34a350ff-3e85-43bf-92e7-2dcc5dc55631"",""projectId"":""6487686c-d5c6-46ca-8906-b38f097f73ac""}","https://test12345.live/?participantId=98C16A8BE0E143998A224A5676B7C245&assignmentId=34a350ff-3e85-43bf-92e7-2dcc5dc55631&projectId=6487686c-d5c6-46ca-8906-b38f097f73ac","98C16A8BE0E143998A224A5676B7C245-2025-05-12-22-41-49","","845","","images/schematic_sequence/flight_scheme/flight_scheme_1.png","0","",""
"","","","","","image-button-response","33","217271","0.0-10.0-1.0-2.2","98C16A8BE0E143998A224A5676B7C245","98C16A8BE0E143998A224A5676B7C245","34a350ff-3e85-43bf-92e7-2dcc5dc55631","6487686c-d5c6-46ca-8906-b38f097f73ac","{""participantId"":""98C16A8BE0E143998A224A5676B7C245"",""assignmentId"":""34a350ff-3e85-43bf-92e7-2dcc5dc55631"",""projectId"":""6487686c-d5c6-46ca-8906-b38f097f73ac""}","https://test12345.live/?participantId=98C16A8BE0E143998A224A5676B7C245&assignmentId=34a350ff-3e85-43bf-92e7-2dcc5dc55631&projectId=6487686c-d5c6-46ca-8906-b38f097f73ac","98C16A8BE0E143998A224A5676B7C245-2025-05-12-22-41-49","","null","","[]","null","",""
"","","","","","image-button-response","34","221772","0.0-10.0-1.0-0.3","98C16A8BE0E143998A224A5676B7C245","98C16A8BE0E143998A224A5676B7C245","34a350ff-3e85-43bf-92e7-2dcc5dc55631","6487686c-d5c6-46ca-8906-b38f097f73ac","{""participantId"":""98C16A8BE0E143998A224A5676B7C245"",""assignmentId"":""34a350ff-3e85-43bf-92e7-2dcc5dc55631"",""projectId"":""6487686c-d5c6-46ca-8906-b38f097f73ac""}","https://test12345.live/?participantId=98C16A8BE0E143998A224A5676B7C245&assignmentId=34a350ff-3e85-43bf-92e7-2dcc5dc55631&projectId=6487686c-d5c6-46ca-8906-b38f097f73ac","98C16A8BE0E143998A224A5676B7C245-2025-05-12-22-41-49","","null","","images/schematic_sequence/flight_scheme/flight_scheme_2.png","null","",""
"","","","","","image-button-response","35","222870","0.0-10.0-1.0-1.3","98C16A8BE0E143998A224A5676B7C245","98C16A8BE0E143998A224A5676B7C245","34a350ff-3e85-43bf-92e7-2dcc5dc55631","6487686c-d5c6-46ca-8906-b38f097f73ac","{""participantId"":""98C16A8BE0E143998A224A5676B7C245"",""assignmentId"":""34a350ff-3e85-43bf-92e7-2dcc5dc55631"",""projectId"":""6487686c-d5c6-46ca-8906-b38f097f73ac""}","https://test12345.live/?participantId=98C16A8BE0E143998A224A5676B7C245&assignmentId=34a350ff-3e85-43bf-92e7-2dcc5dc55631&projectId=6487686c-d5c6-46ca-8906-b38f097f73ac","98C16A8BE0E143998A224A5676B7C245-2025-05-12-22-41-49","","1097","","images/schematic_sequence/flight_scheme/flight_scheme_2.png","1","",""
"","","","","","image-button-response","36","224676","0.0-10.0-1.0-2.3","98C16A8BE0E143998A224A5676B7C245","98C16A8BE0E143998A224A5676B7C245","34a350ff-3e85-43bf-92e7-2dcc5dc55631","6487686c-d5c6-46ca-8906-b38f097f73ac","{""participantId"":""98C16A8BE0E143998A224A5676B7C245"",""assignmentId"":""34a350ff-3e85-43bf-92e7-2dcc5dc55631"",""projectId"":""6487686c-d5c6-46ca-8906-b38f097f73ac""}","https://test12345.live/?participantId=98C16A8BE0E143998A224A5676B7C245&assignmentId=34a350ff-3e85-43bf-92e7-2dcc5dc55631&projectId=6487686c-d5c6-46ca-8906-b38f097f73ac","98C16A8BE0E143998A224A5676B7C245-2025-05-12-22-41-49","","null","","[]","null","",""
"","","","","","image-button-response","37","229181","0.0-10.0-1.0-0.4","98C16A8BE0E143998A224A5676B7C245","98C16A8BE0E143998A224A5676B7C245","34a350ff-3e85-43bf-92e7-2dcc5dc55631","6487686c-d5c6-46ca-8906-b38f097f73ac","{""participantId"":""98C16A8BE0E143998A224A5676B7C245"",""assignmentId"":""34a350ff-3e85-43bf-92e7-2dcc5dc55631"",""projectId"":""6487686c-d5c6-46ca-8906-b38f097f73ac""}","https://test12345.live/?participantId=98C16A8BE0E143998A224A5676B7C245&assignmentId=34a350ff-3e85-43bf-92e7-2dcc5dc55631&projectId=6487686c-d5c6-46ca-8906-b38f097f73ac","98C16A8BE0E143998A224A5676B7C245-2025-05-12-22-41-49","","null","","images/schematic_sequence/flight_scheme/flight_scheme_4.png","null","",""
"","","","","","image-button-response","38","230340","0.0-10.0-1.0-1.4","98C16A8BE0E143998A224A5676B7C245","98C16A8BE0E143998A224A5676B7C245","34a350ff-3e85-43bf-92e7-2dcc5dc55631","6487686c-d5c6-46ca-8906-b38f097f73ac","{""participantId"":""98C16A8BE0E143998A224A5676B7C245"",""assignmentId"":""34a350ff-3e85-43bf-92e7-2dcc5dc55631"",""projectId"":""6487686c-d5c6-46ca-8906-b38f097f73ac""}","https://test12345.live/?participantId=98C16A8BE0E143998A224A5676B7C245&assignmentId=34a350ff-3e85-43bf-92e7-2dcc5dc55631&projectId=6487686c-d5c6-46ca-8906-b38f097f73ac","98C16A8BE0E143998A224A5676B7C245-2025-05-12-22-41-49","","1158","","images/schematic_sequence/flight_scheme/flight_scheme_4.png","0","",""
"","","","","","image-button-response","39","232146","0.0-10.0-1.0-2.4","98C16A8BE0E143998A224A5676B7C245","98C16A8BE0E143998A224A5676B7C245","34a350ff-3e85-43bf-92e7-2dcc5dc55631","6487686c-d5c6-46ca-8906-b38f097f73ac","{""participantId"":""98C16A8BE0E143998A224A5676B7C245"",""assignmentId"":""34a350ff-3e85-43bf-92e7-2dcc5dc55631"",""projectId"":""6487686c-d5c6-46ca-8906-b38f097f73ac""}","https://test12345.live/?participantId=98C16A8BE0E143998A224A5676B7C245&assignmentId=34a350ff-3e85-43bf-92e7-2dcc5dc55631&projectId=6487686c-d5c6-46ca-8906-b38f097f73ac","98C16A8BE0E143998A224A5676B7C245-2025-05-12-22-41-49","","null","","[]","null","",""
"","","","","","image-button-response","40","236647","0.0-10.0-1.0-0.5","98C16A8BE0E143998A224A5676B7C245","98C16A8BE0E143998A224A5676B7C245","34a350ff-3e85-43bf-92e7-2dcc5dc55631","6487686c-d5c6-46ca-8906-b38f097f73ac","{""participantId"":""98C16A8BE0E143998A224A5676B7C245"",""assignmentId"":""34a350ff-3e85-43bf-92e7-2dcc5dc55631"",""projectId"":""6487686c-d5c6-46ca-8906-b38f097f73ac""}","https://test12345.live/?participantId=98C16A8BE0E143998A224A5676B7C245&assignmentId=34a350ff-3e85-43bf-92e7-2dcc5dc55631&projectId=6487686c-d5c6-46ca-8906-b38f097f73ac","98C16A8BE0E143998A224A5676B7C245-2025-05-12-22-41-49","","null","","images/schematic_sequence/flight_scheme/flight_scheme_6.png","null","",""
"","","","","","image-button-response","41","237942","0.0-10.0-1.0-1.5","98C16A8BE0E143998A224A5676B7C245","98C16A8BE0E143998A224A5676B7C245","34a350ff-3e85-43bf-92e7-2dcc5dc55631","6487686c-d5c6-46ca-8906-b38f097f73ac","{""participantId"":""98C16A8BE0E143998A224A5676B7C245"",""assignmentId"":""34a350ff-3e85-43bf-92e7-2dcc5dc55631"",""projectId"":""6487686c-d5c6-46ca-8906-b38f097f73ac""}","https://test12345.live/?participantId=98C16A8BE0E143998A224A5676B7C245&assignmentId=34a350ff-3e85-43bf-92e7-2dcc5dc55631&projectId=6487686c-d5c6-46ca-8906-b38f097f73ac","98C16A8BE0E143998A224A5676B7C245-2025-05-12-22-41-49","","1294","","images/schematic_sequence/flight_scheme/flight_scheme_6.png","1","",""
"","","","","","image-button-response","42","239746","0.0-10.0-1.0-2.5","98C16A8BE0E143998A224A5676B7C245","98C16A8BE0E143998A224A5676B7C245","34a350ff-3e85-43bf-92e7-2dcc5dc55631","6487686c-d5c6-46ca-8906-b38f097f73ac","{""participantId"":""98C16A8BE0E143998A224A5676B7C245"",""assignmentId"":""34a350ff-3e85-43bf-92e7-2dcc5dc55631"",""projectId"":""6487686c-d5c6-46ca-8906-b38f097f73ac""}","https://test12345.live/?participantId=98C16A8BE0E143998A224A5676B7C245&assignmentId=34a350ff-3e85-43bf-92e7-2dcc5dc55631&projectId=6487686c-d5c6-46ca-8906-b38f097f73ac","98C16A8BE0E143998A224A5676B7C245-2025-05-12-22-41-49","","null","","[]","null","",""
"","","","","","image-button-response","43","244248","0.0-10.0-1.0-0.6","98C16A8BE0E143998A224A5676B7C245","98C16A8BE0E143998A224A5676B7C245","34a350ff-3e85-43bf-92e7-2dcc5dc55631","6487686c-d5c6-46ca-8906-b38f097f73ac","{""participantId"":""98C16A8BE0E143998A224A5676B7C245"",""assignmentId"":""34a350ff-3e85-43bf-92e7-2dcc5dc55631"",""projectId"":""6487686c-d5c6-46ca-8906-b38f097f73ac""}","https://test12345.live/?participantId=98C16A8BE0E143998A224A5676B7C245&assignmentId=34a350ff-3e85-43bf-92e7-2dcc5dc55631&projectId=6487686c-d5c6-46ca-8906-b38f097f73ac","98C16A8BE0E143998A224A5676B7C245-2025-05-12-22-41-49","","null","","images/schematic_sequence/flight_scheme/flight_scheme_7.png","null","",""
"","","","","","image-button-response","44","246095","0.0-10.0-1.0-1.6","98C16A8BE0E143998A224A5676B7C245","98C16A8BE0E143998A224A5676B7C245","34a350ff-3e85-43bf-92e7-2dcc5dc55631","6487686c-d5c6-46ca-8906-b38f097f73ac","{""participantId"":""98C16A8BE0E143998A224A5676B7C245"",""assignmentId"":""34a350ff-3e85-43bf-92e7-2dcc5dc55631"",""projectId"":""6487686c-d5c6-46ca-8906-b38f097f73ac""}","https://test12345.live/?participantId=98C16A8BE0E143998A224A5676B7C245&assignmentId=34a350ff-3e85-43bf-92e7-2dcc5dc55631&projectId=6487686c-d5c6-46ca-8906-b38f097f73ac","98C16A8BE0E143998A224A5676B7C245-2025-05-12-22-41-49","","1846","","images/schematic_sequence/flight_scheme/flight_scheme_7.png","1","",""
"","","","","","image-button-response","45","247901","0.0-10.0-1.0-2.6","98C16A8BE0E143998A224A5676B7C245","98C16A8BE0E143998A224A5676B7C245","34a350ff-3e85-43bf-92e7-2dcc5dc55631","6487686c-d5c6-46ca-8906-b38f097f73ac","{""participantId"":""98C16A8BE0E143998A224A5676B7C245"",""assignmentId"":""34a350ff-3e85-43bf-92e7-2dcc5dc55631"",""projectId"":""6487686c-d5c6-46ca-8906-b38f097f73ac""}","https://test12345.live/?participantId=98C16A8BE0E143998A224A5676B7C245&assignmentId=34a350ff-3e85-43bf-92e7-2dcc5dc55631&projectId=6487686c-d5c6-46ca-8906-b38f097f73ac","98C16A8BE0E143998A224A5676B7C245-2025-05-12-22-41-49","","null","","[]","null","",""
"","","","","","image-button-response","46","252403","0.0-10.0-1.0-0.7","98C16A8BE0E143998A224A5676B7C245","98C16A8BE0E143998A224A5676B7C245","34a350ff-3e85-43bf-92e7-2dcc5dc55631","6487686c-d5c6-46ca-8906-b38f097f73ac","{""participantId"":""98C16A8BE0E143998A224A5676B7C245"",""assignmentId"":""34a350ff-3e85-43bf-92e7-2dcc5dc55631"",""projectId"":""6487686c-d5c6-46ca-8906-b38f097f73ac""}","https://test12345.live/?participantId=98C16A8BE0E143998A224A5676B7C245&assignmentId=34a350ff-3e85-43bf-92e7-2dcc5dc55631&projectId=6487686c-d5c6-46ca-8906-b38f097f73ac","98C16A8BE0E143998A224A5676B7C245-2025-05-12-22-41-49","","null","","images/schematic_sequence/flight_scheme/flight_scheme_ten.png","null","",""
"","","","","","image-button-response","47","254998","0.0-10.0-1.0-1.7","98C16A8BE0E143998A224A5676B7C245","98C16A8BE0E143998A224A5676B7C245","34a350ff-3e85-43bf-92e7-2dcc5dc55631","6487686c-d5c6-46ca-8906-b38f097f73ac","{""participantId"":""98C16A8BE0E143998A224A5676B7C245"",""assignmentId"":""34a350ff-3e85-43bf-92e7-2dcc5dc55631"",""projectId"":""6487686c-d5c6-46ca-8906-b38f097f73ac""}","https://test12345.live/?participantId=98C16A8BE0E143998A224A5676B7C245&assignmentId=34a350ff-3e85-43bf-92e7-2dcc5dc55631&projectId=6487686c-d5c6-46ca-8906-b38f097f73ac","98C16A8BE0E143998A224A5676B7C245-2025-05-12-22-41-49","","2594","","images/schematic_sequence/flight_scheme/flight_scheme_ten.png","0","",""
"","","","","","image-button-response","48","256799","0.0-10.0-1.0-2.7","98C16A8BE0E143998A224A5676B7C245","98C16A8BE0E143998A224A5676B7C245","34a350ff-3e85-43bf-92e7-2dcc5dc55631","6487686c-d5c6-46ca-8906-b38f097f73ac","{""participantId"":""98C16A8BE0E143998A224A5676B7C245"",""assignmentId"":""34a350ff-3e85-43bf-92e7-2dcc5dc55631"",""projectId"":""6487686c-d5c6-46ca-8906-b38f097f73ac""}","https://test12345.live/?participantId=98C16A8BE0E143998A224A5676B7C245&assignmentId=34a350ff-3e85-43bf-92e7-2dcc5dc55631&projectId=6487686c-d5c6-46ca-8906-b38f097f73ac","98C16A8BE0E143998A224A5676B7C245-2025-05-12-22-41-49","","null","","[]","null","",""
"","","","","","image-button-response","49","261301","0.0-10.0-1.0-0.8","98C16A8BE0E143998A224A5676B7C245","98C16A8BE0E143998A224A5676B7C245","34a350ff-3e85-43bf-92e7-2dcc5dc55631","6487686c-d5c6-46ca-8906-b38f097f73ac","{""participantId"":""98C16A8BE0E143998A224A5676B7C245"",""assignmentId"":""34a350ff-3e85-43bf-92e7-2dcc5dc55631"",""projectId"":""6487686c-d5c6-46ca-8906-b38f097f73ac""}","https://test12345.live/?participantId=98C16A8BE0E143998A224A5676B7C245&assignmentId=34a350ff-3e85-43bf-92e7-2dcc5dc55631&projectId=6487686c-d5c6-46ca-8906-b38f097f73ac","98C16A8BE0E143998A224A5676B7C245-2025-05-12-22-41-49","","null","","images/schematic_sequence/flight_scheme/flight_scheme_9.png","null","",""
"","","","","","image-button-response","50","262033","0.0-10.0-1.0-1.8","98C16A8BE0E143998A224A5676B7C245","98C16A8BE0E143998A224A5676B7C245","34a350ff-3e85-43bf-92e7-2dcc5dc55631","6487686c-d5c6-46ca-8906-b38f097f73ac","{""participantId"":""98C16A8BE0E143998A224A5676B7C245"",""assignmentId"":""34a350ff-3e85-43bf-92e7-2dcc5dc55631"",""projectId"":""6487686c-d5c6-46ca-8906-b38f097f73ac""}","https://test12345.live/?participantId=98C16A8BE0E143998A224A5676B7C245&assignmentId=34a350ff-3e85-43bf-92e7-2dcc5dc55631&projectId=6487686c-d5c6-46ca-8906-b38f097f73ac","98C16A8BE0E143998A224A5676B7C245-2025-05-12-22-41-49","","731","","images/schematic_sequence/flight_scheme/flight_scheme_9.png","0","",""
"","","","","","image-button-response","51","263837","0.0-10.0-1.0-2.8","98C16A8BE0E143998A224A5676B7C245","98C16A8BE0E143998A224A5676B7C245","34a350ff-3e85-43bf-92e7-2dcc5dc55631","6487686c-d5c6-46ca-8906-b38f097f73ac","{""participantId"":""98C16A8BE0E143998A224A5676B7C245"",""assignmentId"":""34a350ff-3e85-43bf-92e7-2dcc5dc55631"",""projectId"":""6487686c-d5c6-46ca-8906-b38f097f73ac""}","https://test12345.live/?participantId=98C16A8BE0E143998A224A5676B7C245&assignmentId=34a350ff-3e85-43bf-92e7-2dcc5dc55631&projectId=6487686c-d5c6-46ca-8906-b38f097f73ac","98C16A8BE0E143998A224A5676B7C245-2025-05-12-22-41-49","","null","","[]","null","",""
"","","","","","image-button-response","52","268341","0.0-10.0-1.0-0.9","98C16A8BE0E143998A224A5676B7C245","98C16A8BE0E143998A224A5676B7C245","34a350ff-3e85-43bf-92e7-2dcc5dc55631","6487686c-d5c6-46ca-8906-b38f097f73ac","{""participantId"":""98C16A8BE0E143998A224A5676B7C245"",""assignmentId"":""34a350ff-3e85-43bf-92e7-2dcc5dc55631"",""projectId"":""6487686c-d5c6-46ca-8906-b38f097f73ac""}","https://test12345.live/?participantId=98C16A8BE0E143998A224A5676B7C245&assignmentId=34a350ff-3e85-43bf-92e7-2dcc5dc55631&projectId=6487686c-d5c6-46ca-8906-b38f097f73ac","98C16A8BE0E143998A224A5676B7C245-2025-05-12-22-41-49","","null","","images/schematic_sequence/flight_scheme/flight_scheme_3.png","null","",""
"","","","","","image-button-response","53","269118","0.0-10.0-1.0-1.9","98C16A8BE0E143998A224A5676B7C245","98C16A8BE0E143998A224A5676B7C245","34a350ff-3e85-43bf-92e7-2dcc5dc55631","6487686c-d5c6-46ca-8906-b38f097f73ac","{""participantId"":""98C16A8BE0E143998A224A5676B7C245"",""assignmentId"":""34a350ff-3e85-43bf-92e7-2dcc5dc55631"",""projectId"":""6487686c-d5c6-46ca-8906-b38f097f73ac""}","https://test12345.live/?participantId=98C16A8BE0E143998A224A5676B7C245&assignmentId=34a350ff-3e85-43bf-92e7-2dcc5dc55631&projectId=6487686c-d5c6-46ca-8906-b38f097f73ac","98C16A8BE0E143998A224A5676B7C245-2025-05-12-22-41-49","","776","","images/schematic_sequence/flight_scheme/flight_scheme_3.png","0","",""
"","","","","","image-button-response","54","270921","0.0-10.0-1.0-2.9","98C16A8BE0E143998A224A5676B7C245","98C16A8BE0E143998A224A5676B7C245","34a350ff-3e85-43bf-92e7-2dcc5dc55631","6487686c-d5c6-46ca-8906-b38f097f73ac","{""participantId"":""98C16A8BE0E143998A224A5676B7C245"",""assignmentId"":""34a350ff-3e85-43bf-92e7-2dcc5dc55631"",""projectId"":""6487686c-d5c6-46ca-8906-b38f097f73ac""}","https://test12345.live/?participantId=98C16A8BE0E143998A224A5676B7C245&assignmentId=34a350ff-3e85-43bf-92e7-2dcc5dc55631&projectId=6487686c-d5c6-46ca-8906-b38f097f73ac","98C16A8BE0E143998A224A5676B7C245-2025-05-12-22-41-49","","null","","[]","null","",""
"","","","","","html-audio-response","55","330055","0.0-11.0","98C16A8BE0E143998A224A5676B7C245","98C16A8BE0E143998A224A5676B7C245","34a350ff-3e85-43bf-92e7-2dcc5dc55631","6487686c-d5c6-46ca-8906-b38f097f73ac","{""participantId"":""98C16A8BE0E143998A224A5676B7C245"",""assignmentId"":""34a350ff-3e85-43bf-92e7-2dcc5dc55631"",""projectId"":""6487686c-d5c6-46ca-8906-b38f097f73ac""}","https://test12345.live/?participantId=98C16A8BE0E143998A224A5676B7C245&assignmentId=34a350ff-3e85-43bf-92e7-2dcc5dc55631&projectId=6487686c-d5c6-46ca-8906-b38f097f73ac","98C16A8BE0E143998A224A5676B7C245-2025-05-12-22-41-49","","27145","","[""<span style=\""color: red; font-size: 24px\""> NOW RECORDING</span><p>Please say out loud all the images you saw, as many as you can remember. The images can be said in any order.</p>""]","","1","flight_scheme"
"","","","","","image-button-response","56","336062","0.0-12.0-0.0","98C16A8BE0E143998A224A5676B7C245","98C16A8BE0E143998A224A5676B7C245","34a350ff-3e85-43bf-92e7-2dcc5dc55631","6487686c-d5c6-46ca-8906-b38f097f73ac","{""participantId"":""98C16A8BE0E143998A224A5676B7C245"",""assignmentId"":""34a350ff-3e85-43bf-92e7-2dcc5dc55631"",""projectId"":""6487686c-d5c6-46ca-8906-b38f097f73ac""}","https://test12345.live/?participantId=98C16A8BE0E143998A224A5676B7C245&assignmentId=34a350ff-3e85-43bf-92e7-2dcc5dc55631&projectId=6487686c-d5c6-46ca-8906-b38f097f73ac","98C16A8BE0E143998A224A5676B7C245-2025-05-12-22-41-49","","null","","images/schematic_sequence/dinner_party_scheme/dinner_party_scheme_0.png","null","",""
"","","","","","image-button-response","57","340564","0.0-12.0-1.0-0.0","98C16A8BE0E143998A224A5676B7C245","98C16A8BE0E143998A224A5676B7C245","34a350ff-3e85-43bf-92e7-2dcc5dc55631","6487686c-d5c6-46ca-8906-b38f097f73ac","{""participantId"":""98C16A8BE0E143998A224A5676B7C245"",""assignmentId"":""34a350ff-3e85-43bf-92e7-2dcc5dc55631"",""projectId"":""6487686c-d5c6-46ca-8906-b38f097f73ac""}","https://test12345.live/?participantId=98C16A8BE0E143998A224A5676B7C245&assignmentId=34a350ff-3e85-43bf-92e7-2dcc5dc55631&projectId=6487686c-d5c6-46ca-8906-b38f097f73ac","98C16A8BE0E143998A224A5676B7C245-2025-05-12-22-41-49","","null","","images/schematic_sequence/dinner_party_scheme/dinner_party_scheme_8.png","null","",""
"","","","","","image-button-response","58","343059","0.0-12.0-1.0-1.0","98C16A8BE0E143998A224A5676B7C245","98C16A8BE0E143998A224A5676B7C245","34a350ff-3e85-43bf-92e7-2dcc5dc55631","6487686c-d5c6-46ca-8906-b38f097f73ac","{""participantId"":""98C16A8BE0E143998A224A5676B7C245"",""assignmentId"":""34a350ff-3e85-43bf-92e7-2dcc5dc55631"",""projectId"":""6487686c-d5c6-46ca-8906-b38f097f73ac""}","https://test12345.live/?participantId=98C16A8BE0E143998A224A5676B7C245&assignmentId=34a350ff-3e85-43bf-92e7-2dcc5dc55631&projectId=6487686c-d5c6-46ca-8906-b38f097f73ac","98C16A8BE0E143998A224A5676B7C245-2025-05-12-22-41-49","","2494","","images/schematic_sequence/dinner_party_scheme/dinner_party_scheme_8.png","0","",""
"","","","","","image-button-response","59","344862","0.0-12.0-1.0-2.0","98C16A8BE0E143998A224A5676B7C245","98C16A8BE0E143998A224A5676B7C245","34a350ff-3e85-43bf-92e7-2dcc5dc55631","6487686c-d5c6-46ca-8906-b38f097f73ac","{""participantId"":""98C16A8BE0E143998A224A5676B7C245"",""assignmentId"":""34a350ff-3e85-43bf-92e7-2dcc5dc55631"",""projectId"":""6487686c-d5c6-46ca-8906-b38f097f73ac""}","https://test12345.live/?participantId=98C16A8BE0E143998A224A5676B7C245&assignmentId=34a350ff-3e85-43bf-92e7-2dcc5dc55631&projectId=6487686c-d5c6-46ca-8906-b38f097f73ac","98C16A8BE0E143998A224A5676B7C245-2025-05-12-22-41-49","","null","","[]","null","",""
"","","","","","image-button-response","60","349363","0.0-12.0-1.0-0.1","98C16A8BE0E143998A224A5676B7C245","98C16A8BE0E143998A224A5676B7C245","34a350ff-3e85-43bf-92e7-2dcc5dc55631","6487686c-d5c6-46ca-8906-b38f097f73ac","{""participantId"":""98C16A8BE0E143998A224A5676B7C245"",""assignmentId"":""34a350ff-3e85-43bf-92e7-2dcc5dc55631"",""projectId"":""6487686c-d5c6-46ca-8906-b38f097f73ac""}","https://test12345.live/?participantId=98C16A8BE0E143998A224A5676B7C245&assignmentId=34a350ff-3e85-43bf-92e7-2dcc5dc55631&projectId=6487686c-d5c6-46ca-8906-b38f097f73ac","98C16A8BE0E143998A224A5676B7C245-2025-05-12-22-41-49","","null","","images/schematic_sequence/dinner_party_scheme/dinner_party_scheme_7.png","null","",""
"","","","","","image-button-response","61","350578","0.0-12.0-1.0-1.1","98C16A8BE0E143998A224A5676B7C245","98C16A8BE0E143998A224A5676B7C245","34a350ff-3e85-43bf-92e7-2dcc5dc55631","6487686c-d5c6-46ca-8906-b38f097f73ac","{""participantId"":""98C16A8BE0E143998A224A5676B7C245"",""assignmentId"":""34a350ff-3e85-43bf-92e7-2dcc5dc55631"",""projectId"":""6487686c-d5c6-46ca-8906-b38f097f73ac""}","https://test12345.live/?participantId=98C16A8BE0E143998A224A5676B7C245&assignmentId=34a350ff-3e85-43bf-92e7-2dcc5dc55631&projectId=6487686c-d5c6-46ca-8906-b38f097f73ac","98C16A8BE0E143998A224A5676B7C245-2025-05-12-22-41-49","","1215","","images/schematic_sequence/dinner_party_scheme/dinner_party_scheme_7.png","0","",""
"","","","","","image-button-response","62","352380","0.0-12.0-1.0-2.1","98C16A8BE0E143998A224A5676B7C245","98C16A8BE0E143998A224A5676B7C245","34a350ff-3e85-43bf-92e7-2dcc5dc55631","6487686c-d5c6-46ca-8906-b38f097f73ac","{""participantId"":""98C16A8BE0E143998A224A5676B7C245"",""assignmentId"":""34a350ff-3e85-43bf-92e7-2dcc5dc55631"",""projectId"":""6487686c-d5c6-46ca-8906-b38f097f73ac""}","https://test12345.live/?participantId=98C16A8BE0E143998A224A5676B7C245&assignmentId=34a350ff-3e85-43bf-92e7-2dcc5dc55631&projectId=6487686c-d5c6-46ca-8906-b38f097f73ac","98C16A8BE0E143998A224A5676B7C245-2025-05-12-22-41-49","","null","","[]","null","",""
"","","","","","image-button-response","63","356882","0.0-12.0-1.0-0.2","98C16A8BE0E143998A224A5676B7C245","98C16A8BE0E143998A224A5676B7C245","34a350ff-3e85-43bf-92e7-2dcc5dc55631","6487686c-d5c6-46ca-8906-b38f097f73ac","{""participantId"":""98C16A8BE0E143998A224A5676B7C245"",""assignmentId"":""34a350ff-3e85-43bf-92e7-2dcc5dc55631"",""projectId"":""6487686c-d5c6-46ca-8906-b38f097f73ac""}","https://test12345.live/?participantId=98C16A8BE0E143998A224A5676B7C245&assignmentId=34a350ff-3e85-43bf-92e7-2dcc5dc55631&projectId=6487686c-d5c6-46ca-8906-b38f097f73ac","98C16A8BE0E143998A224A5676B7C245-2025-05-12-22-41-49","","null","","images/schematic_sequence/dinner_party_scheme/dinner_party_scheme_1.png","null","",""
"","","","","","image-button-response","64","358113","0.0-12.0-1.0-1.2","98C16A8BE0E143998A224A5676B7C245","98C16A8BE0E143998A224A5676B7C245","34a350ff-3e85-43bf-92e7-2dcc5dc55631","6487686c-d5c6-46ca-8906-b38f097f73ac","{""participantId"":""98C16A8BE0E143998A224A5676B7C245"",""assignmentId"":""34a350ff-3e85-43bf-92e7-2dcc5dc55631"",""projectId"":""6487686c-d5c6-46ca-8906-b38f097f73ac""}","https://test12345.live/?participantId=98C16A8BE0E143998A224A5676B7C245&assignmentId=34a350ff-3e85-43bf-92e7-2dcc5dc55631&projectId=6487686c-d5c6-46ca-8906-b38f097f73ac","98C16A8BE0E143998A224A5676B7C245-2025-05-12-22-41-49","","1230","","images/schematic_sequence/dinner_party_scheme/dinner_party_scheme_1.png","0","",""
"","","","","","image-button-response","65","359920","0.0-12.0-1.0-2.2","98C16A8BE0E143998A224A5676B7C245","98C16A8BE0E143998A224A5676B7C245","34a350ff-3e85-43bf-92e7-2dcc5dc55631","6487686c-d5c6-46ca-8906-b38f097f73ac","{""participantId"":""98C16A8BE0E143998A224A5676B7C245"",""assignmentId"":""34a350ff-3e85-43bf-92e7-2dcc5dc55631"",""projectId"":""6487686c-d5c6-46ca-8906-b38f097f73ac""}","https://test12345.live/?participantId=98C16A8BE0E143998A224A5676B7C245&assignmentId=34a350ff-3e85-43bf-92e7-2dcc5dc55631&projectId=6487686c-d5c6-46ca-8906-b38f097f73ac","98C16A8BE0E143998A224A5676B7C245-2025-05-12-22-41-49","","null","","[]","null","",""
"","","","","","image-button-response","66","364422","0.0-12.0-1.0-0.3","98C16A8BE0E143998A224A5676B7C245","98C16A8BE0E143998A224A5676B7C245","34a350ff-3e85-43bf-92e7-2dcc5dc55631","6487686c-d5c6-46ca-8906-b38f097f73ac","{""participantId"":""98C16A8BE0E143998A224A5676B7C245"",""assignmentId"":""34a350ff-3e85-43bf-92e7-2dcc5dc55631"",""projectId"":""6487686c-d5c6-46ca-8906-b38f097f73ac""}","https://test12345.live/?participantId=98C16A8BE0E143998A224A5676B7C245&assignmentId=34a350ff-3e85-43bf-92e7-2dcc5dc55631&projectId=6487686c-d5c6-46ca-8906-b38f097f73ac","98C16A8BE0E143998A224A5676B7C245-2025-05-12-22-41-49","","null","","images/schematic_sequence/dinner_party_scheme/dinner_party_scheme_6.png","null","",""
"","","","","","image-button-response","67","365116","0.0-12.0-1.0-1.3","98C16A8BE0E143998A224A5676B7C245","98C16A8BE0E143998A224A5676B7C245","34a350ff-3e85-43bf-92e7-2dcc5dc55631","6487686c-d5c6-46ca-8906-b38f097f73ac","{""participantId"":""98C16A8BE0E143998A224A5676B7C245"",""assignmentId"":""34a350ff-3e85-43bf-92e7-2dcc5dc55631"",""projectId"":""6487686c-d5c6-46ca-8906-b38f097f73ac""}","https://test12345.live/?participantId=98C16A8BE0E143998A224A5676B7C245&assignmentId=34a350ff-3e85-43bf-92e7-2dcc5dc55631&projectId=6487686c-d5c6-46ca-8906-b38f097f73ac","98C16A8BE0E143998A224A5676B7C245-2025-05-12-22-41-49","","693","","images/schematic_sequence/dinner_party_scheme/dinner_party_scheme_6.png","0","",""
"","","","","","image-button-response","68","366919","0.0-12.0-1.0-2.3","98C16A8BE0E143998A224A5676B7C245","98C16A8BE0E143998A224A5676B7C245","34a350ff-3e85-43bf-92e7-2dcc5dc55631","6487686c-d5c6-46ca-8906-b38f097f73ac","{""participantId"":""98C16A8BE0E143998A224A5676B7C245"",""assignmentId"":""34a350ff-3e85-43bf-92e7-2dcc5dc55631"",""projectId"":""6487686c-d5c6-46ca-8906-b38f097f73ac""}","https://test12345.live/?participantId=98C16A8BE0E143998A224A5676B7C245&assignmentId=34a350ff-3e85-43bf-92e7-2dcc5dc55631&projectId=6487686c-d5c6-46ca-8906-b38f097f73ac","98C16A8BE0E143998A224A5676B7C245-2025-05-12-22-41-49","","null","","[]","null","",""
"","","","","","image-button-response","69","371421","0.0-12.0-1.0-0.4","98C16A8BE0E143998A224A5676B7C245","98C16A8BE0E143998A224A5676B7C245","34a350ff-3e85-43bf-92e7-2dcc5dc55631","6487686c-d5c6-46ca-8906-b38f097f73ac","{""participantId"":""98C16A8BE0E143998A224A5676B7C245"",""assignmentId"":""34a350ff-3e85-43bf-92e7-2dcc5dc55631"",""projectId"":""6487686c-d5c6-46ca-8906-b38f097f73ac""}","https://test12345.live/?participantId=98C16A8BE0E143998A224A5676B7C245&assignmentId=34a350ff-3e85-43bf-92e7-2dcc5dc55631&projectId=6487686c-d5c6-46ca-8906-b38f097f73ac","98C16A8BE0E143998A224A5676B7C245-2025-05-12-22-41-49","","null","","images/schematic_sequence/dinner_party_scheme/dinner_party_scheme_2.png","null","",""
"","","","","","image-button-response","70","372501","0.0-12.0-1.0-1.4","98C16A8BE0E143998A224A5676B7C245","98C16A8BE0E143998A224A5676B7C245","34a350ff-3e85-43bf-92e7-2dcc5dc55631","6487686c-d5c6-46ca-8906-b38f097f73ac","{""participantId"":""98C16A8BE0E143998A224A5676B7C245"",""assignmentId"":""34a350ff-3e85-43bf-92e7-2dcc5dc55631"",""projectId"":""6487686c-d5c6-46ca-8906-b38f097f73ac""}","https://test12345.live/?participantId=98C16A8BE0E143998A224A5676B7C245&assignmentId=34a350ff-3e85-43bf-92e7-2dcc5dc55631&projectId=6487686c-d5c6-46ca-8906-b38f097f73ac","98C16A8BE0E143998A224A5676B7C245-2025-05-12-22-41-49","","1079","","images/schematic_sequence/dinner_party_scheme/dinner_party_scheme_2.png","0","",""
"","","","","","image-button-response","71","374308","0.0-12.0-1.0-2.4","98C16A8BE0E143998A224A5676B7C245","98C16A8BE0E143998A224A5676B7C245","34a350ff-3e85-43bf-92e7-2dcc5dc55631","6487686c-d5c6-46ca-8906-b38f097f73ac","{""participantId"":""98C16A8BE0E143998A224A5676B7C245"",""assignmentId"":""34a350ff-3e85-43bf-92e7-2dcc5dc55631"",""projectId"":""6487686c-d5c6-46ca-8906-b38f097f73ac""}","https://test12345.live/?participantId=98C16A8BE0E143998A224A5676B7C245&assignmentId=34a350ff-3e85-43bf-92e7-2dcc5dc55631&projectId=6487686c-d5c6-46ca-8906-b38f097f73ac","98C16A8BE0E143998A224A5676B7C245-2025-05-12-22-41-49","","null","","[]","null","",""
"","","","","","image-button-response","72","378814","0.0-12.0-1.0-0.5","98C16A8BE0E143998A224A5676B7C245","98C16A8BE0E143998A224A5676B7C245","34a350ff-3e85-43bf-92e7-2dcc5dc55631","6487686c-d5c6-46ca-8906-b38f097f73ac","{""participantId"":""98C16A8BE0E143998A224A5676B7C245"",""assignmentId"":""34a350ff-3e85-43bf-92e7-2dcc5dc55631"",""projectId"":""6487686c-d5c6-46ca-8906-b38f097f73ac""}","https://test12345.live/?participantId=98C16A8BE0E143998A224A5676B7C245&assignmentId=34a350ff-3e85-43bf-92e7-2dcc5dc55631&projectId=6487686c-d5c6-46ca-8906-b38f097f73ac","98C16A8BE0E143998A224A5676B7C245-2025-05-12-22-41-49","","null","","images/schematic_sequence/dinner_party_scheme/dinner_party_scheme_9.png","null","",""
"","","","","","image-button-response","73","379469","0.0-12.0-1.0-1.5","98C16A8BE0E143998A224A5676B7C245","98C16A8BE0E143998A224A5676B7C245","34a350ff-3e85-43bf-92e7-2dcc5dc55631","6487686c-d5c6-46ca-8906-b38f097f73ac","{""participantId"":""98C16A8BE0E143998A224A5676B7C245"",""assignmentId"":""34a350ff-3e85-43bf-92e7-2dcc5dc55631"",""projectId"":""6487686c-d5c6-46ca-8906-b38f097f73ac""}","https://test12345.live/?participantId=98C16A8BE0E143998A224A5676B7C245&assignmentId=34a350ff-3e85-43bf-92e7-2dcc5dc55631&projectId=6487686c-d5c6-46ca-8906-b38f097f73ac","98C16A8BE0E143998A224A5676B7C245-2025-05-12-22-41-49","","655","","images/schematic_sequence/dinner_party_scheme/dinner_party_scheme_9.png","0","",""
"","","","","","image-button-response","74","381273","0.0-12.0-1.0-2.5","98C16A8BE0E143998A224A5676B7C245","98C16A8BE0E143998A224A5676B7C245","34a350ff-3e85-43bf-92e7-2dcc5dc55631","6487686c-d5c6-46ca-8906-b38f097f73ac","{""participantId"":""98C16A8BE0E143998A224A5676B7C245"",""assignmentId"":""34a350ff-3e85-43bf-92e7-2dcc5dc55631"",""projectId"":""6487686c-d5c6-46ca-8906-b38f097f73ac""}","https://test12345.live/?participantId=98C16A8BE0E143998A224A5676B7C245&assignmentId=34a350ff-3e85-43bf-92e7-2dcc5dc55631&projectId=6487686c-d5c6-46ca-8906-b38f097f73ac","98C16A8BE0E143998A224A5676B7C245-2025-05-12-22-41-49","","null","","[]","null","",""
"","","","","","image-button-response","75","385777","0.0-12.0-1.0-0.6","98C16A8BE0E143998A224A5676B7C245","98C16A8BE0E143998A224A5676B7C245","34a350ff-3e85-43bf-92e7-2dcc5dc55631","6487686c-d5c6-46ca-8906-b38f097f73ac","{""participantId"":""98C16A8BE0E143998A224A5676B7C245"",""assignmentId"":""34a350ff-3e85-43bf-92e7-2dcc5dc55631"",""projectId"":""6487686c-d5c6-46ca-8906-b38f097f73ac""}","https://test12345.live/?participantId=98C16A8BE0E143998A224A5676B7C245&assignmentId=34a350ff-3e85-43bf-92e7-2dcc5dc55631&projectId=6487686c-d5c6-46ca-8906-b38f097f73ac","98C16A8BE0E143998A224A5676B7C245-2025-05-12-22-41-49","","null","","images/schematic_sequence/dinner_party_scheme/dinner_party_scheme_4.png","null","",""
"","","","","","image-button-response","76","386606","0.0-12.0-1.0-1.6","98C16A8BE0E143998A224A5676B7C245","98C16A8BE0E143998A224A5676B7C245","34a350ff-3e85-43bf-92e7-2dcc5dc55631","6487686c-d5c6-46ca-8906-b38f097f73ac","{""participantId"":""98C16A8BE0E143998A224A5676B7C245"",""assignmentId"":""34a350ff-3e85-43bf-92e7-2dcc5dc55631"",""projectId"":""6487686c-d5c6-46ca-8906-b38f097f73ac""}","https://test12345.live/?participantId=98C16A8BE0E143998A224A5676B7C245&assignmentId=34a350ff-3e85-43bf-92e7-2dcc5dc55631&projectId=6487686c-d5c6-46ca-8906-b38f097f73ac","98C16A8BE0E143998A224A5676B7C245-2025-05-12-22-41-49","","828","","images/schematic_sequence/dinner_party_scheme/dinner_party_scheme_4.png","0","",""
"","","","","","image-button-response","77","388410","0.0-12.0-1.0-2.6","98C16A8BE0E143998A224A5676B7C245","98C16A8BE0E143998A224A5676B7C245","34a350ff-3e85-43bf-92e7-2dcc5dc55631","6487686c-d5c6-46ca-8906-b38f097f73ac","{""participantId"":""98C16A8BE0E143998A224A5676B7C245"",""assignmentId"":""34a350ff-3e85-43bf-92e7-2dcc5dc55631"",""projectId"":""6487686c-d5c6-46ca-8906-b38f097f73ac""}","https://test12345.live/?participantId=98C16A8BE0E143998A224A5676B7C245&assignmentId=34a350ff-3e85-43bf-92e7-2dcc5dc55631&projectId=6487686c-d5c6-46ca-8906-b38f097f73ac","98C16A8BE0E143998A224A5676B7C245-2025-05-12-22-41-49","","null","","[]","null","",""
"","","","","","image-button-response","78","392912","0.0-12.0-1.0-0.7","98C16A8BE0E143998A224A5676B7C245","98C16A8BE0E143998A224A5676B7C245","34a350ff-3e85-43bf-92e7-2dcc5dc55631","6487686c-d5c6-46ca-8906-b38f097f73ac","{""participantId"":""98C16A8BE0E143998A224A5676B7C245"",""assignmentId"":""34a350ff-3e85-43bf-92e7-2dcc5dc55631"",""projectId"":""6487686c-d5c6-46ca-8906-b38f097f73ac""}","https://test12345.live/?participantId=98C16A8BE0E143998A224A5676B7C245&assignmentId=34a350ff-3e85-43bf-92e7-2dcc5dc55631&projectId=6487686c-d5c6-46ca-8906-b38f097f73ac","98C16A8BE0E143998A224A5676B7C245-2025-05-12-22-41-49","","null","","images/schematic_sequence/dinner_party_scheme/dinner_party_scheme_ten.png","null","",""
"","","","","","image-button-response","79","393574","0.0-12.0-1.0-1.7","98C16A8BE0E143998A224A5676B7C245","98C16A8BE0E143998A224A5676B7C245","34a350ff-3e85-43bf-92e7-2dcc5dc55631","6487686c-d5c6-46ca-8906-b38f097f73ac","{""participantId"":""98C16A8BE0E143998A224A5676B7C245"",""assignmentId"":""34a350ff-3e85-43bf-92e7-2dcc5dc55631"",""projectId"":""6487686c-d5c6-46ca-8906-b38f097f73ac""}","https://test12345.live/?participantId=98C16A8BE0E143998A224A5676B7C245&assignmentId=34a350ff-3e85-43bf-92e7-2dcc5dc55631&projectId=6487686c-d5c6-46ca-8906-b38f097f73ac","98C16A8BE0E143998A224A5676B7C245-2025-05-12-22-41-49","","662","","images/schematic_sequence/dinner_party_scheme/dinner_party_scheme_ten.png","0","",""
"","","","","","image-button-response","80","395378","0.0-12.0-1.0-2.7","98C16A8BE0E143998A224A5676B7C245","98C16A8BE0E143998A224A5676B7C245","34a350ff-3e85-43bf-92e7-2dcc5dc55631","6487686c-d5c6-46ca-8906-b38f097f73ac","{""participantId"":""98C16A8BE0E143998A224A5676B7C245"",""assignmentId"":""34a350ff-3e85-43bf-92e7-2dcc5dc55631"",""projectId"":""6487686c-d5c6-46ca-8906-b38f097f73ac""}","https://test12345.live/?participantId=98C16A8BE0E143998A224A5676B7C245&assignmentId=34a350ff-3e85-43bf-92e7-2dcc5dc55631&projectId=6487686c-d5c6-46ca-8906-b38f097f73ac","98C16A8BE0E143998A224A5676B7C245-2025-05-12-22-41-49","","null","","[]","null","",""
"","","","","","image-button-response","81","399883","0.0-12.0-1.0-0.8","98C16A8BE0E143998A224A5676B7C245","98C16A8BE0E143998A224A5676B7C245","34a350ff-3e85-43bf-92e7-2dcc5dc55631","6487686c-d5c6-46ca-8906-b38f097f73ac","{""participantId"":""98C16A8BE0E143998A224A5676B7C245"",""assignmentId"":""34a350ff-3e85-43bf-92e7-2dcc5dc55631"",""projectId"":""6487686c-d5c6-46ca-8906-b38f097f73ac""}","https://test12345.live/?participantId=98C16A8BE0E143998A224A5676B7C245&assignmentId=34a350ff-3e85-43bf-92e7-2dcc5dc55631&projectId=6487686c-d5c6-46ca-8906-b38f097f73ac","98C16A8BE0E143998A224A5676B7C245-2025-05-12-22-41-49","","null","","images/schematic_sequence/dinner_party_scheme/dinner_party_scheme_5.png","null","",""
"","","","","","image-button-response","82","400411","0.0-12.0-1.0-1.8","98C16A8BE0E143998A224A5676B7C245","98C16A8BE0E143998A224A5676B7C245","34a350ff-3e85-43bf-92e7-2dcc5dc55631","6487686c-d5c6-46ca-8906-b38f097f73ac","{""participantId"":""98C16A8BE0E143998A224A5676B7C245"",""assignmentId"":""34a350ff-3e85-43bf-92e7-2dcc5dc55631"",""projectId"":""6487686c-d5c6-46ca-8906-b38f097f73ac""}","https://test12345.live/?participantId=98C16A8BE0E143998A224A5676B7C245&assignmentId=34a350ff-3e85-43bf-92e7-2dcc5dc55631&projectId=6487686c-d5c6-46ca-8906-b38f097f73ac","98C16A8BE0E143998A224A5676B7C245-2025-05-12-22-41-49","","527","","images/schematic_sequence/dinner_party_scheme/dinner_party_scheme_5.png","0","",""
"","","","","","image-button-response","83","402213","0.0-12.0-1.0-2.8","98C16A8BE0E143998A224A5676B7C245","98C16A8BE0E143998A224A5676B7C245","34a350ff-3e85-43bf-92e7-2dcc5dc55631","6487686c-d5c6-46ca-8906-b38f097f73ac","{""participantId"":""98C16A8BE0E143998A224A5676B7C245"",""assignmentId"":""34a350ff-3e85-43bf-92e7-2dcc5dc55631"",""projectId"":""6487686c-d5c6-46ca-8906-b38f097f73ac""}","https://test12345.live/?participantId=98C16A8BE0E143998A224A5676B7C245&assignmentId=34a350ff-3e85-43bf-92e7-2dcc5dc55631&projectId=6487686c-d5c6-46ca-8906-b38f097f73ac","98C16A8BE0E143998A224A5676B7C245-2025-05-12-22-41-49","","null","","[]","null","",""
"","","","","","image-button-response","84","406719","0.0-12.0-1.0-0.9","98C16A8BE0E143998A224A5676B7C245","98C16A8BE0E143998A224A5676B7C245","34a350ff-3e85-43bf-92e7-2dcc5dc55631","6487686c-d5c6-46ca-8906-b38f097f73ac","{""participantId"":""98C16A8BE0E143998A224A5676B7C245"",""assignmentId"":""34a350ff-3e85-43bf-92e7-2dcc5dc55631"",""projectId"":""6487686c-d5c6-46ca-8906-b38f097f73ac""}","https://test12345.live/?participantId=98C16A8BE0E143998A224A5676B7C245&assignmentId=34a350ff-3e85-43bf-92e7-2dcc5dc55631&projectId=6487686c-d5c6-46ca-8906-b38f097f73ac","98C16A8BE0E143998A224A5676B7C245-2025-05-12-22-41-49","","null","","images/schematic_sequence/dinner_party_scheme/dinner_party_scheme_3.png","null","",""
"","","","","","image-button-response","85","407329","0.0-12.0-1.0-1.9","98C16A8BE0E143998A224A5676B7C245","98C16A8BE0E143998A224A5676B7C245","34a350ff-3e85-43bf-92e7-2dcc5dc55631","6487686c-d5c6-46ca-8906-b38f097f73ac","{""participantId"":""98C16A8BE0E143998A224A5676B7C245"",""assignmentId"":""34a350ff-3e85-43bf-92e7-2dcc5dc55631"",""projectId"":""6487686c-d5c6-46ca-8906-b38f097f73ac""}","https://test12345.live/?participantId=98C16A8BE0E143998A224A5676B7C245&assignmentId=34a350ff-3e85-43bf-92e7-2dcc5dc55631&projectId=6487686c-d5c6-46ca-8906-b38f097f73ac","98C16A8BE0E143998A224A5676B7C245-2025-05-12-22-41-49","","609","","images/schematic_sequence/dinner_party_scheme/dinner_party_scheme_3.png","0","",""
"","","","","","image-button-response","86","409133","0.0-12.0-1.0-2.9","98C16A8BE0E143998A224A5676B7C245","98C16A8BE0E143998A224A5676B7C245","34a350ff-3e85-43bf-92e7-2dcc5dc55631","6487686c-d5c6-46ca-8906-b38f097f73ac","{""participantId"":""98C16A8BE0E143998A224A5676B7C245"",""assignmentId"":""34a350ff-3e85-43bf-92e7-2dcc5dc55631"",""projectId"":""6487686c-d5c6-46ca-8906-b38f097f73ac""}","https://test12345.live/?participantId=98C16A8BE0E143998A224A5676B7C245&assignmentId=34a350ff-3e85-43bf-92e7-2dcc5dc55631&projectId=6487686c-d5c6-46ca-8906-b38f097f73ac","98C16A8BE0E143998A224A5676B7C245-2025-05-12-22-41-49","","null","","[]","null","",""
"","","","","","html-audio-response","87","466364","0.0-13.0","98C16A8BE0E143998A224A5676B7C245","98C16A8BE0E143998A224A5676B7C245","34a350ff-3e85-43bf-92e7-2dcc5dc55631","6487686c-d5c6-46ca-8906-b38f097f73ac","{""participantId"":""98C16A8BE0E143998A224A5676B7C245"",""assignmentId"":""34a350ff-3e85-43bf-92e7-2dcc5dc55631"",""projectId"":""6487686c-d5c6-46ca-8906-b38f097f73ac""}","https://test12345.live/?participantId=98C16A8BE0E143998A224A5676B7C245&assignmentId=34a350ff-3e85-43bf-92e7-2dcc5dc55631&projectId=6487686c-d5c6-46ca-8906-b38f097f73ac","98C16A8BE0E143998A224A5676B7C245-2025-05-12-22-41-49","","26710","","[""<span style=\""color: red; font-size: 24px\""> NOW RECORDING</span><p>Please say out loud all the images you saw, as many as you can remember. The images can be said in any order.</p>""]","","1","dinner_party_scheme"
"","","","","","image-button-response","88","472371","0.0-14.0-0.0","98C16A8BE0E143998A224A5676B7C245","98C16A8BE0E143998A224A5676B7C245","34a350ff-3e85-43bf-92e7-2dcc5dc55631","6487686c-d5c6-46ca-8906-b38f097f73ac","{""participantId"":""98C16A8BE0E143998A224A5676B7C245"",""assignmentId"":""34a350ff-3e85-43bf-92e7-2dcc5dc55631"",""projectId"":""6487686c-d5c6-46ca-8906-b38f097f73ac""}","https://test12345.live/?participantId=98C16A8BE0E143998A224A5676B7C245&assignmentId=34a350ff-3e85-43bf-92e7-2dcc5dc55631&projectId=6487686c-d5c6-46ca-8906-b38f097f73ac","98C16A8BE0E143998A224A5676B7C245-2025-05-12-22-41-49","","null","","images/semantic_sequence/traveling_semantic/traveling_semantic_0.png","null","",""
"","","","","","image-button-response","89","476873","0.0-14.0-1.0-0.0","98C16A8BE0E143998A224A5676B7C245","98C16A8BE0E143998A224A5676B7C245","34a350ff-3e85-43bf-92e7-2dcc5dc55631","6487686c-d5c6-46ca-8906-b38f097f73ac","{""participantId"":""98C16A8BE0E143998A224A5676B7C245"",""assignmentId"":""34a350ff-3e85-43bf-92e7-2dcc5dc55631"",""projectId"":""6487686c-d5c6-46ca-8906-b38f097f73ac""}","https://test12345.live/?participantId=98C16A8BE0E143998A224A5676B7C245&assignmentId=34a350ff-3e85-43bf-92e7-2dcc5dc55631&projectId=6487686c-d5c6-46ca-8906-b38f097f73ac","98C16A8BE0E143998A224A5676B7C245-2025-05-12-22-41-49","","null","","images/semantic_sequence/traveling_semantic/traveling_semantic_1.png","null","",""
"","","","","","image-button-response","90","480786","0.0-14.0-1.0-1.0","98C16A8BE0E143998A224A5676B7C245","98C16A8BE0E143998A224A5676B7C245","34a350ff-3e85-43bf-92e7-2dcc5dc55631","6487686c-d5c6-46ca-8906-b38f097f73ac","{""participantId"":""98C16A8BE0E143998A224A5676B7C245"",""assignmentId"":""34a350ff-3e85-43bf-92e7-2dcc5dc55631"",""projectId"":""6487686c-d5c6-46ca-8906-b38f097f73ac""}","https://test12345.live/?participantId=98C16A8BE0E143998A224A5676B7C245&assignmentId=34a350ff-3e85-43bf-92e7-2dcc5dc55631&projectId=6487686c-d5c6-46ca-8906-b38f097f73ac","98C16A8BE0E143998A224A5676B7C245-2025-05-12-22-41-49","","3913","","images/semantic_sequence/traveling_semantic/traveling_semantic_1.png","0","",""
"","","","","","image-button-response","91","482590","0.0-14.0-1.0-2.0","98C16A8BE0E143998A224A5676B7C245","98C16A8BE0E143998A224A5676B7C245","34a350ff-3e85-43bf-92e7-2dcc5dc55631","6487686c-d5c6-46ca-8906-b38f097f73ac","{""participantId"":""98C16A8BE0E143998A224A5676B7C245"",""assignmentId"":""34a350ff-3e85-43bf-92e7-2dcc5dc55631"",""projectId"":""6487686c-d5c6-46ca-8906-b38f097f73ac""}","https://test12345.live/?participantId=98C16A8BE0E143998A224A5676B7C245&assignmentId=34a350ff-3e85-43bf-92e7-2dcc5dc55631&projectId=6487686c-d5c6-46ca-8906-b38f097f73ac","98C16A8BE0E143998A224A5676B7C245-2025-05-12-22-41-49","","null","","[]","null","",""
"","","","","","image-button-response","92","487091","0.0-14.0-1.0-0.1","98C16A8BE0E143998A224A5676B7C245","98C16A8BE0E143998A224A5676B7C245","34a350ff-3e85-43bf-92e7-2dcc5dc55631","6487686c-d5c6-46ca-8906-b38f097f73ac","{""participantId"":""98C16A8BE0E143998A224A5676B7C245"",""assignmentId"":""34a350ff-3e85-43bf-92e7-2dcc5dc55631"",""projectId"":""6487686c-d5c6-46ca-8906-b38f097f73ac""}","https://test12345.live/?participantId=98C16A8BE0E143998A224A5676B7C245&assignmentId=34a350ff-3e85-43bf-92e7-2dcc5dc55631&projectId=6487686c-d5c6-46ca-8906-b38f097f73ac","98C16A8BE0E143998A224A5676B7C245-2025-05-12-22-41-49","","null","","images/semantic_sequence/traveling_semantic/traveling_semantic_2.png","null","",""
"","","","","","image-button-response","93","488988","0.0-14.0-1.0-1.1","98C16A8BE0E143998A224A5676B7C245","98C16A8BE0E143998A224A5676B7C245","34a350ff-3e85-43bf-92e7-2dcc5dc55631","6487686c-d5c6-46ca-8906-b38f097f73ac","{""participantId"":""98C16A8BE0E143998A224A5676B7C245"",""assignmentId"":""34a350ff-3e85-43bf-92e7-2dcc5dc55631"",""projectId"":""6487686c-d5c6-46ca-8906-b38f097f73ac""}","https://test12345.live/?participantId=98C16A8BE0E143998A224A5676B7C245&assignmentId=34a350ff-3e85-43bf-92e7-2dcc5dc55631&projectId=6487686c-d5c6-46ca-8906-b38f097f73ac","98C16A8BE0E143998A224A5676B7C245-2025-05-12-22-41-49","","1896","","images/semantic_sequence/traveling_semantic/traveling_semantic_2.png","1","",""
"","","","","","image-button-response","94","490791","0.0-14.0-1.0-2.1","98C16A8BE0E143998A224A5676B7C245","98C16A8BE0E143998A224A5676B7C245","34a350ff-3e85-43bf-92e7-2dcc5dc55631","6487686c-d5c6-46ca-8906-b38f097f73ac","{""participantId"":""98C16A8BE0E143998A224A5676B7C245"",""assignmentId"":""34a350ff-3e85-43bf-92e7-2dcc5dc55631"",""projectId"":""6487686c-d5c6-46ca-8906-b38f097f73ac""}","https://test12345.live/?participantId=98C16A8BE0E143998A224A5676B7C245&assignmentId=34a350ff-3e85-43bf-92e7-2dcc5dc55631&projectId=6487686c-d5c6-46ca-8906-b38f097f73ac","98C16A8BE0E143998A224A5676B7C245-2025-05-12-22-41-49","","null","","[]","null","",""
"","","","","","image-button-response","95","495294","0.0-14.0-1.0-0.2","98C16A8BE0E143998A224A5676B7C245","98C16A8BE0E143998A224A5676B7C245","34a350ff-3e85-43bf-92e7-2dcc5dc55631","6487686c-d5c6-46ca-8906-b38f097f73ac","{""participantId"":""98C16A8BE0E143998A224A5676B7C245"",""assignmentId"":""34a350ff-3e85-43bf-92e7-2dcc5dc55631"",""projectId"":""6487686c-d5c6-46ca-8906-b38f097f73ac""}","https://test12345.live/?participantId=98C16A8BE0E143998A224A5676B7C245&assignmentId=34a350ff-3e85-43bf-92e7-2dcc5dc55631&projectId=6487686c-d5c6-46ca-8906-b38f097f73ac","98C16A8BE0E143998A224A5676B7C245-2025-05-12-22-41-49","","null","","images/semantic_sequence/traveling_semantic/traveling_semantic_3.png","null","",""
"","","","","","image-button-response","96","497107","0.0-14.0-1.0-1.2","98C16A8BE0E143998A224A5676B7C245","98C16A8BE0E143998A224A5676B7C245","34a350ff-3e85-43bf-92e7-2dcc5dc55631","6487686c-d5c6-46ca-8906-b38f097f73ac","{""participantId"":""98C16A8BE0E143998A224A5676B7C245"",""assignmentId"":""34a350ff-3e85-43bf-92e7-2dcc5dc55631"",""projectId"":""6487686c-d5c6-46ca-8906-b38f097f73ac""}","https://test12345.live/?participantId=98C16A8BE0E143998A224A5676B7C245&assignmentId=34a350ff-3e85-43bf-92e7-2dcc5dc55631&projectId=6487686c-d5c6-46ca-8906-b38f097f73ac","98C16A8BE0E143998A224A5676B7C245-2025-05-12-22-41-49","","1812","","images/semantic_sequence/traveling_semantic/traveling_semantic_3.png","1","",""
"","","","","","image-button-response","97","498911","0.0-14.0-1.0-2.2","98C16A8BE0E143998A224A5676B7C245","98C16A8BE0E143998A224A5676B7C245","34a350ff-3e85-43bf-92e7-2dcc5dc55631","6487686c-d5c6-46ca-8906-b38f097f73ac","{""participantId"":""98C16A8BE0E143998A224A5676B7C245"",""assignmentId"":""34a350ff-3e85-43bf-92e7-2dcc5dc55631"",""projectId"":""6487686c-d5c6-46ca-8906-b38f097f73ac""}","https://test12345.live/?participantId=98C16A8BE0E143998A224A5676B7C245&assignmentId=34a350ff-3e85-43bf-92e7-2dcc5dc55631&projectId=6487686c-d5c6-46ca-8906-b38f097f73ac","98C16A8BE0E143998A224A5676B7C245-2025-05-12-22-41-49","","null","","[]","null","",""
"","","","","","image-button-response","98","503412","0.0-14.0-1.0-0.3","98C16A8BE0E143998A224A5676B7C245","98C16A8BE0E143998A224A5676B7C245","34a350ff-3e85-43bf-92e7-2dcc5dc55631","6487686c-d5c6-46ca-8906-b38f097f73ac","{""participantId"":""98C16A8BE0E143998A224A5676B7C245"",""assignmentId"":""34a350ff-3e85-43bf-92e7-2dcc5dc55631"",""projectId"":""6487686c-d5c6-46ca-8906-b38f097f73ac""}","https://test12345.live/?participantId=98C16A8BE0E143998A224A5676B7C245&assignmentId=34a350ff-3e85-43bf-92e7-2dcc5dc55631&projectId=6487686c-d5c6-46ca-8906-b38f097f73ac","98C16A8BE0E143998A224A5676B7C245-2025-05-12-22-41-49","","null","","images/semantic_sequence/traveling_semantic/traveling_semantic_4.png","null","",""
"","","","","","image-button-response","99","504894","0.0-14.0-1.0-1.3","98C16A8BE0E143998A224A5676B7C245","98C16A8BE0E143998A224A5676B7C245","34a350ff-3e85-43bf-92e7-2dcc5dc55631","6487686c-d5c6-46ca-8906-b38f097f73ac","{""participantId"":""98C16A8BE0E143998A224A5676B7C245"",""assignmentId"":""34a350ff-3e85-43bf-92e7-2dcc5dc55631"",""projectId"":""6487686c-d5c6-46ca-8906-b38f097f73ac""}","https://test12345.live/?participantId=98C16A8BE0E143998A224A5676B7C245&assignmentId=34a350ff-3e85-43bf-92e7-2dcc5dc55631&projectId=6487686c-d5c6-46ca-8906-b38f097f73ac","98C16A8BE0E143998A224A5676B7C245-2025-05-12-22-41-49","","1481","","images/semantic_sequence/traveling_semantic/traveling_semantic_4.png","1","",""
"","","","","","image-button-response","100","506699","0.0-14.0-1.0-2.3","98C16A8BE0E143998A224A5676B7C245","98C16A8BE0E143998A224A5676B7C245","34a350ff-3e85-43bf-92e7-2dcc5dc55631","6487686c-d5c6-46ca-8906-b38f097f73ac","{""participantId"":""98C16A8BE0E143998A224A5676B7C245"",""assignmentId"":""34a350ff-3e85-43bf-92e7-2dcc5dc55631"",""projectId"":""6487686c-d5c6-46ca-8906-b38f097f73ac""}","https://test12345.live/?participantId=98C16A8BE0E143998A224A5676B7C245&assignmentId=34a350ff-3e85-43bf-92e7-2dcc5dc55631&projectId=6487686c-d5c6-46ca-8906-b38f097f73ac","98C16A8BE0E143998A224A5676B7C245-2025-05-12-22-41-49","","null","","[]","null","",""
"","","","","","image-button-response","101","511201","0.0-14.0-1.0-0.4","98C16A8BE0E143998A224A5676B7C245","98C16A8BE0E143998A224A5676B7C245","34a350ff-3e85-43bf-92e7-2dcc5dc55631","6487686c-d5c6-46ca-8906-b38f097f73ac","{""participantId"":""98C16A8BE0E143998A224A5676B7C245"",""assignmentId"":""34a350ff-3e85-43bf-92e7-2dcc5dc55631"",""projectId"":""6487686c-d5c6-46ca-8906-b38f097f73ac""}","https://test12345.live/?participantId=98C16A8BE0E143998A224A5676B7C245&assignmentId=34a350ff-3e85-43bf-92e7-2dcc5dc55631&projectId=6487686c-d5c6-46ca-8906-b38f097f73ac","98C16A8BE0E143998A224A5676B7C245-2025-05-12-22-41-49","","null","","images/semantic_sequence/traveling_semantic/traveling_semantic_5.png","null","",""
"","","","","","image-button-response","102","512012","0.0-14.0-1.0-1.4","98C16A8BE0E143998A224A5676B7C245","98C16A8BE0E143998A224A5676B7C245","34a350ff-3e85-43bf-92e7-2dcc5dc55631","6487686c-d5c6-46ca-8906-b38f097f73ac","{""participantId"":""98C16A8BE0E143998A224A5676B7C245"",""assignmentId"":""34a350ff-3e85-43bf-92e7-2dcc5dc55631"",""projectId"":""6487686c-d5c6-46ca-8906-b38f097f73ac""}","https://test12345.live/?participantId=98C16A8BE0E143998A224A5676B7C245&assignmentId=34a350ff-3e85-43bf-92e7-2dcc5dc55631&projectId=6487686c-d5c6-46ca-8906-b38f097f73ac","98C16A8BE0E143998A224A5676B7C245-2025-05-12-22-41-49","","810","","images/semantic_sequence/traveling_semantic/traveling_semantic_5.png","1","",""
"","","","","","image-button-response","103","513814","0.0-14.0-1.0-2.4","98C16A8BE0E143998A224A5676B7C245","98C16A8BE0E143998A224A5676B7C245","34a350ff-3e85-43bf-92e7-2dcc5dc55631","6487686c-d5c6-46ca-8906-b38f097f73ac","{""participantId"":""98C16A8BE0E143998A224A5676B7C245"",""assignmentId"":""34a350ff-3e85-43bf-92e7-2dcc5dc55631"",""projectId"":""6487686c-d5c6-46ca-8906-b38f097f73ac""}","https://test12345.live/?participantId=98C16A8BE0E143998A224A5676B7C245&assignmentId=34a350ff-3e85-43bf-92e7-2dcc5dc55631&projectId=6487686c-d5c6-46ca-8906-b38f097f73ac","98C16A8BE0E143998A224A5676B7C245-2025-05-12-22-41-49","","null","","[]","null","",""
"","","","","","image-button-response","104","518319","0.0-14.0-1.0-0.5","98C16A8BE0E143998A224A5676B7C245","98C16A8BE0E143998A224A5676B7C245","34a350ff-3e85-43bf-92e7-2dcc5dc55631","6487686c-d5c6-46ca-8906-b38f097f73ac","{""participantId"":""98C16A8BE0E143998A224A5676B7C245"",""assignmentId"":""34a350ff-3e85-43bf-92e7-2dcc5dc55631"",""projectId"":""6487686c-d5c6-46ca-8906-b38f097f73ac""}","https://test12345.live/?participantId=98C16A8BE0E143998A224A5676B7C245&assignmentId=34a350ff-3e85-43bf-92e7-2dcc5dc55631&projectId=6487686c-d5c6-46ca-8906-b38f097f73ac","98C16A8BE0E143998A224A5676B7C245-2025-05-12-22-41-49","","null","","images/semantic_sequence/traveling_semantic/traveling_semantic_6.png","null","",""
"","","","","","image-button-response","105","519197","0.0-14.0-1.0-1.5","98C16A8BE0E143998A224A5676B7C245","98C16A8BE0E143998A224A5676B7C245","34a350ff-3e85-43bf-92e7-2dcc5dc55631","6487686c-d5c6-46ca-8906-b38f097f73ac","{""participantId"":""98C16A8BE0E143998A224A5676B7C245"",""assignmentId"":""34a350ff-3e85-43bf-92e7-2dcc5dc55631"",""projectId"":""6487686c-d5c6-46ca-8906-b38f097f73ac""}","https://test12345.live/?participantId=98C16A8BE0E143998A224A5676B7C245&assignmentId=34a350ff-3e85-43bf-92e7-2dcc5dc55631&projectId=6487686c-d5c6-46ca-8906-b38f097f73ac","98C16A8BE0E143998A224A5676B7C245-2025-05-12-22-41-49","","877","","images/semantic_sequence/traveling_semantic/traveling_semantic_6.png","1","",""
"","","","","","image-button-response","106","521002","0.0-14.0-1.0-2.5","98C16A8BE0E143998A224A5676B7C245","98C16A8BE0E143998A224A5676B7C245","34a350ff-3e85-43bf-92e7-2dcc5dc55631","6487686c-d5c6-46ca-8906-b38f097f73ac","{""participantId"":""98C16A8BE0E143998A224A5676B7C245"",""assignmentId"":""34a350ff-3e85-43bf-92e7-2dcc5dc55631"",""projectId"":""6487686c-d5c6-46ca-8906-b38f097f73ac""}","https://test12345.live/?participantId=98C16A8BE0E143998A224A5676B7C245&assignmentId=34a350ff-3e85-43bf-92e7-2dcc5dc55631&projectId=6487686c-d5c6-46ca-8906-b38f097f73ac","98C16A8BE0E143998A224A5676B7C245-2025-05-12-22-41-49","","null","","[]","null","",""
"","","","","","image-button-response","107","525504","0.0-14.0-1.0-0.6","98C16A8BE0E143998A224A5676B7C245","98C16A8BE0E143998A224A5676B7C245","34a350ff-3e85-43bf-92e7-2dcc5dc55631","6487686c-d5c6-46ca-8906-b38f097f73ac","{""participantId"":""98C16A8BE0E143998A224A5676B7C245"",""assignmentId"":""34a350ff-3e85-43bf-92e7-2dcc5dc55631"",""projectId"":""6487686c-d5c6-46ca-8906-b38f097f73ac""}","https://test12345.live/?participantId=98C16A8BE0E143998A224A5676B7C245&assignmentId=34a350ff-3e85-43bf-92e7-2dcc5dc55631&projectId=6487686c-d5c6-46ca-8906-b38f097f73ac","98C16A8BE0E143998A224A5676B7C245-2025-05-12-22-41-49","","null","","images/semantic_sequence/traveling_semantic/traveling_semantic_7.png","null","",""
"","","","","","image-button-response","108","527250","0.0-14.0-1.0-1.6","98C16A8BE0E143998A224A5676B7C245","98C16A8BE0E143998A224A5676B7C245","34a350ff-3e85-43bf-92e7-2dcc5dc55631","6487686c-d5c6-46ca-8906-b38f097f73ac","{""participantId"":""98C16A8BE0E143998A224A5676B7C245"",""assignmentId"":""34a350ff-3e85-43bf-92e7-2dcc5dc55631"",""projectId"":""6487686c-d5c6-46ca-8906-b38f097f73ac""}","https://test12345.live/?participantId=98C16A8BE0E143998A224A5676B7C245&assignmentId=34a350ff-3e85-43bf-92e7-2dcc5dc55631&projectId=6487686c-d5c6-46ca-8906-b38f097f73ac","98C16A8BE0E143998A224A5676B7C245-2025-05-12-22-41-49","","1745","","images/semantic_sequence/traveling_semantic/traveling_semantic_7.png","0","",""
"","","","","","image-button-response","109","529057","0.0-14.0-1.0-2.6","98C16A8BE0E143998A224A5676B7C245","98C16A8BE0E143998A224A5676B7C245","34a350ff-3e85-43bf-92e7-2dcc5dc55631","6487686c-d5c6-46ca-8906-b38f097f73ac","{""participantId"":""98C16A8BE0E143998A224A5676B7C245"",""assignmentId"":""34a350ff-3e85-43bf-92e7-2dcc5dc55631"",""projectId"":""6487686c-d5c6-46ca-8906-b38f097f73ac""}","https://test12345.live/?participantId=98C16A8BE0E143998A224A5676B7C245&assignmentId=34a350ff-3e85-43bf-92e7-2dcc5dc55631&projectId=6487686c-d5c6-46ca-8906-b38f097f73ac","98C16A8BE0E143998A224A5676B7C245-2025-05-12-22-41-49","","null","","[]","null","",""
"","","","","","image-button-response","110","533559","0.0-14.0-1.0-0.7","98C16A8BE0E143998A224A5676B7C245","98C16A8BE0E143998A224A5676B7C245","34a350ff-3e85-43bf-92e7-2dcc5dc55631","6487686c-d5c6-46ca-8906-b38f097f73ac","{""participantId"":""98C16A8BE0E143998A224A5676B7C245"",""assignmentId"":""34a350ff-3e85-43bf-92e7-2dcc5dc55631"",""projectId"":""6487686c-d5c6-46ca-8906-b38f097f73ac""}","https://test12345.live/?participantId=98C16A8BE0E143998A224A5676B7C245&assignmentId=34a350ff-3e85-43bf-92e7-2dcc5dc55631&projectId=6487686c-d5c6-46ca-8906-b38f097f73ac","98C16A8BE0E143998A224A5676B7C245-2025-05-12-22-41-49","","null","","images/semantic_sequence/traveling_semantic/traveling_semantic_8.png","null","",""
"","","","","","image-button-response","111","534853","0.0-14.0-1.0-1.7","98C16A8BE0E143998A224A5676B7C245","98C16A8BE0E143998A224A5676B7C245","34a350ff-3e85-43bf-92e7-2dcc5dc55631","6487686c-d5c6-46ca-8906-b38f097f73ac","{""participantId"":""98C16A8BE0E143998A224A5676B7C245"",""assignmentId"":""34a350ff-3e85-43bf-92e7-2dcc5dc55631"",""projectId"":""6487686c-d5c6-46ca-8906-b38f097f73ac""}","https://test12345.live/?participantId=98C16A8BE0E143998A224A5676B7C245&assignmentId=34a350ff-3e85-43bf-92e7-2dcc5dc55631&projectId=6487686c-d5c6-46ca-8906-b38f097f73ac","98C16A8BE0E143998A224A5676B7C245-2025-05-12-22-41-49","","1293","","images/semantic_sequence/traveling_semantic/traveling_semantic_8.png","1","",""
"","","","","","image-button-response","112","536659","0.0-14.0-1.0-2.7","98C16A8BE0E143998A224A5676B7C245","98C16A8BE0E143998A224A5676B7C245","34a350ff-3e85-43bf-92e7-2dcc5dc55631","6487686c-d5c6-46ca-8906-b38f097f73ac","{""participantId"":""98C16A8BE0E143998A224A5676B7C245"",""assignmentId"":""34a350ff-3e85-43bf-92e7-2dcc5dc55631"",""projectId"":""6487686c-d5c6-46ca-8906-b38f097f73ac""}","https://test12345.live/?participantId=98C16A8BE0E143998A224A5676B7C245&assignmentId=34a350ff-3e85-43bf-92e7-2dcc5dc55631&projectId=6487686c-d5c6-46ca-8906-b38f097f73ac","98C16A8BE0E143998A224A5676B7C245-2025-05-12-22-41-49","","null","","[]","null","",""
"","","","","","image-button-response","113","541161","0.0-14.0-1.0-0.8","98C16A8BE0E143998A224A5676B7C245","98C16A8BE0E143998A224A5676B7C245","34a350ff-3e85-43bf-92e7-2dcc5dc55631","6487686c-d5c6-46ca-8906-b38f097f73ac","{""participantId"":""98C16A8BE0E143998A224A5676B7C245"",""assignmentId"":""34a350ff-3e85-43bf-92e7-2dcc5dc55631"",""projectId"":""6487686c-d5c6-46ca-8906-b38f097f73ac""}","https://test12345.live/?participantId=98C16A8BE0E143998A224A5676B7C245&assignmentId=34a350ff-3e85-43bf-92e7-2dcc5dc55631&projectId=6487686c-d5c6-46ca-8906-b38f097f73ac","98C16A8BE0E143998A224A5676B7C245-2025-05-12-22-41-49","","null","","images/semantic_sequence/traveling_semantic/traveling_semantic_9.png","null","",""
"","","","","","image-button-response","114","542188","0.0-14.0-1.0-1.8","98C16A8BE0E143998A224A5676B7C245","98C16A8BE0E143998A224A5676B7C245","34a350ff-3e85-43bf-92e7-2dcc5dc55631","6487686c-d5c6-46ca-8906-b38f097f73ac","{""participantId"":""98C16A8BE0E143998A224A5676B7C245"",""assignmentId"":""34a350ff-3e85-43bf-92e7-2dcc5dc55631"",""projectId"":""6487686c-d5c6-46ca-8906-b38f097f73ac""}","https://test12345.live/?participantId=98C16A8BE0E143998A224A5676B7C245&assignmentId=34a350ff-3e85-43bf-92e7-2dcc5dc55631&projectId=6487686c-d5c6-46ca-8906-b38f097f73ac","98C16A8BE0E143998A224A5676B7C245-2025-05-12-22-41-49","","1027","","images/semantic_sequence/traveling_semantic/traveling_semantic_9.png","1","",""
"","","","","","image-button-response","115","543994","0.0-14.0-1.0-2.8","98C16A8BE0E143998A224A5676B7C245","98C16A8BE0E143998A224A5676B7C245","34a350ff-3e85-43bf-92e7-2dcc5dc55631","6487686c-d5c6-46ca-8906-b38f097f73ac","{""participantId"":""98C16A8BE0E143998A224A5676B7C245"",""assignmentId"":""34a350ff-3e85-43bf-92e7-2dcc5dc55631"",""projectId"":""6487686c-d5c6-46ca-8906-b38f097f73ac""}","https://test12345.live/?participantId=98C16A8BE0E143998A224A5676B7C245&assignmentId=34a350ff-3e85-43bf-92e7-2dcc5dc55631&projectId=6487686c-d5c6-46ca-8906-b38f097f73ac","98C16A8BE0E143998A224A5676B7C245-2025-05-12-22-41-49","","null","","[]","null","",""
"","","","","","image-button-response","116","548499","0.0-14.0-1.0-0.9","98C16A8BE0E143998A224A5676B7C245","98C16A8BE0E143998A224A5676B7C245","34a350ff-3e85-43bf-92e7-2dcc5dc55631","6487686c-d5c6-46ca-8906-b38f097f73ac","{""participantId"":""98C16A8BE0E143998A224A5676B7C245"",""assignmentId"":""34a350ff-3e85-43bf-92e7-2dcc5dc55631"",""projectId"":""6487686c-d5c6-46ca-8906-b38f097f73ac""}","https://test12345.live/?participantId=98C16A8BE0E143998A224A5676B7C245&assignmentId=34a350ff-3e85-43bf-92e7-2dcc5dc55631&projectId=6487686c-d5c6-46ca-8906-b38f097f73ac","98C16A8BE0E143998A224A5676B7C245-2025-05-12-22-41-49","","null","","images/semantic_sequence/traveling_semantic/traveling_semantic_ten.png","null","",""
"","","","","","image-button-response","117","549841","0.0-14.0-1.0-1.9","98C16A8BE0E143998A224A5676B7C245","98C16A8BE0E143998A224A5676B7C245","34a350ff-3e85-43bf-92e7-2dcc5dc55631","6487686c-d5c6-46ca-8906-b38f097f73ac","{""participantId"":""98C16A8BE0E143998A224A5676B7C245"",""assignmentId"":""34a350ff-3e85-43bf-92e7-2dcc5dc55631"",""projectId"":""6487686c-d5c6-46ca-8906-b38f097f73ac""}","https://test12345.live/?participantId=98C16A8BE0E143998A224A5676B7C245&assignmentId=34a350ff-3e85-43bf-92e7-2dcc5dc55631&projectId=6487686c-d5c6-46ca-8906-b38f097f73ac","98C16A8BE0E143998A224A5676B7C245-2025-05-12-22-41-49","","1341","","images/semantic_sequence/traveling_semantic/traveling_semantic_ten.png","1","",""
"","","","","","image-button-response","118","551645","0.0-14.0-1.0-2.9","98C16A8BE0E143998A224A5676B7C245","98C16A8BE0E143998A224A5676B7C245","34a350ff-3e85-43bf-92e7-2dcc5dc55631","6487686c-d5c6-46ca-8906-b38f097f73ac","{""participantId"":""98C16A8BE0E143998A224A5676B7C245"",""assignmentId"":""34a350ff-3e85-43bf-92e7-2dcc5dc55631"",""projectId"":""6487686c-d5c6-46ca-8906-b38f097f73ac""}","https://test12345.live/?participantId=98C16A8BE0E143998A224A5676B7C245&assignmentId=34a350ff-3e85-43bf-92e7-2dcc5dc55631&projectId=6487686c-d5c6-46ca-8906-b38f097f73ac","98C16A8BE0E143998A224A5676B7C245-2025-05-12-22-41-49","","null","","[]","null","",""
"","","","","","html-audio-response","119","618162","0.0-15.0","98C16A8BE0E143998A224A5676B7C245","98C16A8BE0E143998A224A5676B7C245","34a350ff-3e85-43bf-92e7-2dcc5dc55631","6487686c-d5c6-46ca-8906-b38f097f73ac","{""participantId"":""98C16A8BE0E143998A224A5676B7C245"",""assignmentId"":""34a350ff-3e85-43bf-92e7-2dcc5dc55631"",""projectId"":""6487686c-d5c6-46ca-8906-b38f097f73ac""}","https://test12345.live/?participantId=98C16A8BE0E143998A224A5676B7C245&assignmentId=34a350ff-3e85-43bf-92e7-2dcc5dc55631&projectId=6487686c-d5c6-46ca-8906-b38f097f73ac","98C16A8BE0E143998A224A5676B7C245-2025-05-12-22-41-49","","33196","","[""<span style=\""color: red; font-size: 24px\""> NOW RECORDING</span><p>Please say out loud all the images you saw, as many as you can remember. The images can be said in any order.</p>""]","","1","traveling_semantic"
"","","","","","image-button-response","120","624170","0.0-16.0-0.0","98C16A8BE0E143998A224A5676B7C245","98C16A8BE0E143998A224A5676B7C245","34a350ff-3e85-43bf-92e7-2dcc5dc55631","6487686c-d5c6-46ca-8906-b38f097f73ac","{""participantId"":""98C16A8BE0E143998A224A5676B7C245"",""assignmentId"":""34a350ff-3e85-43bf-92e7-2dcc5dc55631"",""projectId"":""6487686c-d5c6-46ca-8906-b38f097f73ac""}","https://test12345.live/?participantId=98C16A8BE0E143998A224A5676B7C245&assignmentId=34a350ff-3e85-43bf-92e7-2dcc5dc55631&projectId=6487686c-d5c6-46ca-8906-b38f097f73ac","98C16A8BE0E143998A224A5676B7C245-2025-05-12-22-41-49","","null","","images/semantic_sequence/market_semantic/market_semantic_0.png","null","",""
"","","","","","image-button-response","121","628675","0.0-16.0-1.0-0.0","98C16A8BE0E143998A224A5676B7C245","98C16A8BE0E143998A224A5676B7C245","34a350ff-3e85-43bf-92e7-2dcc5dc55631","6487686c-d5c6-46ca-8906-b38f097f73ac","{""participantId"":""98C16A8BE0E143998A224A5676B7C245"",""assignmentId"":""34a350ff-3e85-43bf-92e7-2dcc5dc55631"",""projectId"":""6487686c-d5c6-46ca-8906-b38f097f73ac""}","https://test12345.live/?participantId=98C16A8BE0E143998A224A5676B7C245&assignmentId=34a350ff-3e85-43bf-92e7-2dcc5dc55631&projectId=6487686c-d5c6-46ca-8906-b38f097f73ac","98C16A8BE0E143998A224A5676B7C245-2025-05-12-22-41-49","","null","","images/semantic_sequence/market_semantic/market_semantic_1.png","null","",""
"","","","","","image-button-response","122","631582","0.0-16.0-1.0-1.0","98C16A8BE0E143998A224A5676B7C245","98C16A8BE0E143998A224A5676B7C245","34a350ff-3e85-43bf-92e7-2dcc5dc55631","6487686c-d5c6-46ca-8906-b38f097f73ac","{""participantId"":""98C16A8BE0E143998A224A5676B7C245"",""assignmentId"":""34a350ff-3e85-43bf-92e7-2dcc5dc55631"",""projectId"":""6487686c-d5c6-46ca-8906-b38f097f73ac""}","https://test12345.live/?participantId=98C16A8BE0E143998A224A5676B7C245&assignmentId=34a350ff-3e85-43bf-92e7-2dcc5dc55631&projectId=6487686c-d5c6-46ca-8906-b38f097f73ac","98C16A8BE0E143998A224A5676B7C245-2025-05-12-22-41-49","","2906","","images/semantic_sequence/market_semantic/market_semantic_1.png","1","",""
"","","","","","image-button-response","123","633385","0.0-16.0-1.0-2.0","98C16A8BE0E143998A224A5676B7C245","98C16A8BE0E143998A224A5676B7C245","34a350ff-3e85-43bf-92e7-2dcc5dc55631","6487686c-d5c6-46ca-8906-b38f097f73ac","{""participantId"":""98C16A8BE0E143998A224A5676B7C245"",""assignmentId"":""34a350ff-3e85-43bf-92e7-2dcc5dc55631"",""projectId"":""6487686c-d5c6-46ca-8906-b38f097f73ac""}","https://test12345.live/?participantId=98C16A8BE0E143998A224A5676B7C245&assignmentId=34a350ff-3e85-43bf-92e7-2dcc5dc55631&projectId=6487686c-d5c6-46ca-8906-b38f097f73ac","98C16A8BE0E143998A224A5676B7C245-2025-05-12-22-41-49","","null","","[]","null","",""
"","","","","","image-button-response","124","637887","0.0-16.0-1.0-0.1","98C16A8BE0E143998A224A5676B7C245","98C16A8BE0E143998A224A5676B7C245","34a350ff-3e85-43bf-92e7-2dcc5dc55631","6487686c-d5c6-46ca-8906-b38f097f73ac","{""participantId"":""98C16A8BE0E143998A224A5676B7C245"",""assignmentId"":""34a350ff-3e85-43bf-92e7-2dcc5dc55631"",""projectId"":""6487686c-d5c6-46ca-8906-b38f097f73ac""}","https://test12345.live/?participantId=98C16A8BE0E143998A224A5676B7C245&assignmentId=34a350ff-3e85-43bf-92e7-2dcc5dc55631&projectId=6487686c-d5c6-46ca-8906-b38f097f73ac","98C16A8BE0E143998A224A5676B7C245-2025-05-12-22-41-49","","null","","images/semantic_sequence/market_semantic/market_semantic_2.png","null","",""
"","","","","","image-button-response","125","638785","0.0-16.0-1.0-1.1","98C16A8BE0E143998A224A5676B7C245","98C16A8BE0E143998A224A5676B7C245","34a350ff-3e85-43bf-92e7-2dcc5dc55631","6487686c-d5c6-46ca-8906-b38f097f73ac","{""participantId"":""98C16A8BE0E143998A224A5676B7C245"",""assignmentId"":""34a350ff-3e85-43bf-92e7-2dcc5dc55631"",""projectId"":""6487686c-d5c6-46ca-8906-b38f097f73ac""}","https://test12345.live/?participantId=98C16A8BE0E143998A224A5676B7C245&assignmentId=34a350ff-3e85-43bf-92e7-2dcc5dc55631&projectId=6487686c-d5c6-46ca-8906-b38f097f73ac","98C16A8BE0E143998A224A5676B7C245-2025-05-12-22-41-49","","898","","images/semantic_sequence/market_semantic/market_semantic_2.png","1","",""
"","","","","","image-button-response","126","640590","0.0-16.0-1.0-2.1","98C16A8BE0E143998A224A5676B7C245","98C16A8BE0E143998A224A5676B7C245","34a350ff-3e85-43bf-92e7-2dcc5dc55631","6487686c-d5c6-46ca-8906-b38f097f73ac","{""participantId"":""98C16A8BE0E143998A224A5676B7C245"",""assignmentId"":""34a350ff-3e85-43bf-92e7-2dcc5dc55631"",""projectId"":""6487686c-d5c6-46ca-8906-b38f097f73ac""}","https://test12345.live/?participantId=98C16A8BE0E143998A224A5676B7C245&assignmentId=34a350ff-3e85-43bf-92e7-2dcc5dc55631&projectId=6487686c-d5c6-46ca-8906-b38f097f73ac","98C16A8BE0E143998A224A5676B7C245-2025-05-12-22-41-49","","null","","[]","null","",""
"","","","","","image-button-response","127","645093","0.0-16.0-1.0-0.2","98C16A8BE0E143998A224A5676B7C245","98C16A8BE0E143998A224A5676B7C245","34a350ff-3e85-43bf-92e7-2dcc5dc55631","6487686c-d5c6-46ca-8906-b38f097f73ac","{""participantId"":""98C16A8BE0E143998A224A5676B7C245"",""assignmentId"":""34a350ff-3e85-43bf-92e7-2dcc5dc55631"",""projectId"":""6487686c-d5c6-46ca-8906-b38f097f73ac""}","https://test12345.live/?participantId=98C16A8BE0E143998A224A5676B7C245&assignmentId=34a350ff-3e85-43bf-92e7-2dcc5dc55631&projectId=6487686c-d5c6-46ca-8906-b38f097f73ac","98C16A8BE0E143998A224A5676B7C245-2025-05-12-22-41-49","","null","","images/semantic_sequence/market_semantic/market_semantic_3.png","null","",""
"","","","","","image-button-response","128","646121","0.0-16.0-1.0-1.2","98C16A8BE0E143998A224A5676B7C245","98C16A8BE0E143998A224A5676B7C245","34a350ff-3e85-43bf-92e7-2dcc5dc55631","6487686c-d5c6-46ca-8906-b38f097f73ac","{""participantId"":""98C16A8BE0E143998A224A5676B7C245"",""assignmentId"":""34a350ff-3e85-43bf-92e7-2dcc5dc55631"",""projectId"":""6487686c-d5c6-46ca-8906-b38f097f73ac""}","https://test12345.live/?participantId=98C16A8BE0E143998A224A5676B7C245&assignmentId=34a350ff-3e85-43bf-92e7-2dcc5dc55631&projectId=6487686c-d5c6-46ca-8906-b38f097f73ac","98C16A8BE0E143998A224A5676B7C245-2025-05-12-22-41-49","","1028","","images/semantic_sequence/market_semantic/market_semantic_3.png","1","",""
"","","","","","image-button-response","129","647926","0.0-16.0-1.0-2.2","98C16A8BE0E143998A224A5676B7C245","98C16A8BE0E143998A224A5676B7C245","34a350ff-3e85-43bf-92e7-2dcc5dc55631","6487686c-d5c6-46ca-8906-b38f097f73ac","{""participantId"":""98C16A8BE0E143998A224A5676B7C245"",""assignmentId"":""34a350ff-3e85-43bf-92e7-2dcc5dc55631"",""projectId"":""6487686c-d5c6-46ca-8906-b38f097f73ac""}","https://test12345.live/?participantId=98C16A8BE0E143998A224A5676B7C245&assignmentId=34a350ff-3e85-43bf-92e7-2dcc5dc55631&projectId=6487686c-d5c6-46ca-8906-b38f097f73ac","98C16A8BE0E143998A224A5676B7C245-2025-05-12-22-41-49","","null","","[]","null","",""
"","","","","","image-button-response","130","652431","0.0-16.0-1.0-0.3","98C16A8BE0E143998A224A5676B7C245","98C16A8BE0E143998A224A5676B7C245","34a350ff-3e85-43bf-92e7-2dcc5dc55631","6487686c-d5c6-46ca-8906-b38f097f73ac","{""participantId"":""98C16A8BE0E143998A224A5676B7C245"",""assignmentId"":""34a350ff-3e85-43bf-92e7-2dcc5dc55631"",""projectId"":""6487686c-d5c6-46ca-8906-b38f097f73ac""}","https://test12345.live/?participantId=98C16A8BE0E143998A224A5676B7C245&assignmentId=34a350ff-3e85-43bf-92e7-2dcc5dc55631&projectId=6487686c-d5c6-46ca-8906-b38f097f73ac","98C16A8BE0E143998A224A5676B7C245-2025-05-12-22-41-49","","null","","images/semantic_sequence/market_semantic/market_semantic_4.png","null","",""
"","","","","","image-button-response","131","653074","0.0-16.0-1.0-1.3","98C16A8BE0E143998A224A5676B7C245","98C16A8BE0E143998A224A5676B7C245","34a350ff-3e85-43bf-92e7-2dcc5dc55631","6487686c-d5c6-46ca-8906-b38f097f73ac","{""participantId"":""98C16A8BE0E143998A224A5676B7C245"",""assignmentId"":""34a350ff-3e85-43bf-92e7-2dcc5dc55631"",""projectId"":""6487686c-d5c6-46ca-8906-b38f097f73ac""}","https://test12345.live/?participantId=98C16A8BE0E143998A224A5676B7C245&assignmentId=34a350ff-3e85-43bf-92e7-2dcc5dc55631&projectId=6487686c-d5c6-46ca-8906-b38f097f73ac","98C16A8BE0E143998A224A5676B7C245-2025-05-12-22-41-49","","642","","images/semantic_sequence/market_semantic/market_semantic_4.png","0","",""
"","","","","","image-button-response","132","654878","0.0-16.0-1.0-2.3","98C16A8BE0E143998A224A5676B7C245","98C16A8BE0E143998A224A5676B7C245","34a350ff-3e85-43bf-92e7-2dcc5dc55631","6487686c-d5c6-46ca-8906-b38f097f73ac","{""participantId"":""98C16A8BE0E143998A224A5676B7C245"",""assignmentId"":""34a350ff-3e85-43bf-92e7-2dcc5dc55631"",""projectId"":""6487686c-d5c6-46ca-8906-b38f097f73ac""}","https://test12345.live/?participantId=98C16A8BE0E143998A224A5676B7C245&assignmentId=34a350ff-3e85-43bf-92e7-2dcc5dc55631&projectId=6487686c-d5c6-46ca-8906-b38f097f73ac","98C16A8BE0E143998A224A5676B7C245-2025-05-12-22-41-49","","null","","[]","null","",""
"","","","","","image-button-response","133","659383","0.0-16.0-1.0-0.4","98C16A8BE0E143998A224A5676B7C245","98C16A8BE0E143998A224A5676B7C245","34a350ff-3e85-43bf-92e7-2dcc5dc55631","6487686c-d5c6-46ca-8906-b38f097f73ac","{""participantId"":""98C16A8BE0E143998A224A5676B7C245"",""assignmentId"":""34a350ff-3e85-43bf-92e7-2dcc5dc55631"",""projectId"":""6487686c-d5c6-46ca-8906-b38f097f73ac""}","https://test12345.live/?participantId=98C16A8BE0E143998A224A5676B7C245&assignmentId=34a350ff-3e85-43bf-92e7-2dcc5dc55631&projectId=6487686c-d5c6-46ca-8906-b38f097f73ac","98C16A8BE0E143998A224A5676B7C245-2025-05-12-22-41-49","","null","","images/semantic_sequence/market_semantic/market_semantic_5.png","null","",""
"","","","","","image-button-response","134","660026","0.0-16.0-1.0-1.4","98C16A8BE0E143998A224A5676B7C245","98C16A8BE0E143998A224A5676B7C245","34a350ff-3e85-43bf-92e7-2dcc5dc55631","6487686c-d5c6-46ca-8906-b38f097f73ac","{""participantId"":""98C16A8BE0E143998A224A5676B7C245"",""assignmentId"":""34a350ff-3e85-43bf-92e7-2dcc5dc55631"",""projectId"":""6487686c-d5c6-46ca-8906-b38f097f73ac""}","https://test12345.live/?participantId=98C16A8BE0E143998A224A5676B7C245&assignmentId=34a350ff-3e85-43bf-92e7-2dcc5dc55631&projectId=6487686c-d5c6-46ca-8906-b38f097f73ac","98C16A8BE0E143998A224A5676B7C245-2025-05-12-22-41-49","","642","","images/semantic_sequence/market_semantic/market_semantic_5.png","1","",""
"","","","","","image-button-response","135","661829","0.0-16.0-1.0-2.4","98C16A8BE0E143998A224A5676B7C245","98C16A8BE0E143998A224A5676B7C245","34a350ff-3e85-43bf-92e7-2dcc5dc55631","6487686c-d5c6-46ca-8906-b38f097f73ac","{""participantId"":""98C16A8BE0E143998A224A5676B7C245"",""assignmentId"":""34a350ff-3e85-43bf-92e7-2dcc5dc55631"",""projectId"":""6487686c-d5c6-46ca-8906-b38f097f73ac""}","https://test12345.live/?participantId=98C16A8BE0E143998A224A5676B7C245&assignmentId=34a350ff-3e85-43bf-92e7-2dcc5dc55631&projectId=6487686c-d5c6-46ca-8906-b38f097f73ac","98C16A8BE0E143998A224A5676B7C245-2025-05-12-22-41-49","","null","","[]","null","",""
"","","","","","image-button-response","136","666333","0.0-16.0-1.0-0.5","98C16A8BE0E143998A224A5676B7C245","98C16A8BE0E143998A224A5676B7C245","34a350ff-3e85-43bf-92e7-2dcc5dc55631","6487686c-d5c6-46ca-8906-b38f097f73ac","{""participantId"":""98C16A8BE0E143998A224A5676B7C245"",""assignmentId"":""34a350ff-3e85-43bf-92e7-2dcc5dc55631"",""projectId"":""6487686c-d5c6-46ca-8906-b38f097f73ac""}","https://test12345.live/?participantId=98C16A8BE0E143998A224A5676B7C245&assignmentId=34a350ff-3e85-43bf-92e7-2dcc5dc55631&projectId=6487686c-d5c6-46ca-8906-b38f097f73ac","98C16A8BE0E143998A224A5676B7C245-2025-05-12-22-41-49","","null","","images/semantic_sequence/market_semantic/market_semantic_6.png","null","",""
"","","","","","image-button-response","137","667178","0.0-16.0-1.0-1.5","98C16A8BE0E143998A224A5676B7C245","98C16A8BE0E143998A224A5676B7C245","34a350ff-3e85-43bf-92e7-2dcc5dc55631","6487686c-d5c6-46ca-8906-b38f097f73ac","{""participantId"":""98C16A8BE0E143998A224A5676B7C245"",""assignmentId"":""34a350ff-3e85-43bf-92e7-2dcc5dc55631"",""projectId"":""6487686c-d5c6-46ca-8906-b38f097f73ac""}","https://test12345.live/?participantId=98C16A8BE0E143998A224A5676B7C245&assignmentId=34a350ff-3e85-43bf-92e7-2dcc5dc55631&projectId=6487686c-d5c6-46ca-8906-b38f097f73ac","98C16A8BE0E143998A224A5676B7C245-2025-05-12-22-41-49","","844","","images/semantic_sequence/market_semantic/market_semantic_6.png","1","",""
"","","","","","image-button-response","138","668983","0.0-16.0-1.0-2.5","98C16A8BE0E143998A224A5676B7C245","98C16A8BE0E143998A224A5676B7C245","34a350ff-3e85-43bf-92e7-2dcc5dc55631","6487686c-d5c6-46ca-8906-b38f097f73ac","{""participantId"":""98C16A8BE0E143998A224A5676B7C245"",""assignmentId"":""34a350ff-3e85-43bf-92e7-2dcc5dc55631"",""projectId"":""6487686c-d5c6-46ca-8906-b38f097f73ac""}","https://test12345.live/?participantId=98C16A8BE0E143998A224A5676B7C245&assignmentId=34a350ff-3e85-43bf-92e7-2dcc5dc55631&projectId=6487686c-d5c6-46ca-8906-b38f097f73ac","98C16A8BE0E143998A224A5676B7C245-2025-05-12-22-41-49","","null","","[]","null","",""
"","","","","","image-button-response","139","673485","0.0-16.0-1.0-0.6","98C16A8BE0E143998A224A5676B7C245","98C16A8BE0E143998A224A5676B7C245","34a350ff-3e85-43bf-92e7-2dcc5dc55631","6487686c-d5c6-46ca-8906-b38f097f73ac","{""participantId"":""98C16A8BE0E143998A224A5676B7C245"",""assignmentId"":""34a350ff-3e85-43bf-92e7-2dcc5dc55631"",""projectId"":""6487686c-d5c6-46ca-8906-b38f097f73ac""}","https://test12345.live/?participantId=98C16A8BE0E143998A224A5676B7C245&assignmentId=34a350ff-3e85-43bf-92e7-2dcc5dc55631&projectId=6487686c-d5c6-46ca-8906-b38f097f73ac","98C16A8BE0E143998A224A5676B7C245-2025-05-12-22-41-49","","null","","images/semantic_sequence/market_semantic/market_semantic_7.png","null","",""
"","","","","","image-button-response","140","674781","0.0-16.0-1.0-1.6","98C16A8BE0E143998A224A5676B7C245","98C16A8BE0E143998A224A5676B7C245","34a350ff-3e85-43bf-92e7-2dcc5dc55631","6487686c-d5c6-46ca-8906-b38f097f73ac","{""participantId"":""98C16A8BE0E143998A224A5676B7C245"",""assignmentId"":""34a350ff-3e85-43bf-92e7-2dcc5dc55631"",""projectId"":""6487686c-d5c6-46ca-8906-b38f097f73ac""}","https://test12345.live/?participantId=98C16A8BE0E143998A224A5676B7C245&assignmentId=34a350ff-3e85-43bf-92e7-2dcc5dc55631&projectId=6487686c-d5c6-46ca-8906-b38f097f73ac","98C16A8BE0E143998A224A5676B7C245-2025-05-12-22-41-49","","1296","","images/semantic_sequence/market_semantic/market_semantic_7.png","0","",""
"","","","","","image-button-response","141","676586","0.0-16.0-1.0-2.6","98C16A8BE0E143998A224A5676B7C245","98C16A8BE0E143998A224A5676B7C245","34a350ff-3e85-43bf-92e7-2dcc5dc55631","6487686c-d5c6-46ca-8906-b38f097f73ac","{""participantId"":""98C16A8BE0E143998A224A5676B7C245"",""assignmentId"":""34a350ff-3e85-43bf-92e7-2dcc5dc55631"",""projectId"":""6487686c-d5c6-46ca-8906-b38f097f73ac""}","https://test12345.live/?participantId=98C16A8BE0E143998A224A5676B7C245&assignmentId=34a350ff-3e85-43bf-92e7-2dcc5dc55631&projectId=6487686c-d5c6-46ca-8906-b38f097f73ac","98C16A8BE0E143998A224A5676B7C245-2025-05-12-22-41-49","","null","","[]","null","",""
"","","","","","image-button-response","142","681086","0.0-16.0-1.0-0.7","98C16A8BE0E143998A224A5676B7C245","98C16A8BE0E143998A224A5676B7C245","34a350ff-3e85-43bf-92e7-2dcc5dc55631","6487686c-d5c6-46ca-8906-b38f097f73ac","{""participantId"":""98C16A8BE0E143998A224A5676B7C245"",""assignmentId"":""34a350ff-3e85-43bf-92e7-2dcc5dc55631"",""projectId"":""6487686c-d5c6-46ca-8906-b38f097f73ac""}","https://test12345.live/?participantId=98C16A8BE0E143998A224A5676B7C245&assignmentId=34a350ff-3e85-43bf-92e7-2dcc5dc55631&projectId=6487686c-d5c6-46ca-8906-b38f097f73ac","98C16A8BE0E143998A224A5676B7C245-2025-05-12-22-41-49","","null","","images/semantic_sequence/market_semantic/market_semantic_8.png","null","",""
