"success","timeout","failed_images","failed_audio","failed_video","trial_type","trial_index","time_elapsed","internal_node_id","subject","subject_id","study_id","session_id","urlvar","current_url","audio_id","view_history","rt","device_id","stimulus","response","estimated_stimulus_onset","seq_name"
"true","false","[]","[]","[]","preload","0","9163","0.0-0.0","98C44B831735476C882D761E96496EDA","98C44B831735476C882D761E96496EDA","c799354f-7a19-436e-9355-f704e9d4e4bc","051c06f1-75cc-4548-856d-4923ddaba0dc","{""num_scrambled_semantic"":""8"",""num_scrambled_causal"":""4"",""num_scrambled_schematic"":""4"",""participantId"":""98C44B831735476C882D761E96496EDA"",""assignmentId"":""c799354f-7a19-436e-9355-f704e9d4e4bc"",""projectId"":""051c06f1-75cc-4548-856d-4923ddaba0dc""}","https://test12345.live/?num_scrambled_semantic=8&num_scrambled_causal=4&num_scrambled_schematic=4&participantId=98C44B831735476C882D761E96496EDA&assignmentId=c799354f-7a19-436e-9355-f704e9d4e4bc&projectId=051c06f1-75cc-4548-856d-4923ddaba0dc","98C44B831735476C882D761E96496EDA-2025-05-15-18-51-56","","","","","","",""
"","","","","","instructions","1","29671","0.0-1.0","98C44B831735476C882D761E96496EDA","98C44B831735476C882D761E96496EDA","c799354f-7a19-436e-9355-f704e9d4e4bc","051c06f1-75cc-4548-856d-4923ddaba0dc","{""num_scrambled_semantic"":""8"",""num_scrambled_causal"":""4"",""num_scrambled_schematic"":""4"",""participantId"":""98C44B831735476C882D761E96496EDA"",""assignmentId"":""c799354f-7a19-436e-9355-f704e9d4e4bc"",""projectId"":""051c06f1-75cc-4548-856d-4923ddaba0dc""}","https://test12345.live/?num_scrambled_semantic=8&num_scrambled_causal=4&num_scrambled_schematic=4&participantId=98C44B831735476C882D761E96496EDA&assignmentId=c799354f-7a19-436e-9355-f704e9d4e4bc&projectId=051c06f1-75cc-4548-856d-4923ddaba0dc","98C44B831735476C882D761E96496EDA-2025-05-15-18-51-56","[{""page_index"":0,""viewing_time"":20507}]","20507","","","","",""
"","","","","","instructions","2","95796","0.0-2.0","98C44B831735476C882D761E96496EDA","98C44B831735476C882D761E96496EDA","c799354f-7a19-436e-9355-f704e9d4e4bc","051c06f1-75cc-4548-856d-4923ddaba0dc","{""num_scrambled_semantic"":""8"",""num_scrambled_causal"":""4"",""num_scrambled_schematic"":""4"",""participantId"":""98C44B831735476C882D761E96496EDA"",""assignmentId"":""c799354f-7a19-436e-9355-f704e9d4e4bc"",""projectId"":""051c06f1-75cc-4548-856d-4923ddaba0dc""}","https://test12345.live/?num_scrambled_semantic=8&num_scrambled_causal=4&num_scrambled_schematic=4&participantId=98C44B831735476C882D761E96496EDA&assignmentId=c799354f-7a19-436e-9355-f704e9d4e4bc&projectId=051c06f1-75cc-4548-856d-4923ddaba0dc","98C44B831735476C882D761E96496EDA-2025-05-15-18-51-56","[{""page_index"":0,""viewing_time"":66125}]","66125","","","","",""
"true","","","","","fullscreen","3","99496","0.0-3.0","98C44B831735476C882D761E96496EDA","98C44B831735476C882D761E96496EDA","c799354f-7a19-436e-9355-f704e9d4e4bc","051c06f1-75cc-4548-856d-4923ddaba0dc","{""num_scrambled_semantic"":""8"",""num_scrambled_causal"":""4"",""num_scrambled_schematic"":""4"",""participantId"":""98C44B831735476C882D761E96496EDA"",""assignmentId"":""c799354f-7a19-436e-9355-f704e9d4e4bc"",""projectId"":""051c06f1-75cc-4548-856d-4923ddaba0dc""}","https://test12345.live/?num_scrambled_semantic=8&num_scrambled_causal=4&num_scrambled_schematic=4&participantId=98C44B831735476C882D761E96496EDA&assignmentId=c799354f-7a19-436e-9355-f704e9d4e4bc&projectId=051c06f1-75cc-4548-856d-4923ddaba0dc","98C44B831735476C882D761E96496EDA-2025-05-15-18-51-56","","2699","","","","",""
"","","","","","initialize-microphone","4","107110","0.0-4.0-0.0","98C44B831735476C882D761E96496EDA","98C44B831735476C882D761E96496EDA","c799354f-7a19-436e-9355-f704e9d4e4bc","051c06f1-75cc-4548-856d-4923ddaba0dc","{""num_scrambled_semantic"":""8"",""num_scrambled_causal"":""4"",""num_scrambled_schematic"":""4"",""participantId"":""98C44B831735476C882D761E96496EDA"",""assignmentId"":""c799354f-7a19-436e-9355-f704e9d4e4bc"",""projectId"":""051c06f1-75cc-4548-856d-4923ddaba0dc""}","https://test12345.live/?num_scrambled_semantic=8&num_scrambled_causal=4&num_scrambled_schematic=4&participantId=98C44B831735476C882D761E96496EDA&assignmentId=c799354f-7a19-436e-9355-f704e9d4e4bc&projectId=051c06f1-75cc-4548-856d-4923ddaba0dc","98C44B831735476C882D761E96496EDA-2025-05-15-18-51-56","","","9f5448446cf5fa6b8c96d788c731692b4345e9f3af9b4bfac38d48bd0e7e743f","","","",""
"","","","","","html-audio-response","5","114734","0.0-4.0-1.0","98C44B831735476C882D761E96496EDA","98C44B831735476C882D761E96496EDA","c799354f-7a19-436e-9355-f704e9d4e4bc","051c06f1-75cc-4548-856d-4923ddaba0dc","{""num_scrambled_semantic"":""8"",""num_scrambled_causal"":""4"",""num_scrambled_schematic"":""4"",""participantId"":""98C44B831735476C882D761E96496EDA"",""assignmentId"":""c799354f-7a19-436e-9355-f704e9d4e4bc"",""projectId"":""051c06f1-75cc-4548-856d-4923ddaba0dc""}","https://test12345.live/?num_scrambled_semantic=8&num_scrambled_causal=4&num_scrambled_schematic=4&participantId=98C44B831735476C882D761E96496EDA&assignmentId=c799354f-7a19-436e-9355-f704e9d4e4bc&projectId=051c06f1-75cc-4548-856d-4923ddaba0dc","98C44B831735476C882D761E96496EDA-2025-05-15-18-51-56","","1956","","<span style=""color: red; font-size: 24px""> NOW RECORDING</span>
        <p>Please test Microphone</p>","","1",""
"","","","","","html-button-response","6","115903","0.0-4.0-2.0","98C44B831735476C882D761E96496EDA","98C44B831735476C882D761E96496EDA","c799354f-7a19-436e-9355-f704e9d4e4bc","051c06f1-75cc-4548-856d-4923ddaba0dc","{""num_scrambled_semantic"":""8"",""num_scrambled_causal"":""4"",""num_scrambled_schematic"":""4"",""participantId"":""98C44B831735476C882D761E96496EDA"",""assignmentId"":""c799354f-7a19-436e-9355-f704e9d4e4bc"",""projectId"":""051c06f1-75cc-4548-856d-4923ddaba0dc""}","https://test12345.live/?num_scrambled_semantic=8&num_scrambled_causal=4&num_scrambled_schematic=4&participantId=98C44B831735476C882D761E96496EDA&assignmentId=c799354f-7a19-436e-9355-f704e9d4e4bc&projectId=051c06f1-75cc-4548-856d-4923ddaba0dc","98C44B831735476C882D761E96496EDA-2025-05-15-18-51-56","","1169","","<p style=""font-size:48px; color:red;"">Is Microphone OK?</p>","1","",""
"","","","","","instructions","7","136024","0.0-5.0","98C44B831735476C882D761E96496EDA","98C44B831735476C882D761E96496EDA","c799354f-7a19-436e-9355-f704e9d4e4bc","051c06f1-75cc-4548-856d-4923ddaba0dc","{""num_scrambled_semantic"":""8"",""num_scrambled_causal"":""4"",""num_scrambled_schematic"":""4"",""participantId"":""98C44B831735476C882D761E96496EDA"",""assignmentId"":""c799354f-7a19-436e-9355-f704e9d4e4bc"",""projectId"":""051c06f1-75cc-4548-856d-4923ddaba0dc""}","https://test12345.live/?num_scrambled_semantic=8&num_scrambled_causal=4&num_scrambled_schematic=4&participantId=98C44B831735476C882D761E96496EDA&assignmentId=c799354f-7a19-436e-9355-f704e9d4e4bc&projectId=051c06f1-75cc-4548-856d-4923ddaba0dc","98C44B831735476C882D761E96496EDA-2025-05-15-18-51-56","[{""page_index"":0,""viewing_time"":7519},{""page_index"":1,""viewing_time"":12601}]","20120","","","","",""
"","","","","","image-button-response","8","142026","0.0-6.0-0.0","98C44B831735476C882D761E96496EDA","98C44B831735476C882D761E96496EDA","c799354f-7a19-436e-9355-f704e9d4e4bc","051c06f1-75cc-4548-856d-4923ddaba0dc","{""num_scrambled_semantic"":""8"",""num_scrambled_causal"":""4"",""num_scrambled_schematic"":""4"",""participantId"":""98C44B831735476C882D761E96496EDA"",""assignmentId"":""c799354f-7a19-436e-9355-f704e9d4e4bc"",""projectId"":""051c06f1-75cc-4548-856d-4923ddaba0dc""}","https://test12345.live/?num_scrambled_semantic=8&num_scrambled_causal=4&num_scrambled_schematic=4&participantId=98C44B831735476C882D761E96496EDA&assignmentId=c799354f-7a19-436e-9355-f704e9d4e4bc&projectId=051c06f1-75cc-4548-856d-4923ddaba0dc","98C44B831735476C882D761E96496EDA-2025-05-15-18-51-56","","null","","images/instructions/movie_0.png","null","",""
"","","","","","image-button-response","9","146536","0.0-6.0-1.0-0.0","98C44B831735476C882D761E96496EDA","98C44B831735476C882D761E96496EDA","c799354f-7a19-436e-9355-f704e9d4e4bc","051c06f1-75cc-4548-856d-4923ddaba0dc","{""num_scrambled_semantic"":""8"",""num_scrambled_causal"":""4"",""num_scrambled_schematic"":""4"",""participantId"":""98C44B831735476C882D761E96496EDA"",""assignmentId"":""c799354f-7a19-436e-9355-f704e9d4e4bc"",""projectId"":""051c06f1-75cc-4548-856d-4923ddaba0dc""}","https://test12345.live/?num_scrambled_semantic=8&num_scrambled_causal=4&num_scrambled_schematic=4&participantId=98C44B831735476C882D761E96496EDA&assignmentId=c799354f-7a19-436e-9355-f704e9d4e4bc&projectId=051c06f1-75cc-4548-856d-4923ddaba0dc","98C44B831735476C882D761E96496EDA-2025-05-15-18-51-56","","null","","images/instructions/movie_1.png","null","",""
"","","","","","image-button-response","10","149391","0.0-6.0-1.0-1.0","98C44B831735476C882D761E96496EDA","98C44B831735476C882D761E96496EDA","c799354f-7a19-436e-9355-f704e9d4e4bc","051c06f1-75cc-4548-856d-4923ddaba0dc","{""num_scrambled_semantic"":""8"",""num_scrambled_causal"":""4"",""num_scrambled_schematic"":""4"",""participantId"":""98C44B831735476C882D761E96496EDA"",""assignmentId"":""c799354f-7a19-436e-9355-f704e9d4e4bc"",""projectId"":""051c06f1-75cc-4548-856d-4923ddaba0dc""}","https://test12345.live/?num_scrambled_semantic=8&num_scrambled_causal=4&num_scrambled_schematic=4&participantId=98C44B831735476C882D761E96496EDA&assignmentId=c799354f-7a19-436e-9355-f704e9d4e4bc&projectId=051c06f1-75cc-4548-856d-4923ddaba0dc","98C44B831735476C882D761E96496EDA-2025-05-15-18-51-56","","2854","","images/instructions/movie_1.png","0","",""
"","","","","","image-button-response","11","151197","0.0-6.0-1.0-2.0","98C44B831735476C882D761E96496EDA","98C44B831735476C882D761E96496EDA","c799354f-7a19-436e-9355-f704e9d4e4bc","051c06f1-75cc-4548-856d-4923ddaba0dc","{""num_scrambled_semantic"":""8"",""num_scrambled_causal"":""4"",""num_scrambled_schematic"":""4"",""participantId"":""98C44B831735476C882D761E96496EDA"",""assignmentId"":""c799354f-7a19-436e-9355-f704e9d4e4bc"",""projectId"":""051c06f1-75cc-4548-856d-4923ddaba0dc""}","https://test12345.live/?num_scrambled_semantic=8&num_scrambled_causal=4&num_scrambled_schematic=4&participantId=98C44B831735476C882D761E96496EDA&assignmentId=c799354f-7a19-436e-9355-f704e9d4e4bc&projectId=051c06f1-75cc-4548-856d-4923ddaba0dc","98C44B831735476C882D761E96496EDA-2025-05-15-18-51-56","","null","","[]","null","",""
"","","","","","image-button-response","12","155713","0.0-6.0-1.0-0.1","98C44B831735476C882D761E96496EDA","98C44B831735476C882D761E96496EDA","c799354f-7a19-436e-9355-f704e9d4e4bc","051c06f1-75cc-4548-856d-4923ddaba0dc","{""num_scrambled_semantic"":""8"",""num_scrambled_causal"":""4"",""num_scrambled_schematic"":""4"",""participantId"":""98C44B831735476C882D761E96496EDA"",""assignmentId"":""c799354f-7a19-436e-9355-f704e9d4e4bc"",""projectId"":""051c06f1-75cc-4548-856d-4923ddaba0dc""}","https://test12345.live/?num_scrambled_semantic=8&num_scrambled_causal=4&num_scrambled_schematic=4&participantId=98C44B831735476C882D761E96496EDA&assignmentId=c799354f-7a19-436e-9355-f704e9d4e4bc&projectId=051c06f1-75cc-4548-856d-4923ddaba0dc","98C44B831735476C882D761E96496EDA-2025-05-15-18-51-56","","null","","images/instructions/movie_2.png","null","",""
"","","","","","image-button-response","13","157295","0.0-6.0-1.0-1.1","98C44B831735476C882D761E96496EDA","98C44B831735476C882D761E96496EDA","c799354f-7a19-436e-9355-f704e9d4e4bc","051c06f1-75cc-4548-856d-4923ddaba0dc","{""num_scrambled_semantic"":""8"",""num_scrambled_causal"":""4"",""num_scrambled_schematic"":""4"",""participantId"":""98C44B831735476C882D761E96496EDA"",""assignmentId"":""c799354f-7a19-436e-9355-f704e9d4e4bc"",""projectId"":""051c06f1-75cc-4548-856d-4923ddaba0dc""}","https://test12345.live/?num_scrambled_semantic=8&num_scrambled_causal=4&num_scrambled_schematic=4&participantId=98C44B831735476C882D761E96496EDA&assignmentId=c799354f-7a19-436e-9355-f704e9d4e4bc&projectId=051c06f1-75cc-4548-856d-4923ddaba0dc","98C44B831735476C882D761E96496EDA-2025-05-15-18-51-56","","1582","","images/instructions/movie_2.png","0","",""
"","","","","","image-button-response","14","159100","0.0-6.0-1.0-2.1","98C44B831735476C882D761E96496EDA","98C44B831735476C882D761E96496EDA","c799354f-7a19-436e-9355-f704e9d4e4bc","051c06f1-75cc-4548-856d-4923ddaba0dc","{""num_scrambled_semantic"":""8"",""num_scrambled_causal"":""4"",""num_scrambled_schematic"":""4"",""participantId"":""98C44B831735476C882D761E96496EDA"",""assignmentId"":""c799354f-7a19-436e-9355-f704e9d4e4bc"",""projectId"":""051c06f1-75cc-4548-856d-4923ddaba0dc""}","https://test12345.live/?num_scrambled_semantic=8&num_scrambled_causal=4&num_scrambled_schematic=4&participantId=98C44B831735476C882D761E96496EDA&assignmentId=c799354f-7a19-436e-9355-f704e9d4e4bc&projectId=051c06f1-75cc-4548-856d-4923ddaba0dc","98C44B831735476C882D761E96496EDA-2025-05-15-18-51-56","","null","","[]","null","",""
"","","","","","image-button-response","15","163614","0.0-6.0-1.0-0.2","98C44B831735476C882D761E96496EDA","98C44B831735476C882D761E96496EDA","c799354f-7a19-436e-9355-f704e9d4e4bc","051c06f1-75cc-4548-856d-4923ddaba0dc","{""num_scrambled_semantic"":""8"",""num_scrambled_causal"":""4"",""num_scrambled_schematic"":""4"",""participantId"":""98C44B831735476C882D761E96496EDA"",""assignmentId"":""c799354f-7a19-436e-9355-f704e9d4e4bc"",""projectId"":""051c06f1-75cc-4548-856d-4923ddaba0dc""}","https://test12345.live/?num_scrambled_semantic=8&num_scrambled_causal=4&num_scrambled_schematic=4&participantId=98C44B831735476C882D761E96496EDA&assignmentId=c799354f-7a19-436e-9355-f704e9d4e4bc&projectId=051c06f1-75cc-4548-856d-4923ddaba0dc","98C44B831735476C882D761E96496EDA-2025-05-15-18-51-56","","null","","images/instructions/movie_3.png","null","",""
"","","","","","image-button-response","16","164537","0.0-6.0-1.0-1.2","98C44B831735476C882D761E96496EDA","98C44B831735476C882D761E96496EDA","c799354f-7a19-436e-9355-f704e9d4e4bc","051c06f1-75cc-4548-856d-4923ddaba0dc","{""num_scrambled_semantic"":""8"",""num_scrambled_causal"":""4"",""num_scrambled_schematic"":""4"",""participantId"":""98C44B831735476C882D761E96496EDA"",""assignmentId"":""c799354f-7a19-436e-9355-f704e9d4e4bc"",""projectId"":""051c06f1-75cc-4548-856d-4923ddaba0dc""}","https://test12345.live/?num_scrambled_semantic=8&num_scrambled_causal=4&num_scrambled_schematic=4&participantId=98C44B831735476C882D761E96496EDA&assignmentId=c799354f-7a19-436e-9355-f704e9d4e4bc&projectId=051c06f1-75cc-4548-856d-4923ddaba0dc","98C44B831735476C882D761E96496EDA-2025-05-15-18-51-56","","922","","images/instructions/movie_3.png","0","",""
"","","","","","image-button-response","17","166341","0.0-6.0-1.0-2.2","98C44B831735476C882D761E96496EDA","98C44B831735476C882D761E96496EDA","c799354f-7a19-436e-9355-f704e9d4e4bc","051c06f1-75cc-4548-856d-4923ddaba0dc","{""num_scrambled_semantic"":""8"",""num_scrambled_causal"":""4"",""num_scrambled_schematic"":""4"",""participantId"":""98C44B831735476C882D761E96496EDA"",""assignmentId"":""c799354f-7a19-436e-9355-f704e9d4e4bc"",""projectId"":""051c06f1-75cc-4548-856d-4923ddaba0dc""}","https://test12345.live/?num_scrambled_semantic=8&num_scrambled_causal=4&num_scrambled_schematic=4&participantId=98C44B831735476C882D761E96496EDA&assignmentId=c799354f-7a19-436e-9355-f704e9d4e4bc&projectId=051c06f1-75cc-4548-856d-4923ddaba0dc","98C44B831735476C882D761E96496EDA-2025-05-15-18-51-56","","null","","[]","null","",""
"","","","","","image-button-response","18","170856","0.0-6.0-1.0-0.3","98C44B831735476C882D761E96496EDA","98C44B831735476C882D761E96496EDA","c799354f-7a19-436e-9355-f704e9d4e4bc","051c06f1-75cc-4548-856d-4923ddaba0dc","{""num_scrambled_semantic"":""8"",""num_scrambled_causal"":""4"",""num_scrambled_schematic"":""4"",""participantId"":""98C44B831735476C882D761E96496EDA"",""assignmentId"":""c799354f-7a19-436e-9355-f704e9d4e4bc"",""projectId"":""051c06f1-75cc-4548-856d-4923ddaba0dc""}","https://test12345.live/?num_scrambled_semantic=8&num_scrambled_causal=4&num_scrambled_schematic=4&participantId=98C44B831735476C882D761E96496EDA&assignmentId=c799354f-7a19-436e-9355-f704e9d4e4bc&projectId=051c06f1-75cc-4548-856d-4923ddaba0dc","98C44B831735476C882D761E96496EDA-2025-05-15-18-51-56","","null","","images/instructions/movie_4.png","null","",""
"","","","","","image-button-response","19","172056","0.0-6.0-1.0-1.3","98C44B831735476C882D761E96496EDA","98C44B831735476C882D761E96496EDA","c799354f-7a19-436e-9355-f704e9d4e4bc","051c06f1-75cc-4548-856d-4923ddaba0dc","{""num_scrambled_semantic"":""8"",""num_scrambled_causal"":""4"",""num_scrambled_schematic"":""4"",""participantId"":""98C44B831735476C882D761E96496EDA"",""assignmentId"":""c799354f-7a19-436e-9355-f704e9d4e4bc"",""projectId"":""051c06f1-75cc-4548-856d-4923ddaba0dc""}","https://test12345.live/?num_scrambled_semantic=8&num_scrambled_causal=4&num_scrambled_schematic=4&participantId=98C44B831735476C882D761E96496EDA&assignmentId=c799354f-7a19-436e-9355-f704e9d4e4bc&projectId=051c06f1-75cc-4548-856d-4923ddaba0dc","98C44B831735476C882D761E96496EDA-2025-05-15-18-51-56","","1199","","images/instructions/movie_4.png","0","",""
"","","","","","image-button-response","20","173857","0.0-6.0-1.0-2.3","98C44B831735476C882D761E96496EDA","98C44B831735476C882D761E96496EDA","c799354f-7a19-436e-9355-f704e9d4e4bc","051c06f1-75cc-4548-856d-4923ddaba0dc","{""num_scrambled_semantic"":""8"",""num_scrambled_causal"":""4"",""num_scrambled_schematic"":""4"",""participantId"":""98C44B831735476C882D761E96496EDA"",""assignmentId"":""c799354f-7a19-436e-9355-f704e9d4e4bc"",""projectId"":""051c06f1-75cc-4548-856d-4923ddaba0dc""}","https://test12345.live/?num_scrambled_semantic=8&num_scrambled_causal=4&num_scrambled_schematic=4&participantId=98C44B831735476C882D761E96496EDA&assignmentId=c799354f-7a19-436e-9355-f704e9d4e4bc&projectId=051c06f1-75cc-4548-856d-4923ddaba0dc","98C44B831735476C882D761E96496EDA-2025-05-15-18-51-56","","null","","[]","null","",""
"","","","","","instructions","21","180694","0.0-7.0","98C44B831735476C882D761E96496EDA","98C44B831735476C882D761E96496EDA","c799354f-7a19-436e-9355-f704e9d4e4bc","051c06f1-75cc-4548-856d-4923ddaba0dc","{""num_scrambled_semantic"":""8"",""num_scrambled_causal"":""4"",""num_scrambled_schematic"":""4"",""participantId"":""98C44B831735476C882D761E96496EDA"",""assignmentId"":""c799354f-7a19-436e-9355-f704e9d4e4bc"",""projectId"":""051c06f1-75cc-4548-856d-4923ddaba0dc""}","https://test12345.live/?num_scrambled_semantic=8&num_scrambled_causal=4&num_scrambled_schematic=4&participantId=98C44B831735476C882D761E96496EDA&assignmentId=c799354f-7a19-436e-9355-f704e9d4e4bc&projectId=051c06f1-75cc-4548-856d-4923ddaba0dc","98C44B831735476C882D761E96496EDA-2025-05-15-18-51-56","[{""page_index"":0,""viewing_time"":5066},{""page_index"":1,""viewing_time"":1771}]","6837","","","","",""
"","","","","","html-audio-response","22","213685","0.0-8.0","98C44B831735476C882D761E96496EDA","98C44B831735476C882D761E96496EDA","c799354f-7a19-436e-9355-f704e9d4e4bc","051c06f1-75cc-4548-856d-4923ddaba0dc","{""num_scrambled_semantic"":""8"",""num_scrambled_causal"":""4"",""num_scrambled_schematic"":""4"",""participantId"":""98C44B831735476C882D761E96496EDA"",""assignmentId"":""c799354f-7a19-436e-9355-f704e9d4e4bc"",""projectId"":""051c06f1-75cc-4548-856d-4923ddaba0dc""}","https://test12345.live/?num_scrambled_semantic=8&num_scrambled_causal=4&num_scrambled_schematic=4&participantId=98C44B831735476C882D761E96496EDA&assignmentId=c799354f-7a19-436e-9355-f704e9d4e4bc&projectId=051c06f1-75cc-4548-856d-4923ddaba0dc","98C44B831735476C882D761E96496EDA-2025-05-15-18-51-56","","15708","","[""<span style=\""color: red; font-size: 24px\""> NOW RECORDING</span><p>Please say out loud all the images you saw, as many as you can remember. The images can be said in any order.</p>""]","","1",""
"","","","","","instructions","23","216060","0.0-9.0","98C44B831735476C882D761E96496EDA","98C44B831735476C882D761E96496EDA","c799354f-7a19-436e-9355-f704e9d4e4bc","051c06f1-75cc-4548-856d-4923ddaba0dc","{""num_scrambled_semantic"":""8"",""num_scrambled_causal"":""4"",""num_scrambled_schematic"":""4"",""participantId"":""98C44B831735476C882D761E96496EDA"",""assignmentId"":""c799354f-7a19-436e-9355-f704e9d4e4bc"",""projectId"":""051c06f1-75cc-4548-856d-4923ddaba0dc""}","https://test12345.live/?num_scrambled_semantic=8&num_scrambled_causal=4&num_scrambled_schematic=4&participantId=98C44B831735476C882D761E96496EDA&assignmentId=c799354f-7a19-436e-9355-f704e9d4e4bc&projectId=051c06f1-75cc-4548-856d-4923ddaba0dc","98C44B831735476C882D761E96496EDA-2025-05-15-18-51-56","[{""page_index"":0,""viewing_time"":2373}]","2373","","","","",""
"","","","","","image-button-response","24","222074","0.0-10.0-0.0","98C44B831735476C882D761E96496EDA","98C44B831735476C882D761E96496EDA","c799354f-7a19-436e-9355-f704e9d4e4bc","051c06f1-75cc-4548-856d-4923ddaba0dc","{""num_scrambled_semantic"":""8"",""num_scrambled_causal"":""4"",""num_scrambled_schematic"":""4"",""participantId"":""98C44B831735476C882D761E96496EDA"",""assignmentId"":""c799354f-7a19-436e-9355-f704e9d4e4bc"",""projectId"":""051c06f1-75cc-4548-856d-4923ddaba0dc""}","https://test12345.live/?num_scrambled_semantic=8&num_scrambled_causal=4&num_scrambled_schematic=4&participantId=98C44B831735476C882D761E96496EDA&assignmentId=c799354f-7a19-436e-9355-f704e9d4e4bc&projectId=051c06f1-75cc-4548-856d-4923ddaba0dc","98C44B831735476C882D761E96496EDA-2025-05-15-18-51-56","","null","","images/schematic_sequence/supermarket_scheme/supermarket_scheme_0.png","null","",""
"","","","","","image-button-response","25","226587","0.0-10.0-1.0-0.0","98C44B831735476C882D761E96496EDA","98C44B831735476C882D761E96496EDA","c799354f-7a19-436e-9355-f704e9d4e4bc","051c06f1-75cc-4548-856d-4923ddaba0dc","{""num_scrambled_semantic"":""8"",""num_scrambled_causal"":""4"",""num_scrambled_schematic"":""4"",""participantId"":""98C44B831735476C882D761E96496EDA"",""assignmentId"":""c799354f-7a19-436e-9355-f704e9d4e4bc"",""projectId"":""051c06f1-75cc-4548-856d-4923ddaba0dc""}","https://test12345.live/?num_scrambled_semantic=8&num_scrambled_causal=4&num_scrambled_schematic=4&participantId=98C44B831735476C882D761E96496EDA&assignmentId=c799354f-7a19-436e-9355-f704e9d4e4bc&projectId=051c06f1-75cc-4548-856d-4923ddaba0dc","98C44B831735476C882D761E96496EDA-2025-05-15-18-51-56","","null","","images/schematic_sequence/supermarket_scheme/supermarket_scheme_1.png","null","",""
"","","","","","image-button-response","26","229117","0.0-10.0-1.0-1.0","98C44B831735476C882D761E96496EDA","98C44B831735476C882D761E96496EDA","c799354f-7a19-436e-9355-f704e9d4e4bc","051c06f1-75cc-4548-856d-4923ddaba0dc","{""num_scrambled_semantic"":""8"",""num_scrambled_causal"":""4"",""num_scrambled_schematic"":""4"",""participantId"":""98C44B831735476C882D761E96496EDA"",""assignmentId"":""c799354f-7a19-436e-9355-f704e9d4e4bc"",""projectId"":""051c06f1-75cc-4548-856d-4923ddaba0dc""}","https://test12345.live/?num_scrambled_semantic=8&num_scrambled_causal=4&num_scrambled_schematic=4&participantId=98C44B831735476C882D761E96496EDA&assignmentId=c799354f-7a19-436e-9355-f704e9d4e4bc&projectId=051c06f1-75cc-4548-856d-4923ddaba0dc","98C44B831735476C882D761E96496EDA-2025-05-15-18-51-56","","2529","","images/schematic_sequence/supermarket_scheme/supermarket_scheme_1.png","1","",""
"","","","","","image-button-response","27","230919","0.0-10.0-1.0-2.0","98C44B831735476C882D761E96496EDA","98C44B831735476C882D761E96496EDA","c799354f-7a19-436e-9355-f704e9d4e4bc","051c06f1-75cc-4548-856d-4923ddaba0dc","{""num_scrambled_semantic"":""8"",""num_scrambled_causal"":""4"",""num_scrambled_schematic"":""4"",""participantId"":""98C44B831735476C882D761E96496EDA"",""assignmentId"":""c799354f-7a19-436e-9355-f704e9d4e4bc"",""projectId"":""051c06f1-75cc-4548-856d-4923ddaba0dc""}","https://test12345.live/?num_scrambled_semantic=8&num_scrambled_causal=4&num_scrambled_schematic=4&participantId=98C44B831735476C882D761E96496EDA&assignmentId=c799354f-7a19-436e-9355-f704e9d4e4bc&projectId=051c06f1-75cc-4548-856d-4923ddaba0dc","98C44B831735476C882D761E96496EDA-2025-05-15-18-51-56","","null","","[]","null","",""
"","","","","","image-button-response","28","235421","0.0-10.0-1.0-0.1","98C44B831735476C882D761E96496EDA","98C44B831735476C882D761E96496EDA","c799354f-7a19-436e-9355-f704e9d4e4bc","051c06f1-75cc-4548-856d-4923ddaba0dc","{""num_scrambled_semantic"":""8"",""num_scrambled_causal"":""4"",""num_scrambled_schematic"":""4"",""participantId"":""98C44B831735476C882D761E96496EDA"",""assignmentId"":""c799354f-7a19-436e-9355-f704e9d4e4bc"",""projectId"":""051c06f1-75cc-4548-856d-4923ddaba0dc""}","https://test12345.live/?num_scrambled_semantic=8&num_scrambled_causal=4&num_scrambled_schematic=4&participantId=98C44B831735476C882D761E96496EDA&assignmentId=c799354f-7a19-436e-9355-f704e9d4e4bc&projectId=051c06f1-75cc-4548-856d-4923ddaba0dc","98C44B831735476C882D761E96496EDA-2025-05-15-18-51-56","","null","","images/schematic_sequence/supermarket_scheme/supermarket_scheme_2.png","null","",""
"","","","","","image-button-response","29","236846","0.0-10.0-1.0-1.1","98C44B831735476C882D761E96496EDA","98C44B831735476C882D761E96496EDA","c799354f-7a19-436e-9355-f704e9d4e4bc","051c06f1-75cc-4548-856d-4923ddaba0dc","{""num_scrambled_semantic"":""8"",""num_scrambled_causal"":""4"",""num_scrambled_schematic"":""4"",""participantId"":""98C44B831735476C882D761E96496EDA"",""assignmentId"":""c799354f-7a19-436e-9355-f704e9d4e4bc"",""projectId"":""051c06f1-75cc-4548-856d-4923ddaba0dc""}","https://test12345.live/?num_scrambled_semantic=8&num_scrambled_causal=4&num_scrambled_schematic=4&participantId=98C44B831735476C882D761E96496EDA&assignmentId=c799354f-7a19-436e-9355-f704e9d4e4bc&projectId=051c06f1-75cc-4548-856d-4923ddaba0dc","98C44B831735476C882D761E96496EDA-2025-05-15-18-51-56","","1424","","images/schematic_sequence/supermarket_scheme/supermarket_scheme_2.png","1","",""
"","","","","","image-button-response","30","238648","0.0-10.0-1.0-2.1","98C44B831735476C882D761E96496EDA","98C44B831735476C882D761E96496EDA","c799354f-7a19-436e-9355-f704e9d4e4bc","051c06f1-75cc-4548-856d-4923ddaba0dc","{""num_scrambled_semantic"":""8"",""num_scrambled_causal"":""4"",""num_scrambled_schematic"":""4"",""participantId"":""98C44B831735476C882D761E96496EDA"",""assignmentId"":""c799354f-7a19-436e-9355-f704e9d4e4bc"",""projectId"":""051c06f1-75cc-4548-856d-4923ddaba0dc""}","https://test12345.live/?num_scrambled_semantic=8&num_scrambled_causal=4&num_scrambled_schematic=4&participantId=98C44B831735476C882D761E96496EDA&assignmentId=c799354f-7a19-436e-9355-f704e9d4e4bc&projectId=051c06f1-75cc-4548-856d-4923ddaba0dc","98C44B831735476C882D761E96496EDA-2025-05-15-18-51-56","","null","","[]","null","",""
"","","","","","image-button-response","31","243149","0.0-10.0-1.0-0.2","98C44B831735476C882D761E96496EDA","98C44B831735476C882D761E96496EDA","c799354f-7a19-436e-9355-f704e9d4e4bc","051c06f1-75cc-4548-856d-4923ddaba0dc","{""num_scrambled_semantic"":""8"",""num_scrambled_causal"":""4"",""num_scrambled_schematic"":""4"",""participantId"":""98C44B831735476C882D761E96496EDA"",""assignmentId"":""c799354f-7a19-436e-9355-f704e9d4e4bc"",""projectId"":""051c06f1-75cc-4548-856d-4923ddaba0dc""}","https://test12345.live/?num_scrambled_semantic=8&num_scrambled_causal=4&num_scrambled_schematic=4&participantId=98C44B831735476C882D761E96496EDA&assignmentId=c799354f-7a19-436e-9355-f704e9d4e4bc&projectId=051c06f1-75cc-4548-856d-4923ddaba0dc","98C44B831735476C882D761E96496EDA-2025-05-15-18-51-56","","null","","images/schematic_sequence/supermarket_scheme/supermarket_scheme_3.png","null","",""
"","","","","","image-button-response","32","244338","0.0-10.0-1.0-1.2","98C44B831735476C882D761E96496EDA","98C44B831735476C882D761E96496EDA","c799354f-7a19-436e-9355-f704e9d4e4bc","051c06f1-75cc-4548-856d-4923ddaba0dc","{""num_scrambled_semantic"":""8"",""num_scrambled_causal"":""4"",""num_scrambled_schematic"":""4"",""participantId"":""98C44B831735476C882D761E96496EDA"",""assignmentId"":""c799354f-7a19-436e-9355-f704e9d4e4bc"",""projectId"":""051c06f1-75cc-4548-856d-4923ddaba0dc""}","https://test12345.live/?num_scrambled_semantic=8&num_scrambled_causal=4&num_scrambled_schematic=4&participantId=98C44B831735476C882D761E96496EDA&assignmentId=c799354f-7a19-436e-9355-f704e9d4e4bc&projectId=051c06f1-75cc-4548-856d-4923ddaba0dc","98C44B831735476C882D761E96496EDA-2025-05-15-18-51-56","","1189","","images/schematic_sequence/supermarket_scheme/supermarket_scheme_3.png","1","",""
"","","","","","image-button-response","33","246154","0.0-10.0-1.0-2.2","98C44B831735476C882D761E96496EDA","98C44B831735476C882D761E96496EDA","c799354f-7a19-436e-9355-f704e9d4e4bc","051c06f1-75cc-4548-856d-4923ddaba0dc","{""num_scrambled_semantic"":""8"",""num_scrambled_causal"":""4"",""num_scrambled_schematic"":""4"",""participantId"":""98C44B831735476C882D761E96496EDA"",""assignmentId"":""c799354f-7a19-436e-9355-f704e9d4e4bc"",""projectId"":""051c06f1-75cc-4548-856d-4923ddaba0dc""}","https://test12345.live/?num_scrambled_semantic=8&num_scrambled_causal=4&num_scrambled_schematic=4&participantId=98C44B831735476C882D761E96496EDA&assignmentId=c799354f-7a19-436e-9355-f704e9d4e4bc&projectId=051c06f1-75cc-4548-856d-4923ddaba0dc","98C44B831735476C882D761E96496EDA-2025-05-15-18-51-56","","null","","[]","null","",""
"","","","","","image-button-response","34","250667","0.0-10.0-1.0-0.3","98C44B831735476C882D761E96496EDA","98C44B831735476C882D761E96496EDA","c799354f-7a19-436e-9355-f704e9d4e4bc","051c06f1-75cc-4548-856d-4923ddaba0dc","{""num_scrambled_semantic"":""8"",""num_scrambled_causal"":""4"",""num_scrambled_schematic"":""4"",""participantId"":""98C44B831735476C882D761E96496EDA"",""assignmentId"":""c799354f-7a19-436e-9355-f704e9d4e4bc"",""projectId"":""051c06f1-75cc-4548-856d-4923ddaba0dc""}","https://test12345.live/?num_scrambled_semantic=8&num_scrambled_causal=4&num_scrambled_schematic=4&participantId=98C44B831735476C882D761E96496EDA&assignmentId=c799354f-7a19-436e-9355-f704e9d4e4bc&projectId=051c06f1-75cc-4548-856d-4923ddaba0dc","98C44B831735476C882D761E96496EDA-2025-05-15-18-51-56","","null","","images/schematic_sequence/supermarket_scheme/supermarket_scheme_4.png","null","",""
"","","","","","image-button-response","35","251808","0.0-10.0-1.0-1.3","98C44B831735476C882D761E96496EDA","98C44B831735476C882D761E96496EDA","c799354f-7a19-436e-9355-f704e9d4e4bc","051c06f1-75cc-4548-856d-4923ddaba0dc","{""num_scrambled_semantic"":""8"",""num_scrambled_causal"":""4"",""num_scrambled_schematic"":""4"",""participantId"":""98C44B831735476C882D761E96496EDA"",""assignmentId"":""c799354f-7a19-436e-9355-f704e9d4e4bc"",""projectId"":""051c06f1-75cc-4548-856d-4923ddaba0dc""}","https://test12345.live/?num_scrambled_semantic=8&num_scrambled_causal=4&num_scrambled_schematic=4&participantId=98C44B831735476C882D761E96496EDA&assignmentId=c799354f-7a19-436e-9355-f704e9d4e4bc&projectId=051c06f1-75cc-4548-856d-4923ddaba0dc","98C44B831735476C882D761E96496EDA-2025-05-15-18-51-56","","1140","","images/schematic_sequence/supermarket_scheme/supermarket_scheme_4.png","0","",""
"","","","","","image-button-response","36","253611","0.0-10.0-1.0-2.3","98C44B831735476C882D761E96496EDA","98C44B831735476C882D761E96496EDA","c799354f-7a19-436e-9355-f704e9d4e4bc","051c06f1-75cc-4548-856d-4923ddaba0dc","{""num_scrambled_semantic"":""8"",""num_scrambled_causal"":""4"",""num_scrambled_schematic"":""4"",""participantId"":""98C44B831735476C882D761E96496EDA"",""assignmentId"":""c799354f-7a19-436e-9355-f704e9d4e4bc"",""projectId"":""051c06f1-75cc-4548-856d-4923ddaba0dc""}","https://test12345.live/?num_scrambled_semantic=8&num_scrambled_causal=4&num_scrambled_schematic=4&participantId=98C44B831735476C882D761E96496EDA&assignmentId=c799354f-7a19-436e-9355-f704e9d4e4bc&projectId=051c06f1-75cc-4548-856d-4923ddaba0dc","98C44B831735476C882D761E96496EDA-2025-05-15-18-51-56","","null","","[]","null","",""
"","","","","","image-button-response","37","258116","0.0-10.0-1.0-0.4","98C44B831735476C882D761E96496EDA","98C44B831735476C882D761E96496EDA","c799354f-7a19-436e-9355-f704e9d4e4bc","051c06f1-75cc-4548-856d-4923ddaba0dc","{""num_scrambled_semantic"":""8"",""num_scrambled_causal"":""4"",""num_scrambled_schematic"":""4"",""participantId"":""98C44B831735476C882D761E96496EDA"",""assignmentId"":""c799354f-7a19-436e-9355-f704e9d4e4bc"",""projectId"":""051c06f1-75cc-4548-856d-4923ddaba0dc""}","https://test12345.live/?num_scrambled_semantic=8&num_scrambled_causal=4&num_scrambled_schematic=4&participantId=98C44B831735476C882D761E96496EDA&assignmentId=c799354f-7a19-436e-9355-f704e9d4e4bc&projectId=051c06f1-75cc-4548-856d-4923ddaba0dc","98C44B831735476C882D761E96496EDA-2025-05-15-18-51-56","","null","","images/schematic_sequence/supermarket_scheme/supermarket_scheme_5.png","null","",""
"","","","","","image-button-response","38","259305","0.0-10.0-1.0-1.4","98C44B831735476C882D761E96496EDA","98C44B831735476C882D761E96496EDA","c799354f-7a19-436e-9355-f704e9d4e4bc","051c06f1-75cc-4548-856d-4923ddaba0dc","{""num_scrambled_semantic"":""8"",""num_scrambled_causal"":""4"",""num_scrambled_schematic"":""4"",""participantId"":""98C44B831735476C882D761E96496EDA"",""assignmentId"":""c799354f-7a19-436e-9355-f704e9d4e4bc"",""projectId"":""051c06f1-75cc-4548-856d-4923ddaba0dc""}","https://test12345.live/?num_scrambled_semantic=8&num_scrambled_causal=4&num_scrambled_schematic=4&participantId=98C44B831735476C882D761E96496EDA&assignmentId=c799354f-7a19-436e-9355-f704e9d4e4bc&projectId=051c06f1-75cc-4548-856d-4923ddaba0dc","98C44B831735476C882D761E96496EDA-2025-05-15-18-51-56","","1188","","images/schematic_sequence/supermarket_scheme/supermarket_scheme_5.png","1","",""
"","","","","","image-button-response","39","261116","0.0-10.0-1.0-2.4","98C44B831735476C882D761E96496EDA","98C44B831735476C882D761E96496EDA","c799354f-7a19-436e-9355-f704e9d4e4bc","051c06f1-75cc-4548-856d-4923ddaba0dc","{""num_scrambled_semantic"":""8"",""num_scrambled_causal"":""4"",""num_scrambled_schematic"":""4"",""participantId"":""98C44B831735476C882D761E96496EDA"",""assignmentId"":""c799354f-7a19-436e-9355-f704e9d4e4bc"",""projectId"":""051c06f1-75cc-4548-856d-4923ddaba0dc""}","https://test12345.live/?num_scrambled_semantic=8&num_scrambled_causal=4&num_scrambled_schematic=4&participantId=98C44B831735476C882D761E96496EDA&assignmentId=c799354f-7a19-436e-9355-f704e9d4e4bc&projectId=051c06f1-75cc-4548-856d-4923ddaba0dc","98C44B831735476C882D761E96496EDA-2025-05-15-18-51-56","","null","","[]","null","",""
"","","","","","image-button-response","40","265632","0.0-10.0-1.0-0.5","98C44B831735476C882D761E96496EDA","98C44B831735476C882D761E96496EDA","c799354f-7a19-436e-9355-f704e9d4e4bc","051c06f1-75cc-4548-856d-4923ddaba0dc","{""num_scrambled_semantic"":""8"",""num_scrambled_causal"":""4"",""num_scrambled_schematic"":""4"",""participantId"":""98C44B831735476C882D761E96496EDA"",""assignmentId"":""c799354f-7a19-436e-9355-f704e9d4e4bc"",""projectId"":""051c06f1-75cc-4548-856d-4923ddaba0dc""}","https://test12345.live/?num_scrambled_semantic=8&num_scrambled_causal=4&num_scrambled_schematic=4&participantId=98C44B831735476C882D761E96496EDA&assignmentId=c799354f-7a19-436e-9355-f704e9d4e4bc&projectId=051c06f1-75cc-4548-856d-4923ddaba0dc","98C44B831735476C882D761E96496EDA-2025-05-15-18-51-56","","null","","images/schematic_sequence/supermarket_scheme/supermarket_scheme_6.png","null","",""
"","","","","","image-button-response","41","266665","0.0-10.0-1.0-1.5","98C44B831735476C882D761E96496EDA","98C44B831735476C882D761E96496EDA","c799354f-7a19-436e-9355-f704e9d4e4bc","051c06f1-75cc-4548-856d-4923ddaba0dc","{""num_scrambled_semantic"":""8"",""num_scrambled_causal"":""4"",""num_scrambled_schematic"":""4"",""participantId"":""98C44B831735476C882D761E96496EDA"",""assignmentId"":""c799354f-7a19-436e-9355-f704e9d4e4bc"",""projectId"":""051c06f1-75cc-4548-856d-4923ddaba0dc""}","https://test12345.live/?num_scrambled_semantic=8&num_scrambled_causal=4&num_scrambled_schematic=4&participantId=98C44B831735476C882D761E96496EDA&assignmentId=c799354f-7a19-436e-9355-f704e9d4e4bc&projectId=051c06f1-75cc-4548-856d-4923ddaba0dc","98C44B831735476C882D761E96496EDA-2025-05-15-18-51-56","","1032","","images/schematic_sequence/supermarket_scheme/supermarket_scheme_6.png","0","",""
"","","","","","image-button-response","42","268473","0.0-10.0-1.0-2.5","98C44B831735476C882D761E96496EDA","98C44B831735476C882D761E96496EDA","c799354f-7a19-436e-9355-f704e9d4e4bc","051c06f1-75cc-4548-856d-4923ddaba0dc","{""num_scrambled_semantic"":""8"",""num_scrambled_causal"":""4"",""num_scrambled_schematic"":""4"",""participantId"":""98C44B831735476C882D761E96496EDA"",""assignmentId"":""c799354f-7a19-436e-9355-f704e9d4e4bc"",""projectId"":""051c06f1-75cc-4548-856d-4923ddaba0dc""}","https://test12345.live/?num_scrambled_semantic=8&num_scrambled_causal=4&num_scrambled_schematic=4&participantId=98C44B831735476C882D761E96496EDA&assignmentId=c799354f-7a19-436e-9355-f704e9d4e4bc&projectId=051c06f1-75cc-4548-856d-4923ddaba0dc","98C44B831735476C882D761E96496EDA-2025-05-15-18-51-56","","null","","[]","null","",""
"","","","","","image-button-response","43","272990","0.0-10.0-1.0-0.6","98C44B831735476C882D761E96496EDA","98C44B831735476C882D761E96496EDA","c799354f-7a19-436e-9355-f704e9d4e4bc","051c06f1-75cc-4548-856d-4923ddaba0dc","{""num_scrambled_semantic"":""8"",""num_scrambled_causal"":""4"",""num_scrambled_schematic"":""4"",""participantId"":""98C44B831735476C882D761E96496EDA"",""assignmentId"":""c799354f-7a19-436e-9355-f704e9d4e4bc"",""projectId"":""051c06f1-75cc-4548-856d-4923ddaba0dc""}","https://test12345.live/?num_scrambled_semantic=8&num_scrambled_causal=4&num_scrambled_schematic=4&participantId=98C44B831735476C882D761E96496EDA&assignmentId=c799354f-7a19-436e-9355-f704e9d4e4bc&projectId=051c06f1-75cc-4548-856d-4923ddaba0dc","98C44B831735476C882D761E96496EDA-2025-05-15-18-51-56","","null","","images/schematic_sequence/supermarket_scheme/supermarket_scheme_7.png","null","",""
"","","","","","image-button-response","44","274260","0.0-10.0-1.0-1.6","98C44B831735476C882D761E96496EDA","98C44B831735476C882D761E96496EDA","c799354f-7a19-436e-9355-f704e9d4e4bc","051c06f1-75cc-4548-856d-4923ddaba0dc","{""num_scrambled_semantic"":""8"",""num_scrambled_causal"":""4"",""num_scrambled_schematic"":""4"",""participantId"":""98C44B831735476C882D761E96496EDA"",""assignmentId"":""c799354f-7a19-436e-9355-f704e9d4e4bc"",""projectId"":""051c06f1-75cc-4548-856d-4923ddaba0dc""}","https://test12345.live/?num_scrambled_semantic=8&num_scrambled_causal=4&num_scrambled_schematic=4&participantId=98C44B831735476C882D761E96496EDA&assignmentId=c799354f-7a19-436e-9355-f704e9d4e4bc&projectId=051c06f1-75cc-4548-856d-4923ddaba0dc","98C44B831735476C882D761E96496EDA-2025-05-15-18-51-56","","1270","","images/schematic_sequence/supermarket_scheme/supermarket_scheme_7.png","0","",""
"","","","","","image-button-response","45","276075","0.0-10.0-1.0-2.6","98C44B831735476C882D761E96496EDA","98C44B831735476C882D761E96496EDA","c799354f-7a19-436e-9355-f704e9d4e4bc","051c06f1-75cc-4548-856d-4923ddaba0dc","{""num_scrambled_semantic"":""8"",""num_scrambled_causal"":""4"",""num_scrambled_schematic"":""4"",""participantId"":""98C44B831735476C882D761E96496EDA"",""assignmentId"":""c799354f-7a19-436e-9355-f704e9d4e4bc"",""projectId"":""051c06f1-75cc-4548-856d-4923ddaba0dc""}","https://test12345.live/?num_scrambled_semantic=8&num_scrambled_causal=4&num_scrambled_schematic=4&participantId=98C44B831735476C882D761E96496EDA&assignmentId=c799354f-7a19-436e-9355-f704e9d4e4bc&projectId=051c06f1-75cc-4548-856d-4923ddaba0dc","98C44B831735476C882D761E96496EDA-2025-05-15-18-51-56","","null","","[]","null","",""
"","","","","","image-button-response","46","280578","0.0-10.0-1.0-0.7","98C44B831735476C882D761E96496EDA","98C44B831735476C882D761E96496EDA","c799354f-7a19-436e-9355-f704e9d4e4bc","051c06f1-75cc-4548-856d-4923ddaba0dc","{""num_scrambled_semantic"":""8"",""num_scrambled_causal"":""4"",""num_scrambled_schematic"":""4"",""participantId"":""98C44B831735476C882D761E96496EDA"",""assignmentId"":""c799354f-7a19-436e-9355-f704e9d4e4bc"",""projectId"":""051c06f1-75cc-4548-856d-4923ddaba0dc""}","https://test12345.live/?num_scrambled_semantic=8&num_scrambled_causal=4&num_scrambled_schematic=4&participantId=98C44B831735476C882D761E96496EDA&assignmentId=c799354f-7a19-436e-9355-f704e9d4e4bc&projectId=051c06f1-75cc-4548-856d-4923ddaba0dc","98C44B831735476C882D761E96496EDA-2025-05-15-18-51-56","","null","","images/schematic_sequence/supermarket_scheme/supermarket_scheme_8.png","null","",""
"","","","","","image-button-response","47","281042","0.0-10.0-1.0-1.7","98C44B831735476C882D761E96496EDA","98C44B831735476C882D761E96496EDA","c799354f-7a19-436e-9355-f704e9d4e4bc","051c06f1-75cc-4548-856d-4923ddaba0dc","{""num_scrambled_semantic"":""8"",""num_scrambled_causal"":""4"",""num_scrambled_schematic"":""4"",""participantId"":""98C44B831735476C882D761E96496EDA"",""assignmentId"":""c799354f-7a19-436e-9355-f704e9d4e4bc"",""projectId"":""051c06f1-75cc-4548-856d-4923ddaba0dc""}","https://test12345.live/?num_scrambled_semantic=8&num_scrambled_causal=4&num_scrambled_schematic=4&participantId=98C44B831735476C882D761E96496EDA&assignmentId=c799354f-7a19-436e-9355-f704e9d4e4bc&projectId=051c06f1-75cc-4548-856d-4923ddaba0dc","98C44B831735476C882D761E96496EDA-2025-05-15-18-51-56","","463","","images/schematic_sequence/supermarket_scheme/supermarket_scheme_8.png","0","",""
"","","","","","image-button-response","48","282847","0.0-10.0-1.0-2.7","98C44B831735476C882D761E96496EDA","98C44B831735476C882D761E96496EDA","c799354f-7a19-436e-9355-f704e9d4e4bc","051c06f1-75cc-4548-856d-4923ddaba0dc","{""num_scrambled_semantic"":""8"",""num_scrambled_causal"":""4"",""num_scrambled_schematic"":""4"",""participantId"":""98C44B831735476C882D761E96496EDA"",""assignmentId"":""c799354f-7a19-436e-9355-f704e9d4e4bc"",""projectId"":""051c06f1-75cc-4548-856d-4923ddaba0dc""}","https://test12345.live/?num_scrambled_semantic=8&num_scrambled_causal=4&num_scrambled_schematic=4&participantId=98C44B831735476C882D761E96496EDA&assignmentId=c799354f-7a19-436e-9355-f704e9d4e4bc&projectId=051c06f1-75cc-4548-856d-4923ddaba0dc","98C44B831735476C882D761E96496EDA-2025-05-15-18-51-56","","null","","[]","null","",""
"","","","","","image-button-response","49","287358","0.0-10.0-1.0-0.8","98C44B831735476C882D761E96496EDA","98C44B831735476C882D761E96496EDA","c799354f-7a19-436e-9355-f704e9d4e4bc","051c06f1-75cc-4548-856d-4923ddaba0dc","{""num_scrambled_semantic"":""8"",""num_scrambled_causal"":""4"",""num_scrambled_schematic"":""4"",""participantId"":""98C44B831735476C882D761E96496EDA"",""assignmentId"":""c799354f-7a19-436e-9355-f704e9d4e4bc"",""projectId"":""051c06f1-75cc-4548-856d-4923ddaba0dc""}","https://test12345.live/?num_scrambled_semantic=8&num_scrambled_causal=4&num_scrambled_schematic=4&participantId=98C44B831735476C882D761E96496EDA&assignmentId=c799354f-7a19-436e-9355-f704e9d4e4bc&projectId=051c06f1-75cc-4548-856d-4923ddaba0dc","98C44B831735476C882D761E96496EDA-2025-05-15-18-51-56","","null","","images/schematic_sequence/supermarket_scheme/supermarket_scheme_9.png","null","",""
"","","","","","image-button-response","50","290676","0.0-10.0-1.0-1.8","98C44B831735476C882D761E96496EDA","98C44B831735476C882D761E96496EDA","c799354f-7a19-436e-9355-f704e9d4e4bc","051c06f1-75cc-4548-856d-4923ddaba0dc","{""num_scrambled_semantic"":""8"",""num_scrambled_causal"":""4"",""num_scrambled_schematic"":""4"",""participantId"":""98C44B831735476C882D761E96496EDA"",""assignmentId"":""c799354f-7a19-436e-9355-f704e9d4e4bc"",""projectId"":""051c06f1-75cc-4548-856d-4923ddaba0dc""}","https://test12345.live/?num_scrambled_semantic=8&num_scrambled_causal=4&num_scrambled_schematic=4&participantId=98C44B831735476C882D761E96496EDA&assignmentId=c799354f-7a19-436e-9355-f704e9d4e4bc&projectId=051c06f1-75cc-4548-856d-4923ddaba0dc","98C44B831735476C882D761E96496EDA-2025-05-15-18-51-56","","3317","","images/schematic_sequence/supermarket_scheme/supermarket_scheme_9.png","0","",""
"","","","","","image-button-response","51","292489","0.0-10.0-1.0-2.8","98C44B831735476C882D761E96496EDA","98C44B831735476C882D761E96496EDA","c799354f-7a19-436e-9355-f704e9d4e4bc","051c06f1-75cc-4548-856d-4923ddaba0dc","{""num_scrambled_semantic"":""8"",""num_scrambled_causal"":""4"",""num_scrambled_schematic"":""4"",""participantId"":""98C44B831735476C882D761E96496EDA"",""assignmentId"":""c799354f-7a19-436e-9355-f704e9d4e4bc"",""projectId"":""051c06f1-75cc-4548-856d-4923ddaba0dc""}","https://test12345.live/?num_scrambled_semantic=8&num_scrambled_causal=4&num_scrambled_schematic=4&participantId=98C44B831735476C882D761E96496EDA&assignmentId=c799354f-7a19-436e-9355-f704e9d4e4bc&projectId=051c06f1-75cc-4548-856d-4923ddaba0dc","98C44B831735476C882D761E96496EDA-2025-05-15-18-51-56","","null","","[]","null","",""
"","","","","","image-button-response","52","296999","0.0-10.0-1.0-0.9","98C44B831735476C882D761E96496EDA","98C44B831735476C882D761E96496EDA","c799354f-7a19-436e-9355-f704e9d4e4bc","051c06f1-75cc-4548-856d-4923ddaba0dc","{""num_scrambled_semantic"":""8"",""num_scrambled_causal"":""4"",""num_scrambled_schematic"":""4"",""participantId"":""98C44B831735476C882D761E96496EDA"",""assignmentId"":""c799354f-7a19-436e-9355-f704e9d4e4bc"",""projectId"":""051c06f1-75cc-4548-856d-4923ddaba0dc""}","https://test12345.live/?num_scrambled_semantic=8&num_scrambled_causal=4&num_scrambled_schematic=4&participantId=98C44B831735476C882D761E96496EDA&assignmentId=c799354f-7a19-436e-9355-f704e9d4e4bc&projectId=051c06f1-75cc-4548-856d-4923ddaba0dc","98C44B831735476C882D761E96496EDA-2025-05-15-18-51-56","","null","","images/schematic_sequence/supermarket_scheme/supermarket_scheme_ten.png","null","",""
"","","","","","image-button-response","53","297855","0.0-10.0-1.0-1.9","98C44B831735476C882D761E96496EDA","98C44B831735476C882D761E96496EDA","c799354f-7a19-436e-9355-f704e9d4e4bc","051c06f1-75cc-4548-856d-4923ddaba0dc","{""num_scrambled_semantic"":""8"",""num_scrambled_causal"":""4"",""num_scrambled_schematic"":""4"",""participantId"":""98C44B831735476C882D761E96496EDA"",""assignmentId"":""c799354f-7a19-436e-9355-f704e9d4e4bc"",""projectId"":""051c06f1-75cc-4548-856d-4923ddaba0dc""}","https://test12345.live/?num_scrambled_semantic=8&num_scrambled_causal=4&num_scrambled_schematic=4&participantId=98C44B831735476C882D761E96496EDA&assignmentId=c799354f-7a19-436e-9355-f704e9d4e4bc&projectId=051c06f1-75cc-4548-856d-4923ddaba0dc","98C44B831735476C882D761E96496EDA-2025-05-15-18-51-56","","856","","images/schematic_sequence/supermarket_scheme/supermarket_scheme_ten.png","1","",""
"","","","","","image-button-response","54","299669","0.0-10.0-1.0-2.9","98C44B831735476C882D761E96496EDA","98C44B831735476C882D761E96496EDA","c799354f-7a19-436e-9355-f704e9d4e4bc","051c06f1-75cc-4548-856d-4923ddaba0dc","{""num_scrambled_semantic"":""8"",""num_scrambled_causal"":""4"",""num_scrambled_schematic"":""4"",""participantId"":""98C44B831735476C882D761E96496EDA"",""assignmentId"":""c799354f-7a19-436e-9355-f704e9d4e4bc"",""projectId"":""051c06f1-75cc-4548-856d-4923ddaba0dc""}","https://test12345.live/?num_scrambled_semantic=8&num_scrambled_causal=4&num_scrambled_schematic=4&participantId=98C44B831735476C882D761E96496EDA&assignmentId=c799354f-7a19-436e-9355-f704e9d4e4bc&projectId=051c06f1-75cc-4548-856d-4923ddaba0dc","98C44B831735476C882D761E96496EDA-2025-05-15-18-51-56","","null","","[]","null","",""
"","","","","","html-audio-response","55","353157","0.0-11.0","98C44B831735476C882D761E96496EDA","98C44B831735476C882D761E96496EDA","c799354f-7a19-436e-9355-f704e9d4e4bc","051c06f1-75cc-4548-856d-4923ddaba0dc","{""num_scrambled_semantic"":""8"",""num_scrambled_causal"":""4"",""num_scrambled_schematic"":""4"",""participantId"":""98C44B831735476C882D761E96496EDA"",""assignmentId"":""c799354f-7a19-436e-9355-f704e9d4e4bc"",""projectId"":""051c06f1-75cc-4548-856d-4923ddaba0dc""}","https://test12345.live/?num_scrambled_semantic=8&num_scrambled_causal=4&num_scrambled_schematic=4&participantId=98C44B831735476C882D761E96496EDA&assignmentId=c799354f-7a19-436e-9355-f704e9d4e4bc&projectId=051c06f1-75cc-4548-856d-4923ddaba0dc","98C44B831735476C882D761E96496EDA-2025-05-15-18-51-56","","49034","","[""<span style=\""color: red; font-size: 24px\""> NOW RECORDING</span><p>Please say out loud all the images you saw, as many as you can remember. The images can be said in any order.</p>""]","","0","supermarket_scheme"
"","","","","","image-button-response","56","359169","0.0-12.0-0.0","98C44B831735476C882D761E96496EDA","98C44B831735476C882D761E96496EDA","c799354f-7a19-436e-9355-f704e9d4e4bc","051c06f1-75cc-4548-856d-4923ddaba0dc","{""num_scrambled_semantic"":""8"",""num_scrambled_causal"":""4"",""num_scrambled_schematic"":""4"",""participantId"":""98C44B831735476C882D761E96496EDA"",""assignmentId"":""c799354f-7a19-436e-9355-f704e9d4e4bc"",""projectId"":""051c06f1-75cc-4548-856d-4923ddaba0dc""}","https://test12345.live/?num_scrambled_semantic=8&num_scrambled_causal=4&num_scrambled_schematic=4&participantId=98C44B831735476C882D761E96496EDA&assignmentId=c799354f-7a19-436e-9355-f704e9d4e4bc&projectId=051c06f1-75cc-4548-856d-4923ddaba0dc","98C44B831735476C882D761E96496EDA-2025-05-15-18-51-56","","null","","images/causal_sequence/dog_causal/dog_causal_0.png","null","",""
"","","","","","image-button-response","57","363671","0.0-12.0-1.0-0.0","98C44B831735476C882D761E96496EDA","98C44B831735476C882D761E96496EDA","c799354f-7a19-436e-9355-f704e9d4e4bc","051c06f1-75cc-4548-856d-4923ddaba0dc","{""num_scrambled_semantic"":""8"",""num_scrambled_causal"":""4"",""num_scrambled_schematic"":""4"",""participantId"":""98C44B831735476C882D761E96496EDA"",""assignmentId"":""c799354f-7a19-436e-9355-f704e9d4e4bc"",""projectId"":""051c06f1-75cc-4548-856d-4923ddaba0dc""}","https://test12345.live/?num_scrambled_semantic=8&num_scrambled_causal=4&num_scrambled_schematic=4&participantId=98C44B831735476C882D761E96496EDA&assignmentId=c799354f-7a19-436e-9355-f704e9d4e4bc&projectId=051c06f1-75cc-4548-856d-4923ddaba0dc","98C44B831735476C882D761E96496EDA-2025-05-15-18-51-56","","null","","images/causal_sequence/dog_causal/dog_causal_5.png","null","",""
"","","","","","image-button-response","58","365880","0.0-12.0-1.0-1.0","98C44B831735476C882D761E96496EDA","98C44B831735476C882D761E96496EDA","c799354f-7a19-436e-9355-f704e9d4e4bc","051c06f1-75cc-4548-856d-4923ddaba0dc","{""num_scrambled_semantic"":""8"",""num_scrambled_causal"":""4"",""num_scrambled_schematic"":""4"",""participantId"":""98C44B831735476C882D761E96496EDA"",""assignmentId"":""c799354f-7a19-436e-9355-f704e9d4e4bc"",""projectId"":""051c06f1-75cc-4548-856d-4923ddaba0dc""}","https://test12345.live/?num_scrambled_semantic=8&num_scrambled_causal=4&num_scrambled_schematic=4&participantId=98C44B831735476C882D761E96496EDA&assignmentId=c799354f-7a19-436e-9355-f704e9d4e4bc&projectId=051c06f1-75cc-4548-856d-4923ddaba0dc","98C44B831735476C882D761E96496EDA-2025-05-15-18-51-56","","2208","","images/causal_sequence/dog_causal/dog_causal_5.png","0","",""
"","","","","","image-button-response","59","367686","0.0-12.0-1.0-2.0","98C44B831735476C882D761E96496EDA","98C44B831735476C882D761E96496EDA","c799354f-7a19-436e-9355-f704e9d4e4bc","051c06f1-75cc-4548-856d-4923ddaba0dc","{""num_scrambled_semantic"":""8"",""num_scrambled_causal"":""4"",""num_scrambled_schematic"":""4"",""participantId"":""98C44B831735476C882D761E96496EDA"",""assignmentId"":""c799354f-7a19-436e-9355-f704e9d4e4bc"",""projectId"":""051c06f1-75cc-4548-856d-4923ddaba0dc""}","https://test12345.live/?num_scrambled_semantic=8&num_scrambled_causal=4&num_scrambled_schematic=4&participantId=98C44B831735476C882D761E96496EDA&assignmentId=c799354f-7a19-436e-9355-f704e9d4e4bc&projectId=051c06f1-75cc-4548-856d-4923ddaba0dc","98C44B831735476C882D761E96496EDA-2025-05-15-18-51-56","","null","","[]","null","",""
"","","","","","image-button-response","60","372188","0.0-12.0-1.0-0.1","98C44B831735476C882D761E96496EDA","98C44B831735476C882D761E96496EDA","c799354f-7a19-436e-9355-f704e9d4e4bc","051c06f1-75cc-4548-856d-4923ddaba0dc","{""num_scrambled_semantic"":""8"",""num_scrambled_causal"":""4"",""num_scrambled_schematic"":""4"",""participantId"":""98C44B831735476C882D761E96496EDA"",""assignmentId"":""c799354f-7a19-436e-9355-f704e9d4e4bc"",""projectId"":""051c06f1-75cc-4548-856d-4923ddaba0dc""}","https://test12345.live/?num_scrambled_semantic=8&num_scrambled_causal=4&num_scrambled_schematic=4&participantId=98C44B831735476C882D761E96496EDA&assignmentId=c799354f-7a19-436e-9355-f704e9d4e4bc&projectId=051c06f1-75cc-4548-856d-4923ddaba0dc","98C44B831735476C882D761E96496EDA-2025-05-15-18-51-56","","null","","images/causal_sequence/dog_causal/dog_causal_3.png","null","",""
"","","","","","image-button-response","61","373336","0.0-12.0-1.0-1.1","98C44B831735476C882D761E96496EDA","98C44B831735476C882D761E96496EDA","c799354f-7a19-436e-9355-f704e9d4e4bc","051c06f1-75cc-4548-856d-4923ddaba0dc","{""num_scrambled_semantic"":""8"",""num_scrambled_causal"":""4"",""num_scrambled_schematic"":""4"",""participantId"":""98C44B831735476C882D761E96496EDA"",""assignmentId"":""c799354f-7a19-436e-9355-f704e9d4e4bc"",""projectId"":""051c06f1-75cc-4548-856d-4923ddaba0dc""}","https://test12345.live/?num_scrambled_semantic=8&num_scrambled_causal=4&num_scrambled_schematic=4&participantId=98C44B831735476C882D761E96496EDA&assignmentId=c799354f-7a19-436e-9355-f704e9d4e4bc&projectId=051c06f1-75cc-4548-856d-4923ddaba0dc","98C44B831735476C882D761E96496EDA-2025-05-15-18-51-56","","1148","","images/causal_sequence/dog_causal/dog_causal_3.png","0","",""
"","","","","","image-button-response","62","375146","0.0-12.0-1.0-2.1","98C44B831735476C882D761E96496EDA","98C44B831735476C882D761E96496EDA","c799354f-7a19-436e-9355-f704e9d4e4bc","051c06f1-75cc-4548-856d-4923ddaba0dc","{""num_scrambled_semantic"":""8"",""num_scrambled_causal"":""4"",""num_scrambled_schematic"":""4"",""participantId"":""98C44B831735476C882D761E96496EDA"",""assignmentId"":""c799354f-7a19-436e-9355-f704e9d4e4bc"",""projectId"":""051c06f1-75cc-4548-856d-4923ddaba0dc""}","https://test12345.live/?num_scrambled_semantic=8&num_scrambled_causal=4&num_scrambled_schematic=4&participantId=98C44B831735476C882D761E96496EDA&assignmentId=c799354f-7a19-436e-9355-f704e9d4e4bc&projectId=051c06f1-75cc-4548-856d-4923ddaba0dc","98C44B831735476C882D761E96496EDA-2025-05-15-18-51-56","","null","","[]","null","",""
"","","","","","image-button-response","63","379652","0.0-12.0-1.0-0.2","98C44B831735476C882D761E96496EDA","98C44B831735476C882D761E96496EDA","c799354f-7a19-436e-9355-f704e9d4e4bc","051c06f1-75cc-4548-856d-4923ddaba0dc","{""num_scrambled_semantic"":""8"",""num_scrambled_causal"":""4"",""num_scrambled_schematic"":""4"",""participantId"":""98C44B831735476C882D761E96496EDA"",""assignmentId"":""c799354f-7a19-436e-9355-f704e9d4e4bc"",""projectId"":""051c06f1-75cc-4548-856d-4923ddaba0dc""}","https://test12345.live/?num_scrambled_semantic=8&num_scrambled_causal=4&num_scrambled_schematic=4&participantId=98C44B831735476C882D761E96496EDA&assignmentId=c799354f-7a19-436e-9355-f704e9d4e4bc&projectId=051c06f1-75cc-4548-856d-4923ddaba0dc","98C44B831735476C882D761E96496EDA-2025-05-15-18-51-56","","null","","images/causal_sequence/dog_causal/dog_causal_8.png","null","",""
"","","","","","image-button-response","64","380533","0.0-12.0-1.0-1.2","98C44B831735476C882D761E96496EDA","98C44B831735476C882D761E96496EDA","c799354f-7a19-436e-9355-f704e9d4e4bc","051c06f1-75cc-4548-856d-4923ddaba0dc","{""num_scrambled_semantic"":""8"",""num_scrambled_causal"":""4"",""num_scrambled_schematic"":""4"",""participantId"":""98C44B831735476C882D761E96496EDA"",""assignmentId"":""c799354f-7a19-436e-9355-f704e9d4e4bc"",""projectId"":""051c06f1-75cc-4548-856d-4923ddaba0dc""}","https://test12345.live/?num_scrambled_semantic=8&num_scrambled_causal=4&num_scrambled_schematic=4&participantId=98C44B831735476C882D761E96496EDA&assignmentId=c799354f-7a19-436e-9355-f704e9d4e4bc&projectId=051c06f1-75cc-4548-856d-4923ddaba0dc","98C44B831735476C882D761E96496EDA-2025-05-15-18-51-56","","881","","images/causal_sequence/dog_causal/dog_causal_8.png","0","",""
"","","","","","image-button-response","65","382338","0.0-12.0-1.0-2.2","98C44B831735476C882D761E96496EDA","98C44B831735476C882D761E96496EDA","c799354f-7a19-436e-9355-f704e9d4e4bc","051c06f1-75cc-4548-856d-4923ddaba0dc","{""num_scrambled_semantic"":""8"",""num_scrambled_causal"":""4"",""num_scrambled_schematic"":""4"",""participantId"":""98C44B831735476C882D761E96496EDA"",""assignmentId"":""c799354f-7a19-436e-9355-f704e9d4e4bc"",""projectId"":""051c06f1-75cc-4548-856d-4923ddaba0dc""}","https://test12345.live/?num_scrambled_semantic=8&num_scrambled_causal=4&num_scrambled_schematic=4&participantId=98C44B831735476C882D761E96496EDA&assignmentId=c799354f-7a19-436e-9355-f704e9d4e4bc&projectId=051c06f1-75cc-4548-856d-4923ddaba0dc","98C44B831735476C882D761E96496EDA-2025-05-15-18-51-56","","null","","[]","null","",""
"","","","","","image-button-response","66","386840","0.0-12.0-1.0-0.3","98C44B831735476C882D761E96496EDA","98C44B831735476C882D761E96496EDA","c799354f-7a19-436e-9355-f704e9d4e4bc","051c06f1-75cc-4548-856d-4923ddaba0dc","{""num_scrambled_semantic"":""8"",""num_scrambled_causal"":""4"",""num_scrambled_schematic"":""4"",""participantId"":""98C44B831735476C882D761E96496EDA"",""assignmentId"":""c799354f-7a19-436e-9355-f704e9d4e4bc"",""projectId"":""051c06f1-75cc-4548-856d-4923ddaba0dc""}","https://test12345.live/?num_scrambled_semantic=8&num_scrambled_causal=4&num_scrambled_schematic=4&participantId=98C44B831735476C882D761E96496EDA&assignmentId=c799354f-7a19-436e-9355-f704e9d4e4bc&projectId=051c06f1-75cc-4548-856d-4923ddaba0dc","98C44B831735476C882D761E96496EDA-2025-05-15-18-51-56","","null","","images/causal_sequence/dog_causal/dog_causal_6.png","null","",""
"","","","","","image-button-response","67","387700","0.0-12.0-1.0-1.3","98C44B831735476C882D761E96496EDA","98C44B831735476C882D761E96496EDA","c799354f-7a19-436e-9355-f704e9d4e4bc","051c06f1-75cc-4548-856d-4923ddaba0dc","{""num_scrambled_semantic"":""8"",""num_scrambled_causal"":""4"",""num_scrambled_schematic"":""4"",""participantId"":""98C44B831735476C882D761E96496EDA"",""assignmentId"":""c799354f-7a19-436e-9355-f704e9d4e4bc"",""projectId"":""051c06f1-75cc-4548-856d-4923ddaba0dc""}","https://test12345.live/?num_scrambled_semantic=8&num_scrambled_causal=4&num_scrambled_schematic=4&participantId=98C44B831735476C882D761E96496EDA&assignmentId=c799354f-7a19-436e-9355-f704e9d4e4bc&projectId=051c06f1-75cc-4548-856d-4923ddaba0dc","98C44B831735476C882D761E96496EDA-2025-05-15-18-51-56","","860","","images/causal_sequence/dog_causal/dog_causal_6.png","0","",""
"","","","","","image-button-response","68","389504","0.0-12.0-1.0-2.3","98C44B831735476C882D761E96496EDA","98C44B831735476C882D761E96496EDA","c799354f-7a19-436e-9355-f704e9d4e4bc","051c06f1-75cc-4548-856d-4923ddaba0dc","{""num_scrambled_semantic"":""8"",""num_scrambled_causal"":""4"",""num_scrambled_schematic"":""4"",""participantId"":""98C44B831735476C882D761E96496EDA"",""assignmentId"":""c799354f-7a19-436e-9355-f704e9d4e4bc"",""projectId"":""051c06f1-75cc-4548-856d-4923ddaba0dc""}","https://test12345.live/?num_scrambled_semantic=8&num_scrambled_causal=4&num_scrambled_schematic=4&participantId=98C44B831735476C882D761E96496EDA&assignmentId=c799354f-7a19-436e-9355-f704e9d4e4bc&projectId=051c06f1-75cc-4548-856d-4923ddaba0dc","98C44B831735476C882D761E96496EDA-2025-05-15-18-51-56","","null","","[]","null","",""
"","","","","","image-button-response","69","394008","0.0-12.0-1.0-0.4","98C44B831735476C882D761E96496EDA","98C44B831735476C882D761E96496EDA","c799354f-7a19-436e-9355-f704e9d4e4bc","051c06f1-75cc-4548-856d-4923ddaba0dc","{""num_scrambled_semantic"":""8"",""num_scrambled_causal"":""4"",""num_scrambled_schematic"":""4"",""participantId"":""98C44B831735476C882D761E96496EDA"",""assignmentId"":""c799354f-7a19-436e-9355-f704e9d4e4bc"",""projectId"":""051c06f1-75cc-4548-856d-4923ddaba0dc""}","https://test12345.live/?num_scrambled_semantic=8&num_scrambled_causal=4&num_scrambled_schematic=4&participantId=98C44B831735476C882D761E96496EDA&assignmentId=c799354f-7a19-436e-9355-f704e9d4e4bc&projectId=051c06f1-75cc-4548-856d-4923ddaba0dc","98C44B831735476C882D761E96496EDA-2025-05-15-18-51-56","","null","","images/causal_sequence/dog_causal/dog_causal_1.png","null","",""
"","","","","","image-button-response","70","394732","0.0-12.0-1.0-1.4","98C44B831735476C882D761E96496EDA","98C44B831735476C882D761E96496EDA","c799354f-7a19-436e-9355-f704e9d4e4bc","051c06f1-75cc-4548-856d-4923ddaba0dc","{""num_scrambled_semantic"":""8"",""num_scrambled_causal"":""4"",""num_scrambled_schematic"":""4"",""participantId"":""98C44B831735476C882D761E96496EDA"",""assignmentId"":""c799354f-7a19-436e-9355-f704e9d4e4bc"",""projectId"":""051c06f1-75cc-4548-856d-4923ddaba0dc""}","https://test12345.live/?num_scrambled_semantic=8&num_scrambled_causal=4&num_scrambled_schematic=4&participantId=98C44B831735476C882D761E96496EDA&assignmentId=c799354f-7a19-436e-9355-f704e9d4e4bc&projectId=051c06f1-75cc-4548-856d-4923ddaba0dc","98C44B831735476C882D761E96496EDA-2025-05-15-18-51-56","","724","","images/causal_sequence/dog_causal/dog_causal_1.png","0","",""
"","","","","","image-button-response","71","396543","0.0-12.0-1.0-2.4","98C44B831735476C882D761E96496EDA","98C44B831735476C882D761E96496EDA","c799354f-7a19-436e-9355-f704e9d4e4bc","051c06f1-75cc-4548-856d-4923ddaba0dc","{""num_scrambled_semantic"":""8"",""num_scrambled_causal"":""4"",""num_scrambled_schematic"":""4"",""participantId"":""98C44B831735476C882D761E96496EDA"",""assignmentId"":""c799354f-7a19-436e-9355-f704e9d4e4bc"",""projectId"":""051c06f1-75cc-4548-856d-4923ddaba0dc""}","https://test12345.live/?num_scrambled_semantic=8&num_scrambled_causal=4&num_scrambled_schematic=4&participantId=98C44B831735476C882D761E96496EDA&assignmentId=c799354f-7a19-436e-9355-f704e9d4e4bc&projectId=051c06f1-75cc-4548-856d-4923ddaba0dc","98C44B831735476C882D761E96496EDA-2025-05-15-18-51-56","","null","","[]","null","",""
"","","","","","image-button-response","72","401054","0.0-12.0-1.0-0.5","98C44B831735476C882D761E96496EDA","98C44B831735476C882D761E96496EDA","c799354f-7a19-436e-9355-f704e9d4e4bc","051c06f1-75cc-4548-856d-4923ddaba0dc","{""num_scrambled_semantic"":""8"",""num_scrambled_causal"":""4"",""num_scrambled_schematic"":""4"",""participantId"":""98C44B831735476C882D761E96496EDA"",""assignmentId"":""c799354f-7a19-436e-9355-f704e9d4e4bc"",""projectId"":""051c06f1-75cc-4548-856d-4923ddaba0dc""}","https://test12345.live/?num_scrambled_semantic=8&num_scrambled_causal=4&num_scrambled_schematic=4&participantId=98C44B831735476C882D761E96496EDA&assignmentId=c799354f-7a19-436e-9355-f704e9d4e4bc&projectId=051c06f1-75cc-4548-856d-4923ddaba0dc","98C44B831735476C882D761E96496EDA-2025-05-15-18-51-56","","null","","images/causal_sequence/dog_causal/dog_causal_4.png","null","",""
"","","","","","image-button-response","73","403155","0.0-12.0-1.0-1.5","98C44B831735476C882D761E96496EDA","98C44B831735476C882D761E96496EDA","c799354f-7a19-436e-9355-f704e9d4e4bc","051c06f1-75cc-4548-856d-4923ddaba0dc","{""num_scrambled_semantic"":""8"",""num_scrambled_causal"":""4"",""num_scrambled_schematic"":""4"",""participantId"":""98C44B831735476C882D761E96496EDA"",""assignmentId"":""c799354f-7a19-436e-9355-f704e9d4e4bc"",""projectId"":""051c06f1-75cc-4548-856d-4923ddaba0dc""}","https://test12345.live/?num_scrambled_semantic=8&num_scrambled_causal=4&num_scrambled_schematic=4&participantId=98C44B831735476C882D761E96496EDA&assignmentId=c799354f-7a19-436e-9355-f704e9d4e4bc&projectId=051c06f1-75cc-4548-856d-4923ddaba0dc","98C44B831735476C882D761E96496EDA-2025-05-15-18-51-56","","2100","","images/causal_sequence/dog_causal/dog_causal_4.png","0","",""
"","","","","","image-button-response","74","404961","0.0-12.0-1.0-2.5","98C44B831735476C882D761E96496EDA","98C44B831735476C882D761E96496EDA","c799354f-7a19-436e-9355-f704e9d4e4bc","051c06f1-75cc-4548-856d-4923ddaba0dc","{""num_scrambled_semantic"":""8"",""num_scrambled_causal"":""4"",""num_scrambled_schematic"":""4"",""participantId"":""98C44B831735476C882D761E96496EDA"",""assignmentId"":""c799354f-7a19-436e-9355-f704e9d4e4bc"",""projectId"":""051c06f1-75cc-4548-856d-4923ddaba0dc""}","https://test12345.live/?num_scrambled_semantic=8&num_scrambled_causal=4&num_scrambled_schematic=4&participantId=98C44B831735476C882D761E96496EDA&assignmentId=c799354f-7a19-436e-9355-f704e9d4e4bc&projectId=051c06f1-75cc-4548-856d-4923ddaba0dc","98C44B831735476C882D761E96496EDA-2025-05-15-18-51-56","","null","","[]","null","",""
"","","","","","image-button-response","75","409463","0.0-12.0-1.0-0.6","98C44B831735476C882D761E96496EDA","98C44B831735476C882D761E96496EDA","c799354f-7a19-436e-9355-f704e9d4e4bc","051c06f1-75cc-4548-856d-4923ddaba0dc","{""num_scrambled_semantic"":""8"",""num_scrambled_causal"":""4"",""num_scrambled_schematic"":""4"",""participantId"":""98C44B831735476C882D761E96496EDA"",""assignmentId"":""c799354f-7a19-436e-9355-f704e9d4e4bc"",""projectId"":""051c06f1-75cc-4548-856d-4923ddaba0dc""}","https://test12345.live/?num_scrambled_semantic=8&num_scrambled_causal=4&num_scrambled_schematic=4&participantId=98C44B831735476C882D761E96496EDA&assignmentId=c799354f-7a19-436e-9355-f704e9d4e4bc&projectId=051c06f1-75cc-4548-856d-4923ddaba0dc","98C44B831735476C882D761E96496EDA-2025-05-15-18-51-56","","null","","images/causal_sequence/dog_causal/dog_causal_9.png","null","",""
"","","","","","image-button-response","76","409916","0.0-12.0-1.0-1.6","98C44B831735476C882D761E96496EDA","98C44B831735476C882D761E96496EDA","c799354f-7a19-436e-9355-f704e9d4e4bc","051c06f1-75cc-4548-856d-4923ddaba0dc","{""num_scrambled_semantic"":""8"",""num_scrambled_causal"":""4"",""num_scrambled_schematic"":""4"",""participantId"":""98C44B831735476C882D761E96496EDA"",""assignmentId"":""c799354f-7a19-436e-9355-f704e9d4e4bc"",""projectId"":""051c06f1-75cc-4548-856d-4923ddaba0dc""}","https://test12345.live/?num_scrambled_semantic=8&num_scrambled_causal=4&num_scrambled_schematic=4&participantId=98C44B831735476C882D761E96496EDA&assignmentId=c799354f-7a19-436e-9355-f704e9d4e4bc&projectId=051c06f1-75cc-4548-856d-4923ddaba0dc","98C44B831735476C882D761E96496EDA-2025-05-15-18-51-56","","452","","images/causal_sequence/dog_causal/dog_causal_9.png","0","",""
"","","","","","image-button-response","77","411719","0.0-12.0-1.0-2.6","98C44B831735476C882D761E96496EDA","98C44B831735476C882D761E96496EDA","c799354f-7a19-436e-9355-f704e9d4e4bc","051c06f1-75cc-4548-856d-4923ddaba0dc","{""num_scrambled_semantic"":""8"",""num_scrambled_causal"":""4"",""num_scrambled_schematic"":""4"",""participantId"":""98C44B831735476C882D761E96496EDA"",""assignmentId"":""c799354f-7a19-436e-9355-f704e9d4e4bc"",""projectId"":""051c06f1-75cc-4548-856d-4923ddaba0dc""}","https://test12345.live/?num_scrambled_semantic=8&num_scrambled_causal=4&num_scrambled_schematic=4&participantId=98C44B831735476C882D761E96496EDA&assignmentId=c799354f-7a19-436e-9355-f704e9d4e4bc&projectId=051c06f1-75cc-4548-856d-4923ddaba0dc","98C44B831735476C882D761E96496EDA-2025-05-15-18-51-56","","null","","[]","null","",""
"","","","","","image-button-response","78","416223","0.0-12.0-1.0-0.7","98C44B831735476C882D761E96496EDA","98C44B831735476C882D761E96496EDA","c799354f-7a19-436e-9355-f704e9d4e4bc","051c06f1-75cc-4548-856d-4923ddaba0dc","{""num_scrambled_semantic"":""8"",""num_scrambled_causal"":""4"",""num_scrambled_schematic"":""4"",""participantId"":""98C44B831735476C882D761E96496EDA"",""assignmentId"":""c799354f-7a19-436e-9355-f704e9d4e4bc"",""projectId"":""051c06f1-75cc-4548-856d-4923ddaba0dc""}","https://test12345.live/?num_scrambled_semantic=8&num_scrambled_causal=4&num_scrambled_schematic=4&participantId=98C44B831735476C882D761E96496EDA&assignmentId=c799354f-7a19-436e-9355-f704e9d4e4bc&projectId=051c06f1-75cc-4548-856d-4923ddaba0dc","98C44B831735476C882D761E96496EDA-2025-05-15-18-51-56","","null","","images/causal_sequence/dog_causal/dog_causal_ten.png","null","",""
"","","","","","image-button-response","79","418008","0.0-12.0-1.0-1.7","98C44B831735476C882D761E96496EDA","98C44B831735476C882D761E96496EDA","c799354f-7a19-436e-9355-f704e9d4e4bc","051c06f1-75cc-4548-856d-4923ddaba0dc","{""num_scrambled_semantic"":""8"",""num_scrambled_causal"":""4"",""num_scrambled_schematic"":""4"",""participantId"":""98C44B831735476C882D761E96496EDA"",""assignmentId"":""c799354f-7a19-436e-9355-f704e9d4e4bc"",""projectId"":""051c06f1-75cc-4548-856d-4923ddaba0dc""}","https://test12345.live/?num_scrambled_semantic=8&num_scrambled_causal=4&num_scrambled_schematic=4&participantId=98C44B831735476C882D761E96496EDA&assignmentId=c799354f-7a19-436e-9355-f704e9d4e4bc&projectId=051c06f1-75cc-4548-856d-4923ddaba0dc","98C44B831735476C882D761E96496EDA-2025-05-15-18-51-56","","1786","","images/causal_sequence/dog_causal/dog_causal_ten.png","0","",""
"","","","","","image-button-response","80","419815","0.0-12.0-1.0-2.7","98C44B831735476C882D761E96496EDA","98C44B831735476C882D761E96496EDA","c799354f-7a19-436e-9355-f704e9d4e4bc","051c06f1-75cc-4548-856d-4923ddaba0dc","{""num_scrambled_semantic"":""8"",""num_scrambled_causal"":""4"",""num_scrambled_schematic"":""4"",""participantId"":""98C44B831735476C882D761E96496EDA"",""assignmentId"":""c799354f-7a19-436e-9355-f704e9d4e4bc"",""projectId"":""051c06f1-75cc-4548-856d-4923ddaba0dc""}","https://test12345.live/?num_scrambled_semantic=8&num_scrambled_causal=4&num_scrambled_schematic=4&participantId=98C44B831735476C882D761E96496EDA&assignmentId=c799354f-7a19-436e-9355-f704e9d4e4bc&projectId=051c06f1-75cc-4548-856d-4923ddaba0dc","98C44B831735476C882D761E96496EDA-2025-05-15-18-51-56","","null","","[]","null","",""
"","","","","","image-button-response","81","424316","0.0-12.0-1.0-0.8","98C44B831735476C882D761E96496EDA","98C44B831735476C882D761E96496EDA","c799354f-7a19-436e-9355-f704e9d4e4bc","051c06f1-75cc-4548-856d-4923ddaba0dc","{""num_scrambled_semantic"":""8"",""num_scrambled_causal"":""4"",""num_scrambled_schematic"":""4"",""participantId"":""98C44B831735476C882D761E96496EDA"",""assignmentId"":""c799354f-7a19-436e-9355-f704e9d4e4bc"",""projectId"":""051c06f1-75cc-4548-856d-4923ddaba0dc""}","https://test12345.live/?num_scrambled_semantic=8&num_scrambled_causal=4&num_scrambled_schematic=4&participantId=98C44B831735476C882D761E96496EDA&assignmentId=c799354f-7a19-436e-9355-f704e9d4e4bc&projectId=051c06f1-75cc-4548-856d-4923ddaba0dc","98C44B831735476C882D761E96496EDA-2025-05-15-18-51-56","","null","","images/causal_sequence/dog_causal/dog_causal_2.png","null","",""
"","","","","","image-button-response","82","425508","0.0-12.0-1.0-1.8","98C44B831735476C882D761E96496EDA","98C44B831735476C882D761E96496EDA","c799354f-7a19-436e-9355-f704e9d4e4bc","051c06f1-75cc-4548-856d-4923ddaba0dc","{""num_scrambled_semantic"":""8"",""num_scrambled_causal"":""4"",""num_scrambled_schematic"":""4"",""participantId"":""98C44B831735476C882D761E96496EDA"",""assignmentId"":""c799354f-7a19-436e-9355-f704e9d4e4bc"",""projectId"":""051c06f1-75cc-4548-856d-4923ddaba0dc""}","https://test12345.live/?num_scrambled_semantic=8&num_scrambled_causal=4&num_scrambled_schematic=4&participantId=98C44B831735476C882D761E96496EDA&assignmentId=c799354f-7a19-436e-9355-f704e9d4e4bc&projectId=051c06f1-75cc-4548-856d-4923ddaba0dc","98C44B831735476C882D761E96496EDA-2025-05-15-18-51-56","","1191","","images/causal_sequence/dog_causal/dog_causal_2.png","0","",""
"","","","","","image-button-response","83","427321","0.0-12.0-1.0-2.8","98C44B831735476C882D761E96496EDA","98C44B831735476C882D761E96496EDA","c799354f-7a19-436e-9355-f704e9d4e4bc","051c06f1-75cc-4548-856d-4923ddaba0dc","{""num_scrambled_semantic"":""8"",""num_scrambled_causal"":""4"",""num_scrambled_schematic"":""4"",""participantId"":""98C44B831735476C882D761E96496EDA"",""assignmentId"":""c799354f-7a19-436e-9355-f704e9d4e4bc"",""projectId"":""051c06f1-75cc-4548-856d-4923ddaba0dc""}","https://test12345.live/?num_scrambled_semantic=8&num_scrambled_causal=4&num_scrambled_schematic=4&participantId=98C44B831735476C882D761E96496EDA&assignmentId=c799354f-7a19-436e-9355-f704e9d4e4bc&projectId=051c06f1-75cc-4548-856d-4923ddaba0dc","98C44B831735476C882D761E96496EDA-2025-05-15-18-51-56","","null","","[]","null","",""
"","","","","","image-button-response","84","431833","0.0-12.0-1.0-0.9","98C44B831735476C882D761E96496EDA","98C44B831735476C882D761E96496EDA","c799354f-7a19-436e-9355-f704e9d4e4bc","051c06f1-75cc-4548-856d-4923ddaba0dc","{""num_scrambled_semantic"":""8"",""num_scrambled_causal"":""4"",""num_scrambled_schematic"":""4"",""participantId"":""98C44B831735476C882D761E96496EDA"",""assignmentId"":""c799354f-7a19-436e-9355-f704e9d4e4bc"",""projectId"":""051c06f1-75cc-4548-856d-4923ddaba0dc""}","https://test12345.live/?num_scrambled_semantic=8&num_scrambled_causal=4&num_scrambled_schematic=4&participantId=98C44B831735476C882D761E96496EDA&assignmentId=c799354f-7a19-436e-9355-f704e9d4e4bc&projectId=051c06f1-75cc-4548-856d-4923ddaba0dc","98C44B831735476C882D761E96496EDA-2025-05-15-18-51-56","","null","","images/causal_sequence/dog_causal/dog_causal_7.png","null","",""
"","","","","","image-button-response","85","432931","0.0-12.0-1.0-1.9","98C44B831735476C882D761E96496EDA","98C44B831735476C882D761E96496EDA","c799354f-7a19-436e-9355-f704e9d4e4bc","051c06f1-75cc-4548-856d-4923ddaba0dc","{""num_scrambled_semantic"":""8"",""num_scrambled_causal"":""4"",""num_scrambled_schematic"":""4"",""participantId"":""98C44B831735476C882D761E96496EDA"",""assignmentId"":""c799354f-7a19-436e-9355-f704e9d4e4bc"",""projectId"":""051c06f1-75cc-4548-856d-4923ddaba0dc""}","https://test12345.live/?num_scrambled_semantic=8&num_scrambled_causal=4&num_scrambled_schematic=4&participantId=98C44B831735476C882D761E96496EDA&assignmentId=c799354f-7a19-436e-9355-f704e9d4e4bc&projectId=051c06f1-75cc-4548-856d-4923ddaba0dc","98C44B831735476C882D761E96496EDA-2025-05-15-18-51-56","","1097","","images/causal_sequence/dog_causal/dog_causal_7.png","0","",""
"","","","","","image-button-response","86","434743","0.0-12.0-1.0-2.9","98C44B831735476C882D761E96496EDA","98C44B831735476C882D761E96496EDA","c799354f-7a19-436e-9355-f704e9d4e4bc","051c06f1-75cc-4548-856d-4923ddaba0dc","{""num_scrambled_semantic"":""8"",""num_scrambled_causal"":""4"",""num_scrambled_schematic"":""4"",""participantId"":""98C44B831735476C882D761E96496EDA"",""assignmentId"":""c799354f-7a19-436e-9355-f704e9d4e4bc"",""projectId"":""051c06f1-75cc-4548-856d-4923ddaba0dc""}","https://test12345.live/?num_scrambled_semantic=8&num_scrambled_causal=4&num_scrambled_schematic=4&participantId=98C44B831735476C882D761E96496EDA&assignmentId=c799354f-7a19-436e-9355-f704e9d4e4bc&projectId=051c06f1-75cc-4548-856d-4923ddaba0dc","98C44B831735476C882D761E96496EDA-2025-05-15-18-51-56","","null","","[]","null","",""
"","","","","","html-audio-response","87","479565","0.0-13.0","98C44B831735476C882D761E96496EDA","98C44B831735476C882D761E96496EDA","c799354f-7a19-436e-9355-f704e9d4e4bc","051c06f1-75cc-4548-856d-4923ddaba0dc","{""num_scrambled_semantic"":""8"",""num_scrambled_causal"":""4"",""num_scrambled_schematic"":""4"",""participantId"":""98C44B831735476C882D761E96496EDA"",""assignmentId"":""c799354f-7a19-436e-9355-f704e9d4e4bc"",""projectId"":""051c06f1-75cc-4548-856d-4923ddaba0dc""}","https://test12345.live/?num_scrambled_semantic=8&num_scrambled_causal=4&num_scrambled_schematic=4&participantId=98C44B831735476C882D761E96496EDA&assignmentId=c799354f-7a19-436e-9355-f704e9d4e4bc&projectId=051c06f1-75cc-4548-856d-4923ddaba0dc","98C44B831735476C882D761E96496EDA-2025-05-15-18-51-56","","43871","","[""<span style=\""color: red; font-size: 24px\""> NOW RECORDING</span><p>Please say out loud all the images you saw, as many as you can remember. The images can be said in any order.</p>""]","","1","dog_causal"
"","","","","","image-button-response","88","485577","0.0-14.0-0.0","98C44B831735476C882D761E96496EDA","98C44B831735476C882D761E96496EDA","c799354f-7a19-436e-9355-f704e9d4e4bc","051c06f1-75cc-4548-856d-4923ddaba0dc","{""num_scrambled_semantic"":""8"",""num_scrambled_causal"":""4"",""num_scrambled_schematic"":""4"",""participantId"":""98C44B831735476C882D761E96496EDA"",""assignmentId"":""c799354f-7a19-436e-9355-f704e9d4e4bc"",""projectId"":""051c06f1-75cc-4548-856d-4923ddaba0dc""}","https://test12345.live/?num_scrambled_semantic=8&num_scrambled_causal=4&num_scrambled_schematic=4&participantId=98C44B831735476C882D761E96496EDA&assignmentId=c799354f-7a19-436e-9355-f704e9d4e4bc&projectId=051c06f1-75cc-4548-856d-4923ddaba0dc","98C44B831735476C882D761E96496EDA-2025-05-15-18-51-56","","null","","images/semantic_sequence/housework_semantic/housework_semantic_0.png","null","",""
"","","","","","image-button-response","89","490081","0.0-14.0-1.0-0.0","98C44B831735476C882D761E96496EDA","98C44B831735476C882D761E96496EDA","c799354f-7a19-436e-9355-f704e9d4e4bc","051c06f1-75cc-4548-856d-4923ddaba0dc","{""num_scrambled_semantic"":""8"",""num_scrambled_causal"":""4"",""num_scrambled_schematic"":""4"",""participantId"":""98C44B831735476C882D761E96496EDA"",""assignmentId"":""c799354f-7a19-436e-9355-f704e9d4e4bc"",""projectId"":""051c06f1-75cc-4548-856d-4923ddaba0dc""}","https://test12345.live/?num_scrambled_semantic=8&num_scrambled_causal=4&num_scrambled_schematic=4&participantId=98C44B831735476C882D761E96496EDA&assignmentId=c799354f-7a19-436e-9355-f704e9d4e4bc&projectId=051c06f1-75cc-4548-856d-4923ddaba0dc","98C44B831735476C882D761E96496EDA-2025-05-15-18-51-56","","null","","images/semantic_sequence/housework_semantic/housework_semantic_2.png","null","",""
"","","","","","image-button-response","90","492710","0.0-14.0-1.0-1.0","98C44B831735476C882D761E96496EDA","98C44B831735476C882D761E96496EDA","c799354f-7a19-436e-9355-f704e9d4e4bc","051c06f1-75cc-4548-856d-4923ddaba0dc","{""num_scrambled_semantic"":""8"",""num_scrambled_causal"":""4"",""num_scrambled_schematic"":""4"",""participantId"":""98C44B831735476C882D761E96496EDA"",""assignmentId"":""c799354f-7a19-436e-9355-f704e9d4e4bc"",""projectId"":""051c06f1-75cc-4548-856d-4923ddaba0dc""}","https://test12345.live/?num_scrambled_semantic=8&num_scrambled_causal=4&num_scrambled_schematic=4&participantId=98C44B831735476C882D761E96496EDA&assignmentId=c799354f-7a19-436e-9355-f704e9d4e4bc&projectId=051c06f1-75cc-4548-856d-4923ddaba0dc","98C44B831735476C882D761E96496EDA-2025-05-15-18-51-56","","2628","","images/semantic_sequence/housework_semantic/housework_semantic_2.png","0","",""
"","","","","","image-button-response","91","494520","0.0-14.0-1.0-2.0","98C44B831735476C882D761E96496EDA","98C44B831735476C882D761E96496EDA","c799354f-7a19-436e-9355-f704e9d4e4bc","051c06f1-75cc-4548-856d-4923ddaba0dc","{""num_scrambled_semantic"":""8"",""num_scrambled_causal"":""4"",""num_scrambled_schematic"":""4"",""participantId"":""98C44B831735476C882D761E96496EDA"",""assignmentId"":""c799354f-7a19-436e-9355-f704e9d4e4bc"",""projectId"":""051c06f1-75cc-4548-856d-4923ddaba0dc""}","https://test12345.live/?num_scrambled_semantic=8&num_scrambled_causal=4&num_scrambled_schematic=4&participantId=98C44B831735476C882D761E96496EDA&assignmentId=c799354f-7a19-436e-9355-f704e9d4e4bc&projectId=051c06f1-75cc-4548-856d-4923ddaba0dc","98C44B831735476C882D761E96496EDA-2025-05-15-18-51-56","","null","","[]","null","",""
"","","","","","image-button-response","92","499029","0.0-14.0-1.0-0.1","98C44B831735476C882D761E96496EDA","98C44B831735476C882D761E96496EDA","c799354f-7a19-436e-9355-f704e9d4e4bc","051c06f1-75cc-4548-856d-4923ddaba0dc","{""num_scrambled_semantic"":""8"",""num_scrambled_causal"":""4"",""num_scrambled_schematic"":""4"",""participantId"":""98C44B831735476C882D761E96496EDA"",""assignmentId"":""c799354f-7a19-436e-9355-f704e9d4e4bc"",""projectId"":""051c06f1-75cc-4548-856d-4923ddaba0dc""}","https://test12345.live/?num_scrambled_semantic=8&num_scrambled_causal=4&num_scrambled_schematic=4&participantId=98C44B831735476C882D761E96496EDA&assignmentId=c799354f-7a19-436e-9355-f704e9d4e4bc&projectId=051c06f1-75cc-4548-856d-4923ddaba0dc","98C44B831735476C882D761E96496EDA-2025-05-15-18-51-56","","null","","images/semantic_sequence/housework_semantic/housework_semantic_4.png","null","",""
"","","","","","image-button-response","93","501906","0.0-14.0-1.0-1.1","98C44B831735476C882D761E96496EDA","98C44B831735476C882D761E96496EDA","c799354f-7a19-436e-9355-f704e9d4e4bc","051c06f1-75cc-4548-856d-4923ddaba0dc","{""num_scrambled_semantic"":""8"",""num_scrambled_causal"":""4"",""num_scrambled_schematic"":""4"",""participantId"":""98C44B831735476C882D761E96496EDA"",""assignmentId"":""c799354f-7a19-436e-9355-f704e9d4e4bc"",""projectId"":""051c06f1-75cc-4548-856d-4923ddaba0dc""}","https://test12345.live/?num_scrambled_semantic=8&num_scrambled_causal=4&num_scrambled_schematic=4&participantId=98C44B831735476C882D761E96496EDA&assignmentId=c799354f-7a19-436e-9355-f704e9d4e4bc&projectId=051c06f1-75cc-4548-856d-4923ddaba0dc","98C44B831735476C882D761E96496EDA-2025-05-15-18-51-56","","2877","","images/semantic_sequence/housework_semantic/housework_semantic_4.png","0","",""
"","","","","","image-button-response","94","503708","0.0-14.0-1.0-2.1","98C44B831735476C882D761E96496EDA","98C44B831735476C882D761E96496EDA","c799354f-7a19-436e-9355-f704e9d4e4bc","051c06f1-75cc-4548-856d-4923ddaba0dc","{""num_scrambled_semantic"":""8"",""num_scrambled_causal"":""4"",""num_scrambled_schematic"":""4"",""participantId"":""98C44B831735476C882D761E96496EDA"",""assignmentId"":""c799354f-7a19-436e-9355-f704e9d4e4bc"",""projectId"":""051c06f1-75cc-4548-856d-4923ddaba0dc""}","https://test12345.live/?num_scrambled_semantic=8&num_scrambled_causal=4&num_scrambled_schematic=4&participantId=98C44B831735476C882D761E96496EDA&assignmentId=c799354f-7a19-436e-9355-f704e9d4e4bc&projectId=051c06f1-75cc-4548-856d-4923ddaba0dc","98C44B831735476C882D761E96496EDA-2025-05-15-18-51-56","","null","","[]","null","",""
"","","","","","image-button-response","95","508209","0.0-14.0-1.0-0.2","98C44B831735476C882D761E96496EDA","98C44B831735476C882D761E96496EDA","c799354f-7a19-436e-9355-f704e9d4e4bc","051c06f1-75cc-4548-856d-4923ddaba0dc","{""num_scrambled_semantic"":""8"",""num_scrambled_causal"":""4"",""num_scrambled_schematic"":""4"",""participantId"":""98C44B831735476C882D761E96496EDA"",""assignmentId"":""c799354f-7a19-436e-9355-f704e9d4e4bc"",""projectId"":""051c06f1-75cc-4548-856d-4923ddaba0dc""}","https://test12345.live/?num_scrambled_semantic=8&num_scrambled_causal=4&num_scrambled_schematic=4&participantId=98C44B831735476C882D761E96496EDA&assignmentId=c799354f-7a19-436e-9355-f704e9d4e4bc&projectId=051c06f1-75cc-4548-856d-4923ddaba0dc","98C44B831735476C882D761E96496EDA-2025-05-15-18-51-56","","null","","images/semantic_sequence/housework_semantic/housework_semantic_6.png","null","",""
"","","","","","image-button-response","96","509404","0.0-14.0-1.0-1.2","98C44B831735476C882D761E96496EDA","98C44B831735476C882D761E96496EDA","c799354f-7a19-436e-9355-f704e9d4e4bc","051c06f1-75cc-4548-856d-4923ddaba0dc","{""num_scrambled_semantic"":""8"",""num_scrambled_causal"":""4"",""num_scrambled_schematic"":""4"",""participantId"":""98C44B831735476C882D761E96496EDA"",""assignmentId"":""c799354f-7a19-436e-9355-f704e9d4e4bc"",""projectId"":""051c06f1-75cc-4548-856d-4923ddaba0dc""}","https://test12345.live/?num_scrambled_semantic=8&num_scrambled_causal=4&num_scrambled_schematic=4&participantId=98C44B831735476C882D761E96496EDA&assignmentId=c799354f-7a19-436e-9355-f704e9d4e4bc&projectId=051c06f1-75cc-4548-856d-4923ddaba0dc","98C44B831735476C882D761E96496EDA-2025-05-15-18-51-56","","1194","","images/semantic_sequence/housework_semantic/housework_semantic_6.png","0","",""
"","","","","","image-button-response","97","511207","0.0-14.0-1.0-2.2","98C44B831735476C882D761E96496EDA","98C44B831735476C882D761E96496EDA","c799354f-7a19-436e-9355-f704e9d4e4bc","051c06f1-75cc-4548-856d-4923ddaba0dc","{""num_scrambled_semantic"":""8"",""num_scrambled_causal"":""4"",""num_scrambled_schematic"":""4"",""participantId"":""98C44B831735476C882D761E96496EDA"",""assignmentId"":""c799354f-7a19-436e-9355-f704e9d4e4bc"",""projectId"":""051c06f1-75cc-4548-856d-4923ddaba0dc""}","https://test12345.live/?num_scrambled_semantic=8&num_scrambled_causal=4&num_scrambled_schematic=4&participantId=98C44B831735476C882D761E96496EDA&assignmentId=c799354f-7a19-436e-9355-f704e9d4e4bc&projectId=051c06f1-75cc-4548-856d-4923ddaba0dc","98C44B831735476C882D761E96496EDA-2025-05-15-18-51-56","","null","","[]","null","",""
"","","","","","image-button-response","98","515710","0.0-14.0-1.0-0.3","98C44B831735476C882D761E96496EDA","98C44B831735476C882D761E96496EDA","c799354f-7a19-436e-9355-f704e9d4e4bc","051c06f1-75cc-4548-856d-4923ddaba0dc","{""num_scrambled_semantic"":""8"",""num_scrambled_causal"":""4"",""num_scrambled_schematic"":""4"",""participantId"":""98C44B831735476C882D761E96496EDA"",""assignmentId"":""c799354f-7a19-436e-9355-f704e9d4e4bc"",""projectId"":""051c06f1-75cc-4548-856d-4923ddaba0dc""}","https://test12345.live/?num_scrambled_semantic=8&num_scrambled_causal=4&num_scrambled_schematic=4&participantId=98C44B831735476C882D761E96496EDA&assignmentId=c799354f-7a19-436e-9355-f704e9d4e4bc&projectId=051c06f1-75cc-4548-856d-4923ddaba0dc","98C44B831735476C882D761E96496EDA-2025-05-15-18-51-56","","null","","images/semantic_sequence/housework_semantic/housework_semantic_8.png","null","",""
"","","","","","image-button-response","99","517763","0.0-14.0-1.0-1.3","98C44B831735476C882D761E96496EDA","98C44B831735476C882D761E96496EDA","c799354f-7a19-436e-9355-f704e9d4e4bc","051c06f1-75cc-4548-856d-4923ddaba0dc","{""num_scrambled_semantic"":""8"",""num_scrambled_causal"":""4"",""num_scrambled_schematic"":""4"",""participantId"":""98C44B831735476C882D761E96496EDA"",""assignmentId"":""c799354f-7a19-436e-9355-f704e9d4e4bc"",""projectId"":""051c06f1-75cc-4548-856d-4923ddaba0dc""}","https://test12345.live/?num_scrambled_semantic=8&num_scrambled_causal=4&num_scrambled_schematic=4&participantId=98C44B831735476C882D761E96496EDA&assignmentId=c799354f-7a19-436e-9355-f704e9d4e4bc&projectId=051c06f1-75cc-4548-856d-4923ddaba0dc","98C44B831735476C882D761E96496EDA-2025-05-15-18-51-56","","2053","","images/semantic_sequence/housework_semantic/housework_semantic_8.png","0","",""
"","","","","","image-button-response","100","519564","0.0-14.0-1.0-2.3","98C44B831735476C882D761E96496EDA","98C44B831735476C882D761E96496EDA","c799354f-7a19-436e-9355-f704e9d4e4bc","051c06f1-75cc-4548-856d-4923ddaba0dc","{""num_scrambled_semantic"":""8"",""num_scrambled_causal"":""4"",""num_scrambled_schematic"":""4"",""participantId"":""98C44B831735476C882D761E96496EDA"",""assignmentId"":""c799354f-7a19-436e-9355-f704e9d4e4bc"",""projectId"":""051c06f1-75cc-4548-856d-4923ddaba0dc""}","https://test12345.live/?num_scrambled_semantic=8&num_scrambled_causal=4&num_scrambled_schematic=4&participantId=98C44B831735476C882D761E96496EDA&assignmentId=c799354f-7a19-436e-9355-f704e9d4e4bc&projectId=051c06f1-75cc-4548-856d-4923ddaba0dc","98C44B831735476C882D761E96496EDA-2025-05-15-18-51-56","","null","","[]","null","",""
"","","","","","image-button-response","101","524066","0.0-14.0-1.0-0.4","98C44B831735476C882D761E96496EDA","98C44B831735476C882D761E96496EDA","c799354f-7a19-436e-9355-f704e9d4e4bc","051c06f1-75cc-4548-856d-4923ddaba0dc","{""num_scrambled_semantic"":""8"",""num_scrambled_causal"":""4"",""num_scrambled_schematic"":""4"",""participantId"":""98C44B831735476C882D761E96496EDA"",""assignmentId"":""c799354f-7a19-436e-9355-f704e9d4e4bc"",""projectId"":""051c06f1-75cc-4548-856d-4923ddaba0dc""}","https://test12345.live/?num_scrambled_semantic=8&num_scrambled_causal=4&num_scrambled_schematic=4&participantId=98C44B831735476C882D761E96496EDA&assignmentId=c799354f-7a19-436e-9355-f704e9d4e4bc&projectId=051c06f1-75cc-4548-856d-4923ddaba0dc","98C44B831735476C882D761E96496EDA-2025-05-15-18-51-56","","null","","images/semantic_sequence/housework_semantic/housework_semantic_7.png","null","",""
"","","","","","image-button-response","102","524652","0.0-14.0-1.0-1.4","98C44B831735476C882D761E96496EDA","98C44B831735476C882D761E96496EDA","c799354f-7a19-436e-9355-f704e9d4e4bc","051c06f1-75cc-4548-856d-4923ddaba0dc","{""num_scrambled_semantic"":""8"",""num_scrambled_causal"":""4"",""num_scrambled_schematic"":""4"",""participantId"":""98C44B831735476C882D761E96496EDA"",""assignmentId"":""c799354f-7a19-436e-9355-f704e9d4e4bc"",""projectId"":""051c06f1-75cc-4548-856d-4923ddaba0dc""}","https://test12345.live/?num_scrambled_semantic=8&num_scrambled_causal=4&num_scrambled_schematic=4&participantId=98C44B831735476C882D761E96496EDA&assignmentId=c799354f-7a19-436e-9355-f704e9d4e4bc&projectId=051c06f1-75cc-4548-856d-4923ddaba0dc","98C44B831735476C882D761E96496EDA-2025-05-15-18-51-56","","586","","images/semantic_sequence/housework_semantic/housework_semantic_7.png","0","",""
"","","","","","image-button-response","103","526463","0.0-14.0-1.0-2.4","98C44B831735476C882D761E96496EDA","98C44B831735476C882D761E96496EDA","c799354f-7a19-436e-9355-f704e9d4e4bc","051c06f1-75cc-4548-856d-4923ddaba0dc","{""num_scrambled_semantic"":""8"",""num_scrambled_causal"":""4"",""num_scrambled_schematic"":""4"",""participantId"":""98C44B831735476C882D761E96496EDA"",""assignmentId"":""c799354f-7a19-436e-9355-f704e9d4e4bc"",""projectId"":""051c06f1-75cc-4548-856d-4923ddaba0dc""}","https://test12345.live/?num_scrambled_semantic=8&num_scrambled_causal=4&num_scrambled_schematic=4&participantId=98C44B831735476C882D761E96496EDA&assignmentId=c799354f-7a19-436e-9355-f704e9d4e4bc&projectId=051c06f1-75cc-4548-856d-4923ddaba0dc","98C44B831735476C882D761E96496EDA-2025-05-15-18-51-56","","null","","[]","null","",""
"","","","","","image-button-response","104","530971","0.0-14.0-1.0-0.5","98C44B831735476C882D761E96496EDA","98C44B831735476C882D761E96496EDA","c799354f-7a19-436e-9355-f704e9d4e4bc","051c06f1-75cc-4548-856d-4923ddaba0dc","{""num_scrambled_semantic"":""8"",""num_scrambled_causal"":""4"",""num_scrambled_schematic"":""4"",""participantId"":""98C44B831735476C882D761E96496EDA"",""assignmentId"":""c799354f-7a19-436e-9355-f704e9d4e4bc"",""projectId"":""051c06f1-75cc-4548-856d-4923ddaba0dc""}","https://test12345.live/?num_scrambled_semantic=8&num_scrambled_causal=4&num_scrambled_schematic=4&participantId=98C44B831735476C882D761E96496EDA&assignmentId=c799354f-7a19-436e-9355-f704e9d4e4bc&projectId=051c06f1-75cc-4548-856d-4923ddaba0dc","98C44B831735476C882D761E96496EDA-2025-05-15-18-51-56","","null","","images/semantic_sequence/housework_semantic/housework_semantic_5.png","null","",""
"","","","","","image-button-response","105","531863","0.0-14.0-1.0-1.5","98C44B831735476C882D761E96496EDA","98C44B831735476C882D761E96496EDA","c799354f-7a19-436e-9355-f704e9d4e4bc","051c06f1-75cc-4548-856d-4923ddaba0dc","{""num_scrambled_semantic"":""8"",""num_scrambled_causal"":""4"",""num_scrambled_schematic"":""4"",""participantId"":""98C44B831735476C882D761E96496EDA"",""assignmentId"":""c799354f-7a19-436e-9355-f704e9d4e4bc"",""projectId"":""051c06f1-75cc-4548-856d-4923ddaba0dc""}","https://test12345.live/?num_scrambled_semantic=8&num_scrambled_causal=4&num_scrambled_schematic=4&participantId=98C44B831735476C882D761E96496EDA&assignmentId=c799354f-7a19-436e-9355-f704e9d4e4bc&projectId=051c06f1-75cc-4548-856d-4923ddaba0dc","98C44B831735476C882D761E96496EDA-2025-05-15-18-51-56","","892","","images/semantic_sequence/housework_semantic/housework_semantic_5.png","0","",""
"","","","","","image-button-response","106","533675","0.0-14.0-1.0-2.5","98C44B831735476C882D761E96496EDA","98C44B831735476C882D761E96496EDA","c799354f-7a19-436e-9355-f704e9d4e4bc","051c06f1-75cc-4548-856d-4923ddaba0dc","{""num_scrambled_semantic"":""8"",""num_scrambled_causal"":""4"",""num_scrambled_schematic"":""4"",""participantId"":""98C44B831735476C882D761E96496EDA"",""assignmentId"":""c799354f-7a19-436e-9355-f704e9d4e4bc"",""projectId"":""051c06f1-75cc-4548-856d-4923ddaba0dc""}","https://test12345.live/?num_scrambled_semantic=8&num_scrambled_causal=4&num_scrambled_schematic=4&participantId=98C44B831735476C882D761E96496EDA&assignmentId=c799354f-7a19-436e-9355-f704e9d4e4bc&projectId=051c06f1-75cc-4548-856d-4923ddaba0dc","98C44B831735476C882D761E96496EDA-2025-05-15-18-51-56","","null","","[]","null","",""
"","","","","","image-button-response","107","538188","0.0-14.0-1.0-0.6","98C44B831735476C882D761E96496EDA","98C44B831735476C882D761E96496EDA","c799354f-7a19-436e-9355-f704e9d4e4bc","051c06f1-75cc-4548-856d-4923ddaba0dc","{""num_scrambled_semantic"":""8"",""num_scrambled_causal"":""4"",""num_scrambled_schematic"":""4"",""participantId"":""98C44B831735476C882D761E96496EDA"",""assignmentId"":""c799354f-7a19-436e-9355-f704e9d4e4bc"",""projectId"":""051c06f1-75cc-4548-856d-4923ddaba0dc""}","https://test12345.live/?num_scrambled_semantic=8&num_scrambled_causal=4&num_scrambled_schematic=4&participantId=98C44B831735476C882D761E96496EDA&assignmentId=c799354f-7a19-436e-9355-f704e9d4e4bc&projectId=051c06f1-75cc-4548-856d-4923ddaba0dc","98C44B831735476C882D761E96496EDA-2025-05-15-18-51-56","","null","","images/semantic_sequence/housework_semantic/housework_semantic_1.png","null","",""
"","","","","","image-button-response","108","539184","0.0-14.0-1.0-1.6","98C44B831735476C882D761E96496EDA","98C44B831735476C882D761E96496EDA","c799354f-7a19-436e-9355-f704e9d4e4bc","051c06f1-75cc-4548-856d-4923ddaba0dc","{""num_scrambled_semantic"":""8"",""num_scrambled_causal"":""4"",""num_scrambled_schematic"":""4"",""participantId"":""98C44B831735476C882D761E96496EDA"",""assignmentId"":""c799354f-7a19-436e-9355-f704e9d4e4bc"",""projectId"":""051c06f1-75cc-4548-856d-4923ddaba0dc""}","https://test12345.live/?num_scrambled_semantic=8&num_scrambled_causal=4&num_scrambled_schematic=4&participantId=98C44B831735476C882D761E96496EDA&assignmentId=c799354f-7a19-436e-9355-f704e9d4e4bc&projectId=051c06f1-75cc-4548-856d-4923ddaba0dc","98C44B831735476C882D761E96496EDA-2025-05-15-18-51-56","","995","","images/semantic_sequence/housework_semantic/housework_semantic_1.png","0","",""
"","","","","","image-button-response","109","540986","0.0-14.0-1.0-2.6","98C44B831735476C882D761E96496EDA","98C44B831735476C882D761E96496EDA","c799354f-7a19-436e-9355-f704e9d4e4bc","051c06f1-75cc-4548-856d-4923ddaba0dc","{""num_scrambled_semantic"":""8"",""num_scrambled_causal"":""4"",""num_scrambled_schematic"":""4"",""participantId"":""98C44B831735476C882D761E96496EDA"",""assignmentId"":""c799354f-7a19-436e-9355-f704e9d4e4bc"",""projectId"":""051c06f1-75cc-4548-856d-4923ddaba0dc""}","https://test12345.live/?num_scrambled_semantic=8&num_scrambled_causal=4&num_scrambled_schematic=4&participantId=98C44B831735476C882D761E96496EDA&assignmentId=c799354f-7a19-436e-9355-f704e9d4e4bc&projectId=051c06f1-75cc-4548-856d-4923ddaba0dc","98C44B831735476C882D761E96496EDA-2025-05-15-18-51-56","","null","","[]","null","",""
"","","","","","image-button-response","110","545498","0.0-14.0-1.0-0.7","98C44B831735476C882D761E96496EDA","98C44B831735476C882D761E96496EDA","c799354f-7a19-436e-9355-f704e9d4e4bc","051c06f1-75cc-4548-856d-4923ddaba0dc","{""num_scrambled_semantic"":""8"",""num_scrambled_causal"":""4"",""num_scrambled_schematic"":""4"",""participantId"":""98C44B831735476C882D761E96496EDA"",""assignmentId"":""c799354f-7a19-436e-9355-f704e9d4e4bc"",""projectId"":""051c06f1-75cc-4548-856d-4923ddaba0dc""}","https://test12345.live/?num_scrambled_semantic=8&num_scrambled_causal=4&num_scrambled_schematic=4&participantId=98C44B831735476C882D761E96496EDA&assignmentId=c799354f-7a19-436e-9355-f704e9d4e4bc&projectId=051c06f1-75cc-4548-856d-4923ddaba0dc","98C44B831735476C882D761E96496EDA-2025-05-15-18-51-56","","null","","images/semantic_sequence/housework_semantic/housework_semantic_9.png","null","",""
"","","","","","image-button-response","111","546165","0.0-14.0-1.0-1.7","98C44B831735476C882D761E96496EDA","98C44B831735476C882D761E96496EDA","c799354f-7a19-436e-9355-f704e9d4e4bc","051c06f1-75cc-4548-856d-4923ddaba0dc","{""num_scrambled_semantic"":""8"",""num_scrambled_causal"":""4"",""num_scrambled_schematic"":""4"",""participantId"":""98C44B831735476C882D761E96496EDA"",""assignmentId"":""c799354f-7a19-436e-9355-f704e9d4e4bc"",""projectId"":""051c06f1-75cc-4548-856d-4923ddaba0dc""}","https://test12345.live/?num_scrambled_semantic=8&num_scrambled_causal=4&num_scrambled_schematic=4&participantId=98C44B831735476C882D761E96496EDA&assignmentId=c799354f-7a19-436e-9355-f704e9d4e4bc&projectId=051c06f1-75cc-4548-856d-4923ddaba0dc","98C44B831735476C882D761E96496EDA-2025-05-15-18-51-56","","666","","images/semantic_sequence/housework_semantic/housework_semantic_9.png","0","",""
"","","","","","image-button-response","112","547976","0.0-14.0-1.0-2.7","98C44B831735476C882D761E96496EDA","98C44B831735476C882D761E96496EDA","c799354f-7a19-436e-9355-f704e9d4e4bc","051c06f1-75cc-4548-856d-4923ddaba0dc","{""num_scrambled_semantic"":""8"",""num_scrambled_causal"":""4"",""num_scrambled_schematic"":""4"",""participantId"":""98C44B831735476C882D761E96496EDA"",""assignmentId"":""c799354f-7a19-436e-9355-f704e9d4e4bc"",""projectId"":""051c06f1-75cc-4548-856d-4923ddaba0dc""}","https://test12345.live/?num_scrambled_semantic=8&num_scrambled_causal=4&num_scrambled_schematic=4&participantId=98C44B831735476C882D761E96496EDA&assignmentId=c799354f-7a19-436e-9355-f704e9d4e4bc&projectId=051c06f1-75cc-4548-856d-4923ddaba0dc","98C44B831735476C882D761E96496EDA-2025-05-15-18-51-56","","null","","[]","null","",""
"","","","","","image-button-response","113","552485","0.0-14.0-1.0-0.8","98C44B831735476C882D761E96496EDA","98C44B831735476C882D761E96496EDA","c799354f-7a19-436e-9355-f704e9d4e4bc","051c06f1-75cc-4548-856d-4923ddaba0dc","{""num_scrambled_semantic"":""8"",""num_scrambled_causal"":""4"",""num_scrambled_schematic"":""4"",""participantId"":""98C44B831735476C882D761E96496EDA"",""assignmentId"":""c799354f-7a19-436e-9355-f704e9d4e4bc"",""projectId"":""051c06f1-75cc-4548-856d-4923ddaba0dc""}","https://test12345.live/?num_scrambled_semantic=8&num_scrambled_causal=4&num_scrambled_schematic=4&participantId=98C44B831735476C882D761E96496EDA&assignmentId=c799354f-7a19-436e-9355-f704e9d4e4bc&projectId=051c06f1-75cc-4548-856d-4923ddaba0dc","98C44B831735476C882D761E96496EDA-2025-05-15-18-51-56","","null","","images/semantic_sequence/housework_semantic/housework_semantic_3.png","null","",""
"","","","","","image-button-response","114","553429","0.0-14.0-1.0-1.8","98C44B831735476C882D761E96496EDA","98C44B831735476C882D761E96496EDA","c799354f-7a19-436e-9355-f704e9d4e4bc","051c06f1-75cc-4548-856d-4923ddaba0dc","{""num_scrambled_semantic"":""8"",""num_scrambled_causal"":""4"",""num_scrambled_schematic"":""4"",""participantId"":""98C44B831735476C882D761E96496EDA"",""assignmentId"":""c799354f-7a19-436e-9355-f704e9d4e4bc"",""projectId"":""051c06f1-75cc-4548-856d-4923ddaba0dc""}","https://test12345.live/?num_scrambled_semantic=8&num_scrambled_causal=4&num_scrambled_schematic=4&participantId=98C44B831735476C882D761E96496EDA&assignmentId=c799354f-7a19-436e-9355-f704e9d4e4bc&projectId=051c06f1-75cc-4548-856d-4923ddaba0dc","98C44B831735476C882D761E96496EDA-2025-05-15-18-51-56","","943","","images/semantic_sequence/housework_semantic/housework_semantic_3.png","0","",""
