"success","timeout","failed_images","failed_audio","failed_video","trial_type","trial_index","time_elapsed","internal_node_id","subject","subject_id","study_id","session_id","urlvar","current_url","audio_id","view_history","rt","device_id","stimulus","response","estimated_stimulus_onset","seq_name"
"true","false","[]","[]","[]","preload","0","6186","0.0-0.0","99C5C62D646A41BDA3AB280D794D9DB0","99C5C62D646A41BDA3AB280D794D9DB0","b013ab9b-d259-47d2-ac6c-d21f3c46a6e0","5e631737-0fa4-44a6-b227-7ba1d7345015","{""num_scrambled_semantic"":""8"",""num_scrambled_causal"":""4"",""num_scrambled_schematic"":""4"",""participantId"":""99C5C62D646A41BDA3AB280D794D9DB0"",""assignmentId"":""b013ab9b-d259-47d2-ac6c-d21f3c46a6e0"",""projectId"":""5e631737-0fa4-44a6-b227-7ba1d7345015""}","https://test12345.live/?num_scrambled_semantic=8&num_scrambled_causal=4&num_scrambled_schematic=4&participantId=99C5C62D646A41BDA3AB280D794D9DB0&assignmentId=b013ab9b-d259-47d2-ac6c-d21f3c46a6e0&projectId=5e631737-0fa4-44a6-b227-7ba1d7345015","99C5C62D646A41BDA3AB280D794D9DB0-2025-05-27-18-40-10","","","","","","",""
"","","","","","instructions","1","249497","0.0-1.0","99C5C62D646A41BDA3AB280D794D9DB0","99C5C62D646A41BDA3AB280D794D9DB0","b013ab9b-d259-47d2-ac6c-d21f3c46a6e0","5e631737-0fa4-44a6-b227-7ba1d7345015","{""num_scrambled_semantic"":""8"",""num_scrambled_causal"":""4"",""num_scrambled_schematic"":""4"",""participantId"":""99C5C62D646A41BDA3AB280D794D9DB0"",""assignmentId"":""b013ab9b-d259-47d2-ac6c-d21f3c46a6e0"",""projectId"":""5e631737-0fa4-44a6-b227-7ba1d7345015""}","https://test12345.live/?num_scrambled_semantic=8&num_scrambled_causal=4&num_scrambled_schematic=4&participantId=99C5C62D646A41BDA3AB280D794D9DB0&assignmentId=b013ab9b-d259-47d2-ac6c-d21f3c46a6e0&projectId=5e631737-0fa4-44a6-b227-7ba1d7345015","99C5C62D646A41BDA3AB280D794D9DB0-2025-05-27-18-40-10","[{""page_index"":0,""viewing_time"":218337}]","218341","","","","",""
"","","","","","instructions","2","256793","0.0-2.0","99C5C62D646A41BDA3AB280D794D9DB0","99C5C62D646A41BDA3AB280D794D9DB0","b013ab9b-d259-47d2-ac6c-d21f3c46a6e0","5e631737-0fa4-44a6-b227-7ba1d7345015","{""num_scrambled_semantic"":""8"",""num_scrambled_causal"":""4"",""num_scrambled_schematic"":""4"",""participantId"":""99C5C62D646A41BDA3AB280D794D9DB0"",""assignmentId"":""b013ab9b-d259-47d2-ac6c-d21f3c46a6e0"",""projectId"":""5e631737-0fa4-44a6-b227-7ba1d7345015""}","https://test12345.live/?num_scrambled_semantic=8&num_scrambled_causal=4&num_scrambled_schematic=4&participantId=99C5C62D646A41BDA3AB280D794D9DB0&assignmentId=b013ab9b-d259-47d2-ac6c-d21f3c46a6e0&projectId=5e631737-0fa4-44a6-b227-7ba1d7345015","99C5C62D646A41BDA3AB280D794D9DB0-2025-05-27-18-40-10","[{""page_index"":0,""viewing_time"":7293}]","7293","","","","",""
"true","","","","","fullscreen","3","261418","0.0-3.0","99C5C62D646A41BDA3AB280D794D9DB0","99C5C62D646A41BDA3AB280D794D9DB0","b013ab9b-d259-47d2-ac6c-d21f3c46a6e0","5e631737-0fa4-44a6-b227-7ba1d7345015","{""num_scrambled_semantic"":""8"",""num_scrambled_causal"":""4"",""num_scrambled_schematic"":""4"",""participantId"":""99C5C62D646A41BDA3AB280D794D9DB0"",""assignmentId"":""b013ab9b-d259-47d2-ac6c-d21f3c46a6e0"",""projectId"":""5e631737-0fa4-44a6-b227-7ba1d7345015""}","https://test12345.live/?num_scrambled_semantic=8&num_scrambled_causal=4&num_scrambled_schematic=4&participantId=99C5C62D646A41BDA3AB280D794D9DB0&assignmentId=b013ab9b-d259-47d2-ac6c-d21f3c46a6e0&projectId=5e631737-0fa4-44a6-b227-7ba1d7345015","99C5C62D646A41BDA3AB280D794D9DB0-2025-05-27-18-40-10","","3614","","","","",""
"","","","","","initialize-microphone","4","273814","0.0-4.0-0.0","99C5C62D646A41BDA3AB280D794D9DB0","99C5C62D646A41BDA3AB280D794D9DB0","b013ab9b-d259-47d2-ac6c-d21f3c46a6e0","5e631737-0fa4-44a6-b227-7ba1d7345015","{""num_scrambled_semantic"":""8"",""num_scrambled_causal"":""4"",""num_scrambled_schematic"":""4"",""participantId"":""99C5C62D646A41BDA3AB280D794D9DB0"",""assignmentId"":""b013ab9b-d259-47d2-ac6c-d21f3c46a6e0"",""projectId"":""5e631737-0fa4-44a6-b227-7ba1d7345015""}","https://test12345.live/?num_scrambled_semantic=8&num_scrambled_causal=4&num_scrambled_schematic=4&participantId=99C5C62D646A41BDA3AB280D794D9DB0&assignmentId=b013ab9b-d259-47d2-ac6c-d21f3c46a6e0&projectId=5e631737-0fa4-44a6-b227-7ba1d7345015","99C5C62D646A41BDA3AB280D794D9DB0-2025-05-27-18-40-10","","","df715ffbcfeafe18c40829864ac27d5d233ae577659d208ce63d31ac58ad9d06","","","",""
"","","","","","html-audio-response","5","297211","0.0-4.0-1.0","99C5C62D646A41BDA3AB280D794D9DB0","99C5C62D646A41BDA3AB280D794D9DB0","b013ab9b-d259-47d2-ac6c-d21f3c46a6e0","5e631737-0fa4-44a6-b227-7ba1d7345015","{""num_scrambled_semantic"":""8"",""num_scrambled_causal"":""4"",""num_scrambled_schematic"":""4"",""participantId"":""99C5C62D646A41BDA3AB280D794D9DB0"",""assignmentId"":""b013ab9b-d259-47d2-ac6c-d21f3c46a6e0"",""projectId"":""5e631737-0fa4-44a6-b227-7ba1d7345015""}","https://test12345.live/?num_scrambled_semantic=8&num_scrambled_causal=4&num_scrambled_schematic=4&participantId=99C5C62D646A41BDA3AB280D794D9DB0&assignmentId=b013ab9b-d259-47d2-ac6c-d21f3c46a6e0&projectId=5e631737-0fa4-44a6-b227-7ba1d7345015","99C5C62D646A41BDA3AB280D794D9DB0-2025-05-27-18-40-10","","14682","","<span style=""color: red; font-size: 24px""> NOW RECORDING</span>
        <p>Please test Microphone</p>","","5",""
"","","","","","html-button-response","6","300225","0.0-4.0-2.0","99C5C62D646A41BDA3AB280D794D9DB0","99C5C62D646A41BDA3AB280D794D9DB0","b013ab9b-d259-47d2-ac6c-d21f3c46a6e0","5e631737-0fa4-44a6-b227-7ba1d7345015","{""num_scrambled_semantic"":""8"",""num_scrambled_causal"":""4"",""num_scrambled_schematic"":""4"",""participantId"":""99C5C62D646A41BDA3AB280D794D9DB0"",""assignmentId"":""b013ab9b-d259-47d2-ac6c-d21f3c46a6e0"",""projectId"":""5e631737-0fa4-44a6-b227-7ba1d7345015""}","https://test12345.live/?num_scrambled_semantic=8&num_scrambled_causal=4&num_scrambled_schematic=4&participantId=99C5C62D646A41BDA3AB280D794D9DB0&assignmentId=b013ab9b-d259-47d2-ac6c-d21f3c46a6e0&projectId=5e631737-0fa4-44a6-b227-7ba1d7345015","99C5C62D646A41BDA3AB280D794D9DB0-2025-05-27-18-40-10","","3011","","<p style=""font-size:48px; color:red;"">Is Microphone OK?</p>","1","",""
"","","","","","instructions","7","319376","0.0-5.0","99C5C62D646A41BDA3AB280D794D9DB0","99C5C62D646A41BDA3AB280D794D9DB0","b013ab9b-d259-47d2-ac6c-d21f3c46a6e0","5e631737-0fa4-44a6-b227-7ba1d7345015","{""num_scrambled_semantic"":""8"",""num_scrambled_causal"":""4"",""num_scrambled_schematic"":""4"",""participantId"":""99C5C62D646A41BDA3AB280D794D9DB0"",""assignmentId"":""b013ab9b-d259-47d2-ac6c-d21f3c46a6e0"",""projectId"":""5e631737-0fa4-44a6-b227-7ba1d7345015""}","https://test12345.live/?num_scrambled_semantic=8&num_scrambled_causal=4&num_scrambled_schematic=4&participantId=99C5C62D646A41BDA3AB280D794D9DB0&assignmentId=b013ab9b-d259-47d2-ac6c-d21f3c46a6e0&projectId=5e631737-0fa4-44a6-b227-7ba1d7345015","99C5C62D646A41BDA3AB280D794D9DB0-2025-05-27-18-40-10","[{""page_index"":0,""viewing_time"":6549},{""page_index"":1,""viewing_time"":12601}]","19150","","","","",""
"","","","","","image-button-response","8","325386","0.0-6.0-0.0","99C5C62D646A41BDA3AB280D794D9DB0","99C5C62D646A41BDA3AB280D794D9DB0","b013ab9b-d259-47d2-ac6c-d21f3c46a6e0","5e631737-0fa4-44a6-b227-7ba1d7345015","{""num_scrambled_semantic"":""8"",""num_scrambled_causal"":""4"",""num_scrambled_schematic"":""4"",""participantId"":""99C5C62D646A41BDA3AB280D794D9DB0"",""assignmentId"":""b013ab9b-d259-47d2-ac6c-d21f3c46a6e0"",""projectId"":""5e631737-0fa4-44a6-b227-7ba1d7345015""}","https://test12345.live/?num_scrambled_semantic=8&num_scrambled_causal=4&num_scrambled_schematic=4&participantId=99C5C62D646A41BDA3AB280D794D9DB0&assignmentId=b013ab9b-d259-47d2-ac6c-d21f3c46a6e0&projectId=5e631737-0fa4-44a6-b227-7ba1d7345015","99C5C62D646A41BDA3AB280D794D9DB0-2025-05-27-18-40-10","","null","","images/instructions/movie_0.png","null","",""
"","","","","","image-button-response","9","329896","0.0-6.0-1.0-0.0","99C5C62D646A41BDA3AB280D794D9DB0","99C5C62D646A41BDA3AB280D794D9DB0","b013ab9b-d259-47d2-ac6c-d21f3c46a6e0","5e631737-0fa4-44a6-b227-7ba1d7345015","{""num_scrambled_semantic"":""8"",""num_scrambled_causal"":""4"",""num_scrambled_schematic"":""4"",""participantId"":""99C5C62D646A41BDA3AB280D794D9DB0"",""assignmentId"":""b013ab9b-d259-47d2-ac6c-d21f3c46a6e0"",""projectId"":""5e631737-0fa4-44a6-b227-7ba1d7345015""}","https://test12345.live/?num_scrambled_semantic=8&num_scrambled_causal=4&num_scrambled_schematic=4&participantId=99C5C62D646A41BDA3AB280D794D9DB0&assignmentId=b013ab9b-d259-47d2-ac6c-d21f3c46a6e0&projectId=5e631737-0fa4-44a6-b227-7ba1d7345015","99C5C62D646A41BDA3AB280D794D9DB0-2025-05-27-18-40-10","","null","","images/instructions/movie_1.png","null","",""
"","","","","","image-button-response","10","333344","0.0-6.0-1.0-1.0","99C5C62D646A41BDA3AB280D794D9DB0","99C5C62D646A41BDA3AB280D794D9DB0","b013ab9b-d259-47d2-ac6c-d21f3c46a6e0","5e631737-0fa4-44a6-b227-7ba1d7345015","{""num_scrambled_semantic"":""8"",""num_scrambled_causal"":""4"",""num_scrambled_schematic"":""4"",""participantId"":""99C5C62D646A41BDA3AB280D794D9DB0"",""assignmentId"":""b013ab9b-d259-47d2-ac6c-d21f3c46a6e0"",""projectId"":""5e631737-0fa4-44a6-b227-7ba1d7345015""}","https://test12345.live/?num_scrambled_semantic=8&num_scrambled_causal=4&num_scrambled_schematic=4&participantId=99C5C62D646A41BDA3AB280D794D9DB0&assignmentId=b013ab9b-d259-47d2-ac6c-d21f3c46a6e0&projectId=5e631737-0fa4-44a6-b227-7ba1d7345015","99C5C62D646A41BDA3AB280D794D9DB0-2025-05-27-18-40-10","","3445","","images/instructions/movie_1.png","0","",""
"","","","","","image-button-response","11","335152","0.0-6.0-1.0-2.0","99C5C62D646A41BDA3AB280D794D9DB0","99C5C62D646A41BDA3AB280D794D9DB0","b013ab9b-d259-47d2-ac6c-d21f3c46a6e0","5e631737-0fa4-44a6-b227-7ba1d7345015","{""num_scrambled_semantic"":""8"",""num_scrambled_causal"":""4"",""num_scrambled_schematic"":""4"",""participantId"":""99C5C62D646A41BDA3AB280D794D9DB0"",""assignmentId"":""b013ab9b-d259-47d2-ac6c-d21f3c46a6e0"",""projectId"":""5e631737-0fa4-44a6-b227-7ba1d7345015""}","https://test12345.live/?num_scrambled_semantic=8&num_scrambled_causal=4&num_scrambled_schematic=4&participantId=99C5C62D646A41BDA3AB280D794D9DB0&assignmentId=b013ab9b-d259-47d2-ac6c-d21f3c46a6e0&projectId=5e631737-0fa4-44a6-b227-7ba1d7345015","99C5C62D646A41BDA3AB280D794D9DB0-2025-05-27-18-40-10","","null","","[]","null","",""
"","","","","","image-button-response","12","339659","0.0-6.0-1.0-0.1","99C5C62D646A41BDA3AB280D794D9DB0","99C5C62D646A41BDA3AB280D794D9DB0","b013ab9b-d259-47d2-ac6c-d21f3c46a6e0","5e631737-0fa4-44a6-b227-7ba1d7345015","{""num_scrambled_semantic"":""8"",""num_scrambled_causal"":""4"",""num_scrambled_schematic"":""4"",""participantId"":""99C5C62D646A41BDA3AB280D794D9DB0"",""assignmentId"":""b013ab9b-d259-47d2-ac6c-d21f3c46a6e0"",""projectId"":""5e631737-0fa4-44a6-b227-7ba1d7345015""}","https://test12345.live/?num_scrambled_semantic=8&num_scrambled_causal=4&num_scrambled_schematic=4&participantId=99C5C62D646A41BDA3AB280D794D9DB0&assignmentId=b013ab9b-d259-47d2-ac6c-d21f3c46a6e0&projectId=5e631737-0fa4-44a6-b227-7ba1d7345015","99C5C62D646A41BDA3AB280D794D9DB0-2025-05-27-18-40-10","","null","","images/instructions/movie_2.png","null","",""
"","","","","","image-button-response","13","341626","0.0-6.0-1.0-1.1","99C5C62D646A41BDA3AB280D794D9DB0","99C5C62D646A41BDA3AB280D794D9DB0","b013ab9b-d259-47d2-ac6c-d21f3c46a6e0","5e631737-0fa4-44a6-b227-7ba1d7345015","{""num_scrambled_semantic"":""8"",""num_scrambled_causal"":""4"",""num_scrambled_schematic"":""4"",""participantId"":""99C5C62D646A41BDA3AB280D794D9DB0"",""assignmentId"":""b013ab9b-d259-47d2-ac6c-d21f3c46a6e0"",""projectId"":""5e631737-0fa4-44a6-b227-7ba1d7345015""}","https://test12345.live/?num_scrambled_semantic=8&num_scrambled_causal=4&num_scrambled_schematic=4&participantId=99C5C62D646A41BDA3AB280D794D9DB0&assignmentId=b013ab9b-d259-47d2-ac6c-d21f3c46a6e0&projectId=5e631737-0fa4-44a6-b227-7ba1d7345015","99C5C62D646A41BDA3AB280D794D9DB0-2025-05-27-18-40-10","","1963","","images/instructions/movie_2.png","0","",""
"","","","","","image-button-response","14","343433","0.0-6.0-1.0-2.1","99C5C62D646A41BDA3AB280D794D9DB0","99C5C62D646A41BDA3AB280D794D9DB0","b013ab9b-d259-47d2-ac6c-d21f3c46a6e0","5e631737-0fa4-44a6-b227-7ba1d7345015","{""num_scrambled_semantic"":""8"",""num_scrambled_causal"":""4"",""num_scrambled_schematic"":""4"",""participantId"":""99C5C62D646A41BDA3AB280D794D9DB0"",""assignmentId"":""b013ab9b-d259-47d2-ac6c-d21f3c46a6e0"",""projectId"":""5e631737-0fa4-44a6-b227-7ba1d7345015""}","https://test12345.live/?num_scrambled_semantic=8&num_scrambled_causal=4&num_scrambled_schematic=4&participantId=99C5C62D646A41BDA3AB280D794D9DB0&assignmentId=b013ab9b-d259-47d2-ac6c-d21f3c46a6e0&projectId=5e631737-0fa4-44a6-b227-7ba1d7345015","99C5C62D646A41BDA3AB280D794D9DB0-2025-05-27-18-40-10","","null","","[]","null","",""
"","","","","","image-button-response","15","347940","0.0-6.0-1.0-0.2","99C5C62D646A41BDA3AB280D794D9DB0","99C5C62D646A41BDA3AB280D794D9DB0","b013ab9b-d259-47d2-ac6c-d21f3c46a6e0","5e631737-0fa4-44a6-b227-7ba1d7345015","{""num_scrambled_semantic"":""8"",""num_scrambled_causal"":""4"",""num_scrambled_schematic"":""4"",""participantId"":""99C5C62D646A41BDA3AB280D794D9DB0"",""assignmentId"":""b013ab9b-d259-47d2-ac6c-d21f3c46a6e0"",""projectId"":""5e631737-0fa4-44a6-b227-7ba1d7345015""}","https://test12345.live/?num_scrambled_semantic=8&num_scrambled_causal=4&num_scrambled_schematic=4&participantId=99C5C62D646A41BDA3AB280D794D9DB0&assignmentId=b013ab9b-d259-47d2-ac6c-d21f3c46a6e0&projectId=5e631737-0fa4-44a6-b227-7ba1d7345015","99C5C62D646A41BDA3AB280D794D9DB0-2025-05-27-18-40-10","","null","","images/instructions/movie_3.png","null","",""
"","","","","","image-button-response","16","349676","0.0-6.0-1.0-1.2","99C5C62D646A41BDA3AB280D794D9DB0","99C5C62D646A41BDA3AB280D794D9DB0","b013ab9b-d259-47d2-ac6c-d21f3c46a6e0","5e631737-0fa4-44a6-b227-7ba1d7345015","{""num_scrambled_semantic"":""8"",""num_scrambled_causal"":""4"",""num_scrambled_schematic"":""4"",""participantId"":""99C5C62D646A41BDA3AB280D794D9DB0"",""assignmentId"":""b013ab9b-d259-47d2-ac6c-d21f3c46a6e0"",""projectId"":""5e631737-0fa4-44a6-b227-7ba1d7345015""}","https://test12345.live/?num_scrambled_semantic=8&num_scrambled_causal=4&num_scrambled_schematic=4&participantId=99C5C62D646A41BDA3AB280D794D9DB0&assignmentId=b013ab9b-d259-47d2-ac6c-d21f3c46a6e0&projectId=5e631737-0fa4-44a6-b227-7ba1d7345015","99C5C62D646A41BDA3AB280D794D9DB0-2025-05-27-18-40-10","","1733","","images/instructions/movie_3.png","0","",""
"","","","","","image-button-response","17","351483","0.0-6.0-1.0-2.2","99C5C62D646A41BDA3AB280D794D9DB0","99C5C62D646A41BDA3AB280D794D9DB0","b013ab9b-d259-47d2-ac6c-d21f3c46a6e0","5e631737-0fa4-44a6-b227-7ba1d7345015","{""num_scrambled_semantic"":""8"",""num_scrambled_causal"":""4"",""num_scrambled_schematic"":""4"",""participantId"":""99C5C62D646A41BDA3AB280D794D9DB0"",""assignmentId"":""b013ab9b-d259-47d2-ac6c-d21f3c46a6e0"",""projectId"":""5e631737-0fa4-44a6-b227-7ba1d7345015""}","https://test12345.live/?num_scrambled_semantic=8&num_scrambled_causal=4&num_scrambled_schematic=4&participantId=99C5C62D646A41BDA3AB280D794D9DB0&assignmentId=b013ab9b-d259-47d2-ac6c-d21f3c46a6e0&projectId=5e631737-0fa4-44a6-b227-7ba1d7345015","99C5C62D646A41BDA3AB280D794D9DB0-2025-05-27-18-40-10","","null","","[]","null","",""
"","","","","","image-button-response","18","355988","0.0-6.0-1.0-0.3","99C5C62D646A41BDA3AB280D794D9DB0","99C5C62D646A41BDA3AB280D794D9DB0","b013ab9b-d259-47d2-ac6c-d21f3c46a6e0","5e631737-0fa4-44a6-b227-7ba1d7345015","{""num_scrambled_semantic"":""8"",""num_scrambled_causal"":""4"",""num_scrambled_schematic"":""4"",""participantId"":""99C5C62D646A41BDA3AB280D794D9DB0"",""assignmentId"":""b013ab9b-d259-47d2-ac6c-d21f3c46a6e0"",""projectId"":""5e631737-0fa4-44a6-b227-7ba1d7345015""}","https://test12345.live/?num_scrambled_semantic=8&num_scrambled_causal=4&num_scrambled_schematic=4&participantId=99C5C62D646A41BDA3AB280D794D9DB0&assignmentId=b013ab9b-d259-47d2-ac6c-d21f3c46a6e0&projectId=5e631737-0fa4-44a6-b227-7ba1d7345015","99C5C62D646A41BDA3AB280D794D9DB0-2025-05-27-18-40-10","","null","","images/instructions/movie_4.png","null","",""
"","","","","","image-button-response","19","358276","0.0-6.0-1.0-1.3","99C5C62D646A41BDA3AB280D794D9DB0","99C5C62D646A41BDA3AB280D794D9DB0","b013ab9b-d259-47d2-ac6c-d21f3c46a6e0","5e631737-0fa4-44a6-b227-7ba1d7345015","{""num_scrambled_semantic"":""8"",""num_scrambled_causal"":""4"",""num_scrambled_schematic"":""4"",""participantId"":""99C5C62D646A41BDA3AB280D794D9DB0"",""assignmentId"":""b013ab9b-d259-47d2-ac6c-d21f3c46a6e0"",""projectId"":""5e631737-0fa4-44a6-b227-7ba1d7345015""}","https://test12345.live/?num_scrambled_semantic=8&num_scrambled_causal=4&num_scrambled_schematic=4&participantId=99C5C62D646A41BDA3AB280D794D9DB0&assignmentId=b013ab9b-d259-47d2-ac6c-d21f3c46a6e0&projectId=5e631737-0fa4-44a6-b227-7ba1d7345015","99C5C62D646A41BDA3AB280D794D9DB0-2025-05-27-18-40-10","","2285","","images/instructions/movie_4.png","0","",""
"","","","","","image-button-response","20","360083","0.0-6.0-1.0-2.3","99C5C62D646A41BDA3AB280D794D9DB0","99C5C62D646A41BDA3AB280D794D9DB0","b013ab9b-d259-47d2-ac6c-d21f3c46a6e0","5e631737-0fa4-44a6-b227-7ba1d7345015","{""num_scrambled_semantic"":""8"",""num_scrambled_causal"":""4"",""num_scrambled_schematic"":""4"",""participantId"":""99C5C62D646A41BDA3AB280D794D9DB0"",""assignmentId"":""b013ab9b-d259-47d2-ac6c-d21f3c46a6e0"",""projectId"":""5e631737-0fa4-44a6-b227-7ba1d7345015""}","https://test12345.live/?num_scrambled_semantic=8&num_scrambled_causal=4&num_scrambled_schematic=4&participantId=99C5C62D646A41BDA3AB280D794D9DB0&assignmentId=b013ab9b-d259-47d2-ac6c-d21f3c46a6e0&projectId=5e631737-0fa4-44a6-b227-7ba1d7345015","99C5C62D646A41BDA3AB280D794D9DB0-2025-05-27-18-40-10","","null","","[]","null","",""
"","","","","","instructions","21","374991","0.0-7.0","99C5C62D646A41BDA3AB280D794D9DB0","99C5C62D646A41BDA3AB280D794D9DB0","b013ab9b-d259-47d2-ac6c-d21f3c46a6e0","5e631737-0fa4-44a6-b227-7ba1d7345015","{""num_scrambled_semantic"":""8"",""num_scrambled_causal"":""4"",""num_scrambled_schematic"":""4"",""participantId"":""99C5C62D646A41BDA3AB280D794D9DB0"",""assignmentId"":""b013ab9b-d259-47d2-ac6c-d21f3c46a6e0"",""projectId"":""5e631737-0fa4-44a6-b227-7ba1d7345015""}","https://test12345.live/?num_scrambled_semantic=8&num_scrambled_causal=4&num_scrambled_schematic=4&participantId=99C5C62D646A41BDA3AB280D794D9DB0&assignmentId=b013ab9b-d259-47d2-ac6c-d21f3c46a6e0&projectId=5e631737-0fa4-44a6-b227-7ba1d7345015","99C5C62D646A41BDA3AB280D794D9DB0-2025-05-27-18-40-10","[{""page_index"":0,""viewing_time"":13628},{""page_index"":1,""viewing_time"":1280}]","14908","","","","",""
"","","","","","html-audio-response","22","451742","0.0-8.0","99C5C62D646A41BDA3AB280D794D9DB0","99C5C62D646A41BDA3AB280D794D9DB0","b013ab9b-d259-47d2-ac6c-d21f3c46a6e0","5e631737-0fa4-44a6-b227-7ba1d7345015","{""num_scrambled_semantic"":""8"",""num_scrambled_causal"":""4"",""num_scrambled_schematic"":""4"",""participantId"":""99C5C62D646A41BDA3AB280D794D9DB0"",""assignmentId"":""b013ab9b-d259-47d2-ac6c-d21f3c46a6e0"",""projectId"":""5e631737-0fa4-44a6-b227-7ba1d7345015""}","https://test12345.live/?num_scrambled_semantic=8&num_scrambled_causal=4&num_scrambled_schematic=4&participantId=99C5C62D646A41BDA3AB280D794D9DB0&assignmentId=b013ab9b-d259-47d2-ac6c-d21f3c46a6e0&projectId=5e631737-0fa4-44a6-b227-7ba1d7345015","99C5C62D646A41BDA3AB280D794D9DB0-2025-05-27-18-40-10","","35416","","[""<span style=\""color: red; font-size: 24px\""> NOW RECORDING</span><p>Please say out loud all the images you saw in the exact order you saw them. Try to recall as many images as you can, but remember: getting the order right is more important than the number of images you recall.</p>""]","","7",""
"","","","","","instructions","23","453543","0.0-9.0","99C5C62D646A41BDA3AB280D794D9DB0","99C5C62D646A41BDA3AB280D794D9DB0","b013ab9b-d259-47d2-ac6c-d21f3c46a6e0","5e631737-0fa4-44a6-b227-7ba1d7345015","{""num_scrambled_semantic"":""8"",""num_scrambled_causal"":""4"",""num_scrambled_schematic"":""4"",""participantId"":""99C5C62D646A41BDA3AB280D794D9DB0"",""assignmentId"":""b013ab9b-d259-47d2-ac6c-d21f3c46a6e0"",""projectId"":""5e631737-0fa4-44a6-b227-7ba1d7345015""}","https://test12345.live/?num_scrambled_semantic=8&num_scrambled_causal=4&num_scrambled_schematic=4&participantId=99C5C62D646A41BDA3AB280D794D9DB0&assignmentId=b013ab9b-d259-47d2-ac6c-d21f3c46a6e0&projectId=5e631737-0fa4-44a6-b227-7ba1d7345015","99C5C62D646A41BDA3AB280D794D9DB0-2025-05-27-18-40-10","[{""page_index"":0,""viewing_time"":1791}]","1791","","","","",""
"","","","","","image-button-response","24","459555","0.0-10.0-0.0","99C5C62D646A41BDA3AB280D794D9DB0","99C5C62D646A41BDA3AB280D794D9DB0","b013ab9b-d259-47d2-ac6c-d21f3c46a6e0","5e631737-0fa4-44a6-b227-7ba1d7345015","{""num_scrambled_semantic"":""8"",""num_scrambled_causal"":""4"",""num_scrambled_schematic"":""4"",""participantId"":""99C5C62D646A41BDA3AB280D794D9DB0"",""assignmentId"":""b013ab9b-d259-47d2-ac6c-d21f3c46a6e0"",""projectId"":""5e631737-0fa4-44a6-b227-7ba1d7345015""}","https://test12345.live/?num_scrambled_semantic=8&num_scrambled_causal=4&num_scrambled_schematic=4&participantId=99C5C62D646A41BDA3AB280D794D9DB0&assignmentId=b013ab9b-d259-47d2-ac6c-d21f3c46a6e0&projectId=5e631737-0fa4-44a6-b227-7ba1d7345015","99C5C62D646A41BDA3AB280D794D9DB0-2025-05-27-18-40-10","","null","","images/semantic_sequence/market_semantic/market_semantic_0.png","null","",""
"","","","","","image-button-response","25","464063","0.0-10.0-1.0-0.0","99C5C62D646A41BDA3AB280D794D9DB0","99C5C62D646A41BDA3AB280D794D9DB0","b013ab9b-d259-47d2-ac6c-d21f3c46a6e0","5e631737-0fa4-44a6-b227-7ba1d7345015","{""num_scrambled_semantic"":""8"",""num_scrambled_causal"":""4"",""num_scrambled_schematic"":""4"",""participantId"":""99C5C62D646A41BDA3AB280D794D9DB0"",""assignmentId"":""b013ab9b-d259-47d2-ac6c-d21f3c46a6e0"",""projectId"":""5e631737-0fa4-44a6-b227-7ba1d7345015""}","https://test12345.live/?num_scrambled_semantic=8&num_scrambled_causal=4&num_scrambled_schematic=4&participantId=99C5C62D646A41BDA3AB280D794D9DB0&assignmentId=b013ab9b-d259-47d2-ac6c-d21f3c46a6e0&projectId=5e631737-0fa4-44a6-b227-7ba1d7345015","99C5C62D646A41BDA3AB280D794D9DB0-2025-05-27-18-40-10","","null","","images/semantic_sequence/market_semantic/market_semantic_5.png","null","",""
"","","","","","image-button-response","26","468072","0.0-10.0-1.0-1.0","99C5C62D646A41BDA3AB280D794D9DB0","99C5C62D646A41BDA3AB280D794D9DB0","b013ab9b-d259-47d2-ac6c-d21f3c46a6e0","5e631737-0fa4-44a6-b227-7ba1d7345015","{""num_scrambled_semantic"":""8"",""num_scrambled_causal"":""4"",""num_scrambled_schematic"":""4"",""participantId"":""99C5C62D646A41BDA3AB280D794D9DB0"",""assignmentId"":""b013ab9b-d259-47d2-ac6c-d21f3c46a6e0"",""projectId"":""5e631737-0fa4-44a6-b227-7ba1d7345015""}","https://test12345.live/?num_scrambled_semantic=8&num_scrambled_causal=4&num_scrambled_schematic=4&participantId=99C5C62D646A41BDA3AB280D794D9DB0&assignmentId=b013ab9b-d259-47d2-ac6c-d21f3c46a6e0&projectId=5e631737-0fa4-44a6-b227-7ba1d7345015","99C5C62D646A41BDA3AB280D794D9DB0-2025-05-27-18-40-10","","null","","images/semantic_sequence/market_semantic/market_semantic_5.png","null","",""
"","","","","","image-button-response","27","469879","0.0-10.0-1.0-2.0","99C5C62D646A41BDA3AB280D794D9DB0","99C5C62D646A41BDA3AB280D794D9DB0","b013ab9b-d259-47d2-ac6c-d21f3c46a6e0","5e631737-0fa4-44a6-b227-7ba1d7345015","{""num_scrambled_semantic"":""8"",""num_scrambled_causal"":""4"",""num_scrambled_schematic"":""4"",""participantId"":""99C5C62D646A41BDA3AB280D794D9DB0"",""assignmentId"":""b013ab9b-d259-47d2-ac6c-d21f3c46a6e0"",""projectId"":""5e631737-0fa4-44a6-b227-7ba1d7345015""}","https://test12345.live/?num_scrambled_semantic=8&num_scrambled_causal=4&num_scrambled_schematic=4&participantId=99C5C62D646A41BDA3AB280D794D9DB0&assignmentId=b013ab9b-d259-47d2-ac6c-d21f3c46a6e0&projectId=5e631737-0fa4-44a6-b227-7ba1d7345015","99C5C62D646A41BDA3AB280D794D9DB0-2025-05-27-18-40-10","","null","","[]","null","",""
"","","","","","image-button-response","28","474386","0.0-10.0-1.0-0.1","99C5C62D646A41BDA3AB280D794D9DB0","99C5C62D646A41BDA3AB280D794D9DB0","b013ab9b-d259-47d2-ac6c-d21f3c46a6e0","5e631737-0fa4-44a6-b227-7ba1d7345015","{""num_scrambled_semantic"":""8"",""num_scrambled_causal"":""4"",""num_scrambled_schematic"":""4"",""participantId"":""99C5C62D646A41BDA3AB280D794D9DB0"",""assignmentId"":""b013ab9b-d259-47d2-ac6c-d21f3c46a6e0"",""projectId"":""5e631737-0fa4-44a6-b227-7ba1d7345015""}","https://test12345.live/?num_scrambled_semantic=8&num_scrambled_causal=4&num_scrambled_schematic=4&participantId=99C5C62D646A41BDA3AB280D794D9DB0&assignmentId=b013ab9b-d259-47d2-ac6c-d21f3c46a6e0&projectId=5e631737-0fa4-44a6-b227-7ba1d7345015","99C5C62D646A41BDA3AB280D794D9DB0-2025-05-27-18-40-10","","null","","images/semantic_sequence/market_semantic/market_semantic_3.png","null","",""
"","","","","","image-button-response","29","476642","0.0-10.0-1.0-1.1","99C5C62D646A41BDA3AB280D794D9DB0","99C5C62D646A41BDA3AB280D794D9DB0","b013ab9b-d259-47d2-ac6c-d21f3c46a6e0","5e631737-0fa4-44a6-b227-7ba1d7345015","{""num_scrambled_semantic"":""8"",""num_scrambled_causal"":""4"",""num_scrambled_schematic"":""4"",""participantId"":""99C5C62D646A41BDA3AB280D794D9DB0"",""assignmentId"":""b013ab9b-d259-47d2-ac6c-d21f3c46a6e0"",""projectId"":""5e631737-0fa4-44a6-b227-7ba1d7345015""}","https://test12345.live/?num_scrambled_semantic=8&num_scrambled_causal=4&num_scrambled_schematic=4&participantId=99C5C62D646A41BDA3AB280D794D9DB0&assignmentId=b013ab9b-d259-47d2-ac6c-d21f3c46a6e0&projectId=5e631737-0fa4-44a6-b227-7ba1d7345015","99C5C62D646A41BDA3AB280D794D9DB0-2025-05-27-18-40-10","","2254","","images/semantic_sequence/market_semantic/market_semantic_3.png","1","",""
"","","","","","image-button-response","30","478448","0.0-10.0-1.0-2.1","99C5C62D646A41BDA3AB280D794D9DB0","99C5C62D646A41BDA3AB280D794D9DB0","b013ab9b-d259-47d2-ac6c-d21f3c46a6e0","5e631737-0fa4-44a6-b227-7ba1d7345015","{""num_scrambled_semantic"":""8"",""num_scrambled_causal"":""4"",""num_scrambled_schematic"":""4"",""participantId"":""99C5C62D646A41BDA3AB280D794D9DB0"",""assignmentId"":""b013ab9b-d259-47d2-ac6c-d21f3c46a6e0"",""projectId"":""5e631737-0fa4-44a6-b227-7ba1d7345015""}","https://test12345.live/?num_scrambled_semantic=8&num_scrambled_causal=4&num_scrambled_schematic=4&participantId=99C5C62D646A41BDA3AB280D794D9DB0&assignmentId=b013ab9b-d259-47d2-ac6c-d21f3c46a6e0&projectId=5e631737-0fa4-44a6-b227-7ba1d7345015","99C5C62D646A41BDA3AB280D794D9DB0-2025-05-27-18-40-10","","null","","[]","null","",""
"","","","","","image-button-response","31","482951","0.0-10.0-1.0-0.2","99C5C62D646A41BDA3AB280D794D9DB0","99C5C62D646A41BDA3AB280D794D9DB0","b013ab9b-d259-47d2-ac6c-d21f3c46a6e0","5e631737-0fa4-44a6-b227-7ba1d7345015","{""num_scrambled_semantic"":""8"",""num_scrambled_causal"":""4"",""num_scrambled_schematic"":""4"",""participantId"":""99C5C62D646A41BDA3AB280D794D9DB0"",""assignmentId"":""b013ab9b-d259-47d2-ac6c-d21f3c46a6e0"",""projectId"":""5e631737-0fa4-44a6-b227-7ba1d7345015""}","https://test12345.live/?num_scrambled_semantic=8&num_scrambled_causal=4&num_scrambled_schematic=4&participantId=99C5C62D646A41BDA3AB280D794D9DB0&assignmentId=b013ab9b-d259-47d2-ac6c-d21f3c46a6e0&projectId=5e631737-0fa4-44a6-b227-7ba1d7345015","99C5C62D646A41BDA3AB280D794D9DB0-2025-05-27-18-40-10","","null","","images/semantic_sequence/market_semantic/market_semantic_ten.png","null","",""
"","","","","","image-button-response","32","486559","0.0-10.0-1.0-1.2","99C5C62D646A41BDA3AB280D794D9DB0","99C5C62D646A41BDA3AB280D794D9DB0","b013ab9b-d259-47d2-ac6c-d21f3c46a6e0","5e631737-0fa4-44a6-b227-7ba1d7345015","{""num_scrambled_semantic"":""8"",""num_scrambled_causal"":""4"",""num_scrambled_schematic"":""4"",""participantId"":""99C5C62D646A41BDA3AB280D794D9DB0"",""assignmentId"":""b013ab9b-d259-47d2-ac6c-d21f3c46a6e0"",""projectId"":""5e631737-0fa4-44a6-b227-7ba1d7345015""}","https://test12345.live/?num_scrambled_semantic=8&num_scrambled_causal=4&num_scrambled_schematic=4&participantId=99C5C62D646A41BDA3AB280D794D9DB0&assignmentId=b013ab9b-d259-47d2-ac6c-d21f3c46a6e0&projectId=5e631737-0fa4-44a6-b227-7ba1d7345015","99C5C62D646A41BDA3AB280D794D9DB0-2025-05-27-18-40-10","","3606","","images/semantic_sequence/market_semantic/market_semantic_ten.png","1","",""
"","","","","","image-button-response","33","488366","0.0-10.0-1.0-2.2","99C5C62D646A41BDA3AB280D794D9DB0","99C5C62D646A41BDA3AB280D794D9DB0","b013ab9b-d259-47d2-ac6c-d21f3c46a6e0","5e631737-0fa4-44a6-b227-7ba1d7345015","{""num_scrambled_semantic"":""8"",""num_scrambled_causal"":""4"",""num_scrambled_schematic"":""4"",""participantId"":""99C5C62D646A41BDA3AB280D794D9DB0"",""assignmentId"":""b013ab9b-d259-47d2-ac6c-d21f3c46a6e0"",""projectId"":""5e631737-0fa4-44a6-b227-7ba1d7345015""}","https://test12345.live/?num_scrambled_semantic=8&num_scrambled_causal=4&num_scrambled_schematic=4&participantId=99C5C62D646A41BDA3AB280D794D9DB0&assignmentId=b013ab9b-d259-47d2-ac6c-d21f3c46a6e0&projectId=5e631737-0fa4-44a6-b227-7ba1d7345015","99C5C62D646A41BDA3AB280D794D9DB0-2025-05-27-18-40-10","","null","","[]","null","",""
"","","","","","image-button-response","34","492868","0.0-10.0-1.0-0.3","99C5C62D646A41BDA3AB280D794D9DB0","99C5C62D646A41BDA3AB280D794D9DB0","b013ab9b-d259-47d2-ac6c-d21f3c46a6e0","5e631737-0fa4-44a6-b227-7ba1d7345015","{""num_scrambled_semantic"":""8"",""num_scrambled_causal"":""4"",""num_scrambled_schematic"":""4"",""participantId"":""99C5C62D646A41BDA3AB280D794D9DB0"",""assignmentId"":""b013ab9b-d259-47d2-ac6c-d21f3c46a6e0"",""projectId"":""5e631737-0fa4-44a6-b227-7ba1d7345015""}","https://test12345.live/?num_scrambled_semantic=8&num_scrambled_causal=4&num_scrambled_schematic=4&participantId=99C5C62D646A41BDA3AB280D794D9DB0&assignmentId=b013ab9b-d259-47d2-ac6c-d21f3c46a6e0&projectId=5e631737-0fa4-44a6-b227-7ba1d7345015","99C5C62D646A41BDA3AB280D794D9DB0-2025-05-27-18-40-10","","null","","images/semantic_sequence/market_semantic/market_semantic_1.png","null","",""
"","","","","","image-button-response","35","495457","0.0-10.0-1.0-1.3","99C5C62D646A41BDA3AB280D794D9DB0","99C5C62D646A41BDA3AB280D794D9DB0","b013ab9b-d259-47d2-ac6c-d21f3c46a6e0","5e631737-0fa4-44a6-b227-7ba1d7345015","{""num_scrambled_semantic"":""8"",""num_scrambled_causal"":""4"",""num_scrambled_schematic"":""4"",""participantId"":""99C5C62D646A41BDA3AB280D794D9DB0"",""assignmentId"":""b013ab9b-d259-47d2-ac6c-d21f3c46a6e0"",""projectId"":""5e631737-0fa4-44a6-b227-7ba1d7345015""}","https://test12345.live/?num_scrambled_semantic=8&num_scrambled_causal=4&num_scrambled_schematic=4&participantId=99C5C62D646A41BDA3AB280D794D9DB0&assignmentId=b013ab9b-d259-47d2-ac6c-d21f3c46a6e0&projectId=5e631737-0fa4-44a6-b227-7ba1d7345015","99C5C62D646A41BDA3AB280D794D9DB0-2025-05-27-18-40-10","","2587","","images/semantic_sequence/market_semantic/market_semantic_1.png","1","",""
"","","","","","image-button-response","36","497262","0.0-10.0-1.0-2.3","99C5C62D646A41BDA3AB280D794D9DB0","99C5C62D646A41BDA3AB280D794D9DB0","b013ab9b-d259-47d2-ac6c-d21f3c46a6e0","5e631737-0fa4-44a6-b227-7ba1d7345015","{""num_scrambled_semantic"":""8"",""num_scrambled_causal"":""4"",""num_scrambled_schematic"":""4"",""participantId"":""99C5C62D646A41BDA3AB280D794D9DB0"",""assignmentId"":""b013ab9b-d259-47d2-ac6c-d21f3c46a6e0"",""projectId"":""5e631737-0fa4-44a6-b227-7ba1d7345015""}","https://test12345.live/?num_scrambled_semantic=8&num_scrambled_causal=4&num_scrambled_schematic=4&participantId=99C5C62D646A41BDA3AB280D794D9DB0&assignmentId=b013ab9b-d259-47d2-ac6c-d21f3c46a6e0&projectId=5e631737-0fa4-44a6-b227-7ba1d7345015","99C5C62D646A41BDA3AB280D794D9DB0-2025-05-27-18-40-10","","null","","[]","null","",""
"","","","","","image-button-response","37","501764","0.0-10.0-1.0-0.4","99C5C62D646A41BDA3AB280D794D9DB0","99C5C62D646A41BDA3AB280D794D9DB0","b013ab9b-d259-47d2-ac6c-d21f3c46a6e0","5e631737-0fa4-44a6-b227-7ba1d7345015","{""num_scrambled_semantic"":""8"",""num_scrambled_causal"":""4"",""num_scrambled_schematic"":""4"",""participantId"":""99C5C62D646A41BDA3AB280D794D9DB0"",""assignmentId"":""b013ab9b-d259-47d2-ac6c-d21f3c46a6e0"",""projectId"":""5e631737-0fa4-44a6-b227-7ba1d7345015""}","https://test12345.live/?num_scrambled_semantic=8&num_scrambled_causal=4&num_scrambled_schematic=4&participantId=99C5C62D646A41BDA3AB280D794D9DB0&assignmentId=b013ab9b-d259-47d2-ac6c-d21f3c46a6e0&projectId=5e631737-0fa4-44a6-b227-7ba1d7345015","99C5C62D646A41BDA3AB280D794D9DB0-2025-05-27-18-40-10","","null","","images/semantic_sequence/market_semantic/market_semantic_4.png","null","",""
"","","","","","image-button-response","38","503091","0.0-10.0-1.0-1.4","99C5C62D646A41BDA3AB280D794D9DB0","99C5C62D646A41BDA3AB280D794D9DB0","b013ab9b-d259-47d2-ac6c-d21f3c46a6e0","5e631737-0fa4-44a6-b227-7ba1d7345015","{""num_scrambled_semantic"":""8"",""num_scrambled_causal"":""4"",""num_scrambled_schematic"":""4"",""participantId"":""99C5C62D646A41BDA3AB280D794D9DB0"",""assignmentId"":""b013ab9b-d259-47d2-ac6c-d21f3c46a6e0"",""projectId"":""5e631737-0fa4-44a6-b227-7ba1d7345015""}","https://test12345.live/?num_scrambled_semantic=8&num_scrambled_causal=4&num_scrambled_schematic=4&participantId=99C5C62D646A41BDA3AB280D794D9DB0&assignmentId=b013ab9b-d259-47d2-ac6c-d21f3c46a6e0&projectId=5e631737-0fa4-44a6-b227-7ba1d7345015","99C5C62D646A41BDA3AB280D794D9DB0-2025-05-27-18-40-10","","1325","","images/semantic_sequence/market_semantic/market_semantic_4.png","0","",""
"","","","","","image-button-response","39","504898","0.0-10.0-1.0-2.4","99C5C62D646A41BDA3AB280D794D9DB0","99C5C62D646A41BDA3AB280D794D9DB0","b013ab9b-d259-47d2-ac6c-d21f3c46a6e0","5e631737-0fa4-44a6-b227-7ba1d7345015","{""num_scrambled_semantic"":""8"",""num_scrambled_causal"":""4"",""num_scrambled_schematic"":""4"",""participantId"":""99C5C62D646A41BDA3AB280D794D9DB0"",""assignmentId"":""b013ab9b-d259-47d2-ac6c-d21f3c46a6e0"",""projectId"":""5e631737-0fa4-44a6-b227-7ba1d7345015""}","https://test12345.live/?num_scrambled_semantic=8&num_scrambled_causal=4&num_scrambled_schematic=4&participantId=99C5C62D646A41BDA3AB280D794D9DB0&assignmentId=b013ab9b-d259-47d2-ac6c-d21f3c46a6e0&projectId=5e631737-0fa4-44a6-b227-7ba1d7345015","99C5C62D646A41BDA3AB280D794D9DB0-2025-05-27-18-40-10","","null","","[]","null","",""
"","","","","","image-button-response","40","509402","0.0-10.0-1.0-0.5","99C5C62D646A41BDA3AB280D794D9DB0","99C5C62D646A41BDA3AB280D794D9DB0","b013ab9b-d259-47d2-ac6c-d21f3c46a6e0","5e631737-0fa4-44a6-b227-7ba1d7345015","{""num_scrambled_semantic"":""8"",""num_scrambled_causal"":""4"",""num_scrambled_schematic"":""4"",""participantId"":""99C5C62D646A41BDA3AB280D794D9DB0"",""assignmentId"":""b013ab9b-d259-47d2-ac6c-d21f3c46a6e0"",""projectId"":""5e631737-0fa4-44a6-b227-7ba1d7345015""}","https://test12345.live/?num_scrambled_semantic=8&num_scrambled_causal=4&num_scrambled_schematic=4&participantId=99C5C62D646A41BDA3AB280D794D9DB0&assignmentId=b013ab9b-d259-47d2-ac6c-d21f3c46a6e0&projectId=5e631737-0fa4-44a6-b227-7ba1d7345015","99C5C62D646A41BDA3AB280D794D9DB0-2025-05-27-18-40-10","","null","","images/semantic_sequence/market_semantic/market_semantic_6.png","null","",""
"","","","","","image-button-response","41","513409","0.0-10.0-1.0-1.5","99C5C62D646A41BDA3AB280D794D9DB0","99C5C62D646A41BDA3AB280D794D9DB0","b013ab9b-d259-47d2-ac6c-d21f3c46a6e0","5e631737-0fa4-44a6-b227-7ba1d7345015","{""num_scrambled_semantic"":""8"",""num_scrambled_causal"":""4"",""num_scrambled_schematic"":""4"",""participantId"":""99C5C62D646A41BDA3AB280D794D9DB0"",""assignmentId"":""b013ab9b-d259-47d2-ac6c-d21f3c46a6e0"",""projectId"":""5e631737-0fa4-44a6-b227-7ba1d7345015""}","https://test12345.live/?num_scrambled_semantic=8&num_scrambled_causal=4&num_scrambled_schematic=4&participantId=99C5C62D646A41BDA3AB280D794D9DB0&assignmentId=b013ab9b-d259-47d2-ac6c-d21f3c46a6e0&projectId=5e631737-0fa4-44a6-b227-7ba1d7345015","99C5C62D646A41BDA3AB280D794D9DB0-2025-05-27-18-40-10","","null","","images/semantic_sequence/market_semantic/market_semantic_6.png","null","",""
"","","","","","image-button-response","42","515211","0.0-10.0-1.0-2.5","99C5C62D646A41BDA3AB280D794D9DB0","99C5C62D646A41BDA3AB280D794D9DB0","b013ab9b-d259-47d2-ac6c-d21f3c46a6e0","5e631737-0fa4-44a6-b227-7ba1d7345015","{""num_scrambled_semantic"":""8"",""num_scrambled_causal"":""4"",""num_scrambled_schematic"":""4"",""participantId"":""99C5C62D646A41BDA3AB280D794D9DB0"",""assignmentId"":""b013ab9b-d259-47d2-ac6c-d21f3c46a6e0"",""projectId"":""5e631737-0fa4-44a6-b227-7ba1d7345015""}","https://test12345.live/?num_scrambled_semantic=8&num_scrambled_causal=4&num_scrambled_schematic=4&participantId=99C5C62D646A41BDA3AB280D794D9DB0&assignmentId=b013ab9b-d259-47d2-ac6c-d21f3c46a6e0&projectId=5e631737-0fa4-44a6-b227-7ba1d7345015","99C5C62D646A41BDA3AB280D794D9DB0-2025-05-27-18-40-10","","null","","[]","null","",""
"","","","","","image-button-response","43","519712","0.0-10.0-1.0-0.6","99C5C62D646A41BDA3AB280D794D9DB0","99C5C62D646A41BDA3AB280D794D9DB0","b013ab9b-d259-47d2-ac6c-d21f3c46a6e0","5e631737-0fa4-44a6-b227-7ba1d7345015","{""num_scrambled_semantic"":""8"",""num_scrambled_causal"":""4"",""num_scrambled_schematic"":""4"",""participantId"":""99C5C62D646A41BDA3AB280D794D9DB0"",""assignmentId"":""b013ab9b-d259-47d2-ac6c-d21f3c46a6e0"",""projectId"":""5e631737-0fa4-44a6-b227-7ba1d7345015""}","https://test12345.live/?num_scrambled_semantic=8&num_scrambled_causal=4&num_scrambled_schematic=4&participantId=99C5C62D646A41BDA3AB280D794D9DB0&assignmentId=b013ab9b-d259-47d2-ac6c-d21f3c46a6e0&projectId=5e631737-0fa4-44a6-b227-7ba1d7345015","99C5C62D646A41BDA3AB280D794D9DB0-2025-05-27-18-40-10","","null","","images/semantic_sequence/market_semantic/market_semantic_7.png","null","",""
"","","","","","image-button-response","44","521376","0.0-10.0-1.0-1.6","99C5C62D646A41BDA3AB280D794D9DB0","99C5C62D646A41BDA3AB280D794D9DB0","b013ab9b-d259-47d2-ac6c-d21f3c46a6e0","5e631737-0fa4-44a6-b227-7ba1d7345015","{""num_scrambled_semantic"":""8"",""num_scrambled_causal"":""4"",""num_scrambled_schematic"":""4"",""participantId"":""99C5C62D646A41BDA3AB280D794D9DB0"",""assignmentId"":""b013ab9b-d259-47d2-ac6c-d21f3c46a6e0"",""projectId"":""5e631737-0fa4-44a6-b227-7ba1d7345015""}","https://test12345.live/?num_scrambled_semantic=8&num_scrambled_causal=4&num_scrambled_schematic=4&participantId=99C5C62D646A41BDA3AB280D794D9DB0&assignmentId=b013ab9b-d259-47d2-ac6c-d21f3c46a6e0&projectId=5e631737-0fa4-44a6-b227-7ba1d7345015","99C5C62D646A41BDA3AB280D794D9DB0-2025-05-27-18-40-10","","1662","","images/semantic_sequence/market_semantic/market_semantic_7.png","0","",""
"","","","","","image-button-response","45","523181","0.0-10.0-1.0-2.6","99C5C62D646A41BDA3AB280D794D9DB0","99C5C62D646A41BDA3AB280D794D9DB0","b013ab9b-d259-47d2-ac6c-d21f3c46a6e0","5e631737-0fa4-44a6-b227-7ba1d7345015","{""num_scrambled_semantic"":""8"",""num_scrambled_causal"":""4"",""num_scrambled_schematic"":""4"",""participantId"":""99C5C62D646A41BDA3AB280D794D9DB0"",""assignmentId"":""b013ab9b-d259-47d2-ac6c-d21f3c46a6e0"",""projectId"":""5e631737-0fa4-44a6-b227-7ba1d7345015""}","https://test12345.live/?num_scrambled_semantic=8&num_scrambled_causal=4&num_scrambled_schematic=4&participantId=99C5C62D646A41BDA3AB280D794D9DB0&assignmentId=b013ab9b-d259-47d2-ac6c-d21f3c46a6e0&projectId=5e631737-0fa4-44a6-b227-7ba1d7345015","99C5C62D646A41BDA3AB280D794D9DB0-2025-05-27-18-40-10","","null","","[]","null","",""
"","","","","","image-button-response","46","527687","0.0-10.0-1.0-0.7","99C5C62D646A41BDA3AB280D794D9DB0","99C5C62D646A41BDA3AB280D794D9DB0","b013ab9b-d259-47d2-ac6c-d21f3c46a6e0","5e631737-0fa4-44a6-b227-7ba1d7345015","{""num_scrambled_semantic"":""8"",""num_scrambled_causal"":""4"",""num_scrambled_schematic"":""4"",""participantId"":""99C5C62D646A41BDA3AB280D794D9DB0"",""assignmentId"":""b013ab9b-d259-47d2-ac6c-d21f3c46a6e0"",""projectId"":""5e631737-0fa4-44a6-b227-7ba1d7345015""}","https://test12345.live/?num_scrambled_semantic=8&num_scrambled_causal=4&num_scrambled_schematic=4&participantId=99C5C62D646A41BDA3AB280D794D9DB0&assignmentId=b013ab9b-d259-47d2-ac6c-d21f3c46a6e0&projectId=5e631737-0fa4-44a6-b227-7ba1d7345015","99C5C62D646A41BDA3AB280D794D9DB0-2025-05-27-18-40-10","","null","","images/semantic_sequence/market_semantic/market_semantic_9.png","null","",""
"","","","","","image-button-response","47","529574","0.0-10.0-1.0-1.7","99C5C62D646A41BDA3AB280D794D9DB0","99C5C62D646A41BDA3AB280D794D9DB0","b013ab9b-d259-47d2-ac6c-d21f3c46a6e0","5e631737-0fa4-44a6-b227-7ba1d7345015","{""num_scrambled_semantic"":""8"",""num_scrambled_causal"":""4"",""num_scrambled_schematic"":""4"",""participantId"":""99C5C62D646A41BDA3AB280D794D9DB0"",""assignmentId"":""b013ab9b-d259-47d2-ac6c-d21f3c46a6e0"",""projectId"":""5e631737-0fa4-44a6-b227-7ba1d7345015""}","https://test12345.live/?num_scrambled_semantic=8&num_scrambled_causal=4&num_scrambled_schematic=4&participantId=99C5C62D646A41BDA3AB280D794D9DB0&assignmentId=b013ab9b-d259-47d2-ac6c-d21f3c46a6e0&projectId=5e631737-0fa4-44a6-b227-7ba1d7345015","99C5C62D646A41BDA3AB280D794D9DB0-2025-05-27-18-40-10","","1885","","images/semantic_sequence/market_semantic/market_semantic_9.png","0","",""
"","","","","","image-button-response","48","531382","0.0-10.0-1.0-2.7","99C5C62D646A41BDA3AB280D794D9DB0","99C5C62D646A41BDA3AB280D794D9DB0","b013ab9b-d259-47d2-ac6c-d21f3c46a6e0","5e631737-0fa4-44a6-b227-7ba1d7345015","{""num_scrambled_semantic"":""8"",""num_scrambled_causal"":""4"",""num_scrambled_schematic"":""4"",""participantId"":""99C5C62D646A41BDA3AB280D794D9DB0"",""assignmentId"":""b013ab9b-d259-47d2-ac6c-d21f3c46a6e0"",""projectId"":""5e631737-0fa4-44a6-b227-7ba1d7345015""}","https://test12345.live/?num_scrambled_semantic=8&num_scrambled_causal=4&num_scrambled_schematic=4&participantId=99C5C62D646A41BDA3AB280D794D9DB0&assignmentId=b013ab9b-d259-47d2-ac6c-d21f3c46a6e0&projectId=5e631737-0fa4-44a6-b227-7ba1d7345015","99C5C62D646A41BDA3AB280D794D9DB0-2025-05-27-18-40-10","","null","","[]","null","",""
"","","","","","image-button-response","49","535889","0.0-10.0-1.0-0.8","99C5C62D646A41BDA3AB280D794D9DB0","99C5C62D646A41BDA3AB280D794D9DB0","b013ab9b-d259-47d2-ac6c-d21f3c46a6e0","5e631737-0fa4-44a6-b227-7ba1d7345015","{""num_scrambled_semantic"":""8"",""num_scrambled_causal"":""4"",""num_scrambled_schematic"":""4"",""participantId"":""99C5C62D646A41BDA3AB280D794D9DB0"",""assignmentId"":""b013ab9b-d259-47d2-ac6c-d21f3c46a6e0"",""projectId"":""5e631737-0fa4-44a6-b227-7ba1d7345015""}","https://test12345.live/?num_scrambled_semantic=8&num_scrambled_causal=4&num_scrambled_schematic=4&participantId=99C5C62D646A41BDA3AB280D794D9DB0&assignmentId=b013ab9b-d259-47d2-ac6c-d21f3c46a6e0&projectId=5e631737-0fa4-44a6-b227-7ba1d7345015","99C5C62D646A41BDA3AB280D794D9DB0-2025-05-27-18-40-10","","null","","images/semantic_sequence/market_semantic/market_semantic_2.png","null","",""
"","","","","","image-button-response","50","539043","0.0-10.0-1.0-1.8","99C5C62D646A41BDA3AB280D794D9DB0","99C5C62D646A41BDA3AB280D794D9DB0","b013ab9b-d259-47d2-ac6c-d21f3c46a6e0","5e631737-0fa4-44a6-b227-7ba1d7345015","{""num_scrambled_semantic"":""8"",""num_scrambled_causal"":""4"",""num_scrambled_schematic"":""4"",""participantId"":""99C5C62D646A41BDA3AB280D794D9DB0"",""assignmentId"":""b013ab9b-d259-47d2-ac6c-d21f3c46a6e0"",""projectId"":""5e631737-0fa4-44a6-b227-7ba1d7345015""}","https://test12345.live/?num_scrambled_semantic=8&num_scrambled_causal=4&num_scrambled_schematic=4&participantId=99C5C62D646A41BDA3AB280D794D9DB0&assignmentId=b013ab9b-d259-47d2-ac6c-d21f3c46a6e0&projectId=5e631737-0fa4-44a6-b227-7ba1d7345015","99C5C62D646A41BDA3AB280D794D9DB0-2025-05-27-18-40-10","","3152","","images/semantic_sequence/market_semantic/market_semantic_2.png","1","",""
"","","","","","image-button-response","51","540847","0.0-10.0-1.0-2.8","99C5C62D646A41BDA3AB280D794D9DB0","99C5C62D646A41BDA3AB280D794D9DB0","b013ab9b-d259-47d2-ac6c-d21f3c46a6e0","5e631737-0fa4-44a6-b227-7ba1d7345015","{""num_scrambled_semantic"":""8"",""num_scrambled_causal"":""4"",""num_scrambled_schematic"":""4"",""participantId"":""99C5C62D646A41BDA3AB280D794D9DB0"",""assignmentId"":""b013ab9b-d259-47d2-ac6c-d21f3c46a6e0"",""projectId"":""5e631737-0fa4-44a6-b227-7ba1d7345015""}","https://test12345.live/?num_scrambled_semantic=8&num_scrambled_causal=4&num_scrambled_schematic=4&participantId=99C5C62D646A41BDA3AB280D794D9DB0&assignmentId=b013ab9b-d259-47d2-ac6c-d21f3c46a6e0&projectId=5e631737-0fa4-44a6-b227-7ba1d7345015","99C5C62D646A41BDA3AB280D794D9DB0-2025-05-27-18-40-10","","null","","[]","null","",""
"","","","","","image-button-response","52","545349","0.0-10.0-1.0-0.9","99C5C62D646A41BDA3AB280D794D9DB0","99C5C62D646A41BDA3AB280D794D9DB0","b013ab9b-d259-47d2-ac6c-d21f3c46a6e0","5e631737-0fa4-44a6-b227-7ba1d7345015","{""num_scrambled_semantic"":""8"",""num_scrambled_causal"":""4"",""num_scrambled_schematic"":""4"",""participantId"":""99C5C62D646A41BDA3AB280D794D9DB0"",""assignmentId"":""b013ab9b-d259-47d2-ac6c-d21f3c46a6e0"",""projectId"":""5e631737-0fa4-44a6-b227-7ba1d7345015""}","https://test12345.live/?num_scrambled_semantic=8&num_scrambled_causal=4&num_scrambled_schematic=4&participantId=99C5C62D646A41BDA3AB280D794D9DB0&assignmentId=b013ab9b-d259-47d2-ac6c-d21f3c46a6e0&projectId=5e631737-0fa4-44a6-b227-7ba1d7345015","99C5C62D646A41BDA3AB280D794D9DB0-2025-05-27-18-40-10","","null","","images/semantic_sequence/market_semantic/market_semantic_8.png","null","",""
"","","","","","image-button-response","53","547076","0.0-10.0-1.0-1.9","99C5C62D646A41BDA3AB280D794D9DB0","99C5C62D646A41BDA3AB280D794D9DB0","b013ab9b-d259-47d2-ac6c-d21f3c46a6e0","5e631737-0fa4-44a6-b227-7ba1d7345015","{""num_scrambled_semantic"":""8"",""num_scrambled_causal"":""4"",""num_scrambled_schematic"":""4"",""participantId"":""99C5C62D646A41BDA3AB280D794D9DB0"",""assignmentId"":""b013ab9b-d259-47d2-ac6c-d21f3c46a6e0"",""projectId"":""5e631737-0fa4-44a6-b227-7ba1d7345015""}","https://test12345.live/?num_scrambled_semantic=8&num_scrambled_causal=4&num_scrambled_schematic=4&participantId=99C5C62D646A41BDA3AB280D794D9DB0&assignmentId=b013ab9b-d259-47d2-ac6c-d21f3c46a6e0&projectId=5e631737-0fa4-44a6-b227-7ba1d7345015","99C5C62D646A41BDA3AB280D794D9DB0-2025-05-27-18-40-10","","1725","","images/semantic_sequence/market_semantic/market_semantic_8.png","1","",""
"","","","","","image-button-response","54","548883","0.0-10.0-1.0-2.9","99C5C62D646A41BDA3AB280D794D9DB0","99C5C62D646A41BDA3AB280D794D9DB0","b013ab9b-d259-47d2-ac6c-d21f3c46a6e0","5e631737-0fa4-44a6-b227-7ba1d7345015","{""num_scrambled_semantic"":""8"",""num_scrambled_causal"":""4"",""num_scrambled_schematic"":""4"",""participantId"":""99C5C62D646A41BDA3AB280D794D9DB0"",""assignmentId"":""b013ab9b-d259-47d2-ac6c-d21f3c46a6e0"",""projectId"":""5e631737-0fa4-44a6-b227-7ba1d7345015""}","https://test12345.live/?num_scrambled_semantic=8&num_scrambled_causal=4&num_scrambled_schematic=4&participantId=99C5C62D646A41BDA3AB280D794D9DB0&assignmentId=b013ab9b-d259-47d2-ac6c-d21f3c46a6e0&projectId=5e631737-0fa4-44a6-b227-7ba1d7345015","99C5C62D646A41BDA3AB280D794D9DB0-2025-05-27-18-40-10","","null","","[]","null","",""
"","","","","","html-audio-response","55","592427","0.0-11.0","99C5C62D646A41BDA3AB280D794D9DB0","99C5C62D646A41BDA3AB280D794D9DB0","b013ab9b-d259-47d2-ac6c-d21f3c46a6e0","5e631737-0fa4-44a6-b227-7ba1d7345015","{""num_scrambled_semantic"":""8"",""num_scrambled_causal"":""4"",""num_scrambled_schematic"":""4"",""participantId"":""99C5C62D646A41BDA3AB280D794D9DB0"",""assignmentId"":""b013ab9b-d259-47d2-ac6c-d21f3c46a6e0"",""projectId"":""5e631737-0fa4-44a6-b227-7ba1d7345015""}","https://test12345.live/?num_scrambled_semantic=8&num_scrambled_causal=4&num_scrambled_schematic=4&participantId=99C5C62D646A41BDA3AB280D794D9DB0&assignmentId=b013ab9b-d259-47d2-ac6c-d21f3c46a6e0&projectId=5e631737-0fa4-44a6-b227-7ba1d7345015","99C5C62D646A41BDA3AB280D794D9DB0-2025-05-27-18-40-10","","29978","","[""<span style=\""color: red; font-size: 24px\""> NOW RECORDING</span><p>Please say out loud all the images you saw, in the exact order you saw them. Try to recall as many images as you can, but remember: getting the order right is more important than the number of images you recall.</p>""]","","2","market_semantic"
"","","","","","image-button-response","56","598432","0.0-12.0-0.0","99C5C62D646A41BDA3AB280D794D9DB0","99C5C62D646A41BDA3AB280D794D9DB0","b013ab9b-d259-47d2-ac6c-d21f3c46a6e0","5e631737-0fa4-44a6-b227-7ba1d7345015","{""num_scrambled_semantic"":""8"",""num_scrambled_causal"":""4"",""num_scrambled_schematic"":""4"",""participantId"":""99C5C62D646A41BDA3AB280D794D9DB0"",""assignmentId"":""b013ab9b-d259-47d2-ac6c-d21f3c46a6e0"",""projectId"":""5e631737-0fa4-44a6-b227-7ba1d7345015""}","https://test12345.live/?num_scrambled_semantic=8&num_scrambled_causal=4&num_scrambled_schematic=4&participantId=99C5C62D646A41BDA3AB280D794D9DB0&assignmentId=b013ab9b-d259-47d2-ac6c-d21f3c46a6e0&projectId=5e631737-0fa4-44a6-b227-7ba1d7345015","99C5C62D646A41BDA3AB280D794D9DB0-2025-05-27-18-40-10","","null","","images/causal_sequence/package_causal/package_causal_0.png","null","",""
"","","","","","image-button-response","57","602938","0.0-12.0-1.0-0.0","99C5C62D646A41BDA3AB280D794D9DB0","99C5C62D646A41BDA3AB280D794D9DB0","b013ab9b-d259-47d2-ac6c-d21f3c46a6e0","5e631737-0fa4-44a6-b227-7ba1d7345015","{""num_scrambled_semantic"":""8"",""num_scrambled_causal"":""4"",""num_scrambled_schematic"":""4"",""participantId"":""99C5C62D646A41BDA3AB280D794D9DB0"",""assignmentId"":""b013ab9b-d259-47d2-ac6c-d21f3c46a6e0"",""projectId"":""5e631737-0fa4-44a6-b227-7ba1d7345015""}","https://test12345.live/?num_scrambled_semantic=8&num_scrambled_causal=4&num_scrambled_schematic=4&participantId=99C5C62D646A41BDA3AB280D794D9DB0&assignmentId=b013ab9b-d259-47d2-ac6c-d21f3c46a6e0&projectId=5e631737-0fa4-44a6-b227-7ba1d7345015","99C5C62D646A41BDA3AB280D794D9DB0-2025-05-27-18-40-10","","null","","images/causal_sequence/package_causal/package_causal_ten.png","null","",""
"","","","","","image-button-response","58","605192","0.0-12.0-1.0-1.0","99C5C62D646A41BDA3AB280D794D9DB0","99C5C62D646A41BDA3AB280D794D9DB0","b013ab9b-d259-47d2-ac6c-d21f3c46a6e0","5e631737-0fa4-44a6-b227-7ba1d7345015","{""num_scrambled_semantic"":""8"",""num_scrambled_causal"":""4"",""num_scrambled_schematic"":""4"",""participantId"":""99C5C62D646A41BDA3AB280D794D9DB0"",""assignmentId"":""b013ab9b-d259-47d2-ac6c-d21f3c46a6e0"",""projectId"":""5e631737-0fa4-44a6-b227-7ba1d7345015""}","https://test12345.live/?num_scrambled_semantic=8&num_scrambled_causal=4&num_scrambled_schematic=4&participantId=99C5C62D646A41BDA3AB280D794D9DB0&assignmentId=b013ab9b-d259-47d2-ac6c-d21f3c46a6e0&projectId=5e631737-0fa4-44a6-b227-7ba1d7345015","99C5C62D646A41BDA3AB280D794D9DB0-2025-05-27-18-40-10","","2251","","images/causal_sequence/package_causal/package_causal_ten.png","0","",""
"","","","","","image-button-response","59","606997","0.0-12.0-1.0-2.0","99C5C62D646A41BDA3AB280D794D9DB0","99C5C62D646A41BDA3AB280D794D9DB0","b013ab9b-d259-47d2-ac6c-d21f3c46a6e0","5e631737-0fa4-44a6-b227-7ba1d7345015","{""num_scrambled_semantic"":""8"",""num_scrambled_causal"":""4"",""num_scrambled_schematic"":""4"",""participantId"":""99C5C62D646A41BDA3AB280D794D9DB0"",""assignmentId"":""b013ab9b-d259-47d2-ac6c-d21f3c46a6e0"",""projectId"":""5e631737-0fa4-44a6-b227-7ba1d7345015""}","https://test12345.live/?num_scrambled_semantic=8&num_scrambled_causal=4&num_scrambled_schematic=4&participantId=99C5C62D646A41BDA3AB280D794D9DB0&assignmentId=b013ab9b-d259-47d2-ac6c-d21f3c46a6e0&projectId=5e631737-0fa4-44a6-b227-7ba1d7345015","99C5C62D646A41BDA3AB280D794D9DB0-2025-05-27-18-40-10","","null","","[]","null","",""
"","","","","","image-button-response","60","611500","0.0-12.0-1.0-0.1","99C5C62D646A41BDA3AB280D794D9DB0","99C5C62D646A41BDA3AB280D794D9DB0","b013ab9b-d259-47d2-ac6c-d21f3c46a6e0","5e631737-0fa4-44a6-b227-7ba1d7345015","{""num_scrambled_semantic"":""8"",""num_scrambled_causal"":""4"",""num_scrambled_schematic"":""4"",""participantId"":""99C5C62D646A41BDA3AB280D794D9DB0"",""assignmentId"":""b013ab9b-d259-47d2-ac6c-d21f3c46a6e0"",""projectId"":""5e631737-0fa4-44a6-b227-7ba1d7345015""}","https://test12345.live/?num_scrambled_semantic=8&num_scrambled_causal=4&num_scrambled_schematic=4&participantId=99C5C62D646A41BDA3AB280D794D9DB0&assignmentId=b013ab9b-d259-47d2-ac6c-d21f3c46a6e0&projectId=5e631737-0fa4-44a6-b227-7ba1d7345015","99C5C62D646A41BDA3AB280D794D9DB0-2025-05-27-18-40-10","","null","","images/causal_sequence/package_causal/package_causal_4.png","null","",""
"","","","","","image-button-response","61","613042","0.0-12.0-1.0-1.1","99C5C62D646A41BDA3AB280D794D9DB0","99C5C62D646A41BDA3AB280D794D9DB0","b013ab9b-d259-47d2-ac6c-d21f3c46a6e0","5e631737-0fa4-44a6-b227-7ba1d7345015","{""num_scrambled_semantic"":""8"",""num_scrambled_causal"":""4"",""num_scrambled_schematic"":""4"",""participantId"":""99C5C62D646A41BDA3AB280D794D9DB0"",""assignmentId"":""b013ab9b-d259-47d2-ac6c-d21f3c46a6e0"",""projectId"":""5e631737-0fa4-44a6-b227-7ba1d7345015""}","https://test12345.live/?num_scrambled_semantic=8&num_scrambled_causal=4&num_scrambled_schematic=4&participantId=99C5C62D646A41BDA3AB280D794D9DB0&assignmentId=b013ab9b-d259-47d2-ac6c-d21f3c46a6e0&projectId=5e631737-0fa4-44a6-b227-7ba1d7345015","99C5C62D646A41BDA3AB280D794D9DB0-2025-05-27-18-40-10","","1541","","images/causal_sequence/package_causal/package_causal_4.png","1","",""
"","","","","","image-button-response","62","614849","0.0-12.0-1.0-2.1","99C5C62D646A41BDA3AB280D794D9DB0","99C5C62D646A41BDA3AB280D794D9DB0","b013ab9b-d259-47d2-ac6c-d21f3c46a6e0","5e631737-0fa4-44a6-b227-7ba1d7345015","{""num_scrambled_semantic"":""8"",""num_scrambled_causal"":""4"",""num_scrambled_schematic"":""4"",""participantId"":""99C5C62D646A41BDA3AB280D794D9DB0"",""assignmentId"":""b013ab9b-d259-47d2-ac6c-d21f3c46a6e0"",""projectId"":""5e631737-0fa4-44a6-b227-7ba1d7345015""}","https://test12345.live/?num_scrambled_semantic=8&num_scrambled_causal=4&num_scrambled_schematic=4&participantId=99C5C62D646A41BDA3AB280D794D9DB0&assignmentId=b013ab9b-d259-47d2-ac6c-d21f3c46a6e0&projectId=5e631737-0fa4-44a6-b227-7ba1d7345015","99C5C62D646A41BDA3AB280D794D9DB0-2025-05-27-18-40-10","","null","","[]","null","",""
"","","","","","image-button-response","63","619352","0.0-12.0-1.0-0.2","99C5C62D646A41BDA3AB280D794D9DB0","99C5C62D646A41BDA3AB280D794D9DB0","b013ab9b-d259-47d2-ac6c-d21f3c46a6e0","5e631737-0fa4-44a6-b227-7ba1d7345015","{""num_scrambled_semantic"":""8"",""num_scrambled_causal"":""4"",""num_scrambled_schematic"":""4"",""participantId"":""99C5C62D646A41BDA3AB280D794D9DB0"",""assignmentId"":""b013ab9b-d259-47d2-ac6c-d21f3c46a6e0"",""projectId"":""5e631737-0fa4-44a6-b227-7ba1d7345015""}","https://test12345.live/?num_scrambled_semantic=8&num_scrambled_causal=4&num_scrambled_schematic=4&participantId=99C5C62D646A41BDA3AB280D794D9DB0&assignmentId=b013ab9b-d259-47d2-ac6c-d21f3c46a6e0&projectId=5e631737-0fa4-44a6-b227-7ba1d7345015","99C5C62D646A41BDA3AB280D794D9DB0-2025-05-27-18-40-10","","null","","images/causal_sequence/package_causal/package_causal_2.png","null","",""
"","","","","","image-button-response","64","622176","0.0-12.0-1.0-1.2","99C5C62D646A41BDA3AB280D794D9DB0","99C5C62D646A41BDA3AB280D794D9DB0","b013ab9b-d259-47d2-ac6c-d21f3c46a6e0","5e631737-0fa4-44a6-b227-7ba1d7345015","{""num_scrambled_semantic"":""8"",""num_scrambled_causal"":""4"",""num_scrambled_schematic"":""4"",""participantId"":""99C5C62D646A41BDA3AB280D794D9DB0"",""assignmentId"":""b013ab9b-d259-47d2-ac6c-d21f3c46a6e0"",""projectId"":""5e631737-0fa4-44a6-b227-7ba1d7345015""}","https://test12345.live/?num_scrambled_semantic=8&num_scrambled_causal=4&num_scrambled_schematic=4&participantId=99C5C62D646A41BDA3AB280D794D9DB0&assignmentId=b013ab9b-d259-47d2-ac6c-d21f3c46a6e0&projectId=5e631737-0fa4-44a6-b227-7ba1d7345015","99C5C62D646A41BDA3AB280D794D9DB0-2025-05-27-18-40-10","","2814","","images/causal_sequence/package_causal/package_causal_2.png","0","",""
"","","","","","image-button-response","65","623983","0.0-12.0-1.0-2.2","99C5C62D646A41BDA3AB280D794D9DB0","99C5C62D646A41BDA3AB280D794D9DB0","b013ab9b-d259-47d2-ac6c-d21f3c46a6e0","5e631737-0fa4-44a6-b227-7ba1d7345015","{""num_scrambled_semantic"":""8"",""num_scrambled_causal"":""4"",""num_scrambled_schematic"":""4"",""participantId"":""99C5C62D646A41BDA3AB280D794D9DB0"",""assignmentId"":""b013ab9b-d259-47d2-ac6c-d21f3c46a6e0"",""projectId"":""5e631737-0fa4-44a6-b227-7ba1d7345015""}","https://test12345.live/?num_scrambled_semantic=8&num_scrambled_causal=4&num_scrambled_schematic=4&participantId=99C5C62D646A41BDA3AB280D794D9DB0&assignmentId=b013ab9b-d259-47d2-ac6c-d21f3c46a6e0&projectId=5e631737-0fa4-44a6-b227-7ba1d7345015","99C5C62D646A41BDA3AB280D794D9DB0-2025-05-27-18-40-10","","null","","[]","null","",""
"","","","","","image-button-response","66","628489","0.0-12.0-1.0-0.3","99C5C62D646A41BDA3AB280D794D9DB0","99C5C62D646A41BDA3AB280D794D9DB0","b013ab9b-d259-47d2-ac6c-d21f3c46a6e0","5e631737-0fa4-44a6-b227-7ba1d7345015","{""num_scrambled_semantic"":""8"",""num_scrambled_causal"":""4"",""num_scrambled_schematic"":""4"",""participantId"":""99C5C62D646A41BDA3AB280D794D9DB0"",""assignmentId"":""b013ab9b-d259-47d2-ac6c-d21f3c46a6e0"",""projectId"":""5e631737-0fa4-44a6-b227-7ba1d7345015""}","https://test12345.live/?num_scrambled_semantic=8&num_scrambled_causal=4&num_scrambled_schematic=4&participantId=99C5C62D646A41BDA3AB280D794D9DB0&assignmentId=b013ab9b-d259-47d2-ac6c-d21f3c46a6e0&projectId=5e631737-0fa4-44a6-b227-7ba1d7345015","99C5C62D646A41BDA3AB280D794D9DB0-2025-05-27-18-40-10","","null","","images/causal_sequence/package_causal/package_causal_1.png","null","",""
"","","","","","image-button-response","67","629541","0.0-12.0-1.0-1.3","99C5C62D646A41BDA3AB280D794D9DB0","99C5C62D646A41BDA3AB280D794D9DB0","b013ab9b-d259-47d2-ac6c-d21f3c46a6e0","5e631737-0fa4-44a6-b227-7ba1d7345015","{""num_scrambled_semantic"":""8"",""num_scrambled_causal"":""4"",""num_scrambled_schematic"":""4"",""participantId"":""99C5C62D646A41BDA3AB280D794D9DB0"",""assignmentId"":""b013ab9b-d259-47d2-ac6c-d21f3c46a6e0"",""projectId"":""5e631737-0fa4-44a6-b227-7ba1d7345015""}","https://test12345.live/?num_scrambled_semantic=8&num_scrambled_causal=4&num_scrambled_schematic=4&participantId=99C5C62D646A41BDA3AB280D794D9DB0&assignmentId=b013ab9b-d259-47d2-ac6c-d21f3c46a6e0&projectId=5e631737-0fa4-44a6-b227-7ba1d7345015","99C5C62D646A41BDA3AB280D794D9DB0-2025-05-27-18-40-10","","1050","","images/causal_sequence/package_causal/package_causal_1.png","0","",""
"","","","","","image-button-response","68","631348","0.0-12.0-1.0-2.3","99C5C62D646A41BDA3AB280D794D9DB0","99C5C62D646A41BDA3AB280D794D9DB0","b013ab9b-d259-47d2-ac6c-d21f3c46a6e0","5e631737-0fa4-44a6-b227-7ba1d7345015","{""num_scrambled_semantic"":""8"",""num_scrambled_causal"":""4"",""num_scrambled_schematic"":""4"",""participantId"":""99C5C62D646A41BDA3AB280D794D9DB0"",""assignmentId"":""b013ab9b-d259-47d2-ac6c-d21f3c46a6e0"",""projectId"":""5e631737-0fa4-44a6-b227-7ba1d7345015""}","https://test12345.live/?num_scrambled_semantic=8&num_scrambled_causal=4&num_scrambled_schematic=4&participantId=99C5C62D646A41BDA3AB280D794D9DB0&assignmentId=b013ab9b-d259-47d2-ac6c-d21f3c46a6e0&projectId=5e631737-0fa4-44a6-b227-7ba1d7345015","99C5C62D646A41BDA3AB280D794D9DB0-2025-05-27-18-40-10","","null","","[]","null","",""
"","","","","","image-button-response","69","635852","0.0-12.0-1.0-0.4","99C5C62D646A41BDA3AB280D794D9DB0","99C5C62D646A41BDA3AB280D794D9DB0","b013ab9b-d259-47d2-ac6c-d21f3c46a6e0","5e631737-0fa4-44a6-b227-7ba1d7345015","{""num_scrambled_semantic"":""8"",""num_scrambled_causal"":""4"",""num_scrambled_schematic"":""4"",""participantId"":""99C5C62D646A41BDA3AB280D794D9DB0"",""assignmentId"":""b013ab9b-d259-47d2-ac6c-d21f3c46a6e0"",""projectId"":""5e631737-0fa4-44a6-b227-7ba1d7345015""}","https://test12345.live/?num_scrambled_semantic=8&num_scrambled_causal=4&num_scrambled_schematic=4&participantId=99C5C62D646A41BDA3AB280D794D9DB0&assignmentId=b013ab9b-d259-47d2-ac6c-d21f3c46a6e0&projectId=5e631737-0fa4-44a6-b227-7ba1d7345015","99C5C62D646A41BDA3AB280D794D9DB0-2025-05-27-18-40-10","","null","","images/causal_sequence/package_causal/package_causal_9.png","null","",""
"","","","","","image-button-response","70","637807","0.0-12.0-1.0-1.4","99C5C62D646A41BDA3AB280D794D9DB0","99C5C62D646A41BDA3AB280D794D9DB0","b013ab9b-d259-47d2-ac6c-d21f3c46a6e0","5e631737-0fa4-44a6-b227-7ba1d7345015","{""num_scrambled_semantic"":""8"",""num_scrambled_causal"":""4"",""num_scrambled_schematic"":""4"",""participantId"":""99C5C62D646A41BDA3AB280D794D9DB0"",""assignmentId"":""b013ab9b-d259-47d2-ac6c-d21f3c46a6e0"",""projectId"":""5e631737-0fa4-44a6-b227-7ba1d7345015""}","https://test12345.live/?num_scrambled_semantic=8&num_scrambled_causal=4&num_scrambled_schematic=4&participantId=99C5C62D646A41BDA3AB280D794D9DB0&assignmentId=b013ab9b-d259-47d2-ac6c-d21f3c46a6e0&projectId=5e631737-0fa4-44a6-b227-7ba1d7345015","99C5C62D646A41BDA3AB280D794D9DB0-2025-05-27-18-40-10","","1953","","images/causal_sequence/package_causal/package_causal_9.png","0","",""
"","","","","","image-button-response","71","639613","0.0-12.0-1.0-2.4","99C5C62D646A41BDA3AB280D794D9DB0","99C5C62D646A41BDA3AB280D794D9DB0","b013ab9b-d259-47d2-ac6c-d21f3c46a6e0","5e631737-0fa4-44a6-b227-7ba1d7345015","{""num_scrambled_semantic"":""8"",""num_scrambled_causal"":""4"",""num_scrambled_schematic"":""4"",""participantId"":""99C5C62D646A41BDA3AB280D794D9DB0"",""assignmentId"":""b013ab9b-d259-47d2-ac6c-d21f3c46a6e0"",""projectId"":""5e631737-0fa4-44a6-b227-7ba1d7345015""}","https://test12345.live/?num_scrambled_semantic=8&num_scrambled_causal=4&num_scrambled_schematic=4&participantId=99C5C62D646A41BDA3AB280D794D9DB0&assignmentId=b013ab9b-d259-47d2-ac6c-d21f3c46a6e0&projectId=5e631737-0fa4-44a6-b227-7ba1d7345015","99C5C62D646A41BDA3AB280D794D9DB0-2025-05-27-18-40-10","","null","","[]","null","",""
"","","","","","image-button-response","72","644120","0.0-12.0-1.0-0.5","99C5C62D646A41BDA3AB280D794D9DB0","99C5C62D646A41BDA3AB280D794D9DB0","b013ab9b-d259-47d2-ac6c-d21f3c46a6e0","5e631737-0fa4-44a6-b227-7ba1d7345015","{""num_scrambled_semantic"":""8"",""num_scrambled_causal"":""4"",""num_scrambled_schematic"":""4"",""participantId"":""99C5C62D646A41BDA3AB280D794D9DB0"",""assignmentId"":""b013ab9b-d259-47d2-ac6c-d21f3c46a6e0"",""projectId"":""5e631737-0fa4-44a6-b227-7ba1d7345015""}","https://test12345.live/?num_scrambled_semantic=8&num_scrambled_causal=4&num_scrambled_schematic=4&participantId=99C5C62D646A41BDA3AB280D794D9DB0&assignmentId=b013ab9b-d259-47d2-ac6c-d21f3c46a6e0&projectId=5e631737-0fa4-44a6-b227-7ba1d7345015","99C5C62D646A41BDA3AB280D794D9DB0-2025-05-27-18-40-10","","null","","images/causal_sequence/package_causal/package_causal_3.png","null","",""
"","","","","","image-button-response","73","646074","0.0-12.0-1.0-1.5","99C5C62D646A41BDA3AB280D794D9DB0","99C5C62D646A41BDA3AB280D794D9DB0","b013ab9b-d259-47d2-ac6c-d21f3c46a6e0","5e631737-0fa4-44a6-b227-7ba1d7345015","{""num_scrambled_semantic"":""8"",""num_scrambled_causal"":""4"",""num_scrambled_schematic"":""4"",""participantId"":""99C5C62D646A41BDA3AB280D794D9DB0"",""assignmentId"":""b013ab9b-d259-47d2-ac6c-d21f3c46a6e0"",""projectId"":""5e631737-0fa4-44a6-b227-7ba1d7345015""}","https://test12345.live/?num_scrambled_semantic=8&num_scrambled_causal=4&num_scrambled_schematic=4&participantId=99C5C62D646A41BDA3AB280D794D9DB0&assignmentId=b013ab9b-d259-47d2-ac6c-d21f3c46a6e0&projectId=5e631737-0fa4-44a6-b227-7ba1d7345015","99C5C62D646A41BDA3AB280D794D9DB0-2025-05-27-18-40-10","","1951","","images/causal_sequence/package_causal/package_causal_3.png","0","",""
"","","","","","image-button-response","74","647878","0.0-12.0-1.0-2.5","99C5C62D646A41BDA3AB280D794D9DB0","99C5C62D646A41BDA3AB280D794D9DB0","b013ab9b-d259-47d2-ac6c-d21f3c46a6e0","5e631737-0fa4-44a6-b227-7ba1d7345015","{""num_scrambled_semantic"":""8"",""num_scrambled_causal"":""4"",""num_scrambled_schematic"":""4"",""participantId"":""99C5C62D646A41BDA3AB280D794D9DB0"",""assignmentId"":""b013ab9b-d259-47d2-ac6c-d21f3c46a6e0"",""projectId"":""5e631737-0fa4-44a6-b227-7ba1d7345015""}","https://test12345.live/?num_scrambled_semantic=8&num_scrambled_causal=4&num_scrambled_schematic=4&participantId=99C5C62D646A41BDA3AB280D794D9DB0&assignmentId=b013ab9b-d259-47d2-ac6c-d21f3c46a6e0&projectId=5e631737-0fa4-44a6-b227-7ba1d7345015","99C5C62D646A41BDA3AB280D794D9DB0-2025-05-27-18-40-10","","null","","[]","null","",""
"","","","","","image-button-response","75","652388","0.0-12.0-1.0-0.6","99C5C62D646A41BDA3AB280D794D9DB0","99C5C62D646A41BDA3AB280D794D9DB0","b013ab9b-d259-47d2-ac6c-d21f3c46a6e0","5e631737-0fa4-44a6-b227-7ba1d7345015","{""num_scrambled_semantic"":""8"",""num_scrambled_causal"":""4"",""num_scrambled_schematic"":""4"",""participantId"":""99C5C62D646A41BDA3AB280D794D9DB0"",""assignmentId"":""b013ab9b-d259-47d2-ac6c-d21f3c46a6e0"",""projectId"":""5e631737-0fa4-44a6-b227-7ba1d7345015""}","https://test12345.live/?num_scrambled_semantic=8&num_scrambled_causal=4&num_scrambled_schematic=4&participantId=99C5C62D646A41BDA3AB280D794D9DB0&assignmentId=b013ab9b-d259-47d2-ac6c-d21f3c46a6e0&projectId=5e631737-0fa4-44a6-b227-7ba1d7345015","99C5C62D646A41BDA3AB280D794D9DB0-2025-05-27-18-40-10","","null","","images/causal_sequence/package_causal/package_causal_5.png","null","",""
"","","","","","image-button-response","76","654109","0.0-12.0-1.0-1.6","99C5C62D646A41BDA3AB280D794D9DB0","99C5C62D646A41BDA3AB280D794D9DB0","b013ab9b-d259-47d2-ac6c-d21f3c46a6e0","5e631737-0fa4-44a6-b227-7ba1d7345015","{""num_scrambled_semantic"":""8"",""num_scrambled_causal"":""4"",""num_scrambled_schematic"":""4"",""participantId"":""99C5C62D646A41BDA3AB280D794D9DB0"",""assignmentId"":""b013ab9b-d259-47d2-ac6c-d21f3c46a6e0"",""projectId"":""5e631737-0fa4-44a6-b227-7ba1d7345015""}","https://test12345.live/?num_scrambled_semantic=8&num_scrambled_causal=4&num_scrambled_schematic=4&participantId=99C5C62D646A41BDA3AB280D794D9DB0&assignmentId=b013ab9b-d259-47d2-ac6c-d21f3c46a6e0&projectId=5e631737-0fa4-44a6-b227-7ba1d7345015","99C5C62D646A41BDA3AB280D794D9DB0-2025-05-27-18-40-10","","1719","","images/causal_sequence/package_causal/package_causal_5.png","0","",""
"","","","","","image-button-response","77","655911","0.0-12.0-1.0-2.6","99C5C62D646A41BDA3AB280D794D9DB0","99C5C62D646A41BDA3AB280D794D9DB0","b013ab9b-d259-47d2-ac6c-d21f3c46a6e0","5e631737-0fa4-44a6-b227-7ba1d7345015","{""num_scrambled_semantic"":""8"",""num_scrambled_causal"":""4"",""num_scrambled_schematic"":""4"",""participantId"":""99C5C62D646A41BDA3AB280D794D9DB0"",""assignmentId"":""b013ab9b-d259-47d2-ac6c-d21f3c46a6e0"",""projectId"":""5e631737-0fa4-44a6-b227-7ba1d7345015""}","https://test12345.live/?num_scrambled_semantic=8&num_scrambled_causal=4&num_scrambled_schematic=4&participantId=99C5C62D646A41BDA3AB280D794D9DB0&assignmentId=b013ab9b-d259-47d2-ac6c-d21f3c46a6e0&projectId=5e631737-0fa4-44a6-b227-7ba1d7345015","99C5C62D646A41BDA3AB280D794D9DB0-2025-05-27-18-40-10","","null","","[]","null","",""
"","","","","","image-button-response","78","660413","0.0-12.0-1.0-0.7","99C5C62D646A41BDA3AB280D794D9DB0","99C5C62D646A41BDA3AB280D794D9DB0","b013ab9b-d259-47d2-ac6c-d21f3c46a6e0","5e631737-0fa4-44a6-b227-7ba1d7345015","{""num_scrambled_semantic"":""8"",""num_scrambled_causal"":""4"",""num_scrambled_schematic"":""4"",""participantId"":""99C5C62D646A41BDA3AB280D794D9DB0"",""assignmentId"":""b013ab9b-d259-47d2-ac6c-d21f3c46a6e0"",""projectId"":""5e631737-0fa4-44a6-b227-7ba1d7345015""}","https://test12345.live/?num_scrambled_semantic=8&num_scrambled_causal=4&num_scrambled_schematic=4&participantId=99C5C62D646A41BDA3AB280D794D9DB0&assignmentId=b013ab9b-d259-47d2-ac6c-d21f3c46a6e0&projectId=5e631737-0fa4-44a6-b227-7ba1d7345015","99C5C62D646A41BDA3AB280D794D9DB0-2025-05-27-18-40-10","","null","","images/causal_sequence/package_causal/package_causal_7.png","null","",""
"","","","","","image-button-response","79","661459","0.0-12.0-1.0-1.7","99C5C62D646A41BDA3AB280D794D9DB0","99C5C62D646A41BDA3AB280D794D9DB0","b013ab9b-d259-47d2-ac6c-d21f3c46a6e0","5e631737-0fa4-44a6-b227-7ba1d7345015","{""num_scrambled_semantic"":""8"",""num_scrambled_causal"":""4"",""num_scrambled_schematic"":""4"",""participantId"":""99C5C62D646A41BDA3AB280D794D9DB0"",""assignmentId"":""b013ab9b-d259-47d2-ac6c-d21f3c46a6e0"",""projectId"":""5e631737-0fa4-44a6-b227-7ba1d7345015""}","https://test12345.live/?num_scrambled_semantic=8&num_scrambled_causal=4&num_scrambled_schematic=4&participantId=99C5C62D646A41BDA3AB280D794D9DB0&assignmentId=b013ab9b-d259-47d2-ac6c-d21f3c46a6e0&projectId=5e631737-0fa4-44a6-b227-7ba1d7345015","99C5C62D646A41BDA3AB280D794D9DB0-2025-05-27-18-40-10","","1044","","images/causal_sequence/package_causal/package_causal_7.png","0","",""
"","","","","","image-button-response","80","663261","0.0-12.0-1.0-2.7","99C5C62D646A41BDA3AB280D794D9DB0","99C5C62D646A41BDA3AB280D794D9DB0","b013ab9b-d259-47d2-ac6c-d21f3c46a6e0","5e631737-0fa4-44a6-b227-7ba1d7345015","{""num_scrambled_semantic"":""8"",""num_scrambled_causal"":""4"",""num_scrambled_schematic"":""4"",""participantId"":""99C5C62D646A41BDA3AB280D794D9DB0"",""assignmentId"":""b013ab9b-d259-47d2-ac6c-d21f3c46a6e0"",""projectId"":""5e631737-0fa4-44a6-b227-7ba1d7345015""}","https://test12345.live/?num_scrambled_semantic=8&num_scrambled_causal=4&num_scrambled_schematic=4&participantId=99C5C62D646A41BDA3AB280D794D9DB0&assignmentId=b013ab9b-d259-47d2-ac6c-d21f3c46a6e0&projectId=5e631737-0fa4-44a6-b227-7ba1d7345015","99C5C62D646A41BDA3AB280D794D9DB0-2025-05-27-18-40-10","","null","","[]","null","",""
"","","","","","image-button-response","81","667762","0.0-12.0-1.0-0.8","99C5C62D646A41BDA3AB280D794D9DB0","99C5C62D646A41BDA3AB280D794D9DB0","b013ab9b-d259-47d2-ac6c-d21f3c46a6e0","5e631737-0fa4-44a6-b227-7ba1d7345015","{""num_scrambled_semantic"":""8"",""num_scrambled_causal"":""4"",""num_scrambled_schematic"":""4"",""participantId"":""99C5C62D646A41BDA3AB280D794D9DB0"",""assignmentId"":""b013ab9b-d259-47d2-ac6c-d21f3c46a6e0"",""projectId"":""5e631737-0fa4-44a6-b227-7ba1d7345015""}","https://test12345.live/?num_scrambled_semantic=8&num_scrambled_causal=4&num_scrambled_schematic=4&participantId=99C5C62D646A41BDA3AB280D794D9DB0&assignmentId=b013ab9b-d259-47d2-ac6c-d21f3c46a6e0&projectId=5e631737-0fa4-44a6-b227-7ba1d7345015","99C5C62D646A41BDA3AB280D794D9DB0-2025-05-27-18-40-10","","null","","images/causal_sequence/package_causal/package_causal_6.png","null","",""
"","","","","","image-button-response","82","669976","0.0-12.0-1.0-1.8","99C5C62D646A41BDA3AB280D794D9DB0","99C5C62D646A41BDA3AB280D794D9DB0","b013ab9b-d259-47d2-ac6c-d21f3c46a6e0","5e631737-0fa4-44a6-b227-7ba1d7345015","{""num_scrambled_semantic"":""8"",""num_scrambled_causal"":""4"",""num_scrambled_schematic"":""4"",""participantId"":""99C5C62D646A41BDA3AB280D794D9DB0"",""assignmentId"":""b013ab9b-d259-47d2-ac6c-d21f3c46a6e0"",""projectId"":""5e631737-0fa4-44a6-b227-7ba1d7345015""}","https://test12345.live/?num_scrambled_semantic=8&num_scrambled_causal=4&num_scrambled_schematic=4&participantId=99C5C62D646A41BDA3AB280D794D9DB0&assignmentId=b013ab9b-d259-47d2-ac6c-d21f3c46a6e0&projectId=5e631737-0fa4-44a6-b227-7ba1d7345015","99C5C62D646A41BDA3AB280D794D9DB0-2025-05-27-18-40-10","","2212","","images/causal_sequence/package_causal/package_causal_6.png","0","",""
"","","","","","image-button-response","83","671783","0.0-12.0-1.0-2.8","99C5C62D646A41BDA3AB280D794D9DB0","99C5C62D646A41BDA3AB280D794D9DB0","b013ab9b-d259-47d2-ac6c-d21f3c46a6e0","5e631737-0fa4-44a6-b227-7ba1d7345015","{""num_scrambled_semantic"":""8"",""num_scrambled_causal"":""4"",""num_scrambled_schematic"":""4"",""participantId"":""99C5C62D646A41BDA3AB280D794D9DB0"",""assignmentId"":""b013ab9b-d259-47d2-ac6c-d21f3c46a6e0"",""projectId"":""5e631737-0fa4-44a6-b227-7ba1d7345015""}","https://test12345.live/?num_scrambled_semantic=8&num_scrambled_causal=4&num_scrambled_schematic=4&participantId=99C5C62D646A41BDA3AB280D794D9DB0&assignmentId=b013ab9b-d259-47d2-ac6c-d21f3c46a6e0&projectId=5e631737-0fa4-44a6-b227-7ba1d7345015","99C5C62D646A41BDA3AB280D794D9DB0-2025-05-27-18-40-10","","null","","[]","null","",""
"","","","","","image-button-response","84","676290","0.0-12.0-1.0-0.9","99C5C62D646A41BDA3AB280D794D9DB0","99C5C62D646A41BDA3AB280D794D9DB0","b013ab9b-d259-47d2-ac6c-d21f3c46a6e0","5e631737-0fa4-44a6-b227-7ba1d7345015","{""num_scrambled_semantic"":""8"",""num_scrambled_causal"":""4"",""num_scrambled_schematic"":""4"",""participantId"":""99C5C62D646A41BDA3AB280D794D9DB0"",""assignmentId"":""b013ab9b-d259-47d2-ac6c-d21f3c46a6e0"",""projectId"":""5e631737-0fa4-44a6-b227-7ba1d7345015""}","https://test12345.live/?num_scrambled_semantic=8&num_scrambled_causal=4&num_scrambled_schematic=4&participantId=99C5C62D646A41BDA3AB280D794D9DB0&assignmentId=b013ab9b-d259-47d2-ac6c-d21f3c46a6e0&projectId=5e631737-0fa4-44a6-b227-7ba1d7345015","99C5C62D646A41BDA3AB280D794D9DB0-2025-05-27-18-40-10","","null","","images/causal_sequence/package_causal/package_causal_8.png","null","",""
"","","","","","image-button-response","85","678424","0.0-12.0-1.0-1.9","99C5C62D646A41BDA3AB280D794D9DB0","99C5C62D646A41BDA3AB280D794D9DB0","b013ab9b-d259-47d2-ac6c-d21f3c46a6e0","5e631737-0fa4-44a6-b227-7ba1d7345015","{""num_scrambled_semantic"":""8"",""num_scrambled_causal"":""4"",""num_scrambled_schematic"":""4"",""participantId"":""99C5C62D646A41BDA3AB280D794D9DB0"",""assignmentId"":""b013ab9b-d259-47d2-ac6c-d21f3c46a6e0"",""projectId"":""5e631737-0fa4-44a6-b227-7ba1d7345015""}","https://test12345.live/?num_scrambled_semantic=8&num_scrambled_causal=4&num_scrambled_schematic=4&participantId=99C5C62D646A41BDA3AB280D794D9DB0&assignmentId=b013ab9b-d259-47d2-ac6c-d21f3c46a6e0&projectId=5e631737-0fa4-44a6-b227-7ba1d7345015","99C5C62D646A41BDA3AB280D794D9DB0-2025-05-27-18-40-10","","2132","","images/causal_sequence/package_causal/package_causal_8.png","0","",""
"","","","","","image-button-response","86","680230","0.0-12.0-1.0-2.9","99C5C62D646A41BDA3AB280D794D9DB0","99C5C62D646A41BDA3AB280D794D9DB0","b013ab9b-d259-47d2-ac6c-d21f3c46a6e0","5e631737-0fa4-44a6-b227-7ba1d7345015","{""num_scrambled_semantic"":""8"",""num_scrambled_causal"":""4"",""num_scrambled_schematic"":""4"",""participantId"":""99C5C62D646A41BDA3AB280D794D9DB0"",""assignmentId"":""b013ab9b-d259-47d2-ac6c-d21f3c46a6e0"",""projectId"":""5e631737-0fa4-44a6-b227-7ba1d7345015""}","https://test12345.live/?num_scrambled_semantic=8&num_scrambled_causal=4&num_scrambled_schematic=4&participantId=99C5C62D646A41BDA3AB280D794D9DB0&assignmentId=b013ab9b-d259-47d2-ac6c-d21f3c46a6e0&projectId=5e631737-0fa4-44a6-b227-7ba1d7345015","99C5C62D646A41BDA3AB280D794D9DB0-2025-05-27-18-40-10","","null","","[]","null","",""
"","","","","","html-audio-response","87","732104","0.0-13.0","99C5C62D646A41BDA3AB280D794D9DB0","99C5C62D646A41BDA3AB280D794D9DB0","b013ab9b-d259-47d2-ac6c-d21f3c46a6e0","5e631737-0fa4-44a6-b227-7ba1d7345015","{""num_scrambled_semantic"":""8"",""num_scrambled_causal"":""4"",""num_scrambled_schematic"":""4"",""participantId"":""99C5C62D646A41BDA3AB280D794D9DB0"",""assignmentId"":""b013ab9b-d259-47d2-ac6c-d21f3c46a6e0"",""projectId"":""5e631737-0fa4-44a6-b227-7ba1d7345015""}","https://test12345.live/?num_scrambled_semantic=8&num_scrambled_causal=4&num_scrambled_schematic=4&participantId=99C5C62D646A41BDA3AB280D794D9DB0&assignmentId=b013ab9b-d259-47d2-ac6c-d21f3c46a6e0&projectId=5e631737-0fa4-44a6-b227-7ba1d7345015","99C5C62D646A41BDA3AB280D794D9DB0-2025-05-27-18-40-10","","42057","","[""<span style=\""color: red; font-size: 24px\""> NOW RECORDING</span><p>Please say out loud all the images you saw, in the exact order you saw them. Try to recall as many images as you can, but remember: getting the order right is more important than the number of images you recall.</p>""]","","2","package_causal"
"","","","","","image-button-response","88","738117","0.0-14.0-0.0","99C5C62D646A41BDA3AB280D794D9DB0","99C5C62D646A41BDA3AB280D794D9DB0","b013ab9b-d259-47d2-ac6c-d21f3c46a6e0","5e631737-0fa4-44a6-b227-7ba1d7345015","{""num_scrambled_semantic"":""8"",""num_scrambled_causal"":""4"",""num_scrambled_schematic"":""4"",""participantId"":""99C5C62D646A41BDA3AB280D794D9DB0"",""assignmentId"":""b013ab9b-d259-47d2-ac6c-d21f3c46a6e0"",""projectId"":""5e631737-0fa4-44a6-b227-7ba1d7345015""}","https://test12345.live/?num_scrambled_semantic=8&num_scrambled_causal=4&num_scrambled_schematic=4&participantId=99C5C62D646A41BDA3AB280D794D9DB0&assignmentId=b013ab9b-d259-47d2-ac6c-d21f3c46a6e0&projectId=5e631737-0fa4-44a6-b227-7ba1d7345015","99C5C62D646A41BDA3AB280D794D9DB0-2025-05-27-18-40-10","","null","","images/causal_sequence/coin_causal/coin_causal_0.png","null","",""
"","","","","","image-button-response","89","742625","0.0-14.0-1.0-0.0","99C5C62D646A41BDA3AB280D794D9DB0","99C5C62D646A41BDA3AB280D794D9DB0","b013ab9b-d259-47d2-ac6c-d21f3c46a6e0","5e631737-0fa4-44a6-b227-7ba1d7345015","{""num_scrambled_semantic"":""8"",""num_scrambled_causal"":""4"",""num_scrambled_schematic"":""4"",""participantId"":""99C5C62D646A41BDA3AB280D794D9DB0"",""assignmentId"":""b013ab9b-d259-47d2-ac6c-d21f3c46a6e0"",""projectId"":""5e631737-0fa4-44a6-b227-7ba1d7345015""}","https://test12345.live/?num_scrambled_semantic=8&num_scrambled_causal=4&num_scrambled_schematic=4&participantId=99C5C62D646A41BDA3AB280D794D9DB0&assignmentId=b013ab9b-d259-47d2-ac6c-d21f3c46a6e0&projectId=5e631737-0fa4-44a6-b227-7ba1d7345015","99C5C62D646A41BDA3AB280D794D9DB0-2025-05-27-18-40-10","","null","","images/causal_sequence/coin_causal/coin_causal_4.png","null","",""
"","","","","","image-button-response","90","745064","0.0-14.0-1.0-1.0","99C5C62D646A41BDA3AB280D794D9DB0","99C5C62D646A41BDA3AB280D794D9DB0","b013ab9b-d259-47d2-ac6c-d21f3c46a6e0","5e631737-0fa4-44a6-b227-7ba1d7345015","{""num_scrambled_semantic"":""8"",""num_scrambled_causal"":""4"",""num_scrambled_schematic"":""4"",""participantId"":""99C5C62D646A41BDA3AB280D794D9DB0"",""assignmentId"":""b013ab9b-d259-47d2-ac6c-d21f3c46a6e0"",""projectId"":""5e631737-0fa4-44a6-b227-7ba1d7345015""}","https://test12345.live/?num_scrambled_semantic=8&num_scrambled_causal=4&num_scrambled_schematic=4&participantId=99C5C62D646A41BDA3AB280D794D9DB0&assignmentId=b013ab9b-d259-47d2-ac6c-d21f3c46a6e0&projectId=5e631737-0fa4-44a6-b227-7ba1d7345015","99C5C62D646A41BDA3AB280D794D9DB0-2025-05-27-18-40-10","","2436","","images/causal_sequence/coin_causal/coin_causal_4.png","0","",""
"","","","","","image-button-response","91","746868","0.0-14.0-1.0-2.0","99C5C62D646A41BDA3AB280D794D9DB0","99C5C62D646A41BDA3AB280D794D9DB0","b013ab9b-d259-47d2-ac6c-d21f3c46a6e0","5e631737-0fa4-44a6-b227-7ba1d7345015","{""num_scrambled_semantic"":""8"",""num_scrambled_causal"":""4"",""num_scrambled_schematic"":""4"",""participantId"":""99C5C62D646A41BDA3AB280D794D9DB0"",""assignmentId"":""b013ab9b-d259-47d2-ac6c-d21f3c46a6e0"",""projectId"":""5e631737-0fa4-44a6-b227-7ba1d7345015""}","https://test12345.live/?num_scrambled_semantic=8&num_scrambled_causal=4&num_scrambled_schematic=4&participantId=99C5C62D646A41BDA3AB280D794D9DB0&assignmentId=b013ab9b-d259-47d2-ac6c-d21f3c46a6e0&projectId=5e631737-0fa4-44a6-b227-7ba1d7345015","99C5C62D646A41BDA3AB280D794D9DB0-2025-05-27-18-40-10","","null","","[]","null","",""
"","","","","","image-button-response","92","751375","0.0-14.0-1.0-0.1","99C5C62D646A41BDA3AB280D794D9DB0","99C5C62D646A41BDA3AB280D794D9DB0","b013ab9b-d259-47d2-ac6c-d21f3c46a6e0","5e631737-0fa4-44a6-b227-7ba1d7345015","{""num_scrambled_semantic"":""8"",""num_scrambled_causal"":""4"",""num_scrambled_schematic"":""4"",""participantId"":""99C5C62D646A41BDA3AB280D794D9DB0"",""assignmentId"":""b013ab9b-d259-47d2-ac6c-d21f3c46a6e0"",""projectId"":""5e631737-0fa4-44a6-b227-7ba1d7345015""}","https://test12345.live/?num_scrambled_semantic=8&num_scrambled_causal=4&num_scrambled_schematic=4&participantId=99C5C62D646A41BDA3AB280D794D9DB0&assignmentId=b013ab9b-d259-47d2-ac6c-d21f3c46a6e0&projectId=5e631737-0fa4-44a6-b227-7ba1d7345015","99C5C62D646A41BDA3AB280D794D9DB0-2025-05-27-18-40-10","","null","","images/causal_sequence/coin_causal/coin_causal_6.png","null","",""
"","","","","","image-button-response","93","752726","0.0-14.0-1.0-1.1","99C5C62D646A41BDA3AB280D794D9DB0","99C5C62D646A41BDA3AB280D794D9DB0","b013ab9b-d259-47d2-ac6c-d21f3c46a6e0","5e631737-0fa4-44a6-b227-7ba1d7345015","{""num_scrambled_semantic"":""8"",""num_scrambled_causal"":""4"",""num_scrambled_schematic"":""4"",""participantId"":""99C5C62D646A41BDA3AB280D794D9DB0"",""assignmentId"":""b013ab9b-d259-47d2-ac6c-d21f3c46a6e0"",""projectId"":""5e631737-0fa4-44a6-b227-7ba1d7345015""}","https://test12345.live/?num_scrambled_semantic=8&num_scrambled_causal=4&num_scrambled_schematic=4&participantId=99C5C62D646A41BDA3AB280D794D9DB0&assignmentId=b013ab9b-d259-47d2-ac6c-d21f3c46a6e0&projectId=5e631737-0fa4-44a6-b227-7ba1d7345015","99C5C62D646A41BDA3AB280D794D9DB0-2025-05-27-18-40-10","","1349","","images/causal_sequence/coin_causal/coin_causal_6.png","0","",""
"","","","","","image-button-response","94","754533","0.0-14.0-1.0-2.1","99C5C62D646A41BDA3AB280D794D9DB0","99C5C62D646A41BDA3AB280D794D9DB0","b013ab9b-d259-47d2-ac6c-d21f3c46a6e0","5e631737-0fa4-44a6-b227-7ba1d7345015","{""num_scrambled_semantic"":""8"",""num_scrambled_causal"":""4"",""num_scrambled_schematic"":""4"",""participantId"":""99C5C62D646A41BDA3AB280D794D9DB0"",""assignmentId"":""b013ab9b-d259-47d2-ac6c-d21f3c46a6e0"",""projectId"":""5e631737-0fa4-44a6-b227-7ba1d7345015""}","https://test12345.live/?num_scrambled_semantic=8&num_scrambled_causal=4&num_scrambled_schematic=4&participantId=99C5C62D646A41BDA3AB280D794D9DB0&assignmentId=b013ab9b-d259-47d2-ac6c-d21f3c46a6e0&projectId=5e631737-0fa4-44a6-b227-7ba1d7345015","99C5C62D646A41BDA3AB280D794D9DB0-2025-05-27-18-40-10","","null","","[]","null","",""
"","","","","","image-button-response","95","759037","0.0-14.0-1.0-0.2","99C5C62D646A41BDA3AB280D794D9DB0","99C5C62D646A41BDA3AB280D794D9DB0","b013ab9b-d259-47d2-ac6c-d21f3c46a6e0","5e631737-0fa4-44a6-b227-7ba1d7345015","{""num_scrambled_semantic"":""8"",""num_scrambled_causal"":""4"",""num_scrambled_schematic"":""4"",""participantId"":""99C5C62D646A41BDA3AB280D794D9DB0"",""assignmentId"":""b013ab9b-d259-47d2-ac6c-d21f3c46a6e0"",""projectId"":""5e631737-0fa4-44a6-b227-7ba1d7345015""}","https://test12345.live/?num_scrambled_semantic=8&num_scrambled_causal=4&num_scrambled_schematic=4&participantId=99C5C62D646A41BDA3AB280D794D9DB0&assignmentId=b013ab9b-d259-47d2-ac6c-d21f3c46a6e0&projectId=5e631737-0fa4-44a6-b227-7ba1d7345015","99C5C62D646A41BDA3AB280D794D9DB0-2025-05-27-18-40-10","","null","","images/causal_sequence/coin_causal/coin_causal_7.png","null","",""
"","","","","","image-button-response","96","761008","0.0-14.0-1.0-1.2","99C5C62D646A41BDA3AB280D794D9DB0","99C5C62D646A41BDA3AB280D794D9DB0","b013ab9b-d259-47d2-ac6c-d21f3c46a6e0","5e631737-0fa4-44a6-b227-7ba1d7345015","{""num_scrambled_semantic"":""8"",""num_scrambled_causal"":""4"",""num_scrambled_schematic"":""4"",""participantId"":""99C5C62D646A41BDA3AB280D794D9DB0"",""assignmentId"":""b013ab9b-d259-47d2-ac6c-d21f3c46a6e0"",""projectId"":""5e631737-0fa4-44a6-b227-7ba1d7345015""}","https://test12345.live/?num_scrambled_semantic=8&num_scrambled_causal=4&num_scrambled_schematic=4&participantId=99C5C62D646A41BDA3AB280D794D9DB0&assignmentId=b013ab9b-d259-47d2-ac6c-d21f3c46a6e0&projectId=5e631737-0fa4-44a6-b227-7ba1d7345015","99C5C62D646A41BDA3AB280D794D9DB0-2025-05-27-18-40-10","","1970","","images/causal_sequence/coin_causal/coin_causal_7.png","1","",""
"","","","","","image-button-response","97","762812","0.0-14.0-1.0-2.2","99C5C62D646A41BDA3AB280D794D9DB0","99C5C62D646A41BDA3AB280D794D9DB0","b013ab9b-d259-47d2-ac6c-d21f3c46a6e0","5e631737-0fa4-44a6-b227-7ba1d7345015","{""num_scrambled_semantic"":""8"",""num_scrambled_causal"":""4"",""num_scrambled_schematic"":""4"",""participantId"":""99C5C62D646A41BDA3AB280D794D9DB0"",""assignmentId"":""b013ab9b-d259-47d2-ac6c-d21f3c46a6e0"",""projectId"":""5e631737-0fa4-44a6-b227-7ba1d7345015""}","https://test12345.live/?num_scrambled_semantic=8&num_scrambled_causal=4&num_scrambled_schematic=4&participantId=99C5C62D646A41BDA3AB280D794D9DB0&assignmentId=b013ab9b-d259-47d2-ac6c-d21f3c46a6e0&projectId=5e631737-0fa4-44a6-b227-7ba1d7345015","99C5C62D646A41BDA3AB280D794D9DB0-2025-05-27-18-40-10","","null","","[]","null","",""
"","","","","","image-button-response","98","767318","0.0-14.0-1.0-0.3","99C5C62D646A41BDA3AB280D794D9DB0","99C5C62D646A41BDA3AB280D794D9DB0","b013ab9b-d259-47d2-ac6c-d21f3c46a6e0","5e631737-0fa4-44a6-b227-7ba1d7345015","{""num_scrambled_semantic"":""8"",""num_scrambled_causal"":""4"",""num_scrambled_schematic"":""4"",""participantId"":""99C5C62D646A41BDA3AB280D794D9DB0"",""assignmentId"":""b013ab9b-d259-47d2-ac6c-d21f3c46a6e0"",""projectId"":""5e631737-0fa4-44a6-b227-7ba1d7345015""}","https://test12345.live/?num_scrambled_semantic=8&num_scrambled_causal=4&num_scrambled_schematic=4&participantId=99C5C62D646A41BDA3AB280D794D9DB0&assignmentId=b013ab9b-d259-47d2-ac6c-d21f3c46a6e0&projectId=5e631737-0fa4-44a6-b227-7ba1d7345015","99C5C62D646A41BDA3AB280D794D9DB0-2025-05-27-18-40-10","","null","","images/causal_sequence/coin_causal/coin_causal_8.png","null","",""
"","","","","","image-button-response","99","768660","0.0-14.0-1.0-1.3","99C5C62D646A41BDA3AB280D794D9DB0","99C5C62D646A41BDA3AB280D794D9DB0","b013ab9b-d259-47d2-ac6c-d21f3c46a6e0","5e631737-0fa4-44a6-b227-7ba1d7345015","{""num_scrambled_semantic"":""8"",""num_scrambled_causal"":""4"",""num_scrambled_schematic"":""4"",""participantId"":""99C5C62D646A41BDA3AB280D794D9DB0"",""assignmentId"":""b013ab9b-d259-47d2-ac6c-d21f3c46a6e0"",""projectId"":""5e631737-0fa4-44a6-b227-7ba1d7345015""}","https://test12345.live/?num_scrambled_semantic=8&num_scrambled_causal=4&num_scrambled_schematic=4&participantId=99C5C62D646A41BDA3AB280D794D9DB0&assignmentId=b013ab9b-d259-47d2-ac6c-d21f3c46a6e0&projectId=5e631737-0fa4-44a6-b227-7ba1d7345015","99C5C62D646A41BDA3AB280D794D9DB0-2025-05-27-18-40-10","","1340","","images/causal_sequence/coin_causal/coin_causal_8.png","0","",""
"","","","","","image-button-response","100","770462","0.0-14.0-1.0-2.3","99C5C62D646A41BDA3AB280D794D9DB0","99C5C62D646A41BDA3AB280D794D9DB0","b013ab9b-d259-47d2-ac6c-d21f3c46a6e0","5e631737-0fa4-44a6-b227-7ba1d7345015","{""num_scrambled_semantic"":""8"",""num_scrambled_causal"":""4"",""num_scrambled_schematic"":""4"",""participantId"":""99C5C62D646A41BDA3AB280D794D9DB0"",""assignmentId"":""b013ab9b-d259-47d2-ac6c-d21f3c46a6e0"",""projectId"":""5e631737-0fa4-44a6-b227-7ba1d7345015""}","https://test12345.live/?num_scrambled_semantic=8&num_scrambled_causal=4&num_scrambled_schematic=4&participantId=99C5C62D646A41BDA3AB280D794D9DB0&assignmentId=b013ab9b-d259-47d2-ac6c-d21f3c46a6e0&projectId=5e631737-0fa4-44a6-b227-7ba1d7345015","99C5C62D646A41BDA3AB280D794D9DB0-2025-05-27-18-40-10","","null","","[]","null","",""
"","","","","","image-button-response","101","774970","0.0-14.0-1.0-0.4","99C5C62D646A41BDA3AB280D794D9DB0","99C5C62D646A41BDA3AB280D794D9DB0","b013ab9b-d259-47d2-ac6c-d21f3c46a6e0","5e631737-0fa4-44a6-b227-7ba1d7345015","{""num_scrambled_semantic"":""8"",""num_scrambled_causal"":""4"",""num_scrambled_schematic"":""4"",""participantId"":""99C5C62D646A41BDA3AB280D794D9DB0"",""assignmentId"":""b013ab9b-d259-47d2-ac6c-d21f3c46a6e0"",""projectId"":""5e631737-0fa4-44a6-b227-7ba1d7345015""}","https://test12345.live/?num_scrambled_semantic=8&num_scrambled_causal=4&num_scrambled_schematic=4&participantId=99C5C62D646A41BDA3AB280D794D9DB0&assignmentId=b013ab9b-d259-47d2-ac6c-d21f3c46a6e0&projectId=5e631737-0fa4-44a6-b227-7ba1d7345015","99C5C62D646A41BDA3AB280D794D9DB0-2025-05-27-18-40-10","","null","","images/causal_sequence/coin_causal/coin_causal_5.png","null","",""
"","","","","","image-button-response","102","776875","0.0-14.0-1.0-1.4","99C5C62D646A41BDA3AB280D794D9DB0","99C5C62D646A41BDA3AB280D794D9DB0","b013ab9b-d259-47d2-ac6c-d21f3c46a6e0","5e631737-0fa4-44a6-b227-7ba1d7345015","{""num_scrambled_semantic"":""8"",""num_scrambled_causal"":""4"",""num_scrambled_schematic"":""4"",""participantId"":""99C5C62D646A41BDA3AB280D794D9DB0"",""assignmentId"":""b013ab9b-d259-47d2-ac6c-d21f3c46a6e0"",""projectId"":""5e631737-0fa4-44a6-b227-7ba1d7345015""}","https://test12345.live/?num_scrambled_semantic=8&num_scrambled_causal=4&num_scrambled_schematic=4&participantId=99C5C62D646A41BDA3AB280D794D9DB0&assignmentId=b013ab9b-d259-47d2-ac6c-d21f3c46a6e0&projectId=5e631737-0fa4-44a6-b227-7ba1d7345015","99C5C62D646A41BDA3AB280D794D9DB0-2025-05-27-18-40-10","","1903","","images/causal_sequence/coin_causal/coin_causal_5.png","0","",""
"","","","","","image-button-response","103","778680","0.0-14.0-1.0-2.4","99C5C62D646A41BDA3AB280D794D9DB0","99C5C62D646A41BDA3AB280D794D9DB0","b013ab9b-d259-47d2-ac6c-d21f3c46a6e0","5e631737-0fa4-44a6-b227-7ba1d7345015","{""num_scrambled_semantic"":""8"",""num_scrambled_causal"":""4"",""num_scrambled_schematic"":""4"",""participantId"":""99C5C62D646A41BDA3AB280D794D9DB0"",""assignmentId"":""b013ab9b-d259-47d2-ac6c-d21f3c46a6e0"",""projectId"":""5e631737-0fa4-44a6-b227-7ba1d7345015""}","https://test12345.live/?num_scrambled_semantic=8&num_scrambled_causal=4&num_scrambled_schematic=4&participantId=99C5C62D646A41BDA3AB280D794D9DB0&assignmentId=b013ab9b-d259-47d2-ac6c-d21f3c46a6e0&projectId=5e631737-0fa4-44a6-b227-7ba1d7345015","99C5C62D646A41BDA3AB280D794D9DB0-2025-05-27-18-40-10","","null","","[]","null","",""
"","","","","","image-button-response","104","783183","0.0-14.0-1.0-0.5","99C5C62D646A41BDA3AB280D794D9DB0","99C5C62D646A41BDA3AB280D794D9DB0","b013ab9b-d259-47d2-ac6c-d21f3c46a6e0","5e631737-0fa4-44a6-b227-7ba1d7345015","{""num_scrambled_semantic"":""8"",""num_scrambled_causal"":""4"",""num_scrambled_schematic"":""4"",""participantId"":""99C5C62D646A41BDA3AB280D794D9DB0"",""assignmentId"":""b013ab9b-d259-47d2-ac6c-d21f3c46a6e0"",""projectId"":""5e631737-0fa4-44a6-b227-7ba1d7345015""}","https://test12345.live/?num_scrambled_semantic=8&num_scrambled_causal=4&num_scrambled_schematic=4&participantId=99C5C62D646A41BDA3AB280D794D9DB0&assignmentId=b013ab9b-d259-47d2-ac6c-d21f3c46a6e0&projectId=5e631737-0fa4-44a6-b227-7ba1d7345015","99C5C62D646A41BDA3AB280D794D9DB0-2025-05-27-18-40-10","","null","","images/causal_sequence/coin_causal/coin_causal_1.png","null","",""
"","","","","","image-button-response","105","784208","0.0-14.0-1.0-1.5","99C5C62D646A41BDA3AB280D794D9DB0","99C5C62D646A41BDA3AB280D794D9DB0","b013ab9b-d259-47d2-ac6c-d21f3c46a6e0","5e631737-0fa4-44a6-b227-7ba1d7345015","{""num_scrambled_semantic"":""8"",""num_scrambled_causal"":""4"",""num_scrambled_schematic"":""4"",""participantId"":""99C5C62D646A41BDA3AB280D794D9DB0"",""assignmentId"":""b013ab9b-d259-47d2-ac6c-d21f3c46a6e0"",""projectId"":""5e631737-0fa4-44a6-b227-7ba1d7345015""}","https://test12345.live/?num_scrambled_semantic=8&num_scrambled_causal=4&num_scrambled_schematic=4&participantId=99C5C62D646A41BDA3AB280D794D9DB0&assignmentId=b013ab9b-d259-47d2-ac6c-d21f3c46a6e0&projectId=5e631737-0fa4-44a6-b227-7ba1d7345015","99C5C62D646A41BDA3AB280D794D9DB0-2025-05-27-18-40-10","","1024","","images/causal_sequence/coin_causal/coin_causal_1.png","0","",""
"","","","","","image-button-response","106","786015","0.0-14.0-1.0-2.5","99C5C62D646A41BDA3AB280D794D9DB0","99C5C62D646A41BDA3AB280D794D9DB0","b013ab9b-d259-47d2-ac6c-d21f3c46a6e0","5e631737-0fa4-44a6-b227-7ba1d7345015","{""num_scrambled_semantic"":""8"",""num_scrambled_causal"":""4"",""num_scrambled_schematic"":""4"",""participantId"":""99C5C62D646A41BDA3AB280D794D9DB0"",""assignmentId"":""b013ab9b-d259-47d2-ac6c-d21f3c46a6e0"",""projectId"":""5e631737-0fa4-44a6-b227-7ba1d7345015""}","https://test12345.live/?num_scrambled_semantic=8&num_scrambled_causal=4&num_scrambled_schematic=4&participantId=99C5C62D646A41BDA3AB280D794D9DB0&assignmentId=b013ab9b-d259-47d2-ac6c-d21f3c46a6e0&projectId=5e631737-0fa4-44a6-b227-7ba1d7345015","99C5C62D646A41BDA3AB280D794D9DB0-2025-05-27-18-40-10","","null","","[]","null","",""
"","","","","","image-button-response","107","790522","0.0-14.0-1.0-0.6","99C5C62D646A41BDA3AB280D794D9DB0","99C5C62D646A41BDA3AB280D794D9DB0","b013ab9b-d259-47d2-ac6c-d21f3c46a6e0","5e631737-0fa4-44a6-b227-7ba1d7345015","{""num_scrambled_semantic"":""8"",""num_scrambled_causal"":""4"",""num_scrambled_schematic"":""4"",""participantId"":""99C5C62D646A41BDA3AB280D794D9DB0"",""assignmentId"":""b013ab9b-d259-47d2-ac6c-d21f3c46a6e0"",""projectId"":""5e631737-0fa4-44a6-b227-7ba1d7345015""}","https://test12345.live/?num_scrambled_semantic=8&num_scrambled_causal=4&num_scrambled_schematic=4&participantId=99C5C62D646A41BDA3AB280D794D9DB0&assignmentId=b013ab9b-d259-47d2-ac6c-d21f3c46a6e0&projectId=5e631737-0fa4-44a6-b227-7ba1d7345015","99C5C62D646A41BDA3AB280D794D9DB0-2025-05-27-18-40-10","","null","","images/causal_sequence/coin_causal/coin_causal_3.png","null","",""
"","","","","","image-button-response","108","791625","0.0-14.0-1.0-1.6","99C5C62D646A41BDA3AB280D794D9DB0","99C5C62D646A41BDA3AB280D794D9DB0","b013ab9b-d259-47d2-ac6c-d21f3c46a6e0","5e631737-0fa4-44a6-b227-7ba1d7345015","{""num_scrambled_semantic"":""8"",""num_scrambled_causal"":""4"",""num_scrambled_schematic"":""4"",""participantId"":""99C5C62D646A41BDA3AB280D794D9DB0"",""assignmentId"":""b013ab9b-d259-47d2-ac6c-d21f3c46a6e0"",""projectId"":""5e631737-0fa4-44a6-b227-7ba1d7345015""}","https://test12345.live/?num_scrambled_semantic=8&num_scrambled_causal=4&num_scrambled_schematic=4&participantId=99C5C62D646A41BDA3AB280D794D9DB0&assignmentId=b013ab9b-d259-47d2-ac6c-d21f3c46a6e0&projectId=5e631737-0fa4-44a6-b227-7ba1d7345015","99C5C62D646A41BDA3AB280D794D9DB0-2025-05-27-18-40-10","","1100","","images/causal_sequence/coin_causal/coin_causal_3.png","0","",""
"","","","","","image-button-response","109","793431","0.0-14.0-1.0-2.6","99C5C62D646A41BDA3AB280D794D9DB0","99C5C62D646A41BDA3AB280D794D9DB0","b013ab9b-d259-47d2-ac6c-d21f3c46a6e0","5e631737-0fa4-44a6-b227-7ba1d7345015","{""num_scrambled_semantic"":""8"",""num_scrambled_causal"":""4"",""num_scrambled_schematic"":""4"",""participantId"":""99C5C62D646A41BDA3AB280D794D9DB0"",""assignmentId"":""b013ab9b-d259-47d2-ac6c-d21f3c46a6e0"",""projectId"":""5e631737-0fa4-44a6-b227-7ba1d7345015""}","https://test12345.live/?num_scrambled_semantic=8&num_scrambled_causal=4&num_scrambled_schematic=4&participantId=99C5C62D646A41BDA3AB280D794D9DB0&assignmentId=b013ab9b-d259-47d2-ac6c-d21f3c46a6e0&projectId=5e631737-0fa4-44a6-b227-7ba1d7345015","99C5C62D646A41BDA3AB280D794D9DB0-2025-05-27-18-40-10","","null","","[]","null","",""
"","","","","","image-button-response","110","797936","0.0-14.0-1.0-0.7","99C5C62D646A41BDA3AB280D794D9DB0","99C5C62D646A41BDA3AB280D794D9DB0","b013ab9b-d259-47d2-ac6c-d21f3c46a6e0","5e631737-0fa4-44a6-b227-7ba1d7345015","{""num_scrambled_semantic"":""8"",""num_scrambled_causal"":""4"",""num_scrambled_schematic"":""4"",""participantId"":""99C5C62D646A41BDA3AB280D794D9DB0"",""assignmentId"":""b013ab9b-d259-47d2-ac6c-d21f3c46a6e0"",""projectId"":""5e631737-0fa4-44a6-b227-7ba1d7345015""}","https://test12345.live/?num_scrambled_semantic=8&num_scrambled_causal=4&num_scrambled_schematic=4&participantId=99C5C62D646A41BDA3AB280D794D9DB0&assignmentId=b013ab9b-d259-47d2-ac6c-d21f3c46a6e0&projectId=5e631737-0fa4-44a6-b227-7ba1d7345015","99C5C62D646A41BDA3AB280D794D9DB0-2025-05-27-18-40-10","","null","","images/causal_sequence/coin_causal/coin_causal_2.png","null","",""
"","","","","","image-button-response","111","799125","0.0-14.0-1.0-1.7","99C5C62D646A41BDA3AB280D794D9DB0","99C5C62D646A41BDA3AB280D794D9DB0","b013ab9b-d259-47d2-ac6c-d21f3c46a6e0","5e631737-0fa4-44a6-b227-7ba1d7345015","{""num_scrambled_semantic"":""8"",""num_scrambled_causal"":""4"",""num_scrambled_schematic"":""4"",""participantId"":""99C5C62D646A41BDA3AB280D794D9DB0"",""assignmentId"":""b013ab9b-d259-47d2-ac6c-d21f3c46a6e0"",""projectId"":""5e631737-0fa4-44a6-b227-7ba1d7345015""}","https://test12345.live/?num_scrambled_semantic=8&num_scrambled_causal=4&num_scrambled_schematic=4&participantId=99C5C62D646A41BDA3AB280D794D9DB0&assignmentId=b013ab9b-d259-47d2-ac6c-d21f3c46a6e0&projectId=5e631737-0fa4-44a6-b227-7ba1d7345015","99C5C62D646A41BDA3AB280D794D9DB0-2025-05-27-18-40-10","","1187","","images/causal_sequence/coin_causal/coin_causal_2.png","0","",""
"","","","","","image-button-response","112","800932","0.0-14.0-1.0-2.7","99C5C62D646A41BDA3AB280D794D9DB0","99C5C62D646A41BDA3AB280D794D9DB0","b013ab9b-d259-47d2-ac6c-d21f3c46a6e0","5e631737-0fa4-44a6-b227-7ba1d7345015","{""num_scrambled_semantic"":""8"",""num_scrambled_causal"":""4"",""num_scrambled_schematic"":""4"",""participantId"":""99C5C62D646A41BDA3AB280D794D9DB0"",""assignmentId"":""b013ab9b-d259-47d2-ac6c-d21f3c46a6e0"",""projectId"":""5e631737-0fa4-44a6-b227-7ba1d7345015""}","https://test12345.live/?num_scrambled_semantic=8&num_scrambled_causal=4&num_scrambled_schematic=4&participantId=99C5C62D646A41BDA3AB280D794D9DB0&assignmentId=b013ab9b-d259-47d2-ac6c-d21f3c46a6e0&projectId=5e631737-0fa4-44a6-b227-7ba1d7345015","99C5C62D646A41BDA3AB280D794D9DB0-2025-05-27-18-40-10","","null","","[]","null","",""
"","","","","","image-button-response","113","805440","0.0-14.0-1.0-0.8","99C5C62D646A41BDA3AB280D794D9DB0","99C5C62D646A41BDA3AB280D794D9DB0","b013ab9b-d259-47d2-ac6c-d21f3c46a6e0","5e631737-0fa4-44a6-b227-7ba1d7345015","{""num_scrambled_semantic"":""8"",""num_scrambled_causal"":""4"",""num_scrambled_schematic"":""4"",""participantId"":""99C5C62D646A41BDA3AB280D794D9DB0"",""assignmentId"":""b013ab9b-d259-47d2-ac6c-d21f3c46a6e0"",""projectId"":""5e631737-0fa4-44a6-b227-7ba1d7345015""}","https://test12345.live/?num_scrambled_semantic=8&num_scrambled_causal=4&num_scrambled_schematic=4&participantId=99C5C62D646A41BDA3AB280D794D9DB0&assignmentId=b013ab9b-d259-47d2-ac6c-d21f3c46a6e0&projectId=5e631737-0fa4-44a6-b227-7ba1d7345015","99C5C62D646A41BDA3AB280D794D9DB0-2025-05-27-18-40-10","","null","","images/causal_sequence/coin_causal/coin_causal_9.png","null","",""
"","","","","","image-button-response","114","807892","0.0-14.0-1.0-1.8","99C5C62D646A41BDA3AB280D794D9DB0","99C5C62D646A41BDA3AB280D794D9DB0","b013ab9b-d259-47d2-ac6c-d21f3c46a6e0","5e631737-0fa4-44a6-b227-7ba1d7345015","{""num_scrambled_semantic"":""8"",""num_scrambled_causal"":""4"",""num_scrambled_schematic"":""4"",""participantId"":""99C5C62D646A41BDA3AB280D794D9DB0"",""assignmentId"":""b013ab9b-d259-47d2-ac6c-d21f3c46a6e0"",""projectId"":""5e631737-0fa4-44a6-b227-7ba1d7345015""}","https://test12345.live/?num_scrambled_semantic=8&num_scrambled_causal=4&num_scrambled_schematic=4&participantId=99C5C62D646A41BDA3AB280D794D9DB0&assignmentId=b013ab9b-d259-47d2-ac6c-d21f3c46a6e0&projectId=5e631737-0fa4-44a6-b227-7ba1d7345015","99C5C62D646A41BDA3AB280D794D9DB0-2025-05-27-18-40-10","","2450","","images/causal_sequence/coin_causal/coin_causal_9.png","0","",""
