"success","timeout","failed_images","failed_audio","failed_video","trial_type","trial_index","time_elapsed","internal_node_id","subject","subject_id","study_id","session_id","urlvar","current_url","audio_id","view_history","rt","device_id","stimulus","response","estimated_stimulus_onset","seq_name"
"true","false","[]","[]","[]","preload","0","7161","0.0-0.0","99D0F7217FF246AA89E4375CB9DB4126","99D0F7217FF246AA89E4375CB9DB4126","d320a248-eb18-4835-8568-1e0b4934048e","5e631737-0fa4-44a6-b227-7ba1d7345015","{""num_scrambled_semantic"":""8"",""num_scrambled_causal"":""4"",""num_scrambled_schematic"":""4"",""participantId"":""99D0F7217FF246AA89E4375CB9DB4126"",""assignmentId"":""d320a248-eb18-4835-8568-1e0b4934048e"",""projectId"":""5e631737-0fa4-44a6-b227-7ba1d7345015""}","https://test12345.live/?num_scrambled_semantic=8&num_scrambled_causal=4&num_scrambled_schematic=4&participantId=99D0F7217FF246AA89E4375CB9DB4126&assignmentId=d320a248-eb18-4835-8568-1e0b4934048e&projectId=5e631737-0fa4-44a6-b227-7ba1d7345015","99D0F7217FF246AA89E4375CB9DB4126-2025-05-27-18-34-48","","","","","","",""
"","","","","","instructions","1","82281","0.0-1.0","99D0F7217FF246AA89E4375CB9DB4126","99D0F7217FF246AA89E4375CB9DB4126","d320a248-eb18-4835-8568-1e0b4934048e","5e631737-0fa4-44a6-b227-7ba1d7345015","{""num_scrambled_semantic"":""8"",""num_scrambled_causal"":""4"",""num_scrambled_schematic"":""4"",""participantId"":""99D0F7217FF246AA89E4375CB9DB4126"",""assignmentId"":""d320a248-eb18-4835-8568-1e0b4934048e"",""projectId"":""5e631737-0fa4-44a6-b227-7ba1d7345015""}","https://test12345.live/?num_scrambled_semantic=8&num_scrambled_causal=4&num_scrambled_schematic=4&participantId=99D0F7217FF246AA89E4375CB9DB4126&assignmentId=d320a248-eb18-4835-8568-1e0b4934048e&projectId=5e631737-0fa4-44a6-b227-7ba1d7345015","99D0F7217FF246AA89E4375CB9DB4126-2025-05-27-18-34-48","[{""page_index"":0,""viewing_time"":75119}]","75119","","","","",""
"","","","","","instructions","2","89989","0.0-2.0","99D0F7217FF246AA89E4375CB9DB4126","99D0F7217FF246AA89E4375CB9DB4126","d320a248-eb18-4835-8568-1e0b4934048e","5e631737-0fa4-44a6-b227-7ba1d7345015","{""num_scrambled_semantic"":""8"",""num_scrambled_causal"":""4"",""num_scrambled_schematic"":""4"",""participantId"":""99D0F7217FF246AA89E4375CB9DB4126"",""assignmentId"":""d320a248-eb18-4835-8568-1e0b4934048e"",""projectId"":""5e631737-0fa4-44a6-b227-7ba1d7345015""}","https://test12345.live/?num_scrambled_semantic=8&num_scrambled_causal=4&num_scrambled_schematic=4&participantId=99D0F7217FF246AA89E4375CB9DB4126&assignmentId=d320a248-eb18-4835-8568-1e0b4934048e&projectId=5e631737-0fa4-44a6-b227-7ba1d7345015","99D0F7217FF246AA89E4375CB9DB4126-2025-05-27-18-34-48","[{""page_index"":0,""viewing_time"":7708}]","7708","","","","",""
"true","","","","","fullscreen","3","93590","0.0-3.0","99D0F7217FF246AA89E4375CB9DB4126","99D0F7217FF246AA89E4375CB9DB4126","d320a248-eb18-4835-8568-1e0b4934048e","5e631737-0fa4-44a6-b227-7ba1d7345015","{""num_scrambled_semantic"":""8"",""num_scrambled_causal"":""4"",""num_scrambled_schematic"":""4"",""participantId"":""99D0F7217FF246AA89E4375CB9DB4126"",""assignmentId"":""d320a248-eb18-4835-8568-1e0b4934048e"",""projectId"":""5e631737-0fa4-44a6-b227-7ba1d7345015""}","https://test12345.live/?num_scrambled_semantic=8&num_scrambled_causal=4&num_scrambled_schematic=4&participantId=99D0F7217FF246AA89E4375CB9DB4126&assignmentId=d320a248-eb18-4835-8568-1e0b4934048e&projectId=5e631737-0fa4-44a6-b227-7ba1d7345015","99D0F7217FF246AA89E4375CB9DB4126-2025-05-27-18-34-48","","2574","","","","",""
"","","","","","initialize-microphone","4","123354","0.0-4.0-0.0","99D0F7217FF246AA89E4375CB9DB4126","99D0F7217FF246AA89E4375CB9DB4126","d320a248-eb18-4835-8568-1e0b4934048e","5e631737-0fa4-44a6-b227-7ba1d7345015","{""num_scrambled_semantic"":""8"",""num_scrambled_causal"":""4"",""num_scrambled_schematic"":""4"",""participantId"":""99D0F7217FF246AA89E4375CB9DB4126"",""assignmentId"":""d320a248-eb18-4835-8568-1e0b4934048e"",""projectId"":""5e631737-0fa4-44a6-b227-7ba1d7345015""}","https://test12345.live/?num_scrambled_semantic=8&num_scrambled_causal=4&num_scrambled_schematic=4&participantId=99D0F7217FF246AA89E4375CB9DB4126&assignmentId=d320a248-eb18-4835-8568-1e0b4934048e&projectId=5e631737-0fa4-44a6-b227-7ba1d7345015","99D0F7217FF246AA89E4375CB9DB4126-2025-05-27-18-34-48","","","fe2e50163f2840657c8368904724bd5f0274845fef5e6a359813c622bfe4ae53","","","",""
"","","","","","html-audio-response","5","147668","0.0-4.0-1.0","99D0F7217FF246AA89E4375CB9DB4126","99D0F7217FF246AA89E4375CB9DB4126","d320a248-eb18-4835-8568-1e0b4934048e","5e631737-0fa4-44a6-b227-7ba1d7345015","{""num_scrambled_semantic"":""8"",""num_scrambled_causal"":""4"",""num_scrambled_schematic"":""4"",""participantId"":""99D0F7217FF246AA89E4375CB9DB4126"",""assignmentId"":""d320a248-eb18-4835-8568-1e0b4934048e"",""projectId"":""5e631737-0fa4-44a6-b227-7ba1d7345015""}","https://test12345.live/?num_scrambled_semantic=8&num_scrambled_causal=4&num_scrambled_schematic=4&participantId=99D0F7217FF246AA89E4375CB9DB4126&assignmentId=d320a248-eb18-4835-8568-1e0b4934048e&projectId=5e631737-0fa4-44a6-b227-7ba1d7345015","99D0F7217FF246AA89E4375CB9DB4126-2025-05-27-18-34-48","","9817","","<span style=""color: red; font-size: 24px""> NOW RECORDING</span>
        <p>Please test Microphone</p>","","18",""
"","","","","","html-button-response","6","149538","0.0-4.0-2.0","99D0F7217FF246AA89E4375CB9DB4126","99D0F7217FF246AA89E4375CB9DB4126","d320a248-eb18-4835-8568-1e0b4934048e","5e631737-0fa4-44a6-b227-7ba1d7345015","{""num_scrambled_semantic"":""8"",""num_scrambled_causal"":""4"",""num_scrambled_schematic"":""4"",""participantId"":""99D0F7217FF246AA89E4375CB9DB4126"",""assignmentId"":""d320a248-eb18-4835-8568-1e0b4934048e"",""projectId"":""5e631737-0fa4-44a6-b227-7ba1d7345015""}","https://test12345.live/?num_scrambled_semantic=8&num_scrambled_causal=4&num_scrambled_schematic=4&participantId=99D0F7217FF246AA89E4375CB9DB4126&assignmentId=d320a248-eb18-4835-8568-1e0b4934048e&projectId=5e631737-0fa4-44a6-b227-7ba1d7345015","99D0F7217FF246AA89E4375CB9DB4126-2025-05-27-18-34-48","","1869","","<p style=""font-size:48px; color:red;"">Is Microphone OK?</p>","1","",""
"","","","","","instructions","7","161468","0.0-5.0","99D0F7217FF246AA89E4375CB9DB4126","99D0F7217FF246AA89E4375CB9DB4126","d320a248-eb18-4835-8568-1e0b4934048e","5e631737-0fa4-44a6-b227-7ba1d7345015","{""num_scrambled_semantic"":""8"",""num_scrambled_causal"":""4"",""num_scrambled_schematic"":""4"",""participantId"":""99D0F7217FF246AA89E4375CB9DB4126"",""assignmentId"":""d320a248-eb18-4835-8568-1e0b4934048e"",""projectId"":""5e631737-0fa4-44a6-b227-7ba1d7345015""}","https://test12345.live/?num_scrambled_semantic=8&num_scrambled_causal=4&num_scrambled_schematic=4&participantId=99D0F7217FF246AA89E4375CB9DB4126&assignmentId=d320a248-eb18-4835-8568-1e0b4934048e&projectId=5e631737-0fa4-44a6-b227-7ba1d7345015","99D0F7217FF246AA89E4375CB9DB4126-2025-05-27-18-34-48","[{""page_index"":0,""viewing_time"":5661},{""page_index"":1,""viewing_time"":6268}]","11930","","","","",""
"","","","","","image-button-response","8","167482","0.0-6.0-0.0","99D0F7217FF246AA89E4375CB9DB4126","99D0F7217FF246AA89E4375CB9DB4126","d320a248-eb18-4835-8568-1e0b4934048e","5e631737-0fa4-44a6-b227-7ba1d7345015","{""num_scrambled_semantic"":""8"",""num_scrambled_causal"":""4"",""num_scrambled_schematic"":""4"",""participantId"":""99D0F7217FF246AA89E4375CB9DB4126"",""assignmentId"":""d320a248-eb18-4835-8568-1e0b4934048e"",""projectId"":""5e631737-0fa4-44a6-b227-7ba1d7345015""}","https://test12345.live/?num_scrambled_semantic=8&num_scrambled_causal=4&num_scrambled_schematic=4&participantId=99D0F7217FF246AA89E4375CB9DB4126&assignmentId=d320a248-eb18-4835-8568-1e0b4934048e&projectId=5e631737-0fa4-44a6-b227-7ba1d7345015","99D0F7217FF246AA89E4375CB9DB4126-2025-05-27-18-34-48","","null","","images/instructions/movie_0.png","null","",""
"","","","","","image-button-response","9","171991","0.0-6.0-1.0-0.0","99D0F7217FF246AA89E4375CB9DB4126","99D0F7217FF246AA89E4375CB9DB4126","d320a248-eb18-4835-8568-1e0b4934048e","5e631737-0fa4-44a6-b227-7ba1d7345015","{""num_scrambled_semantic"":""8"",""num_scrambled_causal"":""4"",""num_scrambled_schematic"":""4"",""participantId"":""99D0F7217FF246AA89E4375CB9DB4126"",""assignmentId"":""d320a248-eb18-4835-8568-1e0b4934048e"",""projectId"":""5e631737-0fa4-44a6-b227-7ba1d7345015""}","https://test12345.live/?num_scrambled_semantic=8&num_scrambled_causal=4&num_scrambled_schematic=4&participantId=99D0F7217FF246AA89E4375CB9DB4126&assignmentId=d320a248-eb18-4835-8568-1e0b4934048e&projectId=5e631737-0fa4-44a6-b227-7ba1d7345015","99D0F7217FF246AA89E4375CB9DB4126-2025-05-27-18-34-48","","null","","images/instructions/movie_1.png","null","",""
"","","","","","image-button-response","10","176005","0.0-6.0-1.0-1.0","99D0F7217FF246AA89E4375CB9DB4126","99D0F7217FF246AA89E4375CB9DB4126","d320a248-eb18-4835-8568-1e0b4934048e","5e631737-0fa4-44a6-b227-7ba1d7345015","{""num_scrambled_semantic"":""8"",""num_scrambled_causal"":""4"",""num_scrambled_schematic"":""4"",""participantId"":""99D0F7217FF246AA89E4375CB9DB4126"",""assignmentId"":""d320a248-eb18-4835-8568-1e0b4934048e"",""projectId"":""5e631737-0fa4-44a6-b227-7ba1d7345015""}","https://test12345.live/?num_scrambled_semantic=8&num_scrambled_causal=4&num_scrambled_schematic=4&participantId=99D0F7217FF246AA89E4375CB9DB4126&assignmentId=d320a248-eb18-4835-8568-1e0b4934048e&projectId=5e631737-0fa4-44a6-b227-7ba1d7345015","99D0F7217FF246AA89E4375CB9DB4126-2025-05-27-18-34-48","","null","","images/instructions/movie_1.png","null","",""
"","","","","","image-button-response","11","177807","0.0-6.0-1.0-2.0","99D0F7217FF246AA89E4375CB9DB4126","99D0F7217FF246AA89E4375CB9DB4126","d320a248-eb18-4835-8568-1e0b4934048e","5e631737-0fa4-44a6-b227-7ba1d7345015","{""num_scrambled_semantic"":""8"",""num_scrambled_causal"":""4"",""num_scrambled_schematic"":""4"",""participantId"":""99D0F7217FF246AA89E4375CB9DB4126"",""assignmentId"":""d320a248-eb18-4835-8568-1e0b4934048e"",""projectId"":""5e631737-0fa4-44a6-b227-7ba1d7345015""}","https://test12345.live/?num_scrambled_semantic=8&num_scrambled_causal=4&num_scrambled_schematic=4&participantId=99D0F7217FF246AA89E4375CB9DB4126&assignmentId=d320a248-eb18-4835-8568-1e0b4934048e&projectId=5e631737-0fa4-44a6-b227-7ba1d7345015","99D0F7217FF246AA89E4375CB9DB4126-2025-05-27-18-34-48","","null","","[]","null","",""
"","","","","","image-button-response","12","182312","0.0-6.0-1.0-0.1","99D0F7217FF246AA89E4375CB9DB4126","99D0F7217FF246AA89E4375CB9DB4126","d320a248-eb18-4835-8568-1e0b4934048e","5e631737-0fa4-44a6-b227-7ba1d7345015","{""num_scrambled_semantic"":""8"",""num_scrambled_causal"":""4"",""num_scrambled_schematic"":""4"",""participantId"":""99D0F7217FF246AA89E4375CB9DB4126"",""assignmentId"":""d320a248-eb18-4835-8568-1e0b4934048e"",""projectId"":""5e631737-0fa4-44a6-b227-7ba1d7345015""}","https://test12345.live/?num_scrambled_semantic=8&num_scrambled_causal=4&num_scrambled_schematic=4&participantId=99D0F7217FF246AA89E4375CB9DB4126&assignmentId=d320a248-eb18-4835-8568-1e0b4934048e&projectId=5e631737-0fa4-44a6-b227-7ba1d7345015","99D0F7217FF246AA89E4375CB9DB4126-2025-05-27-18-34-48","","null","","images/instructions/movie_2.png","null","",""
"","","","","","image-button-response","13","184163","0.0-6.0-1.0-1.1","99D0F7217FF246AA89E4375CB9DB4126","99D0F7217FF246AA89E4375CB9DB4126","d320a248-eb18-4835-8568-1e0b4934048e","5e631737-0fa4-44a6-b227-7ba1d7345015","{""num_scrambled_semantic"":""8"",""num_scrambled_causal"":""4"",""num_scrambled_schematic"":""4"",""participantId"":""99D0F7217FF246AA89E4375CB9DB4126"",""assignmentId"":""d320a248-eb18-4835-8568-1e0b4934048e"",""projectId"":""5e631737-0fa4-44a6-b227-7ba1d7345015""}","https://test12345.live/?num_scrambled_semantic=8&num_scrambled_causal=4&num_scrambled_schematic=4&participantId=99D0F7217FF246AA89E4375CB9DB4126&assignmentId=d320a248-eb18-4835-8568-1e0b4934048e&projectId=5e631737-0fa4-44a6-b227-7ba1d7345015","99D0F7217FF246AA89E4375CB9DB4126-2025-05-27-18-34-48","","1850","","images/instructions/movie_2.png","1","",""
"","","","","","image-button-response","14","185979","0.0-6.0-1.0-2.1","99D0F7217FF246AA89E4375CB9DB4126","99D0F7217FF246AA89E4375CB9DB4126","d320a248-eb18-4835-8568-1e0b4934048e","5e631737-0fa4-44a6-b227-7ba1d7345015","{""num_scrambled_semantic"":""8"",""num_scrambled_causal"":""4"",""num_scrambled_schematic"":""4"",""participantId"":""99D0F7217FF246AA89E4375CB9DB4126"",""assignmentId"":""d320a248-eb18-4835-8568-1e0b4934048e"",""projectId"":""5e631737-0fa4-44a6-b227-7ba1d7345015""}","https://test12345.live/?num_scrambled_semantic=8&num_scrambled_causal=4&num_scrambled_schematic=4&participantId=99D0F7217FF246AA89E4375CB9DB4126&assignmentId=d320a248-eb18-4835-8568-1e0b4934048e&projectId=5e631737-0fa4-44a6-b227-7ba1d7345015","99D0F7217FF246AA89E4375CB9DB4126-2025-05-27-18-34-48","","null","","[]","null","",""
"","","","","","image-button-response","15","190494","0.0-6.0-1.0-0.2","99D0F7217FF246AA89E4375CB9DB4126","99D0F7217FF246AA89E4375CB9DB4126","d320a248-eb18-4835-8568-1e0b4934048e","5e631737-0fa4-44a6-b227-7ba1d7345015","{""num_scrambled_semantic"":""8"",""num_scrambled_causal"":""4"",""num_scrambled_schematic"":""4"",""participantId"":""99D0F7217FF246AA89E4375CB9DB4126"",""assignmentId"":""d320a248-eb18-4835-8568-1e0b4934048e"",""projectId"":""5e631737-0fa4-44a6-b227-7ba1d7345015""}","https://test12345.live/?num_scrambled_semantic=8&num_scrambled_causal=4&num_scrambled_schematic=4&participantId=99D0F7217FF246AA89E4375CB9DB4126&assignmentId=d320a248-eb18-4835-8568-1e0b4934048e&projectId=5e631737-0fa4-44a6-b227-7ba1d7345015","99D0F7217FF246AA89E4375CB9DB4126-2025-05-27-18-34-48","","null","","images/instructions/movie_3.png","null","",""
"","","","","","image-button-response","16","191928","0.0-6.0-1.0-1.2","99D0F7217FF246AA89E4375CB9DB4126","99D0F7217FF246AA89E4375CB9DB4126","d320a248-eb18-4835-8568-1e0b4934048e","5e631737-0fa4-44a6-b227-7ba1d7345015","{""num_scrambled_semantic"":""8"",""num_scrambled_causal"":""4"",""num_scrambled_schematic"":""4"",""participantId"":""99D0F7217FF246AA89E4375CB9DB4126"",""assignmentId"":""d320a248-eb18-4835-8568-1e0b4934048e"",""projectId"":""5e631737-0fa4-44a6-b227-7ba1d7345015""}","https://test12345.live/?num_scrambled_semantic=8&num_scrambled_causal=4&num_scrambled_schematic=4&participantId=99D0F7217FF246AA89E4375CB9DB4126&assignmentId=d320a248-eb18-4835-8568-1e0b4934048e&projectId=5e631737-0fa4-44a6-b227-7ba1d7345015","99D0F7217FF246AA89E4375CB9DB4126-2025-05-27-18-34-48","","1432","","images/instructions/movie_3.png","0","",""
"","","","","","image-button-response","17","193731","0.0-6.0-1.0-2.2","99D0F7217FF246AA89E4375CB9DB4126","99D0F7217FF246AA89E4375CB9DB4126","d320a248-eb18-4835-8568-1e0b4934048e","5e631737-0fa4-44a6-b227-7ba1d7345015","{""num_scrambled_semantic"":""8"",""num_scrambled_causal"":""4"",""num_scrambled_schematic"":""4"",""participantId"":""99D0F7217FF246AA89E4375CB9DB4126"",""assignmentId"":""d320a248-eb18-4835-8568-1e0b4934048e"",""projectId"":""5e631737-0fa4-44a6-b227-7ba1d7345015""}","https://test12345.live/?num_scrambled_semantic=8&num_scrambled_causal=4&num_scrambled_schematic=4&participantId=99D0F7217FF246AA89E4375CB9DB4126&assignmentId=d320a248-eb18-4835-8568-1e0b4934048e&projectId=5e631737-0fa4-44a6-b227-7ba1d7345015","99D0F7217FF246AA89E4375CB9DB4126-2025-05-27-18-34-48","","null","","[]","null","",""
"","","","","","image-button-response","18","198241","0.0-6.0-1.0-0.3","99D0F7217FF246AA89E4375CB9DB4126","99D0F7217FF246AA89E4375CB9DB4126","d320a248-eb18-4835-8568-1e0b4934048e","5e631737-0fa4-44a6-b227-7ba1d7345015","{""num_scrambled_semantic"":""8"",""num_scrambled_causal"":""4"",""num_scrambled_schematic"":""4"",""participantId"":""99D0F7217FF246AA89E4375CB9DB4126"",""assignmentId"":""d320a248-eb18-4835-8568-1e0b4934048e"",""projectId"":""5e631737-0fa4-44a6-b227-7ba1d7345015""}","https://test12345.live/?num_scrambled_semantic=8&num_scrambled_causal=4&num_scrambled_schematic=4&participantId=99D0F7217FF246AA89E4375CB9DB4126&assignmentId=d320a248-eb18-4835-8568-1e0b4934048e&projectId=5e631737-0fa4-44a6-b227-7ba1d7345015","99D0F7217FF246AA89E4375CB9DB4126-2025-05-27-18-34-48","","null","","images/instructions/movie_4.png","null","",""
"","","","","","image-button-response","19","199260","0.0-6.0-1.0-1.3","99D0F7217FF246AA89E4375CB9DB4126","99D0F7217FF246AA89E4375CB9DB4126","d320a248-eb18-4835-8568-1e0b4934048e","5e631737-0fa4-44a6-b227-7ba1d7345015","{""num_scrambled_semantic"":""8"",""num_scrambled_causal"":""4"",""num_scrambled_schematic"":""4"",""participantId"":""99D0F7217FF246AA89E4375CB9DB4126"",""assignmentId"":""d320a248-eb18-4835-8568-1e0b4934048e"",""projectId"":""5e631737-0fa4-44a6-b227-7ba1d7345015""}","https://test12345.live/?num_scrambled_semantic=8&num_scrambled_causal=4&num_scrambled_schematic=4&participantId=99D0F7217FF246AA89E4375CB9DB4126&assignmentId=d320a248-eb18-4835-8568-1e0b4934048e&projectId=5e631737-0fa4-44a6-b227-7ba1d7345015","99D0F7217FF246AA89E4375CB9DB4126-2025-05-27-18-34-48","","1018","","images/instructions/movie_4.png","0","",""
"","","","","","image-button-response","20","201074","0.0-6.0-1.0-2.3","99D0F7217FF246AA89E4375CB9DB4126","99D0F7217FF246AA89E4375CB9DB4126","d320a248-eb18-4835-8568-1e0b4934048e","5e631737-0fa4-44a6-b227-7ba1d7345015","{""num_scrambled_semantic"":""8"",""num_scrambled_causal"":""4"",""num_scrambled_schematic"":""4"",""participantId"":""99D0F7217FF246AA89E4375CB9DB4126"",""assignmentId"":""d320a248-eb18-4835-8568-1e0b4934048e"",""projectId"":""5e631737-0fa4-44a6-b227-7ba1d7345015""}","https://test12345.live/?num_scrambled_semantic=8&num_scrambled_causal=4&num_scrambled_schematic=4&participantId=99D0F7217FF246AA89E4375CB9DB4126&assignmentId=d320a248-eb18-4835-8568-1e0b4934048e&projectId=5e631737-0fa4-44a6-b227-7ba1d7345015","99D0F7217FF246AA89E4375CB9DB4126-2025-05-27-18-34-48","","null","","[]","null","",""
"","","","","","instructions","21","224385","0.0-7.0","99D0F7217FF246AA89E4375CB9DB4126","99D0F7217FF246AA89E4375CB9DB4126","d320a248-eb18-4835-8568-1e0b4934048e","5e631737-0fa4-44a6-b227-7ba1d7345015","{""num_scrambled_semantic"":""8"",""num_scrambled_causal"":""4"",""num_scrambled_schematic"":""4"",""participantId"":""99D0F7217FF246AA89E4375CB9DB4126"",""assignmentId"":""d320a248-eb18-4835-8568-1e0b4934048e"",""projectId"":""5e631737-0fa4-44a6-b227-7ba1d7345015""}","https://test12345.live/?num_scrambled_semantic=8&num_scrambled_causal=4&num_scrambled_schematic=4&participantId=99D0F7217FF246AA89E4375CB9DB4126&assignmentId=d320a248-eb18-4835-8568-1e0b4934048e&projectId=5e631737-0fa4-44a6-b227-7ba1d7345015","99D0F7217FF246AA89E4375CB9DB4126-2025-05-27-18-34-48","[{""page_index"":0,""viewing_time"":21495},{""page_index"":1,""viewing_time"":1816}]","23311","","","","",""
"","","","","","html-audio-response","22","295033","0.0-8.0","99D0F7217FF246AA89E4375CB9DB4126","99D0F7217FF246AA89E4375CB9DB4126","d320a248-eb18-4835-8568-1e0b4934048e","5e631737-0fa4-44a6-b227-7ba1d7345015","{""num_scrambled_semantic"":""8"",""num_scrambled_causal"":""4"",""num_scrambled_schematic"":""4"",""participantId"":""99D0F7217FF246AA89E4375CB9DB4126"",""assignmentId"":""d320a248-eb18-4835-8568-1e0b4934048e"",""projectId"":""5e631737-0fa4-44a6-b227-7ba1d7345015""}","https://test12345.live/?num_scrambled_semantic=8&num_scrambled_causal=4&num_scrambled_schematic=4&participantId=99D0F7217FF246AA89E4375CB9DB4126&assignmentId=d320a248-eb18-4835-8568-1e0b4934048e&projectId=5e631737-0fa4-44a6-b227-7ba1d7345015","99D0F7217FF246AA89E4375CB9DB4126-2025-05-27-18-34-48","","31434","","[""<span style=\""color: red; font-size: 24px\""> NOW RECORDING</span><p>Please say out loud all the images you saw in the exact order you saw them. Try to recall as many images as you can, but remember: getting the order right is more important than the number of images you recall.</p>""]","","8",""
"","","","","","instructions","23","297032","0.0-9.0","99D0F7217FF246AA89E4375CB9DB4126","99D0F7217FF246AA89E4375CB9DB4126","d320a248-eb18-4835-8568-1e0b4934048e","5e631737-0fa4-44a6-b227-7ba1d7345015","{""num_scrambled_semantic"":""8"",""num_scrambled_causal"":""4"",""num_scrambled_schematic"":""4"",""participantId"":""99D0F7217FF246AA89E4375CB9DB4126"",""assignmentId"":""d320a248-eb18-4835-8568-1e0b4934048e"",""projectId"":""5e631737-0fa4-44a6-b227-7ba1d7345015""}","https://test12345.live/?num_scrambled_semantic=8&num_scrambled_causal=4&num_scrambled_schematic=4&participantId=99D0F7217FF246AA89E4375CB9DB4126&assignmentId=d320a248-eb18-4835-8568-1e0b4934048e&projectId=5e631737-0fa4-44a6-b227-7ba1d7345015","99D0F7217FF246AA89E4375CB9DB4126-2025-05-27-18-34-48","[{""page_index"":0,""viewing_time"":1990}]","1990","","","","",""
"","","","","","image-button-response","24","303033","0.0-10.0-0.0","99D0F7217FF246AA89E4375CB9DB4126","99D0F7217FF246AA89E4375CB9DB4126","d320a248-eb18-4835-8568-1e0b4934048e","5e631737-0fa4-44a6-b227-7ba1d7345015","{""num_scrambled_semantic"":""8"",""num_scrambled_causal"":""4"",""num_scrambled_schematic"":""4"",""participantId"":""99D0F7217FF246AA89E4375CB9DB4126"",""assignmentId"":""d320a248-eb18-4835-8568-1e0b4934048e"",""projectId"":""5e631737-0fa4-44a6-b227-7ba1d7345015""}","https://test12345.live/?num_scrambled_semantic=8&num_scrambled_causal=4&num_scrambled_schematic=4&participantId=99D0F7217FF246AA89E4375CB9DB4126&assignmentId=d320a248-eb18-4835-8568-1e0b4934048e&projectId=5e631737-0fa4-44a6-b227-7ba1d7345015","99D0F7217FF246AA89E4375CB9DB4126-2025-05-27-18-34-48","","null","","images/semantic_sequence/housework_semantic/housework_semantic_0.png","null","",""
"","","","","","image-button-response","25","307542","0.0-10.0-1.0-0.0","99D0F7217FF246AA89E4375CB9DB4126","99D0F7217FF246AA89E4375CB9DB4126","d320a248-eb18-4835-8568-1e0b4934048e","5e631737-0fa4-44a6-b227-7ba1d7345015","{""num_scrambled_semantic"":""8"",""num_scrambled_causal"":""4"",""num_scrambled_schematic"":""4"",""participantId"":""99D0F7217FF246AA89E4375CB9DB4126"",""assignmentId"":""d320a248-eb18-4835-8568-1e0b4934048e"",""projectId"":""5e631737-0fa4-44a6-b227-7ba1d7345015""}","https://test12345.live/?num_scrambled_semantic=8&num_scrambled_causal=4&num_scrambled_schematic=4&participantId=99D0F7217FF246AA89E4375CB9DB4126&assignmentId=d320a248-eb18-4835-8568-1e0b4934048e&projectId=5e631737-0fa4-44a6-b227-7ba1d7345015","99D0F7217FF246AA89E4375CB9DB4126-2025-05-27-18-34-48","","null","","images/semantic_sequence/housework_semantic/housework_semantic_5.png","null","",""
"","","","","","image-button-response","26","309378","0.0-10.0-1.0-1.0","99D0F7217FF246AA89E4375CB9DB4126","99D0F7217FF246AA89E4375CB9DB4126","d320a248-eb18-4835-8568-1e0b4934048e","5e631737-0fa4-44a6-b227-7ba1d7345015","{""num_scrambled_semantic"":""8"",""num_scrambled_causal"":""4"",""num_scrambled_schematic"":""4"",""participantId"":""99D0F7217FF246AA89E4375CB9DB4126"",""assignmentId"":""d320a248-eb18-4835-8568-1e0b4934048e"",""projectId"":""5e631737-0fa4-44a6-b227-7ba1d7345015""}","https://test12345.live/?num_scrambled_semantic=8&num_scrambled_causal=4&num_scrambled_schematic=4&participantId=99D0F7217FF246AA89E4375CB9DB4126&assignmentId=d320a248-eb18-4835-8568-1e0b4934048e&projectId=5e631737-0fa4-44a6-b227-7ba1d7345015","99D0F7217FF246AA89E4375CB9DB4126-2025-05-27-18-34-48","","1835","","images/semantic_sequence/housework_semantic/housework_semantic_5.png","0","",""
"","","","","","image-button-response","27","311190","0.0-10.0-1.0-2.0","99D0F7217FF246AA89E4375CB9DB4126","99D0F7217FF246AA89E4375CB9DB4126","d320a248-eb18-4835-8568-1e0b4934048e","5e631737-0fa4-44a6-b227-7ba1d7345015","{""num_scrambled_semantic"":""8"",""num_scrambled_causal"":""4"",""num_scrambled_schematic"":""4"",""participantId"":""99D0F7217FF246AA89E4375CB9DB4126"",""assignmentId"":""d320a248-eb18-4835-8568-1e0b4934048e"",""projectId"":""5e631737-0fa4-44a6-b227-7ba1d7345015""}","https://test12345.live/?num_scrambled_semantic=8&num_scrambled_causal=4&num_scrambled_schematic=4&participantId=99D0F7217FF246AA89E4375CB9DB4126&assignmentId=d320a248-eb18-4835-8568-1e0b4934048e&projectId=5e631737-0fa4-44a6-b227-7ba1d7345015","99D0F7217FF246AA89E4375CB9DB4126-2025-05-27-18-34-48","","null","","[]","null","",""
"","","","","","image-button-response","28","315695","0.0-10.0-1.0-0.1","99D0F7217FF246AA89E4375CB9DB4126","99D0F7217FF246AA89E4375CB9DB4126","d320a248-eb18-4835-8568-1e0b4934048e","5e631737-0fa4-44a6-b227-7ba1d7345015","{""num_scrambled_semantic"":""8"",""num_scrambled_causal"":""4"",""num_scrambled_schematic"":""4"",""participantId"":""99D0F7217FF246AA89E4375CB9DB4126"",""assignmentId"":""d320a248-eb18-4835-8568-1e0b4934048e"",""projectId"":""5e631737-0fa4-44a6-b227-7ba1d7345015""}","https://test12345.live/?num_scrambled_semantic=8&num_scrambled_causal=4&num_scrambled_schematic=4&participantId=99D0F7217FF246AA89E4375CB9DB4126&assignmentId=d320a248-eb18-4835-8568-1e0b4934048e&projectId=5e631737-0fa4-44a6-b227-7ba1d7345015","99D0F7217FF246AA89E4375CB9DB4126-2025-05-27-18-34-48","","null","","images/semantic_sequence/housework_semantic/housework_semantic_4.png","null","",""
"","","","","","image-button-response","29","316608","0.0-10.0-1.0-1.1","99D0F7217FF246AA89E4375CB9DB4126","99D0F7217FF246AA89E4375CB9DB4126","d320a248-eb18-4835-8568-1e0b4934048e","5e631737-0fa4-44a6-b227-7ba1d7345015","{""num_scrambled_semantic"":""8"",""num_scrambled_causal"":""4"",""num_scrambled_schematic"":""4"",""participantId"":""99D0F7217FF246AA89E4375CB9DB4126"",""assignmentId"":""d320a248-eb18-4835-8568-1e0b4934048e"",""projectId"":""5e631737-0fa4-44a6-b227-7ba1d7345015""}","https://test12345.live/?num_scrambled_semantic=8&num_scrambled_causal=4&num_scrambled_schematic=4&participantId=99D0F7217FF246AA89E4375CB9DB4126&assignmentId=d320a248-eb18-4835-8568-1e0b4934048e&projectId=5e631737-0fa4-44a6-b227-7ba1d7345015","99D0F7217FF246AA89E4375CB9DB4126-2025-05-27-18-34-48","","912","","images/semantic_sequence/housework_semantic/housework_semantic_4.png","0","",""
"","","","","","image-button-response","30","318409","0.0-10.0-1.0-2.1","99D0F7217FF246AA89E4375CB9DB4126","99D0F7217FF246AA89E4375CB9DB4126","d320a248-eb18-4835-8568-1e0b4934048e","5e631737-0fa4-44a6-b227-7ba1d7345015","{""num_scrambled_semantic"":""8"",""num_scrambled_causal"":""4"",""num_scrambled_schematic"":""4"",""participantId"":""99D0F7217FF246AA89E4375CB9DB4126"",""assignmentId"":""d320a248-eb18-4835-8568-1e0b4934048e"",""projectId"":""5e631737-0fa4-44a6-b227-7ba1d7345015""}","https://test12345.live/?num_scrambled_semantic=8&num_scrambled_causal=4&num_scrambled_schematic=4&participantId=99D0F7217FF246AA89E4375CB9DB4126&assignmentId=d320a248-eb18-4835-8568-1e0b4934048e&projectId=5e631737-0fa4-44a6-b227-7ba1d7345015","99D0F7217FF246AA89E4375CB9DB4126-2025-05-27-18-34-48","","null","","[]","null","",""
"","","","","","image-button-response","31","322913","0.0-10.0-1.0-0.2","99D0F7217FF246AA89E4375CB9DB4126","99D0F7217FF246AA89E4375CB9DB4126","d320a248-eb18-4835-8568-1e0b4934048e","5e631737-0fa4-44a6-b227-7ba1d7345015","{""num_scrambled_semantic"":""8"",""num_scrambled_causal"":""4"",""num_scrambled_schematic"":""4"",""participantId"":""99D0F7217FF246AA89E4375CB9DB4126"",""assignmentId"":""d320a248-eb18-4835-8568-1e0b4934048e"",""projectId"":""5e631737-0fa4-44a6-b227-7ba1d7345015""}","https://test12345.live/?num_scrambled_semantic=8&num_scrambled_causal=4&num_scrambled_schematic=4&participantId=99D0F7217FF246AA89E4375CB9DB4126&assignmentId=d320a248-eb18-4835-8568-1e0b4934048e&projectId=5e631737-0fa4-44a6-b227-7ba1d7345015","99D0F7217FF246AA89E4375CB9DB4126-2025-05-27-18-34-48","","null","","images/semantic_sequence/housework_semantic/housework_semantic_7.png","null","",""
"","","","","","image-button-response","32","323988","0.0-10.0-1.0-1.2","99D0F7217FF246AA89E4375CB9DB4126","99D0F7217FF246AA89E4375CB9DB4126","d320a248-eb18-4835-8568-1e0b4934048e","5e631737-0fa4-44a6-b227-7ba1d7345015","{""num_scrambled_semantic"":""8"",""num_scrambled_causal"":""4"",""num_scrambled_schematic"":""4"",""participantId"":""99D0F7217FF246AA89E4375CB9DB4126"",""assignmentId"":""d320a248-eb18-4835-8568-1e0b4934048e"",""projectId"":""5e631737-0fa4-44a6-b227-7ba1d7345015""}","https://test12345.live/?num_scrambled_semantic=8&num_scrambled_causal=4&num_scrambled_schematic=4&participantId=99D0F7217FF246AA89E4375CB9DB4126&assignmentId=d320a248-eb18-4835-8568-1e0b4934048e&projectId=5e631737-0fa4-44a6-b227-7ba1d7345015","99D0F7217FF246AA89E4375CB9DB4126-2025-05-27-18-34-48","","1074","","images/semantic_sequence/housework_semantic/housework_semantic_7.png","0","",""
"","","","","","image-button-response","33","325801","0.0-10.0-1.0-2.2","99D0F7217FF246AA89E4375CB9DB4126","99D0F7217FF246AA89E4375CB9DB4126","d320a248-eb18-4835-8568-1e0b4934048e","5e631737-0fa4-44a6-b227-7ba1d7345015","{""num_scrambled_semantic"":""8"",""num_scrambled_causal"":""4"",""num_scrambled_schematic"":""4"",""participantId"":""99D0F7217FF246AA89E4375CB9DB4126"",""assignmentId"":""d320a248-eb18-4835-8568-1e0b4934048e"",""projectId"":""5e631737-0fa4-44a6-b227-7ba1d7345015""}","https://test12345.live/?num_scrambled_semantic=8&num_scrambled_causal=4&num_scrambled_schematic=4&participantId=99D0F7217FF246AA89E4375CB9DB4126&assignmentId=d320a248-eb18-4835-8568-1e0b4934048e&projectId=5e631737-0fa4-44a6-b227-7ba1d7345015","99D0F7217FF246AA89E4375CB9DB4126-2025-05-27-18-34-48","","null","","[]","null","",""
"","","","","","image-button-response","34","330304","0.0-10.0-1.0-0.3","99D0F7217FF246AA89E4375CB9DB4126","99D0F7217FF246AA89E4375CB9DB4126","d320a248-eb18-4835-8568-1e0b4934048e","5e631737-0fa4-44a6-b227-7ba1d7345015","{""num_scrambled_semantic"":""8"",""num_scrambled_causal"":""4"",""num_scrambled_schematic"":""4"",""participantId"":""99D0F7217FF246AA89E4375CB9DB4126"",""assignmentId"":""d320a248-eb18-4835-8568-1e0b4934048e"",""projectId"":""5e631737-0fa4-44a6-b227-7ba1d7345015""}","https://test12345.live/?num_scrambled_semantic=8&num_scrambled_causal=4&num_scrambled_schematic=4&participantId=99D0F7217FF246AA89E4375CB9DB4126&assignmentId=d320a248-eb18-4835-8568-1e0b4934048e&projectId=5e631737-0fa4-44a6-b227-7ba1d7345015","99D0F7217FF246AA89E4375CB9DB4126-2025-05-27-18-34-48","","null","","images/semantic_sequence/housework_semantic/housework_semantic_1.png","null","",""
"","","","","","image-button-response","35","332153","0.0-10.0-1.0-1.3","99D0F7217FF246AA89E4375CB9DB4126","99D0F7217FF246AA89E4375CB9DB4126","d320a248-eb18-4835-8568-1e0b4934048e","5e631737-0fa4-44a6-b227-7ba1d7345015","{""num_scrambled_semantic"":""8"",""num_scrambled_causal"":""4"",""num_scrambled_schematic"":""4"",""participantId"":""99D0F7217FF246AA89E4375CB9DB4126"",""assignmentId"":""d320a248-eb18-4835-8568-1e0b4934048e"",""projectId"":""5e631737-0fa4-44a6-b227-7ba1d7345015""}","https://test12345.live/?num_scrambled_semantic=8&num_scrambled_causal=4&num_scrambled_schematic=4&participantId=99D0F7217FF246AA89E4375CB9DB4126&assignmentId=d320a248-eb18-4835-8568-1e0b4934048e&projectId=5e631737-0fa4-44a6-b227-7ba1d7345015","99D0F7217FF246AA89E4375CB9DB4126-2025-05-27-18-34-48","","1848","","images/semantic_sequence/housework_semantic/housework_semantic_1.png","1","",""
"","","","","","image-button-response","36","333967","0.0-10.0-1.0-2.3","99D0F7217FF246AA89E4375CB9DB4126","99D0F7217FF246AA89E4375CB9DB4126","d320a248-eb18-4835-8568-1e0b4934048e","5e631737-0fa4-44a6-b227-7ba1d7345015","{""num_scrambled_semantic"":""8"",""num_scrambled_causal"":""4"",""num_scrambled_schematic"":""4"",""participantId"":""99D0F7217FF246AA89E4375CB9DB4126"",""assignmentId"":""d320a248-eb18-4835-8568-1e0b4934048e"",""projectId"":""5e631737-0fa4-44a6-b227-7ba1d7345015""}","https://test12345.live/?num_scrambled_semantic=8&num_scrambled_causal=4&num_scrambled_schematic=4&participantId=99D0F7217FF246AA89E4375CB9DB4126&assignmentId=d320a248-eb18-4835-8568-1e0b4934048e&projectId=5e631737-0fa4-44a6-b227-7ba1d7345015","99D0F7217FF246AA89E4375CB9DB4126-2025-05-27-18-34-48","","null","","[]","null","",""
"","","","","","image-button-response","37","338480","0.0-10.0-1.0-0.4","99D0F7217FF246AA89E4375CB9DB4126","99D0F7217FF246AA89E4375CB9DB4126","d320a248-eb18-4835-8568-1e0b4934048e","5e631737-0fa4-44a6-b227-7ba1d7345015","{""num_scrambled_semantic"":""8"",""num_scrambled_causal"":""4"",""num_scrambled_schematic"":""4"",""participantId"":""99D0F7217FF246AA89E4375CB9DB4126"",""assignmentId"":""d320a248-eb18-4835-8568-1e0b4934048e"",""projectId"":""5e631737-0fa4-44a6-b227-7ba1d7345015""}","https://test12345.live/?num_scrambled_semantic=8&num_scrambled_causal=4&num_scrambled_schematic=4&participantId=99D0F7217FF246AA89E4375CB9DB4126&assignmentId=d320a248-eb18-4835-8568-1e0b4934048e&projectId=5e631737-0fa4-44a6-b227-7ba1d7345015","99D0F7217FF246AA89E4375CB9DB4126-2025-05-27-18-34-48","","null","","images/semantic_sequence/housework_semantic/housework_semantic_ten.png","null","",""
"","","","","","image-button-response","38","340259","0.0-10.0-1.0-1.4","99D0F7217FF246AA89E4375CB9DB4126","99D0F7217FF246AA89E4375CB9DB4126","d320a248-eb18-4835-8568-1e0b4934048e","5e631737-0fa4-44a6-b227-7ba1d7345015","{""num_scrambled_semantic"":""8"",""num_scrambled_causal"":""4"",""num_scrambled_schematic"":""4"",""participantId"":""99D0F7217FF246AA89E4375CB9DB4126"",""assignmentId"":""d320a248-eb18-4835-8568-1e0b4934048e"",""projectId"":""5e631737-0fa4-44a6-b227-7ba1d7345015""}","https://test12345.live/?num_scrambled_semantic=8&num_scrambled_causal=4&num_scrambled_schematic=4&participantId=99D0F7217FF246AA89E4375CB9DB4126&assignmentId=d320a248-eb18-4835-8568-1e0b4934048e&projectId=5e631737-0fa4-44a6-b227-7ba1d7345015","99D0F7217FF246AA89E4375CB9DB4126-2025-05-27-18-34-48","","1779","","images/semantic_sequence/housework_semantic/housework_semantic_ten.png","0","",""
"","","","","","image-button-response","39","342067","0.0-10.0-1.0-2.4","99D0F7217FF246AA89E4375CB9DB4126","99D0F7217FF246AA89E4375CB9DB4126","d320a248-eb18-4835-8568-1e0b4934048e","5e631737-0fa4-44a6-b227-7ba1d7345015","{""num_scrambled_semantic"":""8"",""num_scrambled_causal"":""4"",""num_scrambled_schematic"":""4"",""participantId"":""99D0F7217FF246AA89E4375CB9DB4126"",""assignmentId"":""d320a248-eb18-4835-8568-1e0b4934048e"",""projectId"":""5e631737-0fa4-44a6-b227-7ba1d7345015""}","https://test12345.live/?num_scrambled_semantic=8&num_scrambled_causal=4&num_scrambled_schematic=4&participantId=99D0F7217FF246AA89E4375CB9DB4126&assignmentId=d320a248-eb18-4835-8568-1e0b4934048e&projectId=5e631737-0fa4-44a6-b227-7ba1d7345015","99D0F7217FF246AA89E4375CB9DB4126-2025-05-27-18-34-48","","null","","[]","null","",""
"","","","","","image-button-response","40","346575","0.0-10.0-1.0-0.5","99D0F7217FF246AA89E4375CB9DB4126","99D0F7217FF246AA89E4375CB9DB4126","d320a248-eb18-4835-8568-1e0b4934048e","5e631737-0fa4-44a6-b227-7ba1d7345015","{""num_scrambled_semantic"":""8"",""num_scrambled_causal"":""4"",""num_scrambled_schematic"":""4"",""participantId"":""99D0F7217FF246AA89E4375CB9DB4126"",""assignmentId"":""d320a248-eb18-4835-8568-1e0b4934048e"",""projectId"":""5e631737-0fa4-44a6-b227-7ba1d7345015""}","https://test12345.live/?num_scrambled_semantic=8&num_scrambled_causal=4&num_scrambled_schematic=4&participantId=99D0F7217FF246AA89E4375CB9DB4126&assignmentId=d320a248-eb18-4835-8568-1e0b4934048e&projectId=5e631737-0fa4-44a6-b227-7ba1d7345015","99D0F7217FF246AA89E4375CB9DB4126-2025-05-27-18-34-48","","null","","images/semantic_sequence/housework_semantic/housework_semantic_3.png","null","",""
"","","","","","image-button-response","41","348201","0.0-10.0-1.0-1.5","99D0F7217FF246AA89E4375CB9DB4126","99D0F7217FF246AA89E4375CB9DB4126","d320a248-eb18-4835-8568-1e0b4934048e","5e631737-0fa4-44a6-b227-7ba1d7345015","{""num_scrambled_semantic"":""8"",""num_scrambled_causal"":""4"",""num_scrambled_schematic"":""4"",""participantId"":""99D0F7217FF246AA89E4375CB9DB4126"",""assignmentId"":""d320a248-eb18-4835-8568-1e0b4934048e"",""projectId"":""5e631737-0fa4-44a6-b227-7ba1d7345015""}","https://test12345.live/?num_scrambled_semantic=8&num_scrambled_causal=4&num_scrambled_schematic=4&participantId=99D0F7217FF246AA89E4375CB9DB4126&assignmentId=d320a248-eb18-4835-8568-1e0b4934048e&projectId=5e631737-0fa4-44a6-b227-7ba1d7345015","99D0F7217FF246AA89E4375CB9DB4126-2025-05-27-18-34-48","","1623","","images/semantic_sequence/housework_semantic/housework_semantic_3.png","0","",""
"","","","","","image-button-response","42","350002","0.0-10.0-1.0-2.5","99D0F7217FF246AA89E4375CB9DB4126","99D0F7217FF246AA89E4375CB9DB4126","d320a248-eb18-4835-8568-1e0b4934048e","5e631737-0fa4-44a6-b227-7ba1d7345015","{""num_scrambled_semantic"":""8"",""num_scrambled_causal"":""4"",""num_scrambled_schematic"":""4"",""participantId"":""99D0F7217FF246AA89E4375CB9DB4126"",""assignmentId"":""d320a248-eb18-4835-8568-1e0b4934048e"",""projectId"":""5e631737-0fa4-44a6-b227-7ba1d7345015""}","https://test12345.live/?num_scrambled_semantic=8&num_scrambled_causal=4&num_scrambled_schematic=4&participantId=99D0F7217FF246AA89E4375CB9DB4126&assignmentId=d320a248-eb18-4835-8568-1e0b4934048e&projectId=5e631737-0fa4-44a6-b227-7ba1d7345015","99D0F7217FF246AA89E4375CB9DB4126-2025-05-27-18-34-48","","null","","[]","null","",""
"","","","","","image-button-response","43","354512","0.0-10.0-1.0-0.6","99D0F7217FF246AA89E4375CB9DB4126","99D0F7217FF246AA89E4375CB9DB4126","d320a248-eb18-4835-8568-1e0b4934048e","5e631737-0fa4-44a6-b227-7ba1d7345015","{""num_scrambled_semantic"":""8"",""num_scrambled_causal"":""4"",""num_scrambled_schematic"":""4"",""participantId"":""99D0F7217FF246AA89E4375CB9DB4126"",""assignmentId"":""d320a248-eb18-4835-8568-1e0b4934048e"",""projectId"":""5e631737-0fa4-44a6-b227-7ba1d7345015""}","https://test12345.live/?num_scrambled_semantic=8&num_scrambled_causal=4&num_scrambled_schematic=4&participantId=99D0F7217FF246AA89E4375CB9DB4126&assignmentId=d320a248-eb18-4835-8568-1e0b4934048e&projectId=5e631737-0fa4-44a6-b227-7ba1d7345015","99D0F7217FF246AA89E4375CB9DB4126-2025-05-27-18-34-48","","null","","images/semantic_sequence/housework_semantic/housework_semantic_9.png","null","",""
"","","","","","image-button-response","44","356709","0.0-10.0-1.0-1.6","99D0F7217FF246AA89E4375CB9DB4126","99D0F7217FF246AA89E4375CB9DB4126","d320a248-eb18-4835-8568-1e0b4934048e","5e631737-0fa4-44a6-b227-7ba1d7345015","{""num_scrambled_semantic"":""8"",""num_scrambled_causal"":""4"",""num_scrambled_schematic"":""4"",""participantId"":""99D0F7217FF246AA89E4375CB9DB4126"",""assignmentId"":""d320a248-eb18-4835-8568-1e0b4934048e"",""projectId"":""5e631737-0fa4-44a6-b227-7ba1d7345015""}","https://test12345.live/?num_scrambled_semantic=8&num_scrambled_causal=4&num_scrambled_schematic=4&participantId=99D0F7217FF246AA89E4375CB9DB4126&assignmentId=d320a248-eb18-4835-8568-1e0b4934048e&projectId=5e631737-0fa4-44a6-b227-7ba1d7345015","99D0F7217FF246AA89E4375CB9DB4126-2025-05-27-18-34-48","","2195","","images/semantic_sequence/housework_semantic/housework_semantic_9.png","0","",""
"","","","","","image-button-response","45","358523","0.0-10.0-1.0-2.6","99D0F7217FF246AA89E4375CB9DB4126","99D0F7217FF246AA89E4375CB9DB4126","d320a248-eb18-4835-8568-1e0b4934048e","5e631737-0fa4-44a6-b227-7ba1d7345015","{""num_scrambled_semantic"":""8"",""num_scrambled_causal"":""4"",""num_scrambled_schematic"":""4"",""participantId"":""99D0F7217FF246AA89E4375CB9DB4126"",""assignmentId"":""d320a248-eb18-4835-8568-1e0b4934048e"",""projectId"":""5e631737-0fa4-44a6-b227-7ba1d7345015""}","https://test12345.live/?num_scrambled_semantic=8&num_scrambled_causal=4&num_scrambled_schematic=4&participantId=99D0F7217FF246AA89E4375CB9DB4126&assignmentId=d320a248-eb18-4835-8568-1e0b4934048e&projectId=5e631737-0fa4-44a6-b227-7ba1d7345015","99D0F7217FF246AA89E4375CB9DB4126-2025-05-27-18-34-48","","null","","[]","null","",""
"","","","","","image-button-response","46","363026","0.0-10.0-1.0-0.7","99D0F7217FF246AA89E4375CB9DB4126","99D0F7217FF246AA89E4375CB9DB4126","d320a248-eb18-4835-8568-1e0b4934048e","5e631737-0fa4-44a6-b227-7ba1d7345015","{""num_scrambled_semantic"":""8"",""num_scrambled_causal"":""4"",""num_scrambled_schematic"":""4"",""participantId"":""99D0F7217FF246AA89E4375CB9DB4126"",""assignmentId"":""d320a248-eb18-4835-8568-1e0b4934048e"",""projectId"":""5e631737-0fa4-44a6-b227-7ba1d7345015""}","https://test12345.live/?num_scrambled_semantic=8&num_scrambled_causal=4&num_scrambled_schematic=4&participantId=99D0F7217FF246AA89E4375CB9DB4126&assignmentId=d320a248-eb18-4835-8568-1e0b4934048e&projectId=5e631737-0fa4-44a6-b227-7ba1d7345015","99D0F7217FF246AA89E4375CB9DB4126-2025-05-27-18-34-48","","null","","images/semantic_sequence/housework_semantic/housework_semantic_8.png","null","",""
"","","","","","image-button-response","47","364962","0.0-10.0-1.0-1.7","99D0F7217FF246AA89E4375CB9DB4126","99D0F7217FF246AA89E4375CB9DB4126","d320a248-eb18-4835-8568-1e0b4934048e","5e631737-0fa4-44a6-b227-7ba1d7345015","{""num_scrambled_semantic"":""8"",""num_scrambled_causal"":""4"",""num_scrambled_schematic"":""4"",""participantId"":""99D0F7217FF246AA89E4375CB9DB4126"",""assignmentId"":""d320a248-eb18-4835-8568-1e0b4934048e"",""projectId"":""5e631737-0fa4-44a6-b227-7ba1d7345015""}","https://test12345.live/?num_scrambled_semantic=8&num_scrambled_causal=4&num_scrambled_schematic=4&participantId=99D0F7217FF246AA89E4375CB9DB4126&assignmentId=d320a248-eb18-4835-8568-1e0b4934048e&projectId=5e631737-0fa4-44a6-b227-7ba1d7345015","99D0F7217FF246AA89E4375CB9DB4126-2025-05-27-18-34-48","","1935","","images/semantic_sequence/housework_semantic/housework_semantic_8.png","0","",""
"","","","","","image-button-response","48","366777","0.0-10.0-1.0-2.7","99D0F7217FF246AA89E4375CB9DB4126","99D0F7217FF246AA89E4375CB9DB4126","d320a248-eb18-4835-8568-1e0b4934048e","5e631737-0fa4-44a6-b227-7ba1d7345015","{""num_scrambled_semantic"":""8"",""num_scrambled_causal"":""4"",""num_scrambled_schematic"":""4"",""participantId"":""99D0F7217FF246AA89E4375CB9DB4126"",""assignmentId"":""d320a248-eb18-4835-8568-1e0b4934048e"",""projectId"":""5e631737-0fa4-44a6-b227-7ba1d7345015""}","https://test12345.live/?num_scrambled_semantic=8&num_scrambled_causal=4&num_scrambled_schematic=4&participantId=99D0F7217FF246AA89E4375CB9DB4126&assignmentId=d320a248-eb18-4835-8568-1e0b4934048e&projectId=5e631737-0fa4-44a6-b227-7ba1d7345015","99D0F7217FF246AA89E4375CB9DB4126-2025-05-27-18-34-48","","null","","[]","null","",""
"","","","","","image-button-response","49","371284","0.0-10.0-1.0-0.8","99D0F7217FF246AA89E4375CB9DB4126","99D0F7217FF246AA89E4375CB9DB4126","d320a248-eb18-4835-8568-1e0b4934048e","5e631737-0fa4-44a6-b227-7ba1d7345015","{""num_scrambled_semantic"":""8"",""num_scrambled_causal"":""4"",""num_scrambled_schematic"":""4"",""participantId"":""99D0F7217FF246AA89E4375CB9DB4126"",""assignmentId"":""d320a248-eb18-4835-8568-1e0b4934048e"",""projectId"":""5e631737-0fa4-44a6-b227-7ba1d7345015""}","https://test12345.live/?num_scrambled_semantic=8&num_scrambled_causal=4&num_scrambled_schematic=4&participantId=99D0F7217FF246AA89E4375CB9DB4126&assignmentId=d320a248-eb18-4835-8568-1e0b4934048e&projectId=5e631737-0fa4-44a6-b227-7ba1d7345015","99D0F7217FF246AA89E4375CB9DB4126-2025-05-27-18-34-48","","null","","images/semantic_sequence/housework_semantic/housework_semantic_6.png","null","",""
"","","","","","image-button-response","50","373206","0.0-10.0-1.0-1.8","99D0F7217FF246AA89E4375CB9DB4126","99D0F7217FF246AA89E4375CB9DB4126","d320a248-eb18-4835-8568-1e0b4934048e","5e631737-0fa4-44a6-b227-7ba1d7345015","{""num_scrambled_semantic"":""8"",""num_scrambled_causal"":""4"",""num_scrambled_schematic"":""4"",""participantId"":""99D0F7217FF246AA89E4375CB9DB4126"",""assignmentId"":""d320a248-eb18-4835-8568-1e0b4934048e"",""projectId"":""5e631737-0fa4-44a6-b227-7ba1d7345015""}","https://test12345.live/?num_scrambled_semantic=8&num_scrambled_causal=4&num_scrambled_schematic=4&participantId=99D0F7217FF246AA89E4375CB9DB4126&assignmentId=d320a248-eb18-4835-8568-1e0b4934048e&projectId=5e631737-0fa4-44a6-b227-7ba1d7345015","99D0F7217FF246AA89E4375CB9DB4126-2025-05-27-18-34-48","","1920","","images/semantic_sequence/housework_semantic/housework_semantic_6.png","0","",""
"","","","","","image-button-response","51","375010","0.0-10.0-1.0-2.8","99D0F7217FF246AA89E4375CB9DB4126","99D0F7217FF246AA89E4375CB9DB4126","d320a248-eb18-4835-8568-1e0b4934048e","5e631737-0fa4-44a6-b227-7ba1d7345015","{""num_scrambled_semantic"":""8"",""num_scrambled_causal"":""4"",""num_scrambled_schematic"":""4"",""participantId"":""99D0F7217FF246AA89E4375CB9DB4126"",""assignmentId"":""d320a248-eb18-4835-8568-1e0b4934048e"",""projectId"":""5e631737-0fa4-44a6-b227-7ba1d7345015""}","https://test12345.live/?num_scrambled_semantic=8&num_scrambled_causal=4&num_scrambled_schematic=4&participantId=99D0F7217FF246AA89E4375CB9DB4126&assignmentId=d320a248-eb18-4835-8568-1e0b4934048e&projectId=5e631737-0fa4-44a6-b227-7ba1d7345015","99D0F7217FF246AA89E4375CB9DB4126-2025-05-27-18-34-48","","null","","[]","null","",""
"","","","","","image-button-response","52","379511","0.0-10.0-1.0-0.9","99D0F7217FF246AA89E4375CB9DB4126","99D0F7217FF246AA89E4375CB9DB4126","d320a248-eb18-4835-8568-1e0b4934048e","5e631737-0fa4-44a6-b227-7ba1d7345015","{""num_scrambled_semantic"":""8"",""num_scrambled_causal"":""4"",""num_scrambled_schematic"":""4"",""participantId"":""99D0F7217FF246AA89E4375CB9DB4126"",""assignmentId"":""d320a248-eb18-4835-8568-1e0b4934048e"",""projectId"":""5e631737-0fa4-44a6-b227-7ba1d7345015""}","https://test12345.live/?num_scrambled_semantic=8&num_scrambled_causal=4&num_scrambled_schematic=4&participantId=99D0F7217FF246AA89E4375CB9DB4126&assignmentId=d320a248-eb18-4835-8568-1e0b4934048e&projectId=5e631737-0fa4-44a6-b227-7ba1d7345015","99D0F7217FF246AA89E4375CB9DB4126-2025-05-27-18-34-48","","null","","images/semantic_sequence/housework_semantic/housework_semantic_2.png","null","",""
"","","","","","image-button-response","53","381026","0.0-10.0-1.0-1.9","99D0F7217FF246AA89E4375CB9DB4126","99D0F7217FF246AA89E4375CB9DB4126","d320a248-eb18-4835-8568-1e0b4934048e","5e631737-0fa4-44a6-b227-7ba1d7345015","{""num_scrambled_semantic"":""8"",""num_scrambled_causal"":""4"",""num_scrambled_schematic"":""4"",""participantId"":""99D0F7217FF246AA89E4375CB9DB4126"",""assignmentId"":""d320a248-eb18-4835-8568-1e0b4934048e"",""projectId"":""5e631737-0fa4-44a6-b227-7ba1d7345015""}","https://test12345.live/?num_scrambled_semantic=8&num_scrambled_causal=4&num_scrambled_schematic=4&participantId=99D0F7217FF246AA89E4375CB9DB4126&assignmentId=d320a248-eb18-4835-8568-1e0b4934048e&projectId=5e631737-0fa4-44a6-b227-7ba1d7345015","99D0F7217FF246AA89E4375CB9DB4126-2025-05-27-18-34-48","","1514","","images/semantic_sequence/housework_semantic/housework_semantic_2.png","0","",""
"","","","","","image-button-response","54","382834","0.0-10.0-1.0-2.9","99D0F7217FF246AA89E4375CB9DB4126","99D0F7217FF246AA89E4375CB9DB4126","d320a248-eb18-4835-8568-1e0b4934048e","5e631737-0fa4-44a6-b227-7ba1d7345015","{""num_scrambled_semantic"":""8"",""num_scrambled_causal"":""4"",""num_scrambled_schematic"":""4"",""participantId"":""99D0F7217FF246AA89E4375CB9DB4126"",""assignmentId"":""d320a248-eb18-4835-8568-1e0b4934048e"",""projectId"":""5e631737-0fa4-44a6-b227-7ba1d7345015""}","https://test12345.live/?num_scrambled_semantic=8&num_scrambled_causal=4&num_scrambled_schematic=4&participantId=99D0F7217FF246AA89E4375CB9DB4126&assignmentId=d320a248-eb18-4835-8568-1e0b4934048e&projectId=5e631737-0fa4-44a6-b227-7ba1d7345015","99D0F7217FF246AA89E4375CB9DB4126-2025-05-27-18-34-48","","null","","[]","null","",""
"","","","","","html-audio-response","55","452995","0.0-11.0","99D0F7217FF246AA89E4375CB9DB4126","99D0F7217FF246AA89E4375CB9DB4126","d320a248-eb18-4835-8568-1e0b4934048e","5e631737-0fa4-44a6-b227-7ba1d7345015","{""num_scrambled_semantic"":""8"",""num_scrambled_causal"":""4"",""num_scrambled_schematic"":""4"",""participantId"":""99D0F7217FF246AA89E4375CB9DB4126"",""assignmentId"":""d320a248-eb18-4835-8568-1e0b4934048e"",""projectId"":""5e631737-0fa4-44a6-b227-7ba1d7345015""}","https://test12345.live/?num_scrambled_semantic=8&num_scrambled_causal=4&num_scrambled_schematic=4&participantId=99D0F7217FF246AA89E4375CB9DB4126&assignmentId=d320a248-eb18-4835-8568-1e0b4934048e&projectId=5e631737-0fa4-44a6-b227-7ba1d7345015","99D0F7217FF246AA89E4375CB9DB4126-2025-05-27-18-34-48","","48681","","[""<span style=\""color: red; font-size: 24px\""> NOW RECORDING</span><p>Please say out loud all the images you saw, in the exact order you saw them. Try to recall as many images as you can, but remember: getting the order right is more important than the number of images you recall.</p>""]","","3","housework_semantic"
"","","","","","image-button-response","56","459019","0.0-12.0-0.0","99D0F7217FF246AA89E4375CB9DB4126","99D0F7217FF246AA89E4375CB9DB4126","d320a248-eb18-4835-8568-1e0b4934048e","5e631737-0fa4-44a6-b227-7ba1d7345015","{""num_scrambled_semantic"":""8"",""num_scrambled_causal"":""4"",""num_scrambled_schematic"":""4"",""participantId"":""99D0F7217FF246AA89E4375CB9DB4126"",""assignmentId"":""d320a248-eb18-4835-8568-1e0b4934048e"",""projectId"":""5e631737-0fa4-44a6-b227-7ba1d7345015""}","https://test12345.live/?num_scrambled_semantic=8&num_scrambled_causal=4&num_scrambled_schematic=4&participantId=99D0F7217FF246AA89E4375CB9DB4126&assignmentId=d320a248-eb18-4835-8568-1e0b4934048e&projectId=5e631737-0fa4-44a6-b227-7ba1d7345015","99D0F7217FF246AA89E4375CB9DB4126-2025-05-27-18-34-48","","null","","images/causal_sequence/saving_a_cat_causal/saving_a_cat_causal_0.png","null","",""
"","","","","","image-button-response","57","463528","0.0-12.0-1.0-0.0","99D0F7217FF246AA89E4375CB9DB4126","99D0F7217FF246AA89E4375CB9DB4126","d320a248-eb18-4835-8568-1e0b4934048e","5e631737-0fa4-44a6-b227-7ba1d7345015","{""num_scrambled_semantic"":""8"",""num_scrambled_causal"":""4"",""num_scrambled_schematic"":""4"",""participantId"":""99D0F7217FF246AA89E4375CB9DB4126"",""assignmentId"":""d320a248-eb18-4835-8568-1e0b4934048e"",""projectId"":""5e631737-0fa4-44a6-b227-7ba1d7345015""}","https://test12345.live/?num_scrambled_semantic=8&num_scrambled_causal=4&num_scrambled_schematic=4&participantId=99D0F7217FF246AA89E4375CB9DB4126&assignmentId=d320a248-eb18-4835-8568-1e0b4934048e&projectId=5e631737-0fa4-44a6-b227-7ba1d7345015","99D0F7217FF246AA89E4375CB9DB4126-2025-05-27-18-34-48","","null","","images/causal_sequence/saving_a_cat_causal/saving_a_cat_causal_1.png","null","",""
"","","","","","image-button-response","58","464758","0.0-12.0-1.0-1.0","99D0F7217FF246AA89E4375CB9DB4126","99D0F7217FF246AA89E4375CB9DB4126","d320a248-eb18-4835-8568-1e0b4934048e","5e631737-0fa4-44a6-b227-7ba1d7345015","{""num_scrambled_semantic"":""8"",""num_scrambled_causal"":""4"",""num_scrambled_schematic"":""4"",""participantId"":""99D0F7217FF246AA89E4375CB9DB4126"",""assignmentId"":""d320a248-eb18-4835-8568-1e0b4934048e"",""projectId"":""5e631737-0fa4-44a6-b227-7ba1d7345015""}","https://test12345.live/?num_scrambled_semantic=8&num_scrambled_causal=4&num_scrambled_schematic=4&participantId=99D0F7217FF246AA89E4375CB9DB4126&assignmentId=d320a248-eb18-4835-8568-1e0b4934048e&projectId=5e631737-0fa4-44a6-b227-7ba1d7345015","99D0F7217FF246AA89E4375CB9DB4126-2025-05-27-18-34-48","","1229","","images/causal_sequence/saving_a_cat_causal/saving_a_cat_causal_1.png","0","",""
"","","","","","image-button-response","59","466565","0.0-12.0-1.0-2.0","99D0F7217FF246AA89E4375CB9DB4126","99D0F7217FF246AA89E4375CB9DB4126","d320a248-eb18-4835-8568-1e0b4934048e","5e631737-0fa4-44a6-b227-7ba1d7345015","{""num_scrambled_semantic"":""8"",""num_scrambled_causal"":""4"",""num_scrambled_schematic"":""4"",""participantId"":""99D0F7217FF246AA89E4375CB9DB4126"",""assignmentId"":""d320a248-eb18-4835-8568-1e0b4934048e"",""projectId"":""5e631737-0fa4-44a6-b227-7ba1d7345015""}","https://test12345.live/?num_scrambled_semantic=8&num_scrambled_causal=4&num_scrambled_schematic=4&participantId=99D0F7217FF246AA89E4375CB9DB4126&assignmentId=d320a248-eb18-4835-8568-1e0b4934048e&projectId=5e631737-0fa4-44a6-b227-7ba1d7345015","99D0F7217FF246AA89E4375CB9DB4126-2025-05-27-18-34-48","","null","","[]","null","",""
"","","","","","image-button-response","60","471073","0.0-12.0-1.0-0.1","99D0F7217FF246AA89E4375CB9DB4126","99D0F7217FF246AA89E4375CB9DB4126","d320a248-eb18-4835-8568-1e0b4934048e","5e631737-0fa4-44a6-b227-7ba1d7345015","{""num_scrambled_semantic"":""8"",""num_scrambled_causal"":""4"",""num_scrambled_schematic"":""4"",""participantId"":""99D0F7217FF246AA89E4375CB9DB4126"",""assignmentId"":""d320a248-eb18-4835-8568-1e0b4934048e"",""projectId"":""5e631737-0fa4-44a6-b227-7ba1d7345015""}","https://test12345.live/?num_scrambled_semantic=8&num_scrambled_causal=4&num_scrambled_schematic=4&participantId=99D0F7217FF246AA89E4375CB9DB4126&assignmentId=d320a248-eb18-4835-8568-1e0b4934048e&projectId=5e631737-0fa4-44a6-b227-7ba1d7345015","99D0F7217FF246AA89E4375CB9DB4126-2025-05-27-18-34-48","","null","","images/causal_sequence/saving_a_cat_causal/saving_a_cat_causal_7.png","null","",""
"","","","","","image-button-response","61","473602","0.0-12.0-1.0-1.1","99D0F7217FF246AA89E4375CB9DB4126","99D0F7217FF246AA89E4375CB9DB4126","d320a248-eb18-4835-8568-1e0b4934048e","5e631737-0fa4-44a6-b227-7ba1d7345015","{""num_scrambled_semantic"":""8"",""num_scrambled_causal"":""4"",""num_scrambled_schematic"":""4"",""participantId"":""99D0F7217FF246AA89E4375CB9DB4126"",""assignmentId"":""d320a248-eb18-4835-8568-1e0b4934048e"",""projectId"":""5e631737-0fa4-44a6-b227-7ba1d7345015""}","https://test12345.live/?num_scrambled_semantic=8&num_scrambled_causal=4&num_scrambled_schematic=4&participantId=99D0F7217FF246AA89E4375CB9DB4126&assignmentId=d320a248-eb18-4835-8568-1e0b4934048e&projectId=5e631737-0fa4-44a6-b227-7ba1d7345015","99D0F7217FF246AA89E4375CB9DB4126-2025-05-27-18-34-48","","2527","","images/causal_sequence/saving_a_cat_causal/saving_a_cat_causal_7.png","0","",""
"","","","","","image-button-response","62","475417","0.0-12.0-1.0-2.1","99D0F7217FF246AA89E4375CB9DB4126","99D0F7217FF246AA89E4375CB9DB4126","d320a248-eb18-4835-8568-1e0b4934048e","5e631737-0fa4-44a6-b227-7ba1d7345015","{""num_scrambled_semantic"":""8"",""num_scrambled_causal"":""4"",""num_scrambled_schematic"":""4"",""participantId"":""99D0F7217FF246AA89E4375CB9DB4126"",""assignmentId"":""d320a248-eb18-4835-8568-1e0b4934048e"",""projectId"":""5e631737-0fa4-44a6-b227-7ba1d7345015""}","https://test12345.live/?num_scrambled_semantic=8&num_scrambled_causal=4&num_scrambled_schematic=4&participantId=99D0F7217FF246AA89E4375CB9DB4126&assignmentId=d320a248-eb18-4835-8568-1e0b4934048e&projectId=5e631737-0fa4-44a6-b227-7ba1d7345015","99D0F7217FF246AA89E4375CB9DB4126-2025-05-27-18-34-48","","null","","[]","null","",""
"","","","","","image-button-response","63","479921","0.0-12.0-1.0-0.2","99D0F7217FF246AA89E4375CB9DB4126","99D0F7217FF246AA89E4375CB9DB4126","d320a248-eb18-4835-8568-1e0b4934048e","5e631737-0fa4-44a6-b227-7ba1d7345015","{""num_scrambled_semantic"":""8"",""num_scrambled_causal"":""4"",""num_scrambled_schematic"":""4"",""participantId"":""99D0F7217FF246AA89E4375CB9DB4126"",""assignmentId"":""d320a248-eb18-4835-8568-1e0b4934048e"",""projectId"":""5e631737-0fa4-44a6-b227-7ba1d7345015""}","https://test12345.live/?num_scrambled_semantic=8&num_scrambled_causal=4&num_scrambled_schematic=4&participantId=99D0F7217FF246AA89E4375CB9DB4126&assignmentId=d320a248-eb18-4835-8568-1e0b4934048e&projectId=5e631737-0fa4-44a6-b227-7ba1d7345015","99D0F7217FF246AA89E4375CB9DB4126-2025-05-27-18-34-48","","null","","images/causal_sequence/saving_a_cat_causal/saving_a_cat_causal_8.png","null","",""
"","","","","","image-button-response","64","482872","0.0-12.0-1.0-1.2","99D0F7217FF246AA89E4375CB9DB4126","99D0F7217FF246AA89E4375CB9DB4126","d320a248-eb18-4835-8568-1e0b4934048e","5e631737-0fa4-44a6-b227-7ba1d7345015","{""num_scrambled_semantic"":""8"",""num_scrambled_causal"":""4"",""num_scrambled_schematic"":""4"",""participantId"":""99D0F7217FF246AA89E4375CB9DB4126"",""assignmentId"":""d320a248-eb18-4835-8568-1e0b4934048e"",""projectId"":""5e631737-0fa4-44a6-b227-7ba1d7345015""}","https://test12345.live/?num_scrambled_semantic=8&num_scrambled_causal=4&num_scrambled_schematic=4&participantId=99D0F7217FF246AA89E4375CB9DB4126&assignmentId=d320a248-eb18-4835-8568-1e0b4934048e&projectId=5e631737-0fa4-44a6-b227-7ba1d7345015","99D0F7217FF246AA89E4375CB9DB4126-2025-05-27-18-34-48","","2950","","images/causal_sequence/saving_a_cat_causal/saving_a_cat_causal_8.png","0","",""
"","","","","","image-button-response","65","484685","0.0-12.0-1.0-2.2","99D0F7217FF246AA89E4375CB9DB4126","99D0F7217FF246AA89E4375CB9DB4126","d320a248-eb18-4835-8568-1e0b4934048e","5e631737-0fa4-44a6-b227-7ba1d7345015","{""num_scrambled_semantic"":""8"",""num_scrambled_causal"":""4"",""num_scrambled_schematic"":""4"",""participantId"":""99D0F7217FF246AA89E4375CB9DB4126"",""assignmentId"":""d320a248-eb18-4835-8568-1e0b4934048e"",""projectId"":""5e631737-0fa4-44a6-b227-7ba1d7345015""}","https://test12345.live/?num_scrambled_semantic=8&num_scrambled_causal=4&num_scrambled_schematic=4&participantId=99D0F7217FF246AA89E4375CB9DB4126&assignmentId=d320a248-eb18-4835-8568-1e0b4934048e&projectId=5e631737-0fa4-44a6-b227-7ba1d7345015","99D0F7217FF246AA89E4375CB9DB4126-2025-05-27-18-34-48","","null","","[]","null","",""
"","","","","","image-button-response","66","489186","0.0-12.0-1.0-0.3","99D0F7217FF246AA89E4375CB9DB4126","99D0F7217FF246AA89E4375CB9DB4126","d320a248-eb18-4835-8568-1e0b4934048e","5e631737-0fa4-44a6-b227-7ba1d7345015","{""num_scrambled_semantic"":""8"",""num_scrambled_causal"":""4"",""num_scrambled_schematic"":""4"",""participantId"":""99D0F7217FF246AA89E4375CB9DB4126"",""assignmentId"":""d320a248-eb18-4835-8568-1e0b4934048e"",""projectId"":""5e631737-0fa4-44a6-b227-7ba1d7345015""}","https://test12345.live/?num_scrambled_semantic=8&num_scrambled_causal=4&num_scrambled_schematic=4&participantId=99D0F7217FF246AA89E4375CB9DB4126&assignmentId=d320a248-eb18-4835-8568-1e0b4934048e&projectId=5e631737-0fa4-44a6-b227-7ba1d7345015","99D0F7217FF246AA89E4375CB9DB4126-2025-05-27-18-34-48","","null","","images/causal_sequence/saving_a_cat_causal/saving_a_cat_causal_5.png","null","",""
"","","","","","image-button-response","67","491289","0.0-12.0-1.0-1.3","99D0F7217FF246AA89E4375CB9DB4126","99D0F7217FF246AA89E4375CB9DB4126","d320a248-eb18-4835-8568-1e0b4934048e","5e631737-0fa4-44a6-b227-7ba1d7345015","{""num_scrambled_semantic"":""8"",""num_scrambled_causal"":""4"",""num_scrambled_schematic"":""4"",""participantId"":""99D0F7217FF246AA89E4375CB9DB4126"",""assignmentId"":""d320a248-eb18-4835-8568-1e0b4934048e"",""projectId"":""5e631737-0fa4-44a6-b227-7ba1d7345015""}","https://test12345.live/?num_scrambled_semantic=8&num_scrambled_causal=4&num_scrambled_schematic=4&participantId=99D0F7217FF246AA89E4375CB9DB4126&assignmentId=d320a248-eb18-4835-8568-1e0b4934048e&projectId=5e631737-0fa4-44a6-b227-7ba1d7345015","99D0F7217FF246AA89E4375CB9DB4126-2025-05-27-18-34-48","","2101","","images/causal_sequence/saving_a_cat_causal/saving_a_cat_causal_5.png","0","",""
"","","","","","image-button-response","68","493102","0.0-12.0-1.0-2.3","99D0F7217FF246AA89E4375CB9DB4126","99D0F7217FF246AA89E4375CB9DB4126","d320a248-eb18-4835-8568-1e0b4934048e","5e631737-0fa4-44a6-b227-7ba1d7345015","{""num_scrambled_semantic"":""8"",""num_scrambled_causal"":""4"",""num_scrambled_schematic"":""4"",""participantId"":""99D0F7217FF246AA89E4375CB9DB4126"",""assignmentId"":""d320a248-eb18-4835-8568-1e0b4934048e"",""projectId"":""5e631737-0fa4-44a6-b227-7ba1d7345015""}","https://test12345.live/?num_scrambled_semantic=8&num_scrambled_causal=4&num_scrambled_schematic=4&participantId=99D0F7217FF246AA89E4375CB9DB4126&assignmentId=d320a248-eb18-4835-8568-1e0b4934048e&projectId=5e631737-0fa4-44a6-b227-7ba1d7345015","99D0F7217FF246AA89E4375CB9DB4126-2025-05-27-18-34-48","","null","","[]","null","",""
"","","","","","image-button-response","69","497606","0.0-12.0-1.0-0.4","99D0F7217FF246AA89E4375CB9DB4126","99D0F7217FF246AA89E4375CB9DB4126","d320a248-eb18-4835-8568-1e0b4934048e","5e631737-0fa4-44a6-b227-7ba1d7345015","{""num_scrambled_semantic"":""8"",""num_scrambled_causal"":""4"",""num_scrambled_schematic"":""4"",""participantId"":""99D0F7217FF246AA89E4375CB9DB4126"",""assignmentId"":""d320a248-eb18-4835-8568-1e0b4934048e"",""projectId"":""5e631737-0fa4-44a6-b227-7ba1d7345015""}","https://test12345.live/?num_scrambled_semantic=8&num_scrambled_causal=4&num_scrambled_schematic=4&participantId=99D0F7217FF246AA89E4375CB9DB4126&assignmentId=d320a248-eb18-4835-8568-1e0b4934048e&projectId=5e631737-0fa4-44a6-b227-7ba1d7345015","99D0F7217FF246AA89E4375CB9DB4126-2025-05-27-18-34-48","","null","","images/causal_sequence/saving_a_cat_causal/saving_a_cat_causal_4.png","null","",""
"","","","","","image-button-response","70","499405","0.0-12.0-1.0-1.4","99D0F7217FF246AA89E4375CB9DB4126","99D0F7217FF246AA89E4375CB9DB4126","d320a248-eb18-4835-8568-1e0b4934048e","5e631737-0fa4-44a6-b227-7ba1d7345015","{""num_scrambled_semantic"":""8"",""num_scrambled_causal"":""4"",""num_scrambled_schematic"":""4"",""participantId"":""99D0F7217FF246AA89E4375CB9DB4126"",""assignmentId"":""d320a248-eb18-4835-8568-1e0b4934048e"",""projectId"":""5e631737-0fa4-44a6-b227-7ba1d7345015""}","https://test12345.live/?num_scrambled_semantic=8&num_scrambled_causal=4&num_scrambled_schematic=4&participantId=99D0F7217FF246AA89E4375CB9DB4126&assignmentId=d320a248-eb18-4835-8568-1e0b4934048e&projectId=5e631737-0fa4-44a6-b227-7ba1d7345015","99D0F7217FF246AA89E4375CB9DB4126-2025-05-27-18-34-48","","1797","","images/causal_sequence/saving_a_cat_causal/saving_a_cat_causal_4.png","0","",""
"","","","","","image-button-response","71","501214","0.0-12.0-1.0-2.4","99D0F7217FF246AA89E4375CB9DB4126","99D0F7217FF246AA89E4375CB9DB4126","d320a248-eb18-4835-8568-1e0b4934048e","5e631737-0fa4-44a6-b227-7ba1d7345015","{""num_scrambled_semantic"":""8"",""num_scrambled_causal"":""4"",""num_scrambled_schematic"":""4"",""participantId"":""99D0F7217FF246AA89E4375CB9DB4126"",""assignmentId"":""d320a248-eb18-4835-8568-1e0b4934048e"",""projectId"":""5e631737-0fa4-44a6-b227-7ba1d7345015""}","https://test12345.live/?num_scrambled_semantic=8&num_scrambled_causal=4&num_scrambled_schematic=4&participantId=99D0F7217FF246AA89E4375CB9DB4126&assignmentId=d320a248-eb18-4835-8568-1e0b4934048e&projectId=5e631737-0fa4-44a6-b227-7ba1d7345015","99D0F7217FF246AA89E4375CB9DB4126-2025-05-27-18-34-48","","null","","[]","null","",""
"","","","","","image-button-response","72","505718","0.0-12.0-1.0-0.5","99D0F7217FF246AA89E4375CB9DB4126","99D0F7217FF246AA89E4375CB9DB4126","d320a248-eb18-4835-8568-1e0b4934048e","5e631737-0fa4-44a6-b227-7ba1d7345015","{""num_scrambled_semantic"":""8"",""num_scrambled_causal"":""4"",""num_scrambled_schematic"":""4"",""participantId"":""99D0F7217FF246AA89E4375CB9DB4126"",""assignmentId"":""d320a248-eb18-4835-8568-1e0b4934048e"",""projectId"":""5e631737-0fa4-44a6-b227-7ba1d7345015""}","https://test12345.live/?num_scrambled_semantic=8&num_scrambled_causal=4&num_scrambled_schematic=4&participantId=99D0F7217FF246AA89E4375CB9DB4126&assignmentId=d320a248-eb18-4835-8568-1e0b4934048e&projectId=5e631737-0fa4-44a6-b227-7ba1d7345015","99D0F7217FF246AA89E4375CB9DB4126-2025-05-27-18-34-48","","null","","images/causal_sequence/saving_a_cat_causal/saving_a_cat_causal_2.png","null","",""
"","","","","","image-button-response","73","507713","0.0-12.0-1.0-1.5","99D0F7217FF246AA89E4375CB9DB4126","99D0F7217FF246AA89E4375CB9DB4126","d320a248-eb18-4835-8568-1e0b4934048e","5e631737-0fa4-44a6-b227-7ba1d7345015","{""num_scrambled_semantic"":""8"",""num_scrambled_causal"":""4"",""num_scrambled_schematic"":""4"",""participantId"":""99D0F7217FF246AA89E4375CB9DB4126"",""assignmentId"":""d320a248-eb18-4835-8568-1e0b4934048e"",""projectId"":""5e631737-0fa4-44a6-b227-7ba1d7345015""}","https://test12345.live/?num_scrambled_semantic=8&num_scrambled_causal=4&num_scrambled_schematic=4&participantId=99D0F7217FF246AA89E4375CB9DB4126&assignmentId=d320a248-eb18-4835-8568-1e0b4934048e&projectId=5e631737-0fa4-44a6-b227-7ba1d7345015","99D0F7217FF246AA89E4375CB9DB4126-2025-05-27-18-34-48","","1993","","images/causal_sequence/saving_a_cat_causal/saving_a_cat_causal_2.png","1","",""
"","","","","","image-button-response","74","509515","0.0-12.0-1.0-2.5","99D0F7217FF246AA89E4375CB9DB4126","99D0F7217FF246AA89E4375CB9DB4126","d320a248-eb18-4835-8568-1e0b4934048e","5e631737-0fa4-44a6-b227-7ba1d7345015","{""num_scrambled_semantic"":""8"",""num_scrambled_causal"":""4"",""num_scrambled_schematic"":""4"",""participantId"":""99D0F7217FF246AA89E4375CB9DB4126"",""assignmentId"":""d320a248-eb18-4835-8568-1e0b4934048e"",""projectId"":""5e631737-0fa4-44a6-b227-7ba1d7345015""}","https://test12345.live/?num_scrambled_semantic=8&num_scrambled_causal=4&num_scrambled_schematic=4&participantId=99D0F7217FF246AA89E4375CB9DB4126&assignmentId=d320a248-eb18-4835-8568-1e0b4934048e&projectId=5e631737-0fa4-44a6-b227-7ba1d7345015","99D0F7217FF246AA89E4375CB9DB4126-2025-05-27-18-34-48","","null","","[]","null","",""
"","","","","","image-button-response","75","514027","0.0-12.0-1.0-0.6","99D0F7217FF246AA89E4375CB9DB4126","99D0F7217FF246AA89E4375CB9DB4126","d320a248-eb18-4835-8568-1e0b4934048e","5e631737-0fa4-44a6-b227-7ba1d7345015","{""num_scrambled_semantic"":""8"",""num_scrambled_causal"":""4"",""num_scrambled_schematic"":""4"",""participantId"":""99D0F7217FF246AA89E4375CB9DB4126"",""assignmentId"":""d320a248-eb18-4835-8568-1e0b4934048e"",""projectId"":""5e631737-0fa4-44a6-b227-7ba1d7345015""}","https://test12345.live/?num_scrambled_semantic=8&num_scrambled_causal=4&num_scrambled_schematic=4&participantId=99D0F7217FF246AA89E4375CB9DB4126&assignmentId=d320a248-eb18-4835-8568-1e0b4934048e&projectId=5e631737-0fa4-44a6-b227-7ba1d7345015","99D0F7217FF246AA89E4375CB9DB4126-2025-05-27-18-34-48","","null","","images/causal_sequence/saving_a_cat_causal/saving_a_cat_causal_9.png","null","",""
"","","","","","image-button-response","76","516079","0.0-12.0-1.0-1.6","99D0F7217FF246AA89E4375CB9DB4126","99D0F7217FF246AA89E4375CB9DB4126","d320a248-eb18-4835-8568-1e0b4934048e","5e631737-0fa4-44a6-b227-7ba1d7345015","{""num_scrambled_semantic"":""8"",""num_scrambled_causal"":""4"",""num_scrambled_schematic"":""4"",""participantId"":""99D0F7217FF246AA89E4375CB9DB4126"",""assignmentId"":""d320a248-eb18-4835-8568-1e0b4934048e"",""projectId"":""5e631737-0fa4-44a6-b227-7ba1d7345015""}","https://test12345.live/?num_scrambled_semantic=8&num_scrambled_causal=4&num_scrambled_schematic=4&participantId=99D0F7217FF246AA89E4375CB9DB4126&assignmentId=d320a248-eb18-4835-8568-1e0b4934048e&projectId=5e631737-0fa4-44a6-b227-7ba1d7345015","99D0F7217FF246AA89E4375CB9DB4126-2025-05-27-18-34-48","","2051","","images/causal_sequence/saving_a_cat_causal/saving_a_cat_causal_9.png","0","",""
"","","","","","image-button-response","77","517890","0.0-12.0-1.0-2.6","99D0F7217FF246AA89E4375CB9DB4126","99D0F7217FF246AA89E4375CB9DB4126","d320a248-eb18-4835-8568-1e0b4934048e","5e631737-0fa4-44a6-b227-7ba1d7345015","{""num_scrambled_semantic"":""8"",""num_scrambled_causal"":""4"",""num_scrambled_schematic"":""4"",""participantId"":""99D0F7217FF246AA89E4375CB9DB4126"",""assignmentId"":""d320a248-eb18-4835-8568-1e0b4934048e"",""projectId"":""5e631737-0fa4-44a6-b227-7ba1d7345015""}","https://test12345.live/?num_scrambled_semantic=8&num_scrambled_causal=4&num_scrambled_schematic=4&participantId=99D0F7217FF246AA89E4375CB9DB4126&assignmentId=d320a248-eb18-4835-8568-1e0b4934048e&projectId=5e631737-0fa4-44a6-b227-7ba1d7345015","99D0F7217FF246AA89E4375CB9DB4126-2025-05-27-18-34-48","","null","","[]","null","",""
"","","","","","image-button-response","78","522403","0.0-12.0-1.0-0.7","99D0F7217FF246AA89E4375CB9DB4126","99D0F7217FF246AA89E4375CB9DB4126","d320a248-eb18-4835-8568-1e0b4934048e","5e631737-0fa4-44a6-b227-7ba1d7345015","{""num_scrambled_semantic"":""8"",""num_scrambled_causal"":""4"",""num_scrambled_schematic"":""4"",""participantId"":""99D0F7217FF246AA89E4375CB9DB4126"",""assignmentId"":""d320a248-eb18-4835-8568-1e0b4934048e"",""projectId"":""5e631737-0fa4-44a6-b227-7ba1d7345015""}","https://test12345.live/?num_scrambled_semantic=8&num_scrambled_causal=4&num_scrambled_schematic=4&participantId=99D0F7217FF246AA89E4375CB9DB4126&assignmentId=d320a248-eb18-4835-8568-1e0b4934048e&projectId=5e631737-0fa4-44a6-b227-7ba1d7345015","99D0F7217FF246AA89E4375CB9DB4126-2025-05-27-18-34-48","","null","","images/causal_sequence/saving_a_cat_causal/saving_a_cat_causal_6.png","null","",""
"","","","","","image-button-response","79","524580","0.0-12.0-1.0-1.7","99D0F7217FF246AA89E4375CB9DB4126","99D0F7217FF246AA89E4375CB9DB4126","d320a248-eb18-4835-8568-1e0b4934048e","5e631737-0fa4-44a6-b227-7ba1d7345015","{""num_scrambled_semantic"":""8"",""num_scrambled_causal"":""4"",""num_scrambled_schematic"":""4"",""participantId"":""99D0F7217FF246AA89E4375CB9DB4126"",""assignmentId"":""d320a248-eb18-4835-8568-1e0b4934048e"",""projectId"":""5e631737-0fa4-44a6-b227-7ba1d7345015""}","https://test12345.live/?num_scrambled_semantic=8&num_scrambled_causal=4&num_scrambled_schematic=4&participantId=99D0F7217FF246AA89E4375CB9DB4126&assignmentId=d320a248-eb18-4835-8568-1e0b4934048e&projectId=5e631737-0fa4-44a6-b227-7ba1d7345015","99D0F7217FF246AA89E4375CB9DB4126-2025-05-27-18-34-48","","2176","","images/causal_sequence/saving_a_cat_causal/saving_a_cat_causal_6.png","0","",""
"","","","","","image-button-response","80","526395","0.0-12.0-1.0-2.7","99D0F7217FF246AA89E4375CB9DB4126","99D0F7217FF246AA89E4375CB9DB4126","d320a248-eb18-4835-8568-1e0b4934048e","5e631737-0fa4-44a6-b227-7ba1d7345015","{""num_scrambled_semantic"":""8"",""num_scrambled_causal"":""4"",""num_scrambled_schematic"":""4"",""participantId"":""99D0F7217FF246AA89E4375CB9DB4126"",""assignmentId"":""d320a248-eb18-4835-8568-1e0b4934048e"",""projectId"":""5e631737-0fa4-44a6-b227-7ba1d7345015""}","https://test12345.live/?num_scrambled_semantic=8&num_scrambled_causal=4&num_scrambled_schematic=4&participantId=99D0F7217FF246AA89E4375CB9DB4126&assignmentId=d320a248-eb18-4835-8568-1e0b4934048e&projectId=5e631737-0fa4-44a6-b227-7ba1d7345015","99D0F7217FF246AA89E4375CB9DB4126-2025-05-27-18-34-48","","null","","[]","null","",""
"","","","","","image-button-response","81","530899","0.0-12.0-1.0-0.8","99D0F7217FF246AA89E4375CB9DB4126","99D0F7217FF246AA89E4375CB9DB4126","d320a248-eb18-4835-8568-1e0b4934048e","5e631737-0fa4-44a6-b227-7ba1d7345015","{""num_scrambled_semantic"":""8"",""num_scrambled_causal"":""4"",""num_scrambled_schematic"":""4"",""participantId"":""99D0F7217FF246AA89E4375CB9DB4126"",""assignmentId"":""d320a248-eb18-4835-8568-1e0b4934048e"",""projectId"":""5e631737-0fa4-44a6-b227-7ba1d7345015""}","https://test12345.live/?num_scrambled_semantic=8&num_scrambled_causal=4&num_scrambled_schematic=4&participantId=99D0F7217FF246AA89E4375CB9DB4126&assignmentId=d320a248-eb18-4835-8568-1e0b4934048e&projectId=5e631737-0fa4-44a6-b227-7ba1d7345015","99D0F7217FF246AA89E4375CB9DB4126-2025-05-27-18-34-48","","null","","images/causal_sequence/saving_a_cat_causal/saving_a_cat_causal_ten.png","null","",""
"","","","","","image-button-response","82","534907","0.0-12.0-1.0-1.8","99D0F7217FF246AA89E4375CB9DB4126","99D0F7217FF246AA89E4375CB9DB4126","d320a248-eb18-4835-8568-1e0b4934048e","5e631737-0fa4-44a6-b227-7ba1d7345015","{""num_scrambled_semantic"":""8"",""num_scrambled_causal"":""4"",""num_scrambled_schematic"":""4"",""participantId"":""99D0F7217FF246AA89E4375CB9DB4126"",""assignmentId"":""d320a248-eb18-4835-8568-1e0b4934048e"",""projectId"":""5e631737-0fa4-44a6-b227-7ba1d7345015""}","https://test12345.live/?num_scrambled_semantic=8&num_scrambled_causal=4&num_scrambled_schematic=4&participantId=99D0F7217FF246AA89E4375CB9DB4126&assignmentId=d320a248-eb18-4835-8568-1e0b4934048e&projectId=5e631737-0fa4-44a6-b227-7ba1d7345015","99D0F7217FF246AA89E4375CB9DB4126-2025-05-27-18-34-48","","null","","images/causal_sequence/saving_a_cat_causal/saving_a_cat_causal_ten.png","null","",""
"","","","","","image-button-response","83","536712","0.0-12.0-1.0-2.8","99D0F7217FF246AA89E4375CB9DB4126","99D0F7217FF246AA89E4375CB9DB4126","d320a248-eb18-4835-8568-1e0b4934048e","5e631737-0fa4-44a6-b227-7ba1d7345015","{""num_scrambled_semantic"":""8"",""num_scrambled_causal"":""4"",""num_scrambled_schematic"":""4"",""participantId"":""99D0F7217FF246AA89E4375CB9DB4126"",""assignmentId"":""d320a248-eb18-4835-8568-1e0b4934048e"",""projectId"":""5e631737-0fa4-44a6-b227-7ba1d7345015""}","https://test12345.live/?num_scrambled_semantic=8&num_scrambled_causal=4&num_scrambled_schematic=4&participantId=99D0F7217FF246AA89E4375CB9DB4126&assignmentId=d320a248-eb18-4835-8568-1e0b4934048e&projectId=5e631737-0fa4-44a6-b227-7ba1d7345015","99D0F7217FF246AA89E4375CB9DB4126-2025-05-27-18-34-48","","null","","[]","null","",""
"","","","","","image-button-response","84","541215","0.0-12.0-1.0-0.9","99D0F7217FF246AA89E4375CB9DB4126","99D0F7217FF246AA89E4375CB9DB4126","d320a248-eb18-4835-8568-1e0b4934048e","5e631737-0fa4-44a6-b227-7ba1d7345015","{""num_scrambled_semantic"":""8"",""num_scrambled_causal"":""4"",""num_scrambled_schematic"":""4"",""participantId"":""99D0F7217FF246AA89E4375CB9DB4126"",""assignmentId"":""d320a248-eb18-4835-8568-1e0b4934048e"",""projectId"":""5e631737-0fa4-44a6-b227-7ba1d7345015""}","https://test12345.live/?num_scrambled_semantic=8&num_scrambled_causal=4&num_scrambled_schematic=4&participantId=99D0F7217FF246AA89E4375CB9DB4126&assignmentId=d320a248-eb18-4835-8568-1e0b4934048e&projectId=5e631737-0fa4-44a6-b227-7ba1d7345015","99D0F7217FF246AA89E4375CB9DB4126-2025-05-27-18-34-48","","null","","images/causal_sequence/saving_a_cat_causal/saving_a_cat_causal_3.png","null","",""
"","","","","","image-button-response","85","543975","0.0-12.0-1.0-1.9","99D0F7217FF246AA89E4375CB9DB4126","99D0F7217FF246AA89E4375CB9DB4126","d320a248-eb18-4835-8568-1e0b4934048e","5e631737-0fa4-44a6-b227-7ba1d7345015","{""num_scrambled_semantic"":""8"",""num_scrambled_causal"":""4"",""num_scrambled_schematic"":""4"",""participantId"":""99D0F7217FF246AA89E4375CB9DB4126"",""assignmentId"":""d320a248-eb18-4835-8568-1e0b4934048e"",""projectId"":""5e631737-0fa4-44a6-b227-7ba1d7345015""}","https://test12345.live/?num_scrambled_semantic=8&num_scrambled_causal=4&num_scrambled_schematic=4&participantId=99D0F7217FF246AA89E4375CB9DB4126&assignmentId=d320a248-eb18-4835-8568-1e0b4934048e&projectId=5e631737-0fa4-44a6-b227-7ba1d7345015","99D0F7217FF246AA89E4375CB9DB4126-2025-05-27-18-34-48","","2758","","images/causal_sequence/saving_a_cat_causal/saving_a_cat_causal_3.png","1","",""
"","","","","","image-button-response","86","545778","0.0-12.0-1.0-2.9","99D0F7217FF246AA89E4375CB9DB4126","99D0F7217FF246AA89E4375CB9DB4126","d320a248-eb18-4835-8568-1e0b4934048e","5e631737-0fa4-44a6-b227-7ba1d7345015","{""num_scrambled_semantic"":""8"",""num_scrambled_causal"":""4"",""num_scrambled_schematic"":""4"",""participantId"":""99D0F7217FF246AA89E4375CB9DB4126"",""assignmentId"":""d320a248-eb18-4835-8568-1e0b4934048e"",""projectId"":""5e631737-0fa4-44a6-b227-7ba1d7345015""}","https://test12345.live/?num_scrambled_semantic=8&num_scrambled_causal=4&num_scrambled_schematic=4&participantId=99D0F7217FF246AA89E4375CB9DB4126&assignmentId=d320a248-eb18-4835-8568-1e0b4934048e&projectId=5e631737-0fa4-44a6-b227-7ba1d7345015","99D0F7217FF246AA89E4375CB9DB4126-2025-05-27-18-34-48","","null","","[]","null","",""
"","","","","","html-audio-response","87","648125","0.0-13.0","99D0F7217FF246AA89E4375CB9DB4126","99D0F7217FF246AA89E4375CB9DB4126","d320a248-eb18-4835-8568-1e0b4934048e","5e631737-0fa4-44a6-b227-7ba1d7345015","{""num_scrambled_semantic"":""8"",""num_scrambled_causal"":""4"",""num_scrambled_schematic"":""4"",""participantId"":""99D0F7217FF246AA89E4375CB9DB4126"",""assignmentId"":""d320a248-eb18-4835-8568-1e0b4934048e"",""projectId"":""5e631737-0fa4-44a6-b227-7ba1d7345015""}","https://test12345.live/?num_scrambled_semantic=8&num_scrambled_causal=4&num_scrambled_schematic=4&participantId=99D0F7217FF246AA89E4375CB9DB4126&assignmentId=d320a248-eb18-4835-8568-1e0b4934048e&projectId=5e631737-0fa4-44a6-b227-7ba1d7345015","99D0F7217FF246AA89E4375CB9DB4126-2025-05-27-18-34-48","","51999","","[""<span style=\""color: red; font-size: 24px\""> NOW RECORDING</span><p>Please say out loud all the images you saw, in the exact order you saw them. Try to recall as many images as you can, but remember: getting the order right is more important than the number of images you recall.</p>""]","","3","saving_a_cat_causal"
"","","","","","image-button-response","88","654145","0.0-14.0-0.0","99D0F7217FF246AA89E4375CB9DB4126","99D0F7217FF246AA89E4375CB9DB4126","d320a248-eb18-4835-8568-1e0b4934048e","5e631737-0fa4-44a6-b227-7ba1d7345015","{""num_scrambled_semantic"":""8"",""num_scrambled_causal"":""4"",""num_scrambled_schematic"":""4"",""participantId"":""99D0F7217FF246AA89E4375CB9DB4126"",""assignmentId"":""d320a248-eb18-4835-8568-1e0b4934048e"",""projectId"":""5e631737-0fa4-44a6-b227-7ba1d7345015""}","https://test12345.live/?num_scrambled_semantic=8&num_scrambled_causal=4&num_scrambled_schematic=4&participantId=99D0F7217FF246AA89E4375CB9DB4126&assignmentId=d320a248-eb18-4835-8568-1e0b4934048e&projectId=5e631737-0fa4-44a6-b227-7ba1d7345015","99D0F7217FF246AA89E4375CB9DB4126-2025-05-27-18-34-48","","null","","images/semantic_sequence/cat_care_semantic/cat_care_semantic_0.png","null","",""
"","","","","","image-button-response","89","658652","0.0-14.0-1.0-0.0","99D0F7217FF246AA89E4375CB9DB4126","99D0F7217FF246AA89E4375CB9DB4126","d320a248-eb18-4835-8568-1e0b4934048e","5e631737-0fa4-44a6-b227-7ba1d7345015","{""num_scrambled_semantic"":""8"",""num_scrambled_causal"":""4"",""num_scrambled_schematic"":""4"",""participantId"":""99D0F7217FF246AA89E4375CB9DB4126"",""assignmentId"":""d320a248-eb18-4835-8568-1e0b4934048e"",""projectId"":""5e631737-0fa4-44a6-b227-7ba1d7345015""}","https://test12345.live/?num_scrambled_semantic=8&num_scrambled_causal=4&num_scrambled_schematic=4&participantId=99D0F7217FF246AA89E4375CB9DB4126&assignmentId=d320a248-eb18-4835-8568-1e0b4934048e&projectId=5e631737-0fa4-44a6-b227-7ba1d7345015","99D0F7217FF246AA89E4375CB9DB4126-2025-05-27-18-34-48","","null","","images/semantic_sequence/cat_care_semantic/cat_care_semantic_1.png","null","",""
"","","","","","image-button-response","90","661812","0.0-14.0-1.0-1.0","99D0F7217FF246AA89E4375CB9DB4126","99D0F7217FF246AA89E4375CB9DB4126","d320a248-eb18-4835-8568-1e0b4934048e","5e631737-0fa4-44a6-b227-7ba1d7345015","{""num_scrambled_semantic"":""8"",""num_scrambled_causal"":""4"",""num_scrambled_schematic"":""4"",""participantId"":""99D0F7217FF246AA89E4375CB9DB4126"",""assignmentId"":""d320a248-eb18-4835-8568-1e0b4934048e"",""projectId"":""5e631737-0fa4-44a6-b227-7ba1d7345015""}","https://test12345.live/?num_scrambled_semantic=8&num_scrambled_causal=4&num_scrambled_schematic=4&participantId=99D0F7217FF246AA89E4375CB9DB4126&assignmentId=d320a248-eb18-4835-8568-1e0b4934048e&projectId=5e631737-0fa4-44a6-b227-7ba1d7345015","99D0F7217FF246AA89E4375CB9DB4126-2025-05-27-18-34-48","","3158","","images/semantic_sequence/cat_care_semantic/cat_care_semantic_1.png","0","",""
"","","","","","image-button-response","91","663614","0.0-14.0-1.0-2.0","99D0F7217FF246AA89E4375CB9DB4126","99D0F7217FF246AA89E4375CB9DB4126","d320a248-eb18-4835-8568-1e0b4934048e","5e631737-0fa4-44a6-b227-7ba1d7345015","{""num_scrambled_semantic"":""8"",""num_scrambled_causal"":""4"",""num_scrambled_schematic"":""4"",""participantId"":""99D0F7217FF246AA89E4375CB9DB4126"",""assignmentId"":""d320a248-eb18-4835-8568-1e0b4934048e"",""projectId"":""5e631737-0fa4-44a6-b227-7ba1d7345015""}","https://test12345.live/?num_scrambled_semantic=8&num_scrambled_causal=4&num_scrambled_schematic=4&participantId=99D0F7217FF246AA89E4375CB9DB4126&assignmentId=d320a248-eb18-4835-8568-1e0b4934048e&projectId=5e631737-0fa4-44a6-b227-7ba1d7345015","99D0F7217FF246AA89E4375CB9DB4126-2025-05-27-18-34-48","","null","","[]","null","",""
"","","","","","image-button-response","92","668126","0.0-14.0-1.0-0.1","99D0F7217FF246AA89E4375CB9DB4126","99D0F7217FF246AA89E4375CB9DB4126","d320a248-eb18-4835-8568-1e0b4934048e","5e631737-0fa4-44a6-b227-7ba1d7345015","{""num_scrambled_semantic"":""8"",""num_scrambled_causal"":""4"",""num_scrambled_schematic"":""4"",""participantId"":""99D0F7217FF246AA89E4375CB9DB4126"",""assignmentId"":""d320a248-eb18-4835-8568-1e0b4934048e"",""projectId"":""5e631737-0fa4-44a6-b227-7ba1d7345015""}","https://test12345.live/?num_scrambled_semantic=8&num_scrambled_causal=4&num_scrambled_schematic=4&participantId=99D0F7217FF246AA89E4375CB9DB4126&assignmentId=d320a248-eb18-4835-8568-1e0b4934048e&projectId=5e631737-0fa4-44a6-b227-7ba1d7345015","99D0F7217FF246AA89E4375CB9DB4126-2025-05-27-18-34-48","","null","","images/semantic_sequence/cat_care_semantic/cat_care_semantic_2.png","null","",""
"","","","","","image-button-response","93","670530","0.0-14.0-1.0-1.1","99D0F7217FF246AA89E4375CB9DB4126","99D0F7217FF246AA89E4375CB9DB4126","d320a248-eb18-4835-8568-1e0b4934048e","5e631737-0fa4-44a6-b227-7ba1d7345015","{""num_scrambled_semantic"":""8"",""num_scrambled_causal"":""4"",""num_scrambled_schematic"":""4"",""participantId"":""99D0F7217FF246AA89E4375CB9DB4126"",""assignmentId"":""d320a248-eb18-4835-8568-1e0b4934048e"",""projectId"":""5e631737-0fa4-44a6-b227-7ba1d7345015""}","https://test12345.live/?num_scrambled_semantic=8&num_scrambled_causal=4&num_scrambled_schematic=4&participantId=99D0F7217FF246AA89E4375CB9DB4126&assignmentId=d320a248-eb18-4835-8568-1e0b4934048e&projectId=5e631737-0fa4-44a6-b227-7ba1d7345015","99D0F7217FF246AA89E4375CB9DB4126-2025-05-27-18-34-48","","2403","","images/semantic_sequence/cat_care_semantic/cat_care_semantic_2.png","1","",""
"","","","","","image-button-response","94","672341","0.0-14.0-1.0-2.1","99D0F7217FF246AA89E4375CB9DB4126","99D0F7217FF246AA89E4375CB9DB4126","d320a248-eb18-4835-8568-1e0b4934048e","5e631737-0fa4-44a6-b227-7ba1d7345015","{""num_scrambled_semantic"":""8"",""num_scrambled_causal"":""4"",""num_scrambled_schematic"":""4"",""participantId"":""99D0F7217FF246AA89E4375CB9DB4126"",""assignmentId"":""d320a248-eb18-4835-8568-1e0b4934048e"",""projectId"":""5e631737-0fa4-44a6-b227-7ba1d7345015""}","https://test12345.live/?num_scrambled_semantic=8&num_scrambled_causal=4&num_scrambled_schematic=4&participantId=99D0F7217FF246AA89E4375CB9DB4126&assignmentId=d320a248-eb18-4835-8568-1e0b4934048e&projectId=5e631737-0fa4-44a6-b227-7ba1d7345015","99D0F7217FF246AA89E4375CB9DB4126-2025-05-27-18-34-48","","null","","[]","null","",""
"","","","","","image-button-response","95","676849","0.0-14.0-1.0-0.2","99D0F7217FF246AA89E4375CB9DB4126","99D0F7217FF246AA89E4375CB9DB4126","d320a248-eb18-4835-8568-1e0b4934048e","5e631737-0fa4-44a6-b227-7ba1d7345015","{""num_scrambled_semantic"":""8"",""num_scrambled_causal"":""4"",""num_scrambled_schematic"":""4"",""participantId"":""99D0F7217FF246AA89E4375CB9DB4126"",""assignmentId"":""d320a248-eb18-4835-8568-1e0b4934048e"",""projectId"":""5e631737-0fa4-44a6-b227-7ba1d7345015""}","https://test12345.live/?num_scrambled_semantic=8&num_scrambled_causal=4&num_scrambled_schematic=4&participantId=99D0F7217FF246AA89E4375CB9DB4126&assignmentId=d320a248-eb18-4835-8568-1e0b4934048e&projectId=5e631737-0fa4-44a6-b227-7ba1d7345015","99D0F7217FF246AA89E4375CB9DB4126-2025-05-27-18-34-48","","null","","images/semantic_sequence/cat_care_semantic/cat_care_semantic_3.png","null","",""
"","","","","","image-button-response","96","678844","0.0-14.0-1.0-1.2","99D0F7217FF246AA89E4375CB9DB4126","99D0F7217FF246AA89E4375CB9DB4126","d320a248-eb18-4835-8568-1e0b4934048e","5e631737-0fa4-44a6-b227-7ba1d7345015","{""num_scrambled_semantic"":""8"",""num_scrambled_causal"":""4"",""num_scrambled_schematic"":""4"",""participantId"":""99D0F7217FF246AA89E4375CB9DB4126"",""assignmentId"":""d320a248-eb18-4835-8568-1e0b4934048e"",""projectId"":""5e631737-0fa4-44a6-b227-7ba1d7345015""}","https://test12345.live/?num_scrambled_semantic=8&num_scrambled_causal=4&num_scrambled_schematic=4&participantId=99D0F7217FF246AA89E4375CB9DB4126&assignmentId=d320a248-eb18-4835-8568-1e0b4934048e&projectId=5e631737-0fa4-44a6-b227-7ba1d7345015","99D0F7217FF246AA89E4375CB9DB4126-2025-05-27-18-34-48","","1993","","images/semantic_sequence/cat_care_semantic/cat_care_semantic_3.png","1","",""
"","","","","","image-button-response","97","680656","0.0-14.0-1.0-2.2","99D0F7217FF246AA89E4375CB9DB4126","99D0F7217FF246AA89E4375CB9DB4126","d320a248-eb18-4835-8568-1e0b4934048e","5e631737-0fa4-44a6-b227-7ba1d7345015","{""num_scrambled_semantic"":""8"",""num_scrambled_causal"":""4"",""num_scrambled_schematic"":""4"",""participantId"":""99D0F7217FF246AA89E4375CB9DB4126"",""assignmentId"":""d320a248-eb18-4835-8568-1e0b4934048e"",""projectId"":""5e631737-0fa4-44a6-b227-7ba1d7345015""}","https://test12345.live/?num_scrambled_semantic=8&num_scrambled_causal=4&num_scrambled_schematic=4&participantId=99D0F7217FF246AA89E4375CB9DB4126&assignmentId=d320a248-eb18-4835-8568-1e0b4934048e&projectId=5e631737-0fa4-44a6-b227-7ba1d7345015","99D0F7217FF246AA89E4375CB9DB4126-2025-05-27-18-34-48","","null","","[]","null","",""
"","","","","","image-button-response","98","685162","0.0-14.0-1.0-0.3","99D0F7217FF246AA89E4375CB9DB4126","99D0F7217FF246AA89E4375CB9DB4126","d320a248-eb18-4835-8568-1e0b4934048e","5e631737-0fa4-44a6-b227-7ba1d7345015","{""num_scrambled_semantic"":""8"",""num_scrambled_causal"":""4"",""num_scrambled_schematic"":""4"",""participantId"":""99D0F7217FF246AA89E4375CB9DB4126"",""assignmentId"":""d320a248-eb18-4835-8568-1e0b4934048e"",""projectId"":""5e631737-0fa4-44a6-b227-7ba1d7345015""}","https://test12345.live/?num_scrambled_semantic=8&num_scrambled_causal=4&num_scrambled_schematic=4&participantId=99D0F7217FF246AA89E4375CB9DB4126&assignmentId=d320a248-eb18-4835-8568-1e0b4934048e&projectId=5e631737-0fa4-44a6-b227-7ba1d7345015","99D0F7217FF246AA89E4375CB9DB4126-2025-05-27-18-34-48","","null","","images/semantic_sequence/cat_care_semantic/cat_care_semantic_4.png","null","",""
"","","","","","image-button-response","99","688143","0.0-14.0-1.0-1.3","99D0F7217FF246AA89E4375CB9DB4126","99D0F7217FF246AA89E4375CB9DB4126","d320a248-eb18-4835-8568-1e0b4934048e","5e631737-0fa4-44a6-b227-7ba1d7345015","{""num_scrambled_semantic"":""8"",""num_scrambled_causal"":""4"",""num_scrambled_schematic"":""4"",""participantId"":""99D0F7217FF246AA89E4375CB9DB4126"",""assignmentId"":""d320a248-eb18-4835-8568-1e0b4934048e"",""projectId"":""5e631737-0fa4-44a6-b227-7ba1d7345015""}","https://test12345.live/?num_scrambled_semantic=8&num_scrambled_causal=4&num_scrambled_schematic=4&participantId=99D0F7217FF246AA89E4375CB9DB4126&assignmentId=d320a248-eb18-4835-8568-1e0b4934048e&projectId=5e631737-0fa4-44a6-b227-7ba1d7345015","99D0F7217FF246AA89E4375CB9DB4126-2025-05-27-18-34-48","","2979","","images/semantic_sequence/cat_care_semantic/cat_care_semantic_4.png","1","",""
"","","","","","image-button-response","100","689956","0.0-14.0-1.0-2.3","99D0F7217FF246AA89E4375CB9DB4126","99D0F7217FF246AA89E4375CB9DB4126","d320a248-eb18-4835-8568-1e0b4934048e","5e631737-0fa4-44a6-b227-7ba1d7345015","{""num_scrambled_semantic"":""8"",""num_scrambled_causal"":""4"",""num_scrambled_schematic"":""4"",""participantId"":""99D0F7217FF246AA89E4375CB9DB4126"",""assignmentId"":""d320a248-eb18-4835-8568-1e0b4934048e"",""projectId"":""5e631737-0fa4-44a6-b227-7ba1d7345015""}","https://test12345.live/?num_scrambled_semantic=8&num_scrambled_causal=4&num_scrambled_schematic=4&participantId=99D0F7217FF246AA89E4375CB9DB4126&assignmentId=d320a248-eb18-4835-8568-1e0b4934048e&projectId=5e631737-0fa4-44a6-b227-7ba1d7345015","99D0F7217FF246AA89E4375CB9DB4126-2025-05-27-18-34-48","","null","","[]","null","",""
"","","","","","image-button-response","101","694469","0.0-14.0-1.0-0.4","99D0F7217FF246AA89E4375CB9DB4126","99D0F7217FF246AA89E4375CB9DB4126","d320a248-eb18-4835-8568-1e0b4934048e","5e631737-0fa4-44a6-b227-7ba1d7345015","{""num_scrambled_semantic"":""8"",""num_scrambled_causal"":""4"",""num_scrambled_schematic"":""4"",""participantId"":""99D0F7217FF246AA89E4375CB9DB4126"",""assignmentId"":""d320a248-eb18-4835-8568-1e0b4934048e"",""projectId"":""5e631737-0fa4-44a6-b227-7ba1d7345015""}","https://test12345.live/?num_scrambled_semantic=8&num_scrambled_causal=4&num_scrambled_schematic=4&participantId=99D0F7217FF246AA89E4375CB9DB4126&assignmentId=d320a248-eb18-4835-8568-1e0b4934048e&projectId=5e631737-0fa4-44a6-b227-7ba1d7345015","99D0F7217FF246AA89E4375CB9DB4126-2025-05-27-18-34-48","","null","","images/semantic_sequence/cat_care_semantic/cat_care_semantic_5.png","null","",""
"","","","","","image-button-response","102","697594","0.0-14.0-1.0-1.4","99D0F7217FF246AA89E4375CB9DB4126","99D0F7217FF246AA89E4375CB9DB4126","d320a248-eb18-4835-8568-1e0b4934048e","5e631737-0fa4-44a6-b227-7ba1d7345015","{""num_scrambled_semantic"":""8"",""num_scrambled_causal"":""4"",""num_scrambled_schematic"":""4"",""participantId"":""99D0F7217FF246AA89E4375CB9DB4126"",""assignmentId"":""d320a248-eb18-4835-8568-1e0b4934048e"",""projectId"":""5e631737-0fa4-44a6-b227-7ba1d7345015""}","https://test12345.live/?num_scrambled_semantic=8&num_scrambled_causal=4&num_scrambled_schematic=4&participantId=99D0F7217FF246AA89E4375CB9DB4126&assignmentId=d320a248-eb18-4835-8568-1e0b4934048e&projectId=5e631737-0fa4-44a6-b227-7ba1d7345015","99D0F7217FF246AA89E4375CB9DB4126-2025-05-27-18-34-48","","3123","","images/semantic_sequence/cat_care_semantic/cat_care_semantic_5.png","0","",""
"","","","","","image-button-response","103","699405","0.0-14.0-1.0-2.4","99D0F7217FF246AA89E4375CB9DB4126","99D0F7217FF246AA89E4375CB9DB4126","d320a248-eb18-4835-8568-1e0b4934048e","5e631737-0fa4-44a6-b227-7ba1d7345015","{""num_scrambled_semantic"":""8"",""num_scrambled_causal"":""4"",""num_scrambled_schematic"":""4"",""participantId"":""99D0F7217FF246AA89E4375CB9DB4126"",""assignmentId"":""d320a248-eb18-4835-8568-1e0b4934048e"",""projectId"":""5e631737-0fa4-44a6-b227-7ba1d7345015""}","https://test12345.live/?num_scrambled_semantic=8&num_scrambled_causal=4&num_scrambled_schematic=4&participantId=99D0F7217FF246AA89E4375CB9DB4126&assignmentId=d320a248-eb18-4835-8568-1e0b4934048e&projectId=5e631737-0fa4-44a6-b227-7ba1d7345015","99D0F7217FF246AA89E4375CB9DB4126-2025-05-27-18-34-48","","null","","[]","null","",""
"","","","","","image-button-response","104","703912","0.0-14.0-1.0-0.5","99D0F7217FF246AA89E4375CB9DB4126","99D0F7217FF246AA89E4375CB9DB4126","d320a248-eb18-4835-8568-1e0b4934048e","5e631737-0fa4-44a6-b227-7ba1d7345015","{""num_scrambled_semantic"":""8"",""num_scrambled_causal"":""4"",""num_scrambled_schematic"":""4"",""participantId"":""99D0F7217FF246AA89E4375CB9DB4126"",""assignmentId"":""d320a248-eb18-4835-8568-1e0b4934048e"",""projectId"":""5e631737-0fa4-44a6-b227-7ba1d7345015""}","https://test12345.live/?num_scrambled_semantic=8&num_scrambled_causal=4&num_scrambled_schematic=4&participantId=99D0F7217FF246AA89E4375CB9DB4126&assignmentId=d320a248-eb18-4835-8568-1e0b4934048e&projectId=5e631737-0fa4-44a6-b227-7ba1d7345015","99D0F7217FF246AA89E4375CB9DB4126-2025-05-27-18-34-48","","null","","images/semantic_sequence/cat_care_semantic/cat_care_semantic_6.png","null","",""
"","","","","","image-button-response","105","706298","0.0-14.0-1.0-1.5","99D0F7217FF246AA89E4375CB9DB4126","99D0F7217FF246AA89E4375CB9DB4126","d320a248-eb18-4835-8568-1e0b4934048e","5e631737-0fa4-44a6-b227-7ba1d7345015","{""num_scrambled_semantic"":""8"",""num_scrambled_causal"":""4"",""num_scrambled_schematic"":""4"",""participantId"":""99D0F7217FF246AA89E4375CB9DB4126"",""assignmentId"":""d320a248-eb18-4835-8568-1e0b4934048e"",""projectId"":""5e631737-0fa4-44a6-b227-7ba1d7345015""}","https://test12345.live/?num_scrambled_semantic=8&num_scrambled_causal=4&num_scrambled_schematic=4&participantId=99D0F7217FF246AA89E4375CB9DB4126&assignmentId=d320a248-eb18-4835-8568-1e0b4934048e&projectId=5e631737-0fa4-44a6-b227-7ba1d7345015","99D0F7217FF246AA89E4375CB9DB4126-2025-05-27-18-34-48","","2384","","images/semantic_sequence/cat_care_semantic/cat_care_semantic_6.png","1","",""
"","","","","","image-button-response","106","708102","0.0-14.0-1.0-2.5","99D0F7217FF246AA89E4375CB9DB4126","99D0F7217FF246AA89E4375CB9DB4126","d320a248-eb18-4835-8568-1e0b4934048e","5e631737-0fa4-44a6-b227-7ba1d7345015","{""num_scrambled_semantic"":""8"",""num_scrambled_causal"":""4"",""num_scrambled_schematic"":""4"",""participantId"":""99D0F7217FF246AA89E4375CB9DB4126"",""assignmentId"":""d320a248-eb18-4835-8568-1e0b4934048e"",""projectId"":""5e631737-0fa4-44a6-b227-7ba1d7345015""}","https://test12345.live/?num_scrambled_semantic=8&num_scrambled_causal=4&num_scrambled_schematic=4&participantId=99D0F7217FF246AA89E4375CB9DB4126&assignmentId=d320a248-eb18-4835-8568-1e0b4934048e&projectId=5e631737-0fa4-44a6-b227-7ba1d7345015","99D0F7217FF246AA89E4375CB9DB4126-2025-05-27-18-34-48","","null","","[]","null","",""
"","","","","","image-button-response","107","712604","0.0-14.0-1.0-0.6","99D0F7217FF246AA89E4375CB9DB4126","99D0F7217FF246AA89E4375CB9DB4126","d320a248-eb18-4835-8568-1e0b4934048e","5e631737-0fa4-44a6-b227-7ba1d7345015","{""num_scrambled_semantic"":""8"",""num_scrambled_causal"":""4"",""num_scrambled_schematic"":""4"",""participantId"":""99D0F7217FF246AA89E4375CB9DB4126"",""assignmentId"":""d320a248-eb18-4835-8568-1e0b4934048e"",""projectId"":""5e631737-0fa4-44a6-b227-7ba1d7345015""}","https://test12345.live/?num_scrambled_semantic=8&num_scrambled_causal=4&num_scrambled_schematic=4&participantId=99D0F7217FF246AA89E4375CB9DB4126&assignmentId=d320a248-eb18-4835-8568-1e0b4934048e&projectId=5e631737-0fa4-44a6-b227-7ba1d7345015","99D0F7217FF246AA89E4375CB9DB4126-2025-05-27-18-34-48","","null","","images/semantic_sequence/cat_care_semantic/cat_care_semantic_7.png","null","",""
"","","","","","image-button-response","108","716103","0.0-14.0-1.0-1.6","99D0F7217FF246AA89E4375CB9DB4126","99D0F7217FF246AA89E4375CB9DB4126","d320a248-eb18-4835-8568-1e0b4934048e","5e631737-0fa4-44a6-b227-7ba1d7345015","{""num_scrambled_semantic"":""8"",""num_scrambled_causal"":""4"",""num_scrambled_schematic"":""4"",""participantId"":""99D0F7217FF246AA89E4375CB9DB4126"",""assignmentId"":""d320a248-eb18-4835-8568-1e0b4934048e"",""projectId"":""5e631737-0fa4-44a6-b227-7ba1d7345015""}","https://test12345.live/?num_scrambled_semantic=8&num_scrambled_causal=4&num_scrambled_schematic=4&participantId=99D0F7217FF246AA89E4375CB9DB4126&assignmentId=d320a248-eb18-4835-8568-1e0b4934048e&projectId=5e631737-0fa4-44a6-b227-7ba1d7345015","99D0F7217FF246AA89E4375CB9DB4126-2025-05-27-18-34-48","","3497","","images/semantic_sequence/cat_care_semantic/cat_care_semantic_7.png","0","",""
"","","","","","image-button-response","109","717914","0.0-14.0-1.0-2.6","99D0F7217FF246AA89E4375CB9DB4126","99D0F7217FF246AA89E4375CB9DB4126","d320a248-eb18-4835-8568-1e0b4934048e","5e631737-0fa4-44a6-b227-7ba1d7345015","{""num_scrambled_semantic"":""8"",""num_scrambled_causal"":""4"",""num_scrambled_schematic"":""4"",""participantId"":""99D0F7217FF246AA89E4375CB9DB4126"",""assignmentId"":""d320a248-eb18-4835-8568-1e0b4934048e"",""projectId"":""5e631737-0fa4-44a6-b227-7ba1d7345015""}","https://test12345.live/?num_scrambled_semantic=8&num_scrambled_causal=4&num_scrambled_schematic=4&participantId=99D0F7217FF246AA89E4375CB9DB4126&assignmentId=d320a248-eb18-4835-8568-1e0b4934048e&projectId=5e631737-0fa4-44a6-b227-7ba1d7345015","99D0F7217FF246AA89E4375CB9DB4126-2025-05-27-18-34-48","","null","","[]","null","",""
"","","","","","image-button-response","110","722421","0.0-14.0-1.0-0.7","99D0F7217FF246AA89E4375CB9DB4126","99D0F7217FF246AA89E4375CB9DB4126","d320a248-eb18-4835-8568-1e0b4934048e","5e631737-0fa4-44a6-b227-7ba1d7345015","{""num_scrambled_semantic"":""8"",""num_scrambled_causal"":""4"",""num_scrambled_schematic"":""4"",""participantId"":""99D0F7217FF246AA89E4375CB9DB4126"",""assignmentId"":""d320a248-eb18-4835-8568-1e0b4934048e"",""projectId"":""5e631737-0fa4-44a6-b227-7ba1d7345015""}","https://test12345.live/?num_scrambled_semantic=8&num_scrambled_causal=4&num_scrambled_schematic=4&participantId=99D0F7217FF246AA89E4375CB9DB4126&assignmentId=d320a248-eb18-4835-8568-1e0b4934048e&projectId=5e631737-0fa4-44a6-b227-7ba1d7345015","99D0F7217FF246AA89E4375CB9DB4126-2025-05-27-18-34-48","","null","","images/semantic_sequence/cat_care_semantic/cat_care_semantic_8.png","null","",""
"","","","","","image-button-response","111","724883","0.0-14.0-1.0-1.7","99D0F7217FF246AA89E4375CB9DB4126","99D0F7217FF246AA89E4375CB9DB4126","d320a248-eb18-4835-8568-1e0b4934048e","5e631737-0fa4-44a6-b227-7ba1d7345015","{""num_scrambled_semantic"":""8"",""num_scrambled_causal"":""4"",""num_scrambled_schematic"":""4"",""participantId"":""99D0F7217FF246AA89E4375CB9DB4126"",""assignmentId"":""d320a248-eb18-4835-8568-1e0b4934048e"",""projectId"":""5e631737-0fa4-44a6-b227-7ba1d7345015""}","https://test12345.live/?num_scrambled_semantic=8&num_scrambled_causal=4&num_scrambled_schematic=4&participantId=99D0F7217FF246AA89E4375CB9DB4126&assignmentId=d320a248-eb18-4835-8568-1e0b4934048e&projectId=5e631737-0fa4-44a6-b227-7ba1d7345015","99D0F7217FF246AA89E4375CB9DB4126-2025-05-27-18-34-48","","2461","","images/semantic_sequence/cat_care_semantic/cat_care_semantic_8.png","0","",""
"","","","","","image-button-response","112","726698","0.0-14.0-1.0-2.7","99D0F7217FF246AA89E4375CB9DB4126","99D0F7217FF246AA89E4375CB9DB4126","d320a248-eb18-4835-8568-1e0b4934048e","5e631737-0fa4-44a6-b227-7ba1d7345015","{""num_scrambled_semantic"":""8"",""num_scrambled_causal"":""4"",""num_scrambled_schematic"":""4"",""participantId"":""99D0F7217FF246AA89E4375CB9DB4126"",""assignmentId"":""d320a248-eb18-4835-8568-1e0b4934048e"",""projectId"":""5e631737-0fa4-44a6-b227-7ba1d7345015""}","https://test12345.live/?num_scrambled_semantic=8&num_scrambled_causal=4&num_scrambled_schematic=4&participantId=99D0F7217FF246AA89E4375CB9DB4126&assignmentId=d320a248-eb18-4835-8568-1e0b4934048e&projectId=5e631737-0fa4-44a6-b227-7ba1d7345015","99D0F7217FF246AA89E4375CB9DB4126-2025-05-27-18-34-48","","null","","[]","null","",""
"","","","","","image-button-response","113","731202","0.0-14.0-1.0-0.8","99D0F7217FF246AA89E4375CB9DB4126","99D0F7217FF246AA89E4375CB9DB4126","d320a248-eb18-4835-8568-1e0b4934048e","5e631737-0fa4-44a6-b227-7ba1d7345015","{""num_scrambled_semantic"":""8"",""num_scrambled_causal"":""4"",""num_scrambled_schematic"":""4"",""participantId"":""99D0F7217FF246AA89E4375CB9DB4126"",""assignmentId"":""d320a248-eb18-4835-8568-1e0b4934048e"",""projectId"":""5e631737-0fa4-44a6-b227-7ba1d7345015""}","https://test12345.live/?num_scrambled_semantic=8&num_scrambled_causal=4&num_scrambled_schematic=4&participantId=99D0F7217FF246AA89E4375CB9DB4126&assignmentId=d320a248-eb18-4835-8568-1e0b4934048e&projectId=5e631737-0fa4-44a6-b227-7ba1d7345015","99D0F7217FF246AA89E4375CB9DB4126-2025-05-27-18-34-48","","null","","images/semantic_sequence/cat_care_semantic/cat_care_semantic_9.png","null","",""
