"success","timeout","failed_images","failed_audio","failed_video","trial_type","trial_index","time_elapsed","internal_node_id","subject","subject_id","study_id","session_id","urlvar","current_url","audio_id","view_history","rt","device_id","stimulus","response","estimated_stimulus_onset","seq_name"
"true","false","[]","[]","[]","preload","0","44074","0.0-0.0","9AD0C4D99F6C493A9F9DB7A60B1F3295","9AD0C4D99F6C493A9F9DB7A60B1F3295","0198ee41-8071-720f-b4af-b03e00ff6370","0198ee3c-27ac-7803-a9ea-f3b4ad4ad678","{""num_scrambled_semantic"":""8"",""num_scrambled_causal"":""4"",""num_scrambled_schematic"":""4"",""participantId"":""9AD0C4D99F6C493A9F9DB7A60B1F3295"",""assignmentId"":""0198ee41-8071-720f-b4af-b03e00ff6370"",""projectId"":""0198ee3c-27ac-7803-a9ea-f3b4ad4ad678""}","https://test12345.live/?num_scrambled_semantic=8&num_scrambled_causal=4&num_scrambled_schematic=4&participantId=9AD0C4D99F6C493A9F9DB7A60B1F3295&assignmentId=0198ee41-8071-720f-b4af-b03e00ff6370&projectId=0198ee3c-27ac-7803-a9ea-f3b4ad4ad678","9AD0C4D99F6C493A9F9DB7A60B1F3295-2025-08-28-02-09-34","","","","","","",""
"","","","","","instructions","1","60402","0.0-1.0","9AD0C4D99F6C493A9F9DB7A60B1F3295","9AD0C4D99F6C493A9F9DB7A60B1F3295","0198ee41-8071-720f-b4af-b03e00ff6370","0198ee3c-27ac-7803-a9ea-f3b4ad4ad678","{""num_scrambled_semantic"":""8"",""num_scrambled_causal"":""4"",""num_scrambled_schematic"":""4"",""participantId"":""9AD0C4D99F6C493A9F9DB7A60B1F3295"",""assignmentId"":""0198ee41-8071-720f-b4af-b03e00ff6370"",""projectId"":""0198ee3c-27ac-7803-a9ea-f3b4ad4ad678""}","https://test12345.live/?num_scrambled_semantic=8&num_scrambled_causal=4&num_scrambled_schematic=4&participantId=9AD0C4D99F6C493A9F9DB7A60B1F3295&assignmentId=0198ee41-8071-720f-b4af-b03e00ff6370&projectId=0198ee3c-27ac-7803-a9ea-f3b4ad4ad678","9AD0C4D99F6C493A9F9DB7A60B1F3295-2025-08-28-02-09-34","[{""page_index"":0,""viewing_time"":16326}]","16326","","","","",""
"","","","","","instructions","2","64450","0.0-2.0","9AD0C4D99F6C493A9F9DB7A60B1F3295","9AD0C4D99F6C493A9F9DB7A60B1F3295","0198ee41-8071-720f-b4af-b03e00ff6370","0198ee3c-27ac-7803-a9ea-f3b4ad4ad678","{""num_scrambled_semantic"":""8"",""num_scrambled_causal"":""4"",""num_scrambled_schematic"":""4"",""participantId"":""9AD0C4D99F6C493A9F9DB7A60B1F3295"",""assignmentId"":""0198ee41-8071-720f-b4af-b03e00ff6370"",""projectId"":""0198ee3c-27ac-7803-a9ea-f3b4ad4ad678""}","https://test12345.live/?num_scrambled_semantic=8&num_scrambled_causal=4&num_scrambled_schematic=4&participantId=9AD0C4D99F6C493A9F9DB7A60B1F3295&assignmentId=0198ee41-8071-720f-b4af-b03e00ff6370&projectId=0198ee3c-27ac-7803-a9ea-f3b4ad4ad678","9AD0C4D99F6C493A9F9DB7A60B1F3295-2025-08-28-02-09-34","[{""page_index"":0,""viewing_time"":4047}]","4047","","","","",""
"true","","","","","fullscreen","3","67038","0.0-3.0","9AD0C4D99F6C493A9F9DB7A60B1F3295","9AD0C4D99F6C493A9F9DB7A60B1F3295","0198ee41-8071-720f-b4af-b03e00ff6370","0198ee3c-27ac-7803-a9ea-f3b4ad4ad678","{""num_scrambled_semantic"":""8"",""num_scrambled_causal"":""4"",""num_scrambled_schematic"":""4"",""participantId"":""9AD0C4D99F6C493A9F9DB7A60B1F3295"",""assignmentId"":""0198ee41-8071-720f-b4af-b03e00ff6370"",""projectId"":""0198ee3c-27ac-7803-a9ea-f3b4ad4ad678""}","https://test12345.live/?num_scrambled_semantic=8&num_scrambled_causal=4&num_scrambled_schematic=4&participantId=9AD0C4D99F6C493A9F9DB7A60B1F3295&assignmentId=0198ee41-8071-720f-b4af-b03e00ff6370&projectId=0198ee3c-27ac-7803-a9ea-f3b4ad4ad678","9AD0C4D99F6C493A9F9DB7A60B1F3295-2025-08-28-02-09-34","","1561","","","","",""
"","","","","","initialize-microphone","4","74106","0.0-4.0-0.0","9AD0C4D99F6C493A9F9DB7A60B1F3295","9AD0C4D99F6C493A9F9DB7A60B1F3295","0198ee41-8071-720f-b4af-b03e00ff6370","0198ee3c-27ac-7803-a9ea-f3b4ad4ad678","{""num_scrambled_semantic"":""8"",""num_scrambled_causal"":""4"",""num_scrambled_schematic"":""4"",""participantId"":""9AD0C4D99F6C493A9F9DB7A60B1F3295"",""assignmentId"":""0198ee41-8071-720f-b4af-b03e00ff6370"",""projectId"":""0198ee3c-27ac-7803-a9ea-f3b4ad4ad678""}","https://test12345.live/?num_scrambled_semantic=8&num_scrambled_causal=4&num_scrambled_schematic=4&participantId=9AD0C4D99F6C493A9F9DB7A60B1F3295&assignmentId=0198ee41-8071-720f-b4af-b03e00ff6370&projectId=0198ee3c-27ac-7803-a9ea-f3b4ad4ad678","9AD0C4D99F6C493A9F9DB7A60B1F3295-2025-08-28-02-09-34","","","bf62ad8dd2d579c78b34fa88d93e88875f71706ef4f90fd56b6cd38a7836f986","","","",""
"","","","","","html-audio-response","5","90153","0.0-4.0-1.0","9AD0C4D99F6C493A9F9DB7A60B1F3295","9AD0C4D99F6C493A9F9DB7A60B1F3295","0198ee41-8071-720f-b4af-b03e00ff6370","0198ee3c-27ac-7803-a9ea-f3b4ad4ad678","{""num_scrambled_semantic"":""8"",""num_scrambled_causal"":""4"",""num_scrambled_schematic"":""4"",""participantId"":""9AD0C4D99F6C493A9F9DB7A60B1F3295"",""assignmentId"":""0198ee41-8071-720f-b4af-b03e00ff6370"",""projectId"":""0198ee3c-27ac-7803-a9ea-f3b4ad4ad678""}","https://test12345.live/?num_scrambled_semantic=8&num_scrambled_causal=4&num_scrambled_schematic=4&participantId=9AD0C4D99F6C493A9F9DB7A60B1F3295&assignmentId=0198ee41-8071-720f-b4af-b03e00ff6370&projectId=0198ee3c-27ac-7803-a9ea-f3b4ad4ad678","9AD0C4D99F6C493A9F9DB7A60B1F3295-2025-08-28-02-09-34","","7400","","<span style=""color: red; font-size: 24px""> NOW RECORDING</span>
        <p>Please test Microphone</p>","","4",""
"","","","","","html-button-response","6","91922","0.0-4.0-2.0","9AD0C4D99F6C493A9F9DB7A60B1F3295","9AD0C4D99F6C493A9F9DB7A60B1F3295","0198ee41-8071-720f-b4af-b03e00ff6370","0198ee3c-27ac-7803-a9ea-f3b4ad4ad678","{""num_scrambled_semantic"":""8"",""num_scrambled_causal"":""4"",""num_scrambled_schematic"":""4"",""participantId"":""9AD0C4D99F6C493A9F9DB7A60B1F3295"",""assignmentId"":""0198ee41-8071-720f-b4af-b03e00ff6370"",""projectId"":""0198ee3c-27ac-7803-a9ea-f3b4ad4ad678""}","https://test12345.live/?num_scrambled_semantic=8&num_scrambled_causal=4&num_scrambled_schematic=4&participantId=9AD0C4D99F6C493A9F9DB7A60B1F3295&assignmentId=0198ee41-8071-720f-b4af-b03e00ff6370&projectId=0198ee3c-27ac-7803-a9ea-f3b4ad4ad678","9AD0C4D99F6C493A9F9DB7A60B1F3295-2025-08-28-02-09-34","","1768","","<p style=""font-size:48px; color:red;"">Is Microphone OK?</p>","1","",""
"","","","","","instructions","7","98984","0.0-5.0","9AD0C4D99F6C493A9F9DB7A60B1F3295","9AD0C4D99F6C493A9F9DB7A60B1F3295","0198ee41-8071-720f-b4af-b03e00ff6370","0198ee3c-27ac-7803-a9ea-f3b4ad4ad678","{""num_scrambled_semantic"":""8"",""num_scrambled_causal"":""4"",""num_scrambled_schematic"":""4"",""participantId"":""9AD0C4D99F6C493A9F9DB7A60B1F3295"",""assignmentId"":""0198ee41-8071-720f-b4af-b03e00ff6370"",""projectId"":""0198ee3c-27ac-7803-a9ea-f3b4ad4ad678""}","https://test12345.live/?num_scrambled_semantic=8&num_scrambled_causal=4&num_scrambled_schematic=4&participantId=9AD0C4D99F6C493A9F9DB7A60B1F3295&assignmentId=0198ee41-8071-720f-b4af-b03e00ff6370&projectId=0198ee3c-27ac-7803-a9ea-f3b4ad4ad678","9AD0C4D99F6C493A9F9DB7A60B1F3295-2025-08-28-02-09-34","[{""page_index"":0,""viewing_time"":1492},{""page_index"":1,""viewing_time"":5569}]","7061","","","","",""
"","","","","","image-button-response","8","105000","0.0-6.0-0.0","9AD0C4D99F6C493A9F9DB7A60B1F3295","9AD0C4D99F6C493A9F9DB7A60B1F3295","0198ee41-8071-720f-b4af-b03e00ff6370","0198ee3c-27ac-7803-a9ea-f3b4ad4ad678","{""num_scrambled_semantic"":""8"",""num_scrambled_causal"":""4"",""num_scrambled_schematic"":""4"",""participantId"":""9AD0C4D99F6C493A9F9DB7A60B1F3295"",""assignmentId"":""0198ee41-8071-720f-b4af-b03e00ff6370"",""projectId"":""0198ee3c-27ac-7803-a9ea-f3b4ad4ad678""}","https://test12345.live/?num_scrambled_semantic=8&num_scrambled_causal=4&num_scrambled_schematic=4&participantId=9AD0C4D99F6C493A9F9DB7A60B1F3295&assignmentId=0198ee41-8071-720f-b4af-b03e00ff6370&projectId=0198ee3c-27ac-7803-a9ea-f3b4ad4ad678","9AD0C4D99F6C493A9F9DB7A60B1F3295-2025-08-28-02-09-34","","null","","images/instructions/movie_0.png","null","",""
"","","","","","image-button-response","9","109507","0.0-6.0-1.0-0.0","9AD0C4D99F6C493A9F9DB7A60B1F3295","9AD0C4D99F6C493A9F9DB7A60B1F3295","0198ee41-8071-720f-b4af-b03e00ff6370","0198ee3c-27ac-7803-a9ea-f3b4ad4ad678","{""num_scrambled_semantic"":""8"",""num_scrambled_causal"":""4"",""num_scrambled_schematic"":""4"",""participantId"":""9AD0C4D99F6C493A9F9DB7A60B1F3295"",""assignmentId"":""0198ee41-8071-720f-b4af-b03e00ff6370"",""projectId"":""0198ee3c-27ac-7803-a9ea-f3b4ad4ad678""}","https://test12345.live/?num_scrambled_semantic=8&num_scrambled_causal=4&num_scrambled_schematic=4&participantId=9AD0C4D99F6C493A9F9DB7A60B1F3295&assignmentId=0198ee41-8071-720f-b4af-b03e00ff6370&projectId=0198ee3c-27ac-7803-a9ea-f3b4ad4ad678","9AD0C4D99F6C493A9F9DB7A60B1F3295-2025-08-28-02-09-34","","null","","images/instructions/movie_1.png","null","",""
"","","","","","image-button-response","10","111648","0.0-6.0-1.0-1.0","9AD0C4D99F6C493A9F9DB7A60B1F3295","9AD0C4D99F6C493A9F9DB7A60B1F3295","0198ee41-8071-720f-b4af-b03e00ff6370","0198ee3c-27ac-7803-a9ea-f3b4ad4ad678","{""num_scrambled_semantic"":""8"",""num_scrambled_causal"":""4"",""num_scrambled_schematic"":""4"",""participantId"":""9AD0C4D99F6C493A9F9DB7A60B1F3295"",""assignmentId"":""0198ee41-8071-720f-b4af-b03e00ff6370"",""projectId"":""0198ee3c-27ac-7803-a9ea-f3b4ad4ad678""}","https://test12345.live/?num_scrambled_semantic=8&num_scrambled_causal=4&num_scrambled_schematic=4&participantId=9AD0C4D99F6C493A9F9DB7A60B1F3295&assignmentId=0198ee41-8071-720f-b4af-b03e00ff6370&projectId=0198ee3c-27ac-7803-a9ea-f3b4ad4ad678","9AD0C4D99F6C493A9F9DB7A60B1F3295-2025-08-28-02-09-34","","2140","","images/instructions/movie_1.png","0","",""
"","","","","","image-button-response","11","113453","0.0-6.0-1.0-2.0","9AD0C4D99F6C493A9F9DB7A60B1F3295","9AD0C4D99F6C493A9F9DB7A60B1F3295","0198ee41-8071-720f-b4af-b03e00ff6370","0198ee3c-27ac-7803-a9ea-f3b4ad4ad678","{""num_scrambled_semantic"":""8"",""num_scrambled_causal"":""4"",""num_scrambled_schematic"":""4"",""participantId"":""9AD0C4D99F6C493A9F9DB7A60B1F3295"",""assignmentId"":""0198ee41-8071-720f-b4af-b03e00ff6370"",""projectId"":""0198ee3c-27ac-7803-a9ea-f3b4ad4ad678""}","https://test12345.live/?num_scrambled_semantic=8&num_scrambled_causal=4&num_scrambled_schematic=4&participantId=9AD0C4D99F6C493A9F9DB7A60B1F3295&assignmentId=0198ee41-8071-720f-b4af-b03e00ff6370&projectId=0198ee3c-27ac-7803-a9ea-f3b4ad4ad678","9AD0C4D99F6C493A9F9DB7A60B1F3295-2025-08-28-02-09-34","","null","","[]","null","",""
"","","","","","image-button-response","12","117964","0.0-6.0-1.0-0.1","9AD0C4D99F6C493A9F9DB7A60B1F3295","9AD0C4D99F6C493A9F9DB7A60B1F3295","0198ee41-8071-720f-b4af-b03e00ff6370","0198ee3c-27ac-7803-a9ea-f3b4ad4ad678","{""num_scrambled_semantic"":""8"",""num_scrambled_causal"":""4"",""num_scrambled_schematic"":""4"",""participantId"":""9AD0C4D99F6C493A9F9DB7A60B1F3295"",""assignmentId"":""0198ee41-8071-720f-b4af-b03e00ff6370"",""projectId"":""0198ee3c-27ac-7803-a9ea-f3b4ad4ad678""}","https://test12345.live/?num_scrambled_semantic=8&num_scrambled_causal=4&num_scrambled_schematic=4&participantId=9AD0C4D99F6C493A9F9DB7A60B1F3295&assignmentId=0198ee41-8071-720f-b4af-b03e00ff6370&projectId=0198ee3c-27ac-7803-a9ea-f3b4ad4ad678","9AD0C4D99F6C493A9F9DB7A60B1F3295-2025-08-28-02-09-34","","null","","images/instructions/movie_2.png","null","",""
"","","","","","image-button-response","13","120374","0.0-6.0-1.0-1.1","9AD0C4D99F6C493A9F9DB7A60B1F3295","9AD0C4D99F6C493A9F9DB7A60B1F3295","0198ee41-8071-720f-b4af-b03e00ff6370","0198ee3c-27ac-7803-a9ea-f3b4ad4ad678","{""num_scrambled_semantic"":""8"",""num_scrambled_causal"":""4"",""num_scrambled_schematic"":""4"",""participantId"":""9AD0C4D99F6C493A9F9DB7A60B1F3295"",""assignmentId"":""0198ee41-8071-720f-b4af-b03e00ff6370"",""projectId"":""0198ee3c-27ac-7803-a9ea-f3b4ad4ad678""}","https://test12345.live/?num_scrambled_semantic=8&num_scrambled_causal=4&num_scrambled_schematic=4&participantId=9AD0C4D99F6C493A9F9DB7A60B1F3295&assignmentId=0198ee41-8071-720f-b4af-b03e00ff6370&projectId=0198ee3c-27ac-7803-a9ea-f3b4ad4ad678","9AD0C4D99F6C493A9F9DB7A60B1F3295-2025-08-28-02-09-34","","2409","","images/instructions/movie_2.png","0","",""
"","","","","","image-button-response","14","122183","0.0-6.0-1.0-2.1","9AD0C4D99F6C493A9F9DB7A60B1F3295","9AD0C4D99F6C493A9F9DB7A60B1F3295","0198ee41-8071-720f-b4af-b03e00ff6370","0198ee3c-27ac-7803-a9ea-f3b4ad4ad678","{""num_scrambled_semantic"":""8"",""num_scrambled_causal"":""4"",""num_scrambled_schematic"":""4"",""participantId"":""9AD0C4D99F6C493A9F9DB7A60B1F3295"",""assignmentId"":""0198ee41-8071-720f-b4af-b03e00ff6370"",""projectId"":""0198ee3c-27ac-7803-a9ea-f3b4ad4ad678""}","https://test12345.live/?num_scrambled_semantic=8&num_scrambled_causal=4&num_scrambled_schematic=4&participantId=9AD0C4D99F6C493A9F9DB7A60B1F3295&assignmentId=0198ee41-8071-720f-b4af-b03e00ff6370&projectId=0198ee3c-27ac-7803-a9ea-f3b4ad4ad678","9AD0C4D99F6C493A9F9DB7A60B1F3295-2025-08-28-02-09-34","","null","","[]","null","",""
"","","","","","image-button-response","15","126697","0.0-6.0-1.0-0.2","9AD0C4D99F6C493A9F9DB7A60B1F3295","9AD0C4D99F6C493A9F9DB7A60B1F3295","0198ee41-8071-720f-b4af-b03e00ff6370","0198ee3c-27ac-7803-a9ea-f3b4ad4ad678","{""num_scrambled_semantic"":""8"",""num_scrambled_causal"":""4"",""num_scrambled_schematic"":""4"",""participantId"":""9AD0C4D99F6C493A9F9DB7A60B1F3295"",""assignmentId"":""0198ee41-8071-720f-b4af-b03e00ff6370"",""projectId"":""0198ee3c-27ac-7803-a9ea-f3b4ad4ad678""}","https://test12345.live/?num_scrambled_semantic=8&num_scrambled_causal=4&num_scrambled_schematic=4&participantId=9AD0C4D99F6C493A9F9DB7A60B1F3295&assignmentId=0198ee41-8071-720f-b4af-b03e00ff6370&projectId=0198ee3c-27ac-7803-a9ea-f3b4ad4ad678","9AD0C4D99F6C493A9F9DB7A60B1F3295-2025-08-28-02-09-34","","null","","images/instructions/movie_3.png","null","",""
"","","","","","image-button-response","16","127886","0.0-6.0-1.0-1.2","9AD0C4D99F6C493A9F9DB7A60B1F3295","9AD0C4D99F6C493A9F9DB7A60B1F3295","0198ee41-8071-720f-b4af-b03e00ff6370","0198ee3c-27ac-7803-a9ea-f3b4ad4ad678","{""num_scrambled_semantic"":""8"",""num_scrambled_causal"":""4"",""num_scrambled_schematic"":""4"",""participantId"":""9AD0C4D99F6C493A9F9DB7A60B1F3295"",""assignmentId"":""0198ee41-8071-720f-b4af-b03e00ff6370"",""projectId"":""0198ee3c-27ac-7803-a9ea-f3b4ad4ad678""}","https://test12345.live/?num_scrambled_semantic=8&num_scrambled_causal=4&num_scrambled_schematic=4&participantId=9AD0C4D99F6C493A9F9DB7A60B1F3295&assignmentId=0198ee41-8071-720f-b4af-b03e00ff6370&projectId=0198ee3c-27ac-7803-a9ea-f3b4ad4ad678","9AD0C4D99F6C493A9F9DB7A60B1F3295-2025-08-28-02-09-34","","1189","","images/instructions/movie_3.png","0","",""
"","","","","","image-button-response","17","129696","0.0-6.0-1.0-2.2","9AD0C4D99F6C493A9F9DB7A60B1F3295","9AD0C4D99F6C493A9F9DB7A60B1F3295","0198ee41-8071-720f-b4af-b03e00ff6370","0198ee3c-27ac-7803-a9ea-f3b4ad4ad678","{""num_scrambled_semantic"":""8"",""num_scrambled_causal"":""4"",""num_scrambled_schematic"":""4"",""participantId"":""9AD0C4D99F6C493A9F9DB7A60B1F3295"",""assignmentId"":""0198ee41-8071-720f-b4af-b03e00ff6370"",""projectId"":""0198ee3c-27ac-7803-a9ea-f3b4ad4ad678""}","https://test12345.live/?num_scrambled_semantic=8&num_scrambled_causal=4&num_scrambled_schematic=4&participantId=9AD0C4D99F6C493A9F9DB7A60B1F3295&assignmentId=0198ee41-8071-720f-b4af-b03e00ff6370&projectId=0198ee3c-27ac-7803-a9ea-f3b4ad4ad678","9AD0C4D99F6C493A9F9DB7A60B1F3295-2025-08-28-02-09-34","","null","","[]","null","",""
"","","","","","image-button-response","18","134199","0.0-6.0-1.0-0.3","9AD0C4D99F6C493A9F9DB7A60B1F3295","9AD0C4D99F6C493A9F9DB7A60B1F3295","0198ee41-8071-720f-b4af-b03e00ff6370","0198ee3c-27ac-7803-a9ea-f3b4ad4ad678","{""num_scrambled_semantic"":""8"",""num_scrambled_causal"":""4"",""num_scrambled_schematic"":""4"",""participantId"":""9AD0C4D99F6C493A9F9DB7A60B1F3295"",""assignmentId"":""0198ee41-8071-720f-b4af-b03e00ff6370"",""projectId"":""0198ee3c-27ac-7803-a9ea-f3b4ad4ad678""}","https://test12345.live/?num_scrambled_semantic=8&num_scrambled_causal=4&num_scrambled_schematic=4&participantId=9AD0C4D99F6C493A9F9DB7A60B1F3295&assignmentId=0198ee41-8071-720f-b4af-b03e00ff6370&projectId=0198ee3c-27ac-7803-a9ea-f3b4ad4ad678","9AD0C4D99F6C493A9F9DB7A60B1F3295-2025-08-28-02-09-34","","null","","images/instructions/movie_4.png","null","",""
"","","","","","image-button-response","19","135780","0.0-6.0-1.0-1.3","9AD0C4D99F6C493A9F9DB7A60B1F3295","9AD0C4D99F6C493A9F9DB7A60B1F3295","0198ee41-8071-720f-b4af-b03e00ff6370","0198ee3c-27ac-7803-a9ea-f3b4ad4ad678","{""num_scrambled_semantic"":""8"",""num_scrambled_causal"":""4"",""num_scrambled_schematic"":""4"",""participantId"":""9AD0C4D99F6C493A9F9DB7A60B1F3295"",""assignmentId"":""0198ee41-8071-720f-b4af-b03e00ff6370"",""projectId"":""0198ee3c-27ac-7803-a9ea-f3b4ad4ad678""}","https://test12345.live/?num_scrambled_semantic=8&num_scrambled_causal=4&num_scrambled_schematic=4&participantId=9AD0C4D99F6C493A9F9DB7A60B1F3295&assignmentId=0198ee41-8071-720f-b4af-b03e00ff6370&projectId=0198ee3c-27ac-7803-a9ea-f3b4ad4ad678","9AD0C4D99F6C493A9F9DB7A60B1F3295-2025-08-28-02-09-34","","1580","","images/instructions/movie_4.png","0","",""
"","","","","","image-button-response","20","137583","0.0-6.0-1.0-2.3","9AD0C4D99F6C493A9F9DB7A60B1F3295","9AD0C4D99F6C493A9F9DB7A60B1F3295","0198ee41-8071-720f-b4af-b03e00ff6370","0198ee3c-27ac-7803-a9ea-f3b4ad4ad678","{""num_scrambled_semantic"":""8"",""num_scrambled_causal"":""4"",""num_scrambled_schematic"":""4"",""participantId"":""9AD0C4D99F6C493A9F9DB7A60B1F3295"",""assignmentId"":""0198ee41-8071-720f-b4af-b03e00ff6370"",""projectId"":""0198ee3c-27ac-7803-a9ea-f3b4ad4ad678""}","https://test12345.live/?num_scrambled_semantic=8&num_scrambled_causal=4&num_scrambled_schematic=4&participantId=9AD0C4D99F6C493A9F9DB7A60B1F3295&assignmentId=0198ee41-8071-720f-b4af-b03e00ff6370&projectId=0198ee3c-27ac-7803-a9ea-f3b4ad4ad678","9AD0C4D99F6C493A9F9DB7A60B1F3295-2025-08-28-02-09-34","","null","","[]","null","",""
"","","","","","instructions","21","155934","0.0-7.0","9AD0C4D99F6C493A9F9DB7A60B1F3295","9AD0C4D99F6C493A9F9DB7A60B1F3295","0198ee41-8071-720f-b4af-b03e00ff6370","0198ee3c-27ac-7803-a9ea-f3b4ad4ad678","{""num_scrambled_semantic"":""8"",""num_scrambled_causal"":""4"",""num_scrambled_schematic"":""4"",""participantId"":""9AD0C4D99F6C493A9F9DB7A60B1F3295"",""assignmentId"":""0198ee41-8071-720f-b4af-b03e00ff6370"",""projectId"":""0198ee3c-27ac-7803-a9ea-f3b4ad4ad678""}","https://test12345.live/?num_scrambled_semantic=8&num_scrambled_causal=4&num_scrambled_schematic=4&participantId=9AD0C4D99F6C493A9F9DB7A60B1F3295&assignmentId=0198ee41-8071-720f-b4af-b03e00ff6370&projectId=0198ee3c-27ac-7803-a9ea-f3b4ad4ad678","9AD0C4D99F6C493A9F9DB7A60B1F3295-2025-08-28-02-09-34","[{""page_index"":0,""viewing_time"":18350}]","18351","","","","",""
"","","","","","html-audio-response","22","190168","0.0-8.0","9AD0C4D99F6C493A9F9DB7A60B1F3295","9AD0C4D99F6C493A9F9DB7A60B1F3295","0198ee41-8071-720f-b4af-b03e00ff6370","0198ee3c-27ac-7803-a9ea-f3b4ad4ad678","{""num_scrambled_semantic"":""8"",""num_scrambled_causal"":""4"",""num_scrambled_schematic"":""4"",""participantId"":""9AD0C4D99F6C493A9F9DB7A60B1F3295"",""assignmentId"":""0198ee41-8071-720f-b4af-b03e00ff6370"",""projectId"":""0198ee3c-27ac-7803-a9ea-f3b4ad4ad678""}","https://test12345.live/?num_scrambled_semantic=8&num_scrambled_causal=4&num_scrambled_schematic=4&participantId=9AD0C4D99F6C493A9F9DB7A60B1F3295&assignmentId=0198ee41-8071-720f-b4af-b03e00ff6370&projectId=0198ee3c-27ac-7803-a9ea-f3b4ad4ad678","9AD0C4D99F6C493A9F9DB7A60B1F3295-2025-08-28-02-09-34","","20827","","[""<span style=\""color: red; font-size: 24px\""> NOW RECORDING</span><p>Please say out loud all the images you saw, in the order of the story they create. Try to recall the sequence of events as they appeared in the story, not necessarily the order they were presented on the screen.</p>""]","","1",""
"","","","","","instructions","23","191339","0.0-9.0","9AD0C4D99F6C493A9F9DB7A60B1F3295","9AD0C4D99F6C493A9F9DB7A60B1F3295","0198ee41-8071-720f-b4af-b03e00ff6370","0198ee3c-27ac-7803-a9ea-f3b4ad4ad678","{""num_scrambled_semantic"":""8"",""num_scrambled_causal"":""4"",""num_scrambled_schematic"":""4"",""participantId"":""9AD0C4D99F6C493A9F9DB7A60B1F3295"",""assignmentId"":""0198ee41-8071-720f-b4af-b03e00ff6370"",""projectId"":""0198ee3c-27ac-7803-a9ea-f3b4ad4ad678""}","https://test12345.live/?num_scrambled_semantic=8&num_scrambled_causal=4&num_scrambled_schematic=4&participantId=9AD0C4D99F6C493A9F9DB7A60B1F3295&assignmentId=0198ee41-8071-720f-b4af-b03e00ff6370&projectId=0198ee3c-27ac-7803-a9ea-f3b4ad4ad678","9AD0C4D99F6C493A9F9DB7A60B1F3295-2025-08-28-02-09-34","[{""page_index"":0,""viewing_time"":1166}]","1166","","","","",""
"","","","","","image-button-response","24","197351","0.0-10.0-0.0","9AD0C4D99F6C493A9F9DB7A60B1F3295","9AD0C4D99F6C493A9F9DB7A60B1F3295","0198ee41-8071-720f-b4af-b03e00ff6370","0198ee3c-27ac-7803-a9ea-f3b4ad4ad678","{""num_scrambled_semantic"":""8"",""num_scrambled_causal"":""4"",""num_scrambled_schematic"":""4"",""participantId"":""9AD0C4D99F6C493A9F9DB7A60B1F3295"",""assignmentId"":""0198ee41-8071-720f-b4af-b03e00ff6370"",""projectId"":""0198ee3c-27ac-7803-a9ea-f3b4ad4ad678""}","https://test12345.live/?num_scrambled_semantic=8&num_scrambled_causal=4&num_scrambled_schematic=4&participantId=9AD0C4D99F6C493A9F9DB7A60B1F3295&assignmentId=0198ee41-8071-720f-b4af-b03e00ff6370&projectId=0198ee3c-27ac-7803-a9ea-f3b4ad4ad678","9AD0C4D99F6C493A9F9DB7A60B1F3295-2025-08-28-02-09-34","","null","","images/schematic_sequence/hotel_scheme/hotel_scheme_0.png","null","",""
"","","","","","image-button-response","25","201862","0.0-10.0-1.0-0.0","9AD0C4D99F6C493A9F9DB7A60B1F3295","9AD0C4D99F6C493A9F9DB7A60B1F3295","0198ee41-8071-720f-b4af-b03e00ff6370","0198ee3c-27ac-7803-a9ea-f3b4ad4ad678","{""num_scrambled_semantic"":""8"",""num_scrambled_causal"":""4"",""num_scrambled_schematic"":""4"",""participantId"":""9AD0C4D99F6C493A9F9DB7A60B1F3295"",""assignmentId"":""0198ee41-8071-720f-b4af-b03e00ff6370"",""projectId"":""0198ee3c-27ac-7803-a9ea-f3b4ad4ad678""}","https://test12345.live/?num_scrambled_semantic=8&num_scrambled_causal=4&num_scrambled_schematic=4&participantId=9AD0C4D99F6C493A9F9DB7A60B1F3295&assignmentId=0198ee41-8071-720f-b4af-b03e00ff6370&projectId=0198ee3c-27ac-7803-a9ea-f3b4ad4ad678","9AD0C4D99F6C493A9F9DB7A60B1F3295-2025-08-28-02-09-34","","null","","images/schematic_sequence/hotel_scheme/hotel_scheme_1.png","null","",""
"","","","","","image-button-response","26","203444","0.0-10.0-1.0-1.0","9AD0C4D99F6C493A9F9DB7A60B1F3295","9AD0C4D99F6C493A9F9DB7A60B1F3295","0198ee41-8071-720f-b4af-b03e00ff6370","0198ee3c-27ac-7803-a9ea-f3b4ad4ad678","{""num_scrambled_semantic"":""8"",""num_scrambled_causal"":""4"",""num_scrambled_schematic"":""4"",""participantId"":""9AD0C4D99F6C493A9F9DB7A60B1F3295"",""assignmentId"":""0198ee41-8071-720f-b4af-b03e00ff6370"",""projectId"":""0198ee3c-27ac-7803-a9ea-f3b4ad4ad678""}","https://test12345.live/?num_scrambled_semantic=8&num_scrambled_causal=4&num_scrambled_schematic=4&participantId=9AD0C4D99F6C493A9F9DB7A60B1F3295&assignmentId=0198ee41-8071-720f-b4af-b03e00ff6370&projectId=0198ee3c-27ac-7803-a9ea-f3b4ad4ad678","9AD0C4D99F6C493A9F9DB7A60B1F3295-2025-08-28-02-09-34","","1580","","images/schematic_sequence/hotel_scheme/hotel_scheme_1.png","1","",""
"","","","","","image-button-response","27","205246","0.0-10.0-1.0-2.0","9AD0C4D99F6C493A9F9DB7A60B1F3295","9AD0C4D99F6C493A9F9DB7A60B1F3295","0198ee41-8071-720f-b4af-b03e00ff6370","0198ee3c-27ac-7803-a9ea-f3b4ad4ad678","{""num_scrambled_semantic"":""8"",""num_scrambled_causal"":""4"",""num_scrambled_schematic"":""4"",""participantId"":""9AD0C4D99F6C493A9F9DB7A60B1F3295"",""assignmentId"":""0198ee41-8071-720f-b4af-b03e00ff6370"",""projectId"":""0198ee3c-27ac-7803-a9ea-f3b4ad4ad678""}","https://test12345.live/?num_scrambled_semantic=8&num_scrambled_causal=4&num_scrambled_schematic=4&participantId=9AD0C4D99F6C493A9F9DB7A60B1F3295&assignmentId=0198ee41-8071-720f-b4af-b03e00ff6370&projectId=0198ee3c-27ac-7803-a9ea-f3b4ad4ad678","9AD0C4D99F6C493A9F9DB7A60B1F3295-2025-08-28-02-09-34","","null","","[]","null","",""
"","","","","","image-button-response","28","209748","0.0-10.0-1.0-0.1","9AD0C4D99F6C493A9F9DB7A60B1F3295","9AD0C4D99F6C493A9F9DB7A60B1F3295","0198ee41-8071-720f-b4af-b03e00ff6370","0198ee3c-27ac-7803-a9ea-f3b4ad4ad678","{""num_scrambled_semantic"":""8"",""num_scrambled_causal"":""4"",""num_scrambled_schematic"":""4"",""participantId"":""9AD0C4D99F6C493A9F9DB7A60B1F3295"",""assignmentId"":""0198ee41-8071-720f-b4af-b03e00ff6370"",""projectId"":""0198ee3c-27ac-7803-a9ea-f3b4ad4ad678""}","https://test12345.live/?num_scrambled_semantic=8&num_scrambled_causal=4&num_scrambled_schematic=4&participantId=9AD0C4D99F6C493A9F9DB7A60B1F3295&assignmentId=0198ee41-8071-720f-b4af-b03e00ff6370&projectId=0198ee3c-27ac-7803-a9ea-f3b4ad4ad678","9AD0C4D99F6C493A9F9DB7A60B1F3295-2025-08-28-02-09-34","","null","","images/schematic_sequence/hotel_scheme/hotel_scheme_2.png","null","",""
"","","","","","image-button-response","29","210879","0.0-10.0-1.0-1.1","9AD0C4D99F6C493A9F9DB7A60B1F3295","9AD0C4D99F6C493A9F9DB7A60B1F3295","0198ee41-8071-720f-b4af-b03e00ff6370","0198ee3c-27ac-7803-a9ea-f3b4ad4ad678","{""num_scrambled_semantic"":""8"",""num_scrambled_causal"":""4"",""num_scrambled_schematic"":""4"",""participantId"":""9AD0C4D99F6C493A9F9DB7A60B1F3295"",""assignmentId"":""0198ee41-8071-720f-b4af-b03e00ff6370"",""projectId"":""0198ee3c-27ac-7803-a9ea-f3b4ad4ad678""}","https://test12345.live/?num_scrambled_semantic=8&num_scrambled_causal=4&num_scrambled_schematic=4&participantId=9AD0C4D99F6C493A9F9DB7A60B1F3295&assignmentId=0198ee41-8071-720f-b4af-b03e00ff6370&projectId=0198ee3c-27ac-7803-a9ea-f3b4ad4ad678","9AD0C4D99F6C493A9F9DB7A60B1F3295-2025-08-28-02-09-34","","1131","","images/schematic_sequence/hotel_scheme/hotel_scheme_2.png","0","",""
"","","","","","image-button-response","30","212690","0.0-10.0-1.0-2.1","9AD0C4D99F6C493A9F9DB7A60B1F3295","9AD0C4D99F6C493A9F9DB7A60B1F3295","0198ee41-8071-720f-b4af-b03e00ff6370","0198ee3c-27ac-7803-a9ea-f3b4ad4ad678","{""num_scrambled_semantic"":""8"",""num_scrambled_causal"":""4"",""num_scrambled_schematic"":""4"",""participantId"":""9AD0C4D99F6C493A9F9DB7A60B1F3295"",""assignmentId"":""0198ee41-8071-720f-b4af-b03e00ff6370"",""projectId"":""0198ee3c-27ac-7803-a9ea-f3b4ad4ad678""}","https://test12345.live/?num_scrambled_semantic=8&num_scrambled_causal=4&num_scrambled_schematic=4&participantId=9AD0C4D99F6C493A9F9DB7A60B1F3295&assignmentId=0198ee41-8071-720f-b4af-b03e00ff6370&projectId=0198ee3c-27ac-7803-a9ea-f3b4ad4ad678","9AD0C4D99F6C493A9F9DB7A60B1F3295-2025-08-28-02-09-34","","null","","[]","null","",""
"","","","","","image-button-response","31","217201","0.0-10.0-1.0-0.2","9AD0C4D99F6C493A9F9DB7A60B1F3295","9AD0C4D99F6C493A9F9DB7A60B1F3295","0198ee41-8071-720f-b4af-b03e00ff6370","0198ee3c-27ac-7803-a9ea-f3b4ad4ad678","{""num_scrambled_semantic"":""8"",""num_scrambled_causal"":""4"",""num_scrambled_schematic"":""4"",""participantId"":""9AD0C4D99F6C493A9F9DB7A60B1F3295"",""assignmentId"":""0198ee41-8071-720f-b4af-b03e00ff6370"",""projectId"":""0198ee3c-27ac-7803-a9ea-f3b4ad4ad678""}","https://test12345.live/?num_scrambled_semantic=8&num_scrambled_causal=4&num_scrambled_schematic=4&participantId=9AD0C4D99F6C493A9F9DB7A60B1F3295&assignmentId=0198ee41-8071-720f-b4af-b03e00ff6370&projectId=0198ee3c-27ac-7803-a9ea-f3b4ad4ad678","9AD0C4D99F6C493A9F9DB7A60B1F3295-2025-08-28-02-09-34","","null","","images/schematic_sequence/hotel_scheme/hotel_scheme_3.png","null","",""
"","","","","","image-button-response","32","218143","0.0-10.0-1.0-1.2","9AD0C4D99F6C493A9F9DB7A60B1F3295","9AD0C4D99F6C493A9F9DB7A60B1F3295","0198ee41-8071-720f-b4af-b03e00ff6370","0198ee3c-27ac-7803-a9ea-f3b4ad4ad678","{""num_scrambled_semantic"":""8"",""num_scrambled_causal"":""4"",""num_scrambled_schematic"":""4"",""participantId"":""9AD0C4D99F6C493A9F9DB7A60B1F3295"",""assignmentId"":""0198ee41-8071-720f-b4af-b03e00ff6370"",""projectId"":""0198ee3c-27ac-7803-a9ea-f3b4ad4ad678""}","https://test12345.live/?num_scrambled_semantic=8&num_scrambled_causal=4&num_scrambled_schematic=4&participantId=9AD0C4D99F6C493A9F9DB7A60B1F3295&assignmentId=0198ee41-8071-720f-b4af-b03e00ff6370&projectId=0198ee3c-27ac-7803-a9ea-f3b4ad4ad678","9AD0C4D99F6C493A9F9DB7A60B1F3295-2025-08-28-02-09-34","","942","","images/schematic_sequence/hotel_scheme/hotel_scheme_3.png","0","",""
"","","","","","image-button-response","33","219955","0.0-10.0-1.0-2.2","9AD0C4D99F6C493A9F9DB7A60B1F3295","9AD0C4D99F6C493A9F9DB7A60B1F3295","0198ee41-8071-720f-b4af-b03e00ff6370","0198ee3c-27ac-7803-a9ea-f3b4ad4ad678","{""num_scrambled_semantic"":""8"",""num_scrambled_causal"":""4"",""num_scrambled_schematic"":""4"",""participantId"":""9AD0C4D99F6C493A9F9DB7A60B1F3295"",""assignmentId"":""0198ee41-8071-720f-b4af-b03e00ff6370"",""projectId"":""0198ee3c-27ac-7803-a9ea-f3b4ad4ad678""}","https://test12345.live/?num_scrambled_semantic=8&num_scrambled_causal=4&num_scrambled_schematic=4&participantId=9AD0C4D99F6C493A9F9DB7A60B1F3295&assignmentId=0198ee41-8071-720f-b4af-b03e00ff6370&projectId=0198ee3c-27ac-7803-a9ea-f3b4ad4ad678","9AD0C4D99F6C493A9F9DB7A60B1F3295-2025-08-28-02-09-34","","null","","[]","null","",""
"","","","","","image-button-response","34","224457","0.0-10.0-1.0-0.3","9AD0C4D99F6C493A9F9DB7A60B1F3295","9AD0C4D99F6C493A9F9DB7A60B1F3295","0198ee41-8071-720f-b4af-b03e00ff6370","0198ee3c-27ac-7803-a9ea-f3b4ad4ad678","{""num_scrambled_semantic"":""8"",""num_scrambled_causal"":""4"",""num_scrambled_schematic"":""4"",""participantId"":""9AD0C4D99F6C493A9F9DB7A60B1F3295"",""assignmentId"":""0198ee41-8071-720f-b4af-b03e00ff6370"",""projectId"":""0198ee3c-27ac-7803-a9ea-f3b4ad4ad678""}","https://test12345.live/?num_scrambled_semantic=8&num_scrambled_causal=4&num_scrambled_schematic=4&participantId=9AD0C4D99F6C493A9F9DB7A60B1F3295&assignmentId=0198ee41-8071-720f-b4af-b03e00ff6370&projectId=0198ee3c-27ac-7803-a9ea-f3b4ad4ad678","9AD0C4D99F6C493A9F9DB7A60B1F3295-2025-08-28-02-09-34","","null","","images/schematic_sequence/hotel_scheme/hotel_scheme_4.png","null","",""
"","","","","","image-button-response","35","226889","0.0-10.0-1.0-1.3","9AD0C4D99F6C493A9F9DB7A60B1F3295","9AD0C4D99F6C493A9F9DB7A60B1F3295","0198ee41-8071-720f-b4af-b03e00ff6370","0198ee3c-27ac-7803-a9ea-f3b4ad4ad678","{""num_scrambled_semantic"":""8"",""num_scrambled_causal"":""4"",""num_scrambled_schematic"":""4"",""participantId"":""9AD0C4D99F6C493A9F9DB7A60B1F3295"",""assignmentId"":""0198ee41-8071-720f-b4af-b03e00ff6370"",""projectId"":""0198ee3c-27ac-7803-a9ea-f3b4ad4ad678""}","https://test12345.live/?num_scrambled_semantic=8&num_scrambled_causal=4&num_scrambled_schematic=4&participantId=9AD0C4D99F6C493A9F9DB7A60B1F3295&assignmentId=0198ee41-8071-720f-b4af-b03e00ff6370&projectId=0198ee3c-27ac-7803-a9ea-f3b4ad4ad678","9AD0C4D99F6C493A9F9DB7A60B1F3295-2025-08-28-02-09-34","","2431","","images/schematic_sequence/hotel_scheme/hotel_scheme_4.png","1","",""
"","","","","","image-button-response","36","228700","0.0-10.0-1.0-2.3","9AD0C4D99F6C493A9F9DB7A60B1F3295","9AD0C4D99F6C493A9F9DB7A60B1F3295","0198ee41-8071-720f-b4af-b03e00ff6370","0198ee3c-27ac-7803-a9ea-f3b4ad4ad678","{""num_scrambled_semantic"":""8"",""num_scrambled_causal"":""4"",""num_scrambled_schematic"":""4"",""participantId"":""9AD0C4D99F6C493A9F9DB7A60B1F3295"",""assignmentId"":""0198ee41-8071-720f-b4af-b03e00ff6370"",""projectId"":""0198ee3c-27ac-7803-a9ea-f3b4ad4ad678""}","https://test12345.live/?num_scrambled_semantic=8&num_scrambled_causal=4&num_scrambled_schematic=4&participantId=9AD0C4D99F6C493A9F9DB7A60B1F3295&assignmentId=0198ee41-8071-720f-b4af-b03e00ff6370&projectId=0198ee3c-27ac-7803-a9ea-f3b4ad4ad678","9AD0C4D99F6C493A9F9DB7A60B1F3295-2025-08-28-02-09-34","","null","","[]","null","",""
"","","","","","image-button-response","37","233204","0.0-10.0-1.0-0.4","9AD0C4D99F6C493A9F9DB7A60B1F3295","9AD0C4D99F6C493A9F9DB7A60B1F3295","0198ee41-8071-720f-b4af-b03e00ff6370","0198ee3c-27ac-7803-a9ea-f3b4ad4ad678","{""num_scrambled_semantic"":""8"",""num_scrambled_causal"":""4"",""num_scrambled_schematic"":""4"",""participantId"":""9AD0C4D99F6C493A9F9DB7A60B1F3295"",""assignmentId"":""0198ee41-8071-720f-b4af-b03e00ff6370"",""projectId"":""0198ee3c-27ac-7803-a9ea-f3b4ad4ad678""}","https://test12345.live/?num_scrambled_semantic=8&num_scrambled_causal=4&num_scrambled_schematic=4&participantId=9AD0C4D99F6C493A9F9DB7A60B1F3295&assignmentId=0198ee41-8071-720f-b4af-b03e00ff6370&projectId=0198ee3c-27ac-7803-a9ea-f3b4ad4ad678","9AD0C4D99F6C493A9F9DB7A60B1F3295-2025-08-28-02-09-34","","null","","images/schematic_sequence/hotel_scheme/hotel_scheme_5.png","null","",""
"","","","","","image-button-response","38","234223","0.0-10.0-1.0-1.4","9AD0C4D99F6C493A9F9DB7A60B1F3295","9AD0C4D99F6C493A9F9DB7A60B1F3295","0198ee41-8071-720f-b4af-b03e00ff6370","0198ee3c-27ac-7803-a9ea-f3b4ad4ad678","{""num_scrambled_semantic"":""8"",""num_scrambled_causal"":""4"",""num_scrambled_schematic"":""4"",""participantId"":""9AD0C4D99F6C493A9F9DB7A60B1F3295"",""assignmentId"":""0198ee41-8071-720f-b4af-b03e00ff6370"",""projectId"":""0198ee3c-27ac-7803-a9ea-f3b4ad4ad678""}","https://test12345.live/?num_scrambled_semantic=8&num_scrambled_causal=4&num_scrambled_schematic=4&participantId=9AD0C4D99F6C493A9F9DB7A60B1F3295&assignmentId=0198ee41-8071-720f-b4af-b03e00ff6370&projectId=0198ee3c-27ac-7803-a9ea-f3b4ad4ad678","9AD0C4D99F6C493A9F9DB7A60B1F3295-2025-08-28-02-09-34","","1019","","images/schematic_sequence/hotel_scheme/hotel_scheme_5.png","0","",""
"","","","","","image-button-response","39","236036","0.0-10.0-1.0-2.4","9AD0C4D99F6C493A9F9DB7A60B1F3295","9AD0C4D99F6C493A9F9DB7A60B1F3295","0198ee41-8071-720f-b4af-b03e00ff6370","0198ee3c-27ac-7803-a9ea-f3b4ad4ad678","{""num_scrambled_semantic"":""8"",""num_scrambled_causal"":""4"",""num_scrambled_schematic"":""4"",""participantId"":""9AD0C4D99F6C493A9F9DB7A60B1F3295"",""assignmentId"":""0198ee41-8071-720f-b4af-b03e00ff6370"",""projectId"":""0198ee3c-27ac-7803-a9ea-f3b4ad4ad678""}","https://test12345.live/?num_scrambled_semantic=8&num_scrambled_causal=4&num_scrambled_schematic=4&participantId=9AD0C4D99F6C493A9F9DB7A60B1F3295&assignmentId=0198ee41-8071-720f-b4af-b03e00ff6370&projectId=0198ee3c-27ac-7803-a9ea-f3b4ad4ad678","9AD0C4D99F6C493A9F9DB7A60B1F3295-2025-08-28-02-09-34","","null","","[]","null","",""
"","","","","","image-button-response","40","240547","0.0-10.0-1.0-0.5","9AD0C4D99F6C493A9F9DB7A60B1F3295","9AD0C4D99F6C493A9F9DB7A60B1F3295","0198ee41-8071-720f-b4af-b03e00ff6370","0198ee3c-27ac-7803-a9ea-f3b4ad4ad678","{""num_scrambled_semantic"":""8"",""num_scrambled_causal"":""4"",""num_scrambled_schematic"":""4"",""participantId"":""9AD0C4D99F6C493A9F9DB7A60B1F3295"",""assignmentId"":""0198ee41-8071-720f-b4af-b03e00ff6370"",""projectId"":""0198ee3c-27ac-7803-a9ea-f3b4ad4ad678""}","https://test12345.live/?num_scrambled_semantic=8&num_scrambled_causal=4&num_scrambled_schematic=4&participantId=9AD0C4D99F6C493A9F9DB7A60B1F3295&assignmentId=0198ee41-8071-720f-b4af-b03e00ff6370&projectId=0198ee3c-27ac-7803-a9ea-f3b4ad4ad678","9AD0C4D99F6C493A9F9DB7A60B1F3295-2025-08-28-02-09-34","","null","","images/schematic_sequence/hotel_scheme/hotel_scheme_6.png","null","",""
"","","","","","image-button-response","41","242001","0.0-10.0-1.0-1.5","9AD0C4D99F6C493A9F9DB7A60B1F3295","9AD0C4D99F6C493A9F9DB7A60B1F3295","0198ee41-8071-720f-b4af-b03e00ff6370","0198ee3c-27ac-7803-a9ea-f3b4ad4ad678","{""num_scrambled_semantic"":""8"",""num_scrambled_causal"":""4"",""num_scrambled_schematic"":""4"",""participantId"":""9AD0C4D99F6C493A9F9DB7A60B1F3295"",""assignmentId"":""0198ee41-8071-720f-b4af-b03e00ff6370"",""projectId"":""0198ee3c-27ac-7803-a9ea-f3b4ad4ad678""}","https://test12345.live/?num_scrambled_semantic=8&num_scrambled_causal=4&num_scrambled_schematic=4&participantId=9AD0C4D99F6C493A9F9DB7A60B1F3295&assignmentId=0198ee41-8071-720f-b4af-b03e00ff6370&projectId=0198ee3c-27ac-7803-a9ea-f3b4ad4ad678","9AD0C4D99F6C493A9F9DB7A60B1F3295-2025-08-28-02-09-34","","1453","","images/schematic_sequence/hotel_scheme/hotel_scheme_6.png","0","",""
"","","","","","image-button-response","42","243807","0.0-10.0-1.0-2.5","9AD0C4D99F6C493A9F9DB7A60B1F3295","9AD0C4D99F6C493A9F9DB7A60B1F3295","0198ee41-8071-720f-b4af-b03e00ff6370","0198ee3c-27ac-7803-a9ea-f3b4ad4ad678","{""num_scrambled_semantic"":""8"",""num_scrambled_causal"":""4"",""num_scrambled_schematic"":""4"",""participantId"":""9AD0C4D99F6C493A9F9DB7A60B1F3295"",""assignmentId"":""0198ee41-8071-720f-b4af-b03e00ff6370"",""projectId"":""0198ee3c-27ac-7803-a9ea-f3b4ad4ad678""}","https://test12345.live/?num_scrambled_semantic=8&num_scrambled_causal=4&num_scrambled_schematic=4&participantId=9AD0C4D99F6C493A9F9DB7A60B1F3295&assignmentId=0198ee41-8071-720f-b4af-b03e00ff6370&projectId=0198ee3c-27ac-7803-a9ea-f3b4ad4ad678","9AD0C4D99F6C493A9F9DB7A60B1F3295-2025-08-28-02-09-34","","null","","[]","null","",""
"","","","","","image-button-response","43","248320","0.0-10.0-1.0-0.6","9AD0C4D99F6C493A9F9DB7A60B1F3295","9AD0C4D99F6C493A9F9DB7A60B1F3295","0198ee41-8071-720f-b4af-b03e00ff6370","0198ee3c-27ac-7803-a9ea-f3b4ad4ad678","{""num_scrambled_semantic"":""8"",""num_scrambled_causal"":""4"",""num_scrambled_schematic"":""4"",""participantId"":""9AD0C4D99F6C493A9F9DB7A60B1F3295"",""assignmentId"":""0198ee41-8071-720f-b4af-b03e00ff6370"",""projectId"":""0198ee3c-27ac-7803-a9ea-f3b4ad4ad678""}","https://test12345.live/?num_scrambled_semantic=8&num_scrambled_causal=4&num_scrambled_schematic=4&participantId=9AD0C4D99F6C493A9F9DB7A60B1F3295&assignmentId=0198ee41-8071-720f-b4af-b03e00ff6370&projectId=0198ee3c-27ac-7803-a9ea-f3b4ad4ad678","9AD0C4D99F6C493A9F9DB7A60B1F3295-2025-08-28-02-09-34","","null","","images/schematic_sequence/hotel_scheme/hotel_scheme_7.png","null","",""
"","","","","","image-button-response","44","249847","0.0-10.0-1.0-1.6","9AD0C4D99F6C493A9F9DB7A60B1F3295","9AD0C4D99F6C493A9F9DB7A60B1F3295","0198ee41-8071-720f-b4af-b03e00ff6370","0198ee3c-27ac-7803-a9ea-f3b4ad4ad678","{""num_scrambled_semantic"":""8"",""num_scrambled_causal"":""4"",""num_scrambled_schematic"":""4"",""participantId"":""9AD0C4D99F6C493A9F9DB7A60B1F3295"",""assignmentId"":""0198ee41-8071-720f-b4af-b03e00ff6370"",""projectId"":""0198ee3c-27ac-7803-a9ea-f3b4ad4ad678""}","https://test12345.live/?num_scrambled_semantic=8&num_scrambled_causal=4&num_scrambled_schematic=4&participantId=9AD0C4D99F6C493A9F9DB7A60B1F3295&assignmentId=0198ee41-8071-720f-b4af-b03e00ff6370&projectId=0198ee3c-27ac-7803-a9ea-f3b4ad4ad678","9AD0C4D99F6C493A9F9DB7A60B1F3295-2025-08-28-02-09-34","","1526","","images/schematic_sequence/hotel_scheme/hotel_scheme_7.png","0","",""
"","","","","","image-button-response","45","251660","0.0-10.0-1.0-2.6","9AD0C4D99F6C493A9F9DB7A60B1F3295","9AD0C4D99F6C493A9F9DB7A60B1F3295","0198ee41-8071-720f-b4af-b03e00ff6370","0198ee3c-27ac-7803-a9ea-f3b4ad4ad678","{""num_scrambled_semantic"":""8"",""num_scrambled_causal"":""4"",""num_scrambled_schematic"":""4"",""participantId"":""9AD0C4D99F6C493A9F9DB7A60B1F3295"",""assignmentId"":""0198ee41-8071-720f-b4af-b03e00ff6370"",""projectId"":""0198ee3c-27ac-7803-a9ea-f3b4ad4ad678""}","https://test12345.live/?num_scrambled_semantic=8&num_scrambled_causal=4&num_scrambled_schematic=4&participantId=9AD0C4D99F6C493A9F9DB7A60B1F3295&assignmentId=0198ee41-8071-720f-b4af-b03e00ff6370&projectId=0198ee3c-27ac-7803-a9ea-f3b4ad4ad678","9AD0C4D99F6C493A9F9DB7A60B1F3295-2025-08-28-02-09-34","","null","","[]","null","",""
"","","","","","image-button-response","46","256171","0.0-10.0-1.0-0.7","9AD0C4D99F6C493A9F9DB7A60B1F3295","9AD0C4D99F6C493A9F9DB7A60B1F3295","0198ee41-8071-720f-b4af-b03e00ff6370","0198ee3c-27ac-7803-a9ea-f3b4ad4ad678","{""num_scrambled_semantic"":""8"",""num_scrambled_causal"":""4"",""num_scrambled_schematic"":""4"",""participantId"":""9AD0C4D99F6C493A9F9DB7A60B1F3295"",""assignmentId"":""0198ee41-8071-720f-b4af-b03e00ff6370"",""projectId"":""0198ee3c-27ac-7803-a9ea-f3b4ad4ad678""}","https://test12345.live/?num_scrambled_semantic=8&num_scrambled_causal=4&num_scrambled_schematic=4&participantId=9AD0C4D99F6C493A9F9DB7A60B1F3295&assignmentId=0198ee41-8071-720f-b4af-b03e00ff6370&projectId=0198ee3c-27ac-7803-a9ea-f3b4ad4ad678","9AD0C4D99F6C493A9F9DB7A60B1F3295-2025-08-28-02-09-34","","null","","images/schematic_sequence/hotel_scheme/hotel_scheme_8.png","null","",""
"","","","","","image-button-response","47","257391","0.0-10.0-1.0-1.7","9AD0C4D99F6C493A9F9DB7A60B1F3295","9AD0C4D99F6C493A9F9DB7A60B1F3295","0198ee41-8071-720f-b4af-b03e00ff6370","0198ee3c-27ac-7803-a9ea-f3b4ad4ad678","{""num_scrambled_semantic"":""8"",""num_scrambled_causal"":""4"",""num_scrambled_schematic"":""4"",""participantId"":""9AD0C4D99F6C493A9F9DB7A60B1F3295"",""assignmentId"":""0198ee41-8071-720f-b4af-b03e00ff6370"",""projectId"":""0198ee3c-27ac-7803-a9ea-f3b4ad4ad678""}","https://test12345.live/?num_scrambled_semantic=8&num_scrambled_causal=4&num_scrambled_schematic=4&participantId=9AD0C4D99F6C493A9F9DB7A60B1F3295&assignmentId=0198ee41-8071-720f-b4af-b03e00ff6370&projectId=0198ee3c-27ac-7803-a9ea-f3b4ad4ad678","9AD0C4D99F6C493A9F9DB7A60B1F3295-2025-08-28-02-09-34","","1219","","images/schematic_sequence/hotel_scheme/hotel_scheme_8.png","0","",""
"","","","","","image-button-response","48","259192","0.0-10.0-1.0-2.7","9AD0C4D99F6C493A9F9DB7A60B1F3295","9AD0C4D99F6C493A9F9DB7A60B1F3295","0198ee41-8071-720f-b4af-b03e00ff6370","0198ee3c-27ac-7803-a9ea-f3b4ad4ad678","{""num_scrambled_semantic"":""8"",""num_scrambled_causal"":""4"",""num_scrambled_schematic"":""4"",""participantId"":""9AD0C4D99F6C493A9F9DB7A60B1F3295"",""assignmentId"":""0198ee41-8071-720f-b4af-b03e00ff6370"",""projectId"":""0198ee3c-27ac-7803-a9ea-f3b4ad4ad678""}","https://test12345.live/?num_scrambled_semantic=8&num_scrambled_causal=4&num_scrambled_schematic=4&participantId=9AD0C4D99F6C493A9F9DB7A60B1F3295&assignmentId=0198ee41-8071-720f-b4af-b03e00ff6370&projectId=0198ee3c-27ac-7803-a9ea-f3b4ad4ad678","9AD0C4D99F6C493A9F9DB7A60B1F3295-2025-08-28-02-09-34","","null","","[]","null","",""
"","","","","","image-button-response","49","263704","0.0-10.0-1.0-0.8","9AD0C4D99F6C493A9F9DB7A60B1F3295","9AD0C4D99F6C493A9F9DB7A60B1F3295","0198ee41-8071-720f-b4af-b03e00ff6370","0198ee3c-27ac-7803-a9ea-f3b4ad4ad678","{""num_scrambled_semantic"":""8"",""num_scrambled_causal"":""4"",""num_scrambled_schematic"":""4"",""participantId"":""9AD0C4D99F6C493A9F9DB7A60B1F3295"",""assignmentId"":""0198ee41-8071-720f-b4af-b03e00ff6370"",""projectId"":""0198ee3c-27ac-7803-a9ea-f3b4ad4ad678""}","https://test12345.live/?num_scrambled_semantic=8&num_scrambled_causal=4&num_scrambled_schematic=4&participantId=9AD0C4D99F6C493A9F9DB7A60B1F3295&assignmentId=0198ee41-8071-720f-b4af-b03e00ff6370&projectId=0198ee3c-27ac-7803-a9ea-f3b4ad4ad678","9AD0C4D99F6C493A9F9DB7A60B1F3295-2025-08-28-02-09-34","","null","","images/schematic_sequence/hotel_scheme/hotel_scheme_9.png","null","",""
"","","","","","image-button-response","50","265319","0.0-10.0-1.0-1.8","9AD0C4D99F6C493A9F9DB7A60B1F3295","9AD0C4D99F6C493A9F9DB7A60B1F3295","0198ee41-8071-720f-b4af-b03e00ff6370","0198ee3c-27ac-7803-a9ea-f3b4ad4ad678","{""num_scrambled_semantic"":""8"",""num_scrambled_causal"":""4"",""num_scrambled_schematic"":""4"",""participantId"":""9AD0C4D99F6C493A9F9DB7A60B1F3295"",""assignmentId"":""0198ee41-8071-720f-b4af-b03e00ff6370"",""projectId"":""0198ee3c-27ac-7803-a9ea-f3b4ad4ad678""}","https://test12345.live/?num_scrambled_semantic=8&num_scrambled_causal=4&num_scrambled_schematic=4&participantId=9AD0C4D99F6C493A9F9DB7A60B1F3295&assignmentId=0198ee41-8071-720f-b4af-b03e00ff6370&projectId=0198ee3c-27ac-7803-a9ea-f3b4ad4ad678","9AD0C4D99F6C493A9F9DB7A60B1F3295-2025-08-28-02-09-34","","1614","","images/schematic_sequence/hotel_scheme/hotel_scheme_9.png","0","",""
"","","","","","image-button-response","51","267126","0.0-10.0-1.0-2.8","9AD0C4D99F6C493A9F9DB7A60B1F3295","9AD0C4D99F6C493A9F9DB7A60B1F3295","0198ee41-8071-720f-b4af-b03e00ff6370","0198ee3c-27ac-7803-a9ea-f3b4ad4ad678","{""num_scrambled_semantic"":""8"",""num_scrambled_causal"":""4"",""num_scrambled_schematic"":""4"",""participantId"":""9AD0C4D99F6C493A9F9DB7A60B1F3295"",""assignmentId"":""0198ee41-8071-720f-b4af-b03e00ff6370"",""projectId"":""0198ee3c-27ac-7803-a9ea-f3b4ad4ad678""}","https://test12345.live/?num_scrambled_semantic=8&num_scrambled_causal=4&num_scrambled_schematic=4&participantId=9AD0C4D99F6C493A9F9DB7A60B1F3295&assignmentId=0198ee41-8071-720f-b4af-b03e00ff6370&projectId=0198ee3c-27ac-7803-a9ea-f3b4ad4ad678","9AD0C4D99F6C493A9F9DB7A60B1F3295-2025-08-28-02-09-34","","null","","[]","null","",""
"","","","","","image-button-response","52","271631","0.0-10.0-1.0-0.9","9AD0C4D99F6C493A9F9DB7A60B1F3295","9AD0C4D99F6C493A9F9DB7A60B1F3295","0198ee41-8071-720f-b4af-b03e00ff6370","0198ee3c-27ac-7803-a9ea-f3b4ad4ad678","{""num_scrambled_semantic"":""8"",""num_scrambled_causal"":""4"",""num_scrambled_schematic"":""4"",""participantId"":""9AD0C4D99F6C493A9F9DB7A60B1F3295"",""assignmentId"":""0198ee41-8071-720f-b4af-b03e00ff6370"",""projectId"":""0198ee3c-27ac-7803-a9ea-f3b4ad4ad678""}","https://test12345.live/?num_scrambled_semantic=8&num_scrambled_causal=4&num_scrambled_schematic=4&participantId=9AD0C4D99F6C493A9F9DB7A60B1F3295&assignmentId=0198ee41-8071-720f-b4af-b03e00ff6370&projectId=0198ee3c-27ac-7803-a9ea-f3b4ad4ad678","9AD0C4D99F6C493A9F9DB7A60B1F3295-2025-08-28-02-09-34","","null","","images/schematic_sequence/hotel_scheme/hotel_scheme_ten.png","null","",""
"","","","","","image-button-response","53","272831","0.0-10.0-1.0-1.9","9AD0C4D99F6C493A9F9DB7A60B1F3295","9AD0C4D99F6C493A9F9DB7A60B1F3295","0198ee41-8071-720f-b4af-b03e00ff6370","0198ee3c-27ac-7803-a9ea-f3b4ad4ad678","{""num_scrambled_semantic"":""8"",""num_scrambled_causal"":""4"",""num_scrambled_schematic"":""4"",""participantId"":""9AD0C4D99F6C493A9F9DB7A60B1F3295"",""assignmentId"":""0198ee41-8071-720f-b4af-b03e00ff6370"",""projectId"":""0198ee3c-27ac-7803-a9ea-f3b4ad4ad678""}","https://test12345.live/?num_scrambled_semantic=8&num_scrambled_causal=4&num_scrambled_schematic=4&participantId=9AD0C4D99F6C493A9F9DB7A60B1F3295&assignmentId=0198ee41-8071-720f-b4af-b03e00ff6370&projectId=0198ee3c-27ac-7803-a9ea-f3b4ad4ad678","9AD0C4D99F6C493A9F9DB7A60B1F3295-2025-08-28-02-09-34","","1200","","images/schematic_sequence/hotel_scheme/hotel_scheme_ten.png","0","",""
"","","","","","image-button-response","54","274646","0.0-10.0-1.0-2.9","9AD0C4D99F6C493A9F9DB7A60B1F3295","9AD0C4D99F6C493A9F9DB7A60B1F3295","0198ee41-8071-720f-b4af-b03e00ff6370","0198ee3c-27ac-7803-a9ea-f3b4ad4ad678","{""num_scrambled_semantic"":""8"",""num_scrambled_causal"":""4"",""num_scrambled_schematic"":""4"",""participantId"":""9AD0C4D99F6C493A9F9DB7A60B1F3295"",""assignmentId"":""0198ee41-8071-720f-b4af-b03e00ff6370"",""projectId"":""0198ee3c-27ac-7803-a9ea-f3b4ad4ad678""}","https://test12345.live/?num_scrambled_semantic=8&num_scrambled_causal=4&num_scrambled_schematic=4&participantId=9AD0C4D99F6C493A9F9DB7A60B1F3295&assignmentId=0198ee41-8071-720f-b4af-b03e00ff6370&projectId=0198ee3c-27ac-7803-a9ea-f3b4ad4ad678","9AD0C4D99F6C493A9F9DB7A60B1F3295-2025-08-28-02-09-34","","null","","[]","null","",""
"","","","","","html-audio-response","55","309995","0.0-11.0","9AD0C4D99F6C493A9F9DB7A60B1F3295","9AD0C4D99F6C493A9F9DB7A60B1F3295","0198ee41-8071-720f-b4af-b03e00ff6370","0198ee3c-27ac-7803-a9ea-f3b4ad4ad678","{""num_scrambled_semantic"":""8"",""num_scrambled_causal"":""4"",""num_scrambled_schematic"":""4"",""participantId"":""9AD0C4D99F6C493A9F9DB7A60B1F3295"",""assignmentId"":""0198ee41-8071-720f-b4af-b03e00ff6370"",""projectId"":""0198ee3c-27ac-7803-a9ea-f3b4ad4ad678""}","https://test12345.live/?num_scrambled_semantic=8&num_scrambled_causal=4&num_scrambled_schematic=4&participantId=9AD0C4D99F6C493A9F9DB7A60B1F3295&assignmentId=0198ee41-8071-720f-b4af-b03e00ff6370&projectId=0198ee3c-27ac-7803-a9ea-f3b4ad4ad678","9AD0C4D99F6C493A9F9DB7A60B1F3295-2025-08-28-02-09-34","","25238","","[""<span style=\""color: red; font-size: 24px\""> NOW RECORDING</span><p>Please say out loud all the images you saw, in the order of the story they create. Try to recall the sequence of events as they appeared in the story, not necessarily the order they were presented on the screen.</p>""]","","1","hotel_scheme"
"","","","","","image-button-response","56","316010","0.0-12.0-0.0","9AD0C4D99F6C493A9F9DB7A60B1F3295","9AD0C4D99F6C493A9F9DB7A60B1F3295","0198ee41-8071-720f-b4af-b03e00ff6370","0198ee3c-27ac-7803-a9ea-f3b4ad4ad678","{""num_scrambled_semantic"":""8"",""num_scrambled_causal"":""4"",""num_scrambled_schematic"":""4"",""participantId"":""9AD0C4D99F6C493A9F9DB7A60B1F3295"",""assignmentId"":""0198ee41-8071-720f-b4af-b03e00ff6370"",""projectId"":""0198ee3c-27ac-7803-a9ea-f3b4ad4ad678""}","https://test12345.live/?num_scrambled_semantic=8&num_scrambled_causal=4&num_scrambled_schematic=4&participantId=9AD0C4D99F6C493A9F9DB7A60B1F3295&assignmentId=0198ee41-8071-720f-b4af-b03e00ff6370&projectId=0198ee3c-27ac-7803-a9ea-f3b4ad4ad678","9AD0C4D99F6C493A9F9DB7A60B1F3295-2025-08-28-02-09-34","","null","","images/causal_sequence/museum_causal/museum_causal_0.png","null","",""
"","","","","","image-button-response","57","320523","0.0-12.0-1.0-0.0","9AD0C4D99F6C493A9F9DB7A60B1F3295","9AD0C4D99F6C493A9F9DB7A60B1F3295","0198ee41-8071-720f-b4af-b03e00ff6370","0198ee3c-27ac-7803-a9ea-f3b4ad4ad678","{""num_scrambled_semantic"":""8"",""num_scrambled_causal"":""4"",""num_scrambled_schematic"":""4"",""participantId"":""9AD0C4D99F6C493A9F9DB7A60B1F3295"",""assignmentId"":""0198ee41-8071-720f-b4af-b03e00ff6370"",""projectId"":""0198ee3c-27ac-7803-a9ea-f3b4ad4ad678""}","https://test12345.live/?num_scrambled_semantic=8&num_scrambled_causal=4&num_scrambled_schematic=4&participantId=9AD0C4D99F6C493A9F9DB7A60B1F3295&assignmentId=0198ee41-8071-720f-b4af-b03e00ff6370&projectId=0198ee3c-27ac-7803-a9ea-f3b4ad4ad678","9AD0C4D99F6C493A9F9DB7A60B1F3295-2025-08-28-02-09-34","","null","","images/causal_sequence/museum_causal/museum_causal_8.png","null","",""
"","","","","","image-button-response","58","322571","0.0-12.0-1.0-1.0","9AD0C4D99F6C493A9F9DB7A60B1F3295","9AD0C4D99F6C493A9F9DB7A60B1F3295","0198ee41-8071-720f-b4af-b03e00ff6370","0198ee3c-27ac-7803-a9ea-f3b4ad4ad678","{""num_scrambled_semantic"":""8"",""num_scrambled_causal"":""4"",""num_scrambled_schematic"":""4"",""participantId"":""9AD0C4D99F6C493A9F9DB7A60B1F3295"",""assignmentId"":""0198ee41-8071-720f-b4af-b03e00ff6370"",""projectId"":""0198ee3c-27ac-7803-a9ea-f3b4ad4ad678""}","https://test12345.live/?num_scrambled_semantic=8&num_scrambled_causal=4&num_scrambled_schematic=4&participantId=9AD0C4D99F6C493A9F9DB7A60B1F3295&assignmentId=0198ee41-8071-720f-b4af-b03e00ff6370&projectId=0198ee3c-27ac-7803-a9ea-f3b4ad4ad678","9AD0C4D99F6C493A9F9DB7A60B1F3295-2025-08-28-02-09-34","","2048","","images/causal_sequence/museum_causal/museum_causal_8.png","0","",""
"","","","","","image-button-response","59","324387","0.0-12.0-1.0-2.0","9AD0C4D99F6C493A9F9DB7A60B1F3295","9AD0C4D99F6C493A9F9DB7A60B1F3295","0198ee41-8071-720f-b4af-b03e00ff6370","0198ee3c-27ac-7803-a9ea-f3b4ad4ad678","{""num_scrambled_semantic"":""8"",""num_scrambled_causal"":""4"",""num_scrambled_schematic"":""4"",""participantId"":""9AD0C4D99F6C493A9F9DB7A60B1F3295"",""assignmentId"":""0198ee41-8071-720f-b4af-b03e00ff6370"",""projectId"":""0198ee3c-27ac-7803-a9ea-f3b4ad4ad678""}","https://test12345.live/?num_scrambled_semantic=8&num_scrambled_causal=4&num_scrambled_schematic=4&participantId=9AD0C4D99F6C493A9F9DB7A60B1F3295&assignmentId=0198ee41-8071-720f-b4af-b03e00ff6370&projectId=0198ee3c-27ac-7803-a9ea-f3b4ad4ad678","9AD0C4D99F6C493A9F9DB7A60B1F3295-2025-08-28-02-09-34","","null","","[]","null","",""
"","","","","","image-button-response","60","328891","0.0-12.0-1.0-0.1","9AD0C4D99F6C493A9F9DB7A60B1F3295","9AD0C4D99F6C493A9F9DB7A60B1F3295","0198ee41-8071-720f-b4af-b03e00ff6370","0198ee3c-27ac-7803-a9ea-f3b4ad4ad678","{""num_scrambled_semantic"":""8"",""num_scrambled_causal"":""4"",""num_scrambled_schematic"":""4"",""participantId"":""9AD0C4D99F6C493A9F9DB7A60B1F3295"",""assignmentId"":""0198ee41-8071-720f-b4af-b03e00ff6370"",""projectId"":""0198ee3c-27ac-7803-a9ea-f3b4ad4ad678""}","https://test12345.live/?num_scrambled_semantic=8&num_scrambled_causal=4&num_scrambled_schematic=4&participantId=9AD0C4D99F6C493A9F9DB7A60B1F3295&assignmentId=0198ee41-8071-720f-b4af-b03e00ff6370&projectId=0198ee3c-27ac-7803-a9ea-f3b4ad4ad678","9AD0C4D99F6C493A9F9DB7A60B1F3295-2025-08-28-02-09-34","","null","","images/causal_sequence/museum_causal/museum_causal_1.png","null","",""
"","","","","","image-button-response","61","330339","0.0-12.0-1.0-1.1","9AD0C4D99F6C493A9F9DB7A60B1F3295","9AD0C4D99F6C493A9F9DB7A60B1F3295","0198ee41-8071-720f-b4af-b03e00ff6370","0198ee3c-27ac-7803-a9ea-f3b4ad4ad678","{""num_scrambled_semantic"":""8"",""num_scrambled_causal"":""4"",""num_scrambled_schematic"":""4"",""participantId"":""9AD0C4D99F6C493A9F9DB7A60B1F3295"",""assignmentId"":""0198ee41-8071-720f-b4af-b03e00ff6370"",""projectId"":""0198ee3c-27ac-7803-a9ea-f3b4ad4ad678""}","https://test12345.live/?num_scrambled_semantic=8&num_scrambled_causal=4&num_scrambled_schematic=4&participantId=9AD0C4D99F6C493A9F9DB7A60B1F3295&assignmentId=0198ee41-8071-720f-b4af-b03e00ff6370&projectId=0198ee3c-27ac-7803-a9ea-f3b4ad4ad678","9AD0C4D99F6C493A9F9DB7A60B1F3295-2025-08-28-02-09-34","","1447","","images/causal_sequence/museum_causal/museum_causal_1.png","0","",""
"","","","","","image-button-response","62","332140","0.0-12.0-1.0-2.1","9AD0C4D99F6C493A9F9DB7A60B1F3295","9AD0C4D99F6C493A9F9DB7A60B1F3295","0198ee41-8071-720f-b4af-b03e00ff6370","0198ee3c-27ac-7803-a9ea-f3b4ad4ad678","{""num_scrambled_semantic"":""8"",""num_scrambled_causal"":""4"",""num_scrambled_schematic"":""4"",""participantId"":""9AD0C4D99F6C493A9F9DB7A60B1F3295"",""assignmentId"":""0198ee41-8071-720f-b4af-b03e00ff6370"",""projectId"":""0198ee3c-27ac-7803-a9ea-f3b4ad4ad678""}","https://test12345.live/?num_scrambled_semantic=8&num_scrambled_causal=4&num_scrambled_schematic=4&participantId=9AD0C4D99F6C493A9F9DB7A60B1F3295&assignmentId=0198ee41-8071-720f-b4af-b03e00ff6370&projectId=0198ee3c-27ac-7803-a9ea-f3b4ad4ad678","9AD0C4D99F6C493A9F9DB7A60B1F3295-2025-08-28-02-09-34","","null","","[]","null","",""
"","","","","","image-button-response","63","336656","0.0-12.0-1.0-0.2","9AD0C4D99F6C493A9F9DB7A60B1F3295","9AD0C4D99F6C493A9F9DB7A60B1F3295","0198ee41-8071-720f-b4af-b03e00ff6370","0198ee3c-27ac-7803-a9ea-f3b4ad4ad678","{""num_scrambled_semantic"":""8"",""num_scrambled_causal"":""4"",""num_scrambled_schematic"":""4"",""participantId"":""9AD0C4D99F6C493A9F9DB7A60B1F3295"",""assignmentId"":""0198ee41-8071-720f-b4af-b03e00ff6370"",""projectId"":""0198ee3c-27ac-7803-a9ea-f3b4ad4ad678""}","https://test12345.live/?num_scrambled_semantic=8&num_scrambled_causal=4&num_scrambled_schematic=4&participantId=9AD0C4D99F6C493A9F9DB7A60B1F3295&assignmentId=0198ee41-8071-720f-b4af-b03e00ff6370&projectId=0198ee3c-27ac-7803-a9ea-f3b4ad4ad678","9AD0C4D99F6C493A9F9DB7A60B1F3295-2025-08-28-02-09-34","","null","","images/causal_sequence/museum_causal/museum_causal_9.png","null","",""
"","","","","","image-button-response","64","337937","0.0-12.0-1.0-1.2","9AD0C4D99F6C493A9F9DB7A60B1F3295","9AD0C4D99F6C493A9F9DB7A60B1F3295","0198ee41-8071-720f-b4af-b03e00ff6370","0198ee3c-27ac-7803-a9ea-f3b4ad4ad678","{""num_scrambled_semantic"":""8"",""num_scrambled_causal"":""4"",""num_scrambled_schematic"":""4"",""participantId"":""9AD0C4D99F6C493A9F9DB7A60B1F3295"",""assignmentId"":""0198ee41-8071-720f-b4af-b03e00ff6370"",""projectId"":""0198ee3c-27ac-7803-a9ea-f3b4ad4ad678""}","https://test12345.live/?num_scrambled_semantic=8&num_scrambled_causal=4&num_scrambled_schematic=4&participantId=9AD0C4D99F6C493A9F9DB7A60B1F3295&assignmentId=0198ee41-8071-720f-b4af-b03e00ff6370&projectId=0198ee3c-27ac-7803-a9ea-f3b4ad4ad678","9AD0C4D99F6C493A9F9DB7A60B1F3295-2025-08-28-02-09-34","","1281","","images/causal_sequence/museum_causal/museum_causal_9.png","1","",""
"","","","","","image-button-response","65","339742","0.0-12.0-1.0-2.2","9AD0C4D99F6C493A9F9DB7A60B1F3295","9AD0C4D99F6C493A9F9DB7A60B1F3295","0198ee41-8071-720f-b4af-b03e00ff6370","0198ee3c-27ac-7803-a9ea-f3b4ad4ad678","{""num_scrambled_semantic"":""8"",""num_scrambled_causal"":""4"",""num_scrambled_schematic"":""4"",""participantId"":""9AD0C4D99F6C493A9F9DB7A60B1F3295"",""assignmentId"":""0198ee41-8071-720f-b4af-b03e00ff6370"",""projectId"":""0198ee3c-27ac-7803-a9ea-f3b4ad4ad678""}","https://test12345.live/?num_scrambled_semantic=8&num_scrambled_causal=4&num_scrambled_schematic=4&participantId=9AD0C4D99F6C493A9F9DB7A60B1F3295&assignmentId=0198ee41-8071-720f-b4af-b03e00ff6370&projectId=0198ee3c-27ac-7803-a9ea-f3b4ad4ad678","9AD0C4D99F6C493A9F9DB7A60B1F3295-2025-08-28-02-09-34","","null","","[]","null","",""
"","","","","","image-button-response","66","344244","0.0-12.0-1.0-0.3","9AD0C4D99F6C493A9F9DB7A60B1F3295","9AD0C4D99F6C493A9F9DB7A60B1F3295","0198ee41-8071-720f-b4af-b03e00ff6370","0198ee3c-27ac-7803-a9ea-f3b4ad4ad678","{""num_scrambled_semantic"":""8"",""num_scrambled_causal"":""4"",""num_scrambled_schematic"":""4"",""participantId"":""9AD0C4D99F6C493A9F9DB7A60B1F3295"",""assignmentId"":""0198ee41-8071-720f-b4af-b03e00ff6370"",""projectId"":""0198ee3c-27ac-7803-a9ea-f3b4ad4ad678""}","https://test12345.live/?num_scrambled_semantic=8&num_scrambled_causal=4&num_scrambled_schematic=4&participantId=9AD0C4D99F6C493A9F9DB7A60B1F3295&assignmentId=0198ee41-8071-720f-b4af-b03e00ff6370&projectId=0198ee3c-27ac-7803-a9ea-f3b4ad4ad678","9AD0C4D99F6C493A9F9DB7A60B1F3295-2025-08-28-02-09-34","","null","","images/causal_sequence/museum_causal/museum_causal_2.png","null","",""
"","","","","","image-button-response","67","346761","0.0-12.0-1.0-1.3","9AD0C4D99F6C493A9F9DB7A60B1F3295","9AD0C4D99F6C493A9F9DB7A60B1F3295","0198ee41-8071-720f-b4af-b03e00ff6370","0198ee3c-27ac-7803-a9ea-f3b4ad4ad678","{""num_scrambled_semantic"":""8"",""num_scrambled_causal"":""4"",""num_scrambled_schematic"":""4"",""participantId"":""9AD0C4D99F6C493A9F9DB7A60B1F3295"",""assignmentId"":""0198ee41-8071-720f-b4af-b03e00ff6370"",""projectId"":""0198ee3c-27ac-7803-a9ea-f3b4ad4ad678""}","https://test12345.live/?num_scrambled_semantic=8&num_scrambled_causal=4&num_scrambled_schematic=4&participantId=9AD0C4D99F6C493A9F9DB7A60B1F3295&assignmentId=0198ee41-8071-720f-b4af-b03e00ff6370&projectId=0198ee3c-27ac-7803-a9ea-f3b4ad4ad678","9AD0C4D99F6C493A9F9DB7A60B1F3295-2025-08-28-02-09-34","","2516","","images/causal_sequence/museum_causal/museum_causal_2.png","0","",""
"","","","","","image-button-response","68","348565","0.0-12.0-1.0-2.3","9AD0C4D99F6C493A9F9DB7A60B1F3295","9AD0C4D99F6C493A9F9DB7A60B1F3295","0198ee41-8071-720f-b4af-b03e00ff6370","0198ee3c-27ac-7803-a9ea-f3b4ad4ad678","{""num_scrambled_semantic"":""8"",""num_scrambled_causal"":""4"",""num_scrambled_schematic"":""4"",""participantId"":""9AD0C4D99F6C493A9F9DB7A60B1F3295"",""assignmentId"":""0198ee41-8071-720f-b4af-b03e00ff6370"",""projectId"":""0198ee3c-27ac-7803-a9ea-f3b4ad4ad678""}","https://test12345.live/?num_scrambled_semantic=8&num_scrambled_causal=4&num_scrambled_schematic=4&participantId=9AD0C4D99F6C493A9F9DB7A60B1F3295&assignmentId=0198ee41-8071-720f-b4af-b03e00ff6370&projectId=0198ee3c-27ac-7803-a9ea-f3b4ad4ad678","9AD0C4D99F6C493A9F9DB7A60B1F3295-2025-08-28-02-09-34","","null","","[]","null","",""
"","","","","","image-button-response","69","353079","0.0-12.0-1.0-0.4","9AD0C4D99F6C493A9F9DB7A60B1F3295","9AD0C4D99F6C493A9F9DB7A60B1F3295","0198ee41-8071-720f-b4af-b03e00ff6370","0198ee3c-27ac-7803-a9ea-f3b4ad4ad678","{""num_scrambled_semantic"":""8"",""num_scrambled_causal"":""4"",""num_scrambled_schematic"":""4"",""participantId"":""9AD0C4D99F6C493A9F9DB7A60B1F3295"",""assignmentId"":""0198ee41-8071-720f-b4af-b03e00ff6370"",""projectId"":""0198ee3c-27ac-7803-a9ea-f3b4ad4ad678""}","https://test12345.live/?num_scrambled_semantic=8&num_scrambled_causal=4&num_scrambled_schematic=4&participantId=9AD0C4D99F6C493A9F9DB7A60B1F3295&assignmentId=0198ee41-8071-720f-b4af-b03e00ff6370&projectId=0198ee3c-27ac-7803-a9ea-f3b4ad4ad678","9AD0C4D99F6C493A9F9DB7A60B1F3295-2025-08-28-02-09-34","","null","","images/causal_sequence/museum_causal/museum_causal_6.png","null","",""
"","","","","","image-button-response","70","354591","0.0-12.0-1.0-1.4","9AD0C4D99F6C493A9F9DB7A60B1F3295","9AD0C4D99F6C493A9F9DB7A60B1F3295","0198ee41-8071-720f-b4af-b03e00ff6370","0198ee3c-27ac-7803-a9ea-f3b4ad4ad678","{""num_scrambled_semantic"":""8"",""num_scrambled_causal"":""4"",""num_scrambled_schematic"":""4"",""participantId"":""9AD0C4D99F6C493A9F9DB7A60B1F3295"",""assignmentId"":""0198ee41-8071-720f-b4af-b03e00ff6370"",""projectId"":""0198ee3c-27ac-7803-a9ea-f3b4ad4ad678""}","https://test12345.live/?num_scrambled_semantic=8&num_scrambled_causal=4&num_scrambled_schematic=4&participantId=9AD0C4D99F6C493A9F9DB7A60B1F3295&assignmentId=0198ee41-8071-720f-b4af-b03e00ff6370&projectId=0198ee3c-27ac-7803-a9ea-f3b4ad4ad678","9AD0C4D99F6C493A9F9DB7A60B1F3295-2025-08-28-02-09-34","","1511","","images/causal_sequence/museum_causal/museum_causal_6.png","0","",""
"","","","","","image-button-response","71","356399","0.0-12.0-1.0-2.4","9AD0C4D99F6C493A9F9DB7A60B1F3295","9AD0C4D99F6C493A9F9DB7A60B1F3295","0198ee41-8071-720f-b4af-b03e00ff6370","0198ee3c-27ac-7803-a9ea-f3b4ad4ad678","{""num_scrambled_semantic"":""8"",""num_scrambled_causal"":""4"",""num_scrambled_schematic"":""4"",""participantId"":""9AD0C4D99F6C493A9F9DB7A60B1F3295"",""assignmentId"":""0198ee41-8071-720f-b4af-b03e00ff6370"",""projectId"":""0198ee3c-27ac-7803-a9ea-f3b4ad4ad678""}","https://test12345.live/?num_scrambled_semantic=8&num_scrambled_causal=4&num_scrambled_schematic=4&participantId=9AD0C4D99F6C493A9F9DB7A60B1F3295&assignmentId=0198ee41-8071-720f-b4af-b03e00ff6370&projectId=0198ee3c-27ac-7803-a9ea-f3b4ad4ad678","9AD0C4D99F6C493A9F9DB7A60B1F3295-2025-08-28-02-09-34","","null","","[]","null","",""
"","","","","","image-button-response","72","360905","0.0-12.0-1.0-0.5","9AD0C4D99F6C493A9F9DB7A60B1F3295","9AD0C4D99F6C493A9F9DB7A60B1F3295","0198ee41-8071-720f-b4af-b03e00ff6370","0198ee3c-27ac-7803-a9ea-f3b4ad4ad678","{""num_scrambled_semantic"":""8"",""num_scrambled_causal"":""4"",""num_scrambled_schematic"":""4"",""participantId"":""9AD0C4D99F6C493A9F9DB7A60B1F3295"",""assignmentId"":""0198ee41-8071-720f-b4af-b03e00ff6370"",""projectId"":""0198ee3c-27ac-7803-a9ea-f3b4ad4ad678""}","https://test12345.live/?num_scrambled_semantic=8&num_scrambled_causal=4&num_scrambled_schematic=4&participantId=9AD0C4D99F6C493A9F9DB7A60B1F3295&assignmentId=0198ee41-8071-720f-b4af-b03e00ff6370&projectId=0198ee3c-27ac-7803-a9ea-f3b4ad4ad678","9AD0C4D99F6C493A9F9DB7A60B1F3295-2025-08-28-02-09-34","","null","","images/causal_sequence/museum_causal/museum_causal_4.png","null","",""
"","","","","","image-button-response","73","364908","0.0-12.0-1.0-1.5","9AD0C4D99F6C493A9F9DB7A60B1F3295","9AD0C4D99F6C493A9F9DB7A60B1F3295","0198ee41-8071-720f-b4af-b03e00ff6370","0198ee3c-27ac-7803-a9ea-f3b4ad4ad678","{""num_scrambled_semantic"":""8"",""num_scrambled_causal"":""4"",""num_scrambled_schematic"":""4"",""participantId"":""9AD0C4D99F6C493A9F9DB7A60B1F3295"",""assignmentId"":""0198ee41-8071-720f-b4af-b03e00ff6370"",""projectId"":""0198ee3c-27ac-7803-a9ea-f3b4ad4ad678""}","https://test12345.live/?num_scrambled_semantic=8&num_scrambled_causal=4&num_scrambled_schematic=4&participantId=9AD0C4D99F6C493A9F9DB7A60B1F3295&assignmentId=0198ee41-8071-720f-b4af-b03e00ff6370&projectId=0198ee3c-27ac-7803-a9ea-f3b4ad4ad678","9AD0C4D99F6C493A9F9DB7A60B1F3295-2025-08-28-02-09-34","","null","","images/causal_sequence/museum_causal/museum_causal_4.png","null","",""
"","","","","","image-button-response","74","366718","0.0-12.0-1.0-2.5","9AD0C4D99F6C493A9F9DB7A60B1F3295","9AD0C4D99F6C493A9F9DB7A60B1F3295","0198ee41-8071-720f-b4af-b03e00ff6370","0198ee3c-27ac-7803-a9ea-f3b4ad4ad678","{""num_scrambled_semantic"":""8"",""num_scrambled_causal"":""4"",""num_scrambled_schematic"":""4"",""participantId"":""9AD0C4D99F6C493A9F9DB7A60B1F3295"",""assignmentId"":""0198ee41-8071-720f-b4af-b03e00ff6370"",""projectId"":""0198ee3c-27ac-7803-a9ea-f3b4ad4ad678""}","https://test12345.live/?num_scrambled_semantic=8&num_scrambled_causal=4&num_scrambled_schematic=4&participantId=9AD0C4D99F6C493A9F9DB7A60B1F3295&assignmentId=0198ee41-8071-720f-b4af-b03e00ff6370&projectId=0198ee3c-27ac-7803-a9ea-f3b4ad4ad678","9AD0C4D99F6C493A9F9DB7A60B1F3295-2025-08-28-02-09-34","","null","","[]","null","",""
"","","","","","image-button-response","75","371227","0.0-12.0-1.0-0.6","9AD0C4D99F6C493A9F9DB7A60B1F3295","9AD0C4D99F6C493A9F9DB7A60B1F3295","0198ee41-8071-720f-b4af-b03e00ff6370","0198ee3c-27ac-7803-a9ea-f3b4ad4ad678","{""num_scrambled_semantic"":""8"",""num_scrambled_causal"":""4"",""num_scrambled_schematic"":""4"",""participantId"":""9AD0C4D99F6C493A9F9DB7A60B1F3295"",""assignmentId"":""0198ee41-8071-720f-b4af-b03e00ff6370"",""projectId"":""0198ee3c-27ac-7803-a9ea-f3b4ad4ad678""}","https://test12345.live/?num_scrambled_semantic=8&num_scrambled_causal=4&num_scrambled_schematic=4&participantId=9AD0C4D99F6C493A9F9DB7A60B1F3295&assignmentId=0198ee41-8071-720f-b4af-b03e00ff6370&projectId=0198ee3c-27ac-7803-a9ea-f3b4ad4ad678","9AD0C4D99F6C493A9F9DB7A60B1F3295-2025-08-28-02-09-34","","null","","images/causal_sequence/museum_causal/museum_causal_5.png","null","",""
"","","","","","image-button-response","76","373057","0.0-12.0-1.0-1.6","9AD0C4D99F6C493A9F9DB7A60B1F3295","9AD0C4D99F6C493A9F9DB7A60B1F3295","0198ee41-8071-720f-b4af-b03e00ff6370","0198ee3c-27ac-7803-a9ea-f3b4ad4ad678","{""num_scrambled_semantic"":""8"",""num_scrambled_causal"":""4"",""num_scrambled_schematic"":""4"",""participantId"":""9AD0C4D99F6C493A9F9DB7A60B1F3295"",""assignmentId"":""0198ee41-8071-720f-b4af-b03e00ff6370"",""projectId"":""0198ee3c-27ac-7803-a9ea-f3b4ad4ad678""}","https://test12345.live/?num_scrambled_semantic=8&num_scrambled_causal=4&num_scrambled_schematic=4&participantId=9AD0C4D99F6C493A9F9DB7A60B1F3295&assignmentId=0198ee41-8071-720f-b4af-b03e00ff6370&projectId=0198ee3c-27ac-7803-a9ea-f3b4ad4ad678","9AD0C4D99F6C493A9F9DB7A60B1F3295-2025-08-28-02-09-34","","1830","","images/causal_sequence/museum_causal/museum_causal_5.png","0","",""
"","","","","","image-button-response","77","374859","0.0-12.0-1.0-2.6","9AD0C4D99F6C493A9F9DB7A60B1F3295","9AD0C4D99F6C493A9F9DB7A60B1F3295","0198ee41-8071-720f-b4af-b03e00ff6370","0198ee3c-27ac-7803-a9ea-f3b4ad4ad678","{""num_scrambled_semantic"":""8"",""num_scrambled_causal"":""4"",""num_scrambled_schematic"":""4"",""participantId"":""9AD0C4D99F6C493A9F9DB7A60B1F3295"",""assignmentId"":""0198ee41-8071-720f-b4af-b03e00ff6370"",""projectId"":""0198ee3c-27ac-7803-a9ea-f3b4ad4ad678""}","https://test12345.live/?num_scrambled_semantic=8&num_scrambled_causal=4&num_scrambled_schematic=4&participantId=9AD0C4D99F6C493A9F9DB7A60B1F3295&assignmentId=0198ee41-8071-720f-b4af-b03e00ff6370&projectId=0198ee3c-27ac-7803-a9ea-f3b4ad4ad678","9AD0C4D99F6C493A9F9DB7A60B1F3295-2025-08-28-02-09-34","","null","","[]","null","",""
"","","","","","image-button-response","78","379364","0.0-12.0-1.0-0.7","9AD0C4D99F6C493A9F9DB7A60B1F3295","9AD0C4D99F6C493A9F9DB7A60B1F3295","0198ee41-8071-720f-b4af-b03e00ff6370","0198ee3c-27ac-7803-a9ea-f3b4ad4ad678","{""num_scrambled_semantic"":""8"",""num_scrambled_causal"":""4"",""num_scrambled_schematic"":""4"",""participantId"":""9AD0C4D99F6C493A9F9DB7A60B1F3295"",""assignmentId"":""0198ee41-8071-720f-b4af-b03e00ff6370"",""projectId"":""0198ee3c-27ac-7803-a9ea-f3b4ad4ad678""}","https://test12345.live/?num_scrambled_semantic=8&num_scrambled_causal=4&num_scrambled_schematic=4&participantId=9AD0C4D99F6C493A9F9DB7A60B1F3295&assignmentId=0198ee41-8071-720f-b4af-b03e00ff6370&projectId=0198ee3c-27ac-7803-a9ea-f3b4ad4ad678","9AD0C4D99F6C493A9F9DB7A60B1F3295-2025-08-28-02-09-34","","null","","images/causal_sequence/museum_causal/museum_causal_ten.png","null","",""
"","","","","","image-button-response","79","380297","0.0-12.0-1.0-1.7","9AD0C4D99F6C493A9F9DB7A60B1F3295","9AD0C4D99F6C493A9F9DB7A60B1F3295","0198ee41-8071-720f-b4af-b03e00ff6370","0198ee3c-27ac-7803-a9ea-f3b4ad4ad678","{""num_scrambled_semantic"":""8"",""num_scrambled_causal"":""4"",""num_scrambled_schematic"":""4"",""participantId"":""9AD0C4D99F6C493A9F9DB7A60B1F3295"",""assignmentId"":""0198ee41-8071-720f-b4af-b03e00ff6370"",""projectId"":""0198ee3c-27ac-7803-a9ea-f3b4ad4ad678""}","https://test12345.live/?num_scrambled_semantic=8&num_scrambled_causal=4&num_scrambled_schematic=4&participantId=9AD0C4D99F6C493A9F9DB7A60B1F3295&assignmentId=0198ee41-8071-720f-b4af-b03e00ff6370&projectId=0198ee3c-27ac-7803-a9ea-f3b4ad4ad678","9AD0C4D99F6C493A9F9DB7A60B1F3295-2025-08-28-02-09-34","","932","","images/causal_sequence/museum_causal/museum_causal_ten.png","0","",""
"","","","","","image-button-response","80","382097","0.0-12.0-1.0-2.7","9AD0C4D99F6C493A9F9DB7A60B1F3295","9AD0C4D99F6C493A9F9DB7A60B1F3295","0198ee41-8071-720f-b4af-b03e00ff6370","0198ee3c-27ac-7803-a9ea-f3b4ad4ad678","{""num_scrambled_semantic"":""8"",""num_scrambled_causal"":""4"",""num_scrambled_schematic"":""4"",""participantId"":""9AD0C4D99F6C493A9F9DB7A60B1F3295"",""assignmentId"":""0198ee41-8071-720f-b4af-b03e00ff6370"",""projectId"":""0198ee3c-27ac-7803-a9ea-f3b4ad4ad678""}","https://test12345.live/?num_scrambled_semantic=8&num_scrambled_causal=4&num_scrambled_schematic=4&participantId=9AD0C4D99F6C493A9F9DB7A60B1F3295&assignmentId=0198ee41-8071-720f-b4af-b03e00ff6370&projectId=0198ee3c-27ac-7803-a9ea-f3b4ad4ad678","9AD0C4D99F6C493A9F9DB7A60B1F3295-2025-08-28-02-09-34","","null","","[]","null","",""
"","","","","","image-button-response","81","386598","0.0-12.0-1.0-0.8","9AD0C4D99F6C493A9F9DB7A60B1F3295","9AD0C4D99F6C493A9F9DB7A60B1F3295","0198ee41-8071-720f-b4af-b03e00ff6370","0198ee3c-27ac-7803-a9ea-f3b4ad4ad678","{""num_scrambled_semantic"":""8"",""num_scrambled_causal"":""4"",""num_scrambled_schematic"":""4"",""participantId"":""9AD0C4D99F6C493A9F9DB7A60B1F3295"",""assignmentId"":""0198ee41-8071-720f-b4af-b03e00ff6370"",""projectId"":""0198ee3c-27ac-7803-a9ea-f3b4ad4ad678""}","https://test12345.live/?num_scrambled_semantic=8&num_scrambled_causal=4&num_scrambled_schematic=4&participantId=9AD0C4D99F6C493A9F9DB7A60B1F3295&assignmentId=0198ee41-8071-720f-b4af-b03e00ff6370&projectId=0198ee3c-27ac-7803-a9ea-f3b4ad4ad678","9AD0C4D99F6C493A9F9DB7A60B1F3295-2025-08-28-02-09-34","","null","","images/causal_sequence/museum_causal/museum_causal_3.png","null","",""
"","","","","","image-button-response","82","388165","0.0-12.0-1.0-1.8","9AD0C4D99F6C493A9F9DB7A60B1F3295","9AD0C4D99F6C493A9F9DB7A60B1F3295","0198ee41-8071-720f-b4af-b03e00ff6370","0198ee3c-27ac-7803-a9ea-f3b4ad4ad678","{""num_scrambled_semantic"":""8"",""num_scrambled_causal"":""4"",""num_scrambled_schematic"":""4"",""participantId"":""9AD0C4D99F6C493A9F9DB7A60B1F3295"",""assignmentId"":""0198ee41-8071-720f-b4af-b03e00ff6370"",""projectId"":""0198ee3c-27ac-7803-a9ea-f3b4ad4ad678""}","https://test12345.live/?num_scrambled_semantic=8&num_scrambled_causal=4&num_scrambled_schematic=4&participantId=9AD0C4D99F6C493A9F9DB7A60B1F3295&assignmentId=0198ee41-8071-720f-b4af-b03e00ff6370&projectId=0198ee3c-27ac-7803-a9ea-f3b4ad4ad678","9AD0C4D99F6C493A9F9DB7A60B1F3295-2025-08-28-02-09-34","","1566","","images/causal_sequence/museum_causal/museum_causal_3.png","0","",""
"","","","","","image-button-response","83","389973","0.0-12.0-1.0-2.8","9AD0C4D99F6C493A9F9DB7A60B1F3295","9AD0C4D99F6C493A9F9DB7A60B1F3295","0198ee41-8071-720f-b4af-b03e00ff6370","0198ee3c-27ac-7803-a9ea-f3b4ad4ad678","{""num_scrambled_semantic"":""8"",""num_scrambled_causal"":""4"",""num_scrambled_schematic"":""4"",""participantId"":""9AD0C4D99F6C493A9F9DB7A60B1F3295"",""assignmentId"":""0198ee41-8071-720f-b4af-b03e00ff6370"",""projectId"":""0198ee3c-27ac-7803-a9ea-f3b4ad4ad678""}","https://test12345.live/?num_scrambled_semantic=8&num_scrambled_causal=4&num_scrambled_schematic=4&participantId=9AD0C4D99F6C493A9F9DB7A60B1F3295&assignmentId=0198ee41-8071-720f-b4af-b03e00ff6370&projectId=0198ee3c-27ac-7803-a9ea-f3b4ad4ad678","9AD0C4D99F6C493A9F9DB7A60B1F3295-2025-08-28-02-09-34","","null","","[]","null","",""
"","","","","","image-button-response","84","394479","0.0-12.0-1.0-0.9","9AD0C4D99F6C493A9F9DB7A60B1F3295","9AD0C4D99F6C493A9F9DB7A60B1F3295","0198ee41-8071-720f-b4af-b03e00ff6370","0198ee3c-27ac-7803-a9ea-f3b4ad4ad678","{""num_scrambled_semantic"":""8"",""num_scrambled_causal"":""4"",""num_scrambled_schematic"":""4"",""participantId"":""9AD0C4D99F6C493A9F9DB7A60B1F3295"",""assignmentId"":""0198ee41-8071-720f-b4af-b03e00ff6370"",""projectId"":""0198ee3c-27ac-7803-a9ea-f3b4ad4ad678""}","https://test12345.live/?num_scrambled_semantic=8&num_scrambled_causal=4&num_scrambled_schematic=4&participantId=9AD0C4D99F6C493A9F9DB7A60B1F3295&assignmentId=0198ee41-8071-720f-b4af-b03e00ff6370&projectId=0198ee3c-27ac-7803-a9ea-f3b4ad4ad678","9AD0C4D99F6C493A9F9DB7A60B1F3295-2025-08-28-02-09-34","","null","","images/causal_sequence/museum_causal/museum_causal_7.png","null","",""
"","","","","","image-button-response","85","397203","0.0-12.0-1.0-1.9","9AD0C4D99F6C493A9F9DB7A60B1F3295","9AD0C4D99F6C493A9F9DB7A60B1F3295","0198ee41-8071-720f-b4af-b03e00ff6370","0198ee3c-27ac-7803-a9ea-f3b4ad4ad678","{""num_scrambled_semantic"":""8"",""num_scrambled_causal"":""4"",""num_scrambled_schematic"":""4"",""participantId"":""9AD0C4D99F6C493A9F9DB7A60B1F3295"",""assignmentId"":""0198ee41-8071-720f-b4af-b03e00ff6370"",""projectId"":""0198ee3c-27ac-7803-a9ea-f3b4ad4ad678""}","https://test12345.live/?num_scrambled_semantic=8&num_scrambled_causal=4&num_scrambled_schematic=4&participantId=9AD0C4D99F6C493A9F9DB7A60B1F3295&assignmentId=0198ee41-8071-720f-b4af-b03e00ff6370&projectId=0198ee3c-27ac-7803-a9ea-f3b4ad4ad678","9AD0C4D99F6C493A9F9DB7A60B1F3295-2025-08-28-02-09-34","","2723","","images/causal_sequence/museum_causal/museum_causal_7.png","1","",""
"","","","","","image-button-response","86","399017","0.0-12.0-1.0-2.9","9AD0C4D99F6C493A9F9DB7A60B1F3295","9AD0C4D99F6C493A9F9DB7A60B1F3295","0198ee41-8071-720f-b4af-b03e00ff6370","0198ee3c-27ac-7803-a9ea-f3b4ad4ad678","{""num_scrambled_semantic"":""8"",""num_scrambled_causal"":""4"",""num_scrambled_schematic"":""4"",""participantId"":""9AD0C4D99F6C493A9F9DB7A60B1F3295"",""assignmentId"":""0198ee41-8071-720f-b4af-b03e00ff6370"",""projectId"":""0198ee3c-27ac-7803-a9ea-f3b4ad4ad678""}","https://test12345.live/?num_scrambled_semantic=8&num_scrambled_causal=4&num_scrambled_schematic=4&participantId=9AD0C4D99F6C493A9F9DB7A60B1F3295&assignmentId=0198ee41-8071-720f-b4af-b03e00ff6370&projectId=0198ee3c-27ac-7803-a9ea-f3b4ad4ad678","9AD0C4D99F6C493A9F9DB7A60B1F3295-2025-08-28-02-09-34","","null","","[]","null","",""
"","","","","","html-audio-response","87","450974","0.0-13.0","9AD0C4D99F6C493A9F9DB7A60B1F3295","9AD0C4D99F6C493A9F9DB7A60B1F3295","0198ee41-8071-720f-b4af-b03e00ff6370","0198ee3c-27ac-7803-a9ea-f3b4ad4ad678","{""num_scrambled_semantic"":""8"",""num_scrambled_causal"":""4"",""num_scrambled_schematic"":""4"",""participantId"":""9AD0C4D99F6C493A9F9DB7A60B1F3295"",""assignmentId"":""0198ee41-8071-720f-b4af-b03e00ff6370"",""projectId"":""0198ee3c-27ac-7803-a9ea-f3b4ad4ad678""}","https://test12345.live/?num_scrambled_semantic=8&num_scrambled_causal=4&num_scrambled_schematic=4&participantId=9AD0C4D99F6C493A9F9DB7A60B1F3295&assignmentId=0198ee41-8071-720f-b4af-b03e00ff6370&projectId=0198ee3c-27ac-7803-a9ea-f3b4ad4ad678","9AD0C4D99F6C493A9F9DB7A60B1F3295-2025-08-28-02-09-34","","28919","","[""<span style=\""color: red; font-size: 24px\""> NOW RECORDING</span><p>Please say out loud all the images you saw, in the order of the story they create. Try to recall the sequence of events as they appeared in the story, not necessarily the order they were presented on the screen.</p>""]","","1","museum_causal"
"","","","","","image-button-response","88","456988","0.0-14.0-0.0","9AD0C4D99F6C493A9F9DB7A60B1F3295","9AD0C4D99F6C493A9F9DB7A60B1F3295","0198ee41-8071-720f-b4af-b03e00ff6370","0198ee3c-27ac-7803-a9ea-f3b4ad4ad678","{""num_scrambled_semantic"":""8"",""num_scrambled_causal"":""4"",""num_scrambled_schematic"":""4"",""participantId"":""9AD0C4D99F6C493A9F9DB7A60B1F3295"",""assignmentId"":""0198ee41-8071-720f-b4af-b03e00ff6370"",""projectId"":""0198ee3c-27ac-7803-a9ea-f3b4ad4ad678""}","https://test12345.live/?num_scrambled_semantic=8&num_scrambled_causal=4&num_scrambled_schematic=4&participantId=9AD0C4D99F6C493A9F9DB7A60B1F3295&assignmentId=0198ee41-8071-720f-b4af-b03e00ff6370&projectId=0198ee3c-27ac-7803-a9ea-f3b4ad4ad678","9AD0C4D99F6C493A9F9DB7A60B1F3295-2025-08-28-02-09-34","","null","","images/semantic_sequence/exploring_nature_semantic/exploring_nature_semantic_0.png","null","",""
"","","","","","image-button-response","89","461489","0.0-14.0-1.0-0.0","9AD0C4D99F6C493A9F9DB7A60B1F3295","9AD0C4D99F6C493A9F9DB7A60B1F3295","0198ee41-8071-720f-b4af-b03e00ff6370","0198ee3c-27ac-7803-a9ea-f3b4ad4ad678","{""num_scrambled_semantic"":""8"",""num_scrambled_causal"":""4"",""num_scrambled_schematic"":""4"",""participantId"":""9AD0C4D99F6C493A9F9DB7A60B1F3295"",""assignmentId"":""0198ee41-8071-720f-b4af-b03e00ff6370"",""projectId"":""0198ee3c-27ac-7803-a9ea-f3b4ad4ad678""}","https://test12345.live/?num_scrambled_semantic=8&num_scrambled_causal=4&num_scrambled_schematic=4&participantId=9AD0C4D99F6C493A9F9DB7A60B1F3295&assignmentId=0198ee41-8071-720f-b4af-b03e00ff6370&projectId=0198ee3c-27ac-7803-a9ea-f3b4ad4ad678","9AD0C4D99F6C493A9F9DB7A60B1F3295-2025-08-28-02-09-34","","null","","images/semantic_sequence/exploring_nature_semantic/exploring_nature_semantic_4.png","null","",""
"","","","","","image-button-response","90","462510","0.0-14.0-1.0-1.0","9AD0C4D99F6C493A9F9DB7A60B1F3295","9AD0C4D99F6C493A9F9DB7A60B1F3295","0198ee41-8071-720f-b4af-b03e00ff6370","0198ee3c-27ac-7803-a9ea-f3b4ad4ad678","{""num_scrambled_semantic"":""8"",""num_scrambled_causal"":""4"",""num_scrambled_schematic"":""4"",""participantId"":""9AD0C4D99F6C493A9F9DB7A60B1F3295"",""assignmentId"":""0198ee41-8071-720f-b4af-b03e00ff6370"",""projectId"":""0198ee3c-27ac-7803-a9ea-f3b4ad4ad678""}","https://test12345.live/?num_scrambled_semantic=8&num_scrambled_causal=4&num_scrambled_schematic=4&participantId=9AD0C4D99F6C493A9F9DB7A60B1F3295&assignmentId=0198ee41-8071-720f-b4af-b03e00ff6370&projectId=0198ee3c-27ac-7803-a9ea-f3b4ad4ad678","9AD0C4D99F6C493A9F9DB7A60B1F3295-2025-08-28-02-09-34","","1021","","images/semantic_sequence/exploring_nature_semantic/exploring_nature_semantic_4.png","0","",""
"","","","","","image-button-response","91","464317","0.0-14.0-1.0-2.0","9AD0C4D99F6C493A9F9DB7A60B1F3295","9AD0C4D99F6C493A9F9DB7A60B1F3295","0198ee41-8071-720f-b4af-b03e00ff6370","0198ee3c-27ac-7803-a9ea-f3b4ad4ad678","{""num_scrambled_semantic"":""8"",""num_scrambled_causal"":""4"",""num_scrambled_schematic"":""4"",""participantId"":""9AD0C4D99F6C493A9F9DB7A60B1F3295"",""assignmentId"":""0198ee41-8071-720f-b4af-b03e00ff6370"",""projectId"":""0198ee3c-27ac-7803-a9ea-f3b4ad4ad678""}","https://test12345.live/?num_scrambled_semantic=8&num_scrambled_causal=4&num_scrambled_schematic=4&participantId=9AD0C4D99F6C493A9F9DB7A60B1F3295&assignmentId=0198ee41-8071-720f-b4af-b03e00ff6370&projectId=0198ee3c-27ac-7803-a9ea-f3b4ad4ad678","9AD0C4D99F6C493A9F9DB7A60B1F3295-2025-08-28-02-09-34","","null","","[]","null","",""
"","","","","","image-button-response","92","468820","0.0-14.0-1.0-0.1","9AD0C4D99F6C493A9F9DB7A60B1F3295","9AD0C4D99F6C493A9F9DB7A60B1F3295","0198ee41-8071-720f-b4af-b03e00ff6370","0198ee3c-27ac-7803-a9ea-f3b4ad4ad678","{""num_scrambled_semantic"":""8"",""num_scrambled_causal"":""4"",""num_scrambled_schematic"":""4"",""participantId"":""9AD0C4D99F6C493A9F9DB7A60B1F3295"",""assignmentId"":""0198ee41-8071-720f-b4af-b03e00ff6370"",""projectId"":""0198ee3c-27ac-7803-a9ea-f3b4ad4ad678""}","https://test12345.live/?num_scrambled_semantic=8&num_scrambled_causal=4&num_scrambled_schematic=4&participantId=9AD0C4D99F6C493A9F9DB7A60B1F3295&assignmentId=0198ee41-8071-720f-b4af-b03e00ff6370&projectId=0198ee3c-27ac-7803-a9ea-f3b4ad4ad678","9AD0C4D99F6C493A9F9DB7A60B1F3295-2025-08-28-02-09-34","","null","","images/semantic_sequence/exploring_nature_semantic/exploring_nature_semantic_2.png","null","",""
"","","","","","image-button-response","93","470137","0.0-14.0-1.0-1.1","9AD0C4D99F6C493A9F9DB7A60B1F3295","9AD0C4D99F6C493A9F9DB7A60B1F3295","0198ee41-8071-720f-b4af-b03e00ff6370","0198ee3c-27ac-7803-a9ea-f3b4ad4ad678","{""num_scrambled_semantic"":""8"",""num_scrambled_causal"":""4"",""num_scrambled_schematic"":""4"",""participantId"":""9AD0C4D99F6C493A9F9DB7A60B1F3295"",""assignmentId"":""0198ee41-8071-720f-b4af-b03e00ff6370"",""projectId"":""0198ee3c-27ac-7803-a9ea-f3b4ad4ad678""}","https://test12345.live/?num_scrambled_semantic=8&num_scrambled_causal=4&num_scrambled_schematic=4&participantId=9AD0C4D99F6C493A9F9DB7A60B1F3295&assignmentId=0198ee41-8071-720f-b4af-b03e00ff6370&projectId=0198ee3c-27ac-7803-a9ea-f3b4ad4ad678","9AD0C4D99F6C493A9F9DB7A60B1F3295-2025-08-28-02-09-34","","1316","","images/semantic_sequence/exploring_nature_semantic/exploring_nature_semantic_2.png","0","",""
"","","","","","image-button-response","94","471947","0.0-14.0-1.0-2.1","9AD0C4D99F6C493A9F9DB7A60B1F3295","9AD0C4D99F6C493A9F9DB7A60B1F3295","0198ee41-8071-720f-b4af-b03e00ff6370","0198ee3c-27ac-7803-a9ea-f3b4ad4ad678","{""num_scrambled_semantic"":""8"",""num_scrambled_causal"":""4"",""num_scrambled_schematic"":""4"",""participantId"":""9AD0C4D99F6C493A9F9DB7A60B1F3295"",""assignmentId"":""0198ee41-8071-720f-b4af-b03e00ff6370"",""projectId"":""0198ee3c-27ac-7803-a9ea-f3b4ad4ad678""}","https://test12345.live/?num_scrambled_semantic=8&num_scrambled_causal=4&num_scrambled_schematic=4&participantId=9AD0C4D99F6C493A9F9DB7A60B1F3295&assignmentId=0198ee41-8071-720f-b4af-b03e00ff6370&projectId=0198ee3c-27ac-7803-a9ea-f3b4ad4ad678","9AD0C4D99F6C493A9F9DB7A60B1F3295-2025-08-28-02-09-34","","null","","[]","null","",""
"","","","","","image-button-response","95","476458","0.0-14.0-1.0-0.2","9AD0C4D99F6C493A9F9DB7A60B1F3295","9AD0C4D99F6C493A9F9DB7A60B1F3295","0198ee41-8071-720f-b4af-b03e00ff6370","0198ee3c-27ac-7803-a9ea-f3b4ad4ad678","{""num_scrambled_semantic"":""8"",""num_scrambled_causal"":""4"",""num_scrambled_schematic"":""4"",""participantId"":""9AD0C4D99F6C493A9F9DB7A60B1F3295"",""assignmentId"":""0198ee41-8071-720f-b4af-b03e00ff6370"",""projectId"":""0198ee3c-27ac-7803-a9ea-f3b4ad4ad678""}","https://test12345.live/?num_scrambled_semantic=8&num_scrambled_causal=4&num_scrambled_schematic=4&participantId=9AD0C4D99F6C493A9F9DB7A60B1F3295&assignmentId=0198ee41-8071-720f-b4af-b03e00ff6370&projectId=0198ee3c-27ac-7803-a9ea-f3b4ad4ad678","9AD0C4D99F6C493A9F9DB7A60B1F3295-2025-08-28-02-09-34","","null","","images/semantic_sequence/exploring_nature_semantic/exploring_nature_semantic_8.png","null","",""
"","","","","","image-button-response","96","477680","0.0-14.0-1.0-1.2","9AD0C4D99F6C493A9F9DB7A60B1F3295","9AD0C4D99F6C493A9F9DB7A60B1F3295","0198ee41-8071-720f-b4af-b03e00ff6370","0198ee3c-27ac-7803-a9ea-f3b4ad4ad678","{""num_scrambled_semantic"":""8"",""num_scrambled_causal"":""4"",""num_scrambled_schematic"":""4"",""participantId"":""9AD0C4D99F6C493A9F9DB7A60B1F3295"",""assignmentId"":""0198ee41-8071-720f-b4af-b03e00ff6370"",""projectId"":""0198ee3c-27ac-7803-a9ea-f3b4ad4ad678""}","https://test12345.live/?num_scrambled_semantic=8&num_scrambled_causal=4&num_scrambled_schematic=4&participantId=9AD0C4D99F6C493A9F9DB7A60B1F3295&assignmentId=0198ee41-8071-720f-b4af-b03e00ff6370&projectId=0198ee3c-27ac-7803-a9ea-f3b4ad4ad678","9AD0C4D99F6C493A9F9DB7A60B1F3295-2025-08-28-02-09-34","","1222","","images/semantic_sequence/exploring_nature_semantic/exploring_nature_semantic_8.png","0","",""
"","","","","","image-button-response","97","479494","0.0-14.0-1.0-2.2","9AD0C4D99F6C493A9F9DB7A60B1F3295","9AD0C4D99F6C493A9F9DB7A60B1F3295","0198ee41-8071-720f-b4af-b03e00ff6370","0198ee3c-27ac-7803-a9ea-f3b4ad4ad678","{""num_scrambled_semantic"":""8"",""num_scrambled_causal"":""4"",""num_scrambled_schematic"":""4"",""participantId"":""9AD0C4D99F6C493A9F9DB7A60B1F3295"",""assignmentId"":""0198ee41-8071-720f-b4af-b03e00ff6370"",""projectId"":""0198ee3c-27ac-7803-a9ea-f3b4ad4ad678""}","https://test12345.live/?num_scrambled_semantic=8&num_scrambled_causal=4&num_scrambled_schematic=4&participantId=9AD0C4D99F6C493A9F9DB7A60B1F3295&assignmentId=0198ee41-8071-720f-b4af-b03e00ff6370&projectId=0198ee3c-27ac-7803-a9ea-f3b4ad4ad678","9AD0C4D99F6C493A9F9DB7A60B1F3295-2025-08-28-02-09-34","","null","","[]","null","",""
"","","","","","image-button-response","98","484004","0.0-14.0-1.0-0.3","9AD0C4D99F6C493A9F9DB7A60B1F3295","9AD0C4D99F6C493A9F9DB7A60B1F3295","0198ee41-8071-720f-b4af-b03e00ff6370","0198ee3c-27ac-7803-a9ea-f3b4ad4ad678","{""num_scrambled_semantic"":""8"",""num_scrambled_causal"":""4"",""num_scrambled_schematic"":""4"",""participantId"":""9AD0C4D99F6C493A9F9DB7A60B1F3295"",""assignmentId"":""0198ee41-8071-720f-b4af-b03e00ff6370"",""projectId"":""0198ee3c-27ac-7803-a9ea-f3b4ad4ad678""}","https://test12345.live/?num_scrambled_semantic=8&num_scrambled_causal=4&num_scrambled_schematic=4&participantId=9AD0C4D99F6C493A9F9DB7A60B1F3295&assignmentId=0198ee41-8071-720f-b4af-b03e00ff6370&projectId=0198ee3c-27ac-7803-a9ea-f3b4ad4ad678","9AD0C4D99F6C493A9F9DB7A60B1F3295-2025-08-28-02-09-34","","null","","images/semantic_sequence/exploring_nature_semantic/exploring_nature_semantic_3.png","null","",""
"","","","","","image-button-response","99","484990","0.0-14.0-1.0-1.3","9AD0C4D99F6C493A9F9DB7A60B1F3295","9AD0C4D99F6C493A9F9DB7A60B1F3295","0198ee41-8071-720f-b4af-b03e00ff6370","0198ee3c-27ac-7803-a9ea-f3b4ad4ad678","{""num_scrambled_semantic"":""8"",""num_scrambled_causal"":""4"",""num_scrambled_schematic"":""4"",""participantId"":""9AD0C4D99F6C493A9F9DB7A60B1F3295"",""assignmentId"":""0198ee41-8071-720f-b4af-b03e00ff6370"",""projectId"":""0198ee3c-27ac-7803-a9ea-f3b4ad4ad678""}","https://test12345.live/?num_scrambled_semantic=8&num_scrambled_causal=4&num_scrambled_schematic=4&participantId=9AD0C4D99F6C493A9F9DB7A60B1F3295&assignmentId=0198ee41-8071-720f-b4af-b03e00ff6370&projectId=0198ee3c-27ac-7803-a9ea-f3b4ad4ad678","9AD0C4D99F6C493A9F9DB7A60B1F3295-2025-08-28-02-09-34","","985","","images/semantic_sequence/exploring_nature_semantic/exploring_nature_semantic_3.png","0","",""
"","","","","","image-button-response","100","486792","0.0-14.0-1.0-2.3","9AD0C4D99F6C493A9F9DB7A60B1F3295","9AD0C4D99F6C493A9F9DB7A60B1F3295","0198ee41-8071-720f-b4af-b03e00ff6370","0198ee3c-27ac-7803-a9ea-f3b4ad4ad678","{""num_scrambled_semantic"":""8"",""num_scrambled_causal"":""4"",""num_scrambled_schematic"":""4"",""participantId"":""9AD0C4D99F6C493A9F9DB7A60B1F3295"",""assignmentId"":""0198ee41-8071-720f-b4af-b03e00ff6370"",""projectId"":""0198ee3c-27ac-7803-a9ea-f3b4ad4ad678""}","https://test12345.live/?num_scrambled_semantic=8&num_scrambled_causal=4&num_scrambled_schematic=4&participantId=9AD0C4D99F6C493A9F9DB7A60B1F3295&assignmentId=0198ee41-8071-720f-b4af-b03e00ff6370&projectId=0198ee3c-27ac-7803-a9ea-f3b4ad4ad678","9AD0C4D99F6C493A9F9DB7A60B1F3295-2025-08-28-02-09-34","","null","","[]","null","",""
"","","","","","image-button-response","101","491296","0.0-14.0-1.0-0.4","9AD0C4D99F6C493A9F9DB7A60B1F3295","9AD0C4D99F6C493A9F9DB7A60B1F3295","0198ee41-8071-720f-b4af-b03e00ff6370","0198ee3c-27ac-7803-a9ea-f3b4ad4ad678","{""num_scrambled_semantic"":""8"",""num_scrambled_causal"":""4"",""num_scrambled_schematic"":""4"",""participantId"":""9AD0C4D99F6C493A9F9DB7A60B1F3295"",""assignmentId"":""0198ee41-8071-720f-b4af-b03e00ff6370"",""projectId"":""0198ee3c-27ac-7803-a9ea-f3b4ad4ad678""}","https://test12345.live/?num_scrambled_semantic=8&num_scrambled_causal=4&num_scrambled_schematic=4&participantId=9AD0C4D99F6C493A9F9DB7A60B1F3295&assignmentId=0198ee41-8071-720f-b4af-b03e00ff6370&projectId=0198ee3c-27ac-7803-a9ea-f3b4ad4ad678","9AD0C4D99F6C493A9F9DB7A60B1F3295-2025-08-28-02-09-34","","null","","images/semantic_sequence/exploring_nature_semantic/exploring_nature_semantic_ten.png","null","",""
"","","","","","image-button-response","102","492414","0.0-14.0-1.0-1.4","9AD0C4D99F6C493A9F9DB7A60B1F3295","9AD0C4D99F6C493A9F9DB7A60B1F3295","0198ee41-8071-720f-b4af-b03e00ff6370","0198ee3c-27ac-7803-a9ea-f3b4ad4ad678","{""num_scrambled_semantic"":""8"",""num_scrambled_causal"":""4"",""num_scrambled_schematic"":""4"",""participantId"":""9AD0C4D99F6C493A9F9DB7A60B1F3295"",""assignmentId"":""0198ee41-8071-720f-b4af-b03e00ff6370"",""projectId"":""0198ee3c-27ac-7803-a9ea-f3b4ad4ad678""}","https://test12345.live/?num_scrambled_semantic=8&num_scrambled_causal=4&num_scrambled_schematic=4&participantId=9AD0C4D99F6C493A9F9DB7A60B1F3295&assignmentId=0198ee41-8071-720f-b4af-b03e00ff6370&projectId=0198ee3c-27ac-7803-a9ea-f3b4ad4ad678","9AD0C4D99F6C493A9F9DB7A60B1F3295-2025-08-28-02-09-34","","1118","","images/semantic_sequence/exploring_nature_semantic/exploring_nature_semantic_ten.png","0","",""
"","","","","","image-button-response","103","494216","0.0-14.0-1.0-2.4","9AD0C4D99F6C493A9F9DB7A60B1F3295","9AD0C4D99F6C493A9F9DB7A60B1F3295","0198ee41-8071-720f-b4af-b03e00ff6370","0198ee3c-27ac-7803-a9ea-f3b4ad4ad678","{""num_scrambled_semantic"":""8"",""num_scrambled_causal"":""4"",""num_scrambled_schematic"":""4"",""participantId"":""9AD0C4D99F6C493A9F9DB7A60B1F3295"",""assignmentId"":""0198ee41-8071-720f-b4af-b03e00ff6370"",""projectId"":""0198ee3c-27ac-7803-a9ea-f3b4ad4ad678""}","https://test12345.live/?num_scrambled_semantic=8&num_scrambled_causal=4&num_scrambled_schematic=4&participantId=9AD0C4D99F6C493A9F9DB7A60B1F3295&assignmentId=0198ee41-8071-720f-b4af-b03e00ff6370&projectId=0198ee3c-27ac-7803-a9ea-f3b4ad4ad678","9AD0C4D99F6C493A9F9DB7A60B1F3295-2025-08-28-02-09-34","","null","","[]","null","",""
"","","","","","image-button-response","104","498722","0.0-14.0-1.0-0.5","9AD0C4D99F6C493A9F9DB7A60B1F3295","9AD0C4D99F6C493A9F9DB7A60B1F3295","0198ee41-8071-720f-b4af-b03e00ff6370","0198ee3c-27ac-7803-a9ea-f3b4ad4ad678","{""num_scrambled_semantic"":""8"",""num_scrambled_causal"":""4"",""num_scrambled_schematic"":""4"",""participantId"":""9AD0C4D99F6C493A9F9DB7A60B1F3295"",""assignmentId"":""0198ee41-8071-720f-b4af-b03e00ff6370"",""projectId"":""0198ee3c-27ac-7803-a9ea-f3b4ad4ad678""}","https://test12345.live/?num_scrambled_semantic=8&num_scrambled_causal=4&num_scrambled_schematic=4&participantId=9AD0C4D99F6C493A9F9DB7A60B1F3295&assignmentId=0198ee41-8071-720f-b4af-b03e00ff6370&projectId=0198ee3c-27ac-7803-a9ea-f3b4ad4ad678","9AD0C4D99F6C493A9F9DB7A60B1F3295-2025-08-28-02-09-34","","null","","images/semantic_sequence/exploring_nature_semantic/exploring_nature_semantic_5.png","null","",""
"","","","","","image-button-response","105","499660","0.0-14.0-1.0-1.5","9AD0C4D99F6C493A9F9DB7A60B1F3295","9AD0C4D99F6C493A9F9DB7A60B1F3295","0198ee41-8071-720f-b4af-b03e00ff6370","0198ee3c-27ac-7803-a9ea-f3b4ad4ad678","{""num_scrambled_semantic"":""8"",""num_scrambled_causal"":""4"",""num_scrambled_schematic"":""4"",""participantId"":""9AD0C4D99F6C493A9F9DB7A60B1F3295"",""assignmentId"":""0198ee41-8071-720f-b4af-b03e00ff6370"",""projectId"":""0198ee3c-27ac-7803-a9ea-f3b4ad4ad678""}","https://test12345.live/?num_scrambled_semantic=8&num_scrambled_causal=4&num_scrambled_schematic=4&participantId=9AD0C4D99F6C493A9F9DB7A60B1F3295&assignmentId=0198ee41-8071-720f-b4af-b03e00ff6370&projectId=0198ee3c-27ac-7803-a9ea-f3b4ad4ad678","9AD0C4D99F6C493A9F9DB7A60B1F3295-2025-08-28-02-09-34","","938","","images/semantic_sequence/exploring_nature_semantic/exploring_nature_semantic_5.png","0","",""
"","","","","","image-button-response","106","501474","0.0-14.0-1.0-2.5","9AD0C4D99F6C493A9F9DB7A60B1F3295","9AD0C4D99F6C493A9F9DB7A60B1F3295","0198ee41-8071-720f-b4af-b03e00ff6370","0198ee3c-27ac-7803-a9ea-f3b4ad4ad678","{""num_scrambled_semantic"":""8"",""num_scrambled_causal"":""4"",""num_scrambled_schematic"":""4"",""participantId"":""9AD0C4D99F6C493A9F9DB7A60B1F3295"",""assignmentId"":""0198ee41-8071-720f-b4af-b03e00ff6370"",""projectId"":""0198ee3c-27ac-7803-a9ea-f3b4ad4ad678""}","https://test12345.live/?num_scrambled_semantic=8&num_scrambled_causal=4&num_scrambled_schematic=4&participantId=9AD0C4D99F6C493A9F9DB7A60B1F3295&assignmentId=0198ee41-8071-720f-b4af-b03e00ff6370&projectId=0198ee3c-27ac-7803-a9ea-f3b4ad4ad678","9AD0C4D99F6C493A9F9DB7A60B1F3295-2025-08-28-02-09-34","","null","","[]","null","",""
"","","","","","image-button-response","107","505982","0.0-14.0-1.0-0.6","9AD0C4D99F6C493A9F9DB7A60B1F3295","9AD0C4D99F6C493A9F9DB7A60B1F3295","0198ee41-8071-720f-b4af-b03e00ff6370","0198ee3c-27ac-7803-a9ea-f3b4ad4ad678","{""num_scrambled_semantic"":""8"",""num_scrambled_causal"":""4"",""num_scrambled_schematic"":""4"",""participantId"":""9AD0C4D99F6C493A9F9DB7A60B1F3295"",""assignmentId"":""0198ee41-8071-720f-b4af-b03e00ff6370"",""projectId"":""0198ee3c-27ac-7803-a9ea-f3b4ad4ad678""}","https://test12345.live/?num_scrambled_semantic=8&num_scrambled_causal=4&num_scrambled_schematic=4&participantId=9AD0C4D99F6C493A9F9DB7A60B1F3295&assignmentId=0198ee41-8071-720f-b4af-b03e00ff6370&projectId=0198ee3c-27ac-7803-a9ea-f3b4ad4ad678","9AD0C4D99F6C493A9F9DB7A60B1F3295-2025-08-28-02-09-34","","null","","images/semantic_sequence/exploring_nature_semantic/exploring_nature_semantic_7.png","null","",""
"","","","","","image-button-response","108","507172","0.0-14.0-1.0-1.6","9AD0C4D99F6C493A9F9DB7A60B1F3295","9AD0C4D99F6C493A9F9DB7A60B1F3295","0198ee41-8071-720f-b4af-b03e00ff6370","0198ee3c-27ac-7803-a9ea-f3b4ad4ad678","{""num_scrambled_semantic"":""8"",""num_scrambled_causal"":""4"",""num_scrambled_schematic"":""4"",""participantId"":""9AD0C4D99F6C493A9F9DB7A60B1F3295"",""assignmentId"":""0198ee41-8071-720f-b4af-b03e00ff6370"",""projectId"":""0198ee3c-27ac-7803-a9ea-f3b4ad4ad678""}","https://test12345.live/?num_scrambled_semantic=8&num_scrambled_causal=4&num_scrambled_schematic=4&participantId=9AD0C4D99F6C493A9F9DB7A60B1F3295&assignmentId=0198ee41-8071-720f-b4af-b03e00ff6370&projectId=0198ee3c-27ac-7803-a9ea-f3b4ad4ad678","9AD0C4D99F6C493A9F9DB7A60B1F3295-2025-08-28-02-09-34","","1189","","images/semantic_sequence/exploring_nature_semantic/exploring_nature_semantic_7.png","0","",""
"","","","","","image-button-response","109","508975","0.0-14.0-1.0-2.6","9AD0C4D99F6C493A9F9DB7A60B1F3295","9AD0C4D99F6C493A9F9DB7A60B1F3295","0198ee41-8071-720f-b4af-b03e00ff6370","0198ee3c-27ac-7803-a9ea-f3b4ad4ad678","{""num_scrambled_semantic"":""8"",""num_scrambled_causal"":""4"",""num_scrambled_schematic"":""4"",""participantId"":""9AD0C4D99F6C493A9F9DB7A60B1F3295"",""assignmentId"":""0198ee41-8071-720f-b4af-b03e00ff6370"",""projectId"":""0198ee3c-27ac-7803-a9ea-f3b4ad4ad678""}","https://test12345.live/?num_scrambled_semantic=8&num_scrambled_causal=4&num_scrambled_schematic=4&participantId=9AD0C4D99F6C493A9F9DB7A60B1F3295&assignmentId=0198ee41-8071-720f-b4af-b03e00ff6370&projectId=0198ee3c-27ac-7803-a9ea-f3b4ad4ad678","9AD0C4D99F6C493A9F9DB7A60B1F3295-2025-08-28-02-09-34","","null","","[]","null","",""
"","","","","","image-button-response","110","513480","0.0-14.0-1.0-0.7","9AD0C4D99F6C493A9F9DB7A60B1F3295","9AD0C4D99F6C493A9F9DB7A60B1F3295","0198ee41-8071-720f-b4af-b03e00ff6370","0198ee3c-27ac-7803-a9ea-f3b4ad4ad678","{""num_scrambled_semantic"":""8"",""num_scrambled_causal"":""4"",""num_scrambled_schematic"":""4"",""participantId"":""9AD0C4D99F6C493A9F9DB7A60B1F3295"",""assignmentId"":""0198ee41-8071-720f-b4af-b03e00ff6370"",""projectId"":""0198ee3c-27ac-7803-a9ea-f3b4ad4ad678""}","https://test12345.live/?num_scrambled_semantic=8&num_scrambled_causal=4&num_scrambled_schematic=4&participantId=9AD0C4D99F6C493A9F9DB7A60B1F3295&assignmentId=0198ee41-8071-720f-b4af-b03e00ff6370&projectId=0198ee3c-27ac-7803-a9ea-f3b4ad4ad678","9AD0C4D99F6C493A9F9DB7A60B1F3295-2025-08-28-02-09-34","","null","","images/semantic_sequence/exploring_nature_semantic/exploring_nature_semantic_9.png","null","",""
"","","","","","image-button-response","111","514434","0.0-14.0-1.0-1.7","9AD0C4D99F6C493A9F9DB7A60B1F3295","9AD0C4D99F6C493A9F9DB7A60B1F3295","0198ee41-8071-720f-b4af-b03e00ff6370","0198ee3c-27ac-7803-a9ea-f3b4ad4ad678","{""num_scrambled_semantic"":""8"",""num_scrambled_causal"":""4"",""num_scrambled_schematic"":""4"",""participantId"":""9AD0C4D99F6C493A9F9DB7A60B1F3295"",""assignmentId"":""0198ee41-8071-720f-b4af-b03e00ff6370"",""projectId"":""0198ee3c-27ac-7803-a9ea-f3b4ad4ad678""}","https://test12345.live/?num_scrambled_semantic=8&num_scrambled_causal=4&num_scrambled_schematic=4&participantId=9AD0C4D99F6C493A9F9DB7A60B1F3295&assignmentId=0198ee41-8071-720f-b4af-b03e00ff6370&projectId=0198ee3c-27ac-7803-a9ea-f3b4ad4ad678","9AD0C4D99F6C493A9F9DB7A60B1F3295-2025-08-28-02-09-34","","953","","images/semantic_sequence/exploring_nature_semantic/exploring_nature_semantic_9.png","0","",""
"","","","","","image-button-response","112","516235","0.0-14.0-1.0-2.7","9AD0C4D99F6C493A9F9DB7A60B1F3295","9AD0C4D99F6C493A9F9DB7A60B1F3295","0198ee41-8071-720f-b4af-b03e00ff6370","0198ee3c-27ac-7803-a9ea-f3b4ad4ad678","{""num_scrambled_semantic"":""8"",""num_scrambled_causal"":""4"",""num_scrambled_schematic"":""4"",""participantId"":""9AD0C4D99F6C493A9F9DB7A60B1F3295"",""assignmentId"":""0198ee41-8071-720f-b4af-b03e00ff6370"",""projectId"":""0198ee3c-27ac-7803-a9ea-f3b4ad4ad678""}","https://test12345.live/?num_scrambled_semantic=8&num_scrambled_causal=4&num_scrambled_schematic=4&participantId=9AD0C4D99F6C493A9F9DB7A60B1F3295&assignmentId=0198ee41-8071-720f-b4af-b03e00ff6370&projectId=0198ee3c-27ac-7803-a9ea-f3b4ad4ad678","9AD0C4D99F6C493A9F9DB7A60B1F3295-2025-08-28-02-09-34","","null","","[]","null","",""
"","","","","","image-button-response","113","520742","0.0-14.0-1.0-0.8","9AD0C4D99F6C493A9F9DB7A60B1F3295","9AD0C4D99F6C493A9F9DB7A60B1F3295","0198ee41-8071-720f-b4af-b03e00ff6370","0198ee3c-27ac-7803-a9ea-f3b4ad4ad678","{""num_scrambled_semantic"":""8"",""num_scrambled_causal"":""4"",""num_scrambled_schematic"":""4"",""participantId"":""9AD0C4D99F6C493A9F9DB7A60B1F3295"",""assignmentId"":""0198ee41-8071-720f-b4af-b03e00ff6370"",""projectId"":""0198ee3c-27ac-7803-a9ea-f3b4ad4ad678""}","https://test12345.live/?num_scrambled_semantic=8&num_scrambled_causal=4&num_scrambled_schematic=4&participantId=9AD0C4D99F6C493A9F9DB7A60B1F3295&assignmentId=0198ee41-8071-720f-b4af-b03e00ff6370&projectId=0198ee3c-27ac-7803-a9ea-f3b4ad4ad678","9AD0C4D99F6C493A9F9DB7A60B1F3295-2025-08-28-02-09-34","","null","","images/semantic_sequence/exploring_nature_semantic/exploring_nature_semantic_6.png","null","",""
"","","","","","image-button-response","114","521433","0.0-14.0-1.0-1.8","9AD0C4D99F6C493A9F9DB7A60B1F3295","9AD0C4D99F6C493A9F9DB7A60B1F3295","0198ee41-8071-720f-b4af-b03e00ff6370","0198ee3c-27ac-7803-a9ea-f3b4ad4ad678","{""num_scrambled_semantic"":""8"",""num_scrambled_causal"":""4"",""num_scrambled_schematic"":""4"",""participantId"":""9AD0C4D99F6C493A9F9DB7A60B1F3295"",""assignmentId"":""0198ee41-8071-720f-b4af-b03e00ff6370"",""projectId"":""0198ee3c-27ac-7803-a9ea-f3b4ad4ad678""}","https://test12345.live/?num_scrambled_semantic=8&num_scrambled_causal=4&num_scrambled_schematic=4&participantId=9AD0C4D99F6C493A9F9DB7A60B1F3295&assignmentId=0198ee41-8071-720f-b4af-b03e00ff6370&projectId=0198ee3c-27ac-7803-a9ea-f3b4ad4ad678","9AD0C4D99F6C493A9F9DB7A60B1F3295-2025-08-28-02-09-34","","690","","images/semantic_sequence/exploring_nature_semantic/exploring_nature_semantic_6.png","0","",""
