"success","timeout","failed_images","failed_audio","failed_video","trial_type","trial_index","time_elapsed","internal_node_id","subject","subject_id","study_id","session_id","urlvar","current_url","audio_id","view_history","rt","device_id","stimulus","response","estimated_stimulus_onset","seq_name"
"true","false","[]","[]","[]","preload","0","9321","0.0-0.0","9B55B16496F04787B72417D2E7356689","9B55B16496F04787B72417D2E7356689","62965e08-0f7c-4fad-8438-35b5f0edb3fc","a9f3d40c-5730-405c-b25e-1034c4c56f3f","{""num_scrambled_semantic"":""8"",""num_scrambled_causal"":""4"",""num_scrambled_schematic"":""4"",""participantId"":""9B55B16496F04787B72417D2E7356689"",""assignmentId"":""62965e08-0f7c-4fad-8438-35b5f0edb3fc"",""projectId"":""a9f3d40c-5730-405c-b25e-1034c4c56f3f""}","https://test12345.live/?num_scrambled_semantic=8&num_scrambled_causal=4&num_scrambled_schematic=4&participantId=9B55B16496F04787B72417D2E7356689&assignmentId=62965e08-0f7c-4fad-8438-35b5f0edb3fc&projectId=a9f3d40c-5730-405c-b25e-1034c4c56f3f","9B55B16496F04787B72417D2E7356689-2025-08-07-18-58-03","","","","","","",""
"","","","","","instructions","1","27399","0.0-1.0","9B55B16496F04787B72417D2E7356689","9B55B16496F04787B72417D2E7356689","62965e08-0f7c-4fad-8438-35b5f0edb3fc","a9f3d40c-5730-405c-b25e-1034c4c56f3f","{""num_scrambled_semantic"":""8"",""num_scrambled_causal"":""4"",""num_scrambled_schematic"":""4"",""participantId"":""9B55B16496F04787B72417D2E7356689"",""assignmentId"":""62965e08-0f7c-4fad-8438-35b5f0edb3fc"",""projectId"":""a9f3d40c-5730-405c-b25e-1034c4c56f3f""}","https://test12345.live/?num_scrambled_semantic=8&num_scrambled_causal=4&num_scrambled_schematic=4&participantId=9B55B16496F04787B72417D2E7356689&assignmentId=62965e08-0f7c-4fad-8438-35b5f0edb3fc&projectId=a9f3d40c-5730-405c-b25e-1034c4c56f3f","9B55B16496F04787B72417D2E7356689-2025-08-07-18-58-03","[{""page_index"":0,""viewing_time"":18076}]","18077","","","","",""
"","","","","","instructions","2","55364","0.0-2.0","9B55B16496F04787B72417D2E7356689","9B55B16496F04787B72417D2E7356689","62965e08-0f7c-4fad-8438-35b5f0edb3fc","a9f3d40c-5730-405c-b25e-1034c4c56f3f","{""num_scrambled_semantic"":""8"",""num_scrambled_causal"":""4"",""num_scrambled_schematic"":""4"",""participantId"":""9B55B16496F04787B72417D2E7356689"",""assignmentId"":""62965e08-0f7c-4fad-8438-35b5f0edb3fc"",""projectId"":""a9f3d40c-5730-405c-b25e-1034c4c56f3f""}","https://test12345.live/?num_scrambled_semantic=8&num_scrambled_causal=4&num_scrambled_schematic=4&participantId=9B55B16496F04787B72417D2E7356689&assignmentId=62965e08-0f7c-4fad-8438-35b5f0edb3fc&projectId=a9f3d40c-5730-405c-b25e-1034c4c56f3f","9B55B16496F04787B72417D2E7356689-2025-08-07-18-58-03","[{""page_index"":0,""viewing_time"":27963}]","27964","","","","",""
"true","","","","","fullscreen","3","57774","0.0-3.0","9B55B16496F04787B72417D2E7356689","9B55B16496F04787B72417D2E7356689","62965e08-0f7c-4fad-8438-35b5f0edb3fc","a9f3d40c-5730-405c-b25e-1034c4c56f3f","{""num_scrambled_semantic"":""8"",""num_scrambled_causal"":""4"",""num_scrambled_schematic"":""4"",""participantId"":""9B55B16496F04787B72417D2E7356689"",""assignmentId"":""62965e08-0f7c-4fad-8438-35b5f0edb3fc"",""projectId"":""a9f3d40c-5730-405c-b25e-1034c4c56f3f""}","https://test12345.live/?num_scrambled_semantic=8&num_scrambled_causal=4&num_scrambled_schematic=4&participantId=9B55B16496F04787B72417D2E7356689&assignmentId=62965e08-0f7c-4fad-8438-35b5f0edb3fc&projectId=a9f3d40c-5730-405c-b25e-1034c4c56f3f","9B55B16496F04787B72417D2E7356689-2025-08-07-18-58-03","","1406","","","","",""
"","","","","","initialize-microphone","4","81211","0.0-4.0-0.0","9B55B16496F04787B72417D2E7356689","9B55B16496F04787B72417D2E7356689","62965e08-0f7c-4fad-8438-35b5f0edb3fc","a9f3d40c-5730-405c-b25e-1034c4c56f3f","{""num_scrambled_semantic"":""8"",""num_scrambled_causal"":""4"",""num_scrambled_schematic"":""4"",""participantId"":""9B55B16496F04787B72417D2E7356689"",""assignmentId"":""62965e08-0f7c-4fad-8438-35b5f0edb3fc"",""projectId"":""a9f3d40c-5730-405c-b25e-1034c4c56f3f""}","https://test12345.live/?num_scrambled_semantic=8&num_scrambled_causal=4&num_scrambled_schematic=4&participantId=9B55B16496F04787B72417D2E7356689&assignmentId=62965e08-0f7c-4fad-8438-35b5f0edb3fc&projectId=a9f3d40c-5730-405c-b25e-1034c4c56f3f","9B55B16496F04787B72417D2E7356689-2025-08-07-18-58-03","","","fc25cedad8fd7c26b67c8808ec89d13bb312da861c60650dbc1cd1f52aa2a096","","","",""
"","","","","","html-audio-response","5","89007","0.0-4.0-1.0","9B55B16496F04787B72417D2E7356689","9B55B16496F04787B72417D2E7356689","62965e08-0f7c-4fad-8438-35b5f0edb3fc","a9f3d40c-5730-405c-b25e-1034c4c56f3f","{""num_scrambled_semantic"":""8"",""num_scrambled_causal"":""4"",""num_scrambled_schematic"":""4"",""participantId"":""9B55B16496F04787B72417D2E7356689"",""assignmentId"":""62965e08-0f7c-4fad-8438-35b5f0edb3fc"",""projectId"":""a9f3d40c-5730-405c-b25e-1034c4c56f3f""}","https://test12345.live/?num_scrambled_semantic=8&num_scrambled_causal=4&num_scrambled_schematic=4&participantId=9B55B16496F04787B72417D2E7356689&assignmentId=62965e08-0f7c-4fad-8438-35b5f0edb3fc&projectId=a9f3d40c-5730-405c-b25e-1034c4c56f3f","9B55B16496F04787B72417D2E7356689-2025-08-07-18-58-03","","3187","","<span style=""color: red; font-size: 24px""> NOW RECORDING</span>
        <p>Please test Microphone</p>","","1",""
"","","","","","html-button-response","6","90275","0.0-4.0-2.0","9B55B16496F04787B72417D2E7356689","9B55B16496F04787B72417D2E7356689","62965e08-0f7c-4fad-8438-35b5f0edb3fc","a9f3d40c-5730-405c-b25e-1034c4c56f3f","{""num_scrambled_semantic"":""8"",""num_scrambled_causal"":""4"",""num_scrambled_schematic"":""4"",""participantId"":""9B55B16496F04787B72417D2E7356689"",""assignmentId"":""62965e08-0f7c-4fad-8438-35b5f0edb3fc"",""projectId"":""a9f3d40c-5730-405c-b25e-1034c4c56f3f""}","https://test12345.live/?num_scrambled_semantic=8&num_scrambled_causal=4&num_scrambled_schematic=4&participantId=9B55B16496F04787B72417D2E7356689&assignmentId=62965e08-0f7c-4fad-8438-35b5f0edb3fc&projectId=a9f3d40c-5730-405c-b25e-1034c4c56f3f","9B55B16496F04787B72417D2E7356689-2025-08-07-18-58-03","","1266","","<p style=""font-size:48px; color:red;"">Is Microphone OK?</p>","1","",""
"","","","","","instructions","7","100862","0.0-5.0","9B55B16496F04787B72417D2E7356689","9B55B16496F04787B72417D2E7356689","62965e08-0f7c-4fad-8438-35b5f0edb3fc","a9f3d40c-5730-405c-b25e-1034c4c56f3f","{""num_scrambled_semantic"":""8"",""num_scrambled_causal"":""4"",""num_scrambled_schematic"":""4"",""participantId"":""9B55B16496F04787B72417D2E7356689"",""assignmentId"":""62965e08-0f7c-4fad-8438-35b5f0edb3fc"",""projectId"":""a9f3d40c-5730-405c-b25e-1034c4c56f3f""}","https://test12345.live/?num_scrambled_semantic=8&num_scrambled_causal=4&num_scrambled_schematic=4&participantId=9B55B16496F04787B72417D2E7356689&assignmentId=62965e08-0f7c-4fad-8438-35b5f0edb3fc&projectId=a9f3d40c-5730-405c-b25e-1034c4c56f3f","9B55B16496F04787B72417D2E7356689-2025-08-07-18-58-03","[{""page_index"":0,""viewing_time"":4183},{""page_index"":1,""viewing_time"":6402}]","10586","","","","",""
"","","","","","image-button-response","8","106868","0.0-6.0-0.0","9B55B16496F04787B72417D2E7356689","9B55B16496F04787B72417D2E7356689","62965e08-0f7c-4fad-8438-35b5f0edb3fc","a9f3d40c-5730-405c-b25e-1034c4c56f3f","{""num_scrambled_semantic"":""8"",""num_scrambled_causal"":""4"",""num_scrambled_schematic"":""4"",""participantId"":""9B55B16496F04787B72417D2E7356689"",""assignmentId"":""62965e08-0f7c-4fad-8438-35b5f0edb3fc"",""projectId"":""a9f3d40c-5730-405c-b25e-1034c4c56f3f""}","https://test12345.live/?num_scrambled_semantic=8&num_scrambled_causal=4&num_scrambled_schematic=4&participantId=9B55B16496F04787B72417D2E7356689&assignmentId=62965e08-0f7c-4fad-8438-35b5f0edb3fc&projectId=a9f3d40c-5730-405c-b25e-1034c4c56f3f","9B55B16496F04787B72417D2E7356689-2025-08-07-18-58-03","","null","","images/instructions/movie_0.png","null","",""
"","","","","","image-button-response","9","111375","0.0-6.0-1.0-0.0","9B55B16496F04787B72417D2E7356689","9B55B16496F04787B72417D2E7356689","62965e08-0f7c-4fad-8438-35b5f0edb3fc","a9f3d40c-5730-405c-b25e-1034c4c56f3f","{""num_scrambled_semantic"":""8"",""num_scrambled_causal"":""4"",""num_scrambled_schematic"":""4"",""participantId"":""9B55B16496F04787B72417D2E7356689"",""assignmentId"":""62965e08-0f7c-4fad-8438-35b5f0edb3fc"",""projectId"":""a9f3d40c-5730-405c-b25e-1034c4c56f3f""}","https://test12345.live/?num_scrambled_semantic=8&num_scrambled_causal=4&num_scrambled_schematic=4&participantId=9B55B16496F04787B72417D2E7356689&assignmentId=62965e08-0f7c-4fad-8438-35b5f0edb3fc&projectId=a9f3d40c-5730-405c-b25e-1034c4c56f3f","9B55B16496F04787B72417D2E7356689-2025-08-07-18-58-03","","null","","images/instructions/movie_1.png","null","",""
"","","","","","image-button-response","10","114076","0.0-6.0-1.0-1.0","9B55B16496F04787B72417D2E7356689","9B55B16496F04787B72417D2E7356689","62965e08-0f7c-4fad-8438-35b5f0edb3fc","a9f3d40c-5730-405c-b25e-1034c4c56f3f","{""num_scrambled_semantic"":""8"",""num_scrambled_causal"":""4"",""num_scrambled_schematic"":""4"",""participantId"":""9B55B16496F04787B72417D2E7356689"",""assignmentId"":""62965e08-0f7c-4fad-8438-35b5f0edb3fc"",""projectId"":""a9f3d40c-5730-405c-b25e-1034c4c56f3f""}","https://test12345.live/?num_scrambled_semantic=8&num_scrambled_causal=4&num_scrambled_schematic=4&participantId=9B55B16496F04787B72417D2E7356689&assignmentId=62965e08-0f7c-4fad-8438-35b5f0edb3fc&projectId=a9f3d40c-5730-405c-b25e-1034c4c56f3f","9B55B16496F04787B72417D2E7356689-2025-08-07-18-58-03","","2699","","images/instructions/movie_1.png","0","",""
"","","","","","image-button-response","11","115880","0.0-6.0-1.0-2.0","9B55B16496F04787B72417D2E7356689","9B55B16496F04787B72417D2E7356689","62965e08-0f7c-4fad-8438-35b5f0edb3fc","a9f3d40c-5730-405c-b25e-1034c4c56f3f","{""num_scrambled_semantic"":""8"",""num_scrambled_causal"":""4"",""num_scrambled_schematic"":""4"",""participantId"":""9B55B16496F04787B72417D2E7356689"",""assignmentId"":""62965e08-0f7c-4fad-8438-35b5f0edb3fc"",""projectId"":""a9f3d40c-5730-405c-b25e-1034c4c56f3f""}","https://test12345.live/?num_scrambled_semantic=8&num_scrambled_causal=4&num_scrambled_schematic=4&participantId=9B55B16496F04787B72417D2E7356689&assignmentId=62965e08-0f7c-4fad-8438-35b5f0edb3fc&projectId=a9f3d40c-5730-405c-b25e-1034c4c56f3f","9B55B16496F04787B72417D2E7356689-2025-08-07-18-58-03","","null","","[]","null","",""
"","","","","","image-button-response","12","120387","0.0-6.0-1.0-0.1","9B55B16496F04787B72417D2E7356689","9B55B16496F04787B72417D2E7356689","62965e08-0f7c-4fad-8438-35b5f0edb3fc","a9f3d40c-5730-405c-b25e-1034c4c56f3f","{""num_scrambled_semantic"":""8"",""num_scrambled_causal"":""4"",""num_scrambled_schematic"":""4"",""participantId"":""9B55B16496F04787B72417D2E7356689"",""assignmentId"":""62965e08-0f7c-4fad-8438-35b5f0edb3fc"",""projectId"":""a9f3d40c-5730-405c-b25e-1034c4c56f3f""}","https://test12345.live/?num_scrambled_semantic=8&num_scrambled_causal=4&num_scrambled_schematic=4&participantId=9B55B16496F04787B72417D2E7356689&assignmentId=62965e08-0f7c-4fad-8438-35b5f0edb3fc&projectId=a9f3d40c-5730-405c-b25e-1034c4c56f3f","9B55B16496F04787B72417D2E7356689-2025-08-07-18-58-03","","null","","images/instructions/movie_2.png","null","",""
"","","","","","image-button-response","13","121840","0.0-6.0-1.0-1.1","9B55B16496F04787B72417D2E7356689","9B55B16496F04787B72417D2E7356689","62965e08-0f7c-4fad-8438-35b5f0edb3fc","a9f3d40c-5730-405c-b25e-1034c4c56f3f","{""num_scrambled_semantic"":""8"",""num_scrambled_causal"":""4"",""num_scrambled_schematic"":""4"",""participantId"":""9B55B16496F04787B72417D2E7356689"",""assignmentId"":""62965e08-0f7c-4fad-8438-35b5f0edb3fc"",""projectId"":""a9f3d40c-5730-405c-b25e-1034c4c56f3f""}","https://test12345.live/?num_scrambled_semantic=8&num_scrambled_causal=4&num_scrambled_schematic=4&participantId=9B55B16496F04787B72417D2E7356689&assignmentId=62965e08-0f7c-4fad-8438-35b5f0edb3fc&projectId=a9f3d40c-5730-405c-b25e-1034c4c56f3f","9B55B16496F04787B72417D2E7356689-2025-08-07-18-58-03","","1451","","images/instructions/movie_2.png","0","",""
"","","","","","image-button-response","14","123647","0.0-6.0-1.0-2.1","9B55B16496F04787B72417D2E7356689","9B55B16496F04787B72417D2E7356689","62965e08-0f7c-4fad-8438-35b5f0edb3fc","a9f3d40c-5730-405c-b25e-1034c4c56f3f","{""num_scrambled_semantic"":""8"",""num_scrambled_causal"":""4"",""num_scrambled_schematic"":""4"",""participantId"":""9B55B16496F04787B72417D2E7356689"",""assignmentId"":""62965e08-0f7c-4fad-8438-35b5f0edb3fc"",""projectId"":""a9f3d40c-5730-405c-b25e-1034c4c56f3f""}","https://test12345.live/?num_scrambled_semantic=8&num_scrambled_causal=4&num_scrambled_schematic=4&participantId=9B55B16496F04787B72417D2E7356689&assignmentId=62965e08-0f7c-4fad-8438-35b5f0edb3fc&projectId=a9f3d40c-5730-405c-b25e-1034c4c56f3f","9B55B16496F04787B72417D2E7356689-2025-08-07-18-58-03","","null","","[]","null","",""
"","","","","","image-button-response","15","128153","0.0-6.0-1.0-0.2","9B55B16496F04787B72417D2E7356689","9B55B16496F04787B72417D2E7356689","62965e08-0f7c-4fad-8438-35b5f0edb3fc","a9f3d40c-5730-405c-b25e-1034c4c56f3f","{""num_scrambled_semantic"":""8"",""num_scrambled_causal"":""4"",""num_scrambled_schematic"":""4"",""participantId"":""9B55B16496F04787B72417D2E7356689"",""assignmentId"":""62965e08-0f7c-4fad-8438-35b5f0edb3fc"",""projectId"":""a9f3d40c-5730-405c-b25e-1034c4c56f3f""}","https://test12345.live/?num_scrambled_semantic=8&num_scrambled_causal=4&num_scrambled_schematic=4&participantId=9B55B16496F04787B72417D2E7356689&assignmentId=62965e08-0f7c-4fad-8438-35b5f0edb3fc&projectId=a9f3d40c-5730-405c-b25e-1034c4c56f3f","9B55B16496F04787B72417D2E7356689-2025-08-07-18-58-03","","null","","images/instructions/movie_3.png","null","",""
"","","","","","image-button-response","16","129996","0.0-6.0-1.0-1.2","9B55B16496F04787B72417D2E7356689","9B55B16496F04787B72417D2E7356689","62965e08-0f7c-4fad-8438-35b5f0edb3fc","a9f3d40c-5730-405c-b25e-1034c4c56f3f","{""num_scrambled_semantic"":""8"",""num_scrambled_causal"":""4"",""num_scrambled_schematic"":""4"",""participantId"":""9B55B16496F04787B72417D2E7356689"",""assignmentId"":""62965e08-0f7c-4fad-8438-35b5f0edb3fc"",""projectId"":""a9f3d40c-5730-405c-b25e-1034c4c56f3f""}","https://test12345.live/?num_scrambled_semantic=8&num_scrambled_causal=4&num_scrambled_schematic=4&participantId=9B55B16496F04787B72417D2E7356689&assignmentId=62965e08-0f7c-4fad-8438-35b5f0edb3fc&projectId=a9f3d40c-5730-405c-b25e-1034c4c56f3f","9B55B16496F04787B72417D2E7356689-2025-08-07-18-58-03","","1841","","images/instructions/movie_3.png","0","",""
"","","","","","image-button-response","17","131799","0.0-6.0-1.0-2.2","9B55B16496F04787B72417D2E7356689","9B55B16496F04787B72417D2E7356689","62965e08-0f7c-4fad-8438-35b5f0edb3fc","a9f3d40c-5730-405c-b25e-1034c4c56f3f","{""num_scrambled_semantic"":""8"",""num_scrambled_causal"":""4"",""num_scrambled_schematic"":""4"",""participantId"":""9B55B16496F04787B72417D2E7356689"",""assignmentId"":""62965e08-0f7c-4fad-8438-35b5f0edb3fc"",""projectId"":""a9f3d40c-5730-405c-b25e-1034c4c56f3f""}","https://test12345.live/?num_scrambled_semantic=8&num_scrambled_causal=4&num_scrambled_schematic=4&participantId=9B55B16496F04787B72417D2E7356689&assignmentId=62965e08-0f7c-4fad-8438-35b5f0edb3fc&projectId=a9f3d40c-5730-405c-b25e-1034c4c56f3f","9B55B16496F04787B72417D2E7356689-2025-08-07-18-58-03","","null","","[]","null","",""
"","","","","","image-button-response","18","136307","0.0-6.0-1.0-0.3","9B55B16496F04787B72417D2E7356689","9B55B16496F04787B72417D2E7356689","62965e08-0f7c-4fad-8438-35b5f0edb3fc","a9f3d40c-5730-405c-b25e-1034c4c56f3f","{""num_scrambled_semantic"":""8"",""num_scrambled_causal"":""4"",""num_scrambled_schematic"":""4"",""participantId"":""9B55B16496F04787B72417D2E7356689"",""assignmentId"":""62965e08-0f7c-4fad-8438-35b5f0edb3fc"",""projectId"":""a9f3d40c-5730-405c-b25e-1034c4c56f3f""}","https://test12345.live/?num_scrambled_semantic=8&num_scrambled_causal=4&num_scrambled_schematic=4&participantId=9B55B16496F04787B72417D2E7356689&assignmentId=62965e08-0f7c-4fad-8438-35b5f0edb3fc&projectId=a9f3d40c-5730-405c-b25e-1034c4c56f3f","9B55B16496F04787B72417D2E7356689-2025-08-07-18-58-03","","null","","images/instructions/movie_4.png","null","",""
"","","","","","image-button-response","19","137837","0.0-6.0-1.0-1.3","9B55B16496F04787B72417D2E7356689","9B55B16496F04787B72417D2E7356689","62965e08-0f7c-4fad-8438-35b5f0edb3fc","a9f3d40c-5730-405c-b25e-1034c4c56f3f","{""num_scrambled_semantic"":""8"",""num_scrambled_causal"":""4"",""num_scrambled_schematic"":""4"",""participantId"":""9B55B16496F04787B72417D2E7356689"",""assignmentId"":""62965e08-0f7c-4fad-8438-35b5f0edb3fc"",""projectId"":""a9f3d40c-5730-405c-b25e-1034c4c56f3f""}","https://test12345.live/?num_scrambled_semantic=8&num_scrambled_causal=4&num_scrambled_schematic=4&participantId=9B55B16496F04787B72417D2E7356689&assignmentId=62965e08-0f7c-4fad-8438-35b5f0edb3fc&projectId=a9f3d40c-5730-405c-b25e-1034c4c56f3f","9B55B16496F04787B72417D2E7356689-2025-08-07-18-58-03","","1528","","images/instructions/movie_4.png","0","",""
"","","","","","image-button-response","20","139643","0.0-6.0-1.0-2.3","9B55B16496F04787B72417D2E7356689","9B55B16496F04787B72417D2E7356689","62965e08-0f7c-4fad-8438-35b5f0edb3fc","a9f3d40c-5730-405c-b25e-1034c4c56f3f","{""num_scrambled_semantic"":""8"",""num_scrambled_causal"":""4"",""num_scrambled_schematic"":""4"",""participantId"":""9B55B16496F04787B72417D2E7356689"",""assignmentId"":""62965e08-0f7c-4fad-8438-35b5f0edb3fc"",""projectId"":""a9f3d40c-5730-405c-b25e-1034c4c56f3f""}","https://test12345.live/?num_scrambled_semantic=8&num_scrambled_causal=4&num_scrambled_schematic=4&participantId=9B55B16496F04787B72417D2E7356689&assignmentId=62965e08-0f7c-4fad-8438-35b5f0edb3fc&projectId=a9f3d40c-5730-405c-b25e-1034c4c56f3f","9B55B16496F04787B72417D2E7356689-2025-08-07-18-58-03","","null","","[]","null","",""
"","","","","","instructions","21","145961","0.0-7.0","9B55B16496F04787B72417D2E7356689","9B55B16496F04787B72417D2E7356689","62965e08-0f7c-4fad-8438-35b5f0edb3fc","a9f3d40c-5730-405c-b25e-1034c4c56f3f","{""num_scrambled_semantic"":""8"",""num_scrambled_causal"":""4"",""num_scrambled_schematic"":""4"",""participantId"":""9B55B16496F04787B72417D2E7356689"",""assignmentId"":""62965e08-0f7c-4fad-8438-35b5f0edb3fc"",""projectId"":""a9f3d40c-5730-405c-b25e-1034c4c56f3f""}","https://test12345.live/?num_scrambled_semantic=8&num_scrambled_causal=4&num_scrambled_schematic=4&participantId=9B55B16496F04787B72417D2E7356689&assignmentId=62965e08-0f7c-4fad-8438-35b5f0edb3fc&projectId=a9f3d40c-5730-405c-b25e-1034c4c56f3f","9B55B16496F04787B72417D2E7356689-2025-08-07-18-58-03","[{""page_index"":0,""viewing_time"":4957},{""page_index"":1,""viewing_time"":1360}]","6317","","","","",""
"","","","","","html-audio-response","22","182848","0.0-8.0","9B55B16496F04787B72417D2E7356689","9B55B16496F04787B72417D2E7356689","62965e08-0f7c-4fad-8438-35b5f0edb3fc","a9f3d40c-5730-405c-b25e-1034c4c56f3f","{""num_scrambled_semantic"":""8"",""num_scrambled_causal"":""4"",""num_scrambled_schematic"":""4"",""participantId"":""9B55B16496F04787B72417D2E7356689"",""assignmentId"":""62965e08-0f7c-4fad-8438-35b5f0edb3fc"",""projectId"":""a9f3d40c-5730-405c-b25e-1034c4c56f3f""}","https://test12345.live/?num_scrambled_semantic=8&num_scrambled_causal=4&num_scrambled_schematic=4&participantId=9B55B16496F04787B72417D2E7356689&assignmentId=62965e08-0f7c-4fad-8438-35b5f0edb3fc&projectId=a9f3d40c-5730-405c-b25e-1034c4c56f3f","9B55B16496F04787B72417D2E7356689-2025-08-07-18-58-03","","7231","","[""<span style=\""color: red; font-size: 24px\""> NOW RECORDING</span><p>Please say out loud all the images you saw, as many as you can remember. The images can be said in any order.</p>""]","","8",""
"","","","","","instructions","23","184764","0.0-9.0","9B55B16496F04787B72417D2E7356689","9B55B16496F04787B72417D2E7356689","62965e08-0f7c-4fad-8438-35b5f0edb3fc","a9f3d40c-5730-405c-b25e-1034c4c56f3f","{""num_scrambled_semantic"":""8"",""num_scrambled_causal"":""4"",""num_scrambled_schematic"":""4"",""participantId"":""9B55B16496F04787B72417D2E7356689"",""assignmentId"":""62965e08-0f7c-4fad-8438-35b5f0edb3fc"",""projectId"":""a9f3d40c-5730-405c-b25e-1034c4c56f3f""}","https://test12345.live/?num_scrambled_semantic=8&num_scrambled_causal=4&num_scrambled_schematic=4&participantId=9B55B16496F04787B72417D2E7356689&assignmentId=62965e08-0f7c-4fad-8438-35b5f0edb3fc&projectId=a9f3d40c-5730-405c-b25e-1034c4c56f3f","9B55B16496F04787B72417D2E7356689-2025-08-07-18-58-03","[{""page_index"":0,""viewing_time"":1912}]","1912","","","","",""
"","","","","","image-button-response","24","190771","0.0-10.0-0.0","9B55B16496F04787B72417D2E7356689","9B55B16496F04787B72417D2E7356689","62965e08-0f7c-4fad-8438-35b5f0edb3fc","a9f3d40c-5730-405c-b25e-1034c4c56f3f","{""num_scrambled_semantic"":""8"",""num_scrambled_causal"":""4"",""num_scrambled_schematic"":""4"",""participantId"":""9B55B16496F04787B72417D2E7356689"",""assignmentId"":""62965e08-0f7c-4fad-8438-35b5f0edb3fc"",""projectId"":""a9f3d40c-5730-405c-b25e-1034c4c56f3f""}","https://test12345.live/?num_scrambled_semantic=8&num_scrambled_causal=4&num_scrambled_schematic=4&participantId=9B55B16496F04787B72417D2E7356689&assignmentId=62965e08-0f7c-4fad-8438-35b5f0edb3fc&projectId=a9f3d40c-5730-405c-b25e-1034c4c56f3f","9B55B16496F04787B72417D2E7356689-2025-08-07-18-58-03","","null","","images/semantic_sequence/housework_semantic/housework_semantic_0.png","null","",""
"","","","","","image-button-response","25","195274","0.0-10.0-1.0-0.0","9B55B16496F04787B72417D2E7356689","9B55B16496F04787B72417D2E7356689","62965e08-0f7c-4fad-8438-35b5f0edb3fc","a9f3d40c-5730-405c-b25e-1034c4c56f3f","{""num_scrambled_semantic"":""8"",""num_scrambled_causal"":""4"",""num_scrambled_schematic"":""4"",""participantId"":""9B55B16496F04787B72417D2E7356689"",""assignmentId"":""62965e08-0f7c-4fad-8438-35b5f0edb3fc"",""projectId"":""a9f3d40c-5730-405c-b25e-1034c4c56f3f""}","https://test12345.live/?num_scrambled_semantic=8&num_scrambled_causal=4&num_scrambled_schematic=4&participantId=9B55B16496F04787B72417D2E7356689&assignmentId=62965e08-0f7c-4fad-8438-35b5f0edb3fc&projectId=a9f3d40c-5730-405c-b25e-1034c4c56f3f","9B55B16496F04787B72417D2E7356689-2025-08-07-18-58-03","","null","","images/semantic_sequence/housework_semantic/housework_semantic_ten.png","null","",""
"","","","","","image-button-response","26","197025","0.0-10.0-1.0-1.0","9B55B16496F04787B72417D2E7356689","9B55B16496F04787B72417D2E7356689","62965e08-0f7c-4fad-8438-35b5f0edb3fc","a9f3d40c-5730-405c-b25e-1034c4c56f3f","{""num_scrambled_semantic"":""8"",""num_scrambled_causal"":""4"",""num_scrambled_schematic"":""4"",""participantId"":""9B55B16496F04787B72417D2E7356689"",""assignmentId"":""62965e08-0f7c-4fad-8438-35b5f0edb3fc"",""projectId"":""a9f3d40c-5730-405c-b25e-1034c4c56f3f""}","https://test12345.live/?num_scrambled_semantic=8&num_scrambled_causal=4&num_scrambled_schematic=4&participantId=9B55B16496F04787B72417D2E7356689&assignmentId=62965e08-0f7c-4fad-8438-35b5f0edb3fc&projectId=a9f3d40c-5730-405c-b25e-1034c4c56f3f","9B55B16496F04787B72417D2E7356689-2025-08-07-18-58-03","","1748","","images/semantic_sequence/housework_semantic/housework_semantic_ten.png","0","",""
"","","","","","image-button-response","27","198829","0.0-10.0-1.0-2.0","9B55B16496F04787B72417D2E7356689","9B55B16496F04787B72417D2E7356689","62965e08-0f7c-4fad-8438-35b5f0edb3fc","a9f3d40c-5730-405c-b25e-1034c4c56f3f","{""num_scrambled_semantic"":""8"",""num_scrambled_causal"":""4"",""num_scrambled_schematic"":""4"",""participantId"":""9B55B16496F04787B72417D2E7356689"",""assignmentId"":""62965e08-0f7c-4fad-8438-35b5f0edb3fc"",""projectId"":""a9f3d40c-5730-405c-b25e-1034c4c56f3f""}","https://test12345.live/?num_scrambled_semantic=8&num_scrambled_causal=4&num_scrambled_schematic=4&participantId=9B55B16496F04787B72417D2E7356689&assignmentId=62965e08-0f7c-4fad-8438-35b5f0edb3fc&projectId=a9f3d40c-5730-405c-b25e-1034c4c56f3f","9B55B16496F04787B72417D2E7356689-2025-08-07-18-58-03","","null","","[]","null","",""
"","","","","","image-button-response","28","203334","0.0-10.0-1.0-0.1","9B55B16496F04787B72417D2E7356689","9B55B16496F04787B72417D2E7356689","62965e08-0f7c-4fad-8438-35b5f0edb3fc","a9f3d40c-5730-405c-b25e-1034c4c56f3f","{""num_scrambled_semantic"":""8"",""num_scrambled_causal"":""4"",""num_scrambled_schematic"":""4"",""participantId"":""9B55B16496F04787B72417D2E7356689"",""assignmentId"":""62965e08-0f7c-4fad-8438-35b5f0edb3fc"",""projectId"":""a9f3d40c-5730-405c-b25e-1034c4c56f3f""}","https://test12345.live/?num_scrambled_semantic=8&num_scrambled_causal=4&num_scrambled_schematic=4&participantId=9B55B16496F04787B72417D2E7356689&assignmentId=62965e08-0f7c-4fad-8438-35b5f0edb3fc&projectId=a9f3d40c-5730-405c-b25e-1034c4c56f3f","9B55B16496F04787B72417D2E7356689-2025-08-07-18-58-03","","null","","images/semantic_sequence/housework_semantic/housework_semantic_2.png","null","",""
"","","","","","image-button-response","29","205037","0.0-10.0-1.0-1.1","9B55B16496F04787B72417D2E7356689","9B55B16496F04787B72417D2E7356689","62965e08-0f7c-4fad-8438-35b5f0edb3fc","a9f3d40c-5730-405c-b25e-1034c4c56f3f","{""num_scrambled_semantic"":""8"",""num_scrambled_causal"":""4"",""num_scrambled_schematic"":""4"",""participantId"":""9B55B16496F04787B72417D2E7356689"",""assignmentId"":""62965e08-0f7c-4fad-8438-35b5f0edb3fc"",""projectId"":""a9f3d40c-5730-405c-b25e-1034c4c56f3f""}","https://test12345.live/?num_scrambled_semantic=8&num_scrambled_causal=4&num_scrambled_schematic=4&participantId=9B55B16496F04787B72417D2E7356689&assignmentId=62965e08-0f7c-4fad-8438-35b5f0edb3fc&projectId=a9f3d40c-5730-405c-b25e-1034c4c56f3f","9B55B16496F04787B72417D2E7356689-2025-08-07-18-58-03","","1701","","images/semantic_sequence/housework_semantic/housework_semantic_2.png","0","",""
"","","","","","image-button-response","30","206844","0.0-10.0-1.0-2.1","9B55B16496F04787B72417D2E7356689","9B55B16496F04787B72417D2E7356689","62965e08-0f7c-4fad-8438-35b5f0edb3fc","a9f3d40c-5730-405c-b25e-1034c4c56f3f","{""num_scrambled_semantic"":""8"",""num_scrambled_causal"":""4"",""num_scrambled_schematic"":""4"",""participantId"":""9B55B16496F04787B72417D2E7356689"",""assignmentId"":""62965e08-0f7c-4fad-8438-35b5f0edb3fc"",""projectId"":""a9f3d40c-5730-405c-b25e-1034c4c56f3f""}","https://test12345.live/?num_scrambled_semantic=8&num_scrambled_causal=4&num_scrambled_schematic=4&participantId=9B55B16496F04787B72417D2E7356689&assignmentId=62965e08-0f7c-4fad-8438-35b5f0edb3fc&projectId=a9f3d40c-5730-405c-b25e-1034c4c56f3f","9B55B16496F04787B72417D2E7356689-2025-08-07-18-58-03","","null","","[]","null","",""
"","","","","","image-button-response","31","211349","0.0-10.0-1.0-0.2","9B55B16496F04787B72417D2E7356689","9B55B16496F04787B72417D2E7356689","62965e08-0f7c-4fad-8438-35b5f0edb3fc","a9f3d40c-5730-405c-b25e-1034c4c56f3f","{""num_scrambled_semantic"":""8"",""num_scrambled_causal"":""4"",""num_scrambled_schematic"":""4"",""participantId"":""9B55B16496F04787B72417D2E7356689"",""assignmentId"":""62965e08-0f7c-4fad-8438-35b5f0edb3fc"",""projectId"":""a9f3d40c-5730-405c-b25e-1034c4c56f3f""}","https://test12345.live/?num_scrambled_semantic=8&num_scrambled_causal=4&num_scrambled_schematic=4&participantId=9B55B16496F04787B72417D2E7356689&assignmentId=62965e08-0f7c-4fad-8438-35b5f0edb3fc&projectId=a9f3d40c-5730-405c-b25e-1034c4c56f3f","9B55B16496F04787B72417D2E7356689-2025-08-07-18-58-03","","null","","images/semantic_sequence/housework_semantic/housework_semantic_3.png","null","",""
"","","","","","image-button-response","32","212367","0.0-10.0-1.0-1.2","9B55B16496F04787B72417D2E7356689","9B55B16496F04787B72417D2E7356689","62965e08-0f7c-4fad-8438-35b5f0edb3fc","a9f3d40c-5730-405c-b25e-1034c4c56f3f","{""num_scrambled_semantic"":""8"",""num_scrambled_causal"":""4"",""num_scrambled_schematic"":""4"",""participantId"":""9B55B16496F04787B72417D2E7356689"",""assignmentId"":""62965e08-0f7c-4fad-8438-35b5f0edb3fc"",""projectId"":""a9f3d40c-5730-405c-b25e-1034c4c56f3f""}","https://test12345.live/?num_scrambled_semantic=8&num_scrambled_causal=4&num_scrambled_schematic=4&participantId=9B55B16496F04787B72417D2E7356689&assignmentId=62965e08-0f7c-4fad-8438-35b5f0edb3fc&projectId=a9f3d40c-5730-405c-b25e-1034c4c56f3f","9B55B16496F04787B72417D2E7356689-2025-08-07-18-58-03","","1016","","images/semantic_sequence/housework_semantic/housework_semantic_3.png","0","",""
"","","","","","image-button-response","33","214174","0.0-10.0-1.0-2.2","9B55B16496F04787B72417D2E7356689","9B55B16496F04787B72417D2E7356689","62965e08-0f7c-4fad-8438-35b5f0edb3fc","a9f3d40c-5730-405c-b25e-1034c4c56f3f","{""num_scrambled_semantic"":""8"",""num_scrambled_causal"":""4"",""num_scrambled_schematic"":""4"",""participantId"":""9B55B16496F04787B72417D2E7356689"",""assignmentId"":""62965e08-0f7c-4fad-8438-35b5f0edb3fc"",""projectId"":""a9f3d40c-5730-405c-b25e-1034c4c56f3f""}","https://test12345.live/?num_scrambled_semantic=8&num_scrambled_causal=4&num_scrambled_schematic=4&participantId=9B55B16496F04787B72417D2E7356689&assignmentId=62965e08-0f7c-4fad-8438-35b5f0edb3fc&projectId=a9f3d40c-5730-405c-b25e-1034c4c56f3f","9B55B16496F04787B72417D2E7356689-2025-08-07-18-58-03","","null","","[]","null","",""
"","","","","","image-button-response","34","218677","0.0-10.0-1.0-0.3","9B55B16496F04787B72417D2E7356689","9B55B16496F04787B72417D2E7356689","62965e08-0f7c-4fad-8438-35b5f0edb3fc","a9f3d40c-5730-405c-b25e-1034c4c56f3f","{""num_scrambled_semantic"":""8"",""num_scrambled_causal"":""4"",""num_scrambled_schematic"":""4"",""participantId"":""9B55B16496F04787B72417D2E7356689"",""assignmentId"":""62965e08-0f7c-4fad-8438-35b5f0edb3fc"",""projectId"":""a9f3d40c-5730-405c-b25e-1034c4c56f3f""}","https://test12345.live/?num_scrambled_semantic=8&num_scrambled_causal=4&num_scrambled_schematic=4&participantId=9B55B16496F04787B72417D2E7356689&assignmentId=62965e08-0f7c-4fad-8438-35b5f0edb3fc&projectId=a9f3d40c-5730-405c-b25e-1034c4c56f3f","9B55B16496F04787B72417D2E7356689-2025-08-07-18-58-03","","null","","images/semantic_sequence/housework_semantic/housework_semantic_1.png","null","",""
"","","","","","image-button-response","35","219308","0.0-10.0-1.0-1.3","9B55B16496F04787B72417D2E7356689","9B55B16496F04787B72417D2E7356689","62965e08-0f7c-4fad-8438-35b5f0edb3fc","a9f3d40c-5730-405c-b25e-1034c4c56f3f","{""num_scrambled_semantic"":""8"",""num_scrambled_causal"":""4"",""num_scrambled_schematic"":""4"",""participantId"":""9B55B16496F04787B72417D2E7356689"",""assignmentId"":""62965e08-0f7c-4fad-8438-35b5f0edb3fc"",""projectId"":""a9f3d40c-5730-405c-b25e-1034c4c56f3f""}","https://test12345.live/?num_scrambled_semantic=8&num_scrambled_causal=4&num_scrambled_schematic=4&participantId=9B55B16496F04787B72417D2E7356689&assignmentId=62965e08-0f7c-4fad-8438-35b5f0edb3fc&projectId=a9f3d40c-5730-405c-b25e-1034c4c56f3f","9B55B16496F04787B72417D2E7356689-2025-08-07-18-58-03","","629","","images/semantic_sequence/housework_semantic/housework_semantic_1.png","0","",""
"","","","","","image-button-response","36","221110","0.0-10.0-1.0-2.3","9B55B16496F04787B72417D2E7356689","9B55B16496F04787B72417D2E7356689","62965e08-0f7c-4fad-8438-35b5f0edb3fc","a9f3d40c-5730-405c-b25e-1034c4c56f3f","{""num_scrambled_semantic"":""8"",""num_scrambled_causal"":""4"",""num_scrambled_schematic"":""4"",""participantId"":""9B55B16496F04787B72417D2E7356689"",""assignmentId"":""62965e08-0f7c-4fad-8438-35b5f0edb3fc"",""projectId"":""a9f3d40c-5730-405c-b25e-1034c4c56f3f""}","https://test12345.live/?num_scrambled_semantic=8&num_scrambled_causal=4&num_scrambled_schematic=4&participantId=9B55B16496F04787B72417D2E7356689&assignmentId=62965e08-0f7c-4fad-8438-35b5f0edb3fc&projectId=a9f3d40c-5730-405c-b25e-1034c4c56f3f","9B55B16496F04787B72417D2E7356689-2025-08-07-18-58-03","","null","","[]","null","",""
"","","","","","image-button-response","37","225618","0.0-10.0-1.0-0.4","9B55B16496F04787B72417D2E7356689","9B55B16496F04787B72417D2E7356689","62965e08-0f7c-4fad-8438-35b5f0edb3fc","a9f3d40c-5730-405c-b25e-1034c4c56f3f","{""num_scrambled_semantic"":""8"",""num_scrambled_causal"":""4"",""num_scrambled_schematic"":""4"",""participantId"":""9B55B16496F04787B72417D2E7356689"",""assignmentId"":""62965e08-0f7c-4fad-8438-35b5f0edb3fc"",""projectId"":""a9f3d40c-5730-405c-b25e-1034c4c56f3f""}","https://test12345.live/?num_scrambled_semantic=8&num_scrambled_causal=4&num_scrambled_schematic=4&participantId=9B55B16496F04787B72417D2E7356689&assignmentId=62965e08-0f7c-4fad-8438-35b5f0edb3fc&projectId=a9f3d40c-5730-405c-b25e-1034c4c56f3f","9B55B16496F04787B72417D2E7356689-2025-08-07-18-58-03","","null","","images/semantic_sequence/housework_semantic/housework_semantic_5.png","null","",""
"","","","","","image-button-response","38","226739","0.0-10.0-1.0-1.4","9B55B16496F04787B72417D2E7356689","9B55B16496F04787B72417D2E7356689","62965e08-0f7c-4fad-8438-35b5f0edb3fc","a9f3d40c-5730-405c-b25e-1034c4c56f3f","{""num_scrambled_semantic"":""8"",""num_scrambled_causal"":""4"",""num_scrambled_schematic"":""4"",""participantId"":""9B55B16496F04787B72417D2E7356689"",""assignmentId"":""62965e08-0f7c-4fad-8438-35b5f0edb3fc"",""projectId"":""a9f3d40c-5730-405c-b25e-1034c4c56f3f""}","https://test12345.live/?num_scrambled_semantic=8&num_scrambled_causal=4&num_scrambled_schematic=4&participantId=9B55B16496F04787B72417D2E7356689&assignmentId=62965e08-0f7c-4fad-8438-35b5f0edb3fc&projectId=a9f3d40c-5730-405c-b25e-1034c4c56f3f","9B55B16496F04787B72417D2E7356689-2025-08-07-18-58-03","","1119","","images/semantic_sequence/housework_semantic/housework_semantic_5.png","0","",""
"","","","","","image-button-response","39","228546","0.0-10.0-1.0-2.4","9B55B16496F04787B72417D2E7356689","9B55B16496F04787B72417D2E7356689","62965e08-0f7c-4fad-8438-35b5f0edb3fc","a9f3d40c-5730-405c-b25e-1034c4c56f3f","{""num_scrambled_semantic"":""8"",""num_scrambled_causal"":""4"",""num_scrambled_schematic"":""4"",""participantId"":""9B55B16496F04787B72417D2E7356689"",""assignmentId"":""62965e08-0f7c-4fad-8438-35b5f0edb3fc"",""projectId"":""a9f3d40c-5730-405c-b25e-1034c4c56f3f""}","https://test12345.live/?num_scrambled_semantic=8&num_scrambled_causal=4&num_scrambled_schematic=4&participantId=9B55B16496F04787B72417D2E7356689&assignmentId=62965e08-0f7c-4fad-8438-35b5f0edb3fc&projectId=a9f3d40c-5730-405c-b25e-1034c4c56f3f","9B55B16496F04787B72417D2E7356689-2025-08-07-18-58-03","","null","","[]","null","",""
"","","","","","image-button-response","40","233053","0.0-10.0-1.0-0.5","9B55B16496F04787B72417D2E7356689","9B55B16496F04787B72417D2E7356689","62965e08-0f7c-4fad-8438-35b5f0edb3fc","a9f3d40c-5730-405c-b25e-1034c4c56f3f","{""num_scrambled_semantic"":""8"",""num_scrambled_causal"":""4"",""num_scrambled_schematic"":""4"",""participantId"":""9B55B16496F04787B72417D2E7356689"",""assignmentId"":""62965e08-0f7c-4fad-8438-35b5f0edb3fc"",""projectId"":""a9f3d40c-5730-405c-b25e-1034c4c56f3f""}","https://test12345.live/?num_scrambled_semantic=8&num_scrambled_causal=4&num_scrambled_schematic=4&participantId=9B55B16496F04787B72417D2E7356689&assignmentId=62965e08-0f7c-4fad-8438-35b5f0edb3fc&projectId=a9f3d40c-5730-405c-b25e-1034c4c56f3f","9B55B16496F04787B72417D2E7356689-2025-08-07-18-58-03","","null","","images/semantic_sequence/housework_semantic/housework_semantic_4.png","null","",""
"","","","","","image-button-response","41","234566","0.0-10.0-1.0-1.5","9B55B16496F04787B72417D2E7356689","9B55B16496F04787B72417D2E7356689","62965e08-0f7c-4fad-8438-35b5f0edb3fc","a9f3d40c-5730-405c-b25e-1034c4c56f3f","{""num_scrambled_semantic"":""8"",""num_scrambled_causal"":""4"",""num_scrambled_schematic"":""4"",""participantId"":""9B55B16496F04787B72417D2E7356689"",""assignmentId"":""62965e08-0f7c-4fad-8438-35b5f0edb3fc"",""projectId"":""a9f3d40c-5730-405c-b25e-1034c4c56f3f""}","https://test12345.live/?num_scrambled_semantic=8&num_scrambled_causal=4&num_scrambled_schematic=4&participantId=9B55B16496F04787B72417D2E7356689&assignmentId=62965e08-0f7c-4fad-8438-35b5f0edb3fc&projectId=a9f3d40c-5730-405c-b25e-1034c4c56f3f","9B55B16496F04787B72417D2E7356689-2025-08-07-18-58-03","","1511","","images/semantic_sequence/housework_semantic/housework_semantic_4.png","0","",""
"","","","","","image-button-response","42","236370","0.0-10.0-1.0-2.5","9B55B16496F04787B72417D2E7356689","9B55B16496F04787B72417D2E7356689","62965e08-0f7c-4fad-8438-35b5f0edb3fc","a9f3d40c-5730-405c-b25e-1034c4c56f3f","{""num_scrambled_semantic"":""8"",""num_scrambled_causal"":""4"",""num_scrambled_schematic"":""4"",""participantId"":""9B55B16496F04787B72417D2E7356689"",""assignmentId"":""62965e08-0f7c-4fad-8438-35b5f0edb3fc"",""projectId"":""a9f3d40c-5730-405c-b25e-1034c4c56f3f""}","https://test12345.live/?num_scrambled_semantic=8&num_scrambled_causal=4&num_scrambled_schematic=4&participantId=9B55B16496F04787B72417D2E7356689&assignmentId=62965e08-0f7c-4fad-8438-35b5f0edb3fc&projectId=a9f3d40c-5730-405c-b25e-1034c4c56f3f","9B55B16496F04787B72417D2E7356689-2025-08-07-18-58-03","","null","","[]","null","",""
"","","","","","image-button-response","43","240873","0.0-10.0-1.0-0.6","9B55B16496F04787B72417D2E7356689","9B55B16496F04787B72417D2E7356689","62965e08-0f7c-4fad-8438-35b5f0edb3fc","a9f3d40c-5730-405c-b25e-1034c4c56f3f","{""num_scrambled_semantic"":""8"",""num_scrambled_causal"":""4"",""num_scrambled_schematic"":""4"",""participantId"":""9B55B16496F04787B72417D2E7356689"",""assignmentId"":""62965e08-0f7c-4fad-8438-35b5f0edb3fc"",""projectId"":""a9f3d40c-5730-405c-b25e-1034c4c56f3f""}","https://test12345.live/?num_scrambled_semantic=8&num_scrambled_causal=4&num_scrambled_schematic=4&participantId=9B55B16496F04787B72417D2E7356689&assignmentId=62965e08-0f7c-4fad-8438-35b5f0edb3fc&projectId=a9f3d40c-5730-405c-b25e-1034c4c56f3f","9B55B16496F04787B72417D2E7356689-2025-08-07-18-58-03","","null","","images/semantic_sequence/housework_semantic/housework_semantic_9.png","null","",""
"","","","","","image-button-response","44","242002","0.0-10.0-1.0-1.6","9B55B16496F04787B72417D2E7356689","9B55B16496F04787B72417D2E7356689","62965e08-0f7c-4fad-8438-35b5f0edb3fc","a9f3d40c-5730-405c-b25e-1034c4c56f3f","{""num_scrambled_semantic"":""8"",""num_scrambled_causal"":""4"",""num_scrambled_schematic"":""4"",""participantId"":""9B55B16496F04787B72417D2E7356689"",""assignmentId"":""62965e08-0f7c-4fad-8438-35b5f0edb3fc"",""projectId"":""a9f3d40c-5730-405c-b25e-1034c4c56f3f""}","https://test12345.live/?num_scrambled_semantic=8&num_scrambled_causal=4&num_scrambled_schematic=4&participantId=9B55B16496F04787B72417D2E7356689&assignmentId=62965e08-0f7c-4fad-8438-35b5f0edb3fc&projectId=a9f3d40c-5730-405c-b25e-1034c4c56f3f","9B55B16496F04787B72417D2E7356689-2025-08-07-18-58-03","","1126","","images/semantic_sequence/housework_semantic/housework_semantic_9.png","0","",""
"","","","","","image-button-response","45","243806","0.0-10.0-1.0-2.6","9B55B16496F04787B72417D2E7356689","9B55B16496F04787B72417D2E7356689","62965e08-0f7c-4fad-8438-35b5f0edb3fc","a9f3d40c-5730-405c-b25e-1034c4c56f3f","{""num_scrambled_semantic"":""8"",""num_scrambled_causal"":""4"",""num_scrambled_schematic"":""4"",""participantId"":""9B55B16496F04787B72417D2E7356689"",""assignmentId"":""62965e08-0f7c-4fad-8438-35b5f0edb3fc"",""projectId"":""a9f3d40c-5730-405c-b25e-1034c4c56f3f""}","https://test12345.live/?num_scrambled_semantic=8&num_scrambled_causal=4&num_scrambled_schematic=4&participantId=9B55B16496F04787B72417D2E7356689&assignmentId=62965e08-0f7c-4fad-8438-35b5f0edb3fc&projectId=a9f3d40c-5730-405c-b25e-1034c4c56f3f","9B55B16496F04787B72417D2E7356689-2025-08-07-18-58-03","","null","","[]","null","",""
"","","","","","image-button-response","46","248309","0.0-10.0-1.0-0.7","9B55B16496F04787B72417D2E7356689","9B55B16496F04787B72417D2E7356689","62965e08-0f7c-4fad-8438-35b5f0edb3fc","a9f3d40c-5730-405c-b25e-1034c4c56f3f","{""num_scrambled_semantic"":""8"",""num_scrambled_causal"":""4"",""num_scrambled_schematic"":""4"",""participantId"":""9B55B16496F04787B72417D2E7356689"",""assignmentId"":""62965e08-0f7c-4fad-8438-35b5f0edb3fc"",""projectId"":""a9f3d40c-5730-405c-b25e-1034c4c56f3f""}","https://test12345.live/?num_scrambled_semantic=8&num_scrambled_causal=4&num_scrambled_schematic=4&participantId=9B55B16496F04787B72417D2E7356689&assignmentId=62965e08-0f7c-4fad-8438-35b5f0edb3fc&projectId=a9f3d40c-5730-405c-b25e-1034c4c56f3f","9B55B16496F04787B72417D2E7356689-2025-08-07-18-58-03","","null","","images/semantic_sequence/housework_semantic/housework_semantic_8.png","null","",""
"","","","","","image-button-response","47","249426","0.0-10.0-1.0-1.7","9B55B16496F04787B72417D2E7356689","9B55B16496F04787B72417D2E7356689","62965e08-0f7c-4fad-8438-35b5f0edb3fc","a9f3d40c-5730-405c-b25e-1034c4c56f3f","{""num_scrambled_semantic"":""8"",""num_scrambled_causal"":""4"",""num_scrambled_schematic"":""4"",""participantId"":""9B55B16496F04787B72417D2E7356689"",""assignmentId"":""62965e08-0f7c-4fad-8438-35b5f0edb3fc"",""projectId"":""a9f3d40c-5730-405c-b25e-1034c4c56f3f""}","https://test12345.live/?num_scrambled_semantic=8&num_scrambled_causal=4&num_scrambled_schematic=4&participantId=9B55B16496F04787B72417D2E7356689&assignmentId=62965e08-0f7c-4fad-8438-35b5f0edb3fc&projectId=a9f3d40c-5730-405c-b25e-1034c4c56f3f","9B55B16496F04787B72417D2E7356689-2025-08-07-18-58-03","","1115","","images/semantic_sequence/housework_semantic/housework_semantic_8.png","0","",""
"","","","","","image-button-response","48","251229","0.0-10.0-1.0-2.7","9B55B16496F04787B72417D2E7356689","9B55B16496F04787B72417D2E7356689","62965e08-0f7c-4fad-8438-35b5f0edb3fc","a9f3d40c-5730-405c-b25e-1034c4c56f3f","{""num_scrambled_semantic"":""8"",""num_scrambled_causal"":""4"",""num_scrambled_schematic"":""4"",""participantId"":""9B55B16496F04787B72417D2E7356689"",""assignmentId"":""62965e08-0f7c-4fad-8438-35b5f0edb3fc"",""projectId"":""a9f3d40c-5730-405c-b25e-1034c4c56f3f""}","https://test12345.live/?num_scrambled_semantic=8&num_scrambled_causal=4&num_scrambled_schematic=4&participantId=9B55B16496F04787B72417D2E7356689&assignmentId=62965e08-0f7c-4fad-8438-35b5f0edb3fc&projectId=a9f3d40c-5730-405c-b25e-1034c4c56f3f","9B55B16496F04787B72417D2E7356689-2025-08-07-18-58-03","","null","","[]","null","",""
"","","","","","image-button-response","49","255733","0.0-10.0-1.0-0.8","9B55B16496F04787B72417D2E7356689","9B55B16496F04787B72417D2E7356689","62965e08-0f7c-4fad-8438-35b5f0edb3fc","a9f3d40c-5730-405c-b25e-1034c4c56f3f","{""num_scrambled_semantic"":""8"",""num_scrambled_causal"":""4"",""num_scrambled_schematic"":""4"",""participantId"":""9B55B16496F04787B72417D2E7356689"",""assignmentId"":""62965e08-0f7c-4fad-8438-35b5f0edb3fc"",""projectId"":""a9f3d40c-5730-405c-b25e-1034c4c56f3f""}","https://test12345.live/?num_scrambled_semantic=8&num_scrambled_causal=4&num_scrambled_schematic=4&participantId=9B55B16496F04787B72417D2E7356689&assignmentId=62965e08-0f7c-4fad-8438-35b5f0edb3fc&projectId=a9f3d40c-5730-405c-b25e-1034c4c56f3f","9B55B16496F04787B72417D2E7356689-2025-08-07-18-58-03","","null","","images/semantic_sequence/housework_semantic/housework_semantic_7.png","null","",""
"","","","","","image-button-response","50","256419","0.0-10.0-1.0-1.8","9B55B16496F04787B72417D2E7356689","9B55B16496F04787B72417D2E7356689","62965e08-0f7c-4fad-8438-35b5f0edb3fc","a9f3d40c-5730-405c-b25e-1034c4c56f3f","{""num_scrambled_semantic"":""8"",""num_scrambled_causal"":""4"",""num_scrambled_schematic"":""4"",""participantId"":""9B55B16496F04787B72417D2E7356689"",""assignmentId"":""62965e08-0f7c-4fad-8438-35b5f0edb3fc"",""projectId"":""a9f3d40c-5730-405c-b25e-1034c4c56f3f""}","https://test12345.live/?num_scrambled_semantic=8&num_scrambled_causal=4&num_scrambled_schematic=4&participantId=9B55B16496F04787B72417D2E7356689&assignmentId=62965e08-0f7c-4fad-8438-35b5f0edb3fc&projectId=a9f3d40c-5730-405c-b25e-1034c4c56f3f","9B55B16496F04787B72417D2E7356689-2025-08-07-18-58-03","","684","","images/semantic_sequence/housework_semantic/housework_semantic_7.png","0","",""
"","","","","","image-button-response","51","258224","0.0-10.0-1.0-2.8","9B55B16496F04787B72417D2E7356689","9B55B16496F04787B72417D2E7356689","62965e08-0f7c-4fad-8438-35b5f0edb3fc","a9f3d40c-5730-405c-b25e-1034c4c56f3f","{""num_scrambled_semantic"":""8"",""num_scrambled_causal"":""4"",""num_scrambled_schematic"":""4"",""participantId"":""9B55B16496F04787B72417D2E7356689"",""assignmentId"":""62965e08-0f7c-4fad-8438-35b5f0edb3fc"",""projectId"":""a9f3d40c-5730-405c-b25e-1034c4c56f3f""}","https://test12345.live/?num_scrambled_semantic=8&num_scrambled_causal=4&num_scrambled_schematic=4&participantId=9B55B16496F04787B72417D2E7356689&assignmentId=62965e08-0f7c-4fad-8438-35b5f0edb3fc&projectId=a9f3d40c-5730-405c-b25e-1034c4c56f3f","9B55B16496F04787B72417D2E7356689-2025-08-07-18-58-03","","null","","[]","null","",""
"","","","","","image-button-response","52","262726","0.0-10.0-1.0-0.9","9B55B16496F04787B72417D2E7356689","9B55B16496F04787B72417D2E7356689","62965e08-0f7c-4fad-8438-35b5f0edb3fc","a9f3d40c-5730-405c-b25e-1034c4c56f3f","{""num_scrambled_semantic"":""8"",""num_scrambled_causal"":""4"",""num_scrambled_schematic"":""4"",""participantId"":""9B55B16496F04787B72417D2E7356689"",""assignmentId"":""62965e08-0f7c-4fad-8438-35b5f0edb3fc"",""projectId"":""a9f3d40c-5730-405c-b25e-1034c4c56f3f""}","https://test12345.live/?num_scrambled_semantic=8&num_scrambled_causal=4&num_scrambled_schematic=4&participantId=9B55B16496F04787B72417D2E7356689&assignmentId=62965e08-0f7c-4fad-8438-35b5f0edb3fc&projectId=a9f3d40c-5730-405c-b25e-1034c4c56f3f","9B55B16496F04787B72417D2E7356689-2025-08-07-18-58-03","","null","","images/semantic_sequence/housework_semantic/housework_semantic_6.png","null","",""
"","","","","","image-button-response","53","263496","0.0-10.0-1.0-1.9","9B55B16496F04787B72417D2E7356689","9B55B16496F04787B72417D2E7356689","62965e08-0f7c-4fad-8438-35b5f0edb3fc","a9f3d40c-5730-405c-b25e-1034c4c56f3f","{""num_scrambled_semantic"":""8"",""num_scrambled_causal"":""4"",""num_scrambled_schematic"":""4"",""participantId"":""9B55B16496F04787B72417D2E7356689"",""assignmentId"":""62965e08-0f7c-4fad-8438-35b5f0edb3fc"",""projectId"":""a9f3d40c-5730-405c-b25e-1034c4c56f3f""}","https://test12345.live/?num_scrambled_semantic=8&num_scrambled_causal=4&num_scrambled_schematic=4&participantId=9B55B16496F04787B72417D2E7356689&assignmentId=62965e08-0f7c-4fad-8438-35b5f0edb3fc&projectId=a9f3d40c-5730-405c-b25e-1034c4c56f3f","9B55B16496F04787B72417D2E7356689-2025-08-07-18-58-03","","768","","images/semantic_sequence/housework_semantic/housework_semantic_6.png","0","",""
"","","","","","image-button-response","54","265301","0.0-10.0-1.0-2.9","9B55B16496F04787B72417D2E7356689","9B55B16496F04787B72417D2E7356689","62965e08-0f7c-4fad-8438-35b5f0edb3fc","a9f3d40c-5730-405c-b25e-1034c4c56f3f","{""num_scrambled_semantic"":""8"",""num_scrambled_causal"":""4"",""num_scrambled_schematic"":""4"",""participantId"":""9B55B16496F04787B72417D2E7356689"",""assignmentId"":""62965e08-0f7c-4fad-8438-35b5f0edb3fc"",""projectId"":""a9f3d40c-5730-405c-b25e-1034c4c56f3f""}","https://test12345.live/?num_scrambled_semantic=8&num_scrambled_causal=4&num_scrambled_schematic=4&participantId=9B55B16496F04787B72417D2E7356689&assignmentId=62965e08-0f7c-4fad-8438-35b5f0edb3fc&projectId=a9f3d40c-5730-405c-b25e-1034c4c56f3f","9B55B16496F04787B72417D2E7356689-2025-08-07-18-58-03","","null","","[]","null","",""
"","","","","","html-audio-response","55","287449","0.0-11.0","9B55B16496F04787B72417D2E7356689","9B55B16496F04787B72417D2E7356689","62965e08-0f7c-4fad-8438-35b5f0edb3fc","a9f3d40c-5730-405c-b25e-1034c4c56f3f","{""num_scrambled_semantic"":""8"",""num_scrambled_causal"":""4"",""num_scrambled_schematic"":""4"",""participantId"":""9B55B16496F04787B72417D2E7356689"",""assignmentId"":""62965e08-0f7c-4fad-8438-35b5f0edb3fc"",""projectId"":""a9f3d40c-5730-405c-b25e-1034c4c56f3f""}","https://test12345.live/?num_scrambled_semantic=8&num_scrambled_causal=4&num_scrambled_schematic=4&participantId=9B55B16496F04787B72417D2E7356689&assignmentId=62965e08-0f7c-4fad-8438-35b5f0edb3fc&projectId=a9f3d40c-5730-405c-b25e-1034c4c56f3f","9B55B16496F04787B72417D2E7356689-2025-08-07-18-58-03","","13144","","[""<span style=\""color: red; font-size: 24px\""> NOW RECORDING</span><p>Please say out loud all the images you saw, as many as you can remember. The images can be said in any order.</p>""]","","3","housework_semantic"
"","","","","","image-button-response","56","293454","0.0-12.0-0.0","9B55B16496F04787B72417D2E7356689","9B55B16496F04787B72417D2E7356689","62965e08-0f7c-4fad-8438-35b5f0edb3fc","a9f3d40c-5730-405c-b25e-1034c4c56f3f","{""num_scrambled_semantic"":""8"",""num_scrambled_causal"":""4"",""num_scrambled_schematic"":""4"",""participantId"":""9B55B16496F04787B72417D2E7356689"",""assignmentId"":""62965e08-0f7c-4fad-8438-35b5f0edb3fc"",""projectId"":""a9f3d40c-5730-405c-b25e-1034c4c56f3f""}","https://test12345.live/?num_scrambled_semantic=8&num_scrambled_causal=4&num_scrambled_schematic=4&participantId=9B55B16496F04787B72417D2E7356689&assignmentId=62965e08-0f7c-4fad-8438-35b5f0edb3fc&projectId=a9f3d40c-5730-405c-b25e-1034c4c56f3f","9B55B16496F04787B72417D2E7356689-2025-08-07-18-58-03","","null","","images/causal_sequence/coin_causal/coin_causal_0.png","null","",""
"","","","","","image-button-response","57","297962","0.0-12.0-1.0-0.0","9B55B16496F04787B72417D2E7356689","9B55B16496F04787B72417D2E7356689","62965e08-0f7c-4fad-8438-35b5f0edb3fc","a9f3d40c-5730-405c-b25e-1034c4c56f3f","{""num_scrambled_semantic"":""8"",""num_scrambled_causal"":""4"",""num_scrambled_schematic"":""4"",""participantId"":""9B55B16496F04787B72417D2E7356689"",""assignmentId"":""62965e08-0f7c-4fad-8438-35b5f0edb3fc"",""projectId"":""a9f3d40c-5730-405c-b25e-1034c4c56f3f""}","https://test12345.live/?num_scrambled_semantic=8&num_scrambled_causal=4&num_scrambled_schematic=4&participantId=9B55B16496F04787B72417D2E7356689&assignmentId=62965e08-0f7c-4fad-8438-35b5f0edb3fc&projectId=a9f3d40c-5730-405c-b25e-1034c4c56f3f","9B55B16496F04787B72417D2E7356689-2025-08-07-18-58-03","","null","","images/causal_sequence/coin_causal/coin_causal_6.png","null","",""
"","","","","","image-button-response","58","299703","0.0-12.0-1.0-1.0","9B55B16496F04787B72417D2E7356689","9B55B16496F04787B72417D2E7356689","62965e08-0f7c-4fad-8438-35b5f0edb3fc","a9f3d40c-5730-405c-b25e-1034c4c56f3f","{""num_scrambled_semantic"":""8"",""num_scrambled_causal"":""4"",""num_scrambled_schematic"":""4"",""participantId"":""9B55B16496F04787B72417D2E7356689"",""assignmentId"":""62965e08-0f7c-4fad-8438-35b5f0edb3fc"",""projectId"":""a9f3d40c-5730-405c-b25e-1034c4c56f3f""}","https://test12345.live/?num_scrambled_semantic=8&num_scrambled_causal=4&num_scrambled_schematic=4&participantId=9B55B16496F04787B72417D2E7356689&assignmentId=62965e08-0f7c-4fad-8438-35b5f0edb3fc&projectId=a9f3d40c-5730-405c-b25e-1034c4c56f3f","9B55B16496F04787B72417D2E7356689-2025-08-07-18-58-03","","1739","","images/causal_sequence/coin_causal/coin_causal_6.png","0","",""
"","","","","","image-button-response","59","301510","0.0-12.0-1.0-2.0","9B55B16496F04787B72417D2E7356689","9B55B16496F04787B72417D2E7356689","62965e08-0f7c-4fad-8438-35b5f0edb3fc","a9f3d40c-5730-405c-b25e-1034c4c56f3f","{""num_scrambled_semantic"":""8"",""num_scrambled_causal"":""4"",""num_scrambled_schematic"":""4"",""participantId"":""9B55B16496F04787B72417D2E7356689"",""assignmentId"":""62965e08-0f7c-4fad-8438-35b5f0edb3fc"",""projectId"":""a9f3d40c-5730-405c-b25e-1034c4c56f3f""}","https://test12345.live/?num_scrambled_semantic=8&num_scrambled_causal=4&num_scrambled_schematic=4&participantId=9B55B16496F04787B72417D2E7356689&assignmentId=62965e08-0f7c-4fad-8438-35b5f0edb3fc&projectId=a9f3d40c-5730-405c-b25e-1034c4c56f3f","9B55B16496F04787B72417D2E7356689-2025-08-07-18-58-03","","null","","[]","null","",""
"","","","","","image-button-response","60","306013","0.0-12.0-1.0-0.1","9B55B16496F04787B72417D2E7356689","9B55B16496F04787B72417D2E7356689","62965e08-0f7c-4fad-8438-35b5f0edb3fc","a9f3d40c-5730-405c-b25e-1034c4c56f3f","{""num_scrambled_semantic"":""8"",""num_scrambled_causal"":""4"",""num_scrambled_schematic"":""4"",""participantId"":""9B55B16496F04787B72417D2E7356689"",""assignmentId"":""62965e08-0f7c-4fad-8438-35b5f0edb3fc"",""projectId"":""a9f3d40c-5730-405c-b25e-1034c4c56f3f""}","https://test12345.live/?num_scrambled_semantic=8&num_scrambled_causal=4&num_scrambled_schematic=4&participantId=9B55B16496F04787B72417D2E7356689&assignmentId=62965e08-0f7c-4fad-8438-35b5f0edb3fc&projectId=a9f3d40c-5730-405c-b25e-1034c4c56f3f","9B55B16496F04787B72417D2E7356689-2025-08-07-18-58-03","","null","","images/causal_sequence/coin_causal/coin_causal_1.png","null","",""
"","","","","","image-button-response","61","306955","0.0-12.0-1.0-1.1","9B55B16496F04787B72417D2E7356689","9B55B16496F04787B72417D2E7356689","62965e08-0f7c-4fad-8438-35b5f0edb3fc","a9f3d40c-5730-405c-b25e-1034c4c56f3f","{""num_scrambled_semantic"":""8"",""num_scrambled_causal"":""4"",""num_scrambled_schematic"":""4"",""participantId"":""9B55B16496F04787B72417D2E7356689"",""assignmentId"":""62965e08-0f7c-4fad-8438-35b5f0edb3fc"",""projectId"":""a9f3d40c-5730-405c-b25e-1034c4c56f3f""}","https://test12345.live/?num_scrambled_semantic=8&num_scrambled_causal=4&num_scrambled_schematic=4&participantId=9B55B16496F04787B72417D2E7356689&assignmentId=62965e08-0f7c-4fad-8438-35b5f0edb3fc&projectId=a9f3d40c-5730-405c-b25e-1034c4c56f3f","9B55B16496F04787B72417D2E7356689-2025-08-07-18-58-03","","940","","images/causal_sequence/coin_causal/coin_causal_1.png","0","",""
"","","","","","image-button-response","62","308759","0.0-12.0-1.0-2.1","9B55B16496F04787B72417D2E7356689","9B55B16496F04787B72417D2E7356689","62965e08-0f7c-4fad-8438-35b5f0edb3fc","a9f3d40c-5730-405c-b25e-1034c4c56f3f","{""num_scrambled_semantic"":""8"",""num_scrambled_causal"":""4"",""num_scrambled_schematic"":""4"",""participantId"":""9B55B16496F04787B72417D2E7356689"",""assignmentId"":""62965e08-0f7c-4fad-8438-35b5f0edb3fc"",""projectId"":""a9f3d40c-5730-405c-b25e-1034c4c56f3f""}","https://test12345.live/?num_scrambled_semantic=8&num_scrambled_causal=4&num_scrambled_schematic=4&participantId=9B55B16496F04787B72417D2E7356689&assignmentId=62965e08-0f7c-4fad-8438-35b5f0edb3fc&projectId=a9f3d40c-5730-405c-b25e-1034c4c56f3f","9B55B16496F04787B72417D2E7356689-2025-08-07-18-58-03","","null","","[]","null","",""
"","","","","","image-button-response","63","313264","0.0-12.0-1.0-0.2","9B55B16496F04787B72417D2E7356689","9B55B16496F04787B72417D2E7356689","62965e08-0f7c-4fad-8438-35b5f0edb3fc","a9f3d40c-5730-405c-b25e-1034c4c56f3f","{""num_scrambled_semantic"":""8"",""num_scrambled_causal"":""4"",""num_scrambled_schematic"":""4"",""participantId"":""9B55B16496F04787B72417D2E7356689"",""assignmentId"":""62965e08-0f7c-4fad-8438-35b5f0edb3fc"",""projectId"":""a9f3d40c-5730-405c-b25e-1034c4c56f3f""}","https://test12345.live/?num_scrambled_semantic=8&num_scrambled_causal=4&num_scrambled_schematic=4&participantId=9B55B16496F04787B72417D2E7356689&assignmentId=62965e08-0f7c-4fad-8438-35b5f0edb3fc&projectId=a9f3d40c-5730-405c-b25e-1034c4c56f3f","9B55B16496F04787B72417D2E7356689-2025-08-07-18-58-03","","null","","images/causal_sequence/coin_causal/coin_causal_8.png","null","",""
"","","","","","image-button-response","64","314519","0.0-12.0-1.0-1.2","9B55B16496F04787B72417D2E7356689","9B55B16496F04787B72417D2E7356689","62965e08-0f7c-4fad-8438-35b5f0edb3fc","a9f3d40c-5730-405c-b25e-1034c4c56f3f","{""num_scrambled_semantic"":""8"",""num_scrambled_causal"":""4"",""num_scrambled_schematic"":""4"",""participantId"":""9B55B16496F04787B72417D2E7356689"",""assignmentId"":""62965e08-0f7c-4fad-8438-35b5f0edb3fc"",""projectId"":""a9f3d40c-5730-405c-b25e-1034c4c56f3f""}","https://test12345.live/?num_scrambled_semantic=8&num_scrambled_causal=4&num_scrambled_schematic=4&participantId=9B55B16496F04787B72417D2E7356689&assignmentId=62965e08-0f7c-4fad-8438-35b5f0edb3fc&projectId=a9f3d40c-5730-405c-b25e-1034c4c56f3f","9B55B16496F04787B72417D2E7356689-2025-08-07-18-58-03","","1253","","images/causal_sequence/coin_causal/coin_causal_8.png","0","",""
"","","","","","image-button-response","65","316323","0.0-12.0-1.0-2.2","9B55B16496F04787B72417D2E7356689","9B55B16496F04787B72417D2E7356689","62965e08-0f7c-4fad-8438-35b5f0edb3fc","a9f3d40c-5730-405c-b25e-1034c4c56f3f","{""num_scrambled_semantic"":""8"",""num_scrambled_causal"":""4"",""num_scrambled_schematic"":""4"",""participantId"":""9B55B16496F04787B72417D2E7356689"",""assignmentId"":""62965e08-0f7c-4fad-8438-35b5f0edb3fc"",""projectId"":""a9f3d40c-5730-405c-b25e-1034c4c56f3f""}","https://test12345.live/?num_scrambled_semantic=8&num_scrambled_causal=4&num_scrambled_schematic=4&participantId=9B55B16496F04787B72417D2E7356689&assignmentId=62965e08-0f7c-4fad-8438-35b5f0edb3fc&projectId=a9f3d40c-5730-405c-b25e-1034c4c56f3f","9B55B16496F04787B72417D2E7356689-2025-08-07-18-58-03","","null","","[]","null","",""
"","","","","","image-button-response","66","320826","0.0-12.0-1.0-0.3","9B55B16496F04787B72417D2E7356689","9B55B16496F04787B72417D2E7356689","62965e08-0f7c-4fad-8438-35b5f0edb3fc","a9f3d40c-5730-405c-b25e-1034c4c56f3f","{""num_scrambled_semantic"":""8"",""num_scrambled_causal"":""4"",""num_scrambled_schematic"":""4"",""participantId"":""9B55B16496F04787B72417D2E7356689"",""assignmentId"":""62965e08-0f7c-4fad-8438-35b5f0edb3fc"",""projectId"":""a9f3d40c-5730-405c-b25e-1034c4c56f3f""}","https://test12345.live/?num_scrambled_semantic=8&num_scrambled_causal=4&num_scrambled_schematic=4&participantId=9B55B16496F04787B72417D2E7356689&assignmentId=62965e08-0f7c-4fad-8438-35b5f0edb3fc&projectId=a9f3d40c-5730-405c-b25e-1034c4c56f3f","9B55B16496F04787B72417D2E7356689-2025-08-07-18-58-03","","null","","images/causal_sequence/coin_causal/coin_causal_ten.png","null","",""
"","","","","","image-button-response","67","321693","0.0-12.0-1.0-1.3","9B55B16496F04787B72417D2E7356689","9B55B16496F04787B72417D2E7356689","62965e08-0f7c-4fad-8438-35b5f0edb3fc","a9f3d40c-5730-405c-b25e-1034c4c56f3f","{""num_scrambled_semantic"":""8"",""num_scrambled_causal"":""4"",""num_scrambled_schematic"":""4"",""participantId"":""9B55B16496F04787B72417D2E7356689"",""assignmentId"":""62965e08-0f7c-4fad-8438-35b5f0edb3fc"",""projectId"":""a9f3d40c-5730-405c-b25e-1034c4c56f3f""}","https://test12345.live/?num_scrambled_semantic=8&num_scrambled_causal=4&num_scrambled_schematic=4&participantId=9B55B16496F04787B72417D2E7356689&assignmentId=62965e08-0f7c-4fad-8438-35b5f0edb3fc&projectId=a9f3d40c-5730-405c-b25e-1034c4c56f3f","9B55B16496F04787B72417D2E7356689-2025-08-07-18-58-03","","865","","images/causal_sequence/coin_causal/coin_causal_ten.png","0","",""
"","","","","","image-button-response","68","323499","0.0-12.0-1.0-2.3","9B55B16496F04787B72417D2E7356689","9B55B16496F04787B72417D2E7356689","62965e08-0f7c-4fad-8438-35b5f0edb3fc","a9f3d40c-5730-405c-b25e-1034c4c56f3f","{""num_scrambled_semantic"":""8"",""num_scrambled_causal"":""4"",""num_scrambled_schematic"":""4"",""participantId"":""9B55B16496F04787B72417D2E7356689"",""assignmentId"":""62965e08-0f7c-4fad-8438-35b5f0edb3fc"",""projectId"":""a9f3d40c-5730-405c-b25e-1034c4c56f3f""}","https://test12345.live/?num_scrambled_semantic=8&num_scrambled_causal=4&num_scrambled_schematic=4&participantId=9B55B16496F04787B72417D2E7356689&assignmentId=62965e08-0f7c-4fad-8438-35b5f0edb3fc&projectId=a9f3d40c-5730-405c-b25e-1034c4c56f3f","9B55B16496F04787B72417D2E7356689-2025-08-07-18-58-03","","null","","[]","null","",""
"","","","","","image-button-response","69","328003","0.0-12.0-1.0-0.4","9B55B16496F04787B72417D2E7356689","9B55B16496F04787B72417D2E7356689","62965e08-0f7c-4fad-8438-35b5f0edb3fc","a9f3d40c-5730-405c-b25e-1034c4c56f3f","{""num_scrambled_semantic"":""8"",""num_scrambled_causal"":""4"",""num_scrambled_schematic"":""4"",""participantId"":""9B55B16496F04787B72417D2E7356689"",""assignmentId"":""62965e08-0f7c-4fad-8438-35b5f0edb3fc"",""projectId"":""a9f3d40c-5730-405c-b25e-1034c4c56f3f""}","https://test12345.live/?num_scrambled_semantic=8&num_scrambled_causal=4&num_scrambled_schematic=4&participantId=9B55B16496F04787B72417D2E7356689&assignmentId=62965e08-0f7c-4fad-8438-35b5f0edb3fc&projectId=a9f3d40c-5730-405c-b25e-1034c4c56f3f","9B55B16496F04787B72417D2E7356689-2025-08-07-18-58-03","","null","","images/causal_sequence/coin_causal/coin_causal_5.png","null","",""
"","","","","","image-button-response","70","328573","0.0-12.0-1.0-1.4","9B55B16496F04787B72417D2E7356689","9B55B16496F04787B72417D2E7356689","62965e08-0f7c-4fad-8438-35b5f0edb3fc","a9f3d40c-5730-405c-b25e-1034c4c56f3f","{""num_scrambled_semantic"":""8"",""num_scrambled_causal"":""4"",""num_scrambled_schematic"":""4"",""participantId"":""9B55B16496F04787B72417D2E7356689"",""assignmentId"":""62965e08-0f7c-4fad-8438-35b5f0edb3fc"",""projectId"":""a9f3d40c-5730-405c-b25e-1034c4c56f3f""}","https://test12345.live/?num_scrambled_semantic=8&num_scrambled_causal=4&num_scrambled_schematic=4&participantId=9B55B16496F04787B72417D2E7356689&assignmentId=62965e08-0f7c-4fad-8438-35b5f0edb3fc&projectId=a9f3d40c-5730-405c-b25e-1034c4c56f3f","9B55B16496F04787B72417D2E7356689-2025-08-07-18-58-03","","568","","images/causal_sequence/coin_causal/coin_causal_5.png","0","",""
"","","","","","image-button-response","71","330379","0.0-12.0-1.0-2.4","9B55B16496F04787B72417D2E7356689","9B55B16496F04787B72417D2E7356689","62965e08-0f7c-4fad-8438-35b5f0edb3fc","a9f3d40c-5730-405c-b25e-1034c4c56f3f","{""num_scrambled_semantic"":""8"",""num_scrambled_causal"":""4"",""num_scrambled_schematic"":""4"",""participantId"":""9B55B16496F04787B72417D2E7356689"",""assignmentId"":""62965e08-0f7c-4fad-8438-35b5f0edb3fc"",""projectId"":""a9f3d40c-5730-405c-b25e-1034c4c56f3f""}","https://test12345.live/?num_scrambled_semantic=8&num_scrambled_causal=4&num_scrambled_schematic=4&participantId=9B55B16496F04787B72417D2E7356689&assignmentId=62965e08-0f7c-4fad-8438-35b5f0edb3fc&projectId=a9f3d40c-5730-405c-b25e-1034c4c56f3f","9B55B16496F04787B72417D2E7356689-2025-08-07-18-58-03","","null","","[]","null","",""
"","","","","","image-button-response","72","334882","0.0-12.0-1.0-0.5","9B55B16496F04787B72417D2E7356689","9B55B16496F04787B72417D2E7356689","62965e08-0f7c-4fad-8438-35b5f0edb3fc","a9f3d40c-5730-405c-b25e-1034c4c56f3f","{""num_scrambled_semantic"":""8"",""num_scrambled_causal"":""4"",""num_scrambled_schematic"":""4"",""participantId"":""9B55B16496F04787B72417D2E7356689"",""assignmentId"":""62965e08-0f7c-4fad-8438-35b5f0edb3fc"",""projectId"":""a9f3d40c-5730-405c-b25e-1034c4c56f3f""}","https://test12345.live/?num_scrambled_semantic=8&num_scrambled_causal=4&num_scrambled_schematic=4&participantId=9B55B16496F04787B72417D2E7356689&assignmentId=62965e08-0f7c-4fad-8438-35b5f0edb3fc&projectId=a9f3d40c-5730-405c-b25e-1034c4c56f3f","9B55B16496F04787B72417D2E7356689-2025-08-07-18-58-03","","null","","images/causal_sequence/coin_causal/coin_causal_9.png","null","",""
"","","","","","image-button-response","73","335631","0.0-12.0-1.0-1.5","9B55B16496F04787B72417D2E7356689","9B55B16496F04787B72417D2E7356689","62965e08-0f7c-4fad-8438-35b5f0edb3fc","a9f3d40c-5730-405c-b25e-1034c4c56f3f","{""num_scrambled_semantic"":""8"",""num_scrambled_causal"":""4"",""num_scrambled_schematic"":""4"",""participantId"":""9B55B16496F04787B72417D2E7356689"",""assignmentId"":""62965e08-0f7c-4fad-8438-35b5f0edb3fc"",""projectId"":""a9f3d40c-5730-405c-b25e-1034c4c56f3f""}","https://test12345.live/?num_scrambled_semantic=8&num_scrambled_causal=4&num_scrambled_schematic=4&participantId=9B55B16496F04787B72417D2E7356689&assignmentId=62965e08-0f7c-4fad-8438-35b5f0edb3fc&projectId=a9f3d40c-5730-405c-b25e-1034c4c56f3f","9B55B16496F04787B72417D2E7356689-2025-08-07-18-58-03","","746","","images/causal_sequence/coin_causal/coin_causal_9.png","0","",""
"","","","","","image-button-response","74","337435","0.0-12.0-1.0-2.5","9B55B16496F04787B72417D2E7356689","9B55B16496F04787B72417D2E7356689","62965e08-0f7c-4fad-8438-35b5f0edb3fc","a9f3d40c-5730-405c-b25e-1034c4c56f3f","{""num_scrambled_semantic"":""8"",""num_scrambled_causal"":""4"",""num_scrambled_schematic"":""4"",""participantId"":""9B55B16496F04787B72417D2E7356689"",""assignmentId"":""62965e08-0f7c-4fad-8438-35b5f0edb3fc"",""projectId"":""a9f3d40c-5730-405c-b25e-1034c4c56f3f""}","https://test12345.live/?num_scrambled_semantic=8&num_scrambled_causal=4&num_scrambled_schematic=4&participantId=9B55B16496F04787B72417D2E7356689&assignmentId=62965e08-0f7c-4fad-8438-35b5f0edb3fc&projectId=a9f3d40c-5730-405c-b25e-1034c4c56f3f","9B55B16496F04787B72417D2E7356689-2025-08-07-18-58-03","","null","","[]","null","",""
"","","","","","image-button-response","75","341941","0.0-12.0-1.0-0.6","9B55B16496F04787B72417D2E7356689","9B55B16496F04787B72417D2E7356689","62965e08-0f7c-4fad-8438-35b5f0edb3fc","a9f3d40c-5730-405c-b25e-1034c4c56f3f","{""num_scrambled_semantic"":""8"",""num_scrambled_causal"":""4"",""num_scrambled_schematic"":""4"",""participantId"":""9B55B16496F04787B72417D2E7356689"",""assignmentId"":""62965e08-0f7c-4fad-8438-35b5f0edb3fc"",""projectId"":""a9f3d40c-5730-405c-b25e-1034c4c56f3f""}","https://test12345.live/?num_scrambled_semantic=8&num_scrambled_causal=4&num_scrambled_schematic=4&participantId=9B55B16496F04787B72417D2E7356689&assignmentId=62965e08-0f7c-4fad-8438-35b5f0edb3fc&projectId=a9f3d40c-5730-405c-b25e-1034c4c56f3f","9B55B16496F04787B72417D2E7356689-2025-08-07-18-58-03","","null","","images/causal_sequence/coin_causal/coin_causal_2.png","null","",""
"","","","","","image-button-response","76","342722","0.0-12.0-1.0-1.6","9B55B16496F04787B72417D2E7356689","9B55B16496F04787B72417D2E7356689","62965e08-0f7c-4fad-8438-35b5f0edb3fc","a9f3d40c-5730-405c-b25e-1034c4c56f3f","{""num_scrambled_semantic"":""8"",""num_scrambled_causal"":""4"",""num_scrambled_schematic"":""4"",""participantId"":""9B55B16496F04787B72417D2E7356689"",""assignmentId"":""62965e08-0f7c-4fad-8438-35b5f0edb3fc"",""projectId"":""a9f3d40c-5730-405c-b25e-1034c4c56f3f""}","https://test12345.live/?num_scrambled_semantic=8&num_scrambled_causal=4&num_scrambled_schematic=4&participantId=9B55B16496F04787B72417D2E7356689&assignmentId=62965e08-0f7c-4fad-8438-35b5f0edb3fc&projectId=a9f3d40c-5730-405c-b25e-1034c4c56f3f","9B55B16496F04787B72417D2E7356689-2025-08-07-18-58-03","","779","","images/causal_sequence/coin_causal/coin_causal_2.png","0","",""
"","","","","","image-button-response","77","344529","0.0-12.0-1.0-2.6","9B55B16496F04787B72417D2E7356689","9B55B16496F04787B72417D2E7356689","62965e08-0f7c-4fad-8438-35b5f0edb3fc","a9f3d40c-5730-405c-b25e-1034c4c56f3f","{""num_scrambled_semantic"":""8"",""num_scrambled_causal"":""4"",""num_scrambled_schematic"":""4"",""participantId"":""9B55B16496F04787B72417D2E7356689"",""assignmentId"":""62965e08-0f7c-4fad-8438-35b5f0edb3fc"",""projectId"":""a9f3d40c-5730-405c-b25e-1034c4c56f3f""}","https://test12345.live/?num_scrambled_semantic=8&num_scrambled_causal=4&num_scrambled_schematic=4&participantId=9B55B16496F04787B72417D2E7356689&assignmentId=62965e08-0f7c-4fad-8438-35b5f0edb3fc&projectId=a9f3d40c-5730-405c-b25e-1034c4c56f3f","9B55B16496F04787B72417D2E7356689-2025-08-07-18-58-03","","null","","[]","null","",""
"","","","","","image-button-response","78","349035","0.0-12.0-1.0-0.7","9B55B16496F04787B72417D2E7356689","9B55B16496F04787B72417D2E7356689","62965e08-0f7c-4fad-8438-35b5f0edb3fc","a9f3d40c-5730-405c-b25e-1034c4c56f3f","{""num_scrambled_semantic"":""8"",""num_scrambled_causal"":""4"",""num_scrambled_schematic"":""4"",""participantId"":""9B55B16496F04787B72417D2E7356689"",""assignmentId"":""62965e08-0f7c-4fad-8438-35b5f0edb3fc"",""projectId"":""a9f3d40c-5730-405c-b25e-1034c4c56f3f""}","https://test12345.live/?num_scrambled_semantic=8&num_scrambled_causal=4&num_scrambled_schematic=4&participantId=9B55B16496F04787B72417D2E7356689&assignmentId=62965e08-0f7c-4fad-8438-35b5f0edb3fc&projectId=a9f3d40c-5730-405c-b25e-1034c4c56f3f","9B55B16496F04787B72417D2E7356689-2025-08-07-18-58-03","","null","","images/causal_sequence/coin_causal/coin_causal_4.png","null","",""
"","","","","","image-button-response","79","350126","0.0-12.0-1.0-1.7","9B55B16496F04787B72417D2E7356689","9B55B16496F04787B72417D2E7356689","62965e08-0f7c-4fad-8438-35b5f0edb3fc","a9f3d40c-5730-405c-b25e-1034c4c56f3f","{""num_scrambled_semantic"":""8"",""num_scrambled_causal"":""4"",""num_scrambled_schematic"":""4"",""participantId"":""9B55B16496F04787B72417D2E7356689"",""assignmentId"":""62965e08-0f7c-4fad-8438-35b5f0edb3fc"",""projectId"":""a9f3d40c-5730-405c-b25e-1034c4c56f3f""}","https://test12345.live/?num_scrambled_semantic=8&num_scrambled_causal=4&num_scrambled_schematic=4&participantId=9B55B16496F04787B72417D2E7356689&assignmentId=62965e08-0f7c-4fad-8438-35b5f0edb3fc&projectId=a9f3d40c-5730-405c-b25e-1034c4c56f3f","9B55B16496F04787B72417D2E7356689-2025-08-07-18-58-03","","1088","","images/causal_sequence/coin_causal/coin_causal_4.png","0","",""
"","","","","","image-button-response","80","351932","0.0-12.0-1.0-2.7","9B55B16496F04787B72417D2E7356689","9B55B16496F04787B72417D2E7356689","62965e08-0f7c-4fad-8438-35b5f0edb3fc","a9f3d40c-5730-405c-b25e-1034c4c56f3f","{""num_scrambled_semantic"":""8"",""num_scrambled_causal"":""4"",""num_scrambled_schematic"":""4"",""participantId"":""9B55B16496F04787B72417D2E7356689"",""assignmentId"":""62965e08-0f7c-4fad-8438-35b5f0edb3fc"",""projectId"":""a9f3d40c-5730-405c-b25e-1034c4c56f3f""}","https://test12345.live/?num_scrambled_semantic=8&num_scrambled_causal=4&num_scrambled_schematic=4&participantId=9B55B16496F04787B72417D2E7356689&assignmentId=62965e08-0f7c-4fad-8438-35b5f0edb3fc&projectId=a9f3d40c-5730-405c-b25e-1034c4c56f3f","9B55B16496F04787B72417D2E7356689-2025-08-07-18-58-03","","null","","[]","null","",""
"","","","","","image-button-response","81","356435","0.0-12.0-1.0-0.8","9B55B16496F04787B72417D2E7356689","9B55B16496F04787B72417D2E7356689","62965e08-0f7c-4fad-8438-35b5f0edb3fc","a9f3d40c-5730-405c-b25e-1034c4c56f3f","{""num_scrambled_semantic"":""8"",""num_scrambled_causal"":""4"",""num_scrambled_schematic"":""4"",""participantId"":""9B55B16496F04787B72417D2E7356689"",""assignmentId"":""62965e08-0f7c-4fad-8438-35b5f0edb3fc"",""projectId"":""a9f3d40c-5730-405c-b25e-1034c4c56f3f""}","https://test12345.live/?num_scrambled_semantic=8&num_scrambled_causal=4&num_scrambled_schematic=4&participantId=9B55B16496F04787B72417D2E7356689&assignmentId=62965e08-0f7c-4fad-8438-35b5f0edb3fc&projectId=a9f3d40c-5730-405c-b25e-1034c4c56f3f","9B55B16496F04787B72417D2E7356689-2025-08-07-18-58-03","","null","","images/causal_sequence/coin_causal/coin_causal_7.png","null","",""
"","","","","","image-button-response","82","358589","0.0-12.0-1.0-1.8","9B55B16496F04787B72417D2E7356689","9B55B16496F04787B72417D2E7356689","62965e08-0f7c-4fad-8438-35b5f0edb3fc","a9f3d40c-5730-405c-b25e-1034c4c56f3f","{""num_scrambled_semantic"":""8"",""num_scrambled_causal"":""4"",""num_scrambled_schematic"":""4"",""participantId"":""9B55B16496F04787B72417D2E7356689"",""assignmentId"":""62965e08-0f7c-4fad-8438-35b5f0edb3fc"",""projectId"":""a9f3d40c-5730-405c-b25e-1034c4c56f3f""}","https://test12345.live/?num_scrambled_semantic=8&num_scrambled_causal=4&num_scrambled_schematic=4&participantId=9B55B16496F04787B72417D2E7356689&assignmentId=62965e08-0f7c-4fad-8438-35b5f0edb3fc&projectId=a9f3d40c-5730-405c-b25e-1034c4c56f3f","9B55B16496F04787B72417D2E7356689-2025-08-07-18-58-03","","2151","","images/causal_sequence/coin_causal/coin_causal_7.png","1","",""
"","","","","","image-button-response","83","360395","0.0-12.0-1.0-2.8","9B55B16496F04787B72417D2E7356689","9B55B16496F04787B72417D2E7356689","62965e08-0f7c-4fad-8438-35b5f0edb3fc","a9f3d40c-5730-405c-b25e-1034c4c56f3f","{""num_scrambled_semantic"":""8"",""num_scrambled_causal"":""4"",""num_scrambled_schematic"":""4"",""participantId"":""9B55B16496F04787B72417D2E7356689"",""assignmentId"":""62965e08-0f7c-4fad-8438-35b5f0edb3fc"",""projectId"":""a9f3d40c-5730-405c-b25e-1034c4c56f3f""}","https://test12345.live/?num_scrambled_semantic=8&num_scrambled_causal=4&num_scrambled_schematic=4&participantId=9B55B16496F04787B72417D2E7356689&assignmentId=62965e08-0f7c-4fad-8438-35b5f0edb3fc&projectId=a9f3d40c-5730-405c-b25e-1034c4c56f3f","9B55B16496F04787B72417D2E7356689-2025-08-07-18-58-03","","null","","[]","null","",""
"","","","","","image-button-response","84","364900","0.0-12.0-1.0-0.9","9B55B16496F04787B72417D2E7356689","9B55B16496F04787B72417D2E7356689","62965e08-0f7c-4fad-8438-35b5f0edb3fc","a9f3d40c-5730-405c-b25e-1034c4c56f3f","{""num_scrambled_semantic"":""8"",""num_scrambled_causal"":""4"",""num_scrambled_schematic"":""4"",""participantId"":""9B55B16496F04787B72417D2E7356689"",""assignmentId"":""62965e08-0f7c-4fad-8438-35b5f0edb3fc"",""projectId"":""a9f3d40c-5730-405c-b25e-1034c4c56f3f""}","https://test12345.live/?num_scrambled_semantic=8&num_scrambled_causal=4&num_scrambled_schematic=4&participantId=9B55B16496F04787B72417D2E7356689&assignmentId=62965e08-0f7c-4fad-8438-35b5f0edb3fc&projectId=a9f3d40c-5730-405c-b25e-1034c4c56f3f","9B55B16496F04787B72417D2E7356689-2025-08-07-18-58-03","","null","","images/causal_sequence/coin_causal/coin_causal_3.png","null","",""
"","","","","","image-button-response","85","366417","0.0-12.0-1.0-1.9","9B55B16496F04787B72417D2E7356689","9B55B16496F04787B72417D2E7356689","62965e08-0f7c-4fad-8438-35b5f0edb3fc","a9f3d40c-5730-405c-b25e-1034c4c56f3f","{""num_scrambled_semantic"":""8"",""num_scrambled_causal"":""4"",""num_scrambled_schematic"":""4"",""participantId"":""9B55B16496F04787B72417D2E7356689"",""assignmentId"":""62965e08-0f7c-4fad-8438-35b5f0edb3fc"",""projectId"":""a9f3d40c-5730-405c-b25e-1034c4c56f3f""}","https://test12345.live/?num_scrambled_semantic=8&num_scrambled_causal=4&num_scrambled_schematic=4&participantId=9B55B16496F04787B72417D2E7356689&assignmentId=62965e08-0f7c-4fad-8438-35b5f0edb3fc&projectId=a9f3d40c-5730-405c-b25e-1034c4c56f3f","9B55B16496F04787B72417D2E7356689-2025-08-07-18-58-03","","1515","","images/causal_sequence/coin_causal/coin_causal_3.png","0","",""
"","","","","","image-button-response","86","368222","0.0-12.0-1.0-2.9","9B55B16496F04787B72417D2E7356689","9B55B16496F04787B72417D2E7356689","62965e08-0f7c-4fad-8438-35b5f0edb3fc","a9f3d40c-5730-405c-b25e-1034c4c56f3f","{""num_scrambled_semantic"":""8"",""num_scrambled_causal"":""4"",""num_scrambled_schematic"":""4"",""participantId"":""9B55B16496F04787B72417D2E7356689"",""assignmentId"":""62965e08-0f7c-4fad-8438-35b5f0edb3fc"",""projectId"":""a9f3d40c-5730-405c-b25e-1034c4c56f3f""}","https://test12345.live/?num_scrambled_semantic=8&num_scrambled_causal=4&num_scrambled_schematic=4&participantId=9B55B16496F04787B72417D2E7356689&assignmentId=62965e08-0f7c-4fad-8438-35b5f0edb3fc&projectId=a9f3d40c-5730-405c-b25e-1034c4c56f3f","9B55B16496F04787B72417D2E7356689-2025-08-07-18-58-03","","null","","[]","null","",""
"","","","","","html-audio-response","87","404753","0.0-13.0","9B55B16496F04787B72417D2E7356689","9B55B16496F04787B72417D2E7356689","62965e08-0f7c-4fad-8438-35b5f0edb3fc","a9f3d40c-5730-405c-b25e-1034c4c56f3f","{""num_scrambled_semantic"":""8"",""num_scrambled_causal"":""4"",""num_scrambled_schematic"":""4"",""participantId"":""9B55B16496F04787B72417D2E7356689"",""assignmentId"":""62965e08-0f7c-4fad-8438-35b5f0edb3fc"",""projectId"":""a9f3d40c-5730-405c-b25e-1034c4c56f3f""}","https://test12345.live/?num_scrambled_semantic=8&num_scrambled_causal=4&num_scrambled_schematic=4&participantId=9B55B16496F04787B72417D2E7356689&assignmentId=62965e08-0f7c-4fad-8438-35b5f0edb3fc&projectId=a9f3d40c-5730-405c-b25e-1034c4c56f3f","9B55B16496F04787B72417D2E7356689-2025-08-07-18-58-03","","25032","","[""<span style=\""color: red; font-size: 24px\""> NOW RECORDING</span><p>Please say out loud all the images you saw, as many as you can remember. The images can be said in any order.</p>""]","","2","coin_causal"
"","","","","","image-button-response","88","410761","0.0-14.0-0.0","9B55B16496F04787B72417D2E7356689","9B55B16496F04787B72417D2E7356689","62965e08-0f7c-4fad-8438-35b5f0edb3fc","a9f3d40c-5730-405c-b25e-1034c4c56f3f","{""num_scrambled_semantic"":""8"",""num_scrambled_causal"":""4"",""num_scrambled_schematic"":""4"",""participantId"":""9B55B16496F04787B72417D2E7356689"",""assignmentId"":""62965e08-0f7c-4fad-8438-35b5f0edb3fc"",""projectId"":""a9f3d40c-5730-405c-b25e-1034c4c56f3f""}","https://test12345.live/?num_scrambled_semantic=8&num_scrambled_causal=4&num_scrambled_schematic=4&participantId=9B55B16496F04787B72417D2E7356689&assignmentId=62965e08-0f7c-4fad-8438-35b5f0edb3fc&projectId=a9f3d40c-5730-405c-b25e-1034c4c56f3f","9B55B16496F04787B72417D2E7356689-2025-08-07-18-58-03","","null","","images/causal_sequence/dog_causal/dog_causal_0.png","null","",""
"","","","","","image-button-response","89","415264","0.0-14.0-1.0-0.0","9B55B16496F04787B72417D2E7356689","9B55B16496F04787B72417D2E7356689","62965e08-0f7c-4fad-8438-35b5f0edb3fc","a9f3d40c-5730-405c-b25e-1034c4c56f3f","{""num_scrambled_semantic"":""8"",""num_scrambled_causal"":""4"",""num_scrambled_schematic"":""4"",""participantId"":""9B55B16496F04787B72417D2E7356689"",""assignmentId"":""62965e08-0f7c-4fad-8438-35b5f0edb3fc"",""projectId"":""a9f3d40c-5730-405c-b25e-1034c4c56f3f""}","https://test12345.live/?num_scrambled_semantic=8&num_scrambled_causal=4&num_scrambled_schematic=4&participantId=9B55B16496F04787B72417D2E7356689&assignmentId=62965e08-0f7c-4fad-8438-35b5f0edb3fc&projectId=a9f3d40c-5730-405c-b25e-1034c4c56f3f","9B55B16496F04787B72417D2E7356689-2025-08-07-18-58-03","","null","","images/causal_sequence/dog_causal/dog_causal_4.png","null","",""
"","","","","","image-button-response","90","416734","0.0-14.0-1.0-1.0","9B55B16496F04787B72417D2E7356689","9B55B16496F04787B72417D2E7356689","62965e08-0f7c-4fad-8438-35b5f0edb3fc","a9f3d40c-5730-405c-b25e-1034c4c56f3f","{""num_scrambled_semantic"":""8"",""num_scrambled_causal"":""4"",""num_scrambled_schematic"":""4"",""participantId"":""9B55B16496F04787B72417D2E7356689"",""assignmentId"":""62965e08-0f7c-4fad-8438-35b5f0edb3fc"",""projectId"":""a9f3d40c-5730-405c-b25e-1034c4c56f3f""}","https://test12345.live/?num_scrambled_semantic=8&num_scrambled_causal=4&num_scrambled_schematic=4&participantId=9B55B16496F04787B72417D2E7356689&assignmentId=62965e08-0f7c-4fad-8438-35b5f0edb3fc&projectId=a9f3d40c-5730-405c-b25e-1034c4c56f3f","9B55B16496F04787B72417D2E7356689-2025-08-07-18-58-03","","1468","","images/causal_sequence/dog_causal/dog_causal_4.png","0","",""
"","","","","","image-button-response","91","418540","0.0-14.0-1.0-2.0","9B55B16496F04787B72417D2E7356689","9B55B16496F04787B72417D2E7356689","62965e08-0f7c-4fad-8438-35b5f0edb3fc","a9f3d40c-5730-405c-b25e-1034c4c56f3f","{""num_scrambled_semantic"":""8"",""num_scrambled_causal"":""4"",""num_scrambled_schematic"":""4"",""participantId"":""9B55B16496F04787B72417D2E7356689"",""assignmentId"":""62965e08-0f7c-4fad-8438-35b5f0edb3fc"",""projectId"":""a9f3d40c-5730-405c-b25e-1034c4c56f3f""}","https://test12345.live/?num_scrambled_semantic=8&num_scrambled_causal=4&num_scrambled_schematic=4&participantId=9B55B16496F04787B72417D2E7356689&assignmentId=62965e08-0f7c-4fad-8438-35b5f0edb3fc&projectId=a9f3d40c-5730-405c-b25e-1034c4c56f3f","9B55B16496F04787B72417D2E7356689-2025-08-07-18-58-03","","null","","[]","null","",""
"","","","","","image-button-response","92","423043","0.0-14.0-1.0-0.1","9B55B16496F04787B72417D2E7356689","9B55B16496F04787B72417D2E7356689","62965e08-0f7c-4fad-8438-35b5f0edb3fc","a9f3d40c-5730-405c-b25e-1034c4c56f3f","{""num_scrambled_semantic"":""8"",""num_scrambled_causal"":""4"",""num_scrambled_schematic"":""4"",""participantId"":""9B55B16496F04787B72417D2E7356689"",""assignmentId"":""62965e08-0f7c-4fad-8438-35b5f0edb3fc"",""projectId"":""a9f3d40c-5730-405c-b25e-1034c4c56f3f""}","https://test12345.live/?num_scrambled_semantic=8&num_scrambled_causal=4&num_scrambled_schematic=4&participantId=9B55B16496F04787B72417D2E7356689&assignmentId=62965e08-0f7c-4fad-8438-35b5f0edb3fc&projectId=a9f3d40c-5730-405c-b25e-1034c4c56f3f","9B55B16496F04787B72417D2E7356689-2025-08-07-18-58-03","","null","","images/causal_sequence/dog_causal/dog_causal_9.png","null","",""
"","","","","","image-button-response","93","424190","0.0-14.0-1.0-1.1","9B55B16496F04787B72417D2E7356689","9B55B16496F04787B72417D2E7356689","62965e08-0f7c-4fad-8438-35b5f0edb3fc","a9f3d40c-5730-405c-b25e-1034c4c56f3f","{""num_scrambled_semantic"":""8"",""num_scrambled_causal"":""4"",""num_scrambled_schematic"":""4"",""participantId"":""9B55B16496F04787B72417D2E7356689"",""assignmentId"":""62965e08-0f7c-4fad-8438-35b5f0edb3fc"",""projectId"":""a9f3d40c-5730-405c-b25e-1034c4c56f3f""}","https://test12345.live/?num_scrambled_semantic=8&num_scrambled_causal=4&num_scrambled_schematic=4&participantId=9B55B16496F04787B72417D2E7356689&assignmentId=62965e08-0f7c-4fad-8438-35b5f0edb3fc&projectId=a9f3d40c-5730-405c-b25e-1034c4c56f3f","9B55B16496F04787B72417D2E7356689-2025-08-07-18-58-03","","1146","","images/causal_sequence/dog_causal/dog_causal_9.png","0","",""
"","","","","","image-button-response","94","425996","0.0-14.0-1.0-2.1","9B55B16496F04787B72417D2E7356689","9B55B16496F04787B72417D2E7356689","62965e08-0f7c-4fad-8438-35b5f0edb3fc","a9f3d40c-5730-405c-b25e-1034c4c56f3f","{""num_scrambled_semantic"":""8"",""num_scrambled_causal"":""4"",""num_scrambled_schematic"":""4"",""participantId"":""9B55B16496F04787B72417D2E7356689"",""assignmentId"":""62965e08-0f7c-4fad-8438-35b5f0edb3fc"",""projectId"":""a9f3d40c-5730-405c-b25e-1034c4c56f3f""}","https://test12345.live/?num_scrambled_semantic=8&num_scrambled_causal=4&num_scrambled_schematic=4&participantId=9B55B16496F04787B72417D2E7356689&assignmentId=62965e08-0f7c-4fad-8438-35b5f0edb3fc&projectId=a9f3d40c-5730-405c-b25e-1034c4c56f3f","9B55B16496F04787B72417D2E7356689-2025-08-07-18-58-03","","null","","[]","null","",""
"","","","","","image-button-response","95","430499","0.0-14.0-1.0-0.2","9B55B16496F04787B72417D2E7356689","9B55B16496F04787B72417D2E7356689","62965e08-0f7c-4fad-8438-35b5f0edb3fc","a9f3d40c-5730-405c-b25e-1034c4c56f3f","{""num_scrambled_semantic"":""8"",""num_scrambled_causal"":""4"",""num_scrambled_schematic"":""4"",""participantId"":""9B55B16496F04787B72417D2E7356689"",""assignmentId"":""62965e08-0f7c-4fad-8438-35b5f0edb3fc"",""projectId"":""a9f3d40c-5730-405c-b25e-1034c4c56f3f""}","https://test12345.live/?num_scrambled_semantic=8&num_scrambled_causal=4&num_scrambled_schematic=4&participantId=9B55B16496F04787B72417D2E7356689&assignmentId=62965e08-0f7c-4fad-8438-35b5f0edb3fc&projectId=a9f3d40c-5730-405c-b25e-1034c4c56f3f","9B55B16496F04787B72417D2E7356689-2025-08-07-18-58-03","","null","","images/causal_sequence/dog_causal/dog_causal_3.png","null","",""
"","","","","","image-button-response","96","431251","0.0-14.0-1.0-1.2","9B55B16496F04787B72417D2E7356689","9B55B16496F04787B72417D2E7356689","62965e08-0f7c-4fad-8438-35b5f0edb3fc","a9f3d40c-5730-405c-b25e-1034c4c56f3f","{""num_scrambled_semantic"":""8"",""num_scrambled_causal"":""4"",""num_scrambled_schematic"":""4"",""participantId"":""9B55B16496F04787B72417D2E7356689"",""assignmentId"":""62965e08-0f7c-4fad-8438-35b5f0edb3fc"",""projectId"":""a9f3d40c-5730-405c-b25e-1034c4c56f3f""}","https://test12345.live/?num_scrambled_semantic=8&num_scrambled_causal=4&num_scrambled_schematic=4&participantId=9B55B16496F04787B72417D2E7356689&assignmentId=62965e08-0f7c-4fad-8438-35b5f0edb3fc&projectId=a9f3d40c-5730-405c-b25e-1034c4c56f3f","9B55B16496F04787B72417D2E7356689-2025-08-07-18-58-03","","750","","images/causal_sequence/dog_causal/dog_causal_3.png","0","",""
"","","","","","image-button-response","97","433054","0.0-14.0-1.0-2.2","9B55B16496F04787B72417D2E7356689","9B55B16496F04787B72417D2E7356689","62965e08-0f7c-4fad-8438-35b5f0edb3fc","a9f3d40c-5730-405c-b25e-1034c4c56f3f","{""num_scrambled_semantic"":""8"",""num_scrambled_causal"":""4"",""num_scrambled_schematic"":""4"",""participantId"":""9B55B16496F04787B72417D2E7356689"",""assignmentId"":""62965e08-0f7c-4fad-8438-35b5f0edb3fc"",""projectId"":""a9f3d40c-5730-405c-b25e-1034c4c56f3f""}","https://test12345.live/?num_scrambled_semantic=8&num_scrambled_causal=4&num_scrambled_schematic=4&participantId=9B55B16496F04787B72417D2E7356689&assignmentId=62965e08-0f7c-4fad-8438-35b5f0edb3fc&projectId=a9f3d40c-5730-405c-b25e-1034c4c56f3f","9B55B16496F04787B72417D2E7356689-2025-08-07-18-58-03","","null","","[]","null","",""
"","","","","","image-button-response","98","437558","0.0-14.0-1.0-0.3","9B55B16496F04787B72417D2E7356689","9B55B16496F04787B72417D2E7356689","62965e08-0f7c-4fad-8438-35b5f0edb3fc","a9f3d40c-5730-405c-b25e-1034c4c56f3f","{""num_scrambled_semantic"":""8"",""num_scrambled_causal"":""4"",""num_scrambled_schematic"":""4"",""participantId"":""9B55B16496F04787B72417D2E7356689"",""assignmentId"":""62965e08-0f7c-4fad-8438-35b5f0edb3fc"",""projectId"":""a9f3d40c-5730-405c-b25e-1034c4c56f3f""}","https://test12345.live/?num_scrambled_semantic=8&num_scrambled_causal=4&num_scrambled_schematic=4&participantId=9B55B16496F04787B72417D2E7356689&assignmentId=62965e08-0f7c-4fad-8438-35b5f0edb3fc&projectId=a9f3d40c-5730-405c-b25e-1034c4c56f3f","9B55B16496F04787B72417D2E7356689-2025-08-07-18-58-03","","null","","images/causal_sequence/dog_causal/dog_causal_6.png","null","",""
"","","","","","image-button-response","99","438314","0.0-14.0-1.0-1.3","9B55B16496F04787B72417D2E7356689","9B55B16496F04787B72417D2E7356689","62965e08-0f7c-4fad-8438-35b5f0edb3fc","a9f3d40c-5730-405c-b25e-1034c4c56f3f","{""num_scrambled_semantic"":""8"",""num_scrambled_causal"":""4"",""num_scrambled_schematic"":""4"",""participantId"":""9B55B16496F04787B72417D2E7356689"",""assignmentId"":""62965e08-0f7c-4fad-8438-35b5f0edb3fc"",""projectId"":""a9f3d40c-5730-405c-b25e-1034c4c56f3f""}","https://test12345.live/?num_scrambled_semantic=8&num_scrambled_causal=4&num_scrambled_schematic=4&participantId=9B55B16496F04787B72417D2E7356689&assignmentId=62965e08-0f7c-4fad-8438-35b5f0edb3fc&projectId=a9f3d40c-5730-405c-b25e-1034c4c56f3f","9B55B16496F04787B72417D2E7356689-2025-08-07-18-58-03","","754","","images/causal_sequence/dog_causal/dog_causal_6.png","0","",""
"","","","","","image-button-response","100","440116","0.0-14.0-1.0-2.3","9B55B16496F04787B72417D2E7356689","9B55B16496F04787B72417D2E7356689","62965e08-0f7c-4fad-8438-35b5f0edb3fc","a9f3d40c-5730-405c-b25e-1034c4c56f3f","{""num_scrambled_semantic"":""8"",""num_scrambled_causal"":""4"",""num_scrambled_schematic"":""4"",""participantId"":""9B55B16496F04787B72417D2E7356689"",""assignmentId"":""62965e08-0f7c-4fad-8438-35b5f0edb3fc"",""projectId"":""a9f3d40c-5730-405c-b25e-1034c4c56f3f""}","https://test12345.live/?num_scrambled_semantic=8&num_scrambled_causal=4&num_scrambled_schematic=4&participantId=9B55B16496F04787B72417D2E7356689&assignmentId=62965e08-0f7c-4fad-8438-35b5f0edb3fc&projectId=a9f3d40c-5730-405c-b25e-1034c4c56f3f","9B55B16496F04787B72417D2E7356689-2025-08-07-18-58-03","","null","","[]","null","",""
"","","","","","image-button-response","101","444620","0.0-14.0-1.0-0.4","9B55B16496F04787B72417D2E7356689","9B55B16496F04787B72417D2E7356689","62965e08-0f7c-4fad-8438-35b5f0edb3fc","a9f3d40c-5730-405c-b25e-1034c4c56f3f","{""num_scrambled_semantic"":""8"",""num_scrambled_causal"":""4"",""num_scrambled_schematic"":""4"",""participantId"":""9B55B16496F04787B72417D2E7356689"",""assignmentId"":""62965e08-0f7c-4fad-8438-35b5f0edb3fc"",""projectId"":""a9f3d40c-5730-405c-b25e-1034c4c56f3f""}","https://test12345.live/?num_scrambled_semantic=8&num_scrambled_causal=4&num_scrambled_schematic=4&participantId=9B55B16496F04787B72417D2E7356689&assignmentId=62965e08-0f7c-4fad-8438-35b5f0edb3fc&projectId=a9f3d40c-5730-405c-b25e-1034c4c56f3f","9B55B16496F04787B72417D2E7356689-2025-08-07-18-58-03","","null","","images/causal_sequence/dog_causal/dog_causal_7.png","null","",""
"","","","","","image-button-response","102","445509","0.0-14.0-1.0-1.4","9B55B16496F04787B72417D2E7356689","9B55B16496F04787B72417D2E7356689","62965e08-0f7c-4fad-8438-35b5f0edb3fc","a9f3d40c-5730-405c-b25e-1034c4c56f3f","{""num_scrambled_semantic"":""8"",""num_scrambled_causal"":""4"",""num_scrambled_schematic"":""4"",""participantId"":""9B55B16496F04787B72417D2E7356689"",""assignmentId"":""62965e08-0f7c-4fad-8438-35b5f0edb3fc"",""projectId"":""a9f3d40c-5730-405c-b25e-1034c4c56f3f""}","https://test12345.live/?num_scrambled_semantic=8&num_scrambled_causal=4&num_scrambled_schematic=4&participantId=9B55B16496F04787B72417D2E7356689&assignmentId=62965e08-0f7c-4fad-8438-35b5f0edb3fc&projectId=a9f3d40c-5730-405c-b25e-1034c4c56f3f","9B55B16496F04787B72417D2E7356689-2025-08-07-18-58-03","","888","","images/causal_sequence/dog_causal/dog_causal_7.png","0","",""
"","","","","","image-button-response","103","447312","0.0-14.0-1.0-2.4","9B55B16496F04787B72417D2E7356689","9B55B16496F04787B72417D2E7356689","62965e08-0f7c-4fad-8438-35b5f0edb3fc","a9f3d40c-5730-405c-b25e-1034c4c56f3f","{""num_scrambled_semantic"":""8"",""num_scrambled_causal"":""4"",""num_scrambled_schematic"":""4"",""participantId"":""9B55B16496F04787B72417D2E7356689"",""assignmentId"":""62965e08-0f7c-4fad-8438-35b5f0edb3fc"",""projectId"":""a9f3d40c-5730-405c-b25e-1034c4c56f3f""}","https://test12345.live/?num_scrambled_semantic=8&num_scrambled_causal=4&num_scrambled_schematic=4&participantId=9B55B16496F04787B72417D2E7356689&assignmentId=62965e08-0f7c-4fad-8438-35b5f0edb3fc&projectId=a9f3d40c-5730-405c-b25e-1034c4c56f3f","9B55B16496F04787B72417D2E7356689-2025-08-07-18-58-03","","null","","[]","null","",""
"","","","","","image-button-response","104","451817","0.0-14.0-1.0-0.5","9B55B16496F04787B72417D2E7356689","9B55B16496F04787B72417D2E7356689","62965e08-0f7c-4fad-8438-35b5f0edb3fc","a9f3d40c-5730-405c-b25e-1034c4c56f3f","{""num_scrambled_semantic"":""8"",""num_scrambled_causal"":""4"",""num_scrambled_schematic"":""4"",""participantId"":""9B55B16496F04787B72417D2E7356689"",""assignmentId"":""62965e08-0f7c-4fad-8438-35b5f0edb3fc"",""projectId"":""a9f3d40c-5730-405c-b25e-1034c4c56f3f""}","https://test12345.live/?num_scrambled_semantic=8&num_scrambled_causal=4&num_scrambled_schematic=4&participantId=9B55B16496F04787B72417D2E7356689&assignmentId=62965e08-0f7c-4fad-8438-35b5f0edb3fc&projectId=a9f3d40c-5730-405c-b25e-1034c4c56f3f","9B55B16496F04787B72417D2E7356689-2025-08-07-18-58-03","","null","","images/causal_sequence/dog_causal/dog_causal_1.png","null","",""
"","","","","","image-button-response","105","452593","0.0-14.0-1.0-1.5","9B55B16496F04787B72417D2E7356689","9B55B16496F04787B72417D2E7356689","62965e08-0f7c-4fad-8438-35b5f0edb3fc","a9f3d40c-5730-405c-b25e-1034c4c56f3f","{""num_scrambled_semantic"":""8"",""num_scrambled_causal"":""4"",""num_scrambled_schematic"":""4"",""participantId"":""9B55B16496F04787B72417D2E7356689"",""assignmentId"":""62965e08-0f7c-4fad-8438-35b5f0edb3fc"",""projectId"":""a9f3d40c-5730-405c-b25e-1034c4c56f3f""}","https://test12345.live/?num_scrambled_semantic=8&num_scrambled_causal=4&num_scrambled_schematic=4&participantId=9B55B16496F04787B72417D2E7356689&assignmentId=62965e08-0f7c-4fad-8438-35b5f0edb3fc&projectId=a9f3d40c-5730-405c-b25e-1034c4c56f3f","9B55B16496F04787B72417D2E7356689-2025-08-07-18-58-03","","774","","images/causal_sequence/dog_causal/dog_causal_1.png","0","",""
"","","","","","image-button-response","106","454399","0.0-14.0-1.0-2.5","9B55B16496F04787B72417D2E7356689","9B55B16496F04787B72417D2E7356689","62965e08-0f7c-4fad-8438-35b5f0edb3fc","a9f3d40c-5730-405c-b25e-1034c4c56f3f","{""num_scrambled_semantic"":""8"",""num_scrambled_causal"":""4"",""num_scrambled_schematic"":""4"",""participantId"":""9B55B16496F04787B72417D2E7356689"",""assignmentId"":""62965e08-0f7c-4fad-8438-35b5f0edb3fc"",""projectId"":""a9f3d40c-5730-405c-b25e-1034c4c56f3f""}","https://test12345.live/?num_scrambled_semantic=8&num_scrambled_causal=4&num_scrambled_schematic=4&participantId=9B55B16496F04787B72417D2E7356689&assignmentId=62965e08-0f7c-4fad-8438-35b5f0edb3fc&projectId=a9f3d40c-5730-405c-b25e-1034c4c56f3f","9B55B16496F04787B72417D2E7356689-2025-08-07-18-58-03","","null","","[]","null","",""
"","","","","","image-button-response","107","458905","0.0-14.0-1.0-0.6","9B55B16496F04787B72417D2E7356689","9B55B16496F04787B72417D2E7356689","62965e08-0f7c-4fad-8438-35b5f0edb3fc","a9f3d40c-5730-405c-b25e-1034c4c56f3f","{""num_scrambled_semantic"":""8"",""num_scrambled_causal"":""4"",""num_scrambled_schematic"":""4"",""participantId"":""9B55B16496F04787B72417D2E7356689"",""assignmentId"":""62965e08-0f7c-4fad-8438-35b5f0edb3fc"",""projectId"":""a9f3d40c-5730-405c-b25e-1034c4c56f3f""}","https://test12345.live/?num_scrambled_semantic=8&num_scrambled_causal=4&num_scrambled_schematic=4&participantId=9B55B16496F04787B72417D2E7356689&assignmentId=62965e08-0f7c-4fad-8438-35b5f0edb3fc&projectId=a9f3d40c-5730-405c-b25e-1034c4c56f3f","9B55B16496F04787B72417D2E7356689-2025-08-07-18-58-03","","null","","images/causal_sequence/dog_causal/dog_causal_5.png","null","",""
"","","","","","image-button-response","108","459549","0.0-14.0-1.0-1.6","9B55B16496F04787B72417D2E7356689","9B55B16496F04787B72417D2E7356689","62965e08-0f7c-4fad-8438-35b5f0edb3fc","a9f3d40c-5730-405c-b25e-1034c4c56f3f","{""num_scrambled_semantic"":""8"",""num_scrambled_causal"":""4"",""num_scrambled_schematic"":""4"",""participantId"":""9B55B16496F04787B72417D2E7356689"",""assignmentId"":""62965e08-0f7c-4fad-8438-35b5f0edb3fc"",""projectId"":""a9f3d40c-5730-405c-b25e-1034c4c56f3f""}","https://test12345.live/?num_scrambled_semantic=8&num_scrambled_causal=4&num_scrambled_schematic=4&participantId=9B55B16496F04787B72417D2E7356689&assignmentId=62965e08-0f7c-4fad-8438-35b5f0edb3fc&projectId=a9f3d40c-5730-405c-b25e-1034c4c56f3f","9B55B16496F04787B72417D2E7356689-2025-08-07-18-58-03","","642","","images/causal_sequence/dog_causal/dog_causal_5.png","0","",""
"","","","","","image-button-response","109","461351","0.0-14.0-1.0-2.6","9B55B16496F04787B72417D2E7356689","9B55B16496F04787B72417D2E7356689","62965e08-0f7c-4fad-8438-35b5f0edb3fc","a9f3d40c-5730-405c-b25e-1034c4c56f3f","{""num_scrambled_semantic"":""8"",""num_scrambled_causal"":""4"",""num_scrambled_schematic"":""4"",""participantId"":""9B55B16496F04787B72417D2E7356689"",""assignmentId"":""62965e08-0f7c-4fad-8438-35b5f0edb3fc"",""projectId"":""a9f3d40c-5730-405c-b25e-1034c4c56f3f""}","https://test12345.live/?num_scrambled_semantic=8&num_scrambled_causal=4&num_scrambled_schematic=4&participantId=9B55B16496F04787B72417D2E7356689&assignmentId=62965e08-0f7c-4fad-8438-35b5f0edb3fc&projectId=a9f3d40c-5730-405c-b25e-1034c4c56f3f","9B55B16496F04787B72417D2E7356689-2025-08-07-18-58-03","","null","","[]","null","",""
"","","","","","image-button-response","110","465858","0.0-14.0-1.0-0.7","9B55B16496F04787B72417D2E7356689","9B55B16496F04787B72417D2E7356689","62965e08-0f7c-4fad-8438-35b5f0edb3fc","a9f3d40c-5730-405c-b25e-1034c4c56f3f","{""num_scrambled_semantic"":""8"",""num_scrambled_causal"":""4"",""num_scrambled_schematic"":""4"",""participantId"":""9B55B16496F04787B72417D2E7356689"",""assignmentId"":""62965e08-0f7c-4fad-8438-35b5f0edb3fc"",""projectId"":""a9f3d40c-5730-405c-b25e-1034c4c56f3f""}","https://test12345.live/?num_scrambled_semantic=8&num_scrambled_causal=4&num_scrambled_schematic=4&participantId=9B55B16496F04787B72417D2E7356689&assignmentId=62965e08-0f7c-4fad-8438-35b5f0edb3fc&projectId=a9f3d40c-5730-405c-b25e-1034c4c56f3f","9B55B16496F04787B72417D2E7356689-2025-08-07-18-58-03","","null","","images/causal_sequence/dog_causal/dog_causal_2.png","null","",""
"","","","","","image-button-response","111","466931","0.0-14.0-1.0-1.7","9B55B16496F04787B72417D2E7356689","9B55B16496F04787B72417D2E7356689","62965e08-0f7c-4fad-8438-35b5f0edb3fc","a9f3d40c-5730-405c-b25e-1034c4c56f3f","{""num_scrambled_semantic"":""8"",""num_scrambled_causal"":""4"",""num_scrambled_schematic"":""4"",""participantId"":""9B55B16496F04787B72417D2E7356689"",""assignmentId"":""62965e08-0f7c-4fad-8438-35b5f0edb3fc"",""projectId"":""a9f3d40c-5730-405c-b25e-1034c4c56f3f""}","https://test12345.live/?num_scrambled_semantic=8&num_scrambled_causal=4&num_scrambled_schematic=4&participantId=9B55B16496F04787B72417D2E7356689&assignmentId=62965e08-0f7c-4fad-8438-35b5f0edb3fc&projectId=a9f3d40c-5730-405c-b25e-1034c4c56f3f","9B55B16496F04787B72417D2E7356689-2025-08-07-18-58-03","","1071","","images/causal_sequence/dog_causal/dog_causal_2.png","0","",""
"","","","","","image-button-response","112","468738","0.0-14.0-1.0-2.7","9B55B16496F04787B72417D2E7356689","9B55B16496F04787B72417D2E7356689","62965e08-0f7c-4fad-8438-35b5f0edb3fc","a9f3d40c-5730-405c-b25e-1034c4c56f3f","{""num_scrambled_semantic"":""8"",""num_scrambled_causal"":""4"",""num_scrambled_schematic"":""4"",""participantId"":""9B55B16496F04787B72417D2E7356689"",""assignmentId"":""62965e08-0f7c-4fad-8438-35b5f0edb3fc"",""projectId"":""a9f3d40c-5730-405c-b25e-1034c4c56f3f""}","https://test12345.live/?num_scrambled_semantic=8&num_scrambled_causal=4&num_scrambled_schematic=4&participantId=9B55B16496F04787B72417D2E7356689&assignmentId=62965e08-0f7c-4fad-8438-35b5f0edb3fc&projectId=a9f3d40c-5730-405c-b25e-1034c4c56f3f","9B55B16496F04787B72417D2E7356689-2025-08-07-18-58-03","","null","","[]","null","",""
"","","","","","image-button-response","113","473245","0.0-14.0-1.0-0.8","9B55B16496F04787B72417D2E7356689","9B55B16496F04787B72417D2E7356689","62965e08-0f7c-4fad-8438-35b5f0edb3fc","a9f3d40c-5730-405c-b25e-1034c4c56f3f","{""num_scrambled_semantic"":""8"",""num_scrambled_causal"":""4"",""num_scrambled_schematic"":""4"",""participantId"":""9B55B16496F04787B72417D2E7356689"",""assignmentId"":""62965e08-0f7c-4fad-8438-35b5f0edb3fc"",""projectId"":""a9f3d40c-5730-405c-b25e-1034c4c56f3f""}","https://test12345.live/?num_scrambled_semantic=8&num_scrambled_causal=4&num_scrambled_schematic=4&participantId=9B55B16496F04787B72417D2E7356689&assignmentId=62965e08-0f7c-4fad-8438-35b5f0edb3fc&projectId=a9f3d40c-5730-405c-b25e-1034c4c56f3f","9B55B16496F04787B72417D2E7356689-2025-08-07-18-58-03","","null","","images/causal_sequence/dog_causal/dog_causal_8.png","null","",""
"","","","","","image-button-response","114","475731","0.0-14.0-1.0-1.8","9B55B16496F04787B72417D2E7356689","9B55B16496F04787B72417D2E7356689","62965e08-0f7c-4fad-8438-35b5f0edb3fc","a9f3d40c-5730-405c-b25e-1034c4c56f3f","{""num_scrambled_semantic"":""8"",""num_scrambled_causal"":""4"",""num_scrambled_schematic"":""4"",""participantId"":""9B55B16496F04787B72417D2E7356689"",""assignmentId"":""62965e08-0f7c-4fad-8438-35b5f0edb3fc"",""projectId"":""a9f3d40c-5730-405c-b25e-1034c4c56f3f""}","https://test12345.live/?num_scrambled_semantic=8&num_scrambled_causal=4&num_scrambled_schematic=4&participantId=9B55B16496F04787B72417D2E7356689&assignmentId=62965e08-0f7c-4fad-8438-35b5f0edb3fc&projectId=a9f3d40c-5730-405c-b25e-1034c4c56f3f","9B55B16496F04787B72417D2E7356689-2025-08-07-18-58-03","","2484","","images/causal_sequence/dog_causal/dog_causal_8.png","0","",""
"","","","","","image-button-response","115","477535","0.0-14.0-1.0-2.8","9B55B16496F04787B72417D2E7356689","9B55B16496F04787B72417D2E7356689","62965e08-0f7c-4fad-8438-35b5f0edb3fc","a9f3d40c-5730-405c-b25e-1034c4c56f3f","{""num_scrambled_semantic"":""8"",""num_scrambled_causal"":""4"",""num_scrambled_schematic"":""4"",""participantId"":""9B55B16496F04787B72417D2E7356689"",""assignmentId"":""62965e08-0f7c-4fad-8438-35b5f0edb3fc"",""projectId"":""a9f3d40c-5730-405c-b25e-1034c4c56f3f""}","https://test12345.live/?num_scrambled_semantic=8&num_scrambled_causal=4&num_scrambled_schematic=4&participantId=9B55B16496F04787B72417D2E7356689&assignmentId=62965e08-0f7c-4fad-8438-35b5f0edb3fc&projectId=a9f3d40c-5730-405c-b25e-1034c4c56f3f","9B55B16496F04787B72417D2E7356689-2025-08-07-18-58-03","","null","","[]","null","",""
