"success","timeout","failed_images","failed_audio","failed_video","trial_type","trial_index","time_elapsed","internal_node_id","subject","subject_id","study_id","session_id","urlvar","current_url","audio_id","view_history","rt","device_id","stimulus","response","estimated_stimulus_onset","seq_name"
"true","false","[]","[]","[]","preload","0","14002","0.0-0.0","9B9A0B39821046F8B13EF2DEFE3035EE","9B9A0B39821046F8B13EF2DEFE3035EE","54e0fc9d-e2b5-4525-8146-7d16b2f5cf30","051c06f1-75cc-4548-856d-4923ddaba0dc","{""num_scrambled_semantic"":""8"",""num_scrambled_causal"":""4"",""num_scrambled_schematic"":""4"",""participantId"":""9B9A0B39821046F8B13EF2DEFE3035EE"",""assignmentId"":""54e0fc9d-e2b5-4525-8146-7d16b2f5cf30"",""projectId"":""051c06f1-75cc-4548-856d-4923ddaba0dc""}","https://test12345.live/?num_scrambled_semantic=8&num_scrambled_causal=4&num_scrambled_schematic=4&participantId=9B9A0B39821046F8B13EF2DEFE3035EE&assignmentId=54e0fc9d-e2b5-4525-8146-7d16b2f5cf30&projectId=051c06f1-75cc-4548-856d-4923ddaba0dc","9B9A0B39821046F8B13EF2DEFE3035EE-2025-05-15-19-23-52","","","","","","",""
"","","","","","instructions","1","37609","0.0-1.0","9B9A0B39821046F8B13EF2DEFE3035EE","9B9A0B39821046F8B13EF2DEFE3035EE","54e0fc9d-e2b5-4525-8146-7d16b2f5cf30","051c06f1-75cc-4548-856d-4923ddaba0dc","{""num_scrambled_semantic"":""8"",""num_scrambled_causal"":""4"",""num_scrambled_schematic"":""4"",""participantId"":""9B9A0B39821046F8B13EF2DEFE3035EE"",""assignmentId"":""54e0fc9d-e2b5-4525-8146-7d16b2f5cf30"",""projectId"":""051c06f1-75cc-4548-856d-4923ddaba0dc""}","https://test12345.live/?num_scrambled_semantic=8&num_scrambled_causal=4&num_scrambled_schematic=4&participantId=9B9A0B39821046F8B13EF2DEFE3035EE&assignmentId=54e0fc9d-e2b5-4525-8146-7d16b2f5cf30&projectId=051c06f1-75cc-4548-856d-4923ddaba0dc","9B9A0B39821046F8B13EF2DEFE3035EE-2025-05-15-19-23-52","[{""page_index"":0,""viewing_time"":23606}]","23607","","","","",""
"","","","","","instructions","2","54361","0.0-2.0","9B9A0B39821046F8B13EF2DEFE3035EE","9B9A0B39821046F8B13EF2DEFE3035EE","54e0fc9d-e2b5-4525-8146-7d16b2f5cf30","051c06f1-75cc-4548-856d-4923ddaba0dc","{""num_scrambled_semantic"":""8"",""num_scrambled_causal"":""4"",""num_scrambled_schematic"":""4"",""participantId"":""9B9A0B39821046F8B13EF2DEFE3035EE"",""assignmentId"":""54e0fc9d-e2b5-4525-8146-7d16b2f5cf30"",""projectId"":""051c06f1-75cc-4548-856d-4923ddaba0dc""}","https://test12345.live/?num_scrambled_semantic=8&num_scrambled_causal=4&num_scrambled_schematic=4&participantId=9B9A0B39821046F8B13EF2DEFE3035EE&assignmentId=54e0fc9d-e2b5-4525-8146-7d16b2f5cf30&projectId=051c06f1-75cc-4548-856d-4923ddaba0dc","9B9A0B39821046F8B13EF2DEFE3035EE-2025-05-15-19-23-52","[{""page_index"":0,""viewing_time"":16750}]","16751","","","","",""
"true","","","","","fullscreen","3","57777","0.0-3.0","9B9A0B39821046F8B13EF2DEFE3035EE","9B9A0B39821046F8B13EF2DEFE3035EE","54e0fc9d-e2b5-4525-8146-7d16b2f5cf30","051c06f1-75cc-4548-856d-4923ddaba0dc","{""num_scrambled_semantic"":""8"",""num_scrambled_causal"":""4"",""num_scrambled_schematic"":""4"",""participantId"":""9B9A0B39821046F8B13EF2DEFE3035EE"",""assignmentId"":""54e0fc9d-e2b5-4525-8146-7d16b2f5cf30"",""projectId"":""051c06f1-75cc-4548-856d-4923ddaba0dc""}","https://test12345.live/?num_scrambled_semantic=8&num_scrambled_causal=4&num_scrambled_schematic=4&participantId=9B9A0B39821046F8B13EF2DEFE3035EE&assignmentId=54e0fc9d-e2b5-4525-8146-7d16b2f5cf30&projectId=051c06f1-75cc-4548-856d-4923ddaba0dc","9B9A0B39821046F8B13EF2DEFE3035EE-2025-05-15-19-23-52","","2390","","","","",""
"","","","","","initialize-microphone","4","67750","0.0-4.0-0.0","9B9A0B39821046F8B13EF2DEFE3035EE","9B9A0B39821046F8B13EF2DEFE3035EE","54e0fc9d-e2b5-4525-8146-7d16b2f5cf30","051c06f1-75cc-4548-856d-4923ddaba0dc","{""num_scrambled_semantic"":""8"",""num_scrambled_causal"":""4"",""num_scrambled_schematic"":""4"",""participantId"":""9B9A0B39821046F8B13EF2DEFE3035EE"",""assignmentId"":""54e0fc9d-e2b5-4525-8146-7d16b2f5cf30"",""projectId"":""051c06f1-75cc-4548-856d-4923ddaba0dc""}","https://test12345.live/?num_scrambled_semantic=8&num_scrambled_causal=4&num_scrambled_schematic=4&participantId=9B9A0B39821046F8B13EF2DEFE3035EE&assignmentId=54e0fc9d-e2b5-4525-8146-7d16b2f5cf30&projectId=051c06f1-75cc-4548-856d-4923ddaba0dc","9B9A0B39821046F8B13EF2DEFE3035EE-2025-05-15-19-23-52","","","4f63226e15023b6dc47c9edf37336f2bcaab902abdad8a7f570eddd8f23369ed","","","",""
"","","","","","html-audio-response","5","87049","0.0-4.0-1.0","9B9A0B39821046F8B13EF2DEFE3035EE","9B9A0B39821046F8B13EF2DEFE3035EE","54e0fc9d-e2b5-4525-8146-7d16b2f5cf30","051c06f1-75cc-4548-856d-4923ddaba0dc","{""num_scrambled_semantic"":""8"",""num_scrambled_causal"":""4"",""num_scrambled_schematic"":""4"",""participantId"":""9B9A0B39821046F8B13EF2DEFE3035EE"",""assignmentId"":""54e0fc9d-e2b5-4525-8146-7d16b2f5cf30"",""projectId"":""051c06f1-75cc-4548-856d-4923ddaba0dc""}","https://test12345.live/?num_scrambled_semantic=8&num_scrambled_causal=4&num_scrambled_schematic=4&participantId=9B9A0B39821046F8B13EF2DEFE3035EE&assignmentId=54e0fc9d-e2b5-4525-8146-7d16b2f5cf30&projectId=051c06f1-75cc-4548-856d-4923ddaba0dc","9B9A0B39821046F8B13EF2DEFE3035EE-2025-05-15-19-23-52","","10225","","<span style=""color: red; font-size: 24px""> NOW RECORDING</span>
        <p>Please test Microphone</p>","","6",""
"","","","","","html-button-response","6","88761","0.0-4.0-2.0","9B9A0B39821046F8B13EF2DEFE3035EE","9B9A0B39821046F8B13EF2DEFE3035EE","54e0fc9d-e2b5-4525-8146-7d16b2f5cf30","051c06f1-75cc-4548-856d-4923ddaba0dc","{""num_scrambled_semantic"":""8"",""num_scrambled_causal"":""4"",""num_scrambled_schematic"":""4"",""participantId"":""9B9A0B39821046F8B13EF2DEFE3035EE"",""assignmentId"":""54e0fc9d-e2b5-4525-8146-7d16b2f5cf30"",""projectId"":""051c06f1-75cc-4548-856d-4923ddaba0dc""}","https://test12345.live/?num_scrambled_semantic=8&num_scrambled_causal=4&num_scrambled_schematic=4&participantId=9B9A0B39821046F8B13EF2DEFE3035EE&assignmentId=54e0fc9d-e2b5-4525-8146-7d16b2f5cf30&projectId=051c06f1-75cc-4548-856d-4923ddaba0dc","9B9A0B39821046F8B13EF2DEFE3035EE-2025-05-15-19-23-52","","1710","","<p style=""font-size:48px; color:red;"">Is Microphone OK?</p>","1","",""
"","","","","","instructions","7","101800","0.0-5.0","9B9A0B39821046F8B13EF2DEFE3035EE","9B9A0B39821046F8B13EF2DEFE3035EE","54e0fc9d-e2b5-4525-8146-7d16b2f5cf30","051c06f1-75cc-4548-856d-4923ddaba0dc","{""num_scrambled_semantic"":""8"",""num_scrambled_causal"":""4"",""num_scrambled_schematic"":""4"",""participantId"":""9B9A0B39821046F8B13EF2DEFE3035EE"",""assignmentId"":""54e0fc9d-e2b5-4525-8146-7d16b2f5cf30"",""projectId"":""051c06f1-75cc-4548-856d-4923ddaba0dc""}","https://test12345.live/?num_scrambled_semantic=8&num_scrambled_causal=4&num_scrambled_schematic=4&participantId=9B9A0B39821046F8B13EF2DEFE3035EE&assignmentId=54e0fc9d-e2b5-4525-8146-7d16b2f5cf30&projectId=051c06f1-75cc-4548-856d-4923ddaba0dc","9B9A0B39821046F8B13EF2DEFE3035EE-2025-05-15-19-23-52","[{""page_index"":0,""viewing_time"":6990},{""page_index"":1,""viewing_time"":6048}]","13038","","","","",""
"","","","","","image-button-response","8","107818","0.0-6.0-0.0","9B9A0B39821046F8B13EF2DEFE3035EE","9B9A0B39821046F8B13EF2DEFE3035EE","54e0fc9d-e2b5-4525-8146-7d16b2f5cf30","051c06f1-75cc-4548-856d-4923ddaba0dc","{""num_scrambled_semantic"":""8"",""num_scrambled_causal"":""4"",""num_scrambled_schematic"":""4"",""participantId"":""9B9A0B39821046F8B13EF2DEFE3035EE"",""assignmentId"":""54e0fc9d-e2b5-4525-8146-7d16b2f5cf30"",""projectId"":""051c06f1-75cc-4548-856d-4923ddaba0dc""}","https://test12345.live/?num_scrambled_semantic=8&num_scrambled_causal=4&num_scrambled_schematic=4&participantId=9B9A0B39821046F8B13EF2DEFE3035EE&assignmentId=54e0fc9d-e2b5-4525-8146-7d16b2f5cf30&projectId=051c06f1-75cc-4548-856d-4923ddaba0dc","9B9A0B39821046F8B13EF2DEFE3035EE-2025-05-15-19-23-52","","null","","images/instructions/movie_0.png","null","",""
"","","","","","image-button-response","9","112338","0.0-6.0-1.0-0.0","9B9A0B39821046F8B13EF2DEFE3035EE","9B9A0B39821046F8B13EF2DEFE3035EE","54e0fc9d-e2b5-4525-8146-7d16b2f5cf30","051c06f1-75cc-4548-856d-4923ddaba0dc","{""num_scrambled_semantic"":""8"",""num_scrambled_causal"":""4"",""num_scrambled_schematic"":""4"",""participantId"":""9B9A0B39821046F8B13EF2DEFE3035EE"",""assignmentId"":""54e0fc9d-e2b5-4525-8146-7d16b2f5cf30"",""projectId"":""051c06f1-75cc-4548-856d-4923ddaba0dc""}","https://test12345.live/?num_scrambled_semantic=8&num_scrambled_causal=4&num_scrambled_schematic=4&participantId=9B9A0B39821046F8B13EF2DEFE3035EE&assignmentId=54e0fc9d-e2b5-4525-8146-7d16b2f5cf30&projectId=051c06f1-75cc-4548-856d-4923ddaba0dc","9B9A0B39821046F8B13EF2DEFE3035EE-2025-05-15-19-23-52","","null","","images/instructions/movie_1.png","null","",""
"","","","","","image-button-response","10","114585","0.0-6.0-1.0-1.0","9B9A0B39821046F8B13EF2DEFE3035EE","9B9A0B39821046F8B13EF2DEFE3035EE","54e0fc9d-e2b5-4525-8146-7d16b2f5cf30","051c06f1-75cc-4548-856d-4923ddaba0dc","{""num_scrambled_semantic"":""8"",""num_scrambled_causal"":""4"",""num_scrambled_schematic"":""4"",""participantId"":""9B9A0B39821046F8B13EF2DEFE3035EE"",""assignmentId"":""54e0fc9d-e2b5-4525-8146-7d16b2f5cf30"",""projectId"":""051c06f1-75cc-4548-856d-4923ddaba0dc""}","https://test12345.live/?num_scrambled_semantic=8&num_scrambled_causal=4&num_scrambled_schematic=4&participantId=9B9A0B39821046F8B13EF2DEFE3035EE&assignmentId=54e0fc9d-e2b5-4525-8146-7d16b2f5cf30&projectId=051c06f1-75cc-4548-856d-4923ddaba0dc","9B9A0B39821046F8B13EF2DEFE3035EE-2025-05-15-19-23-52","","2245","","images/instructions/movie_1.png","0","",""
"","","","","","image-button-response","11","116388","0.0-6.0-1.0-2.0","9B9A0B39821046F8B13EF2DEFE3035EE","9B9A0B39821046F8B13EF2DEFE3035EE","54e0fc9d-e2b5-4525-8146-7d16b2f5cf30","051c06f1-75cc-4548-856d-4923ddaba0dc","{""num_scrambled_semantic"":""8"",""num_scrambled_causal"":""4"",""num_scrambled_schematic"":""4"",""participantId"":""9B9A0B39821046F8B13EF2DEFE3035EE"",""assignmentId"":""54e0fc9d-e2b5-4525-8146-7d16b2f5cf30"",""projectId"":""051c06f1-75cc-4548-856d-4923ddaba0dc""}","https://test12345.live/?num_scrambled_semantic=8&num_scrambled_causal=4&num_scrambled_schematic=4&participantId=9B9A0B39821046F8B13EF2DEFE3035EE&assignmentId=54e0fc9d-e2b5-4525-8146-7d16b2f5cf30&projectId=051c06f1-75cc-4548-856d-4923ddaba0dc","9B9A0B39821046F8B13EF2DEFE3035EE-2025-05-15-19-23-52","","null","","[]","null","",""
"","","","","","image-button-response","12","120890","0.0-6.0-1.0-0.1","9B9A0B39821046F8B13EF2DEFE3035EE","9B9A0B39821046F8B13EF2DEFE3035EE","54e0fc9d-e2b5-4525-8146-7d16b2f5cf30","051c06f1-75cc-4548-856d-4923ddaba0dc","{""num_scrambled_semantic"":""8"",""num_scrambled_causal"":""4"",""num_scrambled_schematic"":""4"",""participantId"":""9B9A0B39821046F8B13EF2DEFE3035EE"",""assignmentId"":""54e0fc9d-e2b5-4525-8146-7d16b2f5cf30"",""projectId"":""051c06f1-75cc-4548-856d-4923ddaba0dc""}","https://test12345.live/?num_scrambled_semantic=8&num_scrambled_causal=4&num_scrambled_schematic=4&participantId=9B9A0B39821046F8B13EF2DEFE3035EE&assignmentId=54e0fc9d-e2b5-4525-8146-7d16b2f5cf30&projectId=051c06f1-75cc-4548-856d-4923ddaba0dc","9B9A0B39821046F8B13EF2DEFE3035EE-2025-05-15-19-23-52","","null","","images/instructions/movie_2.png","null","",""
"","","","","","image-button-response","13","122664","0.0-6.0-1.0-1.1","9B9A0B39821046F8B13EF2DEFE3035EE","9B9A0B39821046F8B13EF2DEFE3035EE","54e0fc9d-e2b5-4525-8146-7d16b2f5cf30","051c06f1-75cc-4548-856d-4923ddaba0dc","{""num_scrambled_semantic"":""8"",""num_scrambled_causal"":""4"",""num_scrambled_schematic"":""4"",""participantId"":""9B9A0B39821046F8B13EF2DEFE3035EE"",""assignmentId"":""54e0fc9d-e2b5-4525-8146-7d16b2f5cf30"",""projectId"":""051c06f1-75cc-4548-856d-4923ddaba0dc""}","https://test12345.live/?num_scrambled_semantic=8&num_scrambled_causal=4&num_scrambled_schematic=4&participantId=9B9A0B39821046F8B13EF2DEFE3035EE&assignmentId=54e0fc9d-e2b5-4525-8146-7d16b2f5cf30&projectId=051c06f1-75cc-4548-856d-4923ddaba0dc","9B9A0B39821046F8B13EF2DEFE3035EE-2025-05-15-19-23-52","","1773","","images/instructions/movie_2.png","0","",""
"","","","","","image-button-response","14","124473","0.0-6.0-1.0-2.1","9B9A0B39821046F8B13EF2DEFE3035EE","9B9A0B39821046F8B13EF2DEFE3035EE","54e0fc9d-e2b5-4525-8146-7d16b2f5cf30","051c06f1-75cc-4548-856d-4923ddaba0dc","{""num_scrambled_semantic"":""8"",""num_scrambled_causal"":""4"",""num_scrambled_schematic"":""4"",""participantId"":""9B9A0B39821046F8B13EF2DEFE3035EE"",""assignmentId"":""54e0fc9d-e2b5-4525-8146-7d16b2f5cf30"",""projectId"":""051c06f1-75cc-4548-856d-4923ddaba0dc""}","https://test12345.live/?num_scrambled_semantic=8&num_scrambled_causal=4&num_scrambled_schematic=4&participantId=9B9A0B39821046F8B13EF2DEFE3035EE&assignmentId=54e0fc9d-e2b5-4525-8146-7d16b2f5cf30&projectId=051c06f1-75cc-4548-856d-4923ddaba0dc","9B9A0B39821046F8B13EF2DEFE3035EE-2025-05-15-19-23-52","","null","","[]","null","",""
"","","","","","image-button-response","15","128975","0.0-6.0-1.0-0.2","9B9A0B39821046F8B13EF2DEFE3035EE","9B9A0B39821046F8B13EF2DEFE3035EE","54e0fc9d-e2b5-4525-8146-7d16b2f5cf30","051c06f1-75cc-4548-856d-4923ddaba0dc","{""num_scrambled_semantic"":""8"",""num_scrambled_causal"":""4"",""num_scrambled_schematic"":""4"",""participantId"":""9B9A0B39821046F8B13EF2DEFE3035EE"",""assignmentId"":""54e0fc9d-e2b5-4525-8146-7d16b2f5cf30"",""projectId"":""051c06f1-75cc-4548-856d-4923ddaba0dc""}","https://test12345.live/?num_scrambled_semantic=8&num_scrambled_causal=4&num_scrambled_schematic=4&participantId=9B9A0B39821046F8B13EF2DEFE3035EE&assignmentId=54e0fc9d-e2b5-4525-8146-7d16b2f5cf30&projectId=051c06f1-75cc-4548-856d-4923ddaba0dc","9B9A0B39821046F8B13EF2DEFE3035EE-2025-05-15-19-23-52","","null","","images/instructions/movie_3.png","null","",""
"","","","","","image-button-response","16","130376","0.0-6.0-1.0-1.2","9B9A0B39821046F8B13EF2DEFE3035EE","9B9A0B39821046F8B13EF2DEFE3035EE","54e0fc9d-e2b5-4525-8146-7d16b2f5cf30","051c06f1-75cc-4548-856d-4923ddaba0dc","{""num_scrambled_semantic"":""8"",""num_scrambled_causal"":""4"",""num_scrambled_schematic"":""4"",""participantId"":""9B9A0B39821046F8B13EF2DEFE3035EE"",""assignmentId"":""54e0fc9d-e2b5-4525-8146-7d16b2f5cf30"",""projectId"":""051c06f1-75cc-4548-856d-4923ddaba0dc""}","https://test12345.live/?num_scrambled_semantic=8&num_scrambled_causal=4&num_scrambled_schematic=4&participantId=9B9A0B39821046F8B13EF2DEFE3035EE&assignmentId=54e0fc9d-e2b5-4525-8146-7d16b2f5cf30&projectId=051c06f1-75cc-4548-856d-4923ddaba0dc","9B9A0B39821046F8B13EF2DEFE3035EE-2025-05-15-19-23-52","","1400","","images/instructions/movie_3.png","0","",""
"","","","","","image-button-response","17","132198","0.0-6.0-1.0-2.2","9B9A0B39821046F8B13EF2DEFE3035EE","9B9A0B39821046F8B13EF2DEFE3035EE","54e0fc9d-e2b5-4525-8146-7d16b2f5cf30","051c06f1-75cc-4548-856d-4923ddaba0dc","{""num_scrambled_semantic"":""8"",""num_scrambled_causal"":""4"",""num_scrambled_schematic"":""4"",""participantId"":""9B9A0B39821046F8B13EF2DEFE3035EE"",""assignmentId"":""54e0fc9d-e2b5-4525-8146-7d16b2f5cf30"",""projectId"":""051c06f1-75cc-4548-856d-4923ddaba0dc""}","https://test12345.live/?num_scrambled_semantic=8&num_scrambled_causal=4&num_scrambled_schematic=4&participantId=9B9A0B39821046F8B13EF2DEFE3035EE&assignmentId=54e0fc9d-e2b5-4525-8146-7d16b2f5cf30&projectId=051c06f1-75cc-4548-856d-4923ddaba0dc","9B9A0B39821046F8B13EF2DEFE3035EE-2025-05-15-19-23-52","","null","","[]","null","",""
"","","","","","image-button-response","18","136708","0.0-6.0-1.0-0.3","9B9A0B39821046F8B13EF2DEFE3035EE","9B9A0B39821046F8B13EF2DEFE3035EE","54e0fc9d-e2b5-4525-8146-7d16b2f5cf30","051c06f1-75cc-4548-856d-4923ddaba0dc","{""num_scrambled_semantic"":""8"",""num_scrambled_causal"":""4"",""num_scrambled_schematic"":""4"",""participantId"":""9B9A0B39821046F8B13EF2DEFE3035EE"",""assignmentId"":""54e0fc9d-e2b5-4525-8146-7d16b2f5cf30"",""projectId"":""051c06f1-75cc-4548-856d-4923ddaba0dc""}","https://test12345.live/?num_scrambled_semantic=8&num_scrambled_causal=4&num_scrambled_schematic=4&participantId=9B9A0B39821046F8B13EF2DEFE3035EE&assignmentId=54e0fc9d-e2b5-4525-8146-7d16b2f5cf30&projectId=051c06f1-75cc-4548-856d-4923ddaba0dc","9B9A0B39821046F8B13EF2DEFE3035EE-2025-05-15-19-23-52","","null","","images/instructions/movie_4.png","null","",""
"","","","","","image-button-response","19","137960","0.0-6.0-1.0-1.3","9B9A0B39821046F8B13EF2DEFE3035EE","9B9A0B39821046F8B13EF2DEFE3035EE","54e0fc9d-e2b5-4525-8146-7d16b2f5cf30","051c06f1-75cc-4548-856d-4923ddaba0dc","{""num_scrambled_semantic"":""8"",""num_scrambled_causal"":""4"",""num_scrambled_schematic"":""4"",""participantId"":""9B9A0B39821046F8B13EF2DEFE3035EE"",""assignmentId"":""54e0fc9d-e2b5-4525-8146-7d16b2f5cf30"",""projectId"":""051c06f1-75cc-4548-856d-4923ddaba0dc""}","https://test12345.live/?num_scrambled_semantic=8&num_scrambled_causal=4&num_scrambled_schematic=4&participantId=9B9A0B39821046F8B13EF2DEFE3035EE&assignmentId=54e0fc9d-e2b5-4525-8146-7d16b2f5cf30&projectId=051c06f1-75cc-4548-856d-4923ddaba0dc","9B9A0B39821046F8B13EF2DEFE3035EE-2025-05-15-19-23-52","","1250","","images/instructions/movie_4.png","0","",""
"","","","","","image-button-response","20","139768","0.0-6.0-1.0-2.3","9B9A0B39821046F8B13EF2DEFE3035EE","9B9A0B39821046F8B13EF2DEFE3035EE","54e0fc9d-e2b5-4525-8146-7d16b2f5cf30","051c06f1-75cc-4548-856d-4923ddaba0dc","{""num_scrambled_semantic"":""8"",""num_scrambled_causal"":""4"",""num_scrambled_schematic"":""4"",""participantId"":""9B9A0B39821046F8B13EF2DEFE3035EE"",""assignmentId"":""54e0fc9d-e2b5-4525-8146-7d16b2f5cf30"",""projectId"":""051c06f1-75cc-4548-856d-4923ddaba0dc""}","https://test12345.live/?num_scrambled_semantic=8&num_scrambled_causal=4&num_scrambled_schematic=4&participantId=9B9A0B39821046F8B13EF2DEFE3035EE&assignmentId=54e0fc9d-e2b5-4525-8146-7d16b2f5cf30&projectId=051c06f1-75cc-4548-856d-4923ddaba0dc","9B9A0B39821046F8B13EF2DEFE3035EE-2025-05-15-19-23-52","","null","","[]","null","",""
"","","","","","instructions","21","148200","0.0-7.0","9B9A0B39821046F8B13EF2DEFE3035EE","9B9A0B39821046F8B13EF2DEFE3035EE","54e0fc9d-e2b5-4525-8146-7d16b2f5cf30","051c06f1-75cc-4548-856d-4923ddaba0dc","{""num_scrambled_semantic"":""8"",""num_scrambled_causal"":""4"",""num_scrambled_schematic"":""4"",""participantId"":""9B9A0B39821046F8B13EF2DEFE3035EE"",""assignmentId"":""54e0fc9d-e2b5-4525-8146-7d16b2f5cf30"",""projectId"":""051c06f1-75cc-4548-856d-4923ddaba0dc""}","https://test12345.live/?num_scrambled_semantic=8&num_scrambled_causal=4&num_scrambled_schematic=4&participantId=9B9A0B39821046F8B13EF2DEFE3035EE&assignmentId=54e0fc9d-e2b5-4525-8146-7d16b2f5cf30&projectId=051c06f1-75cc-4548-856d-4923ddaba0dc","9B9A0B39821046F8B13EF2DEFE3035EE-2025-05-15-19-23-52","[{""page_index"":0,""viewing_time"":7112},{""page_index"":1,""viewing_time"":1320}]","8432","","","","",""
"","","","","","html-audio-response","22","187880","0.0-8.0","9B9A0B39821046F8B13EF2DEFE3035EE","9B9A0B39821046F8B13EF2DEFE3035EE","54e0fc9d-e2b5-4525-8146-7d16b2f5cf30","051c06f1-75cc-4548-856d-4923ddaba0dc","{""num_scrambled_semantic"":""8"",""num_scrambled_causal"":""4"",""num_scrambled_schematic"":""4"",""participantId"":""9B9A0B39821046F8B13EF2DEFE3035EE"",""assignmentId"":""54e0fc9d-e2b5-4525-8146-7d16b2f5cf30"",""projectId"":""051c06f1-75cc-4548-856d-4923ddaba0dc""}","https://test12345.live/?num_scrambled_semantic=8&num_scrambled_causal=4&num_scrambled_schematic=4&participantId=9B9A0B39821046F8B13EF2DEFE3035EE&assignmentId=54e0fc9d-e2b5-4525-8146-7d16b2f5cf30&projectId=051c06f1-75cc-4548-856d-4923ddaba0dc","9B9A0B39821046F8B13EF2DEFE3035EE-2025-05-15-19-23-52","","23081","","[""<span style=\""color: red; font-size: 24px\""> NOW RECORDING</span><p>Please say out loud all the images you saw, as many as you can remember. The images can be said in any order.</p>""]","","3",""
"","","","","","instructions","23","189896","0.0-9.0","9B9A0B39821046F8B13EF2DEFE3035EE","9B9A0B39821046F8B13EF2DEFE3035EE","54e0fc9d-e2b5-4525-8146-7d16b2f5cf30","051c06f1-75cc-4548-856d-4923ddaba0dc","{""num_scrambled_semantic"":""8"",""num_scrambled_causal"":""4"",""num_scrambled_schematic"":""4"",""participantId"":""9B9A0B39821046F8B13EF2DEFE3035EE"",""assignmentId"":""54e0fc9d-e2b5-4525-8146-7d16b2f5cf30"",""projectId"":""051c06f1-75cc-4548-856d-4923ddaba0dc""}","https://test12345.live/?num_scrambled_semantic=8&num_scrambled_causal=4&num_scrambled_schematic=4&participantId=9B9A0B39821046F8B13EF2DEFE3035EE&assignmentId=54e0fc9d-e2b5-4525-8146-7d16b2f5cf30&projectId=051c06f1-75cc-4548-856d-4923ddaba0dc","9B9A0B39821046F8B13EF2DEFE3035EE-2025-05-15-19-23-52","[{""page_index"":0,""viewing_time"":2008}]","2008","","","","",""
"","","","","","image-button-response","24","195907","0.0-10.0-0.0","9B9A0B39821046F8B13EF2DEFE3035EE","9B9A0B39821046F8B13EF2DEFE3035EE","54e0fc9d-e2b5-4525-8146-7d16b2f5cf30","051c06f1-75cc-4548-856d-4923ddaba0dc","{""num_scrambled_semantic"":""8"",""num_scrambled_causal"":""4"",""num_scrambled_schematic"":""4"",""participantId"":""9B9A0B39821046F8B13EF2DEFE3035EE"",""assignmentId"":""54e0fc9d-e2b5-4525-8146-7d16b2f5cf30"",""projectId"":""051c06f1-75cc-4548-856d-4923ddaba0dc""}","https://test12345.live/?num_scrambled_semantic=8&num_scrambled_causal=4&num_scrambled_schematic=4&participantId=9B9A0B39821046F8B13EF2DEFE3035EE&assignmentId=54e0fc9d-e2b5-4525-8146-7d16b2f5cf30&projectId=051c06f1-75cc-4548-856d-4923ddaba0dc","9B9A0B39821046F8B13EF2DEFE3035EE-2025-05-15-19-23-52","","null","","images/causal_sequence/package_causal/package_causal_0.png","null","",""
"","","","","","image-button-response","25","200428","0.0-10.0-1.0-0.0","9B9A0B39821046F8B13EF2DEFE3035EE","9B9A0B39821046F8B13EF2DEFE3035EE","54e0fc9d-e2b5-4525-8146-7d16b2f5cf30","051c06f1-75cc-4548-856d-4923ddaba0dc","{""num_scrambled_semantic"":""8"",""num_scrambled_causal"":""4"",""num_scrambled_schematic"":""4"",""participantId"":""9B9A0B39821046F8B13EF2DEFE3035EE"",""assignmentId"":""54e0fc9d-e2b5-4525-8146-7d16b2f5cf30"",""projectId"":""051c06f1-75cc-4548-856d-4923ddaba0dc""}","https://test12345.live/?num_scrambled_semantic=8&num_scrambled_causal=4&num_scrambled_schematic=4&participantId=9B9A0B39821046F8B13EF2DEFE3035EE&assignmentId=54e0fc9d-e2b5-4525-8146-7d16b2f5cf30&projectId=051c06f1-75cc-4548-856d-4923ddaba0dc","9B9A0B39821046F8B13EF2DEFE3035EE-2025-05-15-19-23-52","","null","","images/causal_sequence/package_causal/package_causal_1.png","null","",""
"","","","","","image-button-response","26","201656","0.0-10.0-1.0-1.0","9B9A0B39821046F8B13EF2DEFE3035EE","9B9A0B39821046F8B13EF2DEFE3035EE","54e0fc9d-e2b5-4525-8146-7d16b2f5cf30","051c06f1-75cc-4548-856d-4923ddaba0dc","{""num_scrambled_semantic"":""8"",""num_scrambled_causal"":""4"",""num_scrambled_schematic"":""4"",""participantId"":""9B9A0B39821046F8B13EF2DEFE3035EE"",""assignmentId"":""54e0fc9d-e2b5-4525-8146-7d16b2f5cf30"",""projectId"":""051c06f1-75cc-4548-856d-4923ddaba0dc""}","https://test12345.live/?num_scrambled_semantic=8&num_scrambled_causal=4&num_scrambled_schematic=4&participantId=9B9A0B39821046F8B13EF2DEFE3035EE&assignmentId=54e0fc9d-e2b5-4525-8146-7d16b2f5cf30&projectId=051c06f1-75cc-4548-856d-4923ddaba0dc","9B9A0B39821046F8B13EF2DEFE3035EE-2025-05-15-19-23-52","","1226","","images/causal_sequence/package_causal/package_causal_1.png","0","",""
"","","","","","image-button-response","27","203457","0.0-10.0-1.0-2.0","9B9A0B39821046F8B13EF2DEFE3035EE","9B9A0B39821046F8B13EF2DEFE3035EE","54e0fc9d-e2b5-4525-8146-7d16b2f5cf30","051c06f1-75cc-4548-856d-4923ddaba0dc","{""num_scrambled_semantic"":""8"",""num_scrambled_causal"":""4"",""num_scrambled_schematic"":""4"",""participantId"":""9B9A0B39821046F8B13EF2DEFE3035EE"",""assignmentId"":""54e0fc9d-e2b5-4525-8146-7d16b2f5cf30"",""projectId"":""051c06f1-75cc-4548-856d-4923ddaba0dc""}","https://test12345.live/?num_scrambled_semantic=8&num_scrambled_causal=4&num_scrambled_schematic=4&participantId=9B9A0B39821046F8B13EF2DEFE3035EE&assignmentId=54e0fc9d-e2b5-4525-8146-7d16b2f5cf30&projectId=051c06f1-75cc-4548-856d-4923ddaba0dc","9B9A0B39821046F8B13EF2DEFE3035EE-2025-05-15-19-23-52","","null","","[]","null","",""
"","","","","","image-button-response","28","207958","0.0-10.0-1.0-0.1","9B9A0B39821046F8B13EF2DEFE3035EE","9B9A0B39821046F8B13EF2DEFE3035EE","54e0fc9d-e2b5-4525-8146-7d16b2f5cf30","051c06f1-75cc-4548-856d-4923ddaba0dc","{""num_scrambled_semantic"":""8"",""num_scrambled_causal"":""4"",""num_scrambled_schematic"":""4"",""participantId"":""9B9A0B39821046F8B13EF2DEFE3035EE"",""assignmentId"":""54e0fc9d-e2b5-4525-8146-7d16b2f5cf30"",""projectId"":""051c06f1-75cc-4548-856d-4923ddaba0dc""}","https://test12345.live/?num_scrambled_semantic=8&num_scrambled_causal=4&num_scrambled_schematic=4&participantId=9B9A0B39821046F8B13EF2DEFE3035EE&assignmentId=54e0fc9d-e2b5-4525-8146-7d16b2f5cf30&projectId=051c06f1-75cc-4548-856d-4923ddaba0dc","9B9A0B39821046F8B13EF2DEFE3035EE-2025-05-15-19-23-52","","null","","images/causal_sequence/package_causal/package_causal_2.png","null","",""
"","","","","","image-button-response","29","208696","0.0-10.0-1.0-1.1","9B9A0B39821046F8B13EF2DEFE3035EE","9B9A0B39821046F8B13EF2DEFE3035EE","54e0fc9d-e2b5-4525-8146-7d16b2f5cf30","051c06f1-75cc-4548-856d-4923ddaba0dc","{""num_scrambled_semantic"":""8"",""num_scrambled_causal"":""4"",""num_scrambled_schematic"":""4"",""participantId"":""9B9A0B39821046F8B13EF2DEFE3035EE"",""assignmentId"":""54e0fc9d-e2b5-4525-8146-7d16b2f5cf30"",""projectId"":""051c06f1-75cc-4548-856d-4923ddaba0dc""}","https://test12345.live/?num_scrambled_semantic=8&num_scrambled_causal=4&num_scrambled_schematic=4&participantId=9B9A0B39821046F8B13EF2DEFE3035EE&assignmentId=54e0fc9d-e2b5-4525-8146-7d16b2f5cf30&projectId=051c06f1-75cc-4548-856d-4923ddaba0dc","9B9A0B39821046F8B13EF2DEFE3035EE-2025-05-15-19-23-52","","736","","images/causal_sequence/package_causal/package_causal_2.png","0","",""
"","","","","","image-button-response","30","210517","0.0-10.0-1.0-2.1","9B9A0B39821046F8B13EF2DEFE3035EE","9B9A0B39821046F8B13EF2DEFE3035EE","54e0fc9d-e2b5-4525-8146-7d16b2f5cf30","051c06f1-75cc-4548-856d-4923ddaba0dc","{""num_scrambled_semantic"":""8"",""num_scrambled_causal"":""4"",""num_scrambled_schematic"":""4"",""participantId"":""9B9A0B39821046F8B13EF2DEFE3035EE"",""assignmentId"":""54e0fc9d-e2b5-4525-8146-7d16b2f5cf30"",""projectId"":""051c06f1-75cc-4548-856d-4923ddaba0dc""}","https://test12345.live/?num_scrambled_semantic=8&num_scrambled_causal=4&num_scrambled_schematic=4&participantId=9B9A0B39821046F8B13EF2DEFE3035EE&assignmentId=54e0fc9d-e2b5-4525-8146-7d16b2f5cf30&projectId=051c06f1-75cc-4548-856d-4923ddaba0dc","9B9A0B39821046F8B13EF2DEFE3035EE-2025-05-15-19-23-52","","null","","[]","null","",""
"","","","","","image-button-response","31","215027","0.0-10.0-1.0-0.2","9B9A0B39821046F8B13EF2DEFE3035EE","9B9A0B39821046F8B13EF2DEFE3035EE","54e0fc9d-e2b5-4525-8146-7d16b2f5cf30","051c06f1-75cc-4548-856d-4923ddaba0dc","{""num_scrambled_semantic"":""8"",""num_scrambled_causal"":""4"",""num_scrambled_schematic"":""4"",""participantId"":""9B9A0B39821046F8B13EF2DEFE3035EE"",""assignmentId"":""54e0fc9d-e2b5-4525-8146-7d16b2f5cf30"",""projectId"":""051c06f1-75cc-4548-856d-4923ddaba0dc""}","https://test12345.live/?num_scrambled_semantic=8&num_scrambled_causal=4&num_scrambled_schematic=4&participantId=9B9A0B39821046F8B13EF2DEFE3035EE&assignmentId=54e0fc9d-e2b5-4525-8146-7d16b2f5cf30&projectId=051c06f1-75cc-4548-856d-4923ddaba0dc","9B9A0B39821046F8B13EF2DEFE3035EE-2025-05-15-19-23-52","","null","","images/causal_sequence/package_causal/package_causal_3.png","null","",""
"","","","","","image-button-response","32","216048","0.0-10.0-1.0-1.2","9B9A0B39821046F8B13EF2DEFE3035EE","9B9A0B39821046F8B13EF2DEFE3035EE","54e0fc9d-e2b5-4525-8146-7d16b2f5cf30","051c06f1-75cc-4548-856d-4923ddaba0dc","{""num_scrambled_semantic"":""8"",""num_scrambled_causal"":""4"",""num_scrambled_schematic"":""4"",""participantId"":""9B9A0B39821046F8B13EF2DEFE3035EE"",""assignmentId"":""54e0fc9d-e2b5-4525-8146-7d16b2f5cf30"",""projectId"":""051c06f1-75cc-4548-856d-4923ddaba0dc""}","https://test12345.live/?num_scrambled_semantic=8&num_scrambled_causal=4&num_scrambled_schematic=4&participantId=9B9A0B39821046F8B13EF2DEFE3035EE&assignmentId=54e0fc9d-e2b5-4525-8146-7d16b2f5cf30&projectId=051c06f1-75cc-4548-856d-4923ddaba0dc","9B9A0B39821046F8B13EF2DEFE3035EE-2025-05-15-19-23-52","","1019","","images/causal_sequence/package_causal/package_causal_3.png","0","",""
"","","","","","image-button-response","33","217857","0.0-10.0-1.0-2.2","9B9A0B39821046F8B13EF2DEFE3035EE","9B9A0B39821046F8B13EF2DEFE3035EE","54e0fc9d-e2b5-4525-8146-7d16b2f5cf30","051c06f1-75cc-4548-856d-4923ddaba0dc","{""num_scrambled_semantic"":""8"",""num_scrambled_causal"":""4"",""num_scrambled_schematic"":""4"",""participantId"":""9B9A0B39821046F8B13EF2DEFE3035EE"",""assignmentId"":""54e0fc9d-e2b5-4525-8146-7d16b2f5cf30"",""projectId"":""051c06f1-75cc-4548-856d-4923ddaba0dc""}","https://test12345.live/?num_scrambled_semantic=8&num_scrambled_causal=4&num_scrambled_schematic=4&participantId=9B9A0B39821046F8B13EF2DEFE3035EE&assignmentId=54e0fc9d-e2b5-4525-8146-7d16b2f5cf30&projectId=051c06f1-75cc-4548-856d-4923ddaba0dc","9B9A0B39821046F8B13EF2DEFE3035EE-2025-05-15-19-23-52","","null","","[]","null","",""
"","","","","","image-button-response","34","222378","0.0-10.0-1.0-0.3","9B9A0B39821046F8B13EF2DEFE3035EE","9B9A0B39821046F8B13EF2DEFE3035EE","54e0fc9d-e2b5-4525-8146-7d16b2f5cf30","051c06f1-75cc-4548-856d-4923ddaba0dc","{""num_scrambled_semantic"":""8"",""num_scrambled_causal"":""4"",""num_scrambled_schematic"":""4"",""participantId"":""9B9A0B39821046F8B13EF2DEFE3035EE"",""assignmentId"":""54e0fc9d-e2b5-4525-8146-7d16b2f5cf30"",""projectId"":""051c06f1-75cc-4548-856d-4923ddaba0dc""}","https://test12345.live/?num_scrambled_semantic=8&num_scrambled_causal=4&num_scrambled_schematic=4&participantId=9B9A0B39821046F8B13EF2DEFE3035EE&assignmentId=54e0fc9d-e2b5-4525-8146-7d16b2f5cf30&projectId=051c06f1-75cc-4548-856d-4923ddaba0dc","9B9A0B39821046F8B13EF2DEFE3035EE-2025-05-15-19-23-52","","null","","images/causal_sequence/package_causal/package_causal_4.png","null","",""
"","","","","","image-button-response","35","223248","0.0-10.0-1.0-1.3","9B9A0B39821046F8B13EF2DEFE3035EE","9B9A0B39821046F8B13EF2DEFE3035EE","54e0fc9d-e2b5-4525-8146-7d16b2f5cf30","051c06f1-75cc-4548-856d-4923ddaba0dc","{""num_scrambled_semantic"":""8"",""num_scrambled_causal"":""4"",""num_scrambled_schematic"":""4"",""participantId"":""9B9A0B39821046F8B13EF2DEFE3035EE"",""assignmentId"":""54e0fc9d-e2b5-4525-8146-7d16b2f5cf30"",""projectId"":""051c06f1-75cc-4548-856d-4923ddaba0dc""}","https://test12345.live/?num_scrambled_semantic=8&num_scrambled_causal=4&num_scrambled_schematic=4&participantId=9B9A0B39821046F8B13EF2DEFE3035EE&assignmentId=54e0fc9d-e2b5-4525-8146-7d16b2f5cf30&projectId=051c06f1-75cc-4548-856d-4923ddaba0dc","9B9A0B39821046F8B13EF2DEFE3035EE-2025-05-15-19-23-52","","868","","images/causal_sequence/package_causal/package_causal_4.png","0","",""
"","","","","","image-button-response","36","225067","0.0-10.0-1.0-2.3","9B9A0B39821046F8B13EF2DEFE3035EE","9B9A0B39821046F8B13EF2DEFE3035EE","54e0fc9d-e2b5-4525-8146-7d16b2f5cf30","051c06f1-75cc-4548-856d-4923ddaba0dc","{""num_scrambled_semantic"":""8"",""num_scrambled_causal"":""4"",""num_scrambled_schematic"":""4"",""participantId"":""9B9A0B39821046F8B13EF2DEFE3035EE"",""assignmentId"":""54e0fc9d-e2b5-4525-8146-7d16b2f5cf30"",""projectId"":""051c06f1-75cc-4548-856d-4923ddaba0dc""}","https://test12345.live/?num_scrambled_semantic=8&num_scrambled_causal=4&num_scrambled_schematic=4&participantId=9B9A0B39821046F8B13EF2DEFE3035EE&assignmentId=54e0fc9d-e2b5-4525-8146-7d16b2f5cf30&projectId=051c06f1-75cc-4548-856d-4923ddaba0dc","9B9A0B39821046F8B13EF2DEFE3035EE-2025-05-15-19-23-52","","null","","[]","null","",""
"","","","","","image-button-response","37","229577","0.0-10.0-1.0-0.4","9B9A0B39821046F8B13EF2DEFE3035EE","9B9A0B39821046F8B13EF2DEFE3035EE","54e0fc9d-e2b5-4525-8146-7d16b2f5cf30","051c06f1-75cc-4548-856d-4923ddaba0dc","{""num_scrambled_semantic"":""8"",""num_scrambled_causal"":""4"",""num_scrambled_schematic"":""4"",""participantId"":""9B9A0B39821046F8B13EF2DEFE3035EE"",""assignmentId"":""54e0fc9d-e2b5-4525-8146-7d16b2f5cf30"",""projectId"":""051c06f1-75cc-4548-856d-4923ddaba0dc""}","https://test12345.live/?num_scrambled_semantic=8&num_scrambled_causal=4&num_scrambled_schematic=4&participantId=9B9A0B39821046F8B13EF2DEFE3035EE&assignmentId=54e0fc9d-e2b5-4525-8146-7d16b2f5cf30&projectId=051c06f1-75cc-4548-856d-4923ddaba0dc","9B9A0B39821046F8B13EF2DEFE3035EE-2025-05-15-19-23-52","","null","","images/causal_sequence/package_causal/package_causal_5.png","null","",""
"","","","","","image-button-response","38","230496","0.0-10.0-1.0-1.4","9B9A0B39821046F8B13EF2DEFE3035EE","9B9A0B39821046F8B13EF2DEFE3035EE","54e0fc9d-e2b5-4525-8146-7d16b2f5cf30","051c06f1-75cc-4548-856d-4923ddaba0dc","{""num_scrambled_semantic"":""8"",""num_scrambled_causal"":""4"",""num_scrambled_schematic"":""4"",""participantId"":""9B9A0B39821046F8B13EF2DEFE3035EE"",""assignmentId"":""54e0fc9d-e2b5-4525-8146-7d16b2f5cf30"",""projectId"":""051c06f1-75cc-4548-856d-4923ddaba0dc""}","https://test12345.live/?num_scrambled_semantic=8&num_scrambled_causal=4&num_scrambled_schematic=4&participantId=9B9A0B39821046F8B13EF2DEFE3035EE&assignmentId=54e0fc9d-e2b5-4525-8146-7d16b2f5cf30&projectId=051c06f1-75cc-4548-856d-4923ddaba0dc","9B9A0B39821046F8B13EF2DEFE3035EE-2025-05-15-19-23-52","","917","","images/causal_sequence/package_causal/package_causal_5.png","0","",""
"","","","","","image-button-response","39","232307","0.0-10.0-1.0-2.4","9B9A0B39821046F8B13EF2DEFE3035EE","9B9A0B39821046F8B13EF2DEFE3035EE","54e0fc9d-e2b5-4525-8146-7d16b2f5cf30","051c06f1-75cc-4548-856d-4923ddaba0dc","{""num_scrambled_semantic"":""8"",""num_scrambled_causal"":""4"",""num_scrambled_schematic"":""4"",""participantId"":""9B9A0B39821046F8B13EF2DEFE3035EE"",""assignmentId"":""54e0fc9d-e2b5-4525-8146-7d16b2f5cf30"",""projectId"":""051c06f1-75cc-4548-856d-4923ddaba0dc""}","https://test12345.live/?num_scrambled_semantic=8&num_scrambled_causal=4&num_scrambled_schematic=4&participantId=9B9A0B39821046F8B13EF2DEFE3035EE&assignmentId=54e0fc9d-e2b5-4525-8146-7d16b2f5cf30&projectId=051c06f1-75cc-4548-856d-4923ddaba0dc","9B9A0B39821046F8B13EF2DEFE3035EE-2025-05-15-19-23-52","","null","","[]","null","",""
"","","","","","image-button-response","40","236817","0.0-10.0-1.0-0.5","9B9A0B39821046F8B13EF2DEFE3035EE","9B9A0B39821046F8B13EF2DEFE3035EE","54e0fc9d-e2b5-4525-8146-7d16b2f5cf30","051c06f1-75cc-4548-856d-4923ddaba0dc","{""num_scrambled_semantic"":""8"",""num_scrambled_causal"":""4"",""num_scrambled_schematic"":""4"",""participantId"":""9B9A0B39821046F8B13EF2DEFE3035EE"",""assignmentId"":""54e0fc9d-e2b5-4525-8146-7d16b2f5cf30"",""projectId"":""051c06f1-75cc-4548-856d-4923ddaba0dc""}","https://test12345.live/?num_scrambled_semantic=8&num_scrambled_causal=4&num_scrambled_schematic=4&participantId=9B9A0B39821046F8B13EF2DEFE3035EE&assignmentId=54e0fc9d-e2b5-4525-8146-7d16b2f5cf30&projectId=051c06f1-75cc-4548-856d-4923ddaba0dc","9B9A0B39821046F8B13EF2DEFE3035EE-2025-05-15-19-23-52","","null","","images/causal_sequence/package_causal/package_causal_6.png","null","",""
"","","","","","image-button-response","41","237864","0.0-10.0-1.0-1.5","9B9A0B39821046F8B13EF2DEFE3035EE","9B9A0B39821046F8B13EF2DEFE3035EE","54e0fc9d-e2b5-4525-8146-7d16b2f5cf30","051c06f1-75cc-4548-856d-4923ddaba0dc","{""num_scrambled_semantic"":""8"",""num_scrambled_causal"":""4"",""num_scrambled_schematic"":""4"",""participantId"":""9B9A0B39821046F8B13EF2DEFE3035EE"",""assignmentId"":""54e0fc9d-e2b5-4525-8146-7d16b2f5cf30"",""projectId"":""051c06f1-75cc-4548-856d-4923ddaba0dc""}","https://test12345.live/?num_scrambled_semantic=8&num_scrambled_causal=4&num_scrambled_schematic=4&participantId=9B9A0B39821046F8B13EF2DEFE3035EE&assignmentId=54e0fc9d-e2b5-4525-8146-7d16b2f5cf30&projectId=051c06f1-75cc-4548-856d-4923ddaba0dc","9B9A0B39821046F8B13EF2DEFE3035EE-2025-05-15-19-23-52","","1045","","images/causal_sequence/package_causal/package_causal_6.png","0","",""
"","","","","","image-button-response","42","239667","0.0-10.0-1.0-2.5","9B9A0B39821046F8B13EF2DEFE3035EE","9B9A0B39821046F8B13EF2DEFE3035EE","54e0fc9d-e2b5-4525-8146-7d16b2f5cf30","051c06f1-75cc-4548-856d-4923ddaba0dc","{""num_scrambled_semantic"":""8"",""num_scrambled_causal"":""4"",""num_scrambled_schematic"":""4"",""participantId"":""9B9A0B39821046F8B13EF2DEFE3035EE"",""assignmentId"":""54e0fc9d-e2b5-4525-8146-7d16b2f5cf30"",""projectId"":""051c06f1-75cc-4548-856d-4923ddaba0dc""}","https://test12345.live/?num_scrambled_semantic=8&num_scrambled_causal=4&num_scrambled_schematic=4&participantId=9B9A0B39821046F8B13EF2DEFE3035EE&assignmentId=54e0fc9d-e2b5-4525-8146-7d16b2f5cf30&projectId=051c06f1-75cc-4548-856d-4923ddaba0dc","9B9A0B39821046F8B13EF2DEFE3035EE-2025-05-15-19-23-52","","null","","[]","null","",""
"","","","","","image-button-response","43","244173","0.0-10.0-1.0-0.6","9B9A0B39821046F8B13EF2DEFE3035EE","9B9A0B39821046F8B13EF2DEFE3035EE","54e0fc9d-e2b5-4525-8146-7d16b2f5cf30","051c06f1-75cc-4548-856d-4923ddaba0dc","{""num_scrambled_semantic"":""8"",""num_scrambled_causal"":""4"",""num_scrambled_schematic"":""4"",""participantId"":""9B9A0B39821046F8B13EF2DEFE3035EE"",""assignmentId"":""54e0fc9d-e2b5-4525-8146-7d16b2f5cf30"",""projectId"":""051c06f1-75cc-4548-856d-4923ddaba0dc""}","https://test12345.live/?num_scrambled_semantic=8&num_scrambled_causal=4&num_scrambled_schematic=4&participantId=9B9A0B39821046F8B13EF2DEFE3035EE&assignmentId=54e0fc9d-e2b5-4525-8146-7d16b2f5cf30&projectId=051c06f1-75cc-4548-856d-4923ddaba0dc","9B9A0B39821046F8B13EF2DEFE3035EE-2025-05-15-19-23-52","","null","","images/causal_sequence/package_causal/package_causal_7.png","null","",""
"","","","","","image-button-response","44","245439","0.0-10.0-1.0-1.6","9B9A0B39821046F8B13EF2DEFE3035EE","9B9A0B39821046F8B13EF2DEFE3035EE","54e0fc9d-e2b5-4525-8146-7d16b2f5cf30","051c06f1-75cc-4548-856d-4923ddaba0dc","{""num_scrambled_semantic"":""8"",""num_scrambled_causal"":""4"",""num_scrambled_schematic"":""4"",""participantId"":""9B9A0B39821046F8B13EF2DEFE3035EE"",""assignmentId"":""54e0fc9d-e2b5-4525-8146-7d16b2f5cf30"",""projectId"":""051c06f1-75cc-4548-856d-4923ddaba0dc""}","https://test12345.live/?num_scrambled_semantic=8&num_scrambled_causal=4&num_scrambled_schematic=4&participantId=9B9A0B39821046F8B13EF2DEFE3035EE&assignmentId=54e0fc9d-e2b5-4525-8146-7d16b2f5cf30&projectId=051c06f1-75cc-4548-856d-4923ddaba0dc","9B9A0B39821046F8B13EF2DEFE3035EE-2025-05-15-19-23-52","","1266","","images/causal_sequence/package_causal/package_causal_7.png","0","",""
"","","","","","image-button-response","45","247257","0.0-10.0-1.0-2.6","9B9A0B39821046F8B13EF2DEFE3035EE","9B9A0B39821046F8B13EF2DEFE3035EE","54e0fc9d-e2b5-4525-8146-7d16b2f5cf30","051c06f1-75cc-4548-856d-4923ddaba0dc","{""num_scrambled_semantic"":""8"",""num_scrambled_causal"":""4"",""num_scrambled_schematic"":""4"",""participantId"":""9B9A0B39821046F8B13EF2DEFE3035EE"",""assignmentId"":""54e0fc9d-e2b5-4525-8146-7d16b2f5cf30"",""projectId"":""051c06f1-75cc-4548-856d-4923ddaba0dc""}","https://test12345.live/?num_scrambled_semantic=8&num_scrambled_causal=4&num_scrambled_schematic=4&participantId=9B9A0B39821046F8B13EF2DEFE3035EE&assignmentId=54e0fc9d-e2b5-4525-8146-7d16b2f5cf30&projectId=051c06f1-75cc-4548-856d-4923ddaba0dc","9B9A0B39821046F8B13EF2DEFE3035EE-2025-05-15-19-23-52","","null","","[]","null","",""
"","","","","","image-button-response","46","251758","0.0-10.0-1.0-0.7","9B9A0B39821046F8B13EF2DEFE3035EE","9B9A0B39821046F8B13EF2DEFE3035EE","54e0fc9d-e2b5-4525-8146-7d16b2f5cf30","051c06f1-75cc-4548-856d-4923ddaba0dc","{""num_scrambled_semantic"":""8"",""num_scrambled_causal"":""4"",""num_scrambled_schematic"":""4"",""participantId"":""9B9A0B39821046F8B13EF2DEFE3035EE"",""assignmentId"":""54e0fc9d-e2b5-4525-8146-7d16b2f5cf30"",""projectId"":""051c06f1-75cc-4548-856d-4923ddaba0dc""}","https://test12345.live/?num_scrambled_semantic=8&num_scrambled_causal=4&num_scrambled_schematic=4&participantId=9B9A0B39821046F8B13EF2DEFE3035EE&assignmentId=54e0fc9d-e2b5-4525-8146-7d16b2f5cf30&projectId=051c06f1-75cc-4548-856d-4923ddaba0dc","9B9A0B39821046F8B13EF2DEFE3035EE-2025-05-15-19-23-52","","null","","images/causal_sequence/package_causal/package_causal_8.png","null","",""
"","","","","","image-button-response","47","252959","0.0-10.0-1.0-1.7","9B9A0B39821046F8B13EF2DEFE3035EE","9B9A0B39821046F8B13EF2DEFE3035EE","54e0fc9d-e2b5-4525-8146-7d16b2f5cf30","051c06f1-75cc-4548-856d-4923ddaba0dc","{""num_scrambled_semantic"":""8"",""num_scrambled_causal"":""4"",""num_scrambled_schematic"":""4"",""participantId"":""9B9A0B39821046F8B13EF2DEFE3035EE"",""assignmentId"":""54e0fc9d-e2b5-4525-8146-7d16b2f5cf30"",""projectId"":""051c06f1-75cc-4548-856d-4923ddaba0dc""}","https://test12345.live/?num_scrambled_semantic=8&num_scrambled_causal=4&num_scrambled_schematic=4&participantId=9B9A0B39821046F8B13EF2DEFE3035EE&assignmentId=54e0fc9d-e2b5-4525-8146-7d16b2f5cf30&projectId=051c06f1-75cc-4548-856d-4923ddaba0dc","9B9A0B39821046F8B13EF2DEFE3035EE-2025-05-15-19-23-52","","1200","","images/causal_sequence/package_causal/package_causal_8.png","0","",""
"","","","","","image-button-response","48","254767","0.0-10.0-1.0-2.7","9B9A0B39821046F8B13EF2DEFE3035EE","9B9A0B39821046F8B13EF2DEFE3035EE","54e0fc9d-e2b5-4525-8146-7d16b2f5cf30","051c06f1-75cc-4548-856d-4923ddaba0dc","{""num_scrambled_semantic"":""8"",""num_scrambled_causal"":""4"",""num_scrambled_schematic"":""4"",""participantId"":""9B9A0B39821046F8B13EF2DEFE3035EE"",""assignmentId"":""54e0fc9d-e2b5-4525-8146-7d16b2f5cf30"",""projectId"":""051c06f1-75cc-4548-856d-4923ddaba0dc""}","https://test12345.live/?num_scrambled_semantic=8&num_scrambled_causal=4&num_scrambled_schematic=4&participantId=9B9A0B39821046F8B13EF2DEFE3035EE&assignmentId=54e0fc9d-e2b5-4525-8146-7d16b2f5cf30&projectId=051c06f1-75cc-4548-856d-4923ddaba0dc","9B9A0B39821046F8B13EF2DEFE3035EE-2025-05-15-19-23-52","","null","","[]","null","",""
"","","","","","image-button-response","49","259277","0.0-10.0-1.0-0.8","9B9A0B39821046F8B13EF2DEFE3035EE","9B9A0B39821046F8B13EF2DEFE3035EE","54e0fc9d-e2b5-4525-8146-7d16b2f5cf30","051c06f1-75cc-4548-856d-4923ddaba0dc","{""num_scrambled_semantic"":""8"",""num_scrambled_causal"":""4"",""num_scrambled_schematic"":""4"",""participantId"":""9B9A0B39821046F8B13EF2DEFE3035EE"",""assignmentId"":""54e0fc9d-e2b5-4525-8146-7d16b2f5cf30"",""projectId"":""051c06f1-75cc-4548-856d-4923ddaba0dc""}","https://test12345.live/?num_scrambled_semantic=8&num_scrambled_causal=4&num_scrambled_schematic=4&participantId=9B9A0B39821046F8B13EF2DEFE3035EE&assignmentId=54e0fc9d-e2b5-4525-8146-7d16b2f5cf30&projectId=051c06f1-75cc-4548-856d-4923ddaba0dc","9B9A0B39821046F8B13EF2DEFE3035EE-2025-05-15-19-23-52","","null","","images/causal_sequence/package_causal/package_causal_9.png","null","",""
"","","","","","image-button-response","50","263287","0.0-10.0-1.0-1.8","9B9A0B39821046F8B13EF2DEFE3035EE","9B9A0B39821046F8B13EF2DEFE3035EE","54e0fc9d-e2b5-4525-8146-7d16b2f5cf30","051c06f1-75cc-4548-856d-4923ddaba0dc","{""num_scrambled_semantic"":""8"",""num_scrambled_causal"":""4"",""num_scrambled_schematic"":""4"",""participantId"":""9B9A0B39821046F8B13EF2DEFE3035EE"",""assignmentId"":""54e0fc9d-e2b5-4525-8146-7d16b2f5cf30"",""projectId"":""051c06f1-75cc-4548-856d-4923ddaba0dc""}","https://test12345.live/?num_scrambled_semantic=8&num_scrambled_causal=4&num_scrambled_schematic=4&participantId=9B9A0B39821046F8B13EF2DEFE3035EE&assignmentId=54e0fc9d-e2b5-4525-8146-7d16b2f5cf30&projectId=051c06f1-75cc-4548-856d-4923ddaba0dc","9B9A0B39821046F8B13EF2DEFE3035EE-2025-05-15-19-23-52","","null","","images/causal_sequence/package_causal/package_causal_9.png","null","",""
"","","","","","image-button-response","51","265097","0.0-10.0-1.0-2.8","9B9A0B39821046F8B13EF2DEFE3035EE","9B9A0B39821046F8B13EF2DEFE3035EE","54e0fc9d-e2b5-4525-8146-7d16b2f5cf30","051c06f1-75cc-4548-856d-4923ddaba0dc","{""num_scrambled_semantic"":""8"",""num_scrambled_causal"":""4"",""num_scrambled_schematic"":""4"",""participantId"":""9B9A0B39821046F8B13EF2DEFE3035EE"",""assignmentId"":""54e0fc9d-e2b5-4525-8146-7d16b2f5cf30"",""projectId"":""051c06f1-75cc-4548-856d-4923ddaba0dc""}","https://test12345.live/?num_scrambled_semantic=8&num_scrambled_causal=4&num_scrambled_schematic=4&participantId=9B9A0B39821046F8B13EF2DEFE3035EE&assignmentId=54e0fc9d-e2b5-4525-8146-7d16b2f5cf30&projectId=051c06f1-75cc-4548-856d-4923ddaba0dc","9B9A0B39821046F8B13EF2DEFE3035EE-2025-05-15-19-23-52","","null","","[]","null","",""
"","","","","","image-button-response","52","269617","0.0-10.0-1.0-0.9","9B9A0B39821046F8B13EF2DEFE3035EE","9B9A0B39821046F8B13EF2DEFE3035EE","54e0fc9d-e2b5-4525-8146-7d16b2f5cf30","051c06f1-75cc-4548-856d-4923ddaba0dc","{""num_scrambled_semantic"":""8"",""num_scrambled_causal"":""4"",""num_scrambled_schematic"":""4"",""participantId"":""9B9A0B39821046F8B13EF2DEFE3035EE"",""assignmentId"":""54e0fc9d-e2b5-4525-8146-7d16b2f5cf30"",""projectId"":""051c06f1-75cc-4548-856d-4923ddaba0dc""}","https://test12345.live/?num_scrambled_semantic=8&num_scrambled_causal=4&num_scrambled_schematic=4&participantId=9B9A0B39821046F8B13EF2DEFE3035EE&assignmentId=54e0fc9d-e2b5-4525-8146-7d16b2f5cf30&projectId=051c06f1-75cc-4548-856d-4923ddaba0dc","9B9A0B39821046F8B13EF2DEFE3035EE-2025-05-15-19-23-52","","null","","images/causal_sequence/package_causal/package_causal_ten.png","null","",""
"","","","","","image-button-response","53","270407","0.0-10.0-1.0-1.9","9B9A0B39821046F8B13EF2DEFE3035EE","9B9A0B39821046F8B13EF2DEFE3035EE","54e0fc9d-e2b5-4525-8146-7d16b2f5cf30","051c06f1-75cc-4548-856d-4923ddaba0dc","{""num_scrambled_semantic"":""8"",""num_scrambled_causal"":""4"",""num_scrambled_schematic"":""4"",""participantId"":""9B9A0B39821046F8B13EF2DEFE3035EE"",""assignmentId"":""54e0fc9d-e2b5-4525-8146-7d16b2f5cf30"",""projectId"":""051c06f1-75cc-4548-856d-4923ddaba0dc""}","https://test12345.live/?num_scrambled_semantic=8&num_scrambled_causal=4&num_scrambled_schematic=4&participantId=9B9A0B39821046F8B13EF2DEFE3035EE&assignmentId=54e0fc9d-e2b5-4525-8146-7d16b2f5cf30&projectId=051c06f1-75cc-4548-856d-4923ddaba0dc","9B9A0B39821046F8B13EF2DEFE3035EE-2025-05-15-19-23-52","","789","","images/causal_sequence/package_causal/package_causal_ten.png","0","",""
"","","","","","image-button-response","54","272227","0.0-10.0-1.0-2.9","9B9A0B39821046F8B13EF2DEFE3035EE","9B9A0B39821046F8B13EF2DEFE3035EE","54e0fc9d-e2b5-4525-8146-7d16b2f5cf30","051c06f1-75cc-4548-856d-4923ddaba0dc","{""num_scrambled_semantic"":""8"",""num_scrambled_causal"":""4"",""num_scrambled_schematic"":""4"",""participantId"":""9B9A0B39821046F8B13EF2DEFE3035EE"",""assignmentId"":""54e0fc9d-e2b5-4525-8146-7d16b2f5cf30"",""projectId"":""051c06f1-75cc-4548-856d-4923ddaba0dc""}","https://test12345.live/?num_scrambled_semantic=8&num_scrambled_causal=4&num_scrambled_schematic=4&participantId=9B9A0B39821046F8B13EF2DEFE3035EE&assignmentId=54e0fc9d-e2b5-4525-8146-7d16b2f5cf30&projectId=051c06f1-75cc-4548-856d-4923ddaba0dc","9B9A0B39821046F8B13EF2DEFE3035EE-2025-05-15-19-23-52","","null","","[]","null","",""
"","","","","","html-audio-response","55","310303","0.0-11.0","9B9A0B39821046F8B13EF2DEFE3035EE","9B9A0B39821046F8B13EF2DEFE3035EE","54e0fc9d-e2b5-4525-8146-7d16b2f5cf30","051c06f1-75cc-4548-856d-4923ddaba0dc","{""num_scrambled_semantic"":""8"",""num_scrambled_causal"":""4"",""num_scrambled_schematic"":""4"",""participantId"":""9B9A0B39821046F8B13EF2DEFE3035EE"",""assignmentId"":""54e0fc9d-e2b5-4525-8146-7d16b2f5cf30"",""projectId"":""051c06f1-75cc-4548-856d-4923ddaba0dc""}","https://test12345.live/?num_scrambled_semantic=8&num_scrambled_causal=4&num_scrambled_schematic=4&participantId=9B9A0B39821046F8B13EF2DEFE3035EE&assignmentId=54e0fc9d-e2b5-4525-8146-7d16b2f5cf30&projectId=051c06f1-75cc-4548-856d-4923ddaba0dc","9B9A0B39821046F8B13EF2DEFE3035EE-2025-05-15-19-23-52","","28260","","[""<span style=\""color: red; font-size: 24px\""> NOW RECORDING</span><p>Please say out loud all the images you saw, as many as you can remember. The images can be said in any order.</p>""]","","3","package_causal"
"","","","","","image-button-response","56","316316","0.0-12.0-0.0","9B9A0B39821046F8B13EF2DEFE3035EE","9B9A0B39821046F8B13EF2DEFE3035EE","54e0fc9d-e2b5-4525-8146-7d16b2f5cf30","051c06f1-75cc-4548-856d-4923ddaba0dc","{""num_scrambled_semantic"":""8"",""num_scrambled_causal"":""4"",""num_scrambled_schematic"":""4"",""participantId"":""9B9A0B39821046F8B13EF2DEFE3035EE"",""assignmentId"":""54e0fc9d-e2b5-4525-8146-7d16b2f5cf30"",""projectId"":""051c06f1-75cc-4548-856d-4923ddaba0dc""}","https://test12345.live/?num_scrambled_semantic=8&num_scrambled_causal=4&num_scrambled_schematic=4&participantId=9B9A0B39821046F8B13EF2DEFE3035EE&assignmentId=54e0fc9d-e2b5-4525-8146-7d16b2f5cf30&projectId=051c06f1-75cc-4548-856d-4923ddaba0dc","9B9A0B39821046F8B13EF2DEFE3035EE-2025-05-15-19-23-52","","null","","images/schematic_sequence/dinner_party_scheme/dinner_party_scheme_0.png","null","",""
"","","","","","image-button-response","57","320826","0.0-12.0-1.0-0.0","9B9A0B39821046F8B13EF2DEFE3035EE","9B9A0B39821046F8B13EF2DEFE3035EE","54e0fc9d-e2b5-4525-8146-7d16b2f5cf30","051c06f1-75cc-4548-856d-4923ddaba0dc","{""num_scrambled_semantic"":""8"",""num_scrambled_causal"":""4"",""num_scrambled_schematic"":""4"",""participantId"":""9B9A0B39821046F8B13EF2DEFE3035EE"",""assignmentId"":""54e0fc9d-e2b5-4525-8146-7d16b2f5cf30"",""projectId"":""051c06f1-75cc-4548-856d-4923ddaba0dc""}","https://test12345.live/?num_scrambled_semantic=8&num_scrambled_causal=4&num_scrambled_schematic=4&participantId=9B9A0B39821046F8B13EF2DEFE3035EE&assignmentId=54e0fc9d-e2b5-4525-8146-7d16b2f5cf30&projectId=051c06f1-75cc-4548-856d-4923ddaba0dc","9B9A0B39821046F8B13EF2DEFE3035EE-2025-05-15-19-23-52","","null","","images/schematic_sequence/dinner_party_scheme/dinner_party_scheme_ten.png","null","",""
"","","","","","image-button-response","58","321815","0.0-12.0-1.0-1.0","9B9A0B39821046F8B13EF2DEFE3035EE","9B9A0B39821046F8B13EF2DEFE3035EE","54e0fc9d-e2b5-4525-8146-7d16b2f5cf30","051c06f1-75cc-4548-856d-4923ddaba0dc","{""num_scrambled_semantic"":""8"",""num_scrambled_causal"":""4"",""num_scrambled_schematic"":""4"",""participantId"":""9B9A0B39821046F8B13EF2DEFE3035EE"",""assignmentId"":""54e0fc9d-e2b5-4525-8146-7d16b2f5cf30"",""projectId"":""051c06f1-75cc-4548-856d-4923ddaba0dc""}","https://test12345.live/?num_scrambled_semantic=8&num_scrambled_causal=4&num_scrambled_schematic=4&participantId=9B9A0B39821046F8B13EF2DEFE3035EE&assignmentId=54e0fc9d-e2b5-4525-8146-7d16b2f5cf30&projectId=051c06f1-75cc-4548-856d-4923ddaba0dc","9B9A0B39821046F8B13EF2DEFE3035EE-2025-05-15-19-23-52","","987","","images/schematic_sequence/dinner_party_scheme/dinner_party_scheme_ten.png","0","",""
"","","","","","image-button-response","59","323637","0.0-12.0-1.0-2.0","9B9A0B39821046F8B13EF2DEFE3035EE","9B9A0B39821046F8B13EF2DEFE3035EE","54e0fc9d-e2b5-4525-8146-7d16b2f5cf30","051c06f1-75cc-4548-856d-4923ddaba0dc","{""num_scrambled_semantic"":""8"",""num_scrambled_causal"":""4"",""num_scrambled_schematic"":""4"",""participantId"":""9B9A0B39821046F8B13EF2DEFE3035EE"",""assignmentId"":""54e0fc9d-e2b5-4525-8146-7d16b2f5cf30"",""projectId"":""051c06f1-75cc-4548-856d-4923ddaba0dc""}","https://test12345.live/?num_scrambled_semantic=8&num_scrambled_causal=4&num_scrambled_schematic=4&participantId=9B9A0B39821046F8B13EF2DEFE3035EE&assignmentId=54e0fc9d-e2b5-4525-8146-7d16b2f5cf30&projectId=051c06f1-75cc-4548-856d-4923ddaba0dc","9B9A0B39821046F8B13EF2DEFE3035EE-2025-05-15-19-23-52","","null","","[]","null","",""
"","","","","","image-button-response","60","328156","0.0-12.0-1.0-0.1","9B9A0B39821046F8B13EF2DEFE3035EE","9B9A0B39821046F8B13EF2DEFE3035EE","54e0fc9d-e2b5-4525-8146-7d16b2f5cf30","051c06f1-75cc-4548-856d-4923ddaba0dc","{""num_scrambled_semantic"":""8"",""num_scrambled_causal"":""4"",""num_scrambled_schematic"":""4"",""participantId"":""9B9A0B39821046F8B13EF2DEFE3035EE"",""assignmentId"":""54e0fc9d-e2b5-4525-8146-7d16b2f5cf30"",""projectId"":""051c06f1-75cc-4548-856d-4923ddaba0dc""}","https://test12345.live/?num_scrambled_semantic=8&num_scrambled_causal=4&num_scrambled_schematic=4&participantId=9B9A0B39821046F8B13EF2DEFE3035EE&assignmentId=54e0fc9d-e2b5-4525-8146-7d16b2f5cf30&projectId=051c06f1-75cc-4548-856d-4923ddaba0dc","9B9A0B39821046F8B13EF2DEFE3035EE-2025-05-15-19-23-52","","null","","images/schematic_sequence/dinner_party_scheme/dinner_party_scheme_5.png","null","",""
"","","","","","image-button-response","61","329359","0.0-12.0-1.0-1.1","9B9A0B39821046F8B13EF2DEFE3035EE","9B9A0B39821046F8B13EF2DEFE3035EE","54e0fc9d-e2b5-4525-8146-7d16b2f5cf30","051c06f1-75cc-4548-856d-4923ddaba0dc","{""num_scrambled_semantic"":""8"",""num_scrambled_causal"":""4"",""num_scrambled_schematic"":""4"",""participantId"":""9B9A0B39821046F8B13EF2DEFE3035EE"",""assignmentId"":""54e0fc9d-e2b5-4525-8146-7d16b2f5cf30"",""projectId"":""051c06f1-75cc-4548-856d-4923ddaba0dc""}","https://test12345.live/?num_scrambled_semantic=8&num_scrambled_causal=4&num_scrambled_schematic=4&participantId=9B9A0B39821046F8B13EF2DEFE3035EE&assignmentId=54e0fc9d-e2b5-4525-8146-7d16b2f5cf30&projectId=051c06f1-75cc-4548-856d-4923ddaba0dc","9B9A0B39821046F8B13EF2DEFE3035EE-2025-05-15-19-23-52","","1201","","images/schematic_sequence/dinner_party_scheme/dinner_party_scheme_5.png","0","",""
"","","","","","image-button-response","62","331166","0.0-12.0-1.0-2.1","9B9A0B39821046F8B13EF2DEFE3035EE","9B9A0B39821046F8B13EF2DEFE3035EE","54e0fc9d-e2b5-4525-8146-7d16b2f5cf30","051c06f1-75cc-4548-856d-4923ddaba0dc","{""num_scrambled_semantic"":""8"",""num_scrambled_causal"":""4"",""num_scrambled_schematic"":""4"",""participantId"":""9B9A0B39821046F8B13EF2DEFE3035EE"",""assignmentId"":""54e0fc9d-e2b5-4525-8146-7d16b2f5cf30"",""projectId"":""051c06f1-75cc-4548-856d-4923ddaba0dc""}","https://test12345.live/?num_scrambled_semantic=8&num_scrambled_causal=4&num_scrambled_schematic=4&participantId=9B9A0B39821046F8B13EF2DEFE3035EE&assignmentId=54e0fc9d-e2b5-4525-8146-7d16b2f5cf30&projectId=051c06f1-75cc-4548-856d-4923ddaba0dc","9B9A0B39821046F8B13EF2DEFE3035EE-2025-05-15-19-23-52","","null","","[]","null","",""
"","","","","","image-button-response","63","335687","0.0-12.0-1.0-0.2","9B9A0B39821046F8B13EF2DEFE3035EE","9B9A0B39821046F8B13EF2DEFE3035EE","54e0fc9d-e2b5-4525-8146-7d16b2f5cf30","051c06f1-75cc-4548-856d-4923ddaba0dc","{""num_scrambled_semantic"":""8"",""num_scrambled_causal"":""4"",""num_scrambled_schematic"":""4"",""participantId"":""9B9A0B39821046F8B13EF2DEFE3035EE"",""assignmentId"":""54e0fc9d-e2b5-4525-8146-7d16b2f5cf30"",""projectId"":""051c06f1-75cc-4548-856d-4923ddaba0dc""}","https://test12345.live/?num_scrambled_semantic=8&num_scrambled_causal=4&num_scrambled_schematic=4&participantId=9B9A0B39821046F8B13EF2DEFE3035EE&assignmentId=54e0fc9d-e2b5-4525-8146-7d16b2f5cf30&projectId=051c06f1-75cc-4548-856d-4923ddaba0dc","9B9A0B39821046F8B13EF2DEFE3035EE-2025-05-15-19-23-52","","null","","images/schematic_sequence/dinner_party_scheme/dinner_party_scheme_6.png","null","",""
"","","","","","image-button-response","64","339615","0.0-12.0-1.0-1.2","9B9A0B39821046F8B13EF2DEFE3035EE","9B9A0B39821046F8B13EF2DEFE3035EE","54e0fc9d-e2b5-4525-8146-7d16b2f5cf30","051c06f1-75cc-4548-856d-4923ddaba0dc","{""num_scrambled_semantic"":""8"",""num_scrambled_causal"":""4"",""num_scrambled_schematic"":""4"",""participantId"":""9B9A0B39821046F8B13EF2DEFE3035EE"",""assignmentId"":""54e0fc9d-e2b5-4525-8146-7d16b2f5cf30"",""projectId"":""051c06f1-75cc-4548-856d-4923ddaba0dc""}","https://test12345.live/?num_scrambled_semantic=8&num_scrambled_causal=4&num_scrambled_schematic=4&participantId=9B9A0B39821046F8B13EF2DEFE3035EE&assignmentId=54e0fc9d-e2b5-4525-8146-7d16b2f5cf30&projectId=051c06f1-75cc-4548-856d-4923ddaba0dc","9B9A0B39821046F8B13EF2DEFE3035EE-2025-05-15-19-23-52","","3927","","images/schematic_sequence/dinner_party_scheme/dinner_party_scheme_6.png","0","",""
"","","","","","image-button-response","65","341426","0.0-12.0-1.0-2.2","9B9A0B39821046F8B13EF2DEFE3035EE","9B9A0B39821046F8B13EF2DEFE3035EE","54e0fc9d-e2b5-4525-8146-7d16b2f5cf30","051c06f1-75cc-4548-856d-4923ddaba0dc","{""num_scrambled_semantic"":""8"",""num_scrambled_causal"":""4"",""num_scrambled_schematic"":""4"",""participantId"":""9B9A0B39821046F8B13EF2DEFE3035EE"",""assignmentId"":""54e0fc9d-e2b5-4525-8146-7d16b2f5cf30"",""projectId"":""051c06f1-75cc-4548-856d-4923ddaba0dc""}","https://test12345.live/?num_scrambled_semantic=8&num_scrambled_causal=4&num_scrambled_schematic=4&participantId=9B9A0B39821046F8B13EF2DEFE3035EE&assignmentId=54e0fc9d-e2b5-4525-8146-7d16b2f5cf30&projectId=051c06f1-75cc-4548-856d-4923ddaba0dc","9B9A0B39821046F8B13EF2DEFE3035EE-2025-05-15-19-23-52","","null","","[]","null","",""
"","","","","","image-button-response","66","345936","0.0-12.0-1.0-0.3","9B9A0B39821046F8B13EF2DEFE3035EE","9B9A0B39821046F8B13EF2DEFE3035EE","54e0fc9d-e2b5-4525-8146-7d16b2f5cf30","051c06f1-75cc-4548-856d-4923ddaba0dc","{""num_scrambled_semantic"":""8"",""num_scrambled_causal"":""4"",""num_scrambled_schematic"":""4"",""participantId"":""9B9A0B39821046F8B13EF2DEFE3035EE"",""assignmentId"":""54e0fc9d-e2b5-4525-8146-7d16b2f5cf30"",""projectId"":""051c06f1-75cc-4548-856d-4923ddaba0dc""}","https://test12345.live/?num_scrambled_semantic=8&num_scrambled_causal=4&num_scrambled_schematic=4&participantId=9B9A0B39821046F8B13EF2DEFE3035EE&assignmentId=54e0fc9d-e2b5-4525-8146-7d16b2f5cf30&projectId=051c06f1-75cc-4548-856d-4923ddaba0dc","9B9A0B39821046F8B13EF2DEFE3035EE-2025-05-15-19-23-52","","null","","images/schematic_sequence/dinner_party_scheme/dinner_party_scheme_9.png","null","",""
"","","","","","image-button-response","67","349239","0.0-12.0-1.0-1.3","9B9A0B39821046F8B13EF2DEFE3035EE","9B9A0B39821046F8B13EF2DEFE3035EE","54e0fc9d-e2b5-4525-8146-7d16b2f5cf30","051c06f1-75cc-4548-856d-4923ddaba0dc","{""num_scrambled_semantic"":""8"",""num_scrambled_causal"":""4"",""num_scrambled_schematic"":""4"",""participantId"":""9B9A0B39821046F8B13EF2DEFE3035EE"",""assignmentId"":""54e0fc9d-e2b5-4525-8146-7d16b2f5cf30"",""projectId"":""051c06f1-75cc-4548-856d-4923ddaba0dc""}","https://test12345.live/?num_scrambled_semantic=8&num_scrambled_causal=4&num_scrambled_schematic=4&participantId=9B9A0B39821046F8B13EF2DEFE3035EE&assignmentId=54e0fc9d-e2b5-4525-8146-7d16b2f5cf30&projectId=051c06f1-75cc-4548-856d-4923ddaba0dc","9B9A0B39821046F8B13EF2DEFE3035EE-2025-05-15-19-23-52","","3301","","images/schematic_sequence/dinner_party_scheme/dinner_party_scheme_9.png","0","",""
"","","","","","image-button-response","68","351057","0.0-12.0-1.0-2.3","9B9A0B39821046F8B13EF2DEFE3035EE","9B9A0B39821046F8B13EF2DEFE3035EE","54e0fc9d-e2b5-4525-8146-7d16b2f5cf30","051c06f1-75cc-4548-856d-4923ddaba0dc","{""num_scrambled_semantic"":""8"",""num_scrambled_causal"":""4"",""num_scrambled_schematic"":""4"",""participantId"":""9B9A0B39821046F8B13EF2DEFE3035EE"",""assignmentId"":""54e0fc9d-e2b5-4525-8146-7d16b2f5cf30"",""projectId"":""051c06f1-75cc-4548-856d-4923ddaba0dc""}","https://test12345.live/?num_scrambled_semantic=8&num_scrambled_causal=4&num_scrambled_schematic=4&participantId=9B9A0B39821046F8B13EF2DEFE3035EE&assignmentId=54e0fc9d-e2b5-4525-8146-7d16b2f5cf30&projectId=051c06f1-75cc-4548-856d-4923ddaba0dc","9B9A0B39821046F8B13EF2DEFE3035EE-2025-05-15-19-23-52","","null","","[]","null","",""
"","","","","","image-button-response","69","355566","0.0-12.0-1.0-0.4","9B9A0B39821046F8B13EF2DEFE3035EE","9B9A0B39821046F8B13EF2DEFE3035EE","54e0fc9d-e2b5-4525-8146-7d16b2f5cf30","051c06f1-75cc-4548-856d-4923ddaba0dc","{""num_scrambled_semantic"":""8"",""num_scrambled_causal"":""4"",""num_scrambled_schematic"":""4"",""participantId"":""9B9A0B39821046F8B13EF2DEFE3035EE"",""assignmentId"":""54e0fc9d-e2b5-4525-8146-7d16b2f5cf30"",""projectId"":""051c06f1-75cc-4548-856d-4923ddaba0dc""}","https://test12345.live/?num_scrambled_semantic=8&num_scrambled_causal=4&num_scrambled_schematic=4&participantId=9B9A0B39821046F8B13EF2DEFE3035EE&assignmentId=54e0fc9d-e2b5-4525-8146-7d16b2f5cf30&projectId=051c06f1-75cc-4548-856d-4923ddaba0dc","9B9A0B39821046F8B13EF2DEFE3035EE-2025-05-15-19-23-52","","null","","images/schematic_sequence/dinner_party_scheme/dinner_party_scheme_8.png","null","",""
"","","","","","image-button-response","70","356247","0.0-12.0-1.0-1.4","9B9A0B39821046F8B13EF2DEFE3035EE","9B9A0B39821046F8B13EF2DEFE3035EE","54e0fc9d-e2b5-4525-8146-7d16b2f5cf30","051c06f1-75cc-4548-856d-4923ddaba0dc","{""num_scrambled_semantic"":""8"",""num_scrambled_causal"":""4"",""num_scrambled_schematic"":""4"",""participantId"":""9B9A0B39821046F8B13EF2DEFE3035EE"",""assignmentId"":""54e0fc9d-e2b5-4525-8146-7d16b2f5cf30"",""projectId"":""051c06f1-75cc-4548-856d-4923ddaba0dc""}","https://test12345.live/?num_scrambled_semantic=8&num_scrambled_causal=4&num_scrambled_schematic=4&participantId=9B9A0B39821046F8B13EF2DEFE3035EE&assignmentId=54e0fc9d-e2b5-4525-8146-7d16b2f5cf30&projectId=051c06f1-75cc-4548-856d-4923ddaba0dc","9B9A0B39821046F8B13EF2DEFE3035EE-2025-05-15-19-23-52","","679","","images/schematic_sequence/dinner_party_scheme/dinner_party_scheme_8.png","0","",""
"","","","","","image-button-response","71","358052","0.0-12.0-1.0-2.4","9B9A0B39821046F8B13EF2DEFE3035EE","9B9A0B39821046F8B13EF2DEFE3035EE","54e0fc9d-e2b5-4525-8146-7d16b2f5cf30","051c06f1-75cc-4548-856d-4923ddaba0dc","{""num_scrambled_semantic"":""8"",""num_scrambled_causal"":""4"",""num_scrambled_schematic"":""4"",""participantId"":""9B9A0B39821046F8B13EF2DEFE3035EE"",""assignmentId"":""54e0fc9d-e2b5-4525-8146-7d16b2f5cf30"",""projectId"":""051c06f1-75cc-4548-856d-4923ddaba0dc""}","https://test12345.live/?num_scrambled_semantic=8&num_scrambled_causal=4&num_scrambled_schematic=4&participantId=9B9A0B39821046F8B13EF2DEFE3035EE&assignmentId=54e0fc9d-e2b5-4525-8146-7d16b2f5cf30&projectId=051c06f1-75cc-4548-856d-4923ddaba0dc","9B9A0B39821046F8B13EF2DEFE3035EE-2025-05-15-19-23-52","","null","","[]","null","",""
"","","","","","image-button-response","72","362566","0.0-12.0-1.0-0.5","9B9A0B39821046F8B13EF2DEFE3035EE","9B9A0B39821046F8B13EF2DEFE3035EE","54e0fc9d-e2b5-4525-8146-7d16b2f5cf30","051c06f1-75cc-4548-856d-4923ddaba0dc","{""num_scrambled_semantic"":""8"",""num_scrambled_causal"":""4"",""num_scrambled_schematic"":""4"",""participantId"":""9B9A0B39821046F8B13EF2DEFE3035EE"",""assignmentId"":""54e0fc9d-e2b5-4525-8146-7d16b2f5cf30"",""projectId"":""051c06f1-75cc-4548-856d-4923ddaba0dc""}","https://test12345.live/?num_scrambled_semantic=8&num_scrambled_causal=4&num_scrambled_schematic=4&participantId=9B9A0B39821046F8B13EF2DEFE3035EE&assignmentId=54e0fc9d-e2b5-4525-8146-7d16b2f5cf30&projectId=051c06f1-75cc-4548-856d-4923ddaba0dc","9B9A0B39821046F8B13EF2DEFE3035EE-2025-05-15-19-23-52","","null","","images/schematic_sequence/dinner_party_scheme/dinner_party_scheme_3.png","null","",""
"","","","","","image-button-response","73","363431","0.0-12.0-1.0-1.5","9B9A0B39821046F8B13EF2DEFE3035EE","9B9A0B39821046F8B13EF2DEFE3035EE","54e0fc9d-e2b5-4525-8146-7d16b2f5cf30","051c06f1-75cc-4548-856d-4923ddaba0dc","{""num_scrambled_semantic"":""8"",""num_scrambled_causal"":""4"",""num_scrambled_schematic"":""4"",""participantId"":""9B9A0B39821046F8B13EF2DEFE3035EE"",""assignmentId"":""54e0fc9d-e2b5-4525-8146-7d16b2f5cf30"",""projectId"":""051c06f1-75cc-4548-856d-4923ddaba0dc""}","https://test12345.live/?num_scrambled_semantic=8&num_scrambled_causal=4&num_scrambled_schematic=4&participantId=9B9A0B39821046F8B13EF2DEFE3035EE&assignmentId=54e0fc9d-e2b5-4525-8146-7d16b2f5cf30&projectId=051c06f1-75cc-4548-856d-4923ddaba0dc","9B9A0B39821046F8B13EF2DEFE3035EE-2025-05-15-19-23-52","","863","","images/schematic_sequence/dinner_party_scheme/dinner_party_scheme_3.png","0","",""
"","","","","","image-button-response","74","365236","0.0-12.0-1.0-2.5","9B9A0B39821046F8B13EF2DEFE3035EE","9B9A0B39821046F8B13EF2DEFE3035EE","54e0fc9d-e2b5-4525-8146-7d16b2f5cf30","051c06f1-75cc-4548-856d-4923ddaba0dc","{""num_scrambled_semantic"":""8"",""num_scrambled_causal"":""4"",""num_scrambled_schematic"":""4"",""participantId"":""9B9A0B39821046F8B13EF2DEFE3035EE"",""assignmentId"":""54e0fc9d-e2b5-4525-8146-7d16b2f5cf30"",""projectId"":""051c06f1-75cc-4548-856d-4923ddaba0dc""}","https://test12345.live/?num_scrambled_semantic=8&num_scrambled_causal=4&num_scrambled_schematic=4&participantId=9B9A0B39821046F8B13EF2DEFE3035EE&assignmentId=54e0fc9d-e2b5-4525-8146-7d16b2f5cf30&projectId=051c06f1-75cc-4548-856d-4923ddaba0dc","9B9A0B39821046F8B13EF2DEFE3035EE-2025-05-15-19-23-52","","null","","[]","null","",""
"","","","","","image-button-response","75","369747","0.0-12.0-1.0-0.6","9B9A0B39821046F8B13EF2DEFE3035EE","9B9A0B39821046F8B13EF2DEFE3035EE","54e0fc9d-e2b5-4525-8146-7d16b2f5cf30","051c06f1-75cc-4548-856d-4923ddaba0dc","{""num_scrambled_semantic"":""8"",""num_scrambled_causal"":""4"",""num_scrambled_schematic"":""4"",""participantId"":""9B9A0B39821046F8B13EF2DEFE3035EE"",""assignmentId"":""54e0fc9d-e2b5-4525-8146-7d16b2f5cf30"",""projectId"":""051c06f1-75cc-4548-856d-4923ddaba0dc""}","https://test12345.live/?num_scrambled_semantic=8&num_scrambled_causal=4&num_scrambled_schematic=4&participantId=9B9A0B39821046F8B13EF2DEFE3035EE&assignmentId=54e0fc9d-e2b5-4525-8146-7d16b2f5cf30&projectId=051c06f1-75cc-4548-856d-4923ddaba0dc","9B9A0B39821046F8B13EF2DEFE3035EE-2025-05-15-19-23-52","","null","","images/schematic_sequence/dinner_party_scheme/dinner_party_scheme_7.png","null","",""
"","","","","","image-button-response","76","370415","0.0-12.0-1.0-1.6","9B9A0B39821046F8B13EF2DEFE3035EE","9B9A0B39821046F8B13EF2DEFE3035EE","54e0fc9d-e2b5-4525-8146-7d16b2f5cf30","051c06f1-75cc-4548-856d-4923ddaba0dc","{""num_scrambled_semantic"":""8"",""num_scrambled_causal"":""4"",""num_scrambled_schematic"":""4"",""participantId"":""9B9A0B39821046F8B13EF2DEFE3035EE"",""assignmentId"":""54e0fc9d-e2b5-4525-8146-7d16b2f5cf30"",""projectId"":""051c06f1-75cc-4548-856d-4923ddaba0dc""}","https://test12345.live/?num_scrambled_semantic=8&num_scrambled_causal=4&num_scrambled_schematic=4&participantId=9B9A0B39821046F8B13EF2DEFE3035EE&assignmentId=54e0fc9d-e2b5-4525-8146-7d16b2f5cf30&projectId=051c06f1-75cc-4548-856d-4923ddaba0dc","9B9A0B39821046F8B13EF2DEFE3035EE-2025-05-15-19-23-52","","666","","images/schematic_sequence/dinner_party_scheme/dinner_party_scheme_7.png","0","",""
"","","","","","image-button-response","77","372236","0.0-12.0-1.0-2.6","9B9A0B39821046F8B13EF2DEFE3035EE","9B9A0B39821046F8B13EF2DEFE3035EE","54e0fc9d-e2b5-4525-8146-7d16b2f5cf30","051c06f1-75cc-4548-856d-4923ddaba0dc","{""num_scrambled_semantic"":""8"",""num_scrambled_causal"":""4"",""num_scrambled_schematic"":""4"",""participantId"":""9B9A0B39821046F8B13EF2DEFE3035EE"",""assignmentId"":""54e0fc9d-e2b5-4525-8146-7d16b2f5cf30"",""projectId"":""051c06f1-75cc-4548-856d-4923ddaba0dc""}","https://test12345.live/?num_scrambled_semantic=8&num_scrambled_causal=4&num_scrambled_schematic=4&participantId=9B9A0B39821046F8B13EF2DEFE3035EE&assignmentId=54e0fc9d-e2b5-4525-8146-7d16b2f5cf30&projectId=051c06f1-75cc-4548-856d-4923ddaba0dc","9B9A0B39821046F8B13EF2DEFE3035EE-2025-05-15-19-23-52","","null","","[]","null","",""
"","","","","","image-button-response","78","376747","0.0-12.0-1.0-0.7","9B9A0B39821046F8B13EF2DEFE3035EE","9B9A0B39821046F8B13EF2DEFE3035EE","54e0fc9d-e2b5-4525-8146-7d16b2f5cf30","051c06f1-75cc-4548-856d-4923ddaba0dc","{""num_scrambled_semantic"":""8"",""num_scrambled_causal"":""4"",""num_scrambled_schematic"":""4"",""participantId"":""9B9A0B39821046F8B13EF2DEFE3035EE"",""assignmentId"":""54e0fc9d-e2b5-4525-8146-7d16b2f5cf30"",""projectId"":""051c06f1-75cc-4548-856d-4923ddaba0dc""}","https://test12345.live/?num_scrambled_semantic=8&num_scrambled_causal=4&num_scrambled_schematic=4&participantId=9B9A0B39821046F8B13EF2DEFE3035EE&assignmentId=54e0fc9d-e2b5-4525-8146-7d16b2f5cf30&projectId=051c06f1-75cc-4548-856d-4923ddaba0dc","9B9A0B39821046F8B13EF2DEFE3035EE-2025-05-15-19-23-52","","null","","images/schematic_sequence/dinner_party_scheme/dinner_party_scheme_4.png","null","",""
"","","","","","image-button-response","79","377542","0.0-12.0-1.0-1.7","9B9A0B39821046F8B13EF2DEFE3035EE","9B9A0B39821046F8B13EF2DEFE3035EE","54e0fc9d-e2b5-4525-8146-7d16b2f5cf30","051c06f1-75cc-4548-856d-4923ddaba0dc","{""num_scrambled_semantic"":""8"",""num_scrambled_causal"":""4"",""num_scrambled_schematic"":""4"",""participantId"":""9B9A0B39821046F8B13EF2DEFE3035EE"",""assignmentId"":""54e0fc9d-e2b5-4525-8146-7d16b2f5cf30"",""projectId"":""051c06f1-75cc-4548-856d-4923ddaba0dc""}","https://test12345.live/?num_scrambled_semantic=8&num_scrambled_causal=4&num_scrambled_schematic=4&participantId=9B9A0B39821046F8B13EF2DEFE3035EE&assignmentId=54e0fc9d-e2b5-4525-8146-7d16b2f5cf30&projectId=051c06f1-75cc-4548-856d-4923ddaba0dc","9B9A0B39821046F8B13EF2DEFE3035EE-2025-05-15-19-23-52","","794","","images/schematic_sequence/dinner_party_scheme/dinner_party_scheme_4.png","0","",""
"","","","","","image-button-response","80","379356","0.0-12.0-1.0-2.7","9B9A0B39821046F8B13EF2DEFE3035EE","9B9A0B39821046F8B13EF2DEFE3035EE","54e0fc9d-e2b5-4525-8146-7d16b2f5cf30","051c06f1-75cc-4548-856d-4923ddaba0dc","{""num_scrambled_semantic"":""8"",""num_scrambled_causal"":""4"",""num_scrambled_schematic"":""4"",""participantId"":""9B9A0B39821046F8B13EF2DEFE3035EE"",""assignmentId"":""54e0fc9d-e2b5-4525-8146-7d16b2f5cf30"",""projectId"":""051c06f1-75cc-4548-856d-4923ddaba0dc""}","https://test12345.live/?num_scrambled_semantic=8&num_scrambled_causal=4&num_scrambled_schematic=4&participantId=9B9A0B39821046F8B13EF2DEFE3035EE&assignmentId=54e0fc9d-e2b5-4525-8146-7d16b2f5cf30&projectId=051c06f1-75cc-4548-856d-4923ddaba0dc","9B9A0B39821046F8B13EF2DEFE3035EE-2025-05-15-19-23-52","","null","","[]","null","",""
"","","","","","image-button-response","81","383857","0.0-12.0-1.0-0.8","9B9A0B39821046F8B13EF2DEFE3035EE","9B9A0B39821046F8B13EF2DEFE3035EE","54e0fc9d-e2b5-4525-8146-7d16b2f5cf30","051c06f1-75cc-4548-856d-4923ddaba0dc","{""num_scrambled_semantic"":""8"",""num_scrambled_causal"":""4"",""num_scrambled_schematic"":""4"",""participantId"":""9B9A0B39821046F8B13EF2DEFE3035EE"",""assignmentId"":""54e0fc9d-e2b5-4525-8146-7d16b2f5cf30"",""projectId"":""051c06f1-75cc-4548-856d-4923ddaba0dc""}","https://test12345.live/?num_scrambled_semantic=8&num_scrambled_causal=4&num_scrambled_schematic=4&participantId=9B9A0B39821046F8B13EF2DEFE3035EE&assignmentId=54e0fc9d-e2b5-4525-8146-7d16b2f5cf30&projectId=051c06f1-75cc-4548-856d-4923ddaba0dc","9B9A0B39821046F8B13EF2DEFE3035EE-2025-05-15-19-23-52","","null","","images/schematic_sequence/dinner_party_scheme/dinner_party_scheme_1.png","null","",""
"","","","","","image-button-response","82","384687","0.0-12.0-1.0-1.8","9B9A0B39821046F8B13EF2DEFE3035EE","9B9A0B39821046F8B13EF2DEFE3035EE","54e0fc9d-e2b5-4525-8146-7d16b2f5cf30","051c06f1-75cc-4548-856d-4923ddaba0dc","{""num_scrambled_semantic"":""8"",""num_scrambled_causal"":""4"",""num_scrambled_schematic"":""4"",""participantId"":""9B9A0B39821046F8B13EF2DEFE3035EE"",""assignmentId"":""54e0fc9d-e2b5-4525-8146-7d16b2f5cf30"",""projectId"":""051c06f1-75cc-4548-856d-4923ddaba0dc""}","https://test12345.live/?num_scrambled_semantic=8&num_scrambled_causal=4&num_scrambled_schematic=4&participantId=9B9A0B39821046F8B13EF2DEFE3035EE&assignmentId=54e0fc9d-e2b5-4525-8146-7d16b2f5cf30&projectId=051c06f1-75cc-4548-856d-4923ddaba0dc","9B9A0B39821046F8B13EF2DEFE3035EE-2025-05-15-19-23-52","","828","","images/schematic_sequence/dinner_party_scheme/dinner_party_scheme_1.png","0","",""
"","","","","","image-button-response","83","386506","0.0-12.0-1.0-2.8","9B9A0B39821046F8B13EF2DEFE3035EE","9B9A0B39821046F8B13EF2DEFE3035EE","54e0fc9d-e2b5-4525-8146-7d16b2f5cf30","051c06f1-75cc-4548-856d-4923ddaba0dc","{""num_scrambled_semantic"":""8"",""num_scrambled_causal"":""4"",""num_scrambled_schematic"":""4"",""participantId"":""9B9A0B39821046F8B13EF2DEFE3035EE"",""assignmentId"":""54e0fc9d-e2b5-4525-8146-7d16b2f5cf30"",""projectId"":""051c06f1-75cc-4548-856d-4923ddaba0dc""}","https://test12345.live/?num_scrambled_semantic=8&num_scrambled_causal=4&num_scrambled_schematic=4&participantId=9B9A0B39821046F8B13EF2DEFE3035EE&assignmentId=54e0fc9d-e2b5-4525-8146-7d16b2f5cf30&projectId=051c06f1-75cc-4548-856d-4923ddaba0dc","9B9A0B39821046F8B13EF2DEFE3035EE-2025-05-15-19-23-52","","null","","[]","null","",""
"","","","","","image-button-response","84","391016","0.0-12.0-1.0-0.9","9B9A0B39821046F8B13EF2DEFE3035EE","9B9A0B39821046F8B13EF2DEFE3035EE","54e0fc9d-e2b5-4525-8146-7d16b2f5cf30","051c06f1-75cc-4548-856d-4923ddaba0dc","{""num_scrambled_semantic"":""8"",""num_scrambled_causal"":""4"",""num_scrambled_schematic"":""4"",""participantId"":""9B9A0B39821046F8B13EF2DEFE3035EE"",""assignmentId"":""54e0fc9d-e2b5-4525-8146-7d16b2f5cf30"",""projectId"":""051c06f1-75cc-4548-856d-4923ddaba0dc""}","https://test12345.live/?num_scrambled_semantic=8&num_scrambled_causal=4&num_scrambled_schematic=4&participantId=9B9A0B39821046F8B13EF2DEFE3035EE&assignmentId=54e0fc9d-e2b5-4525-8146-7d16b2f5cf30&projectId=051c06f1-75cc-4548-856d-4923ddaba0dc","9B9A0B39821046F8B13EF2DEFE3035EE-2025-05-15-19-23-52","","null","","images/schematic_sequence/dinner_party_scheme/dinner_party_scheme_2.png","null","",""
"","","","","","image-button-response","85","392671","0.0-12.0-1.0-1.9","9B9A0B39821046F8B13EF2DEFE3035EE","9B9A0B39821046F8B13EF2DEFE3035EE","54e0fc9d-e2b5-4525-8146-7d16b2f5cf30","051c06f1-75cc-4548-856d-4923ddaba0dc","{""num_scrambled_semantic"":""8"",""num_scrambled_causal"":""4"",""num_scrambled_schematic"":""4"",""participantId"":""9B9A0B39821046F8B13EF2DEFE3035EE"",""assignmentId"":""54e0fc9d-e2b5-4525-8146-7d16b2f5cf30"",""projectId"":""051c06f1-75cc-4548-856d-4923ddaba0dc""}","https://test12345.live/?num_scrambled_semantic=8&num_scrambled_causal=4&num_scrambled_schematic=4&participantId=9B9A0B39821046F8B13EF2DEFE3035EE&assignmentId=54e0fc9d-e2b5-4525-8146-7d16b2f5cf30&projectId=051c06f1-75cc-4548-856d-4923ddaba0dc","9B9A0B39821046F8B13EF2DEFE3035EE-2025-05-15-19-23-52","","1653","","images/schematic_sequence/dinner_party_scheme/dinner_party_scheme_2.png","0","",""
"","","","","","image-button-response","86","394486","0.0-12.0-1.0-2.9","9B9A0B39821046F8B13EF2DEFE3035EE","9B9A0B39821046F8B13EF2DEFE3035EE","54e0fc9d-e2b5-4525-8146-7d16b2f5cf30","051c06f1-75cc-4548-856d-4923ddaba0dc","{""num_scrambled_semantic"":""8"",""num_scrambled_causal"":""4"",""num_scrambled_schematic"":""4"",""participantId"":""9B9A0B39821046F8B13EF2DEFE3035EE"",""assignmentId"":""54e0fc9d-e2b5-4525-8146-7d16b2f5cf30"",""projectId"":""051c06f1-75cc-4548-856d-4923ddaba0dc""}","https://test12345.live/?num_scrambled_semantic=8&num_scrambled_causal=4&num_scrambled_schematic=4&participantId=9B9A0B39821046F8B13EF2DEFE3035EE&assignmentId=54e0fc9d-e2b5-4525-8146-7d16b2f5cf30&projectId=051c06f1-75cc-4548-856d-4923ddaba0dc","9B9A0B39821046F8B13EF2DEFE3035EE-2025-05-15-19-23-52","","null","","[]","null","",""
"","","","","","html-audio-response","87","429350","0.0-13.0","9B9A0B39821046F8B13EF2DEFE3035EE","9B9A0B39821046F8B13EF2DEFE3035EE","54e0fc9d-e2b5-4525-8146-7d16b2f5cf30","051c06f1-75cc-4548-856d-4923ddaba0dc","{""num_scrambled_semantic"":""8"",""num_scrambled_causal"":""4"",""num_scrambled_schematic"":""4"",""participantId"":""9B9A0B39821046F8B13EF2DEFE3035EE"",""assignmentId"":""54e0fc9d-e2b5-4525-8146-7d16b2f5cf30"",""projectId"":""051c06f1-75cc-4548-856d-4923ddaba0dc""}","https://test12345.live/?num_scrambled_semantic=8&num_scrambled_causal=4&num_scrambled_schematic=4&participantId=9B9A0B39821046F8B13EF2DEFE3035EE&assignmentId=54e0fc9d-e2b5-4525-8146-7d16b2f5cf30&projectId=051c06f1-75cc-4548-856d-4923ddaba0dc","9B9A0B39821046F8B13EF2DEFE3035EE-2025-05-15-19-23-52","","33811","","[""<span style=\""color: red; font-size: 24px\""> NOW RECORDING</span><p>Please say out loud all the images you saw, as many as you can remember. The images can be said in any order.</p>""]","","1","dinner_party_scheme"
"","","","","","image-button-response","88","435376","0.0-14.0-0.0","9B9A0B39821046F8B13EF2DEFE3035EE","9B9A0B39821046F8B13EF2DEFE3035EE","54e0fc9d-e2b5-4525-8146-7d16b2f5cf30","051c06f1-75cc-4548-856d-4923ddaba0dc","{""num_scrambled_semantic"":""8"",""num_scrambled_causal"":""4"",""num_scrambled_schematic"":""4"",""participantId"":""9B9A0B39821046F8B13EF2DEFE3035EE"",""assignmentId"":""54e0fc9d-e2b5-4525-8146-7d16b2f5cf30"",""projectId"":""051c06f1-75cc-4548-856d-4923ddaba0dc""}","https://test12345.live/?num_scrambled_semantic=8&num_scrambled_causal=4&num_scrambled_schematic=4&participantId=9B9A0B39821046F8B13EF2DEFE3035EE&assignmentId=54e0fc9d-e2b5-4525-8146-7d16b2f5cf30&projectId=051c06f1-75cc-4548-856d-4923ddaba0dc","9B9A0B39821046F8B13EF2DEFE3035EE-2025-05-15-19-23-52","","null","","images/semantic_sequence/market_semantic/market_semantic_0.png","null","",""
"","","","","","image-button-response","89","439896","0.0-14.0-1.0-0.0","9B9A0B39821046F8B13EF2DEFE3035EE","9B9A0B39821046F8B13EF2DEFE3035EE","54e0fc9d-e2b5-4525-8146-7d16b2f5cf30","051c06f1-75cc-4548-856d-4923ddaba0dc","{""num_scrambled_semantic"":""8"",""num_scrambled_causal"":""4"",""num_scrambled_schematic"":""4"",""participantId"":""9B9A0B39821046F8B13EF2DEFE3035EE"",""assignmentId"":""54e0fc9d-e2b5-4525-8146-7d16b2f5cf30"",""projectId"":""051c06f1-75cc-4548-856d-4923ddaba0dc""}","https://test12345.live/?num_scrambled_semantic=8&num_scrambled_causal=4&num_scrambled_schematic=4&participantId=9B9A0B39821046F8B13EF2DEFE3035EE&assignmentId=54e0fc9d-e2b5-4525-8146-7d16b2f5cf30&projectId=051c06f1-75cc-4548-856d-4923ddaba0dc","9B9A0B39821046F8B13EF2DEFE3035EE-2025-05-15-19-23-52","","null","","images/semantic_sequence/market_semantic/market_semantic_1.png","null","",""
"","","","","","image-button-response","90","441302","0.0-14.0-1.0-1.0","9B9A0B39821046F8B13EF2DEFE3035EE","9B9A0B39821046F8B13EF2DEFE3035EE","54e0fc9d-e2b5-4525-8146-7d16b2f5cf30","051c06f1-75cc-4548-856d-4923ddaba0dc","{""num_scrambled_semantic"":""8"",""num_scrambled_causal"":""4"",""num_scrambled_schematic"":""4"",""participantId"":""9B9A0B39821046F8B13EF2DEFE3035EE"",""assignmentId"":""54e0fc9d-e2b5-4525-8146-7d16b2f5cf30"",""projectId"":""051c06f1-75cc-4548-856d-4923ddaba0dc""}","https://test12345.live/?num_scrambled_semantic=8&num_scrambled_causal=4&num_scrambled_schematic=4&participantId=9B9A0B39821046F8B13EF2DEFE3035EE&assignmentId=54e0fc9d-e2b5-4525-8146-7d16b2f5cf30&projectId=051c06f1-75cc-4548-856d-4923ddaba0dc","9B9A0B39821046F8B13EF2DEFE3035EE-2025-05-15-19-23-52","","1405","","images/semantic_sequence/market_semantic/market_semantic_1.png","1","",""
"","","","","","image-button-response","91","443115","0.0-14.0-1.0-2.0","9B9A0B39821046F8B13EF2DEFE3035EE","9B9A0B39821046F8B13EF2DEFE3035EE","54e0fc9d-e2b5-4525-8146-7d16b2f5cf30","051c06f1-75cc-4548-856d-4923ddaba0dc","{""num_scrambled_semantic"":""8"",""num_scrambled_causal"":""4"",""num_scrambled_schematic"":""4"",""participantId"":""9B9A0B39821046F8B13EF2DEFE3035EE"",""assignmentId"":""54e0fc9d-e2b5-4525-8146-7d16b2f5cf30"",""projectId"":""051c06f1-75cc-4548-856d-4923ddaba0dc""}","https://test12345.live/?num_scrambled_semantic=8&num_scrambled_causal=4&num_scrambled_schematic=4&participantId=9B9A0B39821046F8B13EF2DEFE3035EE&assignmentId=54e0fc9d-e2b5-4525-8146-7d16b2f5cf30&projectId=051c06f1-75cc-4548-856d-4923ddaba0dc","9B9A0B39821046F8B13EF2DEFE3035EE-2025-05-15-19-23-52","","null","","[]","null","",""
"","","","","","image-button-response","92","447627","0.0-14.0-1.0-0.1","9B9A0B39821046F8B13EF2DEFE3035EE","9B9A0B39821046F8B13EF2DEFE3035EE","54e0fc9d-e2b5-4525-8146-7d16b2f5cf30","051c06f1-75cc-4548-856d-4923ddaba0dc","{""num_scrambled_semantic"":""8"",""num_scrambled_causal"":""4"",""num_scrambled_schematic"":""4"",""participantId"":""9B9A0B39821046F8B13EF2DEFE3035EE"",""assignmentId"":""54e0fc9d-e2b5-4525-8146-7d16b2f5cf30"",""projectId"":""051c06f1-75cc-4548-856d-4923ddaba0dc""}","https://test12345.live/?num_scrambled_semantic=8&num_scrambled_causal=4&num_scrambled_schematic=4&participantId=9B9A0B39821046F8B13EF2DEFE3035EE&assignmentId=54e0fc9d-e2b5-4525-8146-7d16b2f5cf30&projectId=051c06f1-75cc-4548-856d-4923ddaba0dc","9B9A0B39821046F8B13EF2DEFE3035EE-2025-05-15-19-23-52","","null","","images/semantic_sequence/market_semantic/market_semantic_2.png","null","",""
"","","","","","image-button-response","93","448342","0.0-14.0-1.0-1.1","9B9A0B39821046F8B13EF2DEFE3035EE","9B9A0B39821046F8B13EF2DEFE3035EE","54e0fc9d-e2b5-4525-8146-7d16b2f5cf30","051c06f1-75cc-4548-856d-4923ddaba0dc","{""num_scrambled_semantic"":""8"",""num_scrambled_causal"":""4"",""num_scrambled_schematic"":""4"",""participantId"":""9B9A0B39821046F8B13EF2DEFE3035EE"",""assignmentId"":""54e0fc9d-e2b5-4525-8146-7d16b2f5cf30"",""projectId"":""051c06f1-75cc-4548-856d-4923ddaba0dc""}","https://test12345.live/?num_scrambled_semantic=8&num_scrambled_causal=4&num_scrambled_schematic=4&participantId=9B9A0B39821046F8B13EF2DEFE3035EE&assignmentId=54e0fc9d-e2b5-4525-8146-7d16b2f5cf30&projectId=051c06f1-75cc-4548-856d-4923ddaba0dc","9B9A0B39821046F8B13EF2DEFE3035EE-2025-05-15-19-23-52","","714","","images/semantic_sequence/market_semantic/market_semantic_2.png","1","",""
"","","","","","image-button-response","94","450155","0.0-14.0-1.0-2.1","9B9A0B39821046F8B13EF2DEFE3035EE","9B9A0B39821046F8B13EF2DEFE3035EE","54e0fc9d-e2b5-4525-8146-7d16b2f5cf30","051c06f1-75cc-4548-856d-4923ddaba0dc","{""num_scrambled_semantic"":""8"",""num_scrambled_causal"":""4"",""num_scrambled_schematic"":""4"",""participantId"":""9B9A0B39821046F8B13EF2DEFE3035EE"",""assignmentId"":""54e0fc9d-e2b5-4525-8146-7d16b2f5cf30"",""projectId"":""051c06f1-75cc-4548-856d-4923ddaba0dc""}","https://test12345.live/?num_scrambled_semantic=8&num_scrambled_causal=4&num_scrambled_schematic=4&participantId=9B9A0B39821046F8B13EF2DEFE3035EE&assignmentId=54e0fc9d-e2b5-4525-8146-7d16b2f5cf30&projectId=051c06f1-75cc-4548-856d-4923ddaba0dc","9B9A0B39821046F8B13EF2DEFE3035EE-2025-05-15-19-23-52","","null","","[]","null","",""
"","","","","","image-button-response","95","454675","0.0-14.0-1.0-0.2","9B9A0B39821046F8B13EF2DEFE3035EE","9B9A0B39821046F8B13EF2DEFE3035EE","54e0fc9d-e2b5-4525-8146-7d16b2f5cf30","051c06f1-75cc-4548-856d-4923ddaba0dc","{""num_scrambled_semantic"":""8"",""num_scrambled_causal"":""4"",""num_scrambled_schematic"":""4"",""participantId"":""9B9A0B39821046F8B13EF2DEFE3035EE"",""assignmentId"":""54e0fc9d-e2b5-4525-8146-7d16b2f5cf30"",""projectId"":""051c06f1-75cc-4548-856d-4923ddaba0dc""}","https://test12345.live/?num_scrambled_semantic=8&num_scrambled_causal=4&num_scrambled_schematic=4&participantId=9B9A0B39821046F8B13EF2DEFE3035EE&assignmentId=54e0fc9d-e2b5-4525-8146-7d16b2f5cf30&projectId=051c06f1-75cc-4548-856d-4923ddaba0dc","9B9A0B39821046F8B13EF2DEFE3035EE-2025-05-15-19-23-52","","null","","images/semantic_sequence/market_semantic/market_semantic_3.png","null","",""
"","","","","","image-button-response","96","457854","0.0-14.0-1.0-1.2","9B9A0B39821046F8B13EF2DEFE3035EE","9B9A0B39821046F8B13EF2DEFE3035EE","54e0fc9d-e2b5-4525-8146-7d16b2f5cf30","051c06f1-75cc-4548-856d-4923ddaba0dc","{""num_scrambled_semantic"":""8"",""num_scrambled_causal"":""4"",""num_scrambled_schematic"":""4"",""participantId"":""9B9A0B39821046F8B13EF2DEFE3035EE"",""assignmentId"":""54e0fc9d-e2b5-4525-8146-7d16b2f5cf30"",""projectId"":""051c06f1-75cc-4548-856d-4923ddaba0dc""}","https://test12345.live/?num_scrambled_semantic=8&num_scrambled_causal=4&num_scrambled_schematic=4&participantId=9B9A0B39821046F8B13EF2DEFE3035EE&assignmentId=54e0fc9d-e2b5-4525-8146-7d16b2f5cf30&projectId=051c06f1-75cc-4548-856d-4923ddaba0dc","9B9A0B39821046F8B13EF2DEFE3035EE-2025-05-15-19-23-52","","3177","","images/semantic_sequence/market_semantic/market_semantic_3.png","1","",""
"","","","","","image-button-response","97","459665","0.0-14.0-1.0-2.2","9B9A0B39821046F8B13EF2DEFE3035EE","9B9A0B39821046F8B13EF2DEFE3035EE","54e0fc9d-e2b5-4525-8146-7d16b2f5cf30","051c06f1-75cc-4548-856d-4923ddaba0dc","{""num_scrambled_semantic"":""8"",""num_scrambled_causal"":""4"",""num_scrambled_schematic"":""4"",""participantId"":""9B9A0B39821046F8B13EF2DEFE3035EE"",""assignmentId"":""54e0fc9d-e2b5-4525-8146-7d16b2f5cf30"",""projectId"":""051c06f1-75cc-4548-856d-4923ddaba0dc""}","https://test12345.live/?num_scrambled_semantic=8&num_scrambled_causal=4&num_scrambled_schematic=4&participantId=9B9A0B39821046F8B13EF2DEFE3035EE&assignmentId=54e0fc9d-e2b5-4525-8146-7d16b2f5cf30&projectId=051c06f1-75cc-4548-856d-4923ddaba0dc","9B9A0B39821046F8B13EF2DEFE3035EE-2025-05-15-19-23-52","","null","","[]","null","",""
"","","","","","image-button-response","98","464174","0.0-14.0-1.0-0.3","9B9A0B39821046F8B13EF2DEFE3035EE","9B9A0B39821046F8B13EF2DEFE3035EE","54e0fc9d-e2b5-4525-8146-7d16b2f5cf30","051c06f1-75cc-4548-856d-4923ddaba0dc","{""num_scrambled_semantic"":""8"",""num_scrambled_causal"":""4"",""num_scrambled_schematic"":""4"",""participantId"":""9B9A0B39821046F8B13EF2DEFE3035EE"",""assignmentId"":""54e0fc9d-e2b5-4525-8146-7d16b2f5cf30"",""projectId"":""051c06f1-75cc-4548-856d-4923ddaba0dc""}","https://test12345.live/?num_scrambled_semantic=8&num_scrambled_causal=4&num_scrambled_schematic=4&participantId=9B9A0B39821046F8B13EF2DEFE3035EE&assignmentId=54e0fc9d-e2b5-4525-8146-7d16b2f5cf30&projectId=051c06f1-75cc-4548-856d-4923ddaba0dc","9B9A0B39821046F8B13EF2DEFE3035EE-2025-05-15-19-23-52","","null","","images/semantic_sequence/market_semantic/market_semantic_4.png","null","",""
"","","","","","image-button-response","99","465382","0.0-14.0-1.0-1.3","9B9A0B39821046F8B13EF2DEFE3035EE","9B9A0B39821046F8B13EF2DEFE3035EE","54e0fc9d-e2b5-4525-8146-7d16b2f5cf30","051c06f1-75cc-4548-856d-4923ddaba0dc","{""num_scrambled_semantic"":""8"",""num_scrambled_causal"":""4"",""num_scrambled_schematic"":""4"",""participantId"":""9B9A0B39821046F8B13EF2DEFE3035EE"",""assignmentId"":""54e0fc9d-e2b5-4525-8146-7d16b2f5cf30"",""projectId"":""051c06f1-75cc-4548-856d-4923ddaba0dc""}","https://test12345.live/?num_scrambled_semantic=8&num_scrambled_causal=4&num_scrambled_schematic=4&participantId=9B9A0B39821046F8B13EF2DEFE3035EE&assignmentId=54e0fc9d-e2b5-4525-8146-7d16b2f5cf30&projectId=051c06f1-75cc-4548-856d-4923ddaba0dc","9B9A0B39821046F8B13EF2DEFE3035EE-2025-05-15-19-23-52","","1207","","images/semantic_sequence/market_semantic/market_semantic_4.png","0","",""
"","","","","","image-button-response","100","467185","0.0-14.0-1.0-2.3","9B9A0B39821046F8B13EF2DEFE3035EE","9B9A0B39821046F8B13EF2DEFE3035EE","54e0fc9d-e2b5-4525-8146-7d16b2f5cf30","051c06f1-75cc-4548-856d-4923ddaba0dc","{""num_scrambled_semantic"":""8"",""num_scrambled_causal"":""4"",""num_scrambled_schematic"":""4"",""participantId"":""9B9A0B39821046F8B13EF2DEFE3035EE"",""assignmentId"":""54e0fc9d-e2b5-4525-8146-7d16b2f5cf30"",""projectId"":""051c06f1-75cc-4548-856d-4923ddaba0dc""}","https://test12345.live/?num_scrambled_semantic=8&num_scrambled_causal=4&num_scrambled_schematic=4&participantId=9B9A0B39821046F8B13EF2DEFE3035EE&assignmentId=54e0fc9d-e2b5-4525-8146-7d16b2f5cf30&projectId=051c06f1-75cc-4548-856d-4923ddaba0dc","9B9A0B39821046F8B13EF2DEFE3035EE-2025-05-15-19-23-52","","null","","[]","null","",""
"","","","","","image-button-response","101","471705","0.0-14.0-1.0-0.4","9B9A0B39821046F8B13EF2DEFE3035EE","9B9A0B39821046F8B13EF2DEFE3035EE","54e0fc9d-e2b5-4525-8146-7d16b2f5cf30","051c06f1-75cc-4548-856d-4923ddaba0dc","{""num_scrambled_semantic"":""8"",""num_scrambled_causal"":""4"",""num_scrambled_schematic"":""4"",""participantId"":""9B9A0B39821046F8B13EF2DEFE3035EE"",""assignmentId"":""54e0fc9d-e2b5-4525-8146-7d16b2f5cf30"",""projectId"":""051c06f1-75cc-4548-856d-4923ddaba0dc""}","https://test12345.live/?num_scrambled_semantic=8&num_scrambled_causal=4&num_scrambled_schematic=4&participantId=9B9A0B39821046F8B13EF2DEFE3035EE&assignmentId=54e0fc9d-e2b5-4525-8146-7d16b2f5cf30&projectId=051c06f1-75cc-4548-856d-4923ddaba0dc","9B9A0B39821046F8B13EF2DEFE3035EE-2025-05-15-19-23-52","","null","","images/semantic_sequence/market_semantic/market_semantic_5.png","null","",""
"","","","","","image-button-response","102","474327","0.0-14.0-1.0-1.4","9B9A0B39821046F8B13EF2DEFE3035EE","9B9A0B39821046F8B13EF2DEFE3035EE","54e0fc9d-e2b5-4525-8146-7d16b2f5cf30","051c06f1-75cc-4548-856d-4923ddaba0dc","{""num_scrambled_semantic"":""8"",""num_scrambled_causal"":""4"",""num_scrambled_schematic"":""4"",""participantId"":""9B9A0B39821046F8B13EF2DEFE3035EE"",""assignmentId"":""54e0fc9d-e2b5-4525-8146-7d16b2f5cf30"",""projectId"":""051c06f1-75cc-4548-856d-4923ddaba0dc""}","https://test12345.live/?num_scrambled_semantic=8&num_scrambled_causal=4&num_scrambled_schematic=4&participantId=9B9A0B39821046F8B13EF2DEFE3035EE&assignmentId=54e0fc9d-e2b5-4525-8146-7d16b2f5cf30&projectId=051c06f1-75cc-4548-856d-4923ddaba0dc","9B9A0B39821046F8B13EF2DEFE3035EE-2025-05-15-19-23-52","","2620","","images/semantic_sequence/market_semantic/market_semantic_5.png","1","",""
"","","","","","image-button-response","103","476135","0.0-14.0-1.0-2.4","9B9A0B39821046F8B13EF2DEFE3035EE","9B9A0B39821046F8B13EF2DEFE3035EE","54e0fc9d-e2b5-4525-8146-7d16b2f5cf30","051c06f1-75cc-4548-856d-4923ddaba0dc","{""num_scrambled_semantic"":""8"",""num_scrambled_causal"":""4"",""num_scrambled_schematic"":""4"",""participantId"":""9B9A0B39821046F8B13EF2DEFE3035EE"",""assignmentId"":""54e0fc9d-e2b5-4525-8146-7d16b2f5cf30"",""projectId"":""051c06f1-75cc-4548-856d-4923ddaba0dc""}","https://test12345.live/?num_scrambled_semantic=8&num_scrambled_causal=4&num_scrambled_schematic=4&participantId=9B9A0B39821046F8B13EF2DEFE3035EE&assignmentId=54e0fc9d-e2b5-4525-8146-7d16b2f5cf30&projectId=051c06f1-75cc-4548-856d-4923ddaba0dc","9B9A0B39821046F8B13EF2DEFE3035EE-2025-05-15-19-23-52","","null","","[]","null","",""
"","","","","","image-button-response","104","480645","0.0-14.0-1.0-0.5","9B9A0B39821046F8B13EF2DEFE3035EE","9B9A0B39821046F8B13EF2DEFE3035EE","54e0fc9d-e2b5-4525-8146-7d16b2f5cf30","051c06f1-75cc-4548-856d-4923ddaba0dc","{""num_scrambled_semantic"":""8"",""num_scrambled_causal"":""4"",""num_scrambled_schematic"":""4"",""participantId"":""9B9A0B39821046F8B13EF2DEFE3035EE"",""assignmentId"":""54e0fc9d-e2b5-4525-8146-7d16b2f5cf30"",""projectId"":""051c06f1-75cc-4548-856d-4923ddaba0dc""}","https://test12345.live/?num_scrambled_semantic=8&num_scrambled_causal=4&num_scrambled_schematic=4&participantId=9B9A0B39821046F8B13EF2DEFE3035EE&assignmentId=54e0fc9d-e2b5-4525-8146-7d16b2f5cf30&projectId=051c06f1-75cc-4548-856d-4923ddaba0dc","9B9A0B39821046F8B13EF2DEFE3035EE-2025-05-15-19-23-52","","null","","images/semantic_sequence/market_semantic/market_semantic_6.png","null","",""
"","","","","","image-button-response","105","482534","0.0-14.0-1.0-1.5","9B9A0B39821046F8B13EF2DEFE3035EE","9B9A0B39821046F8B13EF2DEFE3035EE","54e0fc9d-e2b5-4525-8146-7d16b2f5cf30","051c06f1-75cc-4548-856d-4923ddaba0dc","{""num_scrambled_semantic"":""8"",""num_scrambled_causal"":""4"",""num_scrambled_schematic"":""4"",""participantId"":""9B9A0B39821046F8B13EF2DEFE3035EE"",""assignmentId"":""54e0fc9d-e2b5-4525-8146-7d16b2f5cf30"",""projectId"":""051c06f1-75cc-4548-856d-4923ddaba0dc""}","https://test12345.live/?num_scrambled_semantic=8&num_scrambled_causal=4&num_scrambled_schematic=4&participantId=9B9A0B39821046F8B13EF2DEFE3035EE&assignmentId=54e0fc9d-e2b5-4525-8146-7d16b2f5cf30&projectId=051c06f1-75cc-4548-856d-4923ddaba0dc","9B9A0B39821046F8B13EF2DEFE3035EE-2025-05-15-19-23-52","","1887","","images/semantic_sequence/market_semantic/market_semantic_6.png","1","",""
"","","","","","image-button-response","106","484335","0.0-14.0-1.0-2.5","9B9A0B39821046F8B13EF2DEFE3035EE","9B9A0B39821046F8B13EF2DEFE3035EE","54e0fc9d-e2b5-4525-8146-7d16b2f5cf30","051c06f1-75cc-4548-856d-4923ddaba0dc","{""num_scrambled_semantic"":""8"",""num_scrambled_causal"":""4"",""num_scrambled_schematic"":""4"",""participantId"":""9B9A0B39821046F8B13EF2DEFE3035EE"",""assignmentId"":""54e0fc9d-e2b5-4525-8146-7d16b2f5cf30"",""projectId"":""051c06f1-75cc-4548-856d-4923ddaba0dc""}","https://test12345.live/?num_scrambled_semantic=8&num_scrambled_causal=4&num_scrambled_schematic=4&participantId=9B9A0B39821046F8B13EF2DEFE3035EE&assignmentId=54e0fc9d-e2b5-4525-8146-7d16b2f5cf30&projectId=051c06f1-75cc-4548-856d-4923ddaba0dc","9B9A0B39821046F8B13EF2DEFE3035EE-2025-05-15-19-23-52","","null","","[]","null","",""
"","","","","","image-button-response","107","488855","0.0-14.0-1.0-0.6","9B9A0B39821046F8B13EF2DEFE3035EE","9B9A0B39821046F8B13EF2DEFE3035EE","54e0fc9d-e2b5-4525-8146-7d16b2f5cf30","051c06f1-75cc-4548-856d-4923ddaba0dc","{""num_scrambled_semantic"":""8"",""num_scrambled_causal"":""4"",""num_scrambled_schematic"":""4"",""participantId"":""9B9A0B39821046F8B13EF2DEFE3035EE"",""assignmentId"":""54e0fc9d-e2b5-4525-8146-7d16b2f5cf30"",""projectId"":""051c06f1-75cc-4548-856d-4923ddaba0dc""}","https://test12345.live/?num_scrambled_semantic=8&num_scrambled_causal=4&num_scrambled_schematic=4&participantId=9B9A0B39821046F8B13EF2DEFE3035EE&assignmentId=54e0fc9d-e2b5-4525-8146-7d16b2f5cf30&projectId=051c06f1-75cc-4548-856d-4923ddaba0dc","9B9A0B39821046F8B13EF2DEFE3035EE-2025-05-15-19-23-52","","null","","images/semantic_sequence/market_semantic/market_semantic_7.png","null","",""
"","","","","","image-button-response","108","491166","0.0-14.0-1.0-1.6","9B9A0B39821046F8B13EF2DEFE3035EE","9B9A0B39821046F8B13EF2DEFE3035EE","54e0fc9d-e2b5-4525-8146-7d16b2f5cf30","051c06f1-75cc-4548-856d-4923ddaba0dc","{""num_scrambled_semantic"":""8"",""num_scrambled_causal"":""4"",""num_scrambled_schematic"":""4"",""participantId"":""9B9A0B39821046F8B13EF2DEFE3035EE"",""assignmentId"":""54e0fc9d-e2b5-4525-8146-7d16b2f5cf30"",""projectId"":""051c06f1-75cc-4548-856d-4923ddaba0dc""}","https://test12345.live/?num_scrambled_semantic=8&num_scrambled_causal=4&num_scrambled_schematic=4&participantId=9B9A0B39821046F8B13EF2DEFE3035EE&assignmentId=54e0fc9d-e2b5-4525-8146-7d16b2f5cf30&projectId=051c06f1-75cc-4548-856d-4923ddaba0dc","9B9A0B39821046F8B13EF2DEFE3035EE-2025-05-15-19-23-52","","2309","","images/semantic_sequence/market_semantic/market_semantic_7.png","0","",""
"","","","","","image-button-response","109","492975","0.0-14.0-1.0-2.6","9B9A0B39821046F8B13EF2DEFE3035EE","9B9A0B39821046F8B13EF2DEFE3035EE","54e0fc9d-e2b5-4525-8146-7d16b2f5cf30","051c06f1-75cc-4548-856d-4923ddaba0dc","{""num_scrambled_semantic"":""8"",""num_scrambled_causal"":""4"",""num_scrambled_schematic"":""4"",""participantId"":""9B9A0B39821046F8B13EF2DEFE3035EE"",""assignmentId"":""54e0fc9d-e2b5-4525-8146-7d16b2f5cf30"",""projectId"":""051c06f1-75cc-4548-856d-4923ddaba0dc""}","https://test12345.live/?num_scrambled_semantic=8&num_scrambled_causal=4&num_scrambled_schematic=4&participantId=9B9A0B39821046F8B13EF2DEFE3035EE&assignmentId=54e0fc9d-e2b5-4525-8146-7d16b2f5cf30&projectId=051c06f1-75cc-4548-856d-4923ddaba0dc","9B9A0B39821046F8B13EF2DEFE3035EE-2025-05-15-19-23-52","","null","","[]","null","",""
"","","","","","image-button-response","110","497481","0.0-14.0-1.0-0.7","9B9A0B39821046F8B13EF2DEFE3035EE","9B9A0B39821046F8B13EF2DEFE3035EE","54e0fc9d-e2b5-4525-8146-7d16b2f5cf30","051c06f1-75cc-4548-856d-4923ddaba0dc","{""num_scrambled_semantic"":""8"",""num_scrambled_causal"":""4"",""num_scrambled_schematic"":""4"",""participantId"":""9B9A0B39821046F8B13EF2DEFE3035EE"",""assignmentId"":""54e0fc9d-e2b5-4525-8146-7d16b2f5cf30"",""projectId"":""051c06f1-75cc-4548-856d-4923ddaba0dc""}","https://test12345.live/?num_scrambled_semantic=8&num_scrambled_causal=4&num_scrambled_schematic=4&participantId=9B9A0B39821046F8B13EF2DEFE3035EE&assignmentId=54e0fc9d-e2b5-4525-8146-7d16b2f5cf30&projectId=051c06f1-75cc-4548-856d-4923ddaba0dc","9B9A0B39821046F8B13EF2DEFE3035EE-2025-05-15-19-23-52","","null","","images/semantic_sequence/market_semantic/market_semantic_8.png","null","",""
"","","","","","image-button-response","111","498486","0.0-14.0-1.0-1.7","9B9A0B39821046F8B13EF2DEFE3035EE","9B9A0B39821046F8B13EF2DEFE3035EE","54e0fc9d-e2b5-4525-8146-7d16b2f5cf30","051c06f1-75cc-4548-856d-4923ddaba0dc","{""num_scrambled_semantic"":""8"",""num_scrambled_causal"":""4"",""num_scrambled_schematic"":""4"",""participantId"":""9B9A0B39821046F8B13EF2DEFE3035EE"",""assignmentId"":""54e0fc9d-e2b5-4525-8146-7d16b2f5cf30"",""projectId"":""051c06f1-75cc-4548-856d-4923ddaba0dc""}","https://test12345.live/?num_scrambled_semantic=8&num_scrambled_causal=4&num_scrambled_schematic=4&participantId=9B9A0B39821046F8B13EF2DEFE3035EE&assignmentId=54e0fc9d-e2b5-4525-8146-7d16b2f5cf30&projectId=051c06f1-75cc-4548-856d-4923ddaba0dc","9B9A0B39821046F8B13EF2DEFE3035EE-2025-05-15-19-23-52","","1003","","images/semantic_sequence/market_semantic/market_semantic_8.png","0","",""
"","","","","","image-button-response","112","500305","0.0-14.0-1.0-2.7","9B9A0B39821046F8B13EF2DEFE3035EE","9B9A0B39821046F8B13EF2DEFE3035EE","54e0fc9d-e2b5-4525-8146-7d16b2f5cf30","051c06f1-75cc-4548-856d-4923ddaba0dc","{""num_scrambled_semantic"":""8"",""num_scrambled_causal"":""4"",""num_scrambled_schematic"":""4"",""participantId"":""9B9A0B39821046F8B13EF2DEFE3035EE"",""assignmentId"":""54e0fc9d-e2b5-4525-8146-7d16b2f5cf30"",""projectId"":""051c06f1-75cc-4548-856d-4923ddaba0dc""}","https://test12345.live/?num_scrambled_semantic=8&num_scrambled_causal=4&num_scrambled_schematic=4&participantId=9B9A0B39821046F8B13EF2DEFE3035EE&assignmentId=54e0fc9d-e2b5-4525-8146-7d16b2f5cf30&projectId=051c06f1-75cc-4548-856d-4923ddaba0dc","9B9A0B39821046F8B13EF2DEFE3035EE-2025-05-15-19-23-52","","null","","[]","null","",""
"","","","","","image-button-response","113","504815","0.0-14.0-1.0-0.8","9B9A0B39821046F8B13EF2DEFE3035EE","9B9A0B39821046F8B13EF2DEFE3035EE","54e0fc9d-e2b5-4525-8146-7d16b2f5cf30","051c06f1-75cc-4548-856d-4923ddaba0dc","{""num_scrambled_semantic"":""8"",""num_scrambled_causal"":""4"",""num_scrambled_schematic"":""4"",""participantId"":""9B9A0B39821046F8B13EF2DEFE3035EE"",""assignmentId"":""54e0fc9d-e2b5-4525-8146-7d16b2f5cf30"",""projectId"":""051c06f1-75cc-4548-856d-4923ddaba0dc""}","https://test12345.live/?num_scrambled_semantic=8&num_scrambled_causal=4&num_scrambled_schematic=4&participantId=9B9A0B39821046F8B13EF2DEFE3035EE&assignmentId=54e0fc9d-e2b5-4525-8146-7d16b2f5cf30&projectId=051c06f1-75cc-4548-856d-4923ddaba0dc","9B9A0B39821046F8B13EF2DEFE3035EE-2025-05-15-19-23-52","","null","","images/semantic_sequence/market_semantic/market_semantic_9.png","null","",""
"","","","","","image-button-response","114","507174","0.0-14.0-1.0-1.8","9B9A0B39821046F8B13EF2DEFE3035EE","9B9A0B39821046F8B13EF2DEFE3035EE","54e0fc9d-e2b5-4525-8146-7d16b2f5cf30","051c06f1-75cc-4548-856d-4923ddaba0dc","{""num_scrambled_semantic"":""8"",""num_scrambled_causal"":""4"",""num_scrambled_schematic"":""4"",""participantId"":""9B9A0B39821046F8B13EF2DEFE3035EE"",""assignmentId"":""54e0fc9d-e2b5-4525-8146-7d16b2f5cf30"",""projectId"":""051c06f1-75cc-4548-856d-4923ddaba0dc""}","https://test12345.live/?num_scrambled_semantic=8&num_scrambled_causal=4&num_scrambled_schematic=4&participantId=9B9A0B39821046F8B13EF2DEFE3035EE&assignmentId=54e0fc9d-e2b5-4525-8146-7d16b2f5cf30&projectId=051c06f1-75cc-4548-856d-4923ddaba0dc","9B9A0B39821046F8B13EF2DEFE3035EE-2025-05-15-19-23-52","","2357","","images/semantic_sequence/market_semantic/market_semantic_9.png","0","",""
