"success","timeout","failed_images","failed_audio","failed_video","trial_type","trial_index","time_elapsed","internal_node_id","subject","subject_id","study_id","session_id","urlvar","current_url","audio_id","view_history","rt","device_id","stimulus","response","estimated_stimulus_onset","seq_name"
"true","false","[]","[]","[]","preload","0","3080","0.0-0.0","9E4D237A57E24EF7AA019362E2A37A0A","9E4D237A57E24EF7AA019362E2A37A0A","659c954e-247e-4b02-8c37-3c682fd53131","6d972c12-ef4f-4967-baa7-815328c4c025","{""num_scrambled_semantic"":""8"",""num_scrambled_causal"":""4"",""num_scrambled_schematic"":""4"",""participantId"":""9E4D237A57E24EF7AA019362E2A37A0A"",""assignmentId"":""659c954e-247e-4b02-8c37-3c682fd53131"",""projectId"":""6d972c12-ef4f-4967-baa7-815328c4c025""}","https://test12345.live/?num_scrambled_semantic=8&num_scrambled_causal=4&num_scrambled_schematic=4&participantId=9E4D237A57E24EF7AA019362E2A37A0A&assignmentId=659c954e-247e-4b02-8c37-3c682fd53131&projectId=6d972c12-ef4f-4967-baa7-815328c4c025","9E4D237A57E24EF7AA019362E2A37A0A-2025-08-07-17-54-45","","","","","","",""
"","","","","","instructions","1","23998","0.0-1.0","9E4D237A57E24EF7AA019362E2A37A0A","9E4D237A57E24EF7AA019362E2A37A0A","659c954e-247e-4b02-8c37-3c682fd53131","6d972c12-ef4f-4967-baa7-815328c4c025","{""num_scrambled_semantic"":""8"",""num_scrambled_causal"":""4"",""num_scrambled_schematic"":""4"",""participantId"":""9E4D237A57E24EF7AA019362E2A37A0A"",""assignmentId"":""659c954e-247e-4b02-8c37-3c682fd53131"",""projectId"":""6d972c12-ef4f-4967-baa7-815328c4c025""}","https://test12345.live/?num_scrambled_semantic=8&num_scrambled_causal=4&num_scrambled_schematic=4&participantId=9E4D237A57E24EF7AA019362E2A37A0A&assignmentId=659c954e-247e-4b02-8c37-3c682fd53131&projectId=6d972c12-ef4f-4967-baa7-815328c4c025","9E4D237A57E24EF7AA019362E2A37A0A-2025-08-07-17-54-45","[{""page_index"":0,""viewing_time"":20917}]","20917","","","","",""
"","","","","","instructions","2","44147","0.0-2.0","9E4D237A57E24EF7AA019362E2A37A0A","9E4D237A57E24EF7AA019362E2A37A0A","659c954e-247e-4b02-8c37-3c682fd53131","6d972c12-ef4f-4967-baa7-815328c4c025","{""num_scrambled_semantic"":""8"",""num_scrambled_causal"":""4"",""num_scrambled_schematic"":""4"",""participantId"":""9E4D237A57E24EF7AA019362E2A37A0A"",""assignmentId"":""659c954e-247e-4b02-8c37-3c682fd53131"",""projectId"":""6d972c12-ef4f-4967-baa7-815328c4c025""}","https://test12345.live/?num_scrambled_semantic=8&num_scrambled_causal=4&num_scrambled_schematic=4&participantId=9E4D237A57E24EF7AA019362E2A37A0A&assignmentId=659c954e-247e-4b02-8c37-3c682fd53131&projectId=6d972c12-ef4f-4967-baa7-815328c4c025","9E4D237A57E24EF7AA019362E2A37A0A-2025-08-07-17-54-45","[{""page_index"":0,""viewing_time"":20148}]","20149","","","","",""
"true","","","","","fullscreen","3","54899","0.0-3.0","9E4D237A57E24EF7AA019362E2A37A0A","9E4D237A57E24EF7AA019362E2A37A0A","659c954e-247e-4b02-8c37-3c682fd53131","6d972c12-ef4f-4967-baa7-815328c4c025","{""num_scrambled_semantic"":""8"",""num_scrambled_causal"":""4"",""num_scrambled_schematic"":""4"",""participantId"":""9E4D237A57E24EF7AA019362E2A37A0A"",""assignmentId"":""659c954e-247e-4b02-8c37-3c682fd53131"",""projectId"":""6d972c12-ef4f-4967-baa7-815328c4c025""}","https://test12345.live/?num_scrambled_semantic=8&num_scrambled_causal=4&num_scrambled_schematic=4&participantId=9E4D237A57E24EF7AA019362E2A37A0A&assignmentId=659c954e-247e-4b02-8c37-3c682fd53131&projectId=6d972c12-ef4f-4967-baa7-815328c4c025","9E4D237A57E24EF7AA019362E2A37A0A-2025-08-07-17-54-45","","9748","","","","",""
"","","","","","initialize-microphone","4","67333","0.0-4.0-0.0","9E4D237A57E24EF7AA019362E2A37A0A","9E4D237A57E24EF7AA019362E2A37A0A","659c954e-247e-4b02-8c37-3c682fd53131","6d972c12-ef4f-4967-baa7-815328c4c025","{""num_scrambled_semantic"":""8"",""num_scrambled_causal"":""4"",""num_scrambled_schematic"":""4"",""participantId"":""9E4D237A57E24EF7AA019362E2A37A0A"",""assignmentId"":""659c954e-247e-4b02-8c37-3c682fd53131"",""projectId"":""6d972c12-ef4f-4967-baa7-815328c4c025""}","https://test12345.live/?num_scrambled_semantic=8&num_scrambled_causal=4&num_scrambled_schematic=4&participantId=9E4D237A57E24EF7AA019362E2A37A0A&assignmentId=659c954e-247e-4b02-8c37-3c682fd53131&projectId=6d972c12-ef4f-4967-baa7-815328c4c025","9E4D237A57E24EF7AA019362E2A37A0A-2025-08-07-17-54-45","","","6161556e0195f6727c5b307d5a30b1171b17f2051484eeb82ec7a8b0598e3882","","","",""
"","","","","","html-audio-response","5","74214","0.0-4.0-1.0","9E4D237A57E24EF7AA019362E2A37A0A","9E4D237A57E24EF7AA019362E2A37A0A","659c954e-247e-4b02-8c37-3c682fd53131","6d972c12-ef4f-4967-baa7-815328c4c025","{""num_scrambled_semantic"":""8"",""num_scrambled_causal"":""4"",""num_scrambled_schematic"":""4"",""participantId"":""9E4D237A57E24EF7AA019362E2A37A0A"",""assignmentId"":""659c954e-247e-4b02-8c37-3c682fd53131"",""projectId"":""6d972c12-ef4f-4967-baa7-815328c4c025""}","https://test12345.live/?num_scrambled_semantic=8&num_scrambled_causal=4&num_scrambled_schematic=4&participantId=9E4D237A57E24EF7AA019362E2A37A0A&assignmentId=659c954e-247e-4b02-8c37-3c682fd53131&projectId=6d972c12-ef4f-4967-baa7-815328c4c025","9E4D237A57E24EF7AA019362E2A37A0A-2025-08-07-17-54-45","","2191","","<span style=""color: red; font-size: 24px""> NOW RECORDING</span>
        <p>Please test Microphone</p>","","1",""
"","","","","","html-button-response","6","75848","0.0-4.0-2.0","9E4D237A57E24EF7AA019362E2A37A0A","9E4D237A57E24EF7AA019362E2A37A0A","659c954e-247e-4b02-8c37-3c682fd53131","6d972c12-ef4f-4967-baa7-815328c4c025","{""num_scrambled_semantic"":""8"",""num_scrambled_causal"":""4"",""num_scrambled_schematic"":""4"",""participantId"":""9E4D237A57E24EF7AA019362E2A37A0A"",""assignmentId"":""659c954e-247e-4b02-8c37-3c682fd53131"",""projectId"":""6d972c12-ef4f-4967-baa7-815328c4c025""}","https://test12345.live/?num_scrambled_semantic=8&num_scrambled_causal=4&num_scrambled_schematic=4&participantId=9E4D237A57E24EF7AA019362E2A37A0A&assignmentId=659c954e-247e-4b02-8c37-3c682fd53131&projectId=6d972c12-ef4f-4967-baa7-815328c4c025","9E4D237A57E24EF7AA019362E2A37A0A-2025-08-07-17-54-45","","1631","","<p style=""font-size:48px; color:red;"">Is Microphone OK?</p>","1","",""
"","","","","","instructions","7","97780","0.0-5.0","9E4D237A57E24EF7AA019362E2A37A0A","9E4D237A57E24EF7AA019362E2A37A0A","659c954e-247e-4b02-8c37-3c682fd53131","6d972c12-ef4f-4967-baa7-815328c4c025","{""num_scrambled_semantic"":""8"",""num_scrambled_causal"":""4"",""num_scrambled_schematic"":""4"",""participantId"":""9E4D237A57E24EF7AA019362E2A37A0A"",""assignmentId"":""659c954e-247e-4b02-8c37-3c682fd53131"",""projectId"":""6d972c12-ef4f-4967-baa7-815328c4c025""}","https://test12345.live/?num_scrambled_semantic=8&num_scrambled_causal=4&num_scrambled_schematic=4&participantId=9E4D237A57E24EF7AA019362E2A37A0A&assignmentId=659c954e-247e-4b02-8c37-3c682fd53131&projectId=6d972c12-ef4f-4967-baa7-815328c4c025","9E4D237A57E24EF7AA019362E2A37A0A-2025-08-07-17-54-45","[{""page_index"":0,""viewing_time"":7848},{""page_index"":1,""viewing_time"":14083}]","21931","","","","",""
"","","","","","image-button-response","8","103787","0.0-6.0-0.0","9E4D237A57E24EF7AA019362E2A37A0A","9E4D237A57E24EF7AA019362E2A37A0A","659c954e-247e-4b02-8c37-3c682fd53131","6d972c12-ef4f-4967-baa7-815328c4c025","{""num_scrambled_semantic"":""8"",""num_scrambled_causal"":""4"",""num_scrambled_schematic"":""4"",""participantId"":""9E4D237A57E24EF7AA019362E2A37A0A"",""assignmentId"":""659c954e-247e-4b02-8c37-3c682fd53131"",""projectId"":""6d972c12-ef4f-4967-baa7-815328c4c025""}","https://test12345.live/?num_scrambled_semantic=8&num_scrambled_causal=4&num_scrambled_schematic=4&participantId=9E4D237A57E24EF7AA019362E2A37A0A&assignmentId=659c954e-247e-4b02-8c37-3c682fd53131&projectId=6d972c12-ef4f-4967-baa7-815328c4c025","9E4D237A57E24EF7AA019362E2A37A0A-2025-08-07-17-54-45","","null","","images/instructions/movie_0.png","null","",""
"","","","","","image-button-response","9","108291","0.0-6.0-1.0-0.0","9E4D237A57E24EF7AA019362E2A37A0A","9E4D237A57E24EF7AA019362E2A37A0A","659c954e-247e-4b02-8c37-3c682fd53131","6d972c12-ef4f-4967-baa7-815328c4c025","{""num_scrambled_semantic"":""8"",""num_scrambled_causal"":""4"",""num_scrambled_schematic"":""4"",""participantId"":""9E4D237A57E24EF7AA019362E2A37A0A"",""assignmentId"":""659c954e-247e-4b02-8c37-3c682fd53131"",""projectId"":""6d972c12-ef4f-4967-baa7-815328c4c025""}","https://test12345.live/?num_scrambled_semantic=8&num_scrambled_causal=4&num_scrambled_schematic=4&participantId=9E4D237A57E24EF7AA019362E2A37A0A&assignmentId=659c954e-247e-4b02-8c37-3c682fd53131&projectId=6d972c12-ef4f-4967-baa7-815328c4c025","9E4D237A57E24EF7AA019362E2A37A0A-2025-08-07-17-54-45","","null","","images/instructions/movie_1.png","null","",""
"","","","","","image-button-response","10","112097","0.0-6.0-1.0-1.0","9E4D237A57E24EF7AA019362E2A37A0A","9E4D237A57E24EF7AA019362E2A37A0A","659c954e-247e-4b02-8c37-3c682fd53131","6d972c12-ef4f-4967-baa7-815328c4c025","{""num_scrambled_semantic"":""8"",""num_scrambled_causal"":""4"",""num_scrambled_schematic"":""4"",""participantId"":""9E4D237A57E24EF7AA019362E2A37A0A"",""assignmentId"":""659c954e-247e-4b02-8c37-3c682fd53131"",""projectId"":""6d972c12-ef4f-4967-baa7-815328c4c025""}","https://test12345.live/?num_scrambled_semantic=8&num_scrambled_causal=4&num_scrambled_schematic=4&participantId=9E4D237A57E24EF7AA019362E2A37A0A&assignmentId=659c954e-247e-4b02-8c37-3c682fd53131&projectId=6d972c12-ef4f-4967-baa7-815328c4c025","9E4D237A57E24EF7AA019362E2A37A0A-2025-08-07-17-54-45","","3803","","images/instructions/movie_1.png","0","",""
"","","","","","image-button-response","11","113898","0.0-6.0-1.0-2.0","9E4D237A57E24EF7AA019362E2A37A0A","9E4D237A57E24EF7AA019362E2A37A0A","659c954e-247e-4b02-8c37-3c682fd53131","6d972c12-ef4f-4967-baa7-815328c4c025","{""num_scrambled_semantic"":""8"",""num_scrambled_causal"":""4"",""num_scrambled_schematic"":""4"",""participantId"":""9E4D237A57E24EF7AA019362E2A37A0A"",""assignmentId"":""659c954e-247e-4b02-8c37-3c682fd53131"",""projectId"":""6d972c12-ef4f-4967-baa7-815328c4c025""}","https://test12345.live/?num_scrambled_semantic=8&num_scrambled_causal=4&num_scrambled_schematic=4&participantId=9E4D237A57E24EF7AA019362E2A37A0A&assignmentId=659c954e-247e-4b02-8c37-3c682fd53131&projectId=6d972c12-ef4f-4967-baa7-815328c4c025","9E4D237A57E24EF7AA019362E2A37A0A-2025-08-07-17-54-45","","null","","[]","null","",""
"","","","","","image-button-response","12","118406","0.0-6.0-1.0-0.1","9E4D237A57E24EF7AA019362E2A37A0A","9E4D237A57E24EF7AA019362E2A37A0A","659c954e-247e-4b02-8c37-3c682fd53131","6d972c12-ef4f-4967-baa7-815328c4c025","{""num_scrambled_semantic"":""8"",""num_scrambled_causal"":""4"",""num_scrambled_schematic"":""4"",""participantId"":""9E4D237A57E24EF7AA019362E2A37A0A"",""assignmentId"":""659c954e-247e-4b02-8c37-3c682fd53131"",""projectId"":""6d972c12-ef4f-4967-baa7-815328c4c025""}","https://test12345.live/?num_scrambled_semantic=8&num_scrambled_causal=4&num_scrambled_schematic=4&participantId=9E4D237A57E24EF7AA019362E2A37A0A&assignmentId=659c954e-247e-4b02-8c37-3c682fd53131&projectId=6d972c12-ef4f-4967-baa7-815328c4c025","9E4D237A57E24EF7AA019362E2A37A0A-2025-08-07-17-54-45","","null","","images/instructions/movie_2.png","null","",""
"","","","","","image-button-response","13","121130","0.0-6.0-1.0-1.1","9E4D237A57E24EF7AA019362E2A37A0A","9E4D237A57E24EF7AA019362E2A37A0A","659c954e-247e-4b02-8c37-3c682fd53131","6d972c12-ef4f-4967-baa7-815328c4c025","{""num_scrambled_semantic"":""8"",""num_scrambled_causal"":""4"",""num_scrambled_schematic"":""4"",""participantId"":""9E4D237A57E24EF7AA019362E2A37A0A"",""assignmentId"":""659c954e-247e-4b02-8c37-3c682fd53131"",""projectId"":""6d972c12-ef4f-4967-baa7-815328c4c025""}","https://test12345.live/?num_scrambled_semantic=8&num_scrambled_causal=4&num_scrambled_schematic=4&participantId=9E4D237A57E24EF7AA019362E2A37A0A&assignmentId=659c954e-247e-4b02-8c37-3c682fd53131&projectId=6d972c12-ef4f-4967-baa7-815328c4c025","9E4D237A57E24EF7AA019362E2A37A0A-2025-08-07-17-54-45","","2722","","images/instructions/movie_2.png","0","",""
"","","","","","image-button-response","14","122936","0.0-6.0-1.0-2.1","9E4D237A57E24EF7AA019362E2A37A0A","9E4D237A57E24EF7AA019362E2A37A0A","659c954e-247e-4b02-8c37-3c682fd53131","6d972c12-ef4f-4967-baa7-815328c4c025","{""num_scrambled_semantic"":""8"",""num_scrambled_causal"":""4"",""num_scrambled_schematic"":""4"",""participantId"":""9E4D237A57E24EF7AA019362E2A37A0A"",""assignmentId"":""659c954e-247e-4b02-8c37-3c682fd53131"",""projectId"":""6d972c12-ef4f-4967-baa7-815328c4c025""}","https://test12345.live/?num_scrambled_semantic=8&num_scrambled_causal=4&num_scrambled_schematic=4&participantId=9E4D237A57E24EF7AA019362E2A37A0A&assignmentId=659c954e-247e-4b02-8c37-3c682fd53131&projectId=6d972c12-ef4f-4967-baa7-815328c4c025","9E4D237A57E24EF7AA019362E2A37A0A-2025-08-07-17-54-45","","null","","[]","null","",""
"","","","","","image-button-response","15","127440","0.0-6.0-1.0-0.2","9E4D237A57E24EF7AA019362E2A37A0A","9E4D237A57E24EF7AA019362E2A37A0A","659c954e-247e-4b02-8c37-3c682fd53131","6d972c12-ef4f-4967-baa7-815328c4c025","{""num_scrambled_semantic"":""8"",""num_scrambled_causal"":""4"",""num_scrambled_schematic"":""4"",""participantId"":""9E4D237A57E24EF7AA019362E2A37A0A"",""assignmentId"":""659c954e-247e-4b02-8c37-3c682fd53131"",""projectId"":""6d972c12-ef4f-4967-baa7-815328c4c025""}","https://test12345.live/?num_scrambled_semantic=8&num_scrambled_causal=4&num_scrambled_schematic=4&participantId=9E4D237A57E24EF7AA019362E2A37A0A&assignmentId=659c954e-247e-4b02-8c37-3c682fd53131&projectId=6d972c12-ef4f-4967-baa7-815328c4c025","9E4D237A57E24EF7AA019362E2A37A0A-2025-08-07-17-54-45","","null","","images/instructions/movie_3.png","null","",""
"","","","","","image-button-response","16","128747","0.0-6.0-1.0-1.2","9E4D237A57E24EF7AA019362E2A37A0A","9E4D237A57E24EF7AA019362E2A37A0A","659c954e-247e-4b02-8c37-3c682fd53131","6d972c12-ef4f-4967-baa7-815328c4c025","{""num_scrambled_semantic"":""8"",""num_scrambled_causal"":""4"",""num_scrambled_schematic"":""4"",""participantId"":""9E4D237A57E24EF7AA019362E2A37A0A"",""assignmentId"":""659c954e-247e-4b02-8c37-3c682fd53131"",""projectId"":""6d972c12-ef4f-4967-baa7-815328c4c025""}","https://test12345.live/?num_scrambled_semantic=8&num_scrambled_causal=4&num_scrambled_schematic=4&participantId=9E4D237A57E24EF7AA019362E2A37A0A&assignmentId=659c954e-247e-4b02-8c37-3c682fd53131&projectId=6d972c12-ef4f-4967-baa7-815328c4c025","9E4D237A57E24EF7AA019362E2A37A0A-2025-08-07-17-54-45","","1305","","images/instructions/movie_3.png","0","",""
"","","","","","image-button-response","17","130553","0.0-6.0-1.0-2.2","9E4D237A57E24EF7AA019362E2A37A0A","9E4D237A57E24EF7AA019362E2A37A0A","659c954e-247e-4b02-8c37-3c682fd53131","6d972c12-ef4f-4967-baa7-815328c4c025","{""num_scrambled_semantic"":""8"",""num_scrambled_causal"":""4"",""num_scrambled_schematic"":""4"",""participantId"":""9E4D237A57E24EF7AA019362E2A37A0A"",""assignmentId"":""659c954e-247e-4b02-8c37-3c682fd53131"",""projectId"":""6d972c12-ef4f-4967-baa7-815328c4c025""}","https://test12345.live/?num_scrambled_semantic=8&num_scrambled_causal=4&num_scrambled_schematic=4&participantId=9E4D237A57E24EF7AA019362E2A37A0A&assignmentId=659c954e-247e-4b02-8c37-3c682fd53131&projectId=6d972c12-ef4f-4967-baa7-815328c4c025","9E4D237A57E24EF7AA019362E2A37A0A-2025-08-07-17-54-45","","null","","[]","null","",""
"","","","","","image-button-response","18","135057","0.0-6.0-1.0-0.3","9E4D237A57E24EF7AA019362E2A37A0A","9E4D237A57E24EF7AA019362E2A37A0A","659c954e-247e-4b02-8c37-3c682fd53131","6d972c12-ef4f-4967-baa7-815328c4c025","{""num_scrambled_semantic"":""8"",""num_scrambled_causal"":""4"",""num_scrambled_schematic"":""4"",""participantId"":""9E4D237A57E24EF7AA019362E2A37A0A"",""assignmentId"":""659c954e-247e-4b02-8c37-3c682fd53131"",""projectId"":""6d972c12-ef4f-4967-baa7-815328c4c025""}","https://test12345.live/?num_scrambled_semantic=8&num_scrambled_causal=4&num_scrambled_schematic=4&participantId=9E4D237A57E24EF7AA019362E2A37A0A&assignmentId=659c954e-247e-4b02-8c37-3c682fd53131&projectId=6d972c12-ef4f-4967-baa7-815328c4c025","9E4D237A57E24EF7AA019362E2A37A0A-2025-08-07-17-54-45","","null","","images/instructions/movie_4.png","null","",""
"","","","","","image-button-response","19","135913","0.0-6.0-1.0-1.3","9E4D237A57E24EF7AA019362E2A37A0A","9E4D237A57E24EF7AA019362E2A37A0A","659c954e-247e-4b02-8c37-3c682fd53131","6d972c12-ef4f-4967-baa7-815328c4c025","{""num_scrambled_semantic"":""8"",""num_scrambled_causal"":""4"",""num_scrambled_schematic"":""4"",""participantId"":""9E4D237A57E24EF7AA019362E2A37A0A"",""assignmentId"":""659c954e-247e-4b02-8c37-3c682fd53131"",""projectId"":""6d972c12-ef4f-4967-baa7-815328c4c025""}","https://test12345.live/?num_scrambled_semantic=8&num_scrambled_causal=4&num_scrambled_schematic=4&participantId=9E4D237A57E24EF7AA019362E2A37A0A&assignmentId=659c954e-247e-4b02-8c37-3c682fd53131&projectId=6d972c12-ef4f-4967-baa7-815328c4c025","9E4D237A57E24EF7AA019362E2A37A0A-2025-08-07-17-54-45","","854","","images/instructions/movie_4.png","0","",""
"","","","","","image-button-response","20","137720","0.0-6.0-1.0-2.3","9E4D237A57E24EF7AA019362E2A37A0A","9E4D237A57E24EF7AA019362E2A37A0A","659c954e-247e-4b02-8c37-3c682fd53131","6d972c12-ef4f-4967-baa7-815328c4c025","{""num_scrambled_semantic"":""8"",""num_scrambled_causal"":""4"",""num_scrambled_schematic"":""4"",""participantId"":""9E4D237A57E24EF7AA019362E2A37A0A"",""assignmentId"":""659c954e-247e-4b02-8c37-3c682fd53131"",""projectId"":""6d972c12-ef4f-4967-baa7-815328c4c025""}","https://test12345.live/?num_scrambled_semantic=8&num_scrambled_causal=4&num_scrambled_schematic=4&participantId=9E4D237A57E24EF7AA019362E2A37A0A&assignmentId=659c954e-247e-4b02-8c37-3c682fd53131&projectId=6d972c12-ef4f-4967-baa7-815328c4c025","9E4D237A57E24EF7AA019362E2A37A0A-2025-08-07-17-54-45","","null","","[]","null","",""
"","","","","","instructions","21","145579","0.0-7.0","9E4D237A57E24EF7AA019362E2A37A0A","9E4D237A57E24EF7AA019362E2A37A0A","659c954e-247e-4b02-8c37-3c682fd53131","6d972c12-ef4f-4967-baa7-815328c4c025","{""num_scrambled_semantic"":""8"",""num_scrambled_causal"":""4"",""num_scrambled_schematic"":""4"",""participantId"":""9E4D237A57E24EF7AA019362E2A37A0A"",""assignmentId"":""659c954e-247e-4b02-8c37-3c682fd53131"",""projectId"":""6d972c12-ef4f-4967-baa7-815328c4c025""}","https://test12345.live/?num_scrambled_semantic=8&num_scrambled_causal=4&num_scrambled_schematic=4&participantId=9E4D237A57E24EF7AA019362E2A37A0A&assignmentId=659c954e-247e-4b02-8c37-3c682fd53131&projectId=6d972c12-ef4f-4967-baa7-815328c4c025","9E4D237A57E24EF7AA019362E2A37A0A-2025-08-07-17-54-45","[{""page_index"":0,""viewing_time"":6708},{""page_index"":1,""viewing_time"":1151}]","7859","","","","",""
"","","","","","html-audio-response","22","179613","0.0-8.0","9E4D237A57E24EF7AA019362E2A37A0A","9E4D237A57E24EF7AA019362E2A37A0A","659c954e-247e-4b02-8c37-3c682fd53131","6d972c12-ef4f-4967-baa7-815328c4c025","{""num_scrambled_semantic"":""8"",""num_scrambled_causal"":""4"",""num_scrambled_schematic"":""4"",""participantId"":""9E4D237A57E24EF7AA019362E2A37A0A"",""assignmentId"":""659c954e-247e-4b02-8c37-3c682fd53131"",""projectId"":""6d972c12-ef4f-4967-baa7-815328c4c025""}","https://test12345.live/?num_scrambled_semantic=8&num_scrambled_causal=4&num_scrambled_schematic=4&participantId=9E4D237A57E24EF7AA019362E2A37A0A&assignmentId=659c954e-247e-4b02-8c37-3c682fd53131&projectId=6d972c12-ef4f-4967-baa7-815328c4c025","9E4D237A57E24EF7AA019362E2A37A0A-2025-08-07-17-54-45","","16745","","[""<span style=\""color: red; font-size: 24px\""> NOW RECORDING</span><p>Please say out loud all the images you saw in the exact order you saw them. Try to recall as many images as you can, but remember: getting the order right is more important than the number of images you recall.</p>""]","","2",""
"","","","","","instructions","23","180879","0.0-9.0","9E4D237A57E24EF7AA019362E2A37A0A","9E4D237A57E24EF7AA019362E2A37A0A","659c954e-247e-4b02-8c37-3c682fd53131","6d972c12-ef4f-4967-baa7-815328c4c025","{""num_scrambled_semantic"":""8"",""num_scrambled_causal"":""4"",""num_scrambled_schematic"":""4"",""participantId"":""9E4D237A57E24EF7AA019362E2A37A0A"",""assignmentId"":""659c954e-247e-4b02-8c37-3c682fd53131"",""projectId"":""6d972c12-ef4f-4967-baa7-815328c4c025""}","https://test12345.live/?num_scrambled_semantic=8&num_scrambled_causal=4&num_scrambled_schematic=4&participantId=9E4D237A57E24EF7AA019362E2A37A0A&assignmentId=659c954e-247e-4b02-8c37-3c682fd53131&projectId=6d972c12-ef4f-4967-baa7-815328c4c025","9E4D237A57E24EF7AA019362E2A37A0A-2025-08-07-17-54-45","[{""page_index"":0,""viewing_time"":1262}]","1262","","","","",""
"","","","","","image-button-response","24","186884","0.0-10.0-0.0","9E4D237A57E24EF7AA019362E2A37A0A","9E4D237A57E24EF7AA019362E2A37A0A","659c954e-247e-4b02-8c37-3c682fd53131","6d972c12-ef4f-4967-baa7-815328c4c025","{""num_scrambled_semantic"":""8"",""num_scrambled_causal"":""4"",""num_scrambled_schematic"":""4"",""participantId"":""9E4D237A57E24EF7AA019362E2A37A0A"",""assignmentId"":""659c954e-247e-4b02-8c37-3c682fd53131"",""projectId"":""6d972c12-ef4f-4967-baa7-815328c4c025""}","https://test12345.live/?num_scrambled_semantic=8&num_scrambled_causal=4&num_scrambled_schematic=4&participantId=9E4D237A57E24EF7AA019362E2A37A0A&assignmentId=659c954e-247e-4b02-8c37-3c682fd53131&projectId=6d972c12-ef4f-4967-baa7-815328c4c025","9E4D237A57E24EF7AA019362E2A37A0A-2025-08-07-17-54-45","","null","","images/semantic_sequence/housework_semantic/housework_semantic_0.png","null","",""
"","","","","","image-button-response","25","191389","0.0-10.0-1.0-0.0","9E4D237A57E24EF7AA019362E2A37A0A","9E4D237A57E24EF7AA019362E2A37A0A","659c954e-247e-4b02-8c37-3c682fd53131","6d972c12-ef4f-4967-baa7-815328c4c025","{""num_scrambled_semantic"":""8"",""num_scrambled_causal"":""4"",""num_scrambled_schematic"":""4"",""participantId"":""9E4D237A57E24EF7AA019362E2A37A0A"",""assignmentId"":""659c954e-247e-4b02-8c37-3c682fd53131"",""projectId"":""6d972c12-ef4f-4967-baa7-815328c4c025""}","https://test12345.live/?num_scrambled_semantic=8&num_scrambled_causal=4&num_scrambled_schematic=4&participantId=9E4D237A57E24EF7AA019362E2A37A0A&assignmentId=659c954e-247e-4b02-8c37-3c682fd53131&projectId=6d972c12-ef4f-4967-baa7-815328c4c025","9E4D237A57E24EF7AA019362E2A37A0A-2025-08-07-17-54-45","","null","","images/semantic_sequence/housework_semantic/housework_semantic_4.png","null","",""
"","","","","","image-button-response","26","193379","0.0-10.0-1.0-1.0","9E4D237A57E24EF7AA019362E2A37A0A","9E4D237A57E24EF7AA019362E2A37A0A","659c954e-247e-4b02-8c37-3c682fd53131","6d972c12-ef4f-4967-baa7-815328c4c025","{""num_scrambled_semantic"":""8"",""num_scrambled_causal"":""4"",""num_scrambled_schematic"":""4"",""participantId"":""9E4D237A57E24EF7AA019362E2A37A0A"",""assignmentId"":""659c954e-247e-4b02-8c37-3c682fd53131"",""projectId"":""6d972c12-ef4f-4967-baa7-815328c4c025""}","https://test12345.live/?num_scrambled_semantic=8&num_scrambled_causal=4&num_scrambled_schematic=4&participantId=9E4D237A57E24EF7AA019362E2A37A0A&assignmentId=659c954e-247e-4b02-8c37-3c682fd53131&projectId=6d972c12-ef4f-4967-baa7-815328c4c025","9E4D237A57E24EF7AA019362E2A37A0A-2025-08-07-17-54-45","","1988","","images/semantic_sequence/housework_semantic/housework_semantic_4.png","0","",""
"","","","","","image-button-response","27","195185","0.0-10.0-1.0-2.0","9E4D237A57E24EF7AA019362E2A37A0A","9E4D237A57E24EF7AA019362E2A37A0A","659c954e-247e-4b02-8c37-3c682fd53131","6d972c12-ef4f-4967-baa7-815328c4c025","{""num_scrambled_semantic"":""8"",""num_scrambled_causal"":""4"",""num_scrambled_schematic"":""4"",""participantId"":""9E4D237A57E24EF7AA019362E2A37A0A"",""assignmentId"":""659c954e-247e-4b02-8c37-3c682fd53131"",""projectId"":""6d972c12-ef4f-4967-baa7-815328c4c025""}","https://test12345.live/?num_scrambled_semantic=8&num_scrambled_causal=4&num_scrambled_schematic=4&participantId=9E4D237A57E24EF7AA019362E2A37A0A&assignmentId=659c954e-247e-4b02-8c37-3c682fd53131&projectId=6d972c12-ef4f-4967-baa7-815328c4c025","9E4D237A57E24EF7AA019362E2A37A0A-2025-08-07-17-54-45","","null","","[]","null","",""
"","","","","","image-button-response","28","199690","0.0-10.0-1.0-0.1","9E4D237A57E24EF7AA019362E2A37A0A","9E4D237A57E24EF7AA019362E2A37A0A","659c954e-247e-4b02-8c37-3c682fd53131","6d972c12-ef4f-4967-baa7-815328c4c025","{""num_scrambled_semantic"":""8"",""num_scrambled_causal"":""4"",""num_scrambled_schematic"":""4"",""participantId"":""9E4D237A57E24EF7AA019362E2A37A0A"",""assignmentId"":""659c954e-247e-4b02-8c37-3c682fd53131"",""projectId"":""6d972c12-ef4f-4967-baa7-815328c4c025""}","https://test12345.live/?num_scrambled_semantic=8&num_scrambled_causal=4&num_scrambled_schematic=4&participantId=9E4D237A57E24EF7AA019362E2A37A0A&assignmentId=659c954e-247e-4b02-8c37-3c682fd53131&projectId=6d972c12-ef4f-4967-baa7-815328c4c025","9E4D237A57E24EF7AA019362E2A37A0A-2025-08-07-17-54-45","","null","","images/semantic_sequence/housework_semantic/housework_semantic_9.png","null","",""
"","","","","","image-button-response","29","201431","0.0-10.0-1.0-1.1","9E4D237A57E24EF7AA019362E2A37A0A","9E4D237A57E24EF7AA019362E2A37A0A","659c954e-247e-4b02-8c37-3c682fd53131","6d972c12-ef4f-4967-baa7-815328c4c025","{""num_scrambled_semantic"":""8"",""num_scrambled_causal"":""4"",""num_scrambled_schematic"":""4"",""participantId"":""9E4D237A57E24EF7AA019362E2A37A0A"",""assignmentId"":""659c954e-247e-4b02-8c37-3c682fd53131"",""projectId"":""6d972c12-ef4f-4967-baa7-815328c4c025""}","https://test12345.live/?num_scrambled_semantic=8&num_scrambled_causal=4&num_scrambled_schematic=4&participantId=9E4D237A57E24EF7AA019362E2A37A0A&assignmentId=659c954e-247e-4b02-8c37-3c682fd53131&projectId=6d972c12-ef4f-4967-baa7-815328c4c025","9E4D237A57E24EF7AA019362E2A37A0A-2025-08-07-17-54-45","","1738","","images/semantic_sequence/housework_semantic/housework_semantic_9.png","0","",""
"","","","","","image-button-response","30","203238","0.0-10.0-1.0-2.1","9E4D237A57E24EF7AA019362E2A37A0A","9E4D237A57E24EF7AA019362E2A37A0A","659c954e-247e-4b02-8c37-3c682fd53131","6d972c12-ef4f-4967-baa7-815328c4c025","{""num_scrambled_semantic"":""8"",""num_scrambled_causal"":""4"",""num_scrambled_schematic"":""4"",""participantId"":""9E4D237A57E24EF7AA019362E2A37A0A"",""assignmentId"":""659c954e-247e-4b02-8c37-3c682fd53131"",""projectId"":""6d972c12-ef4f-4967-baa7-815328c4c025""}","https://test12345.live/?num_scrambled_semantic=8&num_scrambled_causal=4&num_scrambled_schematic=4&participantId=9E4D237A57E24EF7AA019362E2A37A0A&assignmentId=659c954e-247e-4b02-8c37-3c682fd53131&projectId=6d972c12-ef4f-4967-baa7-815328c4c025","9E4D237A57E24EF7AA019362E2A37A0A-2025-08-07-17-54-45","","null","","[]","null","",""
"","","","","","image-button-response","31","207745","0.0-10.0-1.0-0.2","9E4D237A57E24EF7AA019362E2A37A0A","9E4D237A57E24EF7AA019362E2A37A0A","659c954e-247e-4b02-8c37-3c682fd53131","6d972c12-ef4f-4967-baa7-815328c4c025","{""num_scrambled_semantic"":""8"",""num_scrambled_causal"":""4"",""num_scrambled_schematic"":""4"",""participantId"":""9E4D237A57E24EF7AA019362E2A37A0A"",""assignmentId"":""659c954e-247e-4b02-8c37-3c682fd53131"",""projectId"":""6d972c12-ef4f-4967-baa7-815328c4c025""}","https://test12345.live/?num_scrambled_semantic=8&num_scrambled_causal=4&num_scrambled_schematic=4&participantId=9E4D237A57E24EF7AA019362E2A37A0A&assignmentId=659c954e-247e-4b02-8c37-3c682fd53131&projectId=6d972c12-ef4f-4967-baa7-815328c4c025","9E4D237A57E24EF7AA019362E2A37A0A-2025-08-07-17-54-45","","null","","images/semantic_sequence/housework_semantic/housework_semantic_ten.png","null","",""
"","","","","","image-button-response","32","210680","0.0-10.0-1.0-1.2","9E4D237A57E24EF7AA019362E2A37A0A","9E4D237A57E24EF7AA019362E2A37A0A","659c954e-247e-4b02-8c37-3c682fd53131","6d972c12-ef4f-4967-baa7-815328c4c025","{""num_scrambled_semantic"":""8"",""num_scrambled_causal"":""4"",""num_scrambled_schematic"":""4"",""participantId"":""9E4D237A57E24EF7AA019362E2A37A0A"",""assignmentId"":""659c954e-247e-4b02-8c37-3c682fd53131"",""projectId"":""6d972c12-ef4f-4967-baa7-815328c4c025""}","https://test12345.live/?num_scrambled_semantic=8&num_scrambled_causal=4&num_scrambled_schematic=4&participantId=9E4D237A57E24EF7AA019362E2A37A0A&assignmentId=659c954e-247e-4b02-8c37-3c682fd53131&projectId=6d972c12-ef4f-4967-baa7-815328c4c025","9E4D237A57E24EF7AA019362E2A37A0A-2025-08-07-17-54-45","","2933","","images/semantic_sequence/housework_semantic/housework_semantic_ten.png","0","",""
"","","","","","image-button-response","33","212484","0.0-10.0-1.0-2.2","9E4D237A57E24EF7AA019362E2A37A0A","9E4D237A57E24EF7AA019362E2A37A0A","659c954e-247e-4b02-8c37-3c682fd53131","6d972c12-ef4f-4967-baa7-815328c4c025","{""num_scrambled_semantic"":""8"",""num_scrambled_causal"":""4"",""num_scrambled_schematic"":""4"",""participantId"":""9E4D237A57E24EF7AA019362E2A37A0A"",""assignmentId"":""659c954e-247e-4b02-8c37-3c682fd53131"",""projectId"":""6d972c12-ef4f-4967-baa7-815328c4c025""}","https://test12345.live/?num_scrambled_semantic=8&num_scrambled_causal=4&num_scrambled_schematic=4&participantId=9E4D237A57E24EF7AA019362E2A37A0A&assignmentId=659c954e-247e-4b02-8c37-3c682fd53131&projectId=6d972c12-ef4f-4967-baa7-815328c4c025","9E4D237A57E24EF7AA019362E2A37A0A-2025-08-07-17-54-45","","null","","[]","null","",""
"","","","","","image-button-response","34","216992","0.0-10.0-1.0-0.3","9E4D237A57E24EF7AA019362E2A37A0A","9E4D237A57E24EF7AA019362E2A37A0A","659c954e-247e-4b02-8c37-3c682fd53131","6d972c12-ef4f-4967-baa7-815328c4c025","{""num_scrambled_semantic"":""8"",""num_scrambled_causal"":""4"",""num_scrambled_schematic"":""4"",""participantId"":""9E4D237A57E24EF7AA019362E2A37A0A"",""assignmentId"":""659c954e-247e-4b02-8c37-3c682fd53131"",""projectId"":""6d972c12-ef4f-4967-baa7-815328c4c025""}","https://test12345.live/?num_scrambled_semantic=8&num_scrambled_causal=4&num_scrambled_schematic=4&participantId=9E4D237A57E24EF7AA019362E2A37A0A&assignmentId=659c954e-247e-4b02-8c37-3c682fd53131&projectId=6d972c12-ef4f-4967-baa7-815328c4c025","9E4D237A57E24EF7AA019362E2A37A0A-2025-08-07-17-54-45","","null","","images/semantic_sequence/housework_semantic/housework_semantic_7.png","null","",""
"","","","","","image-button-response","35","220999","0.0-10.0-1.0-1.3","9E4D237A57E24EF7AA019362E2A37A0A","9E4D237A57E24EF7AA019362E2A37A0A","659c954e-247e-4b02-8c37-3c682fd53131","6d972c12-ef4f-4967-baa7-815328c4c025","{""num_scrambled_semantic"":""8"",""num_scrambled_causal"":""4"",""num_scrambled_schematic"":""4"",""participantId"":""9E4D237A57E24EF7AA019362E2A37A0A"",""assignmentId"":""659c954e-247e-4b02-8c37-3c682fd53131"",""projectId"":""6d972c12-ef4f-4967-baa7-815328c4c025""}","https://test12345.live/?num_scrambled_semantic=8&num_scrambled_causal=4&num_scrambled_schematic=4&participantId=9E4D237A57E24EF7AA019362E2A37A0A&assignmentId=659c954e-247e-4b02-8c37-3c682fd53131&projectId=6d972c12-ef4f-4967-baa7-815328c4c025","9E4D237A57E24EF7AA019362E2A37A0A-2025-08-07-17-54-45","","null","","images/semantic_sequence/housework_semantic/housework_semantic_7.png","null","",""
"","","","","","image-button-response","36","222806","0.0-10.0-1.0-2.3","9E4D237A57E24EF7AA019362E2A37A0A","9E4D237A57E24EF7AA019362E2A37A0A","659c954e-247e-4b02-8c37-3c682fd53131","6d972c12-ef4f-4967-baa7-815328c4c025","{""num_scrambled_semantic"":""8"",""num_scrambled_causal"":""4"",""num_scrambled_schematic"":""4"",""participantId"":""9E4D237A57E24EF7AA019362E2A37A0A"",""assignmentId"":""659c954e-247e-4b02-8c37-3c682fd53131"",""projectId"":""6d972c12-ef4f-4967-baa7-815328c4c025""}","https://test12345.live/?num_scrambled_semantic=8&num_scrambled_causal=4&num_scrambled_schematic=4&participantId=9E4D237A57E24EF7AA019362E2A37A0A&assignmentId=659c954e-247e-4b02-8c37-3c682fd53131&projectId=6d972c12-ef4f-4967-baa7-815328c4c025","9E4D237A57E24EF7AA019362E2A37A0A-2025-08-07-17-54-45","","null","","[]","null","",""
"","","","","","image-button-response","37","227313","0.0-10.0-1.0-0.4","9E4D237A57E24EF7AA019362E2A37A0A","9E4D237A57E24EF7AA019362E2A37A0A","659c954e-247e-4b02-8c37-3c682fd53131","6d972c12-ef4f-4967-baa7-815328c4c025","{""num_scrambled_semantic"":""8"",""num_scrambled_causal"":""4"",""num_scrambled_schematic"":""4"",""participantId"":""9E4D237A57E24EF7AA019362E2A37A0A"",""assignmentId"":""659c954e-247e-4b02-8c37-3c682fd53131"",""projectId"":""6d972c12-ef4f-4967-baa7-815328c4c025""}","https://test12345.live/?num_scrambled_semantic=8&num_scrambled_causal=4&num_scrambled_schematic=4&participantId=9E4D237A57E24EF7AA019362E2A37A0A&assignmentId=659c954e-247e-4b02-8c37-3c682fd53131&projectId=6d972c12-ef4f-4967-baa7-815328c4c025","9E4D237A57E24EF7AA019362E2A37A0A-2025-08-07-17-54-45","","null","","images/semantic_sequence/housework_semantic/housework_semantic_6.png","null","",""
"","","","","","image-button-response","38","228581","0.0-10.0-1.0-1.4","9E4D237A57E24EF7AA019362E2A37A0A","9E4D237A57E24EF7AA019362E2A37A0A","659c954e-247e-4b02-8c37-3c682fd53131","6d972c12-ef4f-4967-baa7-815328c4c025","{""num_scrambled_semantic"":""8"",""num_scrambled_causal"":""4"",""num_scrambled_schematic"":""4"",""participantId"":""9E4D237A57E24EF7AA019362E2A37A0A"",""assignmentId"":""659c954e-247e-4b02-8c37-3c682fd53131"",""projectId"":""6d972c12-ef4f-4967-baa7-815328c4c025""}","https://test12345.live/?num_scrambled_semantic=8&num_scrambled_causal=4&num_scrambled_schematic=4&participantId=9E4D237A57E24EF7AA019362E2A37A0A&assignmentId=659c954e-247e-4b02-8c37-3c682fd53131&projectId=6d972c12-ef4f-4967-baa7-815328c4c025","9E4D237A57E24EF7AA019362E2A37A0A-2025-08-07-17-54-45","","1267","","images/semantic_sequence/housework_semantic/housework_semantic_6.png","0","",""
"","","","","","image-button-response","39","230388","0.0-10.0-1.0-2.4","9E4D237A57E24EF7AA019362E2A37A0A","9E4D237A57E24EF7AA019362E2A37A0A","659c954e-247e-4b02-8c37-3c682fd53131","6d972c12-ef4f-4967-baa7-815328c4c025","{""num_scrambled_semantic"":""8"",""num_scrambled_causal"":""4"",""num_scrambled_schematic"":""4"",""participantId"":""9E4D237A57E24EF7AA019362E2A37A0A"",""assignmentId"":""659c954e-247e-4b02-8c37-3c682fd53131"",""projectId"":""6d972c12-ef4f-4967-baa7-815328c4c025""}","https://test12345.live/?num_scrambled_semantic=8&num_scrambled_causal=4&num_scrambled_schematic=4&participantId=9E4D237A57E24EF7AA019362E2A37A0A&assignmentId=659c954e-247e-4b02-8c37-3c682fd53131&projectId=6d972c12-ef4f-4967-baa7-815328c4c025","9E4D237A57E24EF7AA019362E2A37A0A-2025-08-07-17-54-45","","null","","[]","null","",""
"","","","","","image-button-response","40","234893","0.0-10.0-1.0-0.5","9E4D237A57E24EF7AA019362E2A37A0A","9E4D237A57E24EF7AA019362E2A37A0A","659c954e-247e-4b02-8c37-3c682fd53131","6d972c12-ef4f-4967-baa7-815328c4c025","{""num_scrambled_semantic"":""8"",""num_scrambled_causal"":""4"",""num_scrambled_schematic"":""4"",""participantId"":""9E4D237A57E24EF7AA019362E2A37A0A"",""assignmentId"":""659c954e-247e-4b02-8c37-3c682fd53131"",""projectId"":""6d972c12-ef4f-4967-baa7-815328c4c025""}","https://test12345.live/?num_scrambled_semantic=8&num_scrambled_causal=4&num_scrambled_schematic=4&participantId=9E4D237A57E24EF7AA019362E2A37A0A&assignmentId=659c954e-247e-4b02-8c37-3c682fd53131&projectId=6d972c12-ef4f-4967-baa7-815328c4c025","9E4D237A57E24EF7AA019362E2A37A0A-2025-08-07-17-54-45","","null","","images/semantic_sequence/housework_semantic/housework_semantic_8.png","null","",""
"","","","","","image-button-response","41","237712","0.0-10.0-1.0-1.5","9E4D237A57E24EF7AA019362E2A37A0A","9E4D237A57E24EF7AA019362E2A37A0A","659c954e-247e-4b02-8c37-3c682fd53131","6d972c12-ef4f-4967-baa7-815328c4c025","{""num_scrambled_semantic"":""8"",""num_scrambled_causal"":""4"",""num_scrambled_schematic"":""4"",""participantId"":""9E4D237A57E24EF7AA019362E2A37A0A"",""assignmentId"":""659c954e-247e-4b02-8c37-3c682fd53131"",""projectId"":""6d972c12-ef4f-4967-baa7-815328c4c025""}","https://test12345.live/?num_scrambled_semantic=8&num_scrambled_causal=4&num_scrambled_schematic=4&participantId=9E4D237A57E24EF7AA019362E2A37A0A&assignmentId=659c954e-247e-4b02-8c37-3c682fd53131&projectId=6d972c12-ef4f-4967-baa7-815328c4c025","9E4D237A57E24EF7AA019362E2A37A0A-2025-08-07-17-54-45","","2817","","images/semantic_sequence/housework_semantic/housework_semantic_8.png","0","",""
"","","","","","image-button-response","42","239518","0.0-10.0-1.0-2.5","9E4D237A57E24EF7AA019362E2A37A0A","9E4D237A57E24EF7AA019362E2A37A0A","659c954e-247e-4b02-8c37-3c682fd53131","6d972c12-ef4f-4967-baa7-815328c4c025","{""num_scrambled_semantic"":""8"",""num_scrambled_causal"":""4"",""num_scrambled_schematic"":""4"",""participantId"":""9E4D237A57E24EF7AA019362E2A37A0A"",""assignmentId"":""659c954e-247e-4b02-8c37-3c682fd53131"",""projectId"":""6d972c12-ef4f-4967-baa7-815328c4c025""}","https://test12345.live/?num_scrambled_semantic=8&num_scrambled_causal=4&num_scrambled_schematic=4&participantId=9E4D237A57E24EF7AA019362E2A37A0A&assignmentId=659c954e-247e-4b02-8c37-3c682fd53131&projectId=6d972c12-ef4f-4967-baa7-815328c4c025","9E4D237A57E24EF7AA019362E2A37A0A-2025-08-07-17-54-45","","null","","[]","null","",""
"","","","","","image-button-response","43","244025","0.0-10.0-1.0-0.6","9E4D237A57E24EF7AA019362E2A37A0A","9E4D237A57E24EF7AA019362E2A37A0A","659c954e-247e-4b02-8c37-3c682fd53131","6d972c12-ef4f-4967-baa7-815328c4c025","{""num_scrambled_semantic"":""8"",""num_scrambled_causal"":""4"",""num_scrambled_schematic"":""4"",""participantId"":""9E4D237A57E24EF7AA019362E2A37A0A"",""assignmentId"":""659c954e-247e-4b02-8c37-3c682fd53131"",""projectId"":""6d972c12-ef4f-4967-baa7-815328c4c025""}","https://test12345.live/?num_scrambled_semantic=8&num_scrambled_causal=4&num_scrambled_schematic=4&participantId=9E4D237A57E24EF7AA019362E2A37A0A&assignmentId=659c954e-247e-4b02-8c37-3c682fd53131&projectId=6d972c12-ef4f-4967-baa7-815328c4c025","9E4D237A57E24EF7AA019362E2A37A0A-2025-08-07-17-54-45","","null","","images/semantic_sequence/housework_semantic/housework_semantic_5.png","null","",""
"","","","","","image-button-response","44","247062","0.0-10.0-1.0-1.6","9E4D237A57E24EF7AA019362E2A37A0A","9E4D237A57E24EF7AA019362E2A37A0A","659c954e-247e-4b02-8c37-3c682fd53131","6d972c12-ef4f-4967-baa7-815328c4c025","{""num_scrambled_semantic"":""8"",""num_scrambled_causal"":""4"",""num_scrambled_schematic"":""4"",""participantId"":""9E4D237A57E24EF7AA019362E2A37A0A"",""assignmentId"":""659c954e-247e-4b02-8c37-3c682fd53131"",""projectId"":""6d972c12-ef4f-4967-baa7-815328c4c025""}","https://test12345.live/?num_scrambled_semantic=8&num_scrambled_causal=4&num_scrambled_schematic=4&participantId=9E4D237A57E24EF7AA019362E2A37A0A&assignmentId=659c954e-247e-4b02-8c37-3c682fd53131&projectId=6d972c12-ef4f-4967-baa7-815328c4c025","9E4D237A57E24EF7AA019362E2A37A0A-2025-08-07-17-54-45","","3035","","images/semantic_sequence/housework_semantic/housework_semantic_5.png","0","",""
"","","","","","image-button-response","45","248864","0.0-10.0-1.0-2.6","9E4D237A57E24EF7AA019362E2A37A0A","9E4D237A57E24EF7AA019362E2A37A0A","659c954e-247e-4b02-8c37-3c682fd53131","6d972c12-ef4f-4967-baa7-815328c4c025","{""num_scrambled_semantic"":""8"",""num_scrambled_causal"":""4"",""num_scrambled_schematic"":""4"",""participantId"":""9E4D237A57E24EF7AA019362E2A37A0A"",""assignmentId"":""659c954e-247e-4b02-8c37-3c682fd53131"",""projectId"":""6d972c12-ef4f-4967-baa7-815328c4c025""}","https://test12345.live/?num_scrambled_semantic=8&num_scrambled_causal=4&num_scrambled_schematic=4&participantId=9E4D237A57E24EF7AA019362E2A37A0A&assignmentId=659c954e-247e-4b02-8c37-3c682fd53131&projectId=6d972c12-ef4f-4967-baa7-815328c4c025","9E4D237A57E24EF7AA019362E2A37A0A-2025-08-07-17-54-45","","null","","[]","null","",""
"","","","","","image-button-response","46","253370","0.0-10.0-1.0-0.7","9E4D237A57E24EF7AA019362E2A37A0A","9E4D237A57E24EF7AA019362E2A37A0A","659c954e-247e-4b02-8c37-3c682fd53131","6d972c12-ef4f-4967-baa7-815328c4c025","{""num_scrambled_semantic"":""8"",""num_scrambled_causal"":""4"",""num_scrambled_schematic"":""4"",""participantId"":""9E4D237A57E24EF7AA019362E2A37A0A"",""assignmentId"":""659c954e-247e-4b02-8c37-3c682fd53131"",""projectId"":""6d972c12-ef4f-4967-baa7-815328c4c025""}","https://test12345.live/?num_scrambled_semantic=8&num_scrambled_causal=4&num_scrambled_schematic=4&participantId=9E4D237A57E24EF7AA019362E2A37A0A&assignmentId=659c954e-247e-4b02-8c37-3c682fd53131&projectId=6d972c12-ef4f-4967-baa7-815328c4c025","9E4D237A57E24EF7AA019362E2A37A0A-2025-08-07-17-54-45","","null","","images/semantic_sequence/housework_semantic/housework_semantic_2.png","null","",""
"","","","","","image-button-response","47","256162","0.0-10.0-1.0-1.7","9E4D237A57E24EF7AA019362E2A37A0A","9E4D237A57E24EF7AA019362E2A37A0A","659c954e-247e-4b02-8c37-3c682fd53131","6d972c12-ef4f-4967-baa7-815328c4c025","{""num_scrambled_semantic"":""8"",""num_scrambled_causal"":""4"",""num_scrambled_schematic"":""4"",""participantId"":""9E4D237A57E24EF7AA019362E2A37A0A"",""assignmentId"":""659c954e-247e-4b02-8c37-3c682fd53131"",""projectId"":""6d972c12-ef4f-4967-baa7-815328c4c025""}","https://test12345.live/?num_scrambled_semantic=8&num_scrambled_causal=4&num_scrambled_schematic=4&participantId=9E4D237A57E24EF7AA019362E2A37A0A&assignmentId=659c954e-247e-4b02-8c37-3c682fd53131&projectId=6d972c12-ef4f-4967-baa7-815328c4c025","9E4D237A57E24EF7AA019362E2A37A0A-2025-08-07-17-54-45","","2790","","images/semantic_sequence/housework_semantic/housework_semantic_2.png","0","",""
"","","","","","image-button-response","48","257967","0.0-10.0-1.0-2.7","9E4D237A57E24EF7AA019362E2A37A0A","9E4D237A57E24EF7AA019362E2A37A0A","659c954e-247e-4b02-8c37-3c682fd53131","6d972c12-ef4f-4967-baa7-815328c4c025","{""num_scrambled_semantic"":""8"",""num_scrambled_causal"":""4"",""num_scrambled_schematic"":""4"",""participantId"":""9E4D237A57E24EF7AA019362E2A37A0A"",""assignmentId"":""659c954e-247e-4b02-8c37-3c682fd53131"",""projectId"":""6d972c12-ef4f-4967-baa7-815328c4c025""}","https://test12345.live/?num_scrambled_semantic=8&num_scrambled_causal=4&num_scrambled_schematic=4&participantId=9E4D237A57E24EF7AA019362E2A37A0A&assignmentId=659c954e-247e-4b02-8c37-3c682fd53131&projectId=6d972c12-ef4f-4967-baa7-815328c4c025","9E4D237A57E24EF7AA019362E2A37A0A-2025-08-07-17-54-45","","null","","[]","null","",""
"","","","","","image-button-response","49","262474","0.0-10.0-1.0-0.8","9E4D237A57E24EF7AA019362E2A37A0A","9E4D237A57E24EF7AA019362E2A37A0A","659c954e-247e-4b02-8c37-3c682fd53131","6d972c12-ef4f-4967-baa7-815328c4c025","{""num_scrambled_semantic"":""8"",""num_scrambled_causal"":""4"",""num_scrambled_schematic"":""4"",""participantId"":""9E4D237A57E24EF7AA019362E2A37A0A"",""assignmentId"":""659c954e-247e-4b02-8c37-3c682fd53131"",""projectId"":""6d972c12-ef4f-4967-baa7-815328c4c025""}","https://test12345.live/?num_scrambled_semantic=8&num_scrambled_causal=4&num_scrambled_schematic=4&participantId=9E4D237A57E24EF7AA019362E2A37A0A&assignmentId=659c954e-247e-4b02-8c37-3c682fd53131&projectId=6d972c12-ef4f-4967-baa7-815328c4c025","9E4D237A57E24EF7AA019362E2A37A0A-2025-08-07-17-54-45","","null","","images/semantic_sequence/housework_semantic/housework_semantic_3.png","null","",""
"","","","","","image-button-response","50","265295","0.0-10.0-1.0-1.8","9E4D237A57E24EF7AA019362E2A37A0A","9E4D237A57E24EF7AA019362E2A37A0A","659c954e-247e-4b02-8c37-3c682fd53131","6d972c12-ef4f-4967-baa7-815328c4c025","{""num_scrambled_semantic"":""8"",""num_scrambled_causal"":""4"",""num_scrambled_schematic"":""4"",""participantId"":""9E4D237A57E24EF7AA019362E2A37A0A"",""assignmentId"":""659c954e-247e-4b02-8c37-3c682fd53131"",""projectId"":""6d972c12-ef4f-4967-baa7-815328c4c025""}","https://test12345.live/?num_scrambled_semantic=8&num_scrambled_causal=4&num_scrambled_schematic=4&participantId=9E4D237A57E24EF7AA019362E2A37A0A&assignmentId=659c954e-247e-4b02-8c37-3c682fd53131&projectId=6d972c12-ef4f-4967-baa7-815328c4c025","9E4D237A57E24EF7AA019362E2A37A0A-2025-08-07-17-54-45","","2819","","images/semantic_sequence/housework_semantic/housework_semantic_3.png","0","",""
"","","","","","image-button-response","51","267100","0.0-10.0-1.0-2.8","9E4D237A57E24EF7AA019362E2A37A0A","9E4D237A57E24EF7AA019362E2A37A0A","659c954e-247e-4b02-8c37-3c682fd53131","6d972c12-ef4f-4967-baa7-815328c4c025","{""num_scrambled_semantic"":""8"",""num_scrambled_causal"":""4"",""num_scrambled_schematic"":""4"",""participantId"":""9E4D237A57E24EF7AA019362E2A37A0A"",""assignmentId"":""659c954e-247e-4b02-8c37-3c682fd53131"",""projectId"":""6d972c12-ef4f-4967-baa7-815328c4c025""}","https://test12345.live/?num_scrambled_semantic=8&num_scrambled_causal=4&num_scrambled_schematic=4&participantId=9E4D237A57E24EF7AA019362E2A37A0A&assignmentId=659c954e-247e-4b02-8c37-3c682fd53131&projectId=6d972c12-ef4f-4967-baa7-815328c4c025","9E4D237A57E24EF7AA019362E2A37A0A-2025-08-07-17-54-45","","null","","[]","null","",""
"","","","","","image-button-response","52","271605","0.0-10.0-1.0-0.9","9E4D237A57E24EF7AA019362E2A37A0A","9E4D237A57E24EF7AA019362E2A37A0A","659c954e-247e-4b02-8c37-3c682fd53131","6d972c12-ef4f-4967-baa7-815328c4c025","{""num_scrambled_semantic"":""8"",""num_scrambled_causal"":""4"",""num_scrambled_schematic"":""4"",""participantId"":""9E4D237A57E24EF7AA019362E2A37A0A"",""assignmentId"":""659c954e-247e-4b02-8c37-3c682fd53131"",""projectId"":""6d972c12-ef4f-4967-baa7-815328c4c025""}","https://test12345.live/?num_scrambled_semantic=8&num_scrambled_causal=4&num_scrambled_schematic=4&participantId=9E4D237A57E24EF7AA019362E2A37A0A&assignmentId=659c954e-247e-4b02-8c37-3c682fd53131&projectId=6d972c12-ef4f-4967-baa7-815328c4c025","9E4D237A57E24EF7AA019362E2A37A0A-2025-08-07-17-54-45","","null","","images/semantic_sequence/housework_semantic/housework_semantic_1.png","null","",""
"","","","","","image-button-response","53","274529","0.0-10.0-1.0-1.9","9E4D237A57E24EF7AA019362E2A37A0A","9E4D237A57E24EF7AA019362E2A37A0A","659c954e-247e-4b02-8c37-3c682fd53131","6d972c12-ef4f-4967-baa7-815328c4c025","{""num_scrambled_semantic"":""8"",""num_scrambled_causal"":""4"",""num_scrambled_schematic"":""4"",""participantId"":""9E4D237A57E24EF7AA019362E2A37A0A"",""assignmentId"":""659c954e-247e-4b02-8c37-3c682fd53131"",""projectId"":""6d972c12-ef4f-4967-baa7-815328c4c025""}","https://test12345.live/?num_scrambled_semantic=8&num_scrambled_causal=4&num_scrambled_schematic=4&participantId=9E4D237A57E24EF7AA019362E2A37A0A&assignmentId=659c954e-247e-4b02-8c37-3c682fd53131&projectId=6d972c12-ef4f-4967-baa7-815328c4c025","9E4D237A57E24EF7AA019362E2A37A0A-2025-08-07-17-54-45","","2922","","images/semantic_sequence/housework_semantic/housework_semantic_1.png","1","",""
"","","","","","image-button-response","54","276335","0.0-10.0-1.0-2.9","9E4D237A57E24EF7AA019362E2A37A0A","9E4D237A57E24EF7AA019362E2A37A0A","659c954e-247e-4b02-8c37-3c682fd53131","6d972c12-ef4f-4967-baa7-815328c4c025","{""num_scrambled_semantic"":""8"",""num_scrambled_causal"":""4"",""num_scrambled_schematic"":""4"",""participantId"":""9E4D237A57E24EF7AA019362E2A37A0A"",""assignmentId"":""659c954e-247e-4b02-8c37-3c682fd53131"",""projectId"":""6d972c12-ef4f-4967-baa7-815328c4c025""}","https://test12345.live/?num_scrambled_semantic=8&num_scrambled_causal=4&num_scrambled_schematic=4&participantId=9E4D237A57E24EF7AA019362E2A37A0A&assignmentId=659c954e-247e-4b02-8c37-3c682fd53131&projectId=6d972c12-ef4f-4967-baa7-815328c4c025","9E4D237A57E24EF7AA019362E2A37A0A-2025-08-07-17-54-45","","null","","[]","null","",""
"","","","","","html-audio-response","55","302828","0.0-11.0","9E4D237A57E24EF7AA019362E2A37A0A","9E4D237A57E24EF7AA019362E2A37A0A","659c954e-247e-4b02-8c37-3c682fd53131","6d972c12-ef4f-4967-baa7-815328c4c025","{""num_scrambled_semantic"":""8"",""num_scrambled_causal"":""4"",""num_scrambled_schematic"":""4"",""participantId"":""9E4D237A57E24EF7AA019362E2A37A0A"",""assignmentId"":""659c954e-247e-4b02-8c37-3c682fd53131"",""projectId"":""6d972c12-ef4f-4967-baa7-815328c4c025""}","https://test12345.live/?num_scrambled_semantic=8&num_scrambled_causal=4&num_scrambled_schematic=4&participantId=9E4D237A57E24EF7AA019362E2A37A0A&assignmentId=659c954e-247e-4b02-8c37-3c682fd53131&projectId=6d972c12-ef4f-4967-baa7-815328c4c025","9E4D237A57E24EF7AA019362E2A37A0A-2025-08-07-17-54-45","","25466","","[""<span style=\""color: red; font-size: 24px\""> NOW RECORDING</span><p>Please say out loud all the images you saw, in the exact order you saw them. Try to recall as many images as you can, but remember: getting the order right is more important than the number of images you recall.</p>""]","","2","housework_semantic"
"","","","","","image-button-response","56","308833","0.0-12.0-0.0","9E4D237A57E24EF7AA019362E2A37A0A","9E4D237A57E24EF7AA019362E2A37A0A","659c954e-247e-4b02-8c37-3c682fd53131","6d972c12-ef4f-4967-baa7-815328c4c025","{""num_scrambled_semantic"":""8"",""num_scrambled_causal"":""4"",""num_scrambled_schematic"":""4"",""participantId"":""9E4D237A57E24EF7AA019362E2A37A0A"",""assignmentId"":""659c954e-247e-4b02-8c37-3c682fd53131"",""projectId"":""6d972c12-ef4f-4967-baa7-815328c4c025""}","https://test12345.live/?num_scrambled_semantic=8&num_scrambled_causal=4&num_scrambled_schematic=4&participantId=9E4D237A57E24EF7AA019362E2A37A0A&assignmentId=659c954e-247e-4b02-8c37-3c682fd53131&projectId=6d972c12-ef4f-4967-baa7-815328c4c025","9E4D237A57E24EF7AA019362E2A37A0A-2025-08-07-17-54-45","","null","","images/causal_sequence/coin_causal/coin_causal_0.png","null","",""
"","","","","","image-button-response","57","313339","0.0-12.0-1.0-0.0","9E4D237A57E24EF7AA019362E2A37A0A","9E4D237A57E24EF7AA019362E2A37A0A","659c954e-247e-4b02-8c37-3c682fd53131","6d972c12-ef4f-4967-baa7-815328c4c025","{""num_scrambled_semantic"":""8"",""num_scrambled_causal"":""4"",""num_scrambled_schematic"":""4"",""participantId"":""9E4D237A57E24EF7AA019362E2A37A0A"",""assignmentId"":""659c954e-247e-4b02-8c37-3c682fd53131"",""projectId"":""6d972c12-ef4f-4967-baa7-815328c4c025""}","https://test12345.live/?num_scrambled_semantic=8&num_scrambled_causal=4&num_scrambled_schematic=4&participantId=9E4D237A57E24EF7AA019362E2A37A0A&assignmentId=659c954e-247e-4b02-8c37-3c682fd53131&projectId=6d972c12-ef4f-4967-baa7-815328c4c025","9E4D237A57E24EF7AA019362E2A37A0A-2025-08-07-17-54-45","","null","","images/causal_sequence/coin_causal/coin_causal_7.png","null","",""
"","","","","","image-button-response","58","314978","0.0-12.0-1.0-1.0","9E4D237A57E24EF7AA019362E2A37A0A","9E4D237A57E24EF7AA019362E2A37A0A","659c954e-247e-4b02-8c37-3c682fd53131","6d972c12-ef4f-4967-baa7-815328c4c025","{""num_scrambled_semantic"":""8"",""num_scrambled_causal"":""4"",""num_scrambled_schematic"":""4"",""participantId"":""9E4D237A57E24EF7AA019362E2A37A0A"",""assignmentId"":""659c954e-247e-4b02-8c37-3c682fd53131"",""projectId"":""6d972c12-ef4f-4967-baa7-815328c4c025""}","https://test12345.live/?num_scrambled_semantic=8&num_scrambled_causal=4&num_scrambled_schematic=4&participantId=9E4D237A57E24EF7AA019362E2A37A0A&assignmentId=659c954e-247e-4b02-8c37-3c682fd53131&projectId=6d972c12-ef4f-4967-baa7-815328c4c025","9E4D237A57E24EF7AA019362E2A37A0A-2025-08-07-17-54-45","","1637","","images/causal_sequence/coin_causal/coin_causal_7.png","1","",""
"","","","","","image-button-response","59","316784","0.0-12.0-1.0-2.0","9E4D237A57E24EF7AA019362E2A37A0A","9E4D237A57E24EF7AA019362E2A37A0A","659c954e-247e-4b02-8c37-3c682fd53131","6d972c12-ef4f-4967-baa7-815328c4c025","{""num_scrambled_semantic"":""8"",""num_scrambled_causal"":""4"",""num_scrambled_schematic"":""4"",""participantId"":""9E4D237A57E24EF7AA019362E2A37A0A"",""assignmentId"":""659c954e-247e-4b02-8c37-3c682fd53131"",""projectId"":""6d972c12-ef4f-4967-baa7-815328c4c025""}","https://test12345.live/?num_scrambled_semantic=8&num_scrambled_causal=4&num_scrambled_schematic=4&participantId=9E4D237A57E24EF7AA019362E2A37A0A&assignmentId=659c954e-247e-4b02-8c37-3c682fd53131&projectId=6d972c12-ef4f-4967-baa7-815328c4c025","9E4D237A57E24EF7AA019362E2A37A0A-2025-08-07-17-54-45","","null","","[]","null","",""
"","","","","","image-button-response","60","321289","0.0-12.0-1.0-0.1","9E4D237A57E24EF7AA019362E2A37A0A","9E4D237A57E24EF7AA019362E2A37A0A","659c954e-247e-4b02-8c37-3c682fd53131","6d972c12-ef4f-4967-baa7-815328c4c025","{""num_scrambled_semantic"":""8"",""num_scrambled_causal"":""4"",""num_scrambled_schematic"":""4"",""participantId"":""9E4D237A57E24EF7AA019362E2A37A0A"",""assignmentId"":""659c954e-247e-4b02-8c37-3c682fd53131"",""projectId"":""6d972c12-ef4f-4967-baa7-815328c4c025""}","https://test12345.live/?num_scrambled_semantic=8&num_scrambled_causal=4&num_scrambled_schematic=4&participantId=9E4D237A57E24EF7AA019362E2A37A0A&assignmentId=659c954e-247e-4b02-8c37-3c682fd53131&projectId=6d972c12-ef4f-4967-baa7-815328c4c025","9E4D237A57E24EF7AA019362E2A37A0A-2025-08-07-17-54-45","","null","","images/causal_sequence/coin_causal/coin_causal_1.png","null","",""
"","","","","","image-button-response","61","322811","0.0-12.0-1.0-1.1","9E4D237A57E24EF7AA019362E2A37A0A","9E4D237A57E24EF7AA019362E2A37A0A","659c954e-247e-4b02-8c37-3c682fd53131","6d972c12-ef4f-4967-baa7-815328c4c025","{""num_scrambled_semantic"":""8"",""num_scrambled_causal"":""4"",""num_scrambled_schematic"":""4"",""participantId"":""9E4D237A57E24EF7AA019362E2A37A0A"",""assignmentId"":""659c954e-247e-4b02-8c37-3c682fd53131"",""projectId"":""6d972c12-ef4f-4967-baa7-815328c4c025""}","https://test12345.live/?num_scrambled_semantic=8&num_scrambled_causal=4&num_scrambled_schematic=4&participantId=9E4D237A57E24EF7AA019362E2A37A0A&assignmentId=659c954e-247e-4b02-8c37-3c682fd53131&projectId=6d972c12-ef4f-4967-baa7-815328c4c025","9E4D237A57E24EF7AA019362E2A37A0A-2025-08-07-17-54-45","","1521","","images/causal_sequence/coin_causal/coin_causal_1.png","0","",""
"","","","","","image-button-response","62","324618","0.0-12.0-1.0-2.1","9E4D237A57E24EF7AA019362E2A37A0A","9E4D237A57E24EF7AA019362E2A37A0A","659c954e-247e-4b02-8c37-3c682fd53131","6d972c12-ef4f-4967-baa7-815328c4c025","{""num_scrambled_semantic"":""8"",""num_scrambled_causal"":""4"",""num_scrambled_schematic"":""4"",""participantId"":""9E4D237A57E24EF7AA019362E2A37A0A"",""assignmentId"":""659c954e-247e-4b02-8c37-3c682fd53131"",""projectId"":""6d972c12-ef4f-4967-baa7-815328c4c025""}","https://test12345.live/?num_scrambled_semantic=8&num_scrambled_causal=4&num_scrambled_schematic=4&participantId=9E4D237A57E24EF7AA019362E2A37A0A&assignmentId=659c954e-247e-4b02-8c37-3c682fd53131&projectId=6d972c12-ef4f-4967-baa7-815328c4c025","9E4D237A57E24EF7AA019362E2A37A0A-2025-08-07-17-54-45","","null","","[]","null","",""
"","","","","","image-button-response","63","329123","0.0-12.0-1.0-0.2","9E4D237A57E24EF7AA019362E2A37A0A","9E4D237A57E24EF7AA019362E2A37A0A","659c954e-247e-4b02-8c37-3c682fd53131","6d972c12-ef4f-4967-baa7-815328c4c025","{""num_scrambled_semantic"":""8"",""num_scrambled_causal"":""4"",""num_scrambled_schematic"":""4"",""participantId"":""9E4D237A57E24EF7AA019362E2A37A0A"",""assignmentId"":""659c954e-247e-4b02-8c37-3c682fd53131"",""projectId"":""6d972c12-ef4f-4967-baa7-815328c4c025""}","https://test12345.live/?num_scrambled_semantic=8&num_scrambled_causal=4&num_scrambled_schematic=4&participantId=9E4D237A57E24EF7AA019362E2A37A0A&assignmentId=659c954e-247e-4b02-8c37-3c682fd53131&projectId=6d972c12-ef4f-4967-baa7-815328c4c025","9E4D237A57E24EF7AA019362E2A37A0A-2025-08-07-17-54-45","","null","","images/causal_sequence/coin_causal/coin_causal_8.png","null","",""
"","","","","","image-button-response","64","330844","0.0-12.0-1.0-1.2","9E4D237A57E24EF7AA019362E2A37A0A","9E4D237A57E24EF7AA019362E2A37A0A","659c954e-247e-4b02-8c37-3c682fd53131","6d972c12-ef4f-4967-baa7-815328c4c025","{""num_scrambled_semantic"":""8"",""num_scrambled_causal"":""4"",""num_scrambled_schematic"":""4"",""participantId"":""9E4D237A57E24EF7AA019362E2A37A0A"",""assignmentId"":""659c954e-247e-4b02-8c37-3c682fd53131"",""projectId"":""6d972c12-ef4f-4967-baa7-815328c4c025""}","https://test12345.live/?num_scrambled_semantic=8&num_scrambled_causal=4&num_scrambled_schematic=4&participantId=9E4D237A57E24EF7AA019362E2A37A0A&assignmentId=659c954e-247e-4b02-8c37-3c682fd53131&projectId=6d972c12-ef4f-4967-baa7-815328c4c025","9E4D237A57E24EF7AA019362E2A37A0A-2025-08-07-17-54-45","","1719","","images/causal_sequence/coin_causal/coin_causal_8.png","0","",""
"","","","","","image-button-response","65","332649","0.0-12.0-1.0-2.2","9E4D237A57E24EF7AA019362E2A37A0A","9E4D237A57E24EF7AA019362E2A37A0A","659c954e-247e-4b02-8c37-3c682fd53131","6d972c12-ef4f-4967-baa7-815328c4c025","{""num_scrambled_semantic"":""8"",""num_scrambled_causal"":""4"",""num_scrambled_schematic"":""4"",""participantId"":""9E4D237A57E24EF7AA019362E2A37A0A"",""assignmentId"":""659c954e-247e-4b02-8c37-3c682fd53131"",""projectId"":""6d972c12-ef4f-4967-baa7-815328c4c025""}","https://test12345.live/?num_scrambled_semantic=8&num_scrambled_causal=4&num_scrambled_schematic=4&participantId=9E4D237A57E24EF7AA019362E2A37A0A&assignmentId=659c954e-247e-4b02-8c37-3c682fd53131&projectId=6d972c12-ef4f-4967-baa7-815328c4c025","9E4D237A57E24EF7AA019362E2A37A0A-2025-08-07-17-54-45","","null","","[]","null","",""
"","","","","","image-button-response","66","337153","0.0-12.0-1.0-0.3","9E4D237A57E24EF7AA019362E2A37A0A","9E4D237A57E24EF7AA019362E2A37A0A","659c954e-247e-4b02-8c37-3c682fd53131","6d972c12-ef4f-4967-baa7-815328c4c025","{""num_scrambled_semantic"":""8"",""num_scrambled_causal"":""4"",""num_scrambled_schematic"":""4"",""participantId"":""9E4D237A57E24EF7AA019362E2A37A0A"",""assignmentId"":""659c954e-247e-4b02-8c37-3c682fd53131"",""projectId"":""6d972c12-ef4f-4967-baa7-815328c4c025""}","https://test12345.live/?num_scrambled_semantic=8&num_scrambled_causal=4&num_scrambled_schematic=4&participantId=9E4D237A57E24EF7AA019362E2A37A0A&assignmentId=659c954e-247e-4b02-8c37-3c682fd53131&projectId=6d972c12-ef4f-4967-baa7-815328c4c025","9E4D237A57E24EF7AA019362E2A37A0A-2025-08-07-17-54-45","","null","","images/causal_sequence/coin_causal/coin_causal_6.png","null","",""
"","","","","","image-button-response","67","339644","0.0-12.0-1.0-1.3","9E4D237A57E24EF7AA019362E2A37A0A","9E4D237A57E24EF7AA019362E2A37A0A","659c954e-247e-4b02-8c37-3c682fd53131","6d972c12-ef4f-4967-baa7-815328c4c025","{""num_scrambled_semantic"":""8"",""num_scrambled_causal"":""4"",""num_scrambled_schematic"":""4"",""participantId"":""9E4D237A57E24EF7AA019362E2A37A0A"",""assignmentId"":""659c954e-247e-4b02-8c37-3c682fd53131"",""projectId"":""6d972c12-ef4f-4967-baa7-815328c4c025""}","https://test12345.live/?num_scrambled_semantic=8&num_scrambled_causal=4&num_scrambled_schematic=4&participantId=9E4D237A57E24EF7AA019362E2A37A0A&assignmentId=659c954e-247e-4b02-8c37-3c682fd53131&projectId=6d972c12-ef4f-4967-baa7-815328c4c025","9E4D237A57E24EF7AA019362E2A37A0A-2025-08-07-17-54-45","","2490","","images/causal_sequence/coin_causal/coin_causal_6.png","1","",""
"","","","","","image-button-response","68","341451","0.0-12.0-1.0-2.3","9E4D237A57E24EF7AA019362E2A37A0A","9E4D237A57E24EF7AA019362E2A37A0A","659c954e-247e-4b02-8c37-3c682fd53131","6d972c12-ef4f-4967-baa7-815328c4c025","{""num_scrambled_semantic"":""8"",""num_scrambled_causal"":""4"",""num_scrambled_schematic"":""4"",""participantId"":""9E4D237A57E24EF7AA019362E2A37A0A"",""assignmentId"":""659c954e-247e-4b02-8c37-3c682fd53131"",""projectId"":""6d972c12-ef4f-4967-baa7-815328c4c025""}","https://test12345.live/?num_scrambled_semantic=8&num_scrambled_causal=4&num_scrambled_schematic=4&participantId=9E4D237A57E24EF7AA019362E2A37A0A&assignmentId=659c954e-247e-4b02-8c37-3c682fd53131&projectId=6d972c12-ef4f-4967-baa7-815328c4c025","9E4D237A57E24EF7AA019362E2A37A0A-2025-08-07-17-54-45","","null","","[]","null","",""
"","","","","","image-button-response","69","345958","0.0-12.0-1.0-0.4","9E4D237A57E24EF7AA019362E2A37A0A","9E4D237A57E24EF7AA019362E2A37A0A","659c954e-247e-4b02-8c37-3c682fd53131","6d972c12-ef4f-4967-baa7-815328c4c025","{""num_scrambled_semantic"":""8"",""num_scrambled_causal"":""4"",""num_scrambled_schematic"":""4"",""participantId"":""9E4D237A57E24EF7AA019362E2A37A0A"",""assignmentId"":""659c954e-247e-4b02-8c37-3c682fd53131"",""projectId"":""6d972c12-ef4f-4967-baa7-815328c4c025""}","https://test12345.live/?num_scrambled_semantic=8&num_scrambled_causal=4&num_scrambled_schematic=4&participantId=9E4D237A57E24EF7AA019362E2A37A0A&assignmentId=659c954e-247e-4b02-8c37-3c682fd53131&projectId=6d972c12-ef4f-4967-baa7-815328c4c025","9E4D237A57E24EF7AA019362E2A37A0A-2025-08-07-17-54-45","","null","","images/causal_sequence/coin_causal/coin_causal_ten.png","null","",""
"","","","","","image-button-response","70","347511","0.0-12.0-1.0-1.4","9E4D237A57E24EF7AA019362E2A37A0A","9E4D237A57E24EF7AA019362E2A37A0A","659c954e-247e-4b02-8c37-3c682fd53131","6d972c12-ef4f-4967-baa7-815328c4c025","{""num_scrambled_semantic"":""8"",""num_scrambled_causal"":""4"",""num_scrambled_schematic"":""4"",""participantId"":""9E4D237A57E24EF7AA019362E2A37A0A"",""assignmentId"":""659c954e-247e-4b02-8c37-3c682fd53131"",""projectId"":""6d972c12-ef4f-4967-baa7-815328c4c025""}","https://test12345.live/?num_scrambled_semantic=8&num_scrambled_causal=4&num_scrambled_schematic=4&participantId=9E4D237A57E24EF7AA019362E2A37A0A&assignmentId=659c954e-247e-4b02-8c37-3c682fd53131&projectId=6d972c12-ef4f-4967-baa7-815328c4c025","9E4D237A57E24EF7AA019362E2A37A0A-2025-08-07-17-54-45","","1551","","images/causal_sequence/coin_causal/coin_causal_ten.png","0","",""
"","","","","","image-button-response","71","349317","0.0-12.0-1.0-2.4","9E4D237A57E24EF7AA019362E2A37A0A","9E4D237A57E24EF7AA019362E2A37A0A","659c954e-247e-4b02-8c37-3c682fd53131","6d972c12-ef4f-4967-baa7-815328c4c025","{""num_scrambled_semantic"":""8"",""num_scrambled_causal"":""4"",""num_scrambled_schematic"":""4"",""participantId"":""9E4D237A57E24EF7AA019362E2A37A0A"",""assignmentId"":""659c954e-247e-4b02-8c37-3c682fd53131"",""projectId"":""6d972c12-ef4f-4967-baa7-815328c4c025""}","https://test12345.live/?num_scrambled_semantic=8&num_scrambled_causal=4&num_scrambled_schematic=4&participantId=9E4D237A57E24EF7AA019362E2A37A0A&assignmentId=659c954e-247e-4b02-8c37-3c682fd53131&projectId=6d972c12-ef4f-4967-baa7-815328c4c025","9E4D237A57E24EF7AA019362E2A37A0A-2025-08-07-17-54-45","","null","","[]","null","",""
"","","","","","image-button-response","72","353822","0.0-12.0-1.0-0.5","9E4D237A57E24EF7AA019362E2A37A0A","9E4D237A57E24EF7AA019362E2A37A0A","659c954e-247e-4b02-8c37-3c682fd53131","6d972c12-ef4f-4967-baa7-815328c4c025","{""num_scrambled_semantic"":""8"",""num_scrambled_causal"":""4"",""num_scrambled_schematic"":""4"",""participantId"":""9E4D237A57E24EF7AA019362E2A37A0A"",""assignmentId"":""659c954e-247e-4b02-8c37-3c682fd53131"",""projectId"":""6d972c12-ef4f-4967-baa7-815328c4c025""}","https://test12345.live/?num_scrambled_semantic=8&num_scrambled_causal=4&num_scrambled_schematic=4&participantId=9E4D237A57E24EF7AA019362E2A37A0A&assignmentId=659c954e-247e-4b02-8c37-3c682fd53131&projectId=6d972c12-ef4f-4967-baa7-815328c4c025","9E4D237A57E24EF7AA019362E2A37A0A-2025-08-07-17-54-45","","null","","images/causal_sequence/coin_causal/coin_causal_2.png","null","",""
"","","","","","image-button-response","73","355078","0.0-12.0-1.0-1.5","9E4D237A57E24EF7AA019362E2A37A0A","9E4D237A57E24EF7AA019362E2A37A0A","659c954e-247e-4b02-8c37-3c682fd53131","6d972c12-ef4f-4967-baa7-815328c4c025","{""num_scrambled_semantic"":""8"",""num_scrambled_causal"":""4"",""num_scrambled_schematic"":""4"",""participantId"":""9E4D237A57E24EF7AA019362E2A37A0A"",""assignmentId"":""659c954e-247e-4b02-8c37-3c682fd53131"",""projectId"":""6d972c12-ef4f-4967-baa7-815328c4c025""}","https://test12345.live/?num_scrambled_semantic=8&num_scrambled_causal=4&num_scrambled_schematic=4&participantId=9E4D237A57E24EF7AA019362E2A37A0A&assignmentId=659c954e-247e-4b02-8c37-3c682fd53131&projectId=6d972c12-ef4f-4967-baa7-815328c4c025","9E4D237A57E24EF7AA019362E2A37A0A-2025-08-07-17-54-45","","1253","","images/causal_sequence/coin_causal/coin_causal_2.png","0","",""
"","","","","","image-button-response","74","356882","0.0-12.0-1.0-2.5","9E4D237A57E24EF7AA019362E2A37A0A","9E4D237A57E24EF7AA019362E2A37A0A","659c954e-247e-4b02-8c37-3c682fd53131","6d972c12-ef4f-4967-baa7-815328c4c025","{""num_scrambled_semantic"":""8"",""num_scrambled_causal"":""4"",""num_scrambled_schematic"":""4"",""participantId"":""9E4D237A57E24EF7AA019362E2A37A0A"",""assignmentId"":""659c954e-247e-4b02-8c37-3c682fd53131"",""projectId"":""6d972c12-ef4f-4967-baa7-815328c4c025""}","https://test12345.live/?num_scrambled_semantic=8&num_scrambled_causal=4&num_scrambled_schematic=4&participantId=9E4D237A57E24EF7AA019362E2A37A0A&assignmentId=659c954e-247e-4b02-8c37-3c682fd53131&projectId=6d972c12-ef4f-4967-baa7-815328c4c025","9E4D237A57E24EF7AA019362E2A37A0A-2025-08-07-17-54-45","","null","","[]","null","",""
"","","","","","image-button-response","75","361388","0.0-12.0-1.0-0.6","9E4D237A57E24EF7AA019362E2A37A0A","9E4D237A57E24EF7AA019362E2A37A0A","659c954e-247e-4b02-8c37-3c682fd53131","6d972c12-ef4f-4967-baa7-815328c4c025","{""num_scrambled_semantic"":""8"",""num_scrambled_causal"":""4"",""num_scrambled_schematic"":""4"",""participantId"":""9E4D237A57E24EF7AA019362E2A37A0A"",""assignmentId"":""659c954e-247e-4b02-8c37-3c682fd53131"",""projectId"":""6d972c12-ef4f-4967-baa7-815328c4c025""}","https://test12345.live/?num_scrambled_semantic=8&num_scrambled_causal=4&num_scrambled_schematic=4&participantId=9E4D237A57E24EF7AA019362E2A37A0A&assignmentId=659c954e-247e-4b02-8c37-3c682fd53131&projectId=6d972c12-ef4f-4967-baa7-815328c4c025","9E4D237A57E24EF7AA019362E2A37A0A-2025-08-07-17-54-45","","null","","images/causal_sequence/coin_causal/coin_causal_9.png","null","",""
"","","","","","image-button-response","76","362244","0.0-12.0-1.0-1.6","9E4D237A57E24EF7AA019362E2A37A0A","9E4D237A57E24EF7AA019362E2A37A0A","659c954e-247e-4b02-8c37-3c682fd53131","6d972c12-ef4f-4967-baa7-815328c4c025","{""num_scrambled_semantic"":""8"",""num_scrambled_causal"":""4"",""num_scrambled_schematic"":""4"",""participantId"":""9E4D237A57E24EF7AA019362E2A37A0A"",""assignmentId"":""659c954e-247e-4b02-8c37-3c682fd53131"",""projectId"":""6d972c12-ef4f-4967-baa7-815328c4c025""}","https://test12345.live/?num_scrambled_semantic=8&num_scrambled_causal=4&num_scrambled_schematic=4&participantId=9E4D237A57E24EF7AA019362E2A37A0A&assignmentId=659c954e-247e-4b02-8c37-3c682fd53131&projectId=6d972c12-ef4f-4967-baa7-815328c4c025","9E4D237A57E24EF7AA019362E2A37A0A-2025-08-07-17-54-45","","854","","images/causal_sequence/coin_causal/coin_causal_9.png","0","",""
"","","","","","image-button-response","77","364048","0.0-12.0-1.0-2.6","9E4D237A57E24EF7AA019362E2A37A0A","9E4D237A57E24EF7AA019362E2A37A0A","659c954e-247e-4b02-8c37-3c682fd53131","6d972c12-ef4f-4967-baa7-815328c4c025","{""num_scrambled_semantic"":""8"",""num_scrambled_causal"":""4"",""num_scrambled_schematic"":""4"",""participantId"":""9E4D237A57E24EF7AA019362E2A37A0A"",""assignmentId"":""659c954e-247e-4b02-8c37-3c682fd53131"",""projectId"":""6d972c12-ef4f-4967-baa7-815328c4c025""}","https://test12345.live/?num_scrambled_semantic=8&num_scrambled_causal=4&num_scrambled_schematic=4&participantId=9E4D237A57E24EF7AA019362E2A37A0A&assignmentId=659c954e-247e-4b02-8c37-3c682fd53131&projectId=6d972c12-ef4f-4967-baa7-815328c4c025","9E4D237A57E24EF7AA019362E2A37A0A-2025-08-07-17-54-45","","null","","[]","null","",""
"","","","","","image-button-response","78","368556","0.0-12.0-1.0-0.7","9E4D237A57E24EF7AA019362E2A37A0A","9E4D237A57E24EF7AA019362E2A37A0A","659c954e-247e-4b02-8c37-3c682fd53131","6d972c12-ef4f-4967-baa7-815328c4c025","{""num_scrambled_semantic"":""8"",""num_scrambled_causal"":""4"",""num_scrambled_schematic"":""4"",""participantId"":""9E4D237A57E24EF7AA019362E2A37A0A"",""assignmentId"":""659c954e-247e-4b02-8c37-3c682fd53131"",""projectId"":""6d972c12-ef4f-4967-baa7-815328c4c025""}","https://test12345.live/?num_scrambled_semantic=8&num_scrambled_causal=4&num_scrambled_schematic=4&participantId=9E4D237A57E24EF7AA019362E2A37A0A&assignmentId=659c954e-247e-4b02-8c37-3c682fd53131&projectId=6d972c12-ef4f-4967-baa7-815328c4c025","9E4D237A57E24EF7AA019362E2A37A0A-2025-08-07-17-54-45","","null","","images/causal_sequence/coin_causal/coin_causal_5.png","null","",""
"","","","","","image-button-response","79","369394","0.0-12.0-1.0-1.7","9E4D237A57E24EF7AA019362E2A37A0A","9E4D237A57E24EF7AA019362E2A37A0A","659c954e-247e-4b02-8c37-3c682fd53131","6d972c12-ef4f-4967-baa7-815328c4c025","{""num_scrambled_semantic"":""8"",""num_scrambled_causal"":""4"",""num_scrambled_schematic"":""4"",""participantId"":""9E4D237A57E24EF7AA019362E2A37A0A"",""assignmentId"":""659c954e-247e-4b02-8c37-3c682fd53131"",""projectId"":""6d972c12-ef4f-4967-baa7-815328c4c025""}","https://test12345.live/?num_scrambled_semantic=8&num_scrambled_causal=4&num_scrambled_schematic=4&participantId=9E4D237A57E24EF7AA019362E2A37A0A&assignmentId=659c954e-247e-4b02-8c37-3c682fd53131&projectId=6d972c12-ef4f-4967-baa7-815328c4c025","9E4D237A57E24EF7AA019362E2A37A0A-2025-08-07-17-54-45","","837","","images/causal_sequence/coin_causal/coin_causal_5.png","0","",""
"","","","","","image-button-response","80","371196","0.0-12.0-1.0-2.7","9E4D237A57E24EF7AA019362E2A37A0A","9E4D237A57E24EF7AA019362E2A37A0A","659c954e-247e-4b02-8c37-3c682fd53131","6d972c12-ef4f-4967-baa7-815328c4c025","{""num_scrambled_semantic"":""8"",""num_scrambled_causal"":""4"",""num_scrambled_schematic"":""4"",""participantId"":""9E4D237A57E24EF7AA019362E2A37A0A"",""assignmentId"":""659c954e-247e-4b02-8c37-3c682fd53131"",""projectId"":""6d972c12-ef4f-4967-baa7-815328c4c025""}","https://test12345.live/?num_scrambled_semantic=8&num_scrambled_causal=4&num_scrambled_schematic=4&participantId=9E4D237A57E24EF7AA019362E2A37A0A&assignmentId=659c954e-247e-4b02-8c37-3c682fd53131&projectId=6d972c12-ef4f-4967-baa7-815328c4c025","9E4D237A57E24EF7AA019362E2A37A0A-2025-08-07-17-54-45","","null","","[]","null","",""
"","","","","","image-button-response","81","375703","0.0-12.0-1.0-0.8","9E4D237A57E24EF7AA019362E2A37A0A","9E4D237A57E24EF7AA019362E2A37A0A","659c954e-247e-4b02-8c37-3c682fd53131","6d972c12-ef4f-4967-baa7-815328c4c025","{""num_scrambled_semantic"":""8"",""num_scrambled_causal"":""4"",""num_scrambled_schematic"":""4"",""participantId"":""9E4D237A57E24EF7AA019362E2A37A0A"",""assignmentId"":""659c954e-247e-4b02-8c37-3c682fd53131"",""projectId"":""6d972c12-ef4f-4967-baa7-815328c4c025""}","https://test12345.live/?num_scrambled_semantic=8&num_scrambled_causal=4&num_scrambled_schematic=4&participantId=9E4D237A57E24EF7AA019362E2A37A0A&assignmentId=659c954e-247e-4b02-8c37-3c682fd53131&projectId=6d972c12-ef4f-4967-baa7-815328c4c025","9E4D237A57E24EF7AA019362E2A37A0A-2025-08-07-17-54-45","","null","","images/causal_sequence/coin_causal/coin_causal_4.png","null","",""
"","","","","","image-button-response","82","376377","0.0-12.0-1.0-1.8","9E4D237A57E24EF7AA019362E2A37A0A","9E4D237A57E24EF7AA019362E2A37A0A","659c954e-247e-4b02-8c37-3c682fd53131","6d972c12-ef4f-4967-baa7-815328c4c025","{""num_scrambled_semantic"":""8"",""num_scrambled_causal"":""4"",""num_scrambled_schematic"":""4"",""participantId"":""9E4D237A57E24EF7AA019362E2A37A0A"",""assignmentId"":""659c954e-247e-4b02-8c37-3c682fd53131"",""projectId"":""6d972c12-ef4f-4967-baa7-815328c4c025""}","https://test12345.live/?num_scrambled_semantic=8&num_scrambled_causal=4&num_scrambled_schematic=4&participantId=9E4D237A57E24EF7AA019362E2A37A0A&assignmentId=659c954e-247e-4b02-8c37-3c682fd53131&projectId=6d972c12-ef4f-4967-baa7-815328c4c025","9E4D237A57E24EF7AA019362E2A37A0A-2025-08-07-17-54-45","","672","","images/causal_sequence/coin_causal/coin_causal_4.png","0","",""
"","","","","","image-button-response","83","378182","0.0-12.0-1.0-2.8","9E4D237A57E24EF7AA019362E2A37A0A","9E4D237A57E24EF7AA019362E2A37A0A","659c954e-247e-4b02-8c37-3c682fd53131","6d972c12-ef4f-4967-baa7-815328c4c025","{""num_scrambled_semantic"":""8"",""num_scrambled_causal"":""4"",""num_scrambled_schematic"":""4"",""participantId"":""9E4D237A57E24EF7AA019362E2A37A0A"",""assignmentId"":""659c954e-247e-4b02-8c37-3c682fd53131"",""projectId"":""6d972c12-ef4f-4967-baa7-815328c4c025""}","https://test12345.live/?num_scrambled_semantic=8&num_scrambled_causal=4&num_scrambled_schematic=4&participantId=9E4D237A57E24EF7AA019362E2A37A0A&assignmentId=659c954e-247e-4b02-8c37-3c682fd53131&projectId=6d972c12-ef4f-4967-baa7-815328c4c025","9E4D237A57E24EF7AA019362E2A37A0A-2025-08-07-17-54-45","","null","","[]","null","",""
"","","","","","image-button-response","84","382688","0.0-12.0-1.0-0.9","9E4D237A57E24EF7AA019362E2A37A0A","9E4D237A57E24EF7AA019362E2A37A0A","659c954e-247e-4b02-8c37-3c682fd53131","6d972c12-ef4f-4967-baa7-815328c4c025","{""num_scrambled_semantic"":""8"",""num_scrambled_causal"":""4"",""num_scrambled_schematic"":""4"",""participantId"":""9E4D237A57E24EF7AA019362E2A37A0A"",""assignmentId"":""659c954e-247e-4b02-8c37-3c682fd53131"",""projectId"":""6d972c12-ef4f-4967-baa7-815328c4c025""}","https://test12345.live/?num_scrambled_semantic=8&num_scrambled_causal=4&num_scrambled_schematic=4&participantId=9E4D237A57E24EF7AA019362E2A37A0A&assignmentId=659c954e-247e-4b02-8c37-3c682fd53131&projectId=6d972c12-ef4f-4967-baa7-815328c4c025","9E4D237A57E24EF7AA019362E2A37A0A-2025-08-07-17-54-45","","null","","images/causal_sequence/coin_causal/coin_causal_3.png","null","",""
"","","","","","image-button-response","85","383277","0.0-12.0-1.0-1.9","9E4D237A57E24EF7AA019362E2A37A0A","9E4D237A57E24EF7AA019362E2A37A0A","659c954e-247e-4b02-8c37-3c682fd53131","6d972c12-ef4f-4967-baa7-815328c4c025","{""num_scrambled_semantic"":""8"",""num_scrambled_causal"":""4"",""num_scrambled_schematic"":""4"",""participantId"":""9E4D237A57E24EF7AA019362E2A37A0A"",""assignmentId"":""659c954e-247e-4b02-8c37-3c682fd53131"",""projectId"":""6d972c12-ef4f-4967-baa7-815328c4c025""}","https://test12345.live/?num_scrambled_semantic=8&num_scrambled_causal=4&num_scrambled_schematic=4&participantId=9E4D237A57E24EF7AA019362E2A37A0A&assignmentId=659c954e-247e-4b02-8c37-3c682fd53131&projectId=6d972c12-ef4f-4967-baa7-815328c4c025","9E4D237A57E24EF7AA019362E2A37A0A-2025-08-07-17-54-45","","587","","images/causal_sequence/coin_causal/coin_causal_3.png","0","",""
"","","","","","image-button-response","86","385082","0.0-12.0-1.0-2.9","9E4D237A57E24EF7AA019362E2A37A0A","9E4D237A57E24EF7AA019362E2A37A0A","659c954e-247e-4b02-8c37-3c682fd53131","6d972c12-ef4f-4967-baa7-815328c4c025","{""num_scrambled_semantic"":""8"",""num_scrambled_causal"":""4"",""num_scrambled_schematic"":""4"",""participantId"":""9E4D237A57E24EF7AA019362E2A37A0A"",""assignmentId"":""659c954e-247e-4b02-8c37-3c682fd53131"",""projectId"":""6d972c12-ef4f-4967-baa7-815328c4c025""}","https://test12345.live/?num_scrambled_semantic=8&num_scrambled_causal=4&num_scrambled_schematic=4&participantId=9E4D237A57E24EF7AA019362E2A37A0A&assignmentId=659c954e-247e-4b02-8c37-3c682fd53131&projectId=6d972c12-ef4f-4967-baa7-815328c4c025","9E4D237A57E24EF7AA019362E2A37A0A-2025-08-07-17-54-45","","null","","[]","null","",""
"","","","","","html-audio-response","87","413376","0.0-13.0","9E4D237A57E24EF7AA019362E2A37A0A","9E4D237A57E24EF7AA019362E2A37A0A","659c954e-247e-4b02-8c37-3c682fd53131","6d972c12-ef4f-4967-baa7-815328c4c025","{""num_scrambled_semantic"":""8"",""num_scrambled_causal"":""4"",""num_scrambled_schematic"":""4"",""participantId"":""9E4D237A57E24EF7AA019362E2A37A0A"",""assignmentId"":""659c954e-247e-4b02-8c37-3c682fd53131"",""projectId"":""6d972c12-ef4f-4967-baa7-815328c4c025""}","https://test12345.live/?num_scrambled_semantic=8&num_scrambled_causal=4&num_scrambled_schematic=4&participantId=9E4D237A57E24EF7AA019362E2A37A0A&assignmentId=659c954e-247e-4b02-8c37-3c682fd53131&projectId=6d972c12-ef4f-4967-baa7-815328c4c025","9E4D237A57E24EF7AA019362E2A37A0A-2025-08-07-17-54-45","","27434","","[""<span style=\""color: red; font-size: 24px\""> NOW RECORDING</span><p>Please say out loud all the images you saw, in the exact order you saw them. Try to recall as many images as you can, but remember: getting the order right is more important than the number of images you recall.</p>""]","","2","coin_causal"
"","","","","","image-button-response","88","419386","0.0-14.0-0.0","9E4D237A57E24EF7AA019362E2A37A0A","9E4D237A57E24EF7AA019362E2A37A0A","659c954e-247e-4b02-8c37-3c682fd53131","6d972c12-ef4f-4967-baa7-815328c4c025","{""num_scrambled_semantic"":""8"",""num_scrambled_causal"":""4"",""num_scrambled_schematic"":""4"",""participantId"":""9E4D237A57E24EF7AA019362E2A37A0A"",""assignmentId"":""659c954e-247e-4b02-8c37-3c682fd53131"",""projectId"":""6d972c12-ef4f-4967-baa7-815328c4c025""}","https://test12345.live/?num_scrambled_semantic=8&num_scrambled_causal=4&num_scrambled_schematic=4&participantId=9E4D237A57E24EF7AA019362E2A37A0A&assignmentId=659c954e-247e-4b02-8c37-3c682fd53131&projectId=6d972c12-ef4f-4967-baa7-815328c4c025","9E4D237A57E24EF7AA019362E2A37A0A-2025-08-07-17-54-45","","null","","images/causal_sequence/saving_a_cat_causal/saving_a_cat_causal_0.png","null","",""
"","","","","","image-button-response","89","423892","0.0-14.0-1.0-0.0","9E4D237A57E24EF7AA019362E2A37A0A","9E4D237A57E24EF7AA019362E2A37A0A","659c954e-247e-4b02-8c37-3c682fd53131","6d972c12-ef4f-4967-baa7-815328c4c025","{""num_scrambled_semantic"":""8"",""num_scrambled_causal"":""4"",""num_scrambled_schematic"":""4"",""participantId"":""9E4D237A57E24EF7AA019362E2A37A0A"",""assignmentId"":""659c954e-247e-4b02-8c37-3c682fd53131"",""projectId"":""6d972c12-ef4f-4967-baa7-815328c4c025""}","https://test12345.live/?num_scrambled_semantic=8&num_scrambled_causal=4&num_scrambled_schematic=4&participantId=9E4D237A57E24EF7AA019362E2A37A0A&assignmentId=659c954e-247e-4b02-8c37-3c682fd53131&projectId=6d972c12-ef4f-4967-baa7-815328c4c025","9E4D237A57E24EF7AA019362E2A37A0A-2025-08-07-17-54-45","","null","","images/causal_sequence/saving_a_cat_causal/saving_a_cat_causal_1.png","null","",""
"","","","","","image-button-response","90","424827","0.0-14.0-1.0-1.0","9E4D237A57E24EF7AA019362E2A37A0A","9E4D237A57E24EF7AA019362E2A37A0A","659c954e-247e-4b02-8c37-3c682fd53131","6d972c12-ef4f-4967-baa7-815328c4c025","{""num_scrambled_semantic"":""8"",""num_scrambled_causal"":""4"",""num_scrambled_schematic"":""4"",""participantId"":""9E4D237A57E24EF7AA019362E2A37A0A"",""assignmentId"":""659c954e-247e-4b02-8c37-3c682fd53131"",""projectId"":""6d972c12-ef4f-4967-baa7-815328c4c025""}","https://test12345.live/?num_scrambled_semantic=8&num_scrambled_causal=4&num_scrambled_schematic=4&participantId=9E4D237A57E24EF7AA019362E2A37A0A&assignmentId=659c954e-247e-4b02-8c37-3c682fd53131&projectId=6d972c12-ef4f-4967-baa7-815328c4c025","9E4D237A57E24EF7AA019362E2A37A0A-2025-08-07-17-54-45","","933","","images/causal_sequence/saving_a_cat_causal/saving_a_cat_causal_1.png","0","",""
"","","","","","image-button-response","91","426633","0.0-14.0-1.0-2.0","9E4D237A57E24EF7AA019362E2A37A0A","9E4D237A57E24EF7AA019362E2A37A0A","659c954e-247e-4b02-8c37-3c682fd53131","6d972c12-ef4f-4967-baa7-815328c4c025","{""num_scrambled_semantic"":""8"",""num_scrambled_causal"":""4"",""num_scrambled_schematic"":""4"",""participantId"":""9E4D237A57E24EF7AA019362E2A37A0A"",""assignmentId"":""659c954e-247e-4b02-8c37-3c682fd53131"",""projectId"":""6d972c12-ef4f-4967-baa7-815328c4c025""}","https://test12345.live/?num_scrambled_semantic=8&num_scrambled_causal=4&num_scrambled_schematic=4&participantId=9E4D237A57E24EF7AA019362E2A37A0A&assignmentId=659c954e-247e-4b02-8c37-3c682fd53131&projectId=6d972c12-ef4f-4967-baa7-815328c4c025","9E4D237A57E24EF7AA019362E2A37A0A-2025-08-07-17-54-45","","null","","[]","null","",""
"","","","","","image-button-response","92","431140","0.0-14.0-1.0-0.1","9E4D237A57E24EF7AA019362E2A37A0A","9E4D237A57E24EF7AA019362E2A37A0A","659c954e-247e-4b02-8c37-3c682fd53131","6d972c12-ef4f-4967-baa7-815328c4c025","{""num_scrambled_semantic"":""8"",""num_scrambled_causal"":""4"",""num_scrambled_schematic"":""4"",""participantId"":""9E4D237A57E24EF7AA019362E2A37A0A"",""assignmentId"":""659c954e-247e-4b02-8c37-3c682fd53131"",""projectId"":""6d972c12-ef4f-4967-baa7-815328c4c025""}","https://test12345.live/?num_scrambled_semantic=8&num_scrambled_causal=4&num_scrambled_schematic=4&participantId=9E4D237A57E24EF7AA019362E2A37A0A&assignmentId=659c954e-247e-4b02-8c37-3c682fd53131&projectId=6d972c12-ef4f-4967-baa7-815328c4c025","9E4D237A57E24EF7AA019362E2A37A0A-2025-08-07-17-54-45","","null","","images/causal_sequence/saving_a_cat_causal/saving_a_cat_causal_2.png","null","",""
"","","","","","image-button-response","93","434327","0.0-14.0-1.0-1.1","9E4D237A57E24EF7AA019362E2A37A0A","9E4D237A57E24EF7AA019362E2A37A0A","659c954e-247e-4b02-8c37-3c682fd53131","6d972c12-ef4f-4967-baa7-815328c4c025","{""num_scrambled_semantic"":""8"",""num_scrambled_causal"":""4"",""num_scrambled_schematic"":""4"",""participantId"":""9E4D237A57E24EF7AA019362E2A37A0A"",""assignmentId"":""659c954e-247e-4b02-8c37-3c682fd53131"",""projectId"":""6d972c12-ef4f-4967-baa7-815328c4c025""}","https://test12345.live/?num_scrambled_semantic=8&num_scrambled_causal=4&num_scrambled_schematic=4&participantId=9E4D237A57E24EF7AA019362E2A37A0A&assignmentId=659c954e-247e-4b02-8c37-3c682fd53131&projectId=6d972c12-ef4f-4967-baa7-815328c4c025","9E4D237A57E24EF7AA019362E2A37A0A-2025-08-07-17-54-45","","3185","","images/causal_sequence/saving_a_cat_causal/saving_a_cat_causal_2.png","1","",""
"","","","","","image-button-response","94","436134","0.0-14.0-1.0-2.1","9E4D237A57E24EF7AA019362E2A37A0A","9E4D237A57E24EF7AA019362E2A37A0A","659c954e-247e-4b02-8c37-3c682fd53131","6d972c12-ef4f-4967-baa7-815328c4c025","{""num_scrambled_semantic"":""8"",""num_scrambled_causal"":""4"",""num_scrambled_schematic"":""4"",""participantId"":""9E4D237A57E24EF7AA019362E2A37A0A"",""assignmentId"":""659c954e-247e-4b02-8c37-3c682fd53131"",""projectId"":""6d972c12-ef4f-4967-baa7-815328c4c025""}","https://test12345.live/?num_scrambled_semantic=8&num_scrambled_causal=4&num_scrambled_schematic=4&participantId=9E4D237A57E24EF7AA019362E2A37A0A&assignmentId=659c954e-247e-4b02-8c37-3c682fd53131&projectId=6d972c12-ef4f-4967-baa7-815328c4c025","9E4D237A57E24EF7AA019362E2A37A0A-2025-08-07-17-54-45","","null","","[]","null","",""
"","","","","","image-button-response","95","440640","0.0-14.0-1.0-0.2","9E4D237A57E24EF7AA019362E2A37A0A","9E4D237A57E24EF7AA019362E2A37A0A","659c954e-247e-4b02-8c37-3c682fd53131","6d972c12-ef4f-4967-baa7-815328c4c025","{""num_scrambled_semantic"":""8"",""num_scrambled_causal"":""4"",""num_scrambled_schematic"":""4"",""participantId"":""9E4D237A57E24EF7AA019362E2A37A0A"",""assignmentId"":""659c954e-247e-4b02-8c37-3c682fd53131"",""projectId"":""6d972c12-ef4f-4967-baa7-815328c4c025""}","https://test12345.live/?num_scrambled_semantic=8&num_scrambled_causal=4&num_scrambled_schematic=4&participantId=9E4D237A57E24EF7AA019362E2A37A0A&assignmentId=659c954e-247e-4b02-8c37-3c682fd53131&projectId=6d972c12-ef4f-4967-baa7-815328c4c025","9E4D237A57E24EF7AA019362E2A37A0A-2025-08-07-17-54-45","","null","","images/causal_sequence/saving_a_cat_causal/saving_a_cat_causal_3.png","null","",""
"","","","","","image-button-response","96","444645","0.0-14.0-1.0-1.2","9E4D237A57E24EF7AA019362E2A37A0A","9E4D237A57E24EF7AA019362E2A37A0A","659c954e-247e-4b02-8c37-3c682fd53131","6d972c12-ef4f-4967-baa7-815328c4c025","{""num_scrambled_semantic"":""8"",""num_scrambled_causal"":""4"",""num_scrambled_schematic"":""4"",""participantId"":""9E4D237A57E24EF7AA019362E2A37A0A"",""assignmentId"":""659c954e-247e-4b02-8c37-3c682fd53131"",""projectId"":""6d972c12-ef4f-4967-baa7-815328c4c025""}","https://test12345.live/?num_scrambled_semantic=8&num_scrambled_causal=4&num_scrambled_schematic=4&participantId=9E4D237A57E24EF7AA019362E2A37A0A&assignmentId=659c954e-247e-4b02-8c37-3c682fd53131&projectId=6d972c12-ef4f-4967-baa7-815328c4c025","9E4D237A57E24EF7AA019362E2A37A0A-2025-08-07-17-54-45","","null","","images/causal_sequence/saving_a_cat_causal/saving_a_cat_causal_3.png","null","",""
"","","","","","image-button-response","97","446452","0.0-14.0-1.0-2.2","9E4D237A57E24EF7AA019362E2A37A0A","9E4D237A57E24EF7AA019362E2A37A0A","659c954e-247e-4b02-8c37-3c682fd53131","6d972c12-ef4f-4967-baa7-815328c4c025","{""num_scrambled_semantic"":""8"",""num_scrambled_causal"":""4"",""num_scrambled_schematic"":""4"",""participantId"":""9E4D237A57E24EF7AA019362E2A37A0A"",""assignmentId"":""659c954e-247e-4b02-8c37-3c682fd53131"",""projectId"":""6d972c12-ef4f-4967-baa7-815328c4c025""}","https://test12345.live/?num_scrambled_semantic=8&num_scrambled_causal=4&num_scrambled_schematic=4&participantId=9E4D237A57E24EF7AA019362E2A37A0A&assignmentId=659c954e-247e-4b02-8c37-3c682fd53131&projectId=6d972c12-ef4f-4967-baa7-815328c4c025","9E4D237A57E24EF7AA019362E2A37A0A-2025-08-07-17-54-45","","null","","[]","null","",""
"","","","","","image-button-response","98","450958","0.0-14.0-1.0-0.3","9E4D237A57E24EF7AA019362E2A37A0A","9E4D237A57E24EF7AA019362E2A37A0A","659c954e-247e-4b02-8c37-3c682fd53131","6d972c12-ef4f-4967-baa7-815328c4c025","{""num_scrambled_semantic"":""8"",""num_scrambled_causal"":""4"",""num_scrambled_schematic"":""4"",""participantId"":""9E4D237A57E24EF7AA019362E2A37A0A"",""assignmentId"":""659c954e-247e-4b02-8c37-3c682fd53131"",""projectId"":""6d972c12-ef4f-4967-baa7-815328c4c025""}","https://test12345.live/?num_scrambled_semantic=8&num_scrambled_causal=4&num_scrambled_schematic=4&participantId=9E4D237A57E24EF7AA019362E2A37A0A&assignmentId=659c954e-247e-4b02-8c37-3c682fd53131&projectId=6d972c12-ef4f-4967-baa7-815328c4c025","9E4D237A57E24EF7AA019362E2A37A0A-2025-08-07-17-54-45","","null","","images/causal_sequence/saving_a_cat_causal/saving_a_cat_causal_4.png","null","",""
"","","","","","image-button-response","99","452427","0.0-14.0-1.0-1.3","9E4D237A57E24EF7AA019362E2A37A0A","9E4D237A57E24EF7AA019362E2A37A0A","659c954e-247e-4b02-8c37-3c682fd53131","6d972c12-ef4f-4967-baa7-815328c4c025","{""num_scrambled_semantic"":""8"",""num_scrambled_causal"":""4"",""num_scrambled_schematic"":""4"",""participantId"":""9E4D237A57E24EF7AA019362E2A37A0A"",""assignmentId"":""659c954e-247e-4b02-8c37-3c682fd53131"",""projectId"":""6d972c12-ef4f-4967-baa7-815328c4c025""}","https://test12345.live/?num_scrambled_semantic=8&num_scrambled_causal=4&num_scrambled_schematic=4&participantId=9E4D237A57E24EF7AA019362E2A37A0A&assignmentId=659c954e-247e-4b02-8c37-3c682fd53131&projectId=6d972c12-ef4f-4967-baa7-815328c4c025","9E4D237A57E24EF7AA019362E2A37A0A-2025-08-07-17-54-45","","1467","","images/causal_sequence/saving_a_cat_causal/saving_a_cat_causal_4.png","0","",""
"","","","","","image-button-response","100","454234","0.0-14.0-1.0-2.3","9E4D237A57E24EF7AA019362E2A37A0A","9E4D237A57E24EF7AA019362E2A37A0A","659c954e-247e-4b02-8c37-3c682fd53131","6d972c12-ef4f-4967-baa7-815328c4c025","{""num_scrambled_semantic"":""8"",""num_scrambled_causal"":""4"",""num_scrambled_schematic"":""4"",""participantId"":""9E4D237A57E24EF7AA019362E2A37A0A"",""assignmentId"":""659c954e-247e-4b02-8c37-3c682fd53131"",""projectId"":""6d972c12-ef4f-4967-baa7-815328c4c025""}","https://test12345.live/?num_scrambled_semantic=8&num_scrambled_causal=4&num_scrambled_schematic=4&participantId=9E4D237A57E24EF7AA019362E2A37A0A&assignmentId=659c954e-247e-4b02-8c37-3c682fd53131&projectId=6d972c12-ef4f-4967-baa7-815328c4c025","9E4D237A57E24EF7AA019362E2A37A0A-2025-08-07-17-54-45","","null","","[]","null","",""
"","","","","","image-button-response","101","458736","0.0-14.0-1.0-0.4","9E4D237A57E24EF7AA019362E2A37A0A","9E4D237A57E24EF7AA019362E2A37A0A","659c954e-247e-4b02-8c37-3c682fd53131","6d972c12-ef4f-4967-baa7-815328c4c025","{""num_scrambled_semantic"":""8"",""num_scrambled_causal"":""4"",""num_scrambled_schematic"":""4"",""participantId"":""9E4D237A57E24EF7AA019362E2A37A0A"",""assignmentId"":""659c954e-247e-4b02-8c37-3c682fd53131"",""projectId"":""6d972c12-ef4f-4967-baa7-815328c4c025""}","https://test12345.live/?num_scrambled_semantic=8&num_scrambled_causal=4&num_scrambled_schematic=4&participantId=9E4D237A57E24EF7AA019362E2A37A0A&assignmentId=659c954e-247e-4b02-8c37-3c682fd53131&projectId=6d972c12-ef4f-4967-baa7-815328c4c025","9E4D237A57E24EF7AA019362E2A37A0A-2025-08-07-17-54-45","","null","","images/causal_sequence/saving_a_cat_causal/saving_a_cat_causal_5.png","null","",""
"","","","","","image-button-response","102","459977","0.0-14.0-1.0-1.4","9E4D237A57E24EF7AA019362E2A37A0A","9E4D237A57E24EF7AA019362E2A37A0A","659c954e-247e-4b02-8c37-3c682fd53131","6d972c12-ef4f-4967-baa7-815328c4c025","{""num_scrambled_semantic"":""8"",""num_scrambled_causal"":""4"",""num_scrambled_schematic"":""4"",""participantId"":""9E4D237A57E24EF7AA019362E2A37A0A"",""assignmentId"":""659c954e-247e-4b02-8c37-3c682fd53131"",""projectId"":""6d972c12-ef4f-4967-baa7-815328c4c025""}","https://test12345.live/?num_scrambled_semantic=8&num_scrambled_causal=4&num_scrambled_schematic=4&participantId=9E4D237A57E24EF7AA019362E2A37A0A&assignmentId=659c954e-247e-4b02-8c37-3c682fd53131&projectId=6d972c12-ef4f-4967-baa7-815328c4c025","9E4D237A57E24EF7AA019362E2A37A0A-2025-08-07-17-54-45","","1239","","images/causal_sequence/saving_a_cat_causal/saving_a_cat_causal_5.png","0","",""
"","","","","","image-button-response","103","461783","0.0-14.0-1.0-2.4","9E4D237A57E24EF7AA019362E2A37A0A","9E4D237A57E24EF7AA019362E2A37A0A","659c954e-247e-4b02-8c37-3c682fd53131","6d972c12-ef4f-4967-baa7-815328c4c025","{""num_scrambled_semantic"":""8"",""num_scrambled_causal"":""4"",""num_scrambled_schematic"":""4"",""participantId"":""9E4D237A57E24EF7AA019362E2A37A0A"",""assignmentId"":""659c954e-247e-4b02-8c37-3c682fd53131"",""projectId"":""6d972c12-ef4f-4967-baa7-815328c4c025""}","https://test12345.live/?num_scrambled_semantic=8&num_scrambled_causal=4&num_scrambled_schematic=4&participantId=9E4D237A57E24EF7AA019362E2A37A0A&assignmentId=659c954e-247e-4b02-8c37-3c682fd53131&projectId=6d972c12-ef4f-4967-baa7-815328c4c025","9E4D237A57E24EF7AA019362E2A37A0A-2025-08-07-17-54-45","","null","","[]","null","",""
"","","","","","image-button-response","104","466287","0.0-14.0-1.0-0.5","9E4D237A57E24EF7AA019362E2A37A0A","9E4D237A57E24EF7AA019362E2A37A0A","659c954e-247e-4b02-8c37-3c682fd53131","6d972c12-ef4f-4967-baa7-815328c4c025","{""num_scrambled_semantic"":""8"",""num_scrambled_causal"":""4"",""num_scrambled_schematic"":""4"",""participantId"":""9E4D237A57E24EF7AA019362E2A37A0A"",""assignmentId"":""659c954e-247e-4b02-8c37-3c682fd53131"",""projectId"":""6d972c12-ef4f-4967-baa7-815328c4c025""}","https://test12345.live/?num_scrambled_semantic=8&num_scrambled_causal=4&num_scrambled_schematic=4&participantId=9E4D237A57E24EF7AA019362E2A37A0A&assignmentId=659c954e-247e-4b02-8c37-3c682fd53131&projectId=6d972c12-ef4f-4967-baa7-815328c4c025","9E4D237A57E24EF7AA019362E2A37A0A-2025-08-07-17-54-45","","null","","images/causal_sequence/saving_a_cat_causal/saving_a_cat_causal_6.png","null","",""
"","","","","","image-button-response","105","467876","0.0-14.0-1.0-1.5","9E4D237A57E24EF7AA019362E2A37A0A","9E4D237A57E24EF7AA019362E2A37A0A","659c954e-247e-4b02-8c37-3c682fd53131","6d972c12-ef4f-4967-baa7-815328c4c025","{""num_scrambled_semantic"":""8"",""num_scrambled_causal"":""4"",""num_scrambled_schematic"":""4"",""participantId"":""9E4D237A57E24EF7AA019362E2A37A0A"",""assignmentId"":""659c954e-247e-4b02-8c37-3c682fd53131"",""projectId"":""6d972c12-ef4f-4967-baa7-815328c4c025""}","https://test12345.live/?num_scrambled_semantic=8&num_scrambled_causal=4&num_scrambled_schematic=4&participantId=9E4D237A57E24EF7AA019362E2A37A0A&assignmentId=659c954e-247e-4b02-8c37-3c682fd53131&projectId=6d972c12-ef4f-4967-baa7-815328c4c025","9E4D237A57E24EF7AA019362E2A37A0A-2025-08-07-17-54-45","","1586","","images/causal_sequence/saving_a_cat_causal/saving_a_cat_causal_6.png","0","",""
"","","","","","image-button-response","106","469682","0.0-14.0-1.0-2.5","9E4D237A57E24EF7AA019362E2A37A0A","9E4D237A57E24EF7AA019362E2A37A0A","659c954e-247e-4b02-8c37-3c682fd53131","6d972c12-ef4f-4967-baa7-815328c4c025","{""num_scrambled_semantic"":""8"",""num_scrambled_causal"":""4"",""num_scrambled_schematic"":""4"",""participantId"":""9E4D237A57E24EF7AA019362E2A37A0A"",""assignmentId"":""659c954e-247e-4b02-8c37-3c682fd53131"",""projectId"":""6d972c12-ef4f-4967-baa7-815328c4c025""}","https://test12345.live/?num_scrambled_semantic=8&num_scrambled_causal=4&num_scrambled_schematic=4&participantId=9E4D237A57E24EF7AA019362E2A37A0A&assignmentId=659c954e-247e-4b02-8c37-3c682fd53131&projectId=6d972c12-ef4f-4967-baa7-815328c4c025","9E4D237A57E24EF7AA019362E2A37A0A-2025-08-07-17-54-45","","null","","[]","null","",""
"","","","","","image-button-response","107","474190","0.0-14.0-1.0-0.6","9E4D237A57E24EF7AA019362E2A37A0A","9E4D237A57E24EF7AA019362E2A37A0A","659c954e-247e-4b02-8c37-3c682fd53131","6d972c12-ef4f-4967-baa7-815328c4c025","{""num_scrambled_semantic"":""8"",""num_scrambled_causal"":""4"",""num_scrambled_schematic"":""4"",""participantId"":""9E4D237A57E24EF7AA019362E2A37A0A"",""assignmentId"":""659c954e-247e-4b02-8c37-3c682fd53131"",""projectId"":""6d972c12-ef4f-4967-baa7-815328c4c025""}","https://test12345.live/?num_scrambled_semantic=8&num_scrambled_causal=4&num_scrambled_schematic=4&participantId=9E4D237A57E24EF7AA019362E2A37A0A&assignmentId=659c954e-247e-4b02-8c37-3c682fd53131&projectId=6d972c12-ef4f-4967-baa7-815328c4c025","9E4D237A57E24EF7AA019362E2A37A0A-2025-08-07-17-54-45","","null","","images/causal_sequence/saving_a_cat_causal/saving_a_cat_causal_7.png","null","",""
"","","","","","image-button-response","108","476460","0.0-14.0-1.0-1.6","9E4D237A57E24EF7AA019362E2A37A0A","9E4D237A57E24EF7AA019362E2A37A0A","659c954e-247e-4b02-8c37-3c682fd53131","6d972c12-ef4f-4967-baa7-815328c4c025","{""num_scrambled_semantic"":""8"",""num_scrambled_causal"":""4"",""num_scrambled_schematic"":""4"",""participantId"":""9E4D237A57E24EF7AA019362E2A37A0A"",""assignmentId"":""659c954e-247e-4b02-8c37-3c682fd53131"",""projectId"":""6d972c12-ef4f-4967-baa7-815328c4c025""}","https://test12345.live/?num_scrambled_semantic=8&num_scrambled_causal=4&num_scrambled_schematic=4&participantId=9E4D237A57E24EF7AA019362E2A37A0A&assignmentId=659c954e-247e-4b02-8c37-3c682fd53131&projectId=6d972c12-ef4f-4967-baa7-815328c4c025","9E4D237A57E24EF7AA019362E2A37A0A-2025-08-07-17-54-45","","2269","","images/causal_sequence/saving_a_cat_causal/saving_a_cat_causal_7.png","0","",""
"","","","","","image-button-response","109","478267","0.0-14.0-1.0-2.6","9E4D237A57E24EF7AA019362E2A37A0A","9E4D237A57E24EF7AA019362E2A37A0A","659c954e-247e-4b02-8c37-3c682fd53131","6d972c12-ef4f-4967-baa7-815328c4c025","{""num_scrambled_semantic"":""8"",""num_scrambled_causal"":""4"",""num_scrambled_schematic"":""4"",""participantId"":""9E4D237A57E24EF7AA019362E2A37A0A"",""assignmentId"":""659c954e-247e-4b02-8c37-3c682fd53131"",""projectId"":""6d972c12-ef4f-4967-baa7-815328c4c025""}","https://test12345.live/?num_scrambled_semantic=8&num_scrambled_causal=4&num_scrambled_schematic=4&participantId=9E4D237A57E24EF7AA019362E2A37A0A&assignmentId=659c954e-247e-4b02-8c37-3c682fd53131&projectId=6d972c12-ef4f-4967-baa7-815328c4c025","9E4D237A57E24EF7AA019362E2A37A0A-2025-08-07-17-54-45","","null","","[]","null","",""
"","","","","","image-button-response","110","482773","0.0-14.0-1.0-0.7","9E4D237A57E24EF7AA019362E2A37A0A","9E4D237A57E24EF7AA019362E2A37A0A","659c954e-247e-4b02-8c37-3c682fd53131","6d972c12-ef4f-4967-baa7-815328c4c025","{""num_scrambled_semantic"":""8"",""num_scrambled_causal"":""4"",""num_scrambled_schematic"":""4"",""participantId"":""9E4D237A57E24EF7AA019362E2A37A0A"",""assignmentId"":""659c954e-247e-4b02-8c37-3c682fd53131"",""projectId"":""6d972c12-ef4f-4967-baa7-815328c4c025""}","https://test12345.live/?num_scrambled_semantic=8&num_scrambled_causal=4&num_scrambled_schematic=4&participantId=9E4D237A57E24EF7AA019362E2A37A0A&assignmentId=659c954e-247e-4b02-8c37-3c682fd53131&projectId=6d972c12-ef4f-4967-baa7-815328c4c025","9E4D237A57E24EF7AA019362E2A37A0A-2025-08-07-17-54-45","","null","","images/causal_sequence/saving_a_cat_causal/saving_a_cat_causal_8.png","null","",""
"","","","","","image-button-response","111","484010","0.0-14.0-1.0-1.7","9E4D237A57E24EF7AA019362E2A37A0A","9E4D237A57E24EF7AA019362E2A37A0A","659c954e-247e-4b02-8c37-3c682fd53131","6d972c12-ef4f-4967-baa7-815328c4c025","{""num_scrambled_semantic"":""8"",""num_scrambled_causal"":""4"",""num_scrambled_schematic"":""4"",""participantId"":""9E4D237A57E24EF7AA019362E2A37A0A"",""assignmentId"":""659c954e-247e-4b02-8c37-3c682fd53131"",""projectId"":""6d972c12-ef4f-4967-baa7-815328c4c025""}","https://test12345.live/?num_scrambled_semantic=8&num_scrambled_causal=4&num_scrambled_schematic=4&participantId=9E4D237A57E24EF7AA019362E2A37A0A&assignmentId=659c954e-247e-4b02-8c37-3c682fd53131&projectId=6d972c12-ef4f-4967-baa7-815328c4c025","9E4D237A57E24EF7AA019362E2A37A0A-2025-08-07-17-54-45","","1235","","images/causal_sequence/saving_a_cat_causal/saving_a_cat_causal_8.png","0","",""
"","","","","","image-button-response","112","485815","0.0-14.0-1.0-2.7","9E4D237A57E24EF7AA019362E2A37A0A","9E4D237A57E24EF7AA019362E2A37A0A","659c954e-247e-4b02-8c37-3c682fd53131","6d972c12-ef4f-4967-baa7-815328c4c025","{""num_scrambled_semantic"":""8"",""num_scrambled_causal"":""4"",""num_scrambled_schematic"":""4"",""participantId"":""9E4D237A57E24EF7AA019362E2A37A0A"",""assignmentId"":""659c954e-247e-4b02-8c37-3c682fd53131"",""projectId"":""6d972c12-ef4f-4967-baa7-815328c4c025""}","https://test12345.live/?num_scrambled_semantic=8&num_scrambled_causal=4&num_scrambled_schematic=4&participantId=9E4D237A57E24EF7AA019362E2A37A0A&assignmentId=659c954e-247e-4b02-8c37-3c682fd53131&projectId=6d972c12-ef4f-4967-baa7-815328c4c025","9E4D237A57E24EF7AA019362E2A37A0A-2025-08-07-17-54-45","","null","","[]","null","",""
"","","","","","image-button-response","113","490318","0.0-14.0-1.0-0.8","9E4D237A57E24EF7AA019362E2A37A0A","9E4D237A57E24EF7AA019362E2A37A0A","659c954e-247e-4b02-8c37-3c682fd53131","6d972c12-ef4f-4967-baa7-815328c4c025","{""num_scrambled_semantic"":""8"",""num_scrambled_causal"":""4"",""num_scrambled_schematic"":""4"",""participantId"":""9E4D237A57E24EF7AA019362E2A37A0A"",""assignmentId"":""659c954e-247e-4b02-8c37-3c682fd53131"",""projectId"":""6d972c12-ef4f-4967-baa7-815328c4c025""}","https://test12345.live/?num_scrambled_semantic=8&num_scrambled_causal=4&num_scrambled_schematic=4&participantId=9E4D237A57E24EF7AA019362E2A37A0A&assignmentId=659c954e-247e-4b02-8c37-3c682fd53131&projectId=6d972c12-ef4f-4967-baa7-815328c4c025","9E4D237A57E24EF7AA019362E2A37A0A-2025-08-07-17-54-45","","null","","images/causal_sequence/saving_a_cat_causal/saving_a_cat_causal_9.png","null","",""
"","","","","","image-button-response","114","491109","0.0-14.0-1.0-1.8","9E4D237A57E24EF7AA019362E2A37A0A","9E4D237A57E24EF7AA019362E2A37A0A","659c954e-247e-4b02-8c37-3c682fd53131","6d972c12-ef4f-4967-baa7-815328c4c025","{""num_scrambled_semantic"":""8"",""num_scrambled_causal"":""4"",""num_scrambled_schematic"":""4"",""participantId"":""9E4D237A57E24EF7AA019362E2A37A0A"",""assignmentId"":""659c954e-247e-4b02-8c37-3c682fd53131"",""projectId"":""6d972c12-ef4f-4967-baa7-815328c4c025""}","https://test12345.live/?num_scrambled_semantic=8&num_scrambled_causal=4&num_scrambled_schematic=4&participantId=9E4D237A57E24EF7AA019362E2A37A0A&assignmentId=659c954e-247e-4b02-8c37-3c682fd53131&projectId=6d972c12-ef4f-4967-baa7-815328c4c025","9E4D237A57E24EF7AA019362E2A37A0A-2025-08-07-17-54-45","","790","","images/causal_sequence/saving_a_cat_causal/saving_a_cat_causal_9.png","0","",""
