"success","timeout","failed_images","failed_audio","failed_video","trial_type","trial_index","time_elapsed","internal_node_id","subject","subject_id","study_id","session_id","urlvar","current_url","audio_id","view_history","rt","device_id","stimulus","response","estimated_stimulus_onset","seq_name"
"true","false","[]","[]","[]","preload","0","33992","0.0-0.0","9FC28CBD7BE24C8B89A0762C1B3CE6A0","9FC28CBD7BE24C8B89A0762C1B3CE6A0","46e44c60-549e-4292-9a9c-c998bb854196","051c06f1-75cc-4548-856d-4923ddaba0dc","{""num_scrambled_semantic"":""8"",""num_scrambled_causal"":""4"",""num_scrambled_schematic"":""4"",""participantId"":""9FC28CBD7BE24C8B89A0762C1B3CE6A0"",""assignmentId"":""46e44c60-549e-4292-9a9c-c998bb854196"",""projectId"":""051c06f1-75cc-4548-856d-4923ddaba0dc""}","https://test12345.live/?num_scrambled_semantic=8&num_scrambled_causal=4&num_scrambled_schematic=4&participantId=9FC28CBD7BE24C8B89A0762C1B3CE6A0&assignmentId=46e44c60-549e-4292-9a9c-c998bb854196&projectId=051c06f1-75cc-4548-856d-4923ddaba0dc","9FC28CBD7BE24C8B89A0762C1B3CE6A0-2025-05-15-19-29-53","","","","","","",""
"","","","","","instructions","1","76744","0.0-1.0","9FC28CBD7BE24C8B89A0762C1B3CE6A0","9FC28CBD7BE24C8B89A0762C1B3CE6A0","46e44c60-549e-4292-9a9c-c998bb854196","051c06f1-75cc-4548-856d-4923ddaba0dc","{""num_scrambled_semantic"":""8"",""num_scrambled_causal"":""4"",""num_scrambled_schematic"":""4"",""participantId"":""9FC28CBD7BE24C8B89A0762C1B3CE6A0"",""assignmentId"":""46e44c60-549e-4292-9a9c-c998bb854196"",""projectId"":""051c06f1-75cc-4548-856d-4923ddaba0dc""}","https://test12345.live/?num_scrambled_semantic=8&num_scrambled_causal=4&num_scrambled_schematic=4&participantId=9FC28CBD7BE24C8B89A0762C1B3CE6A0&assignmentId=46e44c60-549e-4292-9a9c-c998bb854196&projectId=051c06f1-75cc-4548-856d-4923ddaba0dc","9FC28CBD7BE24C8B89A0762C1B3CE6A0-2025-05-15-19-29-53","[{""page_index"":0,""viewing_time"":42751}]","42751","","","","",""
"","","","","","instructions","2","79321","0.0-2.0","9FC28CBD7BE24C8B89A0762C1B3CE6A0","9FC28CBD7BE24C8B89A0762C1B3CE6A0","46e44c60-549e-4292-9a9c-c998bb854196","051c06f1-75cc-4548-856d-4923ddaba0dc","{""num_scrambled_semantic"":""8"",""num_scrambled_causal"":""4"",""num_scrambled_schematic"":""4"",""participantId"":""9FC28CBD7BE24C8B89A0762C1B3CE6A0"",""assignmentId"":""46e44c60-549e-4292-9a9c-c998bb854196"",""projectId"":""051c06f1-75cc-4548-856d-4923ddaba0dc""}","https://test12345.live/?num_scrambled_semantic=8&num_scrambled_causal=4&num_scrambled_schematic=4&participantId=9FC28CBD7BE24C8B89A0762C1B3CE6A0&assignmentId=46e44c60-549e-4292-9a9c-c998bb854196&projectId=051c06f1-75cc-4548-856d-4923ddaba0dc","9FC28CBD7BE24C8B89A0762C1B3CE6A0-2025-05-15-19-29-53","[{""page_index"":0,""viewing_time"":2578}]","2578","","","","",""
"true","","","","","fullscreen","3","109565","0.0-3.0","9FC28CBD7BE24C8B89A0762C1B3CE6A0","9FC28CBD7BE24C8B89A0762C1B3CE6A0","46e44c60-549e-4292-9a9c-c998bb854196","051c06f1-75cc-4548-856d-4923ddaba0dc","{""num_scrambled_semantic"":""8"",""num_scrambled_causal"":""4"",""num_scrambled_schematic"":""4"",""participantId"":""9FC28CBD7BE24C8B89A0762C1B3CE6A0"",""assignmentId"":""46e44c60-549e-4292-9a9c-c998bb854196"",""projectId"":""051c06f1-75cc-4548-856d-4923ddaba0dc""}","https://test12345.live/?num_scrambled_semantic=8&num_scrambled_causal=4&num_scrambled_schematic=4&participantId=9FC28CBD7BE24C8B89A0762C1B3CE6A0&assignmentId=46e44c60-549e-4292-9a9c-c998bb854196&projectId=051c06f1-75cc-4548-856d-4923ddaba0dc","9FC28CBD7BE24C8B89A0762C1B3CE6A0-2025-05-15-19-29-53","","29231","","","","",""
"","","","","","initialize-microphone","4","208980","0.0-4.0-0.0","9FC28CBD7BE24C8B89A0762C1B3CE6A0","9FC28CBD7BE24C8B89A0762C1B3CE6A0","46e44c60-549e-4292-9a9c-c998bb854196","051c06f1-75cc-4548-856d-4923ddaba0dc","{""num_scrambled_semantic"":""8"",""num_scrambled_causal"":""4"",""num_scrambled_schematic"":""4"",""participantId"":""9FC28CBD7BE24C8B89A0762C1B3CE6A0"",""assignmentId"":""46e44c60-549e-4292-9a9c-c998bb854196"",""projectId"":""051c06f1-75cc-4548-856d-4923ddaba0dc""}","https://test12345.live/?num_scrambled_semantic=8&num_scrambled_causal=4&num_scrambled_schematic=4&participantId=9FC28CBD7BE24C8B89A0762C1B3CE6A0&assignmentId=46e44c60-549e-4292-9a9c-c998bb854196&projectId=051c06f1-75cc-4548-856d-4923ddaba0dc","9FC28CBD7BE24C8B89A0762C1B3CE6A0-2025-05-15-19-29-53","","","45998441f9fa3ebf2cbd601af3a7ef44cb3a7c403997e0e53c8227ea57707a3c","","","",""
"","","","","","html-audio-response","5","215852","0.0-4.0-1.0","9FC28CBD7BE24C8B89A0762C1B3CE6A0","9FC28CBD7BE24C8B89A0762C1B3CE6A0","46e44c60-549e-4292-9a9c-c998bb854196","051c06f1-75cc-4548-856d-4923ddaba0dc","{""num_scrambled_semantic"":""8"",""num_scrambled_causal"":""4"",""num_scrambled_schematic"":""4"",""participantId"":""9FC28CBD7BE24C8B89A0762C1B3CE6A0"",""assignmentId"":""46e44c60-549e-4292-9a9c-c998bb854196"",""projectId"":""051c06f1-75cc-4548-856d-4923ddaba0dc""}","https://test12345.live/?num_scrambled_semantic=8&num_scrambled_causal=4&num_scrambled_schematic=4&participantId=9FC28CBD7BE24C8B89A0762C1B3CE6A0&assignmentId=46e44c60-549e-4292-9a9c-c998bb854196&projectId=051c06f1-75cc-4548-856d-4923ddaba0dc","9FC28CBD7BE24C8B89A0762C1B3CE6A0-2025-05-15-19-29-53","","2686","","<span style=""color: red; font-size: 24px""> NOW RECORDING</span>
        <p>Please test Microphone</p>","","3",""
"","","","","","html-button-response","6","217053","0.0-4.0-2.0","9FC28CBD7BE24C8B89A0762C1B3CE6A0","9FC28CBD7BE24C8B89A0762C1B3CE6A0","46e44c60-549e-4292-9a9c-c998bb854196","051c06f1-75cc-4548-856d-4923ddaba0dc","{""num_scrambled_semantic"":""8"",""num_scrambled_causal"":""4"",""num_scrambled_schematic"":""4"",""participantId"":""9FC28CBD7BE24C8B89A0762C1B3CE6A0"",""assignmentId"":""46e44c60-549e-4292-9a9c-c998bb854196"",""projectId"":""051c06f1-75cc-4548-856d-4923ddaba0dc""}","https://test12345.live/?num_scrambled_semantic=8&num_scrambled_causal=4&num_scrambled_schematic=4&participantId=9FC28CBD7BE24C8B89A0762C1B3CE6A0&assignmentId=46e44c60-549e-4292-9a9c-c998bb854196&projectId=051c06f1-75cc-4548-856d-4923ddaba0dc","9FC28CBD7BE24C8B89A0762C1B3CE6A0-2025-05-15-19-29-53","","1200","","<p style=""font-size:48px; color:red;"">Is Microphone OK?</p>","1","",""
"","","","","","instructions","7","223569","0.0-5.0","9FC28CBD7BE24C8B89A0762C1B3CE6A0","9FC28CBD7BE24C8B89A0762C1B3CE6A0","46e44c60-549e-4292-9a9c-c998bb854196","051c06f1-75cc-4548-856d-4923ddaba0dc","{""num_scrambled_semantic"":""8"",""num_scrambled_causal"":""4"",""num_scrambled_schematic"":""4"",""participantId"":""9FC28CBD7BE24C8B89A0762C1B3CE6A0"",""assignmentId"":""46e44c60-549e-4292-9a9c-c998bb854196"",""projectId"":""051c06f1-75cc-4548-856d-4923ddaba0dc""}","https://test12345.live/?num_scrambled_semantic=8&num_scrambled_causal=4&num_scrambled_schematic=4&participantId=9FC28CBD7BE24C8B89A0762C1B3CE6A0&assignmentId=46e44c60-549e-4292-9a9c-c998bb854196&projectId=051c06f1-75cc-4548-856d-4923ddaba0dc","9FC28CBD7BE24C8B89A0762C1B3CE6A0-2025-05-15-19-29-53","[{""page_index"":0,""viewing_time"":5418},{""page_index"":1,""viewing_time"":1098}]","6516","","","","",""
"","","","","","image-button-response","8","229575","0.0-6.0-0.0","9FC28CBD7BE24C8B89A0762C1B3CE6A0","9FC28CBD7BE24C8B89A0762C1B3CE6A0","46e44c60-549e-4292-9a9c-c998bb854196","051c06f1-75cc-4548-856d-4923ddaba0dc","{""num_scrambled_semantic"":""8"",""num_scrambled_causal"":""4"",""num_scrambled_schematic"":""4"",""participantId"":""9FC28CBD7BE24C8B89A0762C1B3CE6A0"",""assignmentId"":""46e44c60-549e-4292-9a9c-c998bb854196"",""projectId"":""051c06f1-75cc-4548-856d-4923ddaba0dc""}","https://test12345.live/?num_scrambled_semantic=8&num_scrambled_causal=4&num_scrambled_schematic=4&participantId=9FC28CBD7BE24C8B89A0762C1B3CE6A0&assignmentId=46e44c60-549e-4292-9a9c-c998bb854196&projectId=051c06f1-75cc-4548-856d-4923ddaba0dc","9FC28CBD7BE24C8B89A0762C1B3CE6A0-2025-05-15-19-29-53","","null","","images/instructions/movie_0.png","null","",""
"","","","","","image-button-response","9","234081","0.0-6.0-1.0-0.0","9FC28CBD7BE24C8B89A0762C1B3CE6A0","9FC28CBD7BE24C8B89A0762C1B3CE6A0","46e44c60-549e-4292-9a9c-c998bb854196","051c06f1-75cc-4548-856d-4923ddaba0dc","{""num_scrambled_semantic"":""8"",""num_scrambled_causal"":""4"",""num_scrambled_schematic"":""4"",""participantId"":""9FC28CBD7BE24C8B89A0762C1B3CE6A0"",""assignmentId"":""46e44c60-549e-4292-9a9c-c998bb854196"",""projectId"":""051c06f1-75cc-4548-856d-4923ddaba0dc""}","https://test12345.live/?num_scrambled_semantic=8&num_scrambled_causal=4&num_scrambled_schematic=4&participantId=9FC28CBD7BE24C8B89A0762C1B3CE6A0&assignmentId=46e44c60-549e-4292-9a9c-c998bb854196&projectId=051c06f1-75cc-4548-856d-4923ddaba0dc","9FC28CBD7BE24C8B89A0762C1B3CE6A0-2025-05-15-19-29-53","","null","","images/instructions/movie_1.png","null","",""
"","","","","","image-button-response","10","238088","0.0-6.0-1.0-1.0","9FC28CBD7BE24C8B89A0762C1B3CE6A0","9FC28CBD7BE24C8B89A0762C1B3CE6A0","46e44c60-549e-4292-9a9c-c998bb854196","051c06f1-75cc-4548-856d-4923ddaba0dc","{""num_scrambled_semantic"":""8"",""num_scrambled_causal"":""4"",""num_scrambled_schematic"":""4"",""participantId"":""9FC28CBD7BE24C8B89A0762C1B3CE6A0"",""assignmentId"":""46e44c60-549e-4292-9a9c-c998bb854196"",""projectId"":""051c06f1-75cc-4548-856d-4923ddaba0dc""}","https://test12345.live/?num_scrambled_semantic=8&num_scrambled_causal=4&num_scrambled_schematic=4&participantId=9FC28CBD7BE24C8B89A0762C1B3CE6A0&assignmentId=46e44c60-549e-4292-9a9c-c998bb854196&projectId=051c06f1-75cc-4548-856d-4923ddaba0dc","9FC28CBD7BE24C8B89A0762C1B3CE6A0-2025-05-15-19-29-53","","null","","images/instructions/movie_1.png","null","",""
"","","","","","image-button-response","11","239889","0.0-6.0-1.0-2.0","9FC28CBD7BE24C8B89A0762C1B3CE6A0","9FC28CBD7BE24C8B89A0762C1B3CE6A0","46e44c60-549e-4292-9a9c-c998bb854196","051c06f1-75cc-4548-856d-4923ddaba0dc","{""num_scrambled_semantic"":""8"",""num_scrambled_causal"":""4"",""num_scrambled_schematic"":""4"",""participantId"":""9FC28CBD7BE24C8B89A0762C1B3CE6A0"",""assignmentId"":""46e44c60-549e-4292-9a9c-c998bb854196"",""projectId"":""051c06f1-75cc-4548-856d-4923ddaba0dc""}","https://test12345.live/?num_scrambled_semantic=8&num_scrambled_causal=4&num_scrambled_schematic=4&participantId=9FC28CBD7BE24C8B89A0762C1B3CE6A0&assignmentId=46e44c60-549e-4292-9a9c-c998bb854196&projectId=051c06f1-75cc-4548-856d-4923ddaba0dc","9FC28CBD7BE24C8B89A0762C1B3CE6A0-2025-05-15-19-29-53","","null","","[]","null","",""
"","","","","","image-button-response","12","244400","0.0-6.0-1.0-0.1","9FC28CBD7BE24C8B89A0762C1B3CE6A0","9FC28CBD7BE24C8B89A0762C1B3CE6A0","46e44c60-549e-4292-9a9c-c998bb854196","051c06f1-75cc-4548-856d-4923ddaba0dc","{""num_scrambled_semantic"":""8"",""num_scrambled_causal"":""4"",""num_scrambled_schematic"":""4"",""participantId"":""9FC28CBD7BE24C8B89A0762C1B3CE6A0"",""assignmentId"":""46e44c60-549e-4292-9a9c-c998bb854196"",""projectId"":""051c06f1-75cc-4548-856d-4923ddaba0dc""}","https://test12345.live/?num_scrambled_semantic=8&num_scrambled_causal=4&num_scrambled_schematic=4&participantId=9FC28CBD7BE24C8B89A0762C1B3CE6A0&assignmentId=46e44c60-549e-4292-9a9c-c998bb854196&projectId=051c06f1-75cc-4548-856d-4923ddaba0dc","9FC28CBD7BE24C8B89A0762C1B3CE6A0-2025-05-15-19-29-53","","null","","images/instructions/movie_2.png","null","",""
"","","","","","image-button-response","13","246655","0.0-6.0-1.0-1.1","9FC28CBD7BE24C8B89A0762C1B3CE6A0","9FC28CBD7BE24C8B89A0762C1B3CE6A0","46e44c60-549e-4292-9a9c-c998bb854196","051c06f1-75cc-4548-856d-4923ddaba0dc","{""num_scrambled_semantic"":""8"",""num_scrambled_causal"":""4"",""num_scrambled_schematic"":""4"",""participantId"":""9FC28CBD7BE24C8B89A0762C1B3CE6A0"",""assignmentId"":""46e44c60-549e-4292-9a9c-c998bb854196"",""projectId"":""051c06f1-75cc-4548-856d-4923ddaba0dc""}","https://test12345.live/?num_scrambled_semantic=8&num_scrambled_causal=4&num_scrambled_schematic=4&participantId=9FC28CBD7BE24C8B89A0762C1B3CE6A0&assignmentId=46e44c60-549e-4292-9a9c-c998bb854196&projectId=051c06f1-75cc-4548-856d-4923ddaba0dc","9FC28CBD7BE24C8B89A0762C1B3CE6A0-2025-05-15-19-29-53","","2254","","images/instructions/movie_2.png","1","",""
"","","","","","image-button-response","14","248469","0.0-6.0-1.0-2.1","9FC28CBD7BE24C8B89A0762C1B3CE6A0","9FC28CBD7BE24C8B89A0762C1B3CE6A0","46e44c60-549e-4292-9a9c-c998bb854196","051c06f1-75cc-4548-856d-4923ddaba0dc","{""num_scrambled_semantic"":""8"",""num_scrambled_causal"":""4"",""num_scrambled_schematic"":""4"",""participantId"":""9FC28CBD7BE24C8B89A0762C1B3CE6A0"",""assignmentId"":""46e44c60-549e-4292-9a9c-c998bb854196"",""projectId"":""051c06f1-75cc-4548-856d-4923ddaba0dc""}","https://test12345.live/?num_scrambled_semantic=8&num_scrambled_causal=4&num_scrambled_schematic=4&participantId=9FC28CBD7BE24C8B89A0762C1B3CE6A0&assignmentId=46e44c60-549e-4292-9a9c-c998bb854196&projectId=051c06f1-75cc-4548-856d-4923ddaba0dc","9FC28CBD7BE24C8B89A0762C1B3CE6A0-2025-05-15-19-29-53","","null","","[]","null","",""
"","","","","","image-button-response","15","252969","0.0-6.0-1.0-0.2","9FC28CBD7BE24C8B89A0762C1B3CE6A0","9FC28CBD7BE24C8B89A0762C1B3CE6A0","46e44c60-549e-4292-9a9c-c998bb854196","051c06f1-75cc-4548-856d-4923ddaba0dc","{""num_scrambled_semantic"":""8"",""num_scrambled_causal"":""4"",""num_scrambled_schematic"":""4"",""participantId"":""9FC28CBD7BE24C8B89A0762C1B3CE6A0"",""assignmentId"":""46e44c60-549e-4292-9a9c-c998bb854196"",""projectId"":""051c06f1-75cc-4548-856d-4923ddaba0dc""}","https://test12345.live/?num_scrambled_semantic=8&num_scrambled_causal=4&num_scrambled_schematic=4&participantId=9FC28CBD7BE24C8B89A0762C1B3CE6A0&assignmentId=46e44c60-549e-4292-9a9c-c998bb854196&projectId=051c06f1-75cc-4548-856d-4923ddaba0dc","9FC28CBD7BE24C8B89A0762C1B3CE6A0-2025-05-15-19-29-53","","null","","images/instructions/movie_3.png","null","",""
"","","","","","image-button-response","16","254170","0.0-6.0-1.0-1.2","9FC28CBD7BE24C8B89A0762C1B3CE6A0","9FC28CBD7BE24C8B89A0762C1B3CE6A0","46e44c60-549e-4292-9a9c-c998bb854196","051c06f1-75cc-4548-856d-4923ddaba0dc","{""num_scrambled_semantic"":""8"",""num_scrambled_causal"":""4"",""num_scrambled_schematic"":""4"",""participantId"":""9FC28CBD7BE24C8B89A0762C1B3CE6A0"",""assignmentId"":""46e44c60-549e-4292-9a9c-c998bb854196"",""projectId"":""051c06f1-75cc-4548-856d-4923ddaba0dc""}","https://test12345.live/?num_scrambled_semantic=8&num_scrambled_causal=4&num_scrambled_schematic=4&participantId=9FC28CBD7BE24C8B89A0762C1B3CE6A0&assignmentId=46e44c60-549e-4292-9a9c-c998bb854196&projectId=051c06f1-75cc-4548-856d-4923ddaba0dc","9FC28CBD7BE24C8B89A0762C1B3CE6A0-2025-05-15-19-29-53","","1200","","images/instructions/movie_3.png","0","",""
"","","","","","image-button-response","17","255978","0.0-6.0-1.0-2.2","9FC28CBD7BE24C8B89A0762C1B3CE6A0","9FC28CBD7BE24C8B89A0762C1B3CE6A0","46e44c60-549e-4292-9a9c-c998bb854196","051c06f1-75cc-4548-856d-4923ddaba0dc","{""num_scrambled_semantic"":""8"",""num_scrambled_causal"":""4"",""num_scrambled_schematic"":""4"",""participantId"":""9FC28CBD7BE24C8B89A0762C1B3CE6A0"",""assignmentId"":""46e44c60-549e-4292-9a9c-c998bb854196"",""projectId"":""051c06f1-75cc-4548-856d-4923ddaba0dc""}","https://test12345.live/?num_scrambled_semantic=8&num_scrambled_causal=4&num_scrambled_schematic=4&participantId=9FC28CBD7BE24C8B89A0762C1B3CE6A0&assignmentId=46e44c60-549e-4292-9a9c-c998bb854196&projectId=051c06f1-75cc-4548-856d-4923ddaba0dc","9FC28CBD7BE24C8B89A0762C1B3CE6A0-2025-05-15-19-29-53","","null","","[]","null","",""
"","","","","","image-button-response","18","260481","0.0-6.0-1.0-0.3","9FC28CBD7BE24C8B89A0762C1B3CE6A0","9FC28CBD7BE24C8B89A0762C1B3CE6A0","46e44c60-549e-4292-9a9c-c998bb854196","051c06f1-75cc-4548-856d-4923ddaba0dc","{""num_scrambled_semantic"":""8"",""num_scrambled_causal"":""4"",""num_scrambled_schematic"":""4"",""participantId"":""9FC28CBD7BE24C8B89A0762C1B3CE6A0"",""assignmentId"":""46e44c60-549e-4292-9a9c-c998bb854196"",""projectId"":""051c06f1-75cc-4548-856d-4923ddaba0dc""}","https://test12345.live/?num_scrambled_semantic=8&num_scrambled_causal=4&num_scrambled_schematic=4&participantId=9FC28CBD7BE24C8B89A0762C1B3CE6A0&assignmentId=46e44c60-549e-4292-9a9c-c998bb854196&projectId=051c06f1-75cc-4548-856d-4923ddaba0dc","9FC28CBD7BE24C8B89A0762C1B3CE6A0-2025-05-15-19-29-53","","null","","images/instructions/movie_4.png","null","",""
"","","","","","image-button-response","19","264483","0.0-6.0-1.0-1.3","9FC28CBD7BE24C8B89A0762C1B3CE6A0","9FC28CBD7BE24C8B89A0762C1B3CE6A0","46e44c60-549e-4292-9a9c-c998bb854196","051c06f1-75cc-4548-856d-4923ddaba0dc","{""num_scrambled_semantic"":""8"",""num_scrambled_causal"":""4"",""num_scrambled_schematic"":""4"",""participantId"":""9FC28CBD7BE24C8B89A0762C1B3CE6A0"",""assignmentId"":""46e44c60-549e-4292-9a9c-c998bb854196"",""projectId"":""051c06f1-75cc-4548-856d-4923ddaba0dc""}","https://test12345.live/?num_scrambled_semantic=8&num_scrambled_causal=4&num_scrambled_schematic=4&participantId=9FC28CBD7BE24C8B89A0762C1B3CE6A0&assignmentId=46e44c60-549e-4292-9a9c-c998bb854196&projectId=051c06f1-75cc-4548-856d-4923ddaba0dc","9FC28CBD7BE24C8B89A0762C1B3CE6A0-2025-05-15-19-29-53","","null","","images/instructions/movie_4.png","null","",""
"","","","","","image-button-response","20","266284","0.0-6.0-1.0-2.3","9FC28CBD7BE24C8B89A0762C1B3CE6A0","9FC28CBD7BE24C8B89A0762C1B3CE6A0","46e44c60-549e-4292-9a9c-c998bb854196","051c06f1-75cc-4548-856d-4923ddaba0dc","{""num_scrambled_semantic"":""8"",""num_scrambled_causal"":""4"",""num_scrambled_schematic"":""4"",""participantId"":""9FC28CBD7BE24C8B89A0762C1B3CE6A0"",""assignmentId"":""46e44c60-549e-4292-9a9c-c998bb854196"",""projectId"":""051c06f1-75cc-4548-856d-4923ddaba0dc""}","https://test12345.live/?num_scrambled_semantic=8&num_scrambled_causal=4&num_scrambled_schematic=4&participantId=9FC28CBD7BE24C8B89A0762C1B3CE6A0&assignmentId=46e44c60-549e-4292-9a9c-c998bb854196&projectId=051c06f1-75cc-4548-856d-4923ddaba0dc","9FC28CBD7BE24C8B89A0762C1B3CE6A0-2025-05-15-19-29-53","","null","","[]","null","",""
"","","","","","instructions","21","272384","0.0-7.0","9FC28CBD7BE24C8B89A0762C1B3CE6A0","9FC28CBD7BE24C8B89A0762C1B3CE6A0","46e44c60-549e-4292-9a9c-c998bb854196","051c06f1-75cc-4548-856d-4923ddaba0dc","{""num_scrambled_semantic"":""8"",""num_scrambled_causal"":""4"",""num_scrambled_schematic"":""4"",""participantId"":""9FC28CBD7BE24C8B89A0762C1B3CE6A0"",""assignmentId"":""46e44c60-549e-4292-9a9c-c998bb854196"",""projectId"":""051c06f1-75cc-4548-856d-4923ddaba0dc""}","https://test12345.live/?num_scrambled_semantic=8&num_scrambled_causal=4&num_scrambled_schematic=4&participantId=9FC28CBD7BE24C8B89A0762C1B3CE6A0&assignmentId=46e44c60-549e-4292-9a9c-c998bb854196&projectId=051c06f1-75cc-4548-856d-4923ddaba0dc","9FC28CBD7BE24C8B89A0762C1B3CE6A0-2025-05-15-19-29-53","[{""page_index"":0,""viewing_time"":4938},{""page_index"":1,""viewing_time"":1162}]","6100","","","","",""
"","","","","","html-audio-response","22","365944","0.0-8.0","9FC28CBD7BE24C8B89A0762C1B3CE6A0","9FC28CBD7BE24C8B89A0762C1B3CE6A0","46e44c60-549e-4292-9a9c-c998bb854196","051c06f1-75cc-4548-856d-4923ddaba0dc","{""num_scrambled_semantic"":""8"",""num_scrambled_causal"":""4"",""num_scrambled_schematic"":""4"",""participantId"":""9FC28CBD7BE24C8B89A0762C1B3CE6A0"",""assignmentId"":""46e44c60-549e-4292-9a9c-c998bb854196"",""projectId"":""051c06f1-75cc-4548-856d-4923ddaba0dc""}","https://test12345.live/?num_scrambled_semantic=8&num_scrambled_causal=4&num_scrambled_schematic=4&participantId=9FC28CBD7BE24C8B89A0762C1B3CE6A0&assignmentId=46e44c60-549e-4292-9a9c-c998bb854196&projectId=051c06f1-75cc-4548-856d-4923ddaba0dc","9FC28CBD7BE24C8B89A0762C1B3CE6A0-2025-05-15-19-29-53","","14061","","[""<span style=\""color: red; font-size: 24px\""> NOW RECORDING</span><p>Please say out loud all the images you saw, as many as you can remember. The images can be said in any order.</p>""]","","1",""
"","","","","","instructions","23","368060","0.0-9.0","9FC28CBD7BE24C8B89A0762C1B3CE6A0","9FC28CBD7BE24C8B89A0762C1B3CE6A0","46e44c60-549e-4292-9a9c-c998bb854196","051c06f1-75cc-4548-856d-4923ddaba0dc","{""num_scrambled_semantic"":""8"",""num_scrambled_causal"":""4"",""num_scrambled_schematic"":""4"",""participantId"":""9FC28CBD7BE24C8B89A0762C1B3CE6A0"",""assignmentId"":""46e44c60-549e-4292-9a9c-c998bb854196"",""projectId"":""051c06f1-75cc-4548-856d-4923ddaba0dc""}","https://test12345.live/?num_scrambled_semantic=8&num_scrambled_causal=4&num_scrambled_schematic=4&participantId=9FC28CBD7BE24C8B89A0762C1B3CE6A0&assignmentId=46e44c60-549e-4292-9a9c-c998bb854196&projectId=051c06f1-75cc-4548-856d-4923ddaba0dc","9FC28CBD7BE24C8B89A0762C1B3CE6A0-2025-05-15-19-29-53","[{""page_index"":0,""viewing_time"":2114}]","2114","","","","",""
"","","","","","image-button-response","24","374068","0.0-10.0-0.0","9FC28CBD7BE24C8B89A0762C1B3CE6A0","9FC28CBD7BE24C8B89A0762C1B3CE6A0","46e44c60-549e-4292-9a9c-c998bb854196","051c06f1-75cc-4548-856d-4923ddaba0dc","{""num_scrambled_semantic"":""8"",""num_scrambled_causal"":""4"",""num_scrambled_schematic"":""4"",""participantId"":""9FC28CBD7BE24C8B89A0762C1B3CE6A0"",""assignmentId"":""46e44c60-549e-4292-9a9c-c998bb854196"",""projectId"":""051c06f1-75cc-4548-856d-4923ddaba0dc""}","https://test12345.live/?num_scrambled_semantic=8&num_scrambled_causal=4&num_scrambled_schematic=4&participantId=9FC28CBD7BE24C8B89A0762C1B3CE6A0&assignmentId=46e44c60-549e-4292-9a9c-c998bb854196&projectId=051c06f1-75cc-4548-856d-4923ddaba0dc","9FC28CBD7BE24C8B89A0762C1B3CE6A0-2025-05-15-19-29-53","","null","","images/semantic_sequence/exploring_nature_semantic/exploring_nature_semantic_0.png","null","",""
"","","","","","image-button-response","25","378576","0.0-10.0-1.0-0.0","9FC28CBD7BE24C8B89A0762C1B3CE6A0","9FC28CBD7BE24C8B89A0762C1B3CE6A0","46e44c60-549e-4292-9a9c-c998bb854196","051c06f1-75cc-4548-856d-4923ddaba0dc","{""num_scrambled_semantic"":""8"",""num_scrambled_causal"":""4"",""num_scrambled_schematic"":""4"",""participantId"":""9FC28CBD7BE24C8B89A0762C1B3CE6A0"",""assignmentId"":""46e44c60-549e-4292-9a9c-c998bb854196"",""projectId"":""051c06f1-75cc-4548-856d-4923ddaba0dc""}","https://test12345.live/?num_scrambled_semantic=8&num_scrambled_causal=4&num_scrambled_schematic=4&participantId=9FC28CBD7BE24C8B89A0762C1B3CE6A0&assignmentId=46e44c60-549e-4292-9a9c-c998bb854196&projectId=051c06f1-75cc-4548-856d-4923ddaba0dc","9FC28CBD7BE24C8B89A0762C1B3CE6A0-2025-05-15-19-29-53","","null","","images/semantic_sequence/exploring_nature_semantic/exploring_nature_semantic_8.png","null","",""
"","","","","","image-button-response","26","382012","0.0-10.0-1.0-1.0","9FC28CBD7BE24C8B89A0762C1B3CE6A0","9FC28CBD7BE24C8B89A0762C1B3CE6A0","46e44c60-549e-4292-9a9c-c998bb854196","051c06f1-75cc-4548-856d-4923ddaba0dc","{""num_scrambled_semantic"":""8"",""num_scrambled_causal"":""4"",""num_scrambled_schematic"":""4"",""participantId"":""9FC28CBD7BE24C8B89A0762C1B3CE6A0"",""assignmentId"":""46e44c60-549e-4292-9a9c-c998bb854196"",""projectId"":""051c06f1-75cc-4548-856d-4923ddaba0dc""}","https://test12345.live/?num_scrambled_semantic=8&num_scrambled_causal=4&num_scrambled_schematic=4&participantId=9FC28CBD7BE24C8B89A0762C1B3CE6A0&assignmentId=46e44c60-549e-4292-9a9c-c998bb854196&projectId=051c06f1-75cc-4548-856d-4923ddaba0dc","9FC28CBD7BE24C8B89A0762C1B3CE6A0-2025-05-15-19-29-53","","3436","","images/semantic_sequence/exploring_nature_semantic/exploring_nature_semantic_8.png","0","",""
"","","","","","image-button-response","27","383815","0.0-10.0-1.0-2.0","9FC28CBD7BE24C8B89A0762C1B3CE6A0","9FC28CBD7BE24C8B89A0762C1B3CE6A0","46e44c60-549e-4292-9a9c-c998bb854196","051c06f1-75cc-4548-856d-4923ddaba0dc","{""num_scrambled_semantic"":""8"",""num_scrambled_causal"":""4"",""num_scrambled_schematic"":""4"",""participantId"":""9FC28CBD7BE24C8B89A0762C1B3CE6A0"",""assignmentId"":""46e44c60-549e-4292-9a9c-c998bb854196"",""projectId"":""051c06f1-75cc-4548-856d-4923ddaba0dc""}","https://test12345.live/?num_scrambled_semantic=8&num_scrambled_causal=4&num_scrambled_schematic=4&participantId=9FC28CBD7BE24C8B89A0762C1B3CE6A0&assignmentId=46e44c60-549e-4292-9a9c-c998bb854196&projectId=051c06f1-75cc-4548-856d-4923ddaba0dc","9FC28CBD7BE24C8B89A0762C1B3CE6A0-2025-05-15-19-29-53","","null","","[]","null","",""
"","","","","","image-button-response","28","388317","0.0-10.0-1.0-0.1","9FC28CBD7BE24C8B89A0762C1B3CE6A0","9FC28CBD7BE24C8B89A0762C1B3CE6A0","46e44c60-549e-4292-9a9c-c998bb854196","051c06f1-75cc-4548-856d-4923ddaba0dc","{""num_scrambled_semantic"":""8"",""num_scrambled_causal"":""4"",""num_scrambled_schematic"":""4"",""participantId"":""9FC28CBD7BE24C8B89A0762C1B3CE6A0"",""assignmentId"":""46e44c60-549e-4292-9a9c-c998bb854196"",""projectId"":""051c06f1-75cc-4548-856d-4923ddaba0dc""}","https://test12345.live/?num_scrambled_semantic=8&num_scrambled_causal=4&num_scrambled_schematic=4&participantId=9FC28CBD7BE24C8B89A0762C1B3CE6A0&assignmentId=46e44c60-549e-4292-9a9c-c998bb854196&projectId=051c06f1-75cc-4548-856d-4923ddaba0dc","9FC28CBD7BE24C8B89A0762C1B3CE6A0-2025-05-15-19-29-53","","null","","images/semantic_sequence/exploring_nature_semantic/exploring_nature_semantic_5.png","null","",""
"","","","","","image-button-response","29","392321","0.0-10.0-1.0-1.1","9FC28CBD7BE24C8B89A0762C1B3CE6A0","9FC28CBD7BE24C8B89A0762C1B3CE6A0","46e44c60-549e-4292-9a9c-c998bb854196","051c06f1-75cc-4548-856d-4923ddaba0dc","{""num_scrambled_semantic"":""8"",""num_scrambled_causal"":""4"",""num_scrambled_schematic"":""4"",""participantId"":""9FC28CBD7BE24C8B89A0762C1B3CE6A0"",""assignmentId"":""46e44c60-549e-4292-9a9c-c998bb854196"",""projectId"":""051c06f1-75cc-4548-856d-4923ddaba0dc""}","https://test12345.live/?num_scrambled_semantic=8&num_scrambled_causal=4&num_scrambled_schematic=4&participantId=9FC28CBD7BE24C8B89A0762C1B3CE6A0&assignmentId=46e44c60-549e-4292-9a9c-c998bb854196&projectId=051c06f1-75cc-4548-856d-4923ddaba0dc","9FC28CBD7BE24C8B89A0762C1B3CE6A0-2025-05-15-19-29-53","","null","","images/semantic_sequence/exploring_nature_semantic/exploring_nature_semantic_5.png","null","",""
"","","","","","image-button-response","30","394123","0.0-10.0-1.0-2.1","9FC28CBD7BE24C8B89A0762C1B3CE6A0","9FC28CBD7BE24C8B89A0762C1B3CE6A0","46e44c60-549e-4292-9a9c-c998bb854196","051c06f1-75cc-4548-856d-4923ddaba0dc","{""num_scrambled_semantic"":""8"",""num_scrambled_causal"":""4"",""num_scrambled_schematic"":""4"",""participantId"":""9FC28CBD7BE24C8B89A0762C1B3CE6A0"",""assignmentId"":""46e44c60-549e-4292-9a9c-c998bb854196"",""projectId"":""051c06f1-75cc-4548-856d-4923ddaba0dc""}","https://test12345.live/?num_scrambled_semantic=8&num_scrambled_causal=4&num_scrambled_schematic=4&participantId=9FC28CBD7BE24C8B89A0762C1B3CE6A0&assignmentId=46e44c60-549e-4292-9a9c-c998bb854196&projectId=051c06f1-75cc-4548-856d-4923ddaba0dc","9FC28CBD7BE24C8B89A0762C1B3CE6A0-2025-05-15-19-29-53","","null","","[]","null","",""
"","","","","","image-button-response","31","398627","0.0-10.0-1.0-0.2","9FC28CBD7BE24C8B89A0762C1B3CE6A0","9FC28CBD7BE24C8B89A0762C1B3CE6A0","46e44c60-549e-4292-9a9c-c998bb854196","051c06f1-75cc-4548-856d-4923ddaba0dc","{""num_scrambled_semantic"":""8"",""num_scrambled_causal"":""4"",""num_scrambled_schematic"":""4"",""participantId"":""9FC28CBD7BE24C8B89A0762C1B3CE6A0"",""assignmentId"":""46e44c60-549e-4292-9a9c-c998bb854196"",""projectId"":""051c06f1-75cc-4548-856d-4923ddaba0dc""}","https://test12345.live/?num_scrambled_semantic=8&num_scrambled_causal=4&num_scrambled_schematic=4&participantId=9FC28CBD7BE24C8B89A0762C1B3CE6A0&assignmentId=46e44c60-549e-4292-9a9c-c998bb854196&projectId=051c06f1-75cc-4548-856d-4923ddaba0dc","9FC28CBD7BE24C8B89A0762C1B3CE6A0-2025-05-15-19-29-53","","null","","images/semantic_sequence/exploring_nature_semantic/exploring_nature_semantic_6.png","null","",""
"","","","","","image-button-response","32","399643","0.0-10.0-1.0-1.2","9FC28CBD7BE24C8B89A0762C1B3CE6A0","9FC28CBD7BE24C8B89A0762C1B3CE6A0","46e44c60-549e-4292-9a9c-c998bb854196","051c06f1-75cc-4548-856d-4923ddaba0dc","{""num_scrambled_semantic"":""8"",""num_scrambled_causal"":""4"",""num_scrambled_schematic"":""4"",""participantId"":""9FC28CBD7BE24C8B89A0762C1B3CE6A0"",""assignmentId"":""46e44c60-549e-4292-9a9c-c998bb854196"",""projectId"":""051c06f1-75cc-4548-856d-4923ddaba0dc""}","https://test12345.live/?num_scrambled_semantic=8&num_scrambled_causal=4&num_scrambled_schematic=4&participantId=9FC28CBD7BE24C8B89A0762C1B3CE6A0&assignmentId=46e44c60-549e-4292-9a9c-c998bb854196&projectId=051c06f1-75cc-4548-856d-4923ddaba0dc","9FC28CBD7BE24C8B89A0762C1B3CE6A0-2025-05-15-19-29-53","","1015","","images/semantic_sequence/exploring_nature_semantic/exploring_nature_semantic_6.png","0","",""
"","","","","","image-button-response","33","401449","0.0-10.0-1.0-2.2","9FC28CBD7BE24C8B89A0762C1B3CE6A0","9FC28CBD7BE24C8B89A0762C1B3CE6A0","46e44c60-549e-4292-9a9c-c998bb854196","051c06f1-75cc-4548-856d-4923ddaba0dc","{""num_scrambled_semantic"":""8"",""num_scrambled_causal"":""4"",""num_scrambled_schematic"":""4"",""participantId"":""9FC28CBD7BE24C8B89A0762C1B3CE6A0"",""assignmentId"":""46e44c60-549e-4292-9a9c-c998bb854196"",""projectId"":""051c06f1-75cc-4548-856d-4923ddaba0dc""}","https://test12345.live/?num_scrambled_semantic=8&num_scrambled_causal=4&num_scrambled_schematic=4&participantId=9FC28CBD7BE24C8B89A0762C1B3CE6A0&assignmentId=46e44c60-549e-4292-9a9c-c998bb854196&projectId=051c06f1-75cc-4548-856d-4923ddaba0dc","9FC28CBD7BE24C8B89A0762C1B3CE6A0-2025-05-15-19-29-53","","null","","[]","null","",""
"","","","","","image-button-response","34","405953","0.0-10.0-1.0-0.3","9FC28CBD7BE24C8B89A0762C1B3CE6A0","9FC28CBD7BE24C8B89A0762C1B3CE6A0","46e44c60-549e-4292-9a9c-c998bb854196","051c06f1-75cc-4548-856d-4923ddaba0dc","{""num_scrambled_semantic"":""8"",""num_scrambled_causal"":""4"",""num_scrambled_schematic"":""4"",""participantId"":""9FC28CBD7BE24C8B89A0762C1B3CE6A0"",""assignmentId"":""46e44c60-549e-4292-9a9c-c998bb854196"",""projectId"":""051c06f1-75cc-4548-856d-4923ddaba0dc""}","https://test12345.live/?num_scrambled_semantic=8&num_scrambled_causal=4&num_scrambled_schematic=4&participantId=9FC28CBD7BE24C8B89A0762C1B3CE6A0&assignmentId=46e44c60-549e-4292-9a9c-c998bb854196&projectId=051c06f1-75cc-4548-856d-4923ddaba0dc","9FC28CBD7BE24C8B89A0762C1B3CE6A0-2025-05-15-19-29-53","","null","","images/semantic_sequence/exploring_nature_semantic/exploring_nature_semantic_4.png","null","",""
"","","","","","image-button-response","35","407861","0.0-10.0-1.0-1.3","9FC28CBD7BE24C8B89A0762C1B3CE6A0","9FC28CBD7BE24C8B89A0762C1B3CE6A0","46e44c60-549e-4292-9a9c-c998bb854196","051c06f1-75cc-4548-856d-4923ddaba0dc","{""num_scrambled_semantic"":""8"",""num_scrambled_causal"":""4"",""num_scrambled_schematic"":""4"",""participantId"":""9FC28CBD7BE24C8B89A0762C1B3CE6A0"",""assignmentId"":""46e44c60-549e-4292-9a9c-c998bb854196"",""projectId"":""051c06f1-75cc-4548-856d-4923ddaba0dc""}","https://test12345.live/?num_scrambled_semantic=8&num_scrambled_causal=4&num_scrambled_schematic=4&participantId=9FC28CBD7BE24C8B89A0762C1B3CE6A0&assignmentId=46e44c60-549e-4292-9a9c-c998bb854196&projectId=051c06f1-75cc-4548-856d-4923ddaba0dc","9FC28CBD7BE24C8B89A0762C1B3CE6A0-2025-05-15-19-29-53","","1908","","images/semantic_sequence/exploring_nature_semantic/exploring_nature_semantic_4.png","0","",""
"","","","","","image-button-response","36","409663","0.0-10.0-1.0-2.3","9FC28CBD7BE24C8B89A0762C1B3CE6A0","9FC28CBD7BE24C8B89A0762C1B3CE6A0","46e44c60-549e-4292-9a9c-c998bb854196","051c06f1-75cc-4548-856d-4923ddaba0dc","{""num_scrambled_semantic"":""8"",""num_scrambled_causal"":""4"",""num_scrambled_schematic"":""4"",""participantId"":""9FC28CBD7BE24C8B89A0762C1B3CE6A0"",""assignmentId"":""46e44c60-549e-4292-9a9c-c998bb854196"",""projectId"":""051c06f1-75cc-4548-856d-4923ddaba0dc""}","https://test12345.live/?num_scrambled_semantic=8&num_scrambled_causal=4&num_scrambled_schematic=4&participantId=9FC28CBD7BE24C8B89A0762C1B3CE6A0&assignmentId=46e44c60-549e-4292-9a9c-c998bb854196&projectId=051c06f1-75cc-4548-856d-4923ddaba0dc","9FC28CBD7BE24C8B89A0762C1B3CE6A0-2025-05-15-19-29-53","","null","","[]","null","",""
"","","","","","image-button-response","37","414171","0.0-10.0-1.0-0.4","9FC28CBD7BE24C8B89A0762C1B3CE6A0","9FC28CBD7BE24C8B89A0762C1B3CE6A0","46e44c60-549e-4292-9a9c-c998bb854196","051c06f1-75cc-4548-856d-4923ddaba0dc","{""num_scrambled_semantic"":""8"",""num_scrambled_causal"":""4"",""num_scrambled_schematic"":""4"",""participantId"":""9FC28CBD7BE24C8B89A0762C1B3CE6A0"",""assignmentId"":""46e44c60-549e-4292-9a9c-c998bb854196"",""projectId"":""051c06f1-75cc-4548-856d-4923ddaba0dc""}","https://test12345.live/?num_scrambled_semantic=8&num_scrambled_causal=4&num_scrambled_schematic=4&participantId=9FC28CBD7BE24C8B89A0762C1B3CE6A0&assignmentId=46e44c60-549e-4292-9a9c-c998bb854196&projectId=051c06f1-75cc-4548-856d-4923ddaba0dc","9FC28CBD7BE24C8B89A0762C1B3CE6A0-2025-05-15-19-29-53","","null","","images/semantic_sequence/exploring_nature_semantic/exploring_nature_semantic_ten.png","null","",""
"","","","","","image-button-response","38","414577","0.0-10.0-1.0-1.4","9FC28CBD7BE24C8B89A0762C1B3CE6A0","9FC28CBD7BE24C8B89A0762C1B3CE6A0","46e44c60-549e-4292-9a9c-c998bb854196","051c06f1-75cc-4548-856d-4923ddaba0dc","{""num_scrambled_semantic"":""8"",""num_scrambled_causal"":""4"",""num_scrambled_schematic"":""4"",""participantId"":""9FC28CBD7BE24C8B89A0762C1B3CE6A0"",""assignmentId"":""46e44c60-549e-4292-9a9c-c998bb854196"",""projectId"":""051c06f1-75cc-4548-856d-4923ddaba0dc""}","https://test12345.live/?num_scrambled_semantic=8&num_scrambled_causal=4&num_scrambled_schematic=4&participantId=9FC28CBD7BE24C8B89A0762C1B3CE6A0&assignmentId=46e44c60-549e-4292-9a9c-c998bb854196&projectId=051c06f1-75cc-4548-856d-4923ddaba0dc","9FC28CBD7BE24C8B89A0762C1B3CE6A0-2025-05-15-19-29-53","","406","","images/semantic_sequence/exploring_nature_semantic/exploring_nature_semantic_ten.png","0","",""
"","","","","","image-button-response","39","417329","0.0-10.0-1.0-2.4","9FC28CBD7BE24C8B89A0762C1B3CE6A0","9FC28CBD7BE24C8B89A0762C1B3CE6A0","46e44c60-549e-4292-9a9c-c998bb854196","051c06f1-75cc-4548-856d-4923ddaba0dc","{""num_scrambled_semantic"":""8"",""num_scrambled_causal"":""4"",""num_scrambled_schematic"":""4"",""participantId"":""9FC28CBD7BE24C8B89A0762C1B3CE6A0"",""assignmentId"":""46e44c60-549e-4292-9a9c-c998bb854196"",""projectId"":""051c06f1-75cc-4548-856d-4923ddaba0dc""}","https://test12345.live/?num_scrambled_semantic=8&num_scrambled_causal=4&num_scrambled_schematic=4&participantId=9FC28CBD7BE24C8B89A0762C1B3CE6A0&assignmentId=46e44c60-549e-4292-9a9c-c998bb854196&projectId=051c06f1-75cc-4548-856d-4923ddaba0dc","9FC28CBD7BE24C8B89A0762C1B3CE6A0-2025-05-15-19-29-53","","null","","[]","null","",""
"","","","","","image-button-response","40","421831","0.0-10.0-1.0-0.5","9FC28CBD7BE24C8B89A0762C1B3CE6A0","9FC28CBD7BE24C8B89A0762C1B3CE6A0","46e44c60-549e-4292-9a9c-c998bb854196","051c06f1-75cc-4548-856d-4923ddaba0dc","{""num_scrambled_semantic"":""8"",""num_scrambled_causal"":""4"",""num_scrambled_schematic"":""4"",""participantId"":""9FC28CBD7BE24C8B89A0762C1B3CE6A0"",""assignmentId"":""46e44c60-549e-4292-9a9c-c998bb854196"",""projectId"":""051c06f1-75cc-4548-856d-4923ddaba0dc""}","https://test12345.live/?num_scrambled_semantic=8&num_scrambled_causal=4&num_scrambled_schematic=4&participantId=9FC28CBD7BE24C8B89A0762C1B3CE6A0&assignmentId=46e44c60-549e-4292-9a9c-c998bb854196&projectId=051c06f1-75cc-4548-856d-4923ddaba0dc","9FC28CBD7BE24C8B89A0762C1B3CE6A0-2025-05-15-19-29-53","","null","","images/semantic_sequence/exploring_nature_semantic/exploring_nature_semantic_2.png","null","",""
"","","","","","image-button-response","41","422804","0.0-10.0-1.0-1.5","9FC28CBD7BE24C8B89A0762C1B3CE6A0","9FC28CBD7BE24C8B89A0762C1B3CE6A0","46e44c60-549e-4292-9a9c-c998bb854196","051c06f1-75cc-4548-856d-4923ddaba0dc","{""num_scrambled_semantic"":""8"",""num_scrambled_causal"":""4"",""num_scrambled_schematic"":""4"",""participantId"":""9FC28CBD7BE24C8B89A0762C1B3CE6A0"",""assignmentId"":""46e44c60-549e-4292-9a9c-c998bb854196"",""projectId"":""051c06f1-75cc-4548-856d-4923ddaba0dc""}","https://test12345.live/?num_scrambled_semantic=8&num_scrambled_causal=4&num_scrambled_schematic=4&participantId=9FC28CBD7BE24C8B89A0762C1B3CE6A0&assignmentId=46e44c60-549e-4292-9a9c-c998bb854196&projectId=051c06f1-75cc-4548-856d-4923ddaba0dc","9FC28CBD7BE24C8B89A0762C1B3CE6A0-2025-05-15-19-29-53","","973","","images/semantic_sequence/exploring_nature_semantic/exploring_nature_semantic_2.png","0","",""
"","","","","","image-button-response","42","425331","0.0-10.0-1.0-2.5","9FC28CBD7BE24C8B89A0762C1B3CE6A0","9FC28CBD7BE24C8B89A0762C1B3CE6A0","46e44c60-549e-4292-9a9c-c998bb854196","051c06f1-75cc-4548-856d-4923ddaba0dc","{""num_scrambled_semantic"":""8"",""num_scrambled_causal"":""4"",""num_scrambled_schematic"":""4"",""participantId"":""9FC28CBD7BE24C8B89A0762C1B3CE6A0"",""assignmentId"":""46e44c60-549e-4292-9a9c-c998bb854196"",""projectId"":""051c06f1-75cc-4548-856d-4923ddaba0dc""}","https://test12345.live/?num_scrambled_semantic=8&num_scrambled_causal=4&num_scrambled_schematic=4&participantId=9FC28CBD7BE24C8B89A0762C1B3CE6A0&assignmentId=46e44c60-549e-4292-9a9c-c998bb854196&projectId=051c06f1-75cc-4548-856d-4923ddaba0dc","9FC28CBD7BE24C8B89A0762C1B3CE6A0-2025-05-15-19-29-53","","null","","[]","null","",""
"","","","","","image-button-response","43","429842","0.0-10.0-1.0-0.6","9FC28CBD7BE24C8B89A0762C1B3CE6A0","9FC28CBD7BE24C8B89A0762C1B3CE6A0","46e44c60-549e-4292-9a9c-c998bb854196","051c06f1-75cc-4548-856d-4923ddaba0dc","{""num_scrambled_semantic"":""8"",""num_scrambled_causal"":""4"",""num_scrambled_schematic"":""4"",""participantId"":""9FC28CBD7BE24C8B89A0762C1B3CE6A0"",""assignmentId"":""46e44c60-549e-4292-9a9c-c998bb854196"",""projectId"":""051c06f1-75cc-4548-856d-4923ddaba0dc""}","https://test12345.live/?num_scrambled_semantic=8&num_scrambled_causal=4&num_scrambled_schematic=4&participantId=9FC28CBD7BE24C8B89A0762C1B3CE6A0&assignmentId=46e44c60-549e-4292-9a9c-c998bb854196&projectId=051c06f1-75cc-4548-856d-4923ddaba0dc","9FC28CBD7BE24C8B89A0762C1B3CE6A0-2025-05-15-19-29-53","","null","","images/semantic_sequence/exploring_nature_semantic/exploring_nature_semantic_9.png","null","",""
"","","","","","image-button-response","44","431753","0.0-10.0-1.0-1.6","9FC28CBD7BE24C8B89A0762C1B3CE6A0","9FC28CBD7BE24C8B89A0762C1B3CE6A0","46e44c60-549e-4292-9a9c-c998bb854196","051c06f1-75cc-4548-856d-4923ddaba0dc","{""num_scrambled_semantic"":""8"",""num_scrambled_causal"":""4"",""num_scrambled_schematic"":""4"",""participantId"":""9FC28CBD7BE24C8B89A0762C1B3CE6A0"",""assignmentId"":""46e44c60-549e-4292-9a9c-c998bb854196"",""projectId"":""051c06f1-75cc-4548-856d-4923ddaba0dc""}","https://test12345.live/?num_scrambled_semantic=8&num_scrambled_causal=4&num_scrambled_schematic=4&participantId=9FC28CBD7BE24C8B89A0762C1B3CE6A0&assignmentId=46e44c60-549e-4292-9a9c-c998bb854196&projectId=051c06f1-75cc-4548-856d-4923ddaba0dc","9FC28CBD7BE24C8B89A0762C1B3CE6A0-2025-05-15-19-29-53","","1911","","images/semantic_sequence/exploring_nature_semantic/exploring_nature_semantic_9.png","0","",""
"","","","","","image-button-response","45","434329","0.0-10.0-1.0-2.6","9FC28CBD7BE24C8B89A0762C1B3CE6A0","9FC28CBD7BE24C8B89A0762C1B3CE6A0","46e44c60-549e-4292-9a9c-c998bb854196","051c06f1-75cc-4548-856d-4923ddaba0dc","{""num_scrambled_semantic"":""8"",""num_scrambled_causal"":""4"",""num_scrambled_schematic"":""4"",""participantId"":""9FC28CBD7BE24C8B89A0762C1B3CE6A0"",""assignmentId"":""46e44c60-549e-4292-9a9c-c998bb854196"",""projectId"":""051c06f1-75cc-4548-856d-4923ddaba0dc""}","https://test12345.live/?num_scrambled_semantic=8&num_scrambled_causal=4&num_scrambled_schematic=4&participantId=9FC28CBD7BE24C8B89A0762C1B3CE6A0&assignmentId=46e44c60-549e-4292-9a9c-c998bb854196&projectId=051c06f1-75cc-4548-856d-4923ddaba0dc","9FC28CBD7BE24C8B89A0762C1B3CE6A0-2025-05-15-19-29-53","","null","","[]","null","",""
"","","","","","image-button-response","46","438831","0.0-10.0-1.0-0.7","9FC28CBD7BE24C8B89A0762C1B3CE6A0","9FC28CBD7BE24C8B89A0762C1B3CE6A0","46e44c60-549e-4292-9a9c-c998bb854196","051c06f1-75cc-4548-856d-4923ddaba0dc","{""num_scrambled_semantic"":""8"",""num_scrambled_causal"":""4"",""num_scrambled_schematic"":""4"",""participantId"":""9FC28CBD7BE24C8B89A0762C1B3CE6A0"",""assignmentId"":""46e44c60-549e-4292-9a9c-c998bb854196"",""projectId"":""051c06f1-75cc-4548-856d-4923ddaba0dc""}","https://test12345.live/?num_scrambled_semantic=8&num_scrambled_causal=4&num_scrambled_schematic=4&participantId=9FC28CBD7BE24C8B89A0762C1B3CE6A0&assignmentId=46e44c60-549e-4292-9a9c-c998bb854196&projectId=051c06f1-75cc-4548-856d-4923ddaba0dc","9FC28CBD7BE24C8B89A0762C1B3CE6A0-2025-05-15-19-29-53","","null","","images/semantic_sequence/exploring_nature_semantic/exploring_nature_semantic_3.png","null","",""
"","","","","","image-button-response","47","439926","0.0-10.0-1.0-1.7","9FC28CBD7BE24C8B89A0762C1B3CE6A0","9FC28CBD7BE24C8B89A0762C1B3CE6A0","46e44c60-549e-4292-9a9c-c998bb854196","051c06f1-75cc-4548-856d-4923ddaba0dc","{""num_scrambled_semantic"":""8"",""num_scrambled_causal"":""4"",""num_scrambled_schematic"":""4"",""participantId"":""9FC28CBD7BE24C8B89A0762C1B3CE6A0"",""assignmentId"":""46e44c60-549e-4292-9a9c-c998bb854196"",""projectId"":""051c06f1-75cc-4548-856d-4923ddaba0dc""}","https://test12345.live/?num_scrambled_semantic=8&num_scrambled_causal=4&num_scrambled_schematic=4&participantId=9FC28CBD7BE24C8B89A0762C1B3CE6A0&assignmentId=46e44c60-549e-4292-9a9c-c998bb854196&projectId=051c06f1-75cc-4548-856d-4923ddaba0dc","9FC28CBD7BE24C8B89A0762C1B3CE6A0-2025-05-15-19-29-53","","1093","","images/semantic_sequence/exploring_nature_semantic/exploring_nature_semantic_3.png","0","",""
"","","","","","image-button-response","48","442324","0.0-10.0-1.0-2.7","9FC28CBD7BE24C8B89A0762C1B3CE6A0","9FC28CBD7BE24C8B89A0762C1B3CE6A0","46e44c60-549e-4292-9a9c-c998bb854196","051c06f1-75cc-4548-856d-4923ddaba0dc","{""num_scrambled_semantic"":""8"",""num_scrambled_causal"":""4"",""num_scrambled_schematic"":""4"",""participantId"":""9FC28CBD7BE24C8B89A0762C1B3CE6A0"",""assignmentId"":""46e44c60-549e-4292-9a9c-c998bb854196"",""projectId"":""051c06f1-75cc-4548-856d-4923ddaba0dc""}","https://test12345.live/?num_scrambled_semantic=8&num_scrambled_causal=4&num_scrambled_schematic=4&participantId=9FC28CBD7BE24C8B89A0762C1B3CE6A0&assignmentId=46e44c60-549e-4292-9a9c-c998bb854196&projectId=051c06f1-75cc-4548-856d-4923ddaba0dc","9FC28CBD7BE24C8B89A0762C1B3CE6A0-2025-05-15-19-29-53","","null","","[]","null","",""
"","","","","","image-button-response","49","447326","0.0-10.0-1.0-0.8","9FC28CBD7BE24C8B89A0762C1B3CE6A0","9FC28CBD7BE24C8B89A0762C1B3CE6A0","46e44c60-549e-4292-9a9c-c998bb854196","051c06f1-75cc-4548-856d-4923ddaba0dc","{""num_scrambled_semantic"":""8"",""num_scrambled_causal"":""4"",""num_scrambled_schematic"":""4"",""participantId"":""9FC28CBD7BE24C8B89A0762C1B3CE6A0"",""assignmentId"":""46e44c60-549e-4292-9a9c-c998bb854196"",""projectId"":""051c06f1-75cc-4548-856d-4923ddaba0dc""}","https://test12345.live/?num_scrambled_semantic=8&num_scrambled_causal=4&num_scrambled_schematic=4&participantId=9FC28CBD7BE24C8B89A0762C1B3CE6A0&assignmentId=46e44c60-549e-4292-9a9c-c998bb854196&projectId=051c06f1-75cc-4548-856d-4923ddaba0dc","9FC28CBD7BE24C8B89A0762C1B3CE6A0-2025-05-15-19-29-53","","null","","images/semantic_sequence/exploring_nature_semantic/exploring_nature_semantic_7.png","null","",""
"","","","","","image-button-response","50","448307","0.0-10.0-1.0-1.8","9FC28CBD7BE24C8B89A0762C1B3CE6A0","9FC28CBD7BE24C8B89A0762C1B3CE6A0","46e44c60-549e-4292-9a9c-c998bb854196","051c06f1-75cc-4548-856d-4923ddaba0dc","{""num_scrambled_semantic"":""8"",""num_scrambled_causal"":""4"",""num_scrambled_schematic"":""4"",""participantId"":""9FC28CBD7BE24C8B89A0762C1B3CE6A0"",""assignmentId"":""46e44c60-549e-4292-9a9c-c998bb854196"",""projectId"":""051c06f1-75cc-4548-856d-4923ddaba0dc""}","https://test12345.live/?num_scrambled_semantic=8&num_scrambled_causal=4&num_scrambled_schematic=4&participantId=9FC28CBD7BE24C8B89A0762C1B3CE6A0&assignmentId=46e44c60-549e-4292-9a9c-c998bb854196&projectId=051c06f1-75cc-4548-856d-4923ddaba0dc","9FC28CBD7BE24C8B89A0762C1B3CE6A0-2025-05-15-19-29-53","","980","","images/semantic_sequence/exploring_nature_semantic/exploring_nature_semantic_7.png","0","",""
"","","","","","image-button-response","51","450117","0.0-10.0-1.0-2.8","9FC28CBD7BE24C8B89A0762C1B3CE6A0","9FC28CBD7BE24C8B89A0762C1B3CE6A0","46e44c60-549e-4292-9a9c-c998bb854196","051c06f1-75cc-4548-856d-4923ddaba0dc","{""num_scrambled_semantic"":""8"",""num_scrambled_causal"":""4"",""num_scrambled_schematic"":""4"",""participantId"":""9FC28CBD7BE24C8B89A0762C1B3CE6A0"",""assignmentId"":""46e44c60-549e-4292-9a9c-c998bb854196"",""projectId"":""051c06f1-75cc-4548-856d-4923ddaba0dc""}","https://test12345.live/?num_scrambled_semantic=8&num_scrambled_causal=4&num_scrambled_schematic=4&participantId=9FC28CBD7BE24C8B89A0762C1B3CE6A0&assignmentId=46e44c60-549e-4292-9a9c-c998bb854196&projectId=051c06f1-75cc-4548-856d-4923ddaba0dc","9FC28CBD7BE24C8B89A0762C1B3CE6A0-2025-05-15-19-29-53","","null","","[]","null","",""
"","","","","","image-button-response","52","454621","0.0-10.0-1.0-0.9","9FC28CBD7BE24C8B89A0762C1B3CE6A0","9FC28CBD7BE24C8B89A0762C1B3CE6A0","46e44c60-549e-4292-9a9c-c998bb854196","051c06f1-75cc-4548-856d-4923ddaba0dc","{""num_scrambled_semantic"":""8"",""num_scrambled_causal"":""4"",""num_scrambled_schematic"":""4"",""participantId"":""9FC28CBD7BE24C8B89A0762C1B3CE6A0"",""assignmentId"":""46e44c60-549e-4292-9a9c-c998bb854196"",""projectId"":""051c06f1-75cc-4548-856d-4923ddaba0dc""}","https://test12345.live/?num_scrambled_semantic=8&num_scrambled_causal=4&num_scrambled_schematic=4&participantId=9FC28CBD7BE24C8B89A0762C1B3CE6A0&assignmentId=46e44c60-549e-4292-9a9c-c998bb854196&projectId=051c06f1-75cc-4548-856d-4923ddaba0dc","9FC28CBD7BE24C8B89A0762C1B3CE6A0-2025-05-15-19-29-53","","null","","images/semantic_sequence/exploring_nature_semantic/exploring_nature_semantic_1.png","null","",""
"","","","","","image-button-response","53","459332","0.0-10.0-1.0-1.9","9FC28CBD7BE24C8B89A0762C1B3CE6A0","9FC28CBD7BE24C8B89A0762C1B3CE6A0","46e44c60-549e-4292-9a9c-c998bb854196","051c06f1-75cc-4548-856d-4923ddaba0dc","{""num_scrambled_semantic"":""8"",""num_scrambled_causal"":""4"",""num_scrambled_schematic"":""4"",""participantId"":""9FC28CBD7BE24C8B89A0762C1B3CE6A0"",""assignmentId"":""46e44c60-549e-4292-9a9c-c998bb854196"",""projectId"":""051c06f1-75cc-4548-856d-4923ddaba0dc""}","https://test12345.live/?num_scrambled_semantic=8&num_scrambled_causal=4&num_scrambled_schematic=4&participantId=9FC28CBD7BE24C8B89A0762C1B3CE6A0&assignmentId=46e44c60-549e-4292-9a9c-c998bb854196&projectId=051c06f1-75cc-4548-856d-4923ddaba0dc","9FC28CBD7BE24C8B89A0762C1B3CE6A0-2025-05-15-19-29-53","","null","","images/semantic_sequence/exploring_nature_semantic/exploring_nature_semantic_1.png","null","",""
"","","","","","image-button-response","54","461137","0.0-10.0-1.0-2.9","9FC28CBD7BE24C8B89A0762C1B3CE6A0","9FC28CBD7BE24C8B89A0762C1B3CE6A0","46e44c60-549e-4292-9a9c-c998bb854196","051c06f1-75cc-4548-856d-4923ddaba0dc","{""num_scrambled_semantic"":""8"",""num_scrambled_causal"":""4"",""num_scrambled_schematic"":""4"",""participantId"":""9FC28CBD7BE24C8B89A0762C1B3CE6A0"",""assignmentId"":""46e44c60-549e-4292-9a9c-c998bb854196"",""projectId"":""051c06f1-75cc-4548-856d-4923ddaba0dc""}","https://test12345.live/?num_scrambled_semantic=8&num_scrambled_causal=4&num_scrambled_schematic=4&participantId=9FC28CBD7BE24C8B89A0762C1B3CE6A0&assignmentId=46e44c60-549e-4292-9a9c-c998bb854196&projectId=051c06f1-75cc-4548-856d-4923ddaba0dc","9FC28CBD7BE24C8B89A0762C1B3CE6A0-2025-05-15-19-29-53","","null","","[]","null","",""
"","","","","","html-audio-response","55","480313","0.0-11.0","9FC28CBD7BE24C8B89A0762C1B3CE6A0","9FC28CBD7BE24C8B89A0762C1B3CE6A0","46e44c60-549e-4292-9a9c-c998bb854196","051c06f1-75cc-4548-856d-4923ddaba0dc","{""num_scrambled_semantic"":""8"",""num_scrambled_causal"":""4"",""num_scrambled_schematic"":""4"",""participantId"":""9FC28CBD7BE24C8B89A0762C1B3CE6A0"",""assignmentId"":""46e44c60-549e-4292-9a9c-c998bb854196"",""projectId"":""051c06f1-75cc-4548-856d-4923ddaba0dc""}","https://test12345.live/?num_scrambled_semantic=8&num_scrambled_causal=4&num_scrambled_schematic=4&participantId=9FC28CBD7BE24C8B89A0762C1B3CE6A0&assignmentId=46e44c60-549e-4292-9a9c-c998bb854196&projectId=051c06f1-75cc-4548-856d-4923ddaba0dc","9FC28CBD7BE24C8B89A0762C1B3CE6A0-2025-05-15-19-29-53","","12609","","[""<span style=\""color: red; font-size: 24px\""> NOW RECORDING</span><p>Please say out loud all the images you saw, as many as you can remember. The images can be said in any order.</p>""]","","1","exploring_nature_semantic"
"","","","","","image-button-response","56","486324","0.0-12.0-0.0","9FC28CBD7BE24C8B89A0762C1B3CE6A0","9FC28CBD7BE24C8B89A0762C1B3CE6A0","46e44c60-549e-4292-9a9c-c998bb854196","051c06f1-75cc-4548-856d-4923ddaba0dc","{""num_scrambled_semantic"":""8"",""num_scrambled_causal"":""4"",""num_scrambled_schematic"":""4"",""participantId"":""9FC28CBD7BE24C8B89A0762C1B3CE6A0"",""assignmentId"":""46e44c60-549e-4292-9a9c-c998bb854196"",""projectId"":""051c06f1-75cc-4548-856d-4923ddaba0dc""}","https://test12345.live/?num_scrambled_semantic=8&num_scrambled_causal=4&num_scrambled_schematic=4&participantId=9FC28CBD7BE24C8B89A0762C1B3CE6A0&assignmentId=46e44c60-549e-4292-9a9c-c998bb854196&projectId=051c06f1-75cc-4548-856d-4923ddaba0dc","9FC28CBD7BE24C8B89A0762C1B3CE6A0-2025-05-15-19-29-53","","null","","images/schematic_sequence/dinner_party_scheme/dinner_party_scheme_0.png","null","",""
"","","","","","image-button-response","57","491330","0.0-12.0-1.0-0.0","9FC28CBD7BE24C8B89A0762C1B3CE6A0","9FC28CBD7BE24C8B89A0762C1B3CE6A0","46e44c60-549e-4292-9a9c-c998bb854196","051c06f1-75cc-4548-856d-4923ddaba0dc","{""num_scrambled_semantic"":""8"",""num_scrambled_causal"":""4"",""num_scrambled_schematic"":""4"",""participantId"":""9FC28CBD7BE24C8B89A0762C1B3CE6A0"",""assignmentId"":""46e44c60-549e-4292-9a9c-c998bb854196"",""projectId"":""051c06f1-75cc-4548-856d-4923ddaba0dc""}","https://test12345.live/?num_scrambled_semantic=8&num_scrambled_causal=4&num_scrambled_schematic=4&participantId=9FC28CBD7BE24C8B89A0762C1B3CE6A0&assignmentId=46e44c60-549e-4292-9a9c-c998bb854196&projectId=051c06f1-75cc-4548-856d-4923ddaba0dc","9FC28CBD7BE24C8B89A0762C1B3CE6A0-2025-05-15-19-29-53","","null","","images/schematic_sequence/dinner_party_scheme/dinner_party_scheme_1.png","null","",""
"","","","","","image-button-response","58","494776","0.0-12.0-1.0-1.0","9FC28CBD7BE24C8B89A0762C1B3CE6A0","9FC28CBD7BE24C8B89A0762C1B3CE6A0","46e44c60-549e-4292-9a9c-c998bb854196","051c06f1-75cc-4548-856d-4923ddaba0dc","{""num_scrambled_semantic"":""8"",""num_scrambled_causal"":""4"",""num_scrambled_schematic"":""4"",""participantId"":""9FC28CBD7BE24C8B89A0762C1B3CE6A0"",""assignmentId"":""46e44c60-549e-4292-9a9c-c998bb854196"",""projectId"":""051c06f1-75cc-4548-856d-4923ddaba0dc""}","https://test12345.live/?num_scrambled_semantic=8&num_scrambled_causal=4&num_scrambled_schematic=4&participantId=9FC28CBD7BE24C8B89A0762C1B3CE6A0&assignmentId=46e44c60-549e-4292-9a9c-c998bb854196&projectId=051c06f1-75cc-4548-856d-4923ddaba0dc","9FC28CBD7BE24C8B89A0762C1B3CE6A0-2025-05-15-19-29-53","","3446","","images/schematic_sequence/dinner_party_scheme/dinner_party_scheme_1.png","0","",""
"","","","","","image-button-response","59","497078","0.0-12.0-1.0-2.0","9FC28CBD7BE24C8B89A0762C1B3CE6A0","9FC28CBD7BE24C8B89A0762C1B3CE6A0","46e44c60-549e-4292-9a9c-c998bb854196","051c06f1-75cc-4548-856d-4923ddaba0dc","{""num_scrambled_semantic"":""8"",""num_scrambled_causal"":""4"",""num_scrambled_schematic"":""4"",""participantId"":""9FC28CBD7BE24C8B89A0762C1B3CE6A0"",""assignmentId"":""46e44c60-549e-4292-9a9c-c998bb854196"",""projectId"":""051c06f1-75cc-4548-856d-4923ddaba0dc""}","https://test12345.live/?num_scrambled_semantic=8&num_scrambled_causal=4&num_scrambled_schematic=4&participantId=9FC28CBD7BE24C8B89A0762C1B3CE6A0&assignmentId=46e44c60-549e-4292-9a9c-c998bb854196&projectId=051c06f1-75cc-4548-856d-4923ddaba0dc","9FC28CBD7BE24C8B89A0762C1B3CE6A0-2025-05-15-19-29-53","","null","","[]","null","",""
"","","","","","image-button-response","60","502335","0.0-12.0-1.0-0.1","9FC28CBD7BE24C8B89A0762C1B3CE6A0","9FC28CBD7BE24C8B89A0762C1B3CE6A0","46e44c60-549e-4292-9a9c-c998bb854196","051c06f1-75cc-4548-856d-4923ddaba0dc","{""num_scrambled_semantic"":""8"",""num_scrambled_causal"":""4"",""num_scrambled_schematic"":""4"",""participantId"":""9FC28CBD7BE24C8B89A0762C1B3CE6A0"",""assignmentId"":""46e44c60-549e-4292-9a9c-c998bb854196"",""projectId"":""051c06f1-75cc-4548-856d-4923ddaba0dc""}","https://test12345.live/?num_scrambled_semantic=8&num_scrambled_causal=4&num_scrambled_schematic=4&participantId=9FC28CBD7BE24C8B89A0762C1B3CE6A0&assignmentId=46e44c60-549e-4292-9a9c-c998bb854196&projectId=051c06f1-75cc-4548-856d-4923ddaba0dc","9FC28CBD7BE24C8B89A0762C1B3CE6A0-2025-05-15-19-29-53","","null","","images/schematic_sequence/dinner_party_scheme/dinner_party_scheme_6.png","null","",""
"","","","","","image-button-response","61","504423","0.0-12.0-1.0-1.1","9FC28CBD7BE24C8B89A0762C1B3CE6A0","9FC28CBD7BE24C8B89A0762C1B3CE6A0","46e44c60-549e-4292-9a9c-c998bb854196","051c06f1-75cc-4548-856d-4923ddaba0dc","{""num_scrambled_semantic"":""8"",""num_scrambled_causal"":""4"",""num_scrambled_schematic"":""4"",""participantId"":""9FC28CBD7BE24C8B89A0762C1B3CE6A0"",""assignmentId"":""46e44c60-549e-4292-9a9c-c998bb854196"",""projectId"":""051c06f1-75cc-4548-856d-4923ddaba0dc""}","https://test12345.live/?num_scrambled_semantic=8&num_scrambled_causal=4&num_scrambled_schematic=4&participantId=9FC28CBD7BE24C8B89A0762C1B3CE6A0&assignmentId=46e44c60-549e-4292-9a9c-c998bb854196&projectId=051c06f1-75cc-4548-856d-4923ddaba0dc","9FC28CBD7BE24C8B89A0762C1B3CE6A0-2025-05-15-19-29-53","","2087","","images/schematic_sequence/dinner_party_scheme/dinner_party_scheme_6.png","0","",""
"","","","","","image-button-response","62","506223","0.0-12.0-1.0-2.1","9FC28CBD7BE24C8B89A0762C1B3CE6A0","9FC28CBD7BE24C8B89A0762C1B3CE6A0","46e44c60-549e-4292-9a9c-c998bb854196","051c06f1-75cc-4548-856d-4923ddaba0dc","{""num_scrambled_semantic"":""8"",""num_scrambled_causal"":""4"",""num_scrambled_schematic"":""4"",""participantId"":""9FC28CBD7BE24C8B89A0762C1B3CE6A0"",""assignmentId"":""46e44c60-549e-4292-9a9c-c998bb854196"",""projectId"":""051c06f1-75cc-4548-856d-4923ddaba0dc""}","https://test12345.live/?num_scrambled_semantic=8&num_scrambled_causal=4&num_scrambled_schematic=4&participantId=9FC28CBD7BE24C8B89A0762C1B3CE6A0&assignmentId=46e44c60-549e-4292-9a9c-c998bb854196&projectId=051c06f1-75cc-4548-856d-4923ddaba0dc","9FC28CBD7BE24C8B89A0762C1B3CE6A0-2025-05-15-19-29-53","","null","","[]","null","",""
"","","","","","image-button-response","63","511328","0.0-12.0-1.0-0.2","9FC28CBD7BE24C8B89A0762C1B3CE6A0","9FC28CBD7BE24C8B89A0762C1B3CE6A0","46e44c60-549e-4292-9a9c-c998bb854196","051c06f1-75cc-4548-856d-4923ddaba0dc","{""num_scrambled_semantic"":""8"",""num_scrambled_causal"":""4"",""num_scrambled_schematic"":""4"",""participantId"":""9FC28CBD7BE24C8B89A0762C1B3CE6A0"",""assignmentId"":""46e44c60-549e-4292-9a9c-c998bb854196"",""projectId"":""051c06f1-75cc-4548-856d-4923ddaba0dc""}","https://test12345.live/?num_scrambled_semantic=8&num_scrambled_causal=4&num_scrambled_schematic=4&participantId=9FC28CBD7BE24C8B89A0762C1B3CE6A0&assignmentId=46e44c60-549e-4292-9a9c-c998bb854196&projectId=051c06f1-75cc-4548-856d-4923ddaba0dc","9FC28CBD7BE24C8B89A0762C1B3CE6A0-2025-05-15-19-29-53","","null","","images/schematic_sequence/dinner_party_scheme/dinner_party_scheme_8.png","null","",""
"","","","","","image-button-response","64","516139","0.0-12.0-1.0-1.2","9FC28CBD7BE24C8B89A0762C1B3CE6A0","9FC28CBD7BE24C8B89A0762C1B3CE6A0","46e44c60-549e-4292-9a9c-c998bb854196","051c06f1-75cc-4548-856d-4923ddaba0dc","{""num_scrambled_semantic"":""8"",""num_scrambled_causal"":""4"",""num_scrambled_schematic"":""4"",""participantId"":""9FC28CBD7BE24C8B89A0762C1B3CE6A0"",""assignmentId"":""46e44c60-549e-4292-9a9c-c998bb854196"",""projectId"":""051c06f1-75cc-4548-856d-4923ddaba0dc""}","https://test12345.live/?num_scrambled_semantic=8&num_scrambled_causal=4&num_scrambled_schematic=4&participantId=9FC28CBD7BE24C8B89A0762C1B3CE6A0&assignmentId=46e44c60-549e-4292-9a9c-c998bb854196&projectId=051c06f1-75cc-4548-856d-4923ddaba0dc","9FC28CBD7BE24C8B89A0762C1B3CE6A0-2025-05-15-19-29-53","","null","","images/schematic_sequence/dinner_party_scheme/dinner_party_scheme_8.png","null","",""
"","","","","","image-button-response","65","518327","0.0-12.0-1.0-2.2","9FC28CBD7BE24C8B89A0762C1B3CE6A0","9FC28CBD7BE24C8B89A0762C1B3CE6A0","46e44c60-549e-4292-9a9c-c998bb854196","051c06f1-75cc-4548-856d-4923ddaba0dc","{""num_scrambled_semantic"":""8"",""num_scrambled_causal"":""4"",""num_scrambled_schematic"":""4"",""participantId"":""9FC28CBD7BE24C8B89A0762C1B3CE6A0"",""assignmentId"":""46e44c60-549e-4292-9a9c-c998bb854196"",""projectId"":""051c06f1-75cc-4548-856d-4923ddaba0dc""}","https://test12345.live/?num_scrambled_semantic=8&num_scrambled_causal=4&num_scrambled_schematic=4&participantId=9FC28CBD7BE24C8B89A0762C1B3CE6A0&assignmentId=46e44c60-549e-4292-9a9c-c998bb854196&projectId=051c06f1-75cc-4548-856d-4923ddaba0dc","9FC28CBD7BE24C8B89A0762C1B3CE6A0-2025-05-15-19-29-53","","null","","[]","null","",""
"","","","","","image-button-response","66","523338","0.0-12.0-1.0-0.3","9FC28CBD7BE24C8B89A0762C1B3CE6A0","9FC28CBD7BE24C8B89A0762C1B3CE6A0","46e44c60-549e-4292-9a9c-c998bb854196","051c06f1-75cc-4548-856d-4923ddaba0dc","{""num_scrambled_semantic"":""8"",""num_scrambled_causal"":""4"",""num_scrambled_schematic"":""4"",""participantId"":""9FC28CBD7BE24C8B89A0762C1B3CE6A0"",""assignmentId"":""46e44c60-549e-4292-9a9c-c998bb854196"",""projectId"":""051c06f1-75cc-4548-856d-4923ddaba0dc""}","https://test12345.live/?num_scrambled_semantic=8&num_scrambled_causal=4&num_scrambled_schematic=4&participantId=9FC28CBD7BE24C8B89A0762C1B3CE6A0&assignmentId=46e44c60-549e-4292-9a9c-c998bb854196&projectId=051c06f1-75cc-4548-856d-4923ddaba0dc","9FC28CBD7BE24C8B89A0762C1B3CE6A0-2025-05-15-19-29-53","","null","","images/schematic_sequence/dinner_party_scheme/dinner_party_scheme_2.png","null","",""
"","","","","","image-button-response","67","528021","0.0-12.0-1.0-1.3","9FC28CBD7BE24C8B89A0762C1B3CE6A0","9FC28CBD7BE24C8B89A0762C1B3CE6A0","46e44c60-549e-4292-9a9c-c998bb854196","051c06f1-75cc-4548-856d-4923ddaba0dc","{""num_scrambled_semantic"":""8"",""num_scrambled_causal"":""4"",""num_scrambled_schematic"":""4"",""participantId"":""9FC28CBD7BE24C8B89A0762C1B3CE6A0"",""assignmentId"":""46e44c60-549e-4292-9a9c-c998bb854196"",""projectId"":""051c06f1-75cc-4548-856d-4923ddaba0dc""}","https://test12345.live/?num_scrambled_semantic=8&num_scrambled_causal=4&num_scrambled_schematic=4&participantId=9FC28CBD7BE24C8B89A0762C1B3CE6A0&assignmentId=46e44c60-549e-4292-9a9c-c998bb854196&projectId=051c06f1-75cc-4548-856d-4923ddaba0dc","9FC28CBD7BE24C8B89A0762C1B3CE6A0-2025-05-15-19-29-53","","null","","images/schematic_sequence/dinner_party_scheme/dinner_party_scheme_2.png","null","",""
"","","","","","image-button-response","68","529823","0.0-12.0-1.0-2.3","9FC28CBD7BE24C8B89A0762C1B3CE6A0","9FC28CBD7BE24C8B89A0762C1B3CE6A0","46e44c60-549e-4292-9a9c-c998bb854196","051c06f1-75cc-4548-856d-4923ddaba0dc","{""num_scrambled_semantic"":""8"",""num_scrambled_causal"":""4"",""num_scrambled_schematic"":""4"",""participantId"":""9FC28CBD7BE24C8B89A0762C1B3CE6A0"",""assignmentId"":""46e44c60-549e-4292-9a9c-c998bb854196"",""projectId"":""051c06f1-75cc-4548-856d-4923ddaba0dc""}","https://test12345.live/?num_scrambled_semantic=8&num_scrambled_causal=4&num_scrambled_schematic=4&participantId=9FC28CBD7BE24C8B89A0762C1B3CE6A0&assignmentId=46e44c60-549e-4292-9a9c-c998bb854196&projectId=051c06f1-75cc-4548-856d-4923ddaba0dc","9FC28CBD7BE24C8B89A0762C1B3CE6A0-2025-05-15-19-29-53","","null","","[]","null","",""
"","","","","","image-button-response","69","534329","0.0-12.0-1.0-0.4","9FC28CBD7BE24C8B89A0762C1B3CE6A0","9FC28CBD7BE24C8B89A0762C1B3CE6A0","46e44c60-549e-4292-9a9c-c998bb854196","051c06f1-75cc-4548-856d-4923ddaba0dc","{""num_scrambled_semantic"":""8"",""num_scrambled_causal"":""4"",""num_scrambled_schematic"":""4"",""participantId"":""9FC28CBD7BE24C8B89A0762C1B3CE6A0"",""assignmentId"":""46e44c60-549e-4292-9a9c-c998bb854196"",""projectId"":""051c06f1-75cc-4548-856d-4923ddaba0dc""}","https://test12345.live/?num_scrambled_semantic=8&num_scrambled_causal=4&num_scrambled_schematic=4&participantId=9FC28CBD7BE24C8B89A0762C1B3CE6A0&assignmentId=46e44c60-549e-4292-9a9c-c998bb854196&projectId=051c06f1-75cc-4548-856d-4923ddaba0dc","9FC28CBD7BE24C8B89A0762C1B3CE6A0-2025-05-15-19-29-53","","null","","images/schematic_sequence/dinner_party_scheme/dinner_party_scheme_3.png","null","",""
"","","","","","image-button-response","70","534971","0.0-12.0-1.0-1.4","9FC28CBD7BE24C8B89A0762C1B3CE6A0","9FC28CBD7BE24C8B89A0762C1B3CE6A0","46e44c60-549e-4292-9a9c-c998bb854196","051c06f1-75cc-4548-856d-4923ddaba0dc","{""num_scrambled_semantic"":""8"",""num_scrambled_causal"":""4"",""num_scrambled_schematic"":""4"",""participantId"":""9FC28CBD7BE24C8B89A0762C1B3CE6A0"",""assignmentId"":""46e44c60-549e-4292-9a9c-c998bb854196"",""projectId"":""051c06f1-75cc-4548-856d-4923ddaba0dc""}","https://test12345.live/?num_scrambled_semantic=8&num_scrambled_causal=4&num_scrambled_schematic=4&participantId=9FC28CBD7BE24C8B89A0762C1B3CE6A0&assignmentId=46e44c60-549e-4292-9a9c-c998bb854196&projectId=051c06f1-75cc-4548-856d-4923ddaba0dc","9FC28CBD7BE24C8B89A0762C1B3CE6A0-2025-05-15-19-29-53","","642","","images/schematic_sequence/dinner_party_scheme/dinner_party_scheme_3.png","0","",""
"","","","","","image-button-response","71","537324","0.0-12.0-1.0-2.4","9FC28CBD7BE24C8B89A0762C1B3CE6A0","9FC28CBD7BE24C8B89A0762C1B3CE6A0","46e44c60-549e-4292-9a9c-c998bb854196","051c06f1-75cc-4548-856d-4923ddaba0dc","{""num_scrambled_semantic"":""8"",""num_scrambled_causal"":""4"",""num_scrambled_schematic"":""4"",""participantId"":""9FC28CBD7BE24C8B89A0762C1B3CE6A0"",""assignmentId"":""46e44c60-549e-4292-9a9c-c998bb854196"",""projectId"":""051c06f1-75cc-4548-856d-4923ddaba0dc""}","https://test12345.live/?num_scrambled_semantic=8&num_scrambled_causal=4&num_scrambled_schematic=4&participantId=9FC28CBD7BE24C8B89A0762C1B3CE6A0&assignmentId=46e44c60-549e-4292-9a9c-c998bb854196&projectId=051c06f1-75cc-4548-856d-4923ddaba0dc","9FC28CBD7BE24C8B89A0762C1B3CE6A0-2025-05-15-19-29-53","","null","","[]","null","",""
"","","","","","image-button-response","72","542338","0.0-12.0-1.0-0.5","9FC28CBD7BE24C8B89A0762C1B3CE6A0","9FC28CBD7BE24C8B89A0762C1B3CE6A0","46e44c60-549e-4292-9a9c-c998bb854196","051c06f1-75cc-4548-856d-4923ddaba0dc","{""num_scrambled_semantic"":""8"",""num_scrambled_causal"":""4"",""num_scrambled_schematic"":""4"",""participantId"":""9FC28CBD7BE24C8B89A0762C1B3CE6A0"",""assignmentId"":""46e44c60-549e-4292-9a9c-c998bb854196"",""projectId"":""051c06f1-75cc-4548-856d-4923ddaba0dc""}","https://test12345.live/?num_scrambled_semantic=8&num_scrambled_causal=4&num_scrambled_schematic=4&participantId=9FC28CBD7BE24C8B89A0762C1B3CE6A0&assignmentId=46e44c60-549e-4292-9a9c-c998bb854196&projectId=051c06f1-75cc-4548-856d-4923ddaba0dc","9FC28CBD7BE24C8B89A0762C1B3CE6A0-2025-05-15-19-29-53","","null","","images/schematic_sequence/dinner_party_scheme/dinner_party_scheme_4.png","null","",""
"","","","","","image-button-response","73","544200","0.0-12.0-1.0-1.5","9FC28CBD7BE24C8B89A0762C1B3CE6A0","9FC28CBD7BE24C8B89A0762C1B3CE6A0","46e44c60-549e-4292-9a9c-c998bb854196","051c06f1-75cc-4548-856d-4923ddaba0dc","{""num_scrambled_semantic"":""8"",""num_scrambled_causal"":""4"",""num_scrambled_schematic"":""4"",""participantId"":""9FC28CBD7BE24C8B89A0762C1B3CE6A0"",""assignmentId"":""46e44c60-549e-4292-9a9c-c998bb854196"",""projectId"":""051c06f1-75cc-4548-856d-4923ddaba0dc""}","https://test12345.live/?num_scrambled_semantic=8&num_scrambled_causal=4&num_scrambled_schematic=4&participantId=9FC28CBD7BE24C8B89A0762C1B3CE6A0&assignmentId=46e44c60-549e-4292-9a9c-c998bb854196&projectId=051c06f1-75cc-4548-856d-4923ddaba0dc","9FC28CBD7BE24C8B89A0762C1B3CE6A0-2025-05-15-19-29-53","","1862","","images/schematic_sequence/dinner_party_scheme/dinner_party_scheme_4.png","0","",""
"","","","","","image-button-response","74","546328","0.0-12.0-1.0-2.5","9FC28CBD7BE24C8B89A0762C1B3CE6A0","9FC28CBD7BE24C8B89A0762C1B3CE6A0","46e44c60-549e-4292-9a9c-c998bb854196","051c06f1-75cc-4548-856d-4923ddaba0dc","{""num_scrambled_semantic"":""8"",""num_scrambled_causal"":""4"",""num_scrambled_schematic"":""4"",""participantId"":""9FC28CBD7BE24C8B89A0762C1B3CE6A0"",""assignmentId"":""46e44c60-549e-4292-9a9c-c998bb854196"",""projectId"":""051c06f1-75cc-4548-856d-4923ddaba0dc""}","https://test12345.live/?num_scrambled_semantic=8&num_scrambled_causal=4&num_scrambled_schematic=4&participantId=9FC28CBD7BE24C8B89A0762C1B3CE6A0&assignmentId=46e44c60-549e-4292-9a9c-c998bb854196&projectId=051c06f1-75cc-4548-856d-4923ddaba0dc","9FC28CBD7BE24C8B89A0762C1B3CE6A0-2025-05-15-19-29-53","","null","","[]","null","",""
"","","","","","image-button-response","75","551327","0.0-12.0-1.0-0.6","9FC28CBD7BE24C8B89A0762C1B3CE6A0","9FC28CBD7BE24C8B89A0762C1B3CE6A0","46e44c60-549e-4292-9a9c-c998bb854196","051c06f1-75cc-4548-856d-4923ddaba0dc","{""num_scrambled_semantic"":""8"",""num_scrambled_causal"":""4"",""num_scrambled_schematic"":""4"",""participantId"":""9FC28CBD7BE24C8B89A0762C1B3CE6A0"",""assignmentId"":""46e44c60-549e-4292-9a9c-c998bb854196"",""projectId"":""051c06f1-75cc-4548-856d-4923ddaba0dc""}","https://test12345.live/?num_scrambled_semantic=8&num_scrambled_causal=4&num_scrambled_schematic=4&participantId=9FC28CBD7BE24C8B89A0762C1B3CE6A0&assignmentId=46e44c60-549e-4292-9a9c-c998bb854196&projectId=051c06f1-75cc-4548-856d-4923ddaba0dc","9FC28CBD7BE24C8B89A0762C1B3CE6A0-2025-05-15-19-29-53","","null","","images/schematic_sequence/dinner_party_scheme/dinner_party_scheme_7.png","null","",""
"","","","","","image-button-response","76","553826","0.0-12.0-1.0-1.6","9FC28CBD7BE24C8B89A0762C1B3CE6A0","9FC28CBD7BE24C8B89A0762C1B3CE6A0","46e44c60-549e-4292-9a9c-c998bb854196","051c06f1-75cc-4548-856d-4923ddaba0dc","{""num_scrambled_semantic"":""8"",""num_scrambled_causal"":""4"",""num_scrambled_schematic"":""4"",""participantId"":""9FC28CBD7BE24C8B89A0762C1B3CE6A0"",""assignmentId"":""46e44c60-549e-4292-9a9c-c998bb854196"",""projectId"":""051c06f1-75cc-4548-856d-4923ddaba0dc""}","https://test12345.live/?num_scrambled_semantic=8&num_scrambled_causal=4&num_scrambled_schematic=4&participantId=9FC28CBD7BE24C8B89A0762C1B3CE6A0&assignmentId=46e44c60-549e-4292-9a9c-c998bb854196&projectId=051c06f1-75cc-4548-856d-4923ddaba0dc","9FC28CBD7BE24C8B89A0762C1B3CE6A0-2025-05-15-19-29-53","","2499","","images/schematic_sequence/dinner_party_scheme/dinner_party_scheme_7.png","0","",""
"","","","","","image-button-response","77","556324","0.0-12.0-1.0-2.6","9FC28CBD7BE24C8B89A0762C1B3CE6A0","9FC28CBD7BE24C8B89A0762C1B3CE6A0","46e44c60-549e-4292-9a9c-c998bb854196","051c06f1-75cc-4548-856d-4923ddaba0dc","{""num_scrambled_semantic"":""8"",""num_scrambled_causal"":""4"",""num_scrambled_schematic"":""4"",""participantId"":""9FC28CBD7BE24C8B89A0762C1B3CE6A0"",""assignmentId"":""46e44c60-549e-4292-9a9c-c998bb854196"",""projectId"":""051c06f1-75cc-4548-856d-4923ddaba0dc""}","https://test12345.live/?num_scrambled_semantic=8&num_scrambled_causal=4&num_scrambled_schematic=4&participantId=9FC28CBD7BE24C8B89A0762C1B3CE6A0&assignmentId=46e44c60-549e-4292-9a9c-c998bb854196&projectId=051c06f1-75cc-4548-856d-4923ddaba0dc","9FC28CBD7BE24C8B89A0762C1B3CE6A0-2025-05-15-19-29-53","","null","","[]","null","",""
"","","","","","image-button-response","78","560829","0.0-12.0-1.0-0.7","9FC28CBD7BE24C8B89A0762C1B3CE6A0","9FC28CBD7BE24C8B89A0762C1B3CE6A0","46e44c60-549e-4292-9a9c-c998bb854196","051c06f1-75cc-4548-856d-4923ddaba0dc","{""num_scrambled_semantic"":""8"",""num_scrambled_causal"":""4"",""num_scrambled_schematic"":""4"",""participantId"":""9FC28CBD7BE24C8B89A0762C1B3CE6A0"",""assignmentId"":""46e44c60-549e-4292-9a9c-c998bb854196"",""projectId"":""051c06f1-75cc-4548-856d-4923ddaba0dc""}","https://test12345.live/?num_scrambled_semantic=8&num_scrambled_causal=4&num_scrambled_schematic=4&participantId=9FC28CBD7BE24C8B89A0762C1B3CE6A0&assignmentId=46e44c60-549e-4292-9a9c-c998bb854196&projectId=051c06f1-75cc-4548-856d-4923ddaba0dc","9FC28CBD7BE24C8B89A0762C1B3CE6A0-2025-05-15-19-29-53","","null","","images/schematic_sequence/dinner_party_scheme/dinner_party_scheme_5.png","null","",""
"","","","","","image-button-response","79","562351","0.0-12.0-1.0-1.7","9FC28CBD7BE24C8B89A0762C1B3CE6A0","9FC28CBD7BE24C8B89A0762C1B3CE6A0","46e44c60-549e-4292-9a9c-c998bb854196","051c06f1-75cc-4548-856d-4923ddaba0dc","{""num_scrambled_semantic"":""8"",""num_scrambled_causal"":""4"",""num_scrambled_schematic"":""4"",""participantId"":""9FC28CBD7BE24C8B89A0762C1B3CE6A0"",""assignmentId"":""46e44c60-549e-4292-9a9c-c998bb854196"",""projectId"":""051c06f1-75cc-4548-856d-4923ddaba0dc""}","https://test12345.live/?num_scrambled_semantic=8&num_scrambled_causal=4&num_scrambled_schematic=4&participantId=9FC28CBD7BE24C8B89A0762C1B3CE6A0&assignmentId=46e44c60-549e-4292-9a9c-c998bb854196&projectId=051c06f1-75cc-4548-856d-4923ddaba0dc","9FC28CBD7BE24C8B89A0762C1B3CE6A0-2025-05-15-19-29-53","","1521","","images/schematic_sequence/dinner_party_scheme/dinner_party_scheme_5.png","0","",""
"","","","","","image-button-response","80","564327","0.0-12.0-1.0-2.7","9FC28CBD7BE24C8B89A0762C1B3CE6A0","9FC28CBD7BE24C8B89A0762C1B3CE6A0","46e44c60-549e-4292-9a9c-c998bb854196","051c06f1-75cc-4548-856d-4923ddaba0dc","{""num_scrambled_semantic"":""8"",""num_scrambled_causal"":""4"",""num_scrambled_schematic"":""4"",""participantId"":""9FC28CBD7BE24C8B89A0762C1B3CE6A0"",""assignmentId"":""46e44c60-549e-4292-9a9c-c998bb854196"",""projectId"":""051c06f1-75cc-4548-856d-4923ddaba0dc""}","https://test12345.live/?num_scrambled_semantic=8&num_scrambled_causal=4&num_scrambled_schematic=4&participantId=9FC28CBD7BE24C8B89A0762C1B3CE6A0&assignmentId=46e44c60-549e-4292-9a9c-c998bb854196&projectId=051c06f1-75cc-4548-856d-4923ddaba0dc","9FC28CBD7BE24C8B89A0762C1B3CE6A0-2025-05-15-19-29-53","","null","","[]","null","",""
"","","","","","image-button-response","81","569332","0.0-12.0-1.0-0.8","9FC28CBD7BE24C8B89A0762C1B3CE6A0","9FC28CBD7BE24C8B89A0762C1B3CE6A0","46e44c60-549e-4292-9a9c-c998bb854196","051c06f1-75cc-4548-856d-4923ddaba0dc","{""num_scrambled_semantic"":""8"",""num_scrambled_causal"":""4"",""num_scrambled_schematic"":""4"",""participantId"":""9FC28CBD7BE24C8B89A0762C1B3CE6A0"",""assignmentId"":""46e44c60-549e-4292-9a9c-c998bb854196"",""projectId"":""051c06f1-75cc-4548-856d-4923ddaba0dc""}","https://test12345.live/?num_scrambled_semantic=8&num_scrambled_causal=4&num_scrambled_schematic=4&participantId=9FC28CBD7BE24C8B89A0762C1B3CE6A0&assignmentId=46e44c60-549e-4292-9a9c-c998bb854196&projectId=051c06f1-75cc-4548-856d-4923ddaba0dc","9FC28CBD7BE24C8B89A0762C1B3CE6A0-2025-05-15-19-29-53","","null","","images/schematic_sequence/dinner_party_scheme/dinner_party_scheme_9.png","null","",""
"","","","","","image-button-response","82","572197","0.0-12.0-1.0-1.8","9FC28CBD7BE24C8B89A0762C1B3CE6A0","9FC28CBD7BE24C8B89A0762C1B3CE6A0","46e44c60-549e-4292-9a9c-c998bb854196","051c06f1-75cc-4548-856d-4923ddaba0dc","{""num_scrambled_semantic"":""8"",""num_scrambled_causal"":""4"",""num_scrambled_schematic"":""4"",""participantId"":""9FC28CBD7BE24C8B89A0762C1B3CE6A0"",""assignmentId"":""46e44c60-549e-4292-9a9c-c998bb854196"",""projectId"":""051c06f1-75cc-4548-856d-4923ddaba0dc""}","https://test12345.live/?num_scrambled_semantic=8&num_scrambled_causal=4&num_scrambled_schematic=4&participantId=9FC28CBD7BE24C8B89A0762C1B3CE6A0&assignmentId=46e44c60-549e-4292-9a9c-c998bb854196&projectId=051c06f1-75cc-4548-856d-4923ddaba0dc","9FC28CBD7BE24C8B89A0762C1B3CE6A0-2025-05-15-19-29-53","","2864","","images/schematic_sequence/dinner_party_scheme/dinner_party_scheme_9.png","0","",""
"","","","","","image-button-response","83","574332","0.0-12.0-1.0-2.8","9FC28CBD7BE24C8B89A0762C1B3CE6A0","9FC28CBD7BE24C8B89A0762C1B3CE6A0","46e44c60-549e-4292-9a9c-c998bb854196","051c06f1-75cc-4548-856d-4923ddaba0dc","{""num_scrambled_semantic"":""8"",""num_scrambled_causal"":""4"",""num_scrambled_schematic"":""4"",""participantId"":""9FC28CBD7BE24C8B89A0762C1B3CE6A0"",""assignmentId"":""46e44c60-549e-4292-9a9c-c998bb854196"",""projectId"":""051c06f1-75cc-4548-856d-4923ddaba0dc""}","https://test12345.live/?num_scrambled_semantic=8&num_scrambled_causal=4&num_scrambled_schematic=4&participantId=9FC28CBD7BE24C8B89A0762C1B3CE6A0&assignmentId=46e44c60-549e-4292-9a9c-c998bb854196&projectId=051c06f1-75cc-4548-856d-4923ddaba0dc","9FC28CBD7BE24C8B89A0762C1B3CE6A0-2025-05-15-19-29-53","","null","","[]","null","",""
"","","","","","image-button-response","84","579326","0.0-12.0-1.0-0.9","9FC28CBD7BE24C8B89A0762C1B3CE6A0","9FC28CBD7BE24C8B89A0762C1B3CE6A0","46e44c60-549e-4292-9a9c-c998bb854196","051c06f1-75cc-4548-856d-4923ddaba0dc","{""num_scrambled_semantic"":""8"",""num_scrambled_causal"":""4"",""num_scrambled_schematic"":""4"",""participantId"":""9FC28CBD7BE24C8B89A0762C1B3CE6A0"",""assignmentId"":""46e44c60-549e-4292-9a9c-c998bb854196"",""projectId"":""051c06f1-75cc-4548-856d-4923ddaba0dc""}","https://test12345.live/?num_scrambled_semantic=8&num_scrambled_causal=4&num_scrambled_schematic=4&participantId=9FC28CBD7BE24C8B89A0762C1B3CE6A0&assignmentId=46e44c60-549e-4292-9a9c-c998bb854196&projectId=051c06f1-75cc-4548-856d-4923ddaba0dc","9FC28CBD7BE24C8B89A0762C1B3CE6A0-2025-05-15-19-29-53","","null","","images/schematic_sequence/dinner_party_scheme/dinner_party_scheme_ten.png","null","",""
"","","","","","image-button-response","85","583339","0.0-12.0-1.0-1.9","9FC28CBD7BE24C8B89A0762C1B3CE6A0","9FC28CBD7BE24C8B89A0762C1B3CE6A0","46e44c60-549e-4292-9a9c-c998bb854196","051c06f1-75cc-4548-856d-4923ddaba0dc","{""num_scrambled_semantic"":""8"",""num_scrambled_causal"":""4"",""num_scrambled_schematic"":""4"",""participantId"":""9FC28CBD7BE24C8B89A0762C1B3CE6A0"",""assignmentId"":""46e44c60-549e-4292-9a9c-c998bb854196"",""projectId"":""051c06f1-75cc-4548-856d-4923ddaba0dc""}","https://test12345.live/?num_scrambled_semantic=8&num_scrambled_causal=4&num_scrambled_schematic=4&participantId=9FC28CBD7BE24C8B89A0762C1B3CE6A0&assignmentId=46e44c60-549e-4292-9a9c-c998bb854196&projectId=051c06f1-75cc-4548-856d-4923ddaba0dc","9FC28CBD7BE24C8B89A0762C1B3CE6A0-2025-05-15-19-29-53","","null","","images/schematic_sequence/dinner_party_scheme/dinner_party_scheme_ten.png","null","",""
"","","","","","image-button-response","86","585141","0.0-12.0-1.0-2.9","9FC28CBD7BE24C8B89A0762C1B3CE6A0","9FC28CBD7BE24C8B89A0762C1B3CE6A0","46e44c60-549e-4292-9a9c-c998bb854196","051c06f1-75cc-4548-856d-4923ddaba0dc","{""num_scrambled_semantic"":""8"",""num_scrambled_causal"":""4"",""num_scrambled_schematic"":""4"",""participantId"":""9FC28CBD7BE24C8B89A0762C1B3CE6A0"",""assignmentId"":""46e44c60-549e-4292-9a9c-c998bb854196"",""projectId"":""051c06f1-75cc-4548-856d-4923ddaba0dc""}","https://test12345.live/?num_scrambled_semantic=8&num_scrambled_causal=4&num_scrambled_schematic=4&participantId=9FC28CBD7BE24C8B89A0762C1B3CE6A0&assignmentId=46e44c60-549e-4292-9a9c-c998bb854196&projectId=051c06f1-75cc-4548-856d-4923ddaba0dc","9FC28CBD7BE24C8B89A0762C1B3CE6A0-2025-05-15-19-29-53","","null","","[]","null","",""
"","","","","","html-audio-response","87","608990","0.0-13.0","9FC28CBD7BE24C8B89A0762C1B3CE6A0","9FC28CBD7BE24C8B89A0762C1B3CE6A0","46e44c60-549e-4292-9a9c-c998bb854196","051c06f1-75cc-4548-856d-4923ddaba0dc","{""num_scrambled_semantic"":""8"",""num_scrambled_causal"":""4"",""num_scrambled_schematic"":""4"",""participantId"":""9FC28CBD7BE24C8B89A0762C1B3CE6A0"",""assignmentId"":""46e44c60-549e-4292-9a9c-c998bb854196"",""projectId"":""051c06f1-75cc-4548-856d-4923ddaba0dc""}","https://test12345.live/?num_scrambled_semantic=8&num_scrambled_causal=4&num_scrambled_schematic=4&participantId=9FC28CBD7BE24C8B89A0762C1B3CE6A0&assignmentId=46e44c60-549e-4292-9a9c-c998bb854196&projectId=051c06f1-75cc-4548-856d-4923ddaba0dc","9FC28CBD7BE24C8B89A0762C1B3CE6A0-2025-05-15-19-29-53","","16373","","[""<span style=\""color: red; font-size: 24px\""> NOW RECORDING</span><p>Please say out loud all the images you saw, as many as you can remember. The images can be said in any order.</p>""]","","1","dinner_party_scheme"
"","","","","","image-button-response","88","615326","0.0-14.0-0.0","9FC28CBD7BE24C8B89A0762C1B3CE6A0","9FC28CBD7BE24C8B89A0762C1B3CE6A0","46e44c60-549e-4292-9a9c-c998bb854196","051c06f1-75cc-4548-856d-4923ddaba0dc","{""num_scrambled_semantic"":""8"",""num_scrambled_causal"":""4"",""num_scrambled_schematic"":""4"",""participantId"":""9FC28CBD7BE24C8B89A0762C1B3CE6A0"",""assignmentId"":""46e44c60-549e-4292-9a9c-c998bb854196"",""projectId"":""051c06f1-75cc-4548-856d-4923ddaba0dc""}","https://test12345.live/?num_scrambled_semantic=8&num_scrambled_causal=4&num_scrambled_schematic=4&participantId=9FC28CBD7BE24C8B89A0762C1B3CE6A0&assignmentId=46e44c60-549e-4292-9a9c-c998bb854196&projectId=051c06f1-75cc-4548-856d-4923ddaba0dc","9FC28CBD7BE24C8B89A0762C1B3CE6A0-2025-05-15-19-29-53","","null","","images/schematic_sequence/flight_scheme/flight_scheme_0.png","null","",""
"","","","","","image-button-response","89","620332","0.0-14.0-1.0-0.0","9FC28CBD7BE24C8B89A0762C1B3CE6A0","9FC28CBD7BE24C8B89A0762C1B3CE6A0","46e44c60-549e-4292-9a9c-c998bb854196","051c06f1-75cc-4548-856d-4923ddaba0dc","{""num_scrambled_semantic"":""8"",""num_scrambled_causal"":""4"",""num_scrambled_schematic"":""4"",""participantId"":""9FC28CBD7BE24C8B89A0762C1B3CE6A0"",""assignmentId"":""46e44c60-549e-4292-9a9c-c998bb854196"",""projectId"":""051c06f1-75cc-4548-856d-4923ddaba0dc""}","https://test12345.live/?num_scrambled_semantic=8&num_scrambled_causal=4&num_scrambled_schematic=4&participantId=9FC28CBD7BE24C8B89A0762C1B3CE6A0&assignmentId=46e44c60-549e-4292-9a9c-c998bb854196&projectId=051c06f1-75cc-4548-856d-4923ddaba0dc","9FC28CBD7BE24C8B89A0762C1B3CE6A0-2025-05-15-19-29-53","","null","","images/schematic_sequence/flight_scheme/flight_scheme_1.png","null","",""
"","","","","","image-button-response","90","625335","0.0-14.0-1.0-1.0","9FC28CBD7BE24C8B89A0762C1B3CE6A0","9FC28CBD7BE24C8B89A0762C1B3CE6A0","46e44c60-549e-4292-9a9c-c998bb854196","051c06f1-75cc-4548-856d-4923ddaba0dc","{""num_scrambled_semantic"":""8"",""num_scrambled_causal"":""4"",""num_scrambled_schematic"":""4"",""participantId"":""9FC28CBD7BE24C8B89A0762C1B3CE6A0"",""assignmentId"":""46e44c60-549e-4292-9a9c-c998bb854196"",""projectId"":""051c06f1-75cc-4548-856d-4923ddaba0dc""}","https://test12345.live/?num_scrambled_semantic=8&num_scrambled_causal=4&num_scrambled_schematic=4&participantId=9FC28CBD7BE24C8B89A0762C1B3CE6A0&assignmentId=46e44c60-549e-4292-9a9c-c998bb854196&projectId=051c06f1-75cc-4548-856d-4923ddaba0dc","9FC28CBD7BE24C8B89A0762C1B3CE6A0-2025-05-15-19-29-53","","null","","images/schematic_sequence/flight_scheme/flight_scheme_1.png","null","",""
"","","","","","image-button-response","91","627135","0.0-14.0-1.0-2.0","9FC28CBD7BE24C8B89A0762C1B3CE6A0","9FC28CBD7BE24C8B89A0762C1B3CE6A0","46e44c60-549e-4292-9a9c-c998bb854196","051c06f1-75cc-4548-856d-4923ddaba0dc","{""num_scrambled_semantic"":""8"",""num_scrambled_causal"":""4"",""num_scrambled_schematic"":""4"",""participantId"":""9FC28CBD7BE24C8B89A0762C1B3CE6A0"",""assignmentId"":""46e44c60-549e-4292-9a9c-c998bb854196"",""projectId"":""051c06f1-75cc-4548-856d-4923ddaba0dc""}","https://test12345.live/?num_scrambled_semantic=8&num_scrambled_causal=4&num_scrambled_schematic=4&participantId=9FC28CBD7BE24C8B89A0762C1B3CE6A0&assignmentId=46e44c60-549e-4292-9a9c-c998bb854196&projectId=051c06f1-75cc-4548-856d-4923ddaba0dc","9FC28CBD7BE24C8B89A0762C1B3CE6A0-2025-05-15-19-29-53","","null","","[]","null","",""
"","","","","","image-button-response","92","631645","0.0-14.0-1.0-0.1","9FC28CBD7BE24C8B89A0762C1B3CE6A0","9FC28CBD7BE24C8B89A0762C1B3CE6A0","46e44c60-549e-4292-9a9c-c998bb854196","051c06f1-75cc-4548-856d-4923ddaba0dc","{""num_scrambled_semantic"":""8"",""num_scrambled_causal"":""4"",""num_scrambled_schematic"":""4"",""participantId"":""9FC28CBD7BE24C8B89A0762C1B3CE6A0"",""assignmentId"":""46e44c60-549e-4292-9a9c-c998bb854196"",""projectId"":""051c06f1-75cc-4548-856d-4923ddaba0dc""}","https://test12345.live/?num_scrambled_semantic=8&num_scrambled_causal=4&num_scrambled_schematic=4&participantId=9FC28CBD7BE24C8B89A0762C1B3CE6A0&assignmentId=46e44c60-549e-4292-9a9c-c998bb854196&projectId=051c06f1-75cc-4548-856d-4923ddaba0dc","9FC28CBD7BE24C8B89A0762C1B3CE6A0-2025-05-15-19-29-53","","null","","images/schematic_sequence/flight_scheme/flight_scheme_2.png","null","",""
"","","","","","image-button-response","93","632823","0.0-14.0-1.0-1.1","9FC28CBD7BE24C8B89A0762C1B3CE6A0","9FC28CBD7BE24C8B89A0762C1B3CE6A0","46e44c60-549e-4292-9a9c-c998bb854196","051c06f1-75cc-4548-856d-4923ddaba0dc","{""num_scrambled_semantic"":""8"",""num_scrambled_causal"":""4"",""num_scrambled_schematic"":""4"",""participantId"":""9FC28CBD7BE24C8B89A0762C1B3CE6A0"",""assignmentId"":""46e44c60-549e-4292-9a9c-c998bb854196"",""projectId"":""051c06f1-75cc-4548-856d-4923ddaba0dc""}","https://test12345.live/?num_scrambled_semantic=8&num_scrambled_causal=4&num_scrambled_schematic=4&participantId=9FC28CBD7BE24C8B89A0762C1B3CE6A0&assignmentId=46e44c60-549e-4292-9a9c-c998bb854196&projectId=051c06f1-75cc-4548-856d-4923ddaba0dc","9FC28CBD7BE24C8B89A0762C1B3CE6A0-2025-05-15-19-29-53","","1177","","images/schematic_sequence/flight_scheme/flight_scheme_2.png","1","",""
"","","","","","image-button-response","94","634636","0.0-14.0-1.0-2.1","9FC28CBD7BE24C8B89A0762C1B3CE6A0","9FC28CBD7BE24C8B89A0762C1B3CE6A0","46e44c60-549e-4292-9a9c-c998bb854196","051c06f1-75cc-4548-856d-4923ddaba0dc","{""num_scrambled_semantic"":""8"",""num_scrambled_causal"":""4"",""num_scrambled_schematic"":""4"",""participantId"":""9FC28CBD7BE24C8B89A0762C1B3CE6A0"",""assignmentId"":""46e44c60-549e-4292-9a9c-c998bb854196"",""projectId"":""051c06f1-75cc-4548-856d-4923ddaba0dc""}","https://test12345.live/?num_scrambled_semantic=8&num_scrambled_causal=4&num_scrambled_schematic=4&participantId=9FC28CBD7BE24C8B89A0762C1B3CE6A0&assignmentId=46e44c60-549e-4292-9a9c-c998bb854196&projectId=051c06f1-75cc-4548-856d-4923ddaba0dc","9FC28CBD7BE24C8B89A0762C1B3CE6A0-2025-05-15-19-29-53","","null","","[]","null","",""
"","","","","","image-button-response","95","639329","0.0-14.0-1.0-0.2","9FC28CBD7BE24C8B89A0762C1B3CE6A0","9FC28CBD7BE24C8B89A0762C1B3CE6A0","46e44c60-549e-4292-9a9c-c998bb854196","051c06f1-75cc-4548-856d-4923ddaba0dc","{""num_scrambled_semantic"":""8"",""num_scrambled_causal"":""4"",""num_scrambled_schematic"":""4"",""participantId"":""9FC28CBD7BE24C8B89A0762C1B3CE6A0"",""assignmentId"":""46e44c60-549e-4292-9a9c-c998bb854196"",""projectId"":""051c06f1-75cc-4548-856d-4923ddaba0dc""}","https://test12345.live/?num_scrambled_semantic=8&num_scrambled_causal=4&num_scrambled_schematic=4&participantId=9FC28CBD7BE24C8B89A0762C1B3CE6A0&assignmentId=46e44c60-549e-4292-9a9c-c998bb854196&projectId=051c06f1-75cc-4548-856d-4923ddaba0dc","9FC28CBD7BE24C8B89A0762C1B3CE6A0-2025-05-15-19-29-53","","null","","images/schematic_sequence/flight_scheme/flight_scheme_3.png","null","",""
"","","","","","image-button-response","96","643063","0.0-14.0-1.0-1.2","9FC28CBD7BE24C8B89A0762C1B3CE6A0","9FC28CBD7BE24C8B89A0762C1B3CE6A0","46e44c60-549e-4292-9a9c-c998bb854196","051c06f1-75cc-4548-856d-4923ddaba0dc","{""num_scrambled_semantic"":""8"",""num_scrambled_causal"":""4"",""num_scrambled_schematic"":""4"",""participantId"":""9FC28CBD7BE24C8B89A0762C1B3CE6A0"",""assignmentId"":""46e44c60-549e-4292-9a9c-c998bb854196"",""projectId"":""051c06f1-75cc-4548-856d-4923ddaba0dc""}","https://test12345.live/?num_scrambled_semantic=8&num_scrambled_causal=4&num_scrambled_schematic=4&participantId=9FC28CBD7BE24C8B89A0762C1B3CE6A0&assignmentId=46e44c60-549e-4292-9a9c-c998bb854196&projectId=051c06f1-75cc-4548-856d-4923ddaba0dc","9FC28CBD7BE24C8B89A0762C1B3CE6A0-2025-05-15-19-29-53","","3734","","images/schematic_sequence/flight_scheme/flight_scheme_3.png","0","",""
"","","","","","image-button-response","97","644865","0.0-14.0-1.0-2.2","9FC28CBD7BE24C8B89A0762C1B3CE6A0","9FC28CBD7BE24C8B89A0762C1B3CE6A0","46e44c60-549e-4292-9a9c-c998bb854196","051c06f1-75cc-4548-856d-4923ddaba0dc","{""num_scrambled_semantic"":""8"",""num_scrambled_causal"":""4"",""num_scrambled_schematic"":""4"",""participantId"":""9FC28CBD7BE24C8B89A0762C1B3CE6A0"",""assignmentId"":""46e44c60-549e-4292-9a9c-c998bb854196"",""projectId"":""051c06f1-75cc-4548-856d-4923ddaba0dc""}","https://test12345.live/?num_scrambled_semantic=8&num_scrambled_causal=4&num_scrambled_schematic=4&participantId=9FC28CBD7BE24C8B89A0762C1B3CE6A0&assignmentId=46e44c60-549e-4292-9a9c-c998bb854196&projectId=051c06f1-75cc-4548-856d-4923ddaba0dc","9FC28CBD7BE24C8B89A0762C1B3CE6A0-2025-05-15-19-29-53","","null","","[]","null","",""
"","","","","","image-button-response","98","649368","0.0-14.0-1.0-0.3","9FC28CBD7BE24C8B89A0762C1B3CE6A0","9FC28CBD7BE24C8B89A0762C1B3CE6A0","46e44c60-549e-4292-9a9c-c998bb854196","051c06f1-75cc-4548-856d-4923ddaba0dc","{""num_scrambled_semantic"":""8"",""num_scrambled_causal"":""4"",""num_scrambled_schematic"":""4"",""participantId"":""9FC28CBD7BE24C8B89A0762C1B3CE6A0"",""assignmentId"":""46e44c60-549e-4292-9a9c-c998bb854196"",""projectId"":""051c06f1-75cc-4548-856d-4923ddaba0dc""}","https://test12345.live/?num_scrambled_semantic=8&num_scrambled_causal=4&num_scrambled_schematic=4&participantId=9FC28CBD7BE24C8B89A0762C1B3CE6A0&assignmentId=46e44c60-549e-4292-9a9c-c998bb854196&projectId=051c06f1-75cc-4548-856d-4923ddaba0dc","9FC28CBD7BE24C8B89A0762C1B3CE6A0-2025-05-15-19-29-53","","null","","images/schematic_sequence/flight_scheme/flight_scheme_4.png","null","",""
"","","","","","image-button-response","99","653374","0.0-14.0-1.0-1.3","9FC28CBD7BE24C8B89A0762C1B3CE6A0","9FC28CBD7BE24C8B89A0762C1B3CE6A0","46e44c60-549e-4292-9a9c-c998bb854196","051c06f1-75cc-4548-856d-4923ddaba0dc","{""num_scrambled_semantic"":""8"",""num_scrambled_causal"":""4"",""num_scrambled_schematic"":""4"",""participantId"":""9FC28CBD7BE24C8B89A0762C1B3CE6A0"",""assignmentId"":""46e44c60-549e-4292-9a9c-c998bb854196"",""projectId"":""051c06f1-75cc-4548-856d-4923ddaba0dc""}","https://test12345.live/?num_scrambled_semantic=8&num_scrambled_causal=4&num_scrambled_schematic=4&participantId=9FC28CBD7BE24C8B89A0762C1B3CE6A0&assignmentId=46e44c60-549e-4292-9a9c-c998bb854196&projectId=051c06f1-75cc-4548-856d-4923ddaba0dc","9FC28CBD7BE24C8B89A0762C1B3CE6A0-2025-05-15-19-29-53","","null","","images/schematic_sequence/flight_scheme/flight_scheme_4.png","null","",""
"","","","","","image-button-response","100","655175","0.0-14.0-1.0-2.3","9FC28CBD7BE24C8B89A0762C1B3CE6A0","9FC28CBD7BE24C8B89A0762C1B3CE6A0","46e44c60-549e-4292-9a9c-c998bb854196","051c06f1-75cc-4548-856d-4923ddaba0dc","{""num_scrambled_semantic"":""8"",""num_scrambled_causal"":""4"",""num_scrambled_schematic"":""4"",""participantId"":""9FC28CBD7BE24C8B89A0762C1B3CE6A0"",""assignmentId"":""46e44c60-549e-4292-9a9c-c998bb854196"",""projectId"":""051c06f1-75cc-4548-856d-4923ddaba0dc""}","https://test12345.live/?num_scrambled_semantic=8&num_scrambled_causal=4&num_scrambled_schematic=4&participantId=9FC28CBD7BE24C8B89A0762C1B3CE6A0&assignmentId=46e44c60-549e-4292-9a9c-c998bb854196&projectId=051c06f1-75cc-4548-856d-4923ddaba0dc","9FC28CBD7BE24C8B89A0762C1B3CE6A0-2025-05-15-19-29-53","","null","","[]","null","",""
"","","","","","image-button-response","101","659676","0.0-14.0-1.0-0.4","9FC28CBD7BE24C8B89A0762C1B3CE6A0","9FC28CBD7BE24C8B89A0762C1B3CE6A0","46e44c60-549e-4292-9a9c-c998bb854196","051c06f1-75cc-4548-856d-4923ddaba0dc","{""num_scrambled_semantic"":""8"",""num_scrambled_causal"":""4"",""num_scrambled_schematic"":""4"",""participantId"":""9FC28CBD7BE24C8B89A0762C1B3CE6A0"",""assignmentId"":""46e44c60-549e-4292-9a9c-c998bb854196"",""projectId"":""051c06f1-75cc-4548-856d-4923ddaba0dc""}","https://test12345.live/?num_scrambled_semantic=8&num_scrambled_causal=4&num_scrambled_schematic=4&participantId=9FC28CBD7BE24C8B89A0762C1B3CE6A0&assignmentId=46e44c60-549e-4292-9a9c-c998bb854196&projectId=051c06f1-75cc-4548-856d-4923ddaba0dc","9FC28CBD7BE24C8B89A0762C1B3CE6A0-2025-05-15-19-29-53","","null","","images/schematic_sequence/flight_scheme/flight_scheme_5.png","null","",""
"","","","","","image-button-response","102","661226","0.0-14.0-1.0-1.4","9FC28CBD7BE24C8B89A0762C1B3CE6A0","9FC28CBD7BE24C8B89A0762C1B3CE6A0","46e44c60-549e-4292-9a9c-c998bb854196","051c06f1-75cc-4548-856d-4923ddaba0dc","{""num_scrambled_semantic"":""8"",""num_scrambled_causal"":""4"",""num_scrambled_schematic"":""4"",""participantId"":""9FC28CBD7BE24C8B89A0762C1B3CE6A0"",""assignmentId"":""46e44c60-549e-4292-9a9c-c998bb854196"",""projectId"":""051c06f1-75cc-4548-856d-4923ddaba0dc""}","https://test12345.live/?num_scrambled_semantic=8&num_scrambled_causal=4&num_scrambled_schematic=4&participantId=9FC28CBD7BE24C8B89A0762C1B3CE6A0&assignmentId=46e44c60-549e-4292-9a9c-c998bb854196&projectId=051c06f1-75cc-4548-856d-4923ddaba0dc","9FC28CBD7BE24C8B89A0762C1B3CE6A0-2025-05-15-19-29-53","","1549","","images/schematic_sequence/flight_scheme/flight_scheme_5.png","0","",""
"","","","","","image-button-response","103","663032","0.0-14.0-1.0-2.4","9FC28CBD7BE24C8B89A0762C1B3CE6A0","9FC28CBD7BE24C8B89A0762C1B3CE6A0","46e44c60-549e-4292-9a9c-c998bb854196","051c06f1-75cc-4548-856d-4923ddaba0dc","{""num_scrambled_semantic"":""8"",""num_scrambled_causal"":""4"",""num_scrambled_schematic"":""4"",""participantId"":""9FC28CBD7BE24C8B89A0762C1B3CE6A0"",""assignmentId"":""46e44c60-549e-4292-9a9c-c998bb854196"",""projectId"":""051c06f1-75cc-4548-856d-4923ddaba0dc""}","https://test12345.live/?num_scrambled_semantic=8&num_scrambled_causal=4&num_scrambled_schematic=4&participantId=9FC28CBD7BE24C8B89A0762C1B3CE6A0&assignmentId=46e44c60-549e-4292-9a9c-c998bb854196&projectId=051c06f1-75cc-4548-856d-4923ddaba0dc","9FC28CBD7BE24C8B89A0762C1B3CE6A0-2025-05-15-19-29-53","","null","","[]","null","",""
"","","","","","image-button-response","104","667536","0.0-14.0-1.0-0.5","9FC28CBD7BE24C8B89A0762C1B3CE6A0","9FC28CBD7BE24C8B89A0762C1B3CE6A0","46e44c60-549e-4292-9a9c-c998bb854196","051c06f1-75cc-4548-856d-4923ddaba0dc","{""num_scrambled_semantic"":""8"",""num_scrambled_causal"":""4"",""num_scrambled_schematic"":""4"",""participantId"":""9FC28CBD7BE24C8B89A0762C1B3CE6A0"",""assignmentId"":""46e44c60-549e-4292-9a9c-c998bb854196"",""projectId"":""051c06f1-75cc-4548-856d-4923ddaba0dc""}","https://test12345.live/?num_scrambled_semantic=8&num_scrambled_causal=4&num_scrambled_schematic=4&participantId=9FC28CBD7BE24C8B89A0762C1B3CE6A0&assignmentId=46e44c60-549e-4292-9a9c-c998bb854196&projectId=051c06f1-75cc-4548-856d-4923ddaba0dc","9FC28CBD7BE24C8B89A0762C1B3CE6A0-2025-05-15-19-29-53","","null","","images/schematic_sequence/flight_scheme/flight_scheme_6.png","null","",""
"","","","","","image-button-response","105","668704","0.0-14.0-1.0-1.5","9FC28CBD7BE24C8B89A0762C1B3CE6A0","9FC28CBD7BE24C8B89A0762C1B3CE6A0","46e44c60-549e-4292-9a9c-c998bb854196","051c06f1-75cc-4548-856d-4923ddaba0dc","{""num_scrambled_semantic"":""8"",""num_scrambled_causal"":""4"",""num_scrambled_schematic"":""4"",""participantId"":""9FC28CBD7BE24C8B89A0762C1B3CE6A0"",""assignmentId"":""46e44c60-549e-4292-9a9c-c998bb854196"",""projectId"":""051c06f1-75cc-4548-856d-4923ddaba0dc""}","https://test12345.live/?num_scrambled_semantic=8&num_scrambled_causal=4&num_scrambled_schematic=4&participantId=9FC28CBD7BE24C8B89A0762C1B3CE6A0&assignmentId=46e44c60-549e-4292-9a9c-c998bb854196&projectId=051c06f1-75cc-4548-856d-4923ddaba0dc","9FC28CBD7BE24C8B89A0762C1B3CE6A0-2025-05-15-19-29-53","","1167","","images/schematic_sequence/flight_scheme/flight_scheme_6.png","1","",""
"","","","","","image-button-response","106","670509","0.0-14.0-1.0-2.5","9FC28CBD7BE24C8B89A0762C1B3CE6A0","9FC28CBD7BE24C8B89A0762C1B3CE6A0","46e44c60-549e-4292-9a9c-c998bb854196","051c06f1-75cc-4548-856d-4923ddaba0dc","{""num_scrambled_semantic"":""8"",""num_scrambled_causal"":""4"",""num_scrambled_schematic"":""4"",""participantId"":""9FC28CBD7BE24C8B89A0762C1B3CE6A0"",""assignmentId"":""46e44c60-549e-4292-9a9c-c998bb854196"",""projectId"":""051c06f1-75cc-4548-856d-4923ddaba0dc""}","https://test12345.live/?num_scrambled_semantic=8&num_scrambled_causal=4&num_scrambled_schematic=4&participantId=9FC28CBD7BE24C8B89A0762C1B3CE6A0&assignmentId=46e44c60-549e-4292-9a9c-c998bb854196&projectId=051c06f1-75cc-4548-856d-4923ddaba0dc","9FC28CBD7BE24C8B89A0762C1B3CE6A0-2025-05-15-19-29-53","","null","","[]","null","",""
"","","","","","image-button-response","107","675010","0.0-14.0-1.0-0.6","9FC28CBD7BE24C8B89A0762C1B3CE6A0","9FC28CBD7BE24C8B89A0762C1B3CE6A0","46e44c60-549e-4292-9a9c-c998bb854196","051c06f1-75cc-4548-856d-4923ddaba0dc","{""num_scrambled_semantic"":""8"",""num_scrambled_causal"":""4"",""num_scrambled_schematic"":""4"",""participantId"":""9FC28CBD7BE24C8B89A0762C1B3CE6A0"",""assignmentId"":""46e44c60-549e-4292-9a9c-c998bb854196"",""projectId"":""051c06f1-75cc-4548-856d-4923ddaba0dc""}","https://test12345.live/?num_scrambled_semantic=8&num_scrambled_causal=4&num_scrambled_schematic=4&participantId=9FC28CBD7BE24C8B89A0762C1B3CE6A0&assignmentId=46e44c60-549e-4292-9a9c-c998bb854196&projectId=051c06f1-75cc-4548-856d-4923ddaba0dc","9FC28CBD7BE24C8B89A0762C1B3CE6A0-2025-05-15-19-29-53","","null","","images/schematic_sequence/flight_scheme/flight_scheme_7.png","null","",""
"","","","","","image-button-response","108","679015","0.0-14.0-1.0-1.6","9FC28CBD7BE24C8B89A0762C1B3CE6A0","9FC28CBD7BE24C8B89A0762C1B3CE6A0","46e44c60-549e-4292-9a9c-c998bb854196","051c06f1-75cc-4548-856d-4923ddaba0dc","{""num_scrambled_semantic"":""8"",""num_scrambled_causal"":""4"",""num_scrambled_schematic"":""4"",""participantId"":""9FC28CBD7BE24C8B89A0762C1B3CE6A0"",""assignmentId"":""46e44c60-549e-4292-9a9c-c998bb854196"",""projectId"":""051c06f1-75cc-4548-856d-4923ddaba0dc""}","https://test12345.live/?num_scrambled_semantic=8&num_scrambled_causal=4&num_scrambled_schematic=4&participantId=9FC28CBD7BE24C8B89A0762C1B3CE6A0&assignmentId=46e44c60-549e-4292-9a9c-c998bb854196&projectId=051c06f1-75cc-4548-856d-4923ddaba0dc","9FC28CBD7BE24C8B89A0762C1B3CE6A0-2025-05-15-19-29-53","","null","","images/schematic_sequence/flight_scheme/flight_scheme_7.png","null","",""
"","","","","","image-button-response","109","680828","0.0-14.0-1.0-2.6","9FC28CBD7BE24C8B89A0762C1B3CE6A0","9FC28CBD7BE24C8B89A0762C1B3CE6A0","46e44c60-549e-4292-9a9c-c998bb854196","051c06f1-75cc-4548-856d-4923ddaba0dc","{""num_scrambled_semantic"":""8"",""num_scrambled_causal"":""4"",""num_scrambled_schematic"":""4"",""participantId"":""9FC28CBD7BE24C8B89A0762C1B3CE6A0"",""assignmentId"":""46e44c60-549e-4292-9a9c-c998bb854196"",""projectId"":""051c06f1-75cc-4548-856d-4923ddaba0dc""}","https://test12345.live/?num_scrambled_semantic=8&num_scrambled_causal=4&num_scrambled_schematic=4&participantId=9FC28CBD7BE24C8B89A0762C1B3CE6A0&assignmentId=46e44c60-549e-4292-9a9c-c998bb854196&projectId=051c06f1-75cc-4548-856d-4923ddaba0dc","9FC28CBD7BE24C8B89A0762C1B3CE6A0-2025-05-15-19-29-53","","null","","[]","null","",""
"","","","","","image-button-response","110","685330","0.0-14.0-1.0-0.7","9FC28CBD7BE24C8B89A0762C1B3CE6A0","9FC28CBD7BE24C8B89A0762C1B3CE6A0","46e44c60-549e-4292-9a9c-c998bb854196","051c06f1-75cc-4548-856d-4923ddaba0dc","{""num_scrambled_semantic"":""8"",""num_scrambled_causal"":""4"",""num_scrambled_schematic"":""4"",""participantId"":""9FC28CBD7BE24C8B89A0762C1B3CE6A0"",""assignmentId"":""46e44c60-549e-4292-9a9c-c998bb854196"",""projectId"":""051c06f1-75cc-4548-856d-4923ddaba0dc""}","https://test12345.live/?num_scrambled_semantic=8&num_scrambled_causal=4&num_scrambled_schematic=4&participantId=9FC28CBD7BE24C8B89A0762C1B3CE6A0&assignmentId=46e44c60-549e-4292-9a9c-c998bb854196&projectId=051c06f1-75cc-4548-856d-4923ddaba0dc","9FC28CBD7BE24C8B89A0762C1B3CE6A0-2025-05-15-19-29-53","","null","","images/schematic_sequence/flight_scheme/flight_scheme_8.png","null","",""
"","","","","","image-button-response","111","686647","0.0-14.0-1.0-1.7","9FC28CBD7BE24C8B89A0762C1B3CE6A0","9FC28CBD7BE24C8B89A0762C1B3CE6A0","46e44c60-549e-4292-9a9c-c998bb854196","051c06f1-75cc-4548-856d-4923ddaba0dc","{""num_scrambled_semantic"":""8"",""num_scrambled_causal"":""4"",""num_scrambled_schematic"":""4"",""participantId"":""9FC28CBD7BE24C8B89A0762C1B3CE6A0"",""assignmentId"":""46e44c60-549e-4292-9a9c-c998bb854196"",""projectId"":""051c06f1-75cc-4548-856d-4923ddaba0dc""}","https://test12345.live/?num_scrambled_semantic=8&num_scrambled_causal=4&num_scrambled_schematic=4&participantId=9FC28CBD7BE24C8B89A0762C1B3CE6A0&assignmentId=46e44c60-549e-4292-9a9c-c998bb854196&projectId=051c06f1-75cc-4548-856d-4923ddaba0dc","9FC28CBD7BE24C8B89A0762C1B3CE6A0-2025-05-15-19-29-53","","1316","","images/schematic_sequence/flight_scheme/flight_scheme_8.png","1","",""
"","","","","","image-button-response","112","688451","0.0-14.0-1.0-2.7","9FC28CBD7BE24C8B89A0762C1B3CE6A0","9FC28CBD7BE24C8B89A0762C1B3CE6A0","46e44c60-549e-4292-9a9c-c998bb854196","051c06f1-75cc-4548-856d-4923ddaba0dc","{""num_scrambled_semantic"":""8"",""num_scrambled_causal"":""4"",""num_scrambled_schematic"":""4"",""participantId"":""9FC28CBD7BE24C8B89A0762C1B3CE6A0"",""assignmentId"":""46e44c60-549e-4292-9a9c-c998bb854196"",""projectId"":""051c06f1-75cc-4548-856d-4923ddaba0dc""}","https://test12345.live/?num_scrambled_semantic=8&num_scrambled_causal=4&num_scrambled_schematic=4&participantId=9FC28CBD7BE24C8B89A0762C1B3CE6A0&assignmentId=46e44c60-549e-4292-9a9c-c998bb854196&projectId=051c06f1-75cc-4548-856d-4923ddaba0dc","9FC28CBD7BE24C8B89A0762C1B3CE6A0-2025-05-15-19-29-53","","null","","[]","null","",""
"","","","","","image-button-response","113","692960","0.0-14.0-1.0-0.8","9FC28CBD7BE24C8B89A0762C1B3CE6A0","9FC28CBD7BE24C8B89A0762C1B3CE6A0","46e44c60-549e-4292-9a9c-c998bb854196","051c06f1-75cc-4548-856d-4923ddaba0dc","{""num_scrambled_semantic"":""8"",""num_scrambled_causal"":""4"",""num_scrambled_schematic"":""4"",""participantId"":""9FC28CBD7BE24C8B89A0762C1B3CE6A0"",""assignmentId"":""46e44c60-549e-4292-9a9c-c998bb854196"",""projectId"":""051c06f1-75cc-4548-856d-4923ddaba0dc""}","https://test12345.live/?num_scrambled_semantic=8&num_scrambled_causal=4&num_scrambled_schematic=4&participantId=9FC28CBD7BE24C8B89A0762C1B3CE6A0&assignmentId=46e44c60-549e-4292-9a9c-c998bb854196&projectId=051c06f1-75cc-4548-856d-4923ddaba0dc","9FC28CBD7BE24C8B89A0762C1B3CE6A0-2025-05-15-19-29-53","","null","","images/schematic_sequence/flight_scheme/flight_scheme_9.png","null","",""
"","","","","","image-button-response","114","696245","0.0-14.0-1.0-1.8","9FC28CBD7BE24C8B89A0762C1B3CE6A0","9FC28CBD7BE24C8B89A0762C1B3CE6A0","46e44c60-549e-4292-9a9c-c998bb854196","051c06f1-75cc-4548-856d-4923ddaba0dc","{""num_scrambled_semantic"":""8"",""num_scrambled_causal"":""4"",""num_scrambled_schematic"":""4"",""participantId"":""9FC28CBD7BE24C8B89A0762C1B3CE6A0"",""assignmentId"":""46e44c60-549e-4292-9a9c-c998bb854196"",""projectId"":""051c06f1-75cc-4548-856d-4923ddaba0dc""}","https://test12345.live/?num_scrambled_semantic=8&num_scrambled_causal=4&num_scrambled_schematic=4&participantId=9FC28CBD7BE24C8B89A0762C1B3CE6A0&assignmentId=46e44c60-549e-4292-9a9c-c998bb854196&projectId=051c06f1-75cc-4548-856d-4923ddaba0dc","9FC28CBD7BE24C8B89A0762C1B3CE6A0-2025-05-15-19-29-53","","3284","","images/schematic_sequence/flight_scheme/flight_scheme_9.png","0","",""
