"success","timeout","failed_images","failed_audio","failed_video","trial_type","trial_index","time_elapsed","internal_node_id","subject","subject_id","study_id","session_id","urlvar","current_url","audio_id","view_history","rt","device_id","stimulus","response","estimated_stimulus_onset","seq_name"
"true","false","[]","[]","[]","preload","0","1662","0.0-0.0","A07C19884DD34DE9B68B603C24791418","A07C19884DD34DE9B68B603C24791418","0198be8f-6a56-7fea-b704-5126c35c817d","0198be8b-78cf-72d2-ba2b-1e62c78022e0","{""num_scrambled_semantic"":""8"",""num_scrambled_causal"":""4"",""num_scrambled_schematic"":""4"",""participantId"":""A07C19884DD34DE9B68B603C24791418"",""assignmentId"":""0198be8f-6a56-7fea-b704-5126c35c817d"",""projectId"":""0198be8b-78cf-72d2-ba2b-1e62c78022e0""}","https://test12345.live/?num_scrambled_semantic=8&num_scrambled_causal=4&num_scrambled_schematic=4&participantId=A07C19884DD34DE9B68B603C24791418&assignmentId=0198be8f-6a56-7fea-b704-5126c35c817d&projectId=0198be8b-78cf-72d2-ba2b-1e62c78022e0","A07C19884DD34DE9B68B603C24791418-2025-08-18-20-27-31","","","","","","",""
"","","","","","instructions","1","30524","0.0-1.0","A07C19884DD34DE9B68B603C24791418","A07C19884DD34DE9B68B603C24791418","0198be8f-6a56-7fea-b704-5126c35c817d","0198be8b-78cf-72d2-ba2b-1e62c78022e0","{""num_scrambled_semantic"":""8"",""num_scrambled_causal"":""4"",""num_scrambled_schematic"":""4"",""participantId"":""A07C19884DD34DE9B68B603C24791418"",""assignmentId"":""0198be8f-6a56-7fea-b704-5126c35c817d"",""projectId"":""0198be8b-78cf-72d2-ba2b-1e62c78022e0""}","https://test12345.live/?num_scrambled_semantic=8&num_scrambled_causal=4&num_scrambled_schematic=4&participantId=A07C19884DD34DE9B68B603C24791418&assignmentId=0198be8f-6a56-7fea-b704-5126c35c817d&projectId=0198be8b-78cf-72d2-ba2b-1e62c78022e0","A07C19884DD34DE9B68B603C24791418-2025-08-18-20-27-31","[{""page_index"":0,""viewing_time"":28861}]","28861","","","","",""
"","","","","","instructions","2","41297","0.0-2.0","A07C19884DD34DE9B68B603C24791418","A07C19884DD34DE9B68B603C24791418","0198be8f-6a56-7fea-b704-5126c35c817d","0198be8b-78cf-72d2-ba2b-1e62c78022e0","{""num_scrambled_semantic"":""8"",""num_scrambled_causal"":""4"",""num_scrambled_schematic"":""4"",""participantId"":""A07C19884DD34DE9B68B603C24791418"",""assignmentId"":""0198be8f-6a56-7fea-b704-5126c35c817d"",""projectId"":""0198be8b-78cf-72d2-ba2b-1e62c78022e0""}","https://test12345.live/?num_scrambled_semantic=8&num_scrambled_causal=4&num_scrambled_schematic=4&participantId=A07C19884DD34DE9B68B603C24791418&assignmentId=0198be8f-6a56-7fea-b704-5126c35c817d&projectId=0198be8b-78cf-72d2-ba2b-1e62c78022e0","A07C19884DD34DE9B68B603C24791418-2025-08-18-20-27-31","[{""page_index"":0,""viewing_time"":10772}]","10773","","","","",""
"true","","","","","fullscreen","3","44438","0.0-3.0","A07C19884DD34DE9B68B603C24791418","A07C19884DD34DE9B68B603C24791418","0198be8f-6a56-7fea-b704-5126c35c817d","0198be8b-78cf-72d2-ba2b-1e62c78022e0","{""num_scrambled_semantic"":""8"",""num_scrambled_causal"":""4"",""num_scrambled_schematic"":""4"",""participantId"":""A07C19884DD34DE9B68B603C24791418"",""assignmentId"":""0198be8f-6a56-7fea-b704-5126c35c817d"",""projectId"":""0198be8b-78cf-72d2-ba2b-1e62c78022e0""}","https://test12345.live/?num_scrambled_semantic=8&num_scrambled_causal=4&num_scrambled_schematic=4&participantId=A07C19884DD34DE9B68B603C24791418&assignmentId=0198be8f-6a56-7fea-b704-5126c35c817d&projectId=0198be8b-78cf-72d2-ba2b-1e62c78022e0","A07C19884DD34DE9B68B603C24791418-2025-08-18-20-27-31","","2110","","","","",""
"","","","","","initialize-microphone","4","51254","0.0-4.0-0.0","A07C19884DD34DE9B68B603C24791418","A07C19884DD34DE9B68B603C24791418","0198be8f-6a56-7fea-b704-5126c35c817d","0198be8b-78cf-72d2-ba2b-1e62c78022e0","{""num_scrambled_semantic"":""8"",""num_scrambled_causal"":""4"",""num_scrambled_schematic"":""4"",""participantId"":""A07C19884DD34DE9B68B603C24791418"",""assignmentId"":""0198be8f-6a56-7fea-b704-5126c35c817d"",""projectId"":""0198be8b-78cf-72d2-ba2b-1e62c78022e0""}","https://test12345.live/?num_scrambled_semantic=8&num_scrambled_causal=4&num_scrambled_schematic=4&participantId=A07C19884DD34DE9B68B603C24791418&assignmentId=0198be8f-6a56-7fea-b704-5126c35c817d&projectId=0198be8b-78cf-72d2-ba2b-1e62c78022e0","A07C19884DD34DE9B68B603C24791418-2025-08-18-20-27-31","","","7928ca4806b42ab1e46e2c94e4d0aef67fb75f7ee44e6b79565443b52defb9c1","","","",""
"","","","","","html-audio-response","5","57332","0.0-4.0-1.0","A07C19884DD34DE9B68B603C24791418","A07C19884DD34DE9B68B603C24791418","0198be8f-6a56-7fea-b704-5126c35c817d","0198be8b-78cf-72d2-ba2b-1e62c78022e0","{""num_scrambled_semantic"":""8"",""num_scrambled_causal"":""4"",""num_scrambled_schematic"":""4"",""participantId"":""A07C19884DD34DE9B68B603C24791418"",""assignmentId"":""0198be8f-6a56-7fea-b704-5126c35c817d"",""projectId"":""0198be8b-78cf-72d2-ba2b-1e62c78022e0""}","https://test12345.live/?num_scrambled_semantic=8&num_scrambled_causal=4&num_scrambled_schematic=4&participantId=A07C19884DD34DE9B68B603C24791418&assignmentId=0198be8f-6a56-7fea-b704-5126c35c817d&projectId=0198be8b-78cf-72d2-ba2b-1e62c78022e0","A07C19884DD34DE9B68B603C24791418-2025-08-18-20-27-31","","1655","","<span style=""color: red; font-size: 24px""> NOW RECORDING</span>
        <p>Please test Microphone</p>","","5",""
"","","","","","html-button-response","6","58745","0.0-4.0-2.0","A07C19884DD34DE9B68B603C24791418","A07C19884DD34DE9B68B603C24791418","0198be8f-6a56-7fea-b704-5126c35c817d","0198be8b-78cf-72d2-ba2b-1e62c78022e0","{""num_scrambled_semantic"":""8"",""num_scrambled_causal"":""4"",""num_scrambled_schematic"":""4"",""participantId"":""A07C19884DD34DE9B68B603C24791418"",""assignmentId"":""0198be8f-6a56-7fea-b704-5126c35c817d"",""projectId"":""0198be8b-78cf-72d2-ba2b-1e62c78022e0""}","https://test12345.live/?num_scrambled_semantic=8&num_scrambled_causal=4&num_scrambled_schematic=4&participantId=A07C19884DD34DE9B68B603C24791418&assignmentId=0198be8f-6a56-7fea-b704-5126c35c817d&projectId=0198be8b-78cf-72d2-ba2b-1e62c78022e0","A07C19884DD34DE9B68B603C24791418-2025-08-18-20-27-31","","1410","","<p style=""font-size:48px; color:red;"">Is Microphone OK?</p>","1","",""
"","","","","","instructions","7","69013","0.0-5.0","A07C19884DD34DE9B68B603C24791418","A07C19884DD34DE9B68B603C24791418","0198be8f-6a56-7fea-b704-5126c35c817d","0198be8b-78cf-72d2-ba2b-1e62c78022e0","{""num_scrambled_semantic"":""8"",""num_scrambled_causal"":""4"",""num_scrambled_schematic"":""4"",""participantId"":""A07C19884DD34DE9B68B603C24791418"",""assignmentId"":""0198be8f-6a56-7fea-b704-5126c35c817d"",""projectId"":""0198be8b-78cf-72d2-ba2b-1e62c78022e0""}","https://test12345.live/?num_scrambled_semantic=8&num_scrambled_causal=4&num_scrambled_schematic=4&participantId=A07C19884DD34DE9B68B603C24791418&assignmentId=0198be8f-6a56-7fea-b704-5126c35c817d&projectId=0198be8b-78cf-72d2-ba2b-1e62c78022e0","A07C19884DD34DE9B68B603C24791418-2025-08-18-20-27-31","[{""page_index"":0,""viewing_time"":5150},{""page_index"":1,""viewing_time"":5117}]","10267","","","","",""
"","","","","","image-button-response","8","75025","0.0-6.0-0.0","A07C19884DD34DE9B68B603C24791418","A07C19884DD34DE9B68B603C24791418","0198be8f-6a56-7fea-b704-5126c35c817d","0198be8b-78cf-72d2-ba2b-1e62c78022e0","{""num_scrambled_semantic"":""8"",""num_scrambled_causal"":""4"",""num_scrambled_schematic"":""4"",""participantId"":""A07C19884DD34DE9B68B603C24791418"",""assignmentId"":""0198be8f-6a56-7fea-b704-5126c35c817d"",""projectId"":""0198be8b-78cf-72d2-ba2b-1e62c78022e0""}","https://test12345.live/?num_scrambled_semantic=8&num_scrambled_causal=4&num_scrambled_schematic=4&participantId=A07C19884DD34DE9B68B603C24791418&assignmentId=0198be8f-6a56-7fea-b704-5126c35c817d&projectId=0198be8b-78cf-72d2-ba2b-1e62c78022e0","A07C19884DD34DE9B68B603C24791418-2025-08-18-20-27-31","","null","","images/instructions/movie_0.png","null","",""
"","","","","","image-button-response","9","79539","0.0-6.0-1.0-0.0","A07C19884DD34DE9B68B603C24791418","A07C19884DD34DE9B68B603C24791418","0198be8f-6a56-7fea-b704-5126c35c817d","0198be8b-78cf-72d2-ba2b-1e62c78022e0","{""num_scrambled_semantic"":""8"",""num_scrambled_causal"":""4"",""num_scrambled_schematic"":""4"",""participantId"":""A07C19884DD34DE9B68B603C24791418"",""assignmentId"":""0198be8f-6a56-7fea-b704-5126c35c817d"",""projectId"":""0198be8b-78cf-72d2-ba2b-1e62c78022e0""}","https://test12345.live/?num_scrambled_semantic=8&num_scrambled_causal=4&num_scrambled_schematic=4&participantId=A07C19884DD34DE9B68B603C24791418&assignmentId=0198be8f-6a56-7fea-b704-5126c35c817d&projectId=0198be8b-78cf-72d2-ba2b-1e62c78022e0","A07C19884DD34DE9B68B603C24791418-2025-08-18-20-27-31","","null","","images/instructions/movie_1.png","null","",""
"","","","","","image-button-response","10","83549","0.0-6.0-1.0-1.0","A07C19884DD34DE9B68B603C24791418","A07C19884DD34DE9B68B603C24791418","0198be8f-6a56-7fea-b704-5126c35c817d","0198be8b-78cf-72d2-ba2b-1e62c78022e0","{""num_scrambled_semantic"":""8"",""num_scrambled_causal"":""4"",""num_scrambled_schematic"":""4"",""participantId"":""A07C19884DD34DE9B68B603C24791418"",""assignmentId"":""0198be8f-6a56-7fea-b704-5126c35c817d"",""projectId"":""0198be8b-78cf-72d2-ba2b-1e62c78022e0""}","https://test12345.live/?num_scrambled_semantic=8&num_scrambled_causal=4&num_scrambled_schematic=4&participantId=A07C19884DD34DE9B68B603C24791418&assignmentId=0198be8f-6a56-7fea-b704-5126c35c817d&projectId=0198be8b-78cf-72d2-ba2b-1e62c78022e0","A07C19884DD34DE9B68B603C24791418-2025-08-18-20-27-31","","null","","images/instructions/movie_1.png","null","",""
"","","","","","image-button-response","11","85358","0.0-6.0-1.0-2.0","A07C19884DD34DE9B68B603C24791418","A07C19884DD34DE9B68B603C24791418","0198be8f-6a56-7fea-b704-5126c35c817d","0198be8b-78cf-72d2-ba2b-1e62c78022e0","{""num_scrambled_semantic"":""8"",""num_scrambled_causal"":""4"",""num_scrambled_schematic"":""4"",""participantId"":""A07C19884DD34DE9B68B603C24791418"",""assignmentId"":""0198be8f-6a56-7fea-b704-5126c35c817d"",""projectId"":""0198be8b-78cf-72d2-ba2b-1e62c78022e0""}","https://test12345.live/?num_scrambled_semantic=8&num_scrambled_causal=4&num_scrambled_schematic=4&participantId=A07C19884DD34DE9B68B603C24791418&assignmentId=0198be8f-6a56-7fea-b704-5126c35c817d&projectId=0198be8b-78cf-72d2-ba2b-1e62c78022e0","A07C19884DD34DE9B68B603C24791418-2025-08-18-20-27-31","","null","","[]","null","",""
"","","","","","image-button-response","12","89874","0.0-6.0-1.0-0.1","A07C19884DD34DE9B68B603C24791418","A07C19884DD34DE9B68B603C24791418","0198be8f-6a56-7fea-b704-5126c35c817d","0198be8b-78cf-72d2-ba2b-1e62c78022e0","{""num_scrambled_semantic"":""8"",""num_scrambled_causal"":""4"",""num_scrambled_schematic"":""4"",""participantId"":""A07C19884DD34DE9B68B603C24791418"",""assignmentId"":""0198be8f-6a56-7fea-b704-5126c35c817d"",""projectId"":""0198be8b-78cf-72d2-ba2b-1e62c78022e0""}","https://test12345.live/?num_scrambled_semantic=8&num_scrambled_causal=4&num_scrambled_schematic=4&participantId=A07C19884DD34DE9B68B603C24791418&assignmentId=0198be8f-6a56-7fea-b704-5126c35c817d&projectId=0198be8b-78cf-72d2-ba2b-1e62c78022e0","A07C19884DD34DE9B68B603C24791418-2025-08-18-20-27-31","","null","","images/instructions/movie_2.png","null","",""
"","","","","","image-button-response","13","91427","0.0-6.0-1.0-1.1","A07C19884DD34DE9B68B603C24791418","A07C19884DD34DE9B68B603C24791418","0198be8f-6a56-7fea-b704-5126c35c817d","0198be8b-78cf-72d2-ba2b-1e62c78022e0","{""num_scrambled_semantic"":""8"",""num_scrambled_causal"":""4"",""num_scrambled_schematic"":""4"",""participantId"":""A07C19884DD34DE9B68B603C24791418"",""assignmentId"":""0198be8f-6a56-7fea-b704-5126c35c817d"",""projectId"":""0198be8b-78cf-72d2-ba2b-1e62c78022e0""}","https://test12345.live/?num_scrambled_semantic=8&num_scrambled_causal=4&num_scrambled_schematic=4&participantId=A07C19884DD34DE9B68B603C24791418&assignmentId=0198be8f-6a56-7fea-b704-5126c35c817d&projectId=0198be8b-78cf-72d2-ba2b-1e62c78022e0","A07C19884DD34DE9B68B603C24791418-2025-08-18-20-27-31","","1552","","images/instructions/movie_2.png","1","",""
"","","","","","image-button-response","14","93245","0.0-6.0-1.0-2.1","A07C19884DD34DE9B68B603C24791418","A07C19884DD34DE9B68B603C24791418","0198be8f-6a56-7fea-b704-5126c35c817d","0198be8b-78cf-72d2-ba2b-1e62c78022e0","{""num_scrambled_semantic"":""8"",""num_scrambled_causal"":""4"",""num_scrambled_schematic"":""4"",""participantId"":""A07C19884DD34DE9B68B603C24791418"",""assignmentId"":""0198be8f-6a56-7fea-b704-5126c35c817d"",""projectId"":""0198be8b-78cf-72d2-ba2b-1e62c78022e0""}","https://test12345.live/?num_scrambled_semantic=8&num_scrambled_causal=4&num_scrambled_schematic=4&participantId=A07C19884DD34DE9B68B603C24791418&assignmentId=0198be8f-6a56-7fea-b704-5126c35c817d&projectId=0198be8b-78cf-72d2-ba2b-1e62c78022e0","A07C19884DD34DE9B68B603C24791418-2025-08-18-20-27-31","","null","","[]","null","",""
"","","","","","image-button-response","15","97759","0.0-6.0-1.0-0.2","A07C19884DD34DE9B68B603C24791418","A07C19884DD34DE9B68B603C24791418","0198be8f-6a56-7fea-b704-5126c35c817d","0198be8b-78cf-72d2-ba2b-1e62c78022e0","{""num_scrambled_semantic"":""8"",""num_scrambled_causal"":""4"",""num_scrambled_schematic"":""4"",""participantId"":""A07C19884DD34DE9B68B603C24791418"",""assignmentId"":""0198be8f-6a56-7fea-b704-5126c35c817d"",""projectId"":""0198be8b-78cf-72d2-ba2b-1e62c78022e0""}","https://test12345.live/?num_scrambled_semantic=8&num_scrambled_causal=4&num_scrambled_schematic=4&participantId=A07C19884DD34DE9B68B603C24791418&assignmentId=0198be8f-6a56-7fea-b704-5126c35c817d&projectId=0198be8b-78cf-72d2-ba2b-1e62c78022e0","A07C19884DD34DE9B68B603C24791418-2025-08-18-20-27-31","","null","","images/instructions/movie_3.png","null","",""
"","","","","","image-button-response","16","99282","0.0-6.0-1.0-1.2","A07C19884DD34DE9B68B603C24791418","A07C19884DD34DE9B68B603C24791418","0198be8f-6a56-7fea-b704-5126c35c817d","0198be8b-78cf-72d2-ba2b-1e62c78022e0","{""num_scrambled_semantic"":""8"",""num_scrambled_causal"":""4"",""num_scrambled_schematic"":""4"",""participantId"":""A07C19884DD34DE9B68B603C24791418"",""assignmentId"":""0198be8f-6a56-7fea-b704-5126c35c817d"",""projectId"":""0198be8b-78cf-72d2-ba2b-1e62c78022e0""}","https://test12345.live/?num_scrambled_semantic=8&num_scrambled_causal=4&num_scrambled_schematic=4&participantId=A07C19884DD34DE9B68B603C24791418&assignmentId=0198be8f-6a56-7fea-b704-5126c35c817d&projectId=0198be8b-78cf-72d2-ba2b-1e62c78022e0","A07C19884DD34DE9B68B603C24791418-2025-08-18-20-27-31","","1522","","images/instructions/movie_3.png","0","",""
"","","","","","image-button-response","17","101094","0.0-6.0-1.0-2.2","A07C19884DD34DE9B68B603C24791418","A07C19884DD34DE9B68B603C24791418","0198be8f-6a56-7fea-b704-5126c35c817d","0198be8b-78cf-72d2-ba2b-1e62c78022e0","{""num_scrambled_semantic"":""8"",""num_scrambled_causal"":""4"",""num_scrambled_schematic"":""4"",""participantId"":""A07C19884DD34DE9B68B603C24791418"",""assignmentId"":""0198be8f-6a56-7fea-b704-5126c35c817d"",""projectId"":""0198be8b-78cf-72d2-ba2b-1e62c78022e0""}","https://test12345.live/?num_scrambled_semantic=8&num_scrambled_causal=4&num_scrambled_schematic=4&participantId=A07C19884DD34DE9B68B603C24791418&assignmentId=0198be8f-6a56-7fea-b704-5126c35c817d&projectId=0198be8b-78cf-72d2-ba2b-1e62c78022e0","A07C19884DD34DE9B68B603C24791418-2025-08-18-20-27-31","","null","","[]","null","",""
"","","","","","image-button-response","18","105610","0.0-6.0-1.0-0.3","A07C19884DD34DE9B68B603C24791418","A07C19884DD34DE9B68B603C24791418","0198be8f-6a56-7fea-b704-5126c35c817d","0198be8b-78cf-72d2-ba2b-1e62c78022e0","{""num_scrambled_semantic"":""8"",""num_scrambled_causal"":""4"",""num_scrambled_schematic"":""4"",""participantId"":""A07C19884DD34DE9B68B603C24791418"",""assignmentId"":""0198be8f-6a56-7fea-b704-5126c35c817d"",""projectId"":""0198be8b-78cf-72d2-ba2b-1e62c78022e0""}","https://test12345.live/?num_scrambled_semantic=8&num_scrambled_causal=4&num_scrambled_schematic=4&participantId=A07C19884DD34DE9B68B603C24791418&assignmentId=0198be8f-6a56-7fea-b704-5126c35c817d&projectId=0198be8b-78cf-72d2-ba2b-1e62c78022e0","A07C19884DD34DE9B68B603C24791418-2025-08-18-20-27-31","","null","","images/instructions/movie_4.png","null","",""
"","","","","","image-button-response","19","107856","0.0-6.0-1.0-1.3","A07C19884DD34DE9B68B603C24791418","A07C19884DD34DE9B68B603C24791418","0198be8f-6a56-7fea-b704-5126c35c817d","0198be8b-78cf-72d2-ba2b-1e62c78022e0","{""num_scrambled_semantic"":""8"",""num_scrambled_causal"":""4"",""num_scrambled_schematic"":""4"",""participantId"":""A07C19884DD34DE9B68B603C24791418"",""assignmentId"":""0198be8f-6a56-7fea-b704-5126c35c817d"",""projectId"":""0198be8b-78cf-72d2-ba2b-1e62c78022e0""}","https://test12345.live/?num_scrambled_semantic=8&num_scrambled_causal=4&num_scrambled_schematic=4&participantId=A07C19884DD34DE9B68B603C24791418&assignmentId=0198be8f-6a56-7fea-b704-5126c35c817d&projectId=0198be8b-78cf-72d2-ba2b-1e62c78022e0","A07C19884DD34DE9B68B603C24791418-2025-08-18-20-27-31","","2244","","images/instructions/movie_4.png","0","",""
"","","","","","image-button-response","20","109664","0.0-6.0-1.0-2.3","A07C19884DD34DE9B68B603C24791418","A07C19884DD34DE9B68B603C24791418","0198be8f-6a56-7fea-b704-5126c35c817d","0198be8b-78cf-72d2-ba2b-1e62c78022e0","{""num_scrambled_semantic"":""8"",""num_scrambled_causal"":""4"",""num_scrambled_schematic"":""4"",""participantId"":""A07C19884DD34DE9B68B603C24791418"",""assignmentId"":""0198be8f-6a56-7fea-b704-5126c35c817d"",""projectId"":""0198be8b-78cf-72d2-ba2b-1e62c78022e0""}","https://test12345.live/?num_scrambled_semantic=8&num_scrambled_causal=4&num_scrambled_schematic=4&participantId=A07C19884DD34DE9B68B603C24791418&assignmentId=0198be8f-6a56-7fea-b704-5126c35c817d&projectId=0198be8b-78cf-72d2-ba2b-1e62c78022e0","A07C19884DD34DE9B68B603C24791418-2025-08-18-20-27-31","","null","","[]","null","",""
"","","","","","instructions","21","116300","0.0-7.0","A07C19884DD34DE9B68B603C24791418","A07C19884DD34DE9B68B603C24791418","0198be8f-6a56-7fea-b704-5126c35c817d","0198be8b-78cf-72d2-ba2b-1e62c78022e0","{""num_scrambled_semantic"":""8"",""num_scrambled_causal"":""4"",""num_scrambled_schematic"":""4"",""participantId"":""A07C19884DD34DE9B68B603C24791418"",""assignmentId"":""0198be8f-6a56-7fea-b704-5126c35c817d"",""projectId"":""0198be8b-78cf-72d2-ba2b-1e62c78022e0""}","https://test12345.live/?num_scrambled_semantic=8&num_scrambled_causal=4&num_scrambled_schematic=4&participantId=A07C19884DD34DE9B68B603C24791418&assignmentId=0198be8f-6a56-7fea-b704-5126c35c817d&projectId=0198be8b-78cf-72d2-ba2b-1e62c78022e0","A07C19884DD34DE9B68B603C24791418-2025-08-18-20-27-31","[{""page_index"":0,""viewing_time"":6635}]","6636","","","","",""
"","","","","","html-audio-response","22","150651","0.0-8.0","A07C19884DD34DE9B68B603C24791418","A07C19884DD34DE9B68B603C24791418","0198be8f-6a56-7fea-b704-5126c35c817d","0198be8b-78cf-72d2-ba2b-1e62c78022e0","{""num_scrambled_semantic"":""8"",""num_scrambled_causal"":""4"",""num_scrambled_schematic"":""4"",""participantId"":""A07C19884DD34DE9B68B603C24791418"",""assignmentId"":""0198be8f-6a56-7fea-b704-5126c35c817d"",""projectId"":""0198be8b-78cf-72d2-ba2b-1e62c78022e0""}","https://test12345.live/?num_scrambled_semantic=8&num_scrambled_causal=4&num_scrambled_schematic=4&participantId=A07C19884DD34DE9B68B603C24791418&assignmentId=0198be8f-6a56-7fea-b704-5126c35c817d&projectId=0198be8b-78cf-72d2-ba2b-1e62c78022e0","A07C19884DD34DE9B68B603C24791418-2025-08-18-20-27-31","","24428","","[""<span style=\""color: red; font-size: 24px\""> NOW RECORDING</span><p>Please say out loud all the images you saw, in the order of the story they create. Try to recall the sequence of events as they appeared in the story, not necessarily the order they were presented on the screen.</p>""]","","2",""
"","","","","","instructions","23","153015","0.0-9.0","A07C19884DD34DE9B68B603C24791418","A07C19884DD34DE9B68B603C24791418","0198be8f-6a56-7fea-b704-5126c35c817d","0198be8b-78cf-72d2-ba2b-1e62c78022e0","{""num_scrambled_semantic"":""8"",""num_scrambled_causal"":""4"",""num_scrambled_schematic"":""4"",""participantId"":""A07C19884DD34DE9B68B603C24791418"",""assignmentId"":""0198be8f-6a56-7fea-b704-5126c35c817d"",""projectId"":""0198be8b-78cf-72d2-ba2b-1e62c78022e0""}","https://test12345.live/?num_scrambled_semantic=8&num_scrambled_causal=4&num_scrambled_schematic=4&participantId=A07C19884DD34DE9B68B603C24791418&assignmentId=0198be8f-6a56-7fea-b704-5126c35c817d&projectId=0198be8b-78cf-72d2-ba2b-1e62c78022e0","A07C19884DD34DE9B68B603C24791418-2025-08-18-20-27-31","[{""page_index"":0,""viewing_time"":2356}]","2356","","","","",""
"","","","","","image-button-response","24","159016","0.0-10.0-0.0","A07C19884DD34DE9B68B603C24791418","A07C19884DD34DE9B68B603C24791418","0198be8f-6a56-7fea-b704-5126c35c817d","0198be8b-78cf-72d2-ba2b-1e62c78022e0","{""num_scrambled_semantic"":""8"",""num_scrambled_causal"":""4"",""num_scrambled_schematic"":""4"",""participantId"":""A07C19884DD34DE9B68B603C24791418"",""assignmentId"":""0198be8f-6a56-7fea-b704-5126c35c817d"",""projectId"":""0198be8b-78cf-72d2-ba2b-1e62c78022e0""}","https://test12345.live/?num_scrambled_semantic=8&num_scrambled_causal=4&num_scrambled_schematic=4&participantId=A07C19884DD34DE9B68B603C24791418&assignmentId=0198be8f-6a56-7fea-b704-5126c35c817d&projectId=0198be8b-78cf-72d2-ba2b-1e62c78022e0","A07C19884DD34DE9B68B603C24791418-2025-08-18-20-27-31","","null","","images/causal_sequence/saving_a_cat_causal/saving_a_cat_causal_0.png","null","",""
"","","","","","image-button-response","25","163532","0.0-10.0-1.0-0.0","A07C19884DD34DE9B68B603C24791418","A07C19884DD34DE9B68B603C24791418","0198be8f-6a56-7fea-b704-5126c35c817d","0198be8b-78cf-72d2-ba2b-1e62c78022e0","{""num_scrambled_semantic"":""8"",""num_scrambled_causal"":""4"",""num_scrambled_schematic"":""4"",""participantId"":""A07C19884DD34DE9B68B603C24791418"",""assignmentId"":""0198be8f-6a56-7fea-b704-5126c35c817d"",""projectId"":""0198be8b-78cf-72d2-ba2b-1e62c78022e0""}","https://test12345.live/?num_scrambled_semantic=8&num_scrambled_causal=4&num_scrambled_schematic=4&participantId=A07C19884DD34DE9B68B603C24791418&assignmentId=0198be8f-6a56-7fea-b704-5126c35c817d&projectId=0198be8b-78cf-72d2-ba2b-1e62c78022e0","A07C19884DD34DE9B68B603C24791418-2025-08-18-20-27-31","","null","","images/causal_sequence/saving_a_cat_causal/saving_a_cat_causal_ten.png","null","",""
"","","","","","image-button-response","26","165154","0.0-10.0-1.0-1.0","A07C19884DD34DE9B68B603C24791418","A07C19884DD34DE9B68B603C24791418","0198be8f-6a56-7fea-b704-5126c35c817d","0198be8b-78cf-72d2-ba2b-1e62c78022e0","{""num_scrambled_semantic"":""8"",""num_scrambled_causal"":""4"",""num_scrambled_schematic"":""4"",""participantId"":""A07C19884DD34DE9B68B603C24791418"",""assignmentId"":""0198be8f-6a56-7fea-b704-5126c35c817d"",""projectId"":""0198be8b-78cf-72d2-ba2b-1e62c78022e0""}","https://test12345.live/?num_scrambled_semantic=8&num_scrambled_causal=4&num_scrambled_schematic=4&participantId=A07C19884DD34DE9B68B603C24791418&assignmentId=0198be8f-6a56-7fea-b704-5126c35c817d&projectId=0198be8b-78cf-72d2-ba2b-1e62c78022e0","A07C19884DD34DE9B68B603C24791418-2025-08-18-20-27-31","","1620","","images/causal_sequence/saving_a_cat_causal/saving_a_cat_causal_ten.png","0","",""
"","","","","","image-button-response","27","166964","0.0-10.0-1.0-2.0","A07C19884DD34DE9B68B603C24791418","A07C19884DD34DE9B68B603C24791418","0198be8f-6a56-7fea-b704-5126c35c817d","0198be8b-78cf-72d2-ba2b-1e62c78022e0","{""num_scrambled_semantic"":""8"",""num_scrambled_causal"":""4"",""num_scrambled_schematic"":""4"",""participantId"":""A07C19884DD34DE9B68B603C24791418"",""assignmentId"":""0198be8f-6a56-7fea-b704-5126c35c817d"",""projectId"":""0198be8b-78cf-72d2-ba2b-1e62c78022e0""}","https://test12345.live/?num_scrambled_semantic=8&num_scrambled_causal=4&num_scrambled_schematic=4&participantId=A07C19884DD34DE9B68B603C24791418&assignmentId=0198be8f-6a56-7fea-b704-5126c35c817d&projectId=0198be8b-78cf-72d2-ba2b-1e62c78022e0","A07C19884DD34DE9B68B603C24791418-2025-08-18-20-27-31","","null","","[]","null","",""
"","","","","","image-button-response","28","171479","0.0-10.0-1.0-0.1","A07C19884DD34DE9B68B603C24791418","A07C19884DD34DE9B68B603C24791418","0198be8f-6a56-7fea-b704-5126c35c817d","0198be8b-78cf-72d2-ba2b-1e62c78022e0","{""num_scrambled_semantic"":""8"",""num_scrambled_causal"":""4"",""num_scrambled_schematic"":""4"",""participantId"":""A07C19884DD34DE9B68B603C24791418"",""assignmentId"":""0198be8f-6a56-7fea-b704-5126c35c817d"",""projectId"":""0198be8b-78cf-72d2-ba2b-1e62c78022e0""}","https://test12345.live/?num_scrambled_semantic=8&num_scrambled_causal=4&num_scrambled_schematic=4&participantId=A07C19884DD34DE9B68B603C24791418&assignmentId=0198be8f-6a56-7fea-b704-5126c35c817d&projectId=0198be8b-78cf-72d2-ba2b-1e62c78022e0","A07C19884DD34DE9B68B603C24791418-2025-08-18-20-27-31","","null","","images/causal_sequence/saving_a_cat_causal/saving_a_cat_causal_7.png","null","",""
"","","","","","image-button-response","29","172757","0.0-10.0-1.0-1.1","A07C19884DD34DE9B68B603C24791418","A07C19884DD34DE9B68B603C24791418","0198be8f-6a56-7fea-b704-5126c35c817d","0198be8b-78cf-72d2-ba2b-1e62c78022e0","{""num_scrambled_semantic"":""8"",""num_scrambled_causal"":""4"",""num_scrambled_schematic"":""4"",""participantId"":""A07C19884DD34DE9B68B603C24791418"",""assignmentId"":""0198be8f-6a56-7fea-b704-5126c35c817d"",""projectId"":""0198be8b-78cf-72d2-ba2b-1e62c78022e0""}","https://test12345.live/?num_scrambled_semantic=8&num_scrambled_causal=4&num_scrambled_schematic=4&participantId=A07C19884DD34DE9B68B603C24791418&assignmentId=0198be8f-6a56-7fea-b704-5126c35c817d&projectId=0198be8b-78cf-72d2-ba2b-1e62c78022e0","A07C19884DD34DE9B68B603C24791418-2025-08-18-20-27-31","","1277","","images/causal_sequence/saving_a_cat_causal/saving_a_cat_causal_7.png","0","",""
"","","","","","image-button-response","30","174570","0.0-10.0-1.0-2.1","A07C19884DD34DE9B68B603C24791418","A07C19884DD34DE9B68B603C24791418","0198be8f-6a56-7fea-b704-5126c35c817d","0198be8b-78cf-72d2-ba2b-1e62c78022e0","{""num_scrambled_semantic"":""8"",""num_scrambled_causal"":""4"",""num_scrambled_schematic"":""4"",""participantId"":""A07C19884DD34DE9B68B603C24791418"",""assignmentId"":""0198be8f-6a56-7fea-b704-5126c35c817d"",""projectId"":""0198be8b-78cf-72d2-ba2b-1e62c78022e0""}","https://test12345.live/?num_scrambled_semantic=8&num_scrambled_causal=4&num_scrambled_schematic=4&participantId=A07C19884DD34DE9B68B603C24791418&assignmentId=0198be8f-6a56-7fea-b704-5126c35c817d&projectId=0198be8b-78cf-72d2-ba2b-1e62c78022e0","A07C19884DD34DE9B68B603C24791418-2025-08-18-20-27-31","","null","","[]","null","",""
"","","","","","image-button-response","31","179078","0.0-10.0-1.0-0.2","A07C19884DD34DE9B68B603C24791418","A07C19884DD34DE9B68B603C24791418","0198be8f-6a56-7fea-b704-5126c35c817d","0198be8b-78cf-72d2-ba2b-1e62c78022e0","{""num_scrambled_semantic"":""8"",""num_scrambled_causal"":""4"",""num_scrambled_schematic"":""4"",""participantId"":""A07C19884DD34DE9B68B603C24791418"",""assignmentId"":""0198be8f-6a56-7fea-b704-5126c35c817d"",""projectId"":""0198be8b-78cf-72d2-ba2b-1e62c78022e0""}","https://test12345.live/?num_scrambled_semantic=8&num_scrambled_causal=4&num_scrambled_schematic=4&participantId=A07C19884DD34DE9B68B603C24791418&assignmentId=0198be8f-6a56-7fea-b704-5126c35c817d&projectId=0198be8b-78cf-72d2-ba2b-1e62c78022e0","A07C19884DD34DE9B68B603C24791418-2025-08-18-20-27-31","","null","","images/causal_sequence/saving_a_cat_causal/saving_a_cat_causal_9.png","null","",""
"","","","","","image-button-response","32","180125","0.0-10.0-1.0-1.2","A07C19884DD34DE9B68B603C24791418","A07C19884DD34DE9B68B603C24791418","0198be8f-6a56-7fea-b704-5126c35c817d","0198be8b-78cf-72d2-ba2b-1e62c78022e0","{""num_scrambled_semantic"":""8"",""num_scrambled_causal"":""4"",""num_scrambled_schematic"":""4"",""participantId"":""A07C19884DD34DE9B68B603C24791418"",""assignmentId"":""0198be8f-6a56-7fea-b704-5126c35c817d"",""projectId"":""0198be8b-78cf-72d2-ba2b-1e62c78022e0""}","https://test12345.live/?num_scrambled_semantic=8&num_scrambled_causal=4&num_scrambled_schematic=4&participantId=A07C19884DD34DE9B68B603C24791418&assignmentId=0198be8f-6a56-7fea-b704-5126c35c817d&projectId=0198be8b-78cf-72d2-ba2b-1e62c78022e0","A07C19884DD34DE9B68B603C24791418-2025-08-18-20-27-31","","1046","","images/causal_sequence/saving_a_cat_causal/saving_a_cat_causal_9.png","0","",""
"","","","","","image-button-response","33","181933","0.0-10.0-1.0-2.2","A07C19884DD34DE9B68B603C24791418","A07C19884DD34DE9B68B603C24791418","0198be8f-6a56-7fea-b704-5126c35c817d","0198be8b-78cf-72d2-ba2b-1e62c78022e0","{""num_scrambled_semantic"":""8"",""num_scrambled_causal"":""4"",""num_scrambled_schematic"":""4"",""participantId"":""A07C19884DD34DE9B68B603C24791418"",""assignmentId"":""0198be8f-6a56-7fea-b704-5126c35c817d"",""projectId"":""0198be8b-78cf-72d2-ba2b-1e62c78022e0""}","https://test12345.live/?num_scrambled_semantic=8&num_scrambled_causal=4&num_scrambled_schematic=4&participantId=A07C19884DD34DE9B68B603C24791418&assignmentId=0198be8f-6a56-7fea-b704-5126c35c817d&projectId=0198be8b-78cf-72d2-ba2b-1e62c78022e0","A07C19884DD34DE9B68B603C24791418-2025-08-18-20-27-31","","null","","[]","null","",""
"","","","","","image-button-response","34","186449","0.0-10.0-1.0-0.3","A07C19884DD34DE9B68B603C24791418","A07C19884DD34DE9B68B603C24791418","0198be8f-6a56-7fea-b704-5126c35c817d","0198be8b-78cf-72d2-ba2b-1e62c78022e0","{""num_scrambled_semantic"":""8"",""num_scrambled_causal"":""4"",""num_scrambled_schematic"":""4"",""participantId"":""A07C19884DD34DE9B68B603C24791418"",""assignmentId"":""0198be8f-6a56-7fea-b704-5126c35c817d"",""projectId"":""0198be8b-78cf-72d2-ba2b-1e62c78022e0""}","https://test12345.live/?num_scrambled_semantic=8&num_scrambled_causal=4&num_scrambled_schematic=4&participantId=A07C19884DD34DE9B68B603C24791418&assignmentId=0198be8f-6a56-7fea-b704-5126c35c817d&projectId=0198be8b-78cf-72d2-ba2b-1e62c78022e0","A07C19884DD34DE9B68B603C24791418-2025-08-18-20-27-31","","null","","images/causal_sequence/saving_a_cat_causal/saving_a_cat_causal_1.png","null","",""
"","","","","","image-button-response","35","187778","0.0-10.0-1.0-1.3","A07C19884DD34DE9B68B603C24791418","A07C19884DD34DE9B68B603C24791418","0198be8f-6a56-7fea-b704-5126c35c817d","0198be8b-78cf-72d2-ba2b-1e62c78022e0","{""num_scrambled_semantic"":""8"",""num_scrambled_causal"":""4"",""num_scrambled_schematic"":""4"",""participantId"":""A07C19884DD34DE9B68B603C24791418"",""assignmentId"":""0198be8f-6a56-7fea-b704-5126c35c817d"",""projectId"":""0198be8b-78cf-72d2-ba2b-1e62c78022e0""}","https://test12345.live/?num_scrambled_semantic=8&num_scrambled_causal=4&num_scrambled_schematic=4&participantId=A07C19884DD34DE9B68B603C24791418&assignmentId=0198be8f-6a56-7fea-b704-5126c35c817d&projectId=0198be8b-78cf-72d2-ba2b-1e62c78022e0","A07C19884DD34DE9B68B603C24791418-2025-08-18-20-27-31","","1327","","images/causal_sequence/saving_a_cat_causal/saving_a_cat_causal_1.png","0","",""
"","","","","","image-button-response","36","189589","0.0-10.0-1.0-2.3","A07C19884DD34DE9B68B603C24791418","A07C19884DD34DE9B68B603C24791418","0198be8f-6a56-7fea-b704-5126c35c817d","0198be8b-78cf-72d2-ba2b-1e62c78022e0","{""num_scrambled_semantic"":""8"",""num_scrambled_causal"":""4"",""num_scrambled_schematic"":""4"",""participantId"":""A07C19884DD34DE9B68B603C24791418"",""assignmentId"":""0198be8f-6a56-7fea-b704-5126c35c817d"",""projectId"":""0198be8b-78cf-72d2-ba2b-1e62c78022e0""}","https://test12345.live/?num_scrambled_semantic=8&num_scrambled_causal=4&num_scrambled_schematic=4&participantId=A07C19884DD34DE9B68B603C24791418&assignmentId=0198be8f-6a56-7fea-b704-5126c35c817d&projectId=0198be8b-78cf-72d2-ba2b-1e62c78022e0","A07C19884DD34DE9B68B603C24791418-2025-08-18-20-27-31","","null","","[]","null","",""
"","","","","","image-button-response","37","194090","0.0-10.0-1.0-0.4","A07C19884DD34DE9B68B603C24791418","A07C19884DD34DE9B68B603C24791418","0198be8f-6a56-7fea-b704-5126c35c817d","0198be8b-78cf-72d2-ba2b-1e62c78022e0","{""num_scrambled_semantic"":""8"",""num_scrambled_causal"":""4"",""num_scrambled_schematic"":""4"",""participantId"":""A07C19884DD34DE9B68B603C24791418"",""assignmentId"":""0198be8f-6a56-7fea-b704-5126c35c817d"",""projectId"":""0198be8b-78cf-72d2-ba2b-1e62c78022e0""}","https://test12345.live/?num_scrambled_semantic=8&num_scrambled_causal=4&num_scrambled_schematic=4&participantId=A07C19884DD34DE9B68B603C24791418&assignmentId=0198be8f-6a56-7fea-b704-5126c35c817d&projectId=0198be8b-78cf-72d2-ba2b-1e62c78022e0","A07C19884DD34DE9B68B603C24791418-2025-08-18-20-27-31","","null","","images/causal_sequence/saving_a_cat_causal/saving_a_cat_causal_6.png","null","",""
"","","","","","image-button-response","38","195244","0.0-10.0-1.0-1.4","A07C19884DD34DE9B68B603C24791418","A07C19884DD34DE9B68B603C24791418","0198be8f-6a56-7fea-b704-5126c35c817d","0198be8b-78cf-72d2-ba2b-1e62c78022e0","{""num_scrambled_semantic"":""8"",""num_scrambled_causal"":""4"",""num_scrambled_schematic"":""4"",""participantId"":""A07C19884DD34DE9B68B603C24791418"",""assignmentId"":""0198be8f-6a56-7fea-b704-5126c35c817d"",""projectId"":""0198be8b-78cf-72d2-ba2b-1e62c78022e0""}","https://test12345.live/?num_scrambled_semantic=8&num_scrambled_causal=4&num_scrambled_schematic=4&participantId=A07C19884DD34DE9B68B603C24791418&assignmentId=0198be8f-6a56-7fea-b704-5126c35c817d&projectId=0198be8b-78cf-72d2-ba2b-1e62c78022e0","A07C19884DD34DE9B68B603C24791418-2025-08-18-20-27-31","","1152","","images/causal_sequence/saving_a_cat_causal/saving_a_cat_causal_6.png","0","",""
"","","","","","image-button-response","39","197058","0.0-10.0-1.0-2.4","A07C19884DD34DE9B68B603C24791418","A07C19884DD34DE9B68B603C24791418","0198be8f-6a56-7fea-b704-5126c35c817d","0198be8b-78cf-72d2-ba2b-1e62c78022e0","{""num_scrambled_semantic"":""8"",""num_scrambled_causal"":""4"",""num_scrambled_schematic"":""4"",""participantId"":""A07C19884DD34DE9B68B603C24791418"",""assignmentId"":""0198be8f-6a56-7fea-b704-5126c35c817d"",""projectId"":""0198be8b-78cf-72d2-ba2b-1e62c78022e0""}","https://test12345.live/?num_scrambled_semantic=8&num_scrambled_causal=4&num_scrambled_schematic=4&participantId=A07C19884DD34DE9B68B603C24791418&assignmentId=0198be8f-6a56-7fea-b704-5126c35c817d&projectId=0198be8b-78cf-72d2-ba2b-1e62c78022e0","A07C19884DD34DE9B68B603C24791418-2025-08-18-20-27-31","","null","","[]","null","",""
"","","","","","image-button-response","40","201566","0.0-10.0-1.0-0.5","A07C19884DD34DE9B68B603C24791418","A07C19884DD34DE9B68B603C24791418","0198be8f-6a56-7fea-b704-5126c35c817d","0198be8b-78cf-72d2-ba2b-1e62c78022e0","{""num_scrambled_semantic"":""8"",""num_scrambled_causal"":""4"",""num_scrambled_schematic"":""4"",""participantId"":""A07C19884DD34DE9B68B603C24791418"",""assignmentId"":""0198be8f-6a56-7fea-b704-5126c35c817d"",""projectId"":""0198be8b-78cf-72d2-ba2b-1e62c78022e0""}","https://test12345.live/?num_scrambled_semantic=8&num_scrambled_causal=4&num_scrambled_schematic=4&participantId=A07C19884DD34DE9B68B603C24791418&assignmentId=0198be8f-6a56-7fea-b704-5126c35c817d&projectId=0198be8b-78cf-72d2-ba2b-1e62c78022e0","A07C19884DD34DE9B68B603C24791418-2025-08-18-20-27-31","","null","","images/causal_sequence/saving_a_cat_causal/saving_a_cat_causal_4.png","null","",""
"","","","","","image-button-response","41","202977","0.0-10.0-1.0-1.5","A07C19884DD34DE9B68B603C24791418","A07C19884DD34DE9B68B603C24791418","0198be8f-6a56-7fea-b704-5126c35c817d","0198be8b-78cf-72d2-ba2b-1e62c78022e0","{""num_scrambled_semantic"":""8"",""num_scrambled_causal"":""4"",""num_scrambled_schematic"":""4"",""participantId"":""A07C19884DD34DE9B68B603C24791418"",""assignmentId"":""0198be8f-6a56-7fea-b704-5126c35c817d"",""projectId"":""0198be8b-78cf-72d2-ba2b-1e62c78022e0""}","https://test12345.live/?num_scrambled_semantic=8&num_scrambled_causal=4&num_scrambled_schematic=4&participantId=A07C19884DD34DE9B68B603C24791418&assignmentId=0198be8f-6a56-7fea-b704-5126c35c817d&projectId=0198be8b-78cf-72d2-ba2b-1e62c78022e0","A07C19884DD34DE9B68B603C24791418-2025-08-18-20-27-31","","1403","","images/causal_sequence/saving_a_cat_causal/saving_a_cat_causal_4.png","0","",""
"","","","","","image-button-response","42","204793","0.0-10.0-1.0-2.5","A07C19884DD34DE9B68B603C24791418","A07C19884DD34DE9B68B603C24791418","0198be8f-6a56-7fea-b704-5126c35c817d","0198be8b-78cf-72d2-ba2b-1e62c78022e0","{""num_scrambled_semantic"":""8"",""num_scrambled_causal"":""4"",""num_scrambled_schematic"":""4"",""participantId"":""A07C19884DD34DE9B68B603C24791418"",""assignmentId"":""0198be8f-6a56-7fea-b704-5126c35c817d"",""projectId"":""0198be8b-78cf-72d2-ba2b-1e62c78022e0""}","https://test12345.live/?num_scrambled_semantic=8&num_scrambled_causal=4&num_scrambled_schematic=4&participantId=A07C19884DD34DE9B68B603C24791418&assignmentId=0198be8f-6a56-7fea-b704-5126c35c817d&projectId=0198be8b-78cf-72d2-ba2b-1e62c78022e0","A07C19884DD34DE9B68B603C24791418-2025-08-18-20-27-31","","null","","[]","null","",""
"","","","","","image-button-response","43","209301","0.0-10.0-1.0-0.6","A07C19884DD34DE9B68B603C24791418","A07C19884DD34DE9B68B603C24791418","0198be8f-6a56-7fea-b704-5126c35c817d","0198be8b-78cf-72d2-ba2b-1e62c78022e0","{""num_scrambled_semantic"":""8"",""num_scrambled_causal"":""4"",""num_scrambled_schematic"":""4"",""participantId"":""A07C19884DD34DE9B68B603C24791418"",""assignmentId"":""0198be8f-6a56-7fea-b704-5126c35c817d"",""projectId"":""0198be8b-78cf-72d2-ba2b-1e62c78022e0""}","https://test12345.live/?num_scrambled_semantic=8&num_scrambled_causal=4&num_scrambled_schematic=4&participantId=A07C19884DD34DE9B68B603C24791418&assignmentId=0198be8f-6a56-7fea-b704-5126c35c817d&projectId=0198be8b-78cf-72d2-ba2b-1e62c78022e0","A07C19884DD34DE9B68B603C24791418-2025-08-18-20-27-31","","null","","images/causal_sequence/saving_a_cat_causal/saving_a_cat_causal_3.png","null","",""
"","","","","","image-button-response","44","211611","0.0-10.0-1.0-1.6","A07C19884DD34DE9B68B603C24791418","A07C19884DD34DE9B68B603C24791418","0198be8f-6a56-7fea-b704-5126c35c817d","0198be8b-78cf-72d2-ba2b-1e62c78022e0","{""num_scrambled_semantic"":""8"",""num_scrambled_causal"":""4"",""num_scrambled_schematic"":""4"",""participantId"":""A07C19884DD34DE9B68B603C24791418"",""assignmentId"":""0198be8f-6a56-7fea-b704-5126c35c817d"",""projectId"":""0198be8b-78cf-72d2-ba2b-1e62c78022e0""}","https://test12345.live/?num_scrambled_semantic=8&num_scrambled_causal=4&num_scrambled_schematic=4&participantId=A07C19884DD34DE9B68B603C24791418&assignmentId=0198be8f-6a56-7fea-b704-5126c35c817d&projectId=0198be8b-78cf-72d2-ba2b-1e62c78022e0","A07C19884DD34DE9B68B603C24791418-2025-08-18-20-27-31","","2308","","images/causal_sequence/saving_a_cat_causal/saving_a_cat_causal_3.png","1","",""
"","","","","","image-button-response","45","213417","0.0-10.0-1.0-2.6","A07C19884DD34DE9B68B603C24791418","A07C19884DD34DE9B68B603C24791418","0198be8f-6a56-7fea-b704-5126c35c817d","0198be8b-78cf-72d2-ba2b-1e62c78022e0","{""num_scrambled_semantic"":""8"",""num_scrambled_causal"":""4"",""num_scrambled_schematic"":""4"",""participantId"":""A07C19884DD34DE9B68B603C24791418"",""assignmentId"":""0198be8f-6a56-7fea-b704-5126c35c817d"",""projectId"":""0198be8b-78cf-72d2-ba2b-1e62c78022e0""}","https://test12345.live/?num_scrambled_semantic=8&num_scrambled_causal=4&num_scrambled_schematic=4&participantId=A07C19884DD34DE9B68B603C24791418&assignmentId=0198be8f-6a56-7fea-b704-5126c35c817d&projectId=0198be8b-78cf-72d2-ba2b-1e62c78022e0","A07C19884DD34DE9B68B603C24791418-2025-08-18-20-27-31","","null","","[]","null","",""
"","","","","","image-button-response","46","217923","0.0-10.0-1.0-0.7","A07C19884DD34DE9B68B603C24791418","A07C19884DD34DE9B68B603C24791418","0198be8f-6a56-7fea-b704-5126c35c817d","0198be8b-78cf-72d2-ba2b-1e62c78022e0","{""num_scrambled_semantic"":""8"",""num_scrambled_causal"":""4"",""num_scrambled_schematic"":""4"",""participantId"":""A07C19884DD34DE9B68B603C24791418"",""assignmentId"":""0198be8f-6a56-7fea-b704-5126c35c817d"",""projectId"":""0198be8b-78cf-72d2-ba2b-1e62c78022e0""}","https://test12345.live/?num_scrambled_semantic=8&num_scrambled_causal=4&num_scrambled_schematic=4&participantId=A07C19884DD34DE9B68B603C24791418&assignmentId=0198be8f-6a56-7fea-b704-5126c35c817d&projectId=0198be8b-78cf-72d2-ba2b-1e62c78022e0","A07C19884DD34DE9B68B603C24791418-2025-08-18-20-27-31","","null","","images/causal_sequence/saving_a_cat_causal/saving_a_cat_causal_2.png","null","",""
"","","","","","image-button-response","47","219208","0.0-10.0-1.0-1.7","A07C19884DD34DE9B68B603C24791418","A07C19884DD34DE9B68B603C24791418","0198be8f-6a56-7fea-b704-5126c35c817d","0198be8b-78cf-72d2-ba2b-1e62c78022e0","{""num_scrambled_semantic"":""8"",""num_scrambled_causal"":""4"",""num_scrambled_schematic"":""4"",""participantId"":""A07C19884DD34DE9B68B603C24791418"",""assignmentId"":""0198be8f-6a56-7fea-b704-5126c35c817d"",""projectId"":""0198be8b-78cf-72d2-ba2b-1e62c78022e0""}","https://test12345.live/?num_scrambled_semantic=8&num_scrambled_causal=4&num_scrambled_schematic=4&participantId=A07C19884DD34DE9B68B603C24791418&assignmentId=0198be8f-6a56-7fea-b704-5126c35c817d&projectId=0198be8b-78cf-72d2-ba2b-1e62c78022e0","A07C19884DD34DE9B68B603C24791418-2025-08-18-20-27-31","","1283","","images/causal_sequence/saving_a_cat_causal/saving_a_cat_causal_2.png","1","",""
"","","","","","image-button-response","48","221012","0.0-10.0-1.0-2.7","A07C19884DD34DE9B68B603C24791418","A07C19884DD34DE9B68B603C24791418","0198be8f-6a56-7fea-b704-5126c35c817d","0198be8b-78cf-72d2-ba2b-1e62c78022e0","{""num_scrambled_semantic"":""8"",""num_scrambled_causal"":""4"",""num_scrambled_schematic"":""4"",""participantId"":""A07C19884DD34DE9B68B603C24791418"",""assignmentId"":""0198be8f-6a56-7fea-b704-5126c35c817d"",""projectId"":""0198be8b-78cf-72d2-ba2b-1e62c78022e0""}","https://test12345.live/?num_scrambled_semantic=8&num_scrambled_causal=4&num_scrambled_schematic=4&participantId=A07C19884DD34DE9B68B603C24791418&assignmentId=0198be8f-6a56-7fea-b704-5126c35c817d&projectId=0198be8b-78cf-72d2-ba2b-1e62c78022e0","A07C19884DD34DE9B68B603C24791418-2025-08-18-20-27-31","","null","","[]","null","",""
"","","","","","image-button-response","49","225527","0.0-10.0-1.0-0.8","A07C19884DD34DE9B68B603C24791418","A07C19884DD34DE9B68B603C24791418","0198be8f-6a56-7fea-b704-5126c35c817d","0198be8b-78cf-72d2-ba2b-1e62c78022e0","{""num_scrambled_semantic"":""8"",""num_scrambled_causal"":""4"",""num_scrambled_schematic"":""4"",""participantId"":""A07C19884DD34DE9B68B603C24791418"",""assignmentId"":""0198be8f-6a56-7fea-b704-5126c35c817d"",""projectId"":""0198be8b-78cf-72d2-ba2b-1e62c78022e0""}","https://test12345.live/?num_scrambled_semantic=8&num_scrambled_causal=4&num_scrambled_schematic=4&participantId=A07C19884DD34DE9B68B603C24791418&assignmentId=0198be8f-6a56-7fea-b704-5126c35c817d&projectId=0198be8b-78cf-72d2-ba2b-1e62c78022e0","A07C19884DD34DE9B68B603C24791418-2025-08-18-20-27-31","","null","","images/causal_sequence/saving_a_cat_causal/saving_a_cat_causal_5.png","null","",""
"","","","","","image-button-response","50","226568","0.0-10.0-1.0-1.8","A07C19884DD34DE9B68B603C24791418","A07C19884DD34DE9B68B603C24791418","0198be8f-6a56-7fea-b704-5126c35c817d","0198be8b-78cf-72d2-ba2b-1e62c78022e0","{""num_scrambled_semantic"":""8"",""num_scrambled_causal"":""4"",""num_scrambled_schematic"":""4"",""participantId"":""A07C19884DD34DE9B68B603C24791418"",""assignmentId"":""0198be8f-6a56-7fea-b704-5126c35c817d"",""projectId"":""0198be8b-78cf-72d2-ba2b-1e62c78022e0""}","https://test12345.live/?num_scrambled_semantic=8&num_scrambled_causal=4&num_scrambled_schematic=4&participantId=A07C19884DD34DE9B68B603C24791418&assignmentId=0198be8f-6a56-7fea-b704-5126c35c817d&projectId=0198be8b-78cf-72d2-ba2b-1e62c78022e0","A07C19884DD34DE9B68B603C24791418-2025-08-18-20-27-31","","1040","","images/causal_sequence/saving_a_cat_causal/saving_a_cat_causal_5.png","0","",""
"","","","","","image-button-response","51","228384","0.0-10.0-1.0-2.8","A07C19884DD34DE9B68B603C24791418","A07C19884DD34DE9B68B603C24791418","0198be8f-6a56-7fea-b704-5126c35c817d","0198be8b-78cf-72d2-ba2b-1e62c78022e0","{""num_scrambled_semantic"":""8"",""num_scrambled_causal"":""4"",""num_scrambled_schematic"":""4"",""participantId"":""A07C19884DD34DE9B68B603C24791418"",""assignmentId"":""0198be8f-6a56-7fea-b704-5126c35c817d"",""projectId"":""0198be8b-78cf-72d2-ba2b-1e62c78022e0""}","https://test12345.live/?num_scrambled_semantic=8&num_scrambled_causal=4&num_scrambled_schematic=4&participantId=A07C19884DD34DE9B68B603C24791418&assignmentId=0198be8f-6a56-7fea-b704-5126c35c817d&projectId=0198be8b-78cf-72d2-ba2b-1e62c78022e0","A07C19884DD34DE9B68B603C24791418-2025-08-18-20-27-31","","null","","[]","null","",""
"","","","","","image-button-response","52","232899","0.0-10.0-1.0-0.9","A07C19884DD34DE9B68B603C24791418","A07C19884DD34DE9B68B603C24791418","0198be8f-6a56-7fea-b704-5126c35c817d","0198be8b-78cf-72d2-ba2b-1e62c78022e0","{""num_scrambled_semantic"":""8"",""num_scrambled_causal"":""4"",""num_scrambled_schematic"":""4"",""participantId"":""A07C19884DD34DE9B68B603C24791418"",""assignmentId"":""0198be8f-6a56-7fea-b704-5126c35c817d"",""projectId"":""0198be8b-78cf-72d2-ba2b-1e62c78022e0""}","https://test12345.live/?num_scrambled_semantic=8&num_scrambled_causal=4&num_scrambled_schematic=4&participantId=A07C19884DD34DE9B68B603C24791418&assignmentId=0198be8f-6a56-7fea-b704-5126c35c817d&projectId=0198be8b-78cf-72d2-ba2b-1e62c78022e0","A07C19884DD34DE9B68B603C24791418-2025-08-18-20-27-31","","null","","images/causal_sequence/saving_a_cat_causal/saving_a_cat_causal_8.png","null","",""
"","","","","","image-button-response","53","233665","0.0-10.0-1.0-1.9","A07C19884DD34DE9B68B603C24791418","A07C19884DD34DE9B68B603C24791418","0198be8f-6a56-7fea-b704-5126c35c817d","0198be8b-78cf-72d2-ba2b-1e62c78022e0","{""num_scrambled_semantic"":""8"",""num_scrambled_causal"":""4"",""num_scrambled_schematic"":""4"",""participantId"":""A07C19884DD34DE9B68B603C24791418"",""assignmentId"":""0198be8f-6a56-7fea-b704-5126c35c817d"",""projectId"":""0198be8b-78cf-72d2-ba2b-1e62c78022e0""}","https://test12345.live/?num_scrambled_semantic=8&num_scrambled_causal=4&num_scrambled_schematic=4&participantId=A07C19884DD34DE9B68B603C24791418&assignmentId=0198be8f-6a56-7fea-b704-5126c35c817d&projectId=0198be8b-78cf-72d2-ba2b-1e62c78022e0","A07C19884DD34DE9B68B603C24791418-2025-08-18-20-27-31","","765","","images/causal_sequence/saving_a_cat_causal/saving_a_cat_causal_8.png","0","",""
"","","","","","image-button-response","54","235470","0.0-10.0-1.0-2.9","A07C19884DD34DE9B68B603C24791418","A07C19884DD34DE9B68B603C24791418","0198be8f-6a56-7fea-b704-5126c35c817d","0198be8b-78cf-72d2-ba2b-1e62c78022e0","{""num_scrambled_semantic"":""8"",""num_scrambled_causal"":""4"",""num_scrambled_schematic"":""4"",""participantId"":""A07C19884DD34DE9B68B603C24791418"",""assignmentId"":""0198be8f-6a56-7fea-b704-5126c35c817d"",""projectId"":""0198be8b-78cf-72d2-ba2b-1e62c78022e0""}","https://test12345.live/?num_scrambled_semantic=8&num_scrambled_causal=4&num_scrambled_schematic=4&participantId=A07C19884DD34DE9B68B603C24791418&assignmentId=0198be8f-6a56-7fea-b704-5126c35c817d&projectId=0198be8b-78cf-72d2-ba2b-1e62c78022e0","A07C19884DD34DE9B68B603C24791418-2025-08-18-20-27-31","","null","","[]","null","",""
"","","","","","html-audio-response","55","291369","0.0-11.0","A07C19884DD34DE9B68B603C24791418","A07C19884DD34DE9B68B603C24791418","0198be8f-6a56-7fea-b704-5126c35c817d","0198be8b-78cf-72d2-ba2b-1e62c78022e0","{""num_scrambled_semantic"":""8"",""num_scrambled_causal"":""4"",""num_scrambled_schematic"":""4"",""participantId"":""A07C19884DD34DE9B68B603C24791418"",""assignmentId"":""0198be8f-6a56-7fea-b704-5126c35c817d"",""projectId"":""0198be8b-78cf-72d2-ba2b-1e62c78022e0""}","https://test12345.live/?num_scrambled_semantic=8&num_scrambled_causal=4&num_scrambled_schematic=4&participantId=A07C19884DD34DE9B68B603C24791418&assignmentId=0198be8f-6a56-7fea-b704-5126c35c817d&projectId=0198be8b-78cf-72d2-ba2b-1e62c78022e0","A07C19884DD34DE9B68B603C24791418-2025-08-18-20-27-31","","43839","","[""<span style=\""color: red; font-size: 24px\""> NOW RECORDING</span><p>Please say out loud all the images you saw, in the order of the story they create. Try to recall the sequence of events as they appeared in the story, not necessarily the order they were presented on the screen.</p>""]","","5","saving_a_cat_causal"
"","","","","","image-button-response","56","297395","0.0-12.0-0.0","A07C19884DD34DE9B68B603C24791418","A07C19884DD34DE9B68B603C24791418","0198be8f-6a56-7fea-b704-5126c35c817d","0198be8b-78cf-72d2-ba2b-1e62c78022e0","{""num_scrambled_semantic"":""8"",""num_scrambled_causal"":""4"",""num_scrambled_schematic"":""4"",""participantId"":""A07C19884DD34DE9B68B603C24791418"",""assignmentId"":""0198be8f-6a56-7fea-b704-5126c35c817d"",""projectId"":""0198be8b-78cf-72d2-ba2b-1e62c78022e0""}","https://test12345.live/?num_scrambled_semantic=8&num_scrambled_causal=4&num_scrambled_schematic=4&participantId=A07C19884DD34DE9B68B603C24791418&assignmentId=0198be8f-6a56-7fea-b704-5126c35c817d&projectId=0198be8b-78cf-72d2-ba2b-1e62c78022e0","A07C19884DD34DE9B68B603C24791418-2025-08-18-20-27-31","","null","","images/causal_sequence/the_performance_causal/the_performance_causal_0.png","null","",""
"","","","","","image-button-response","57","301902","0.0-12.0-1.0-0.0","A07C19884DD34DE9B68B603C24791418","A07C19884DD34DE9B68B603C24791418","0198be8f-6a56-7fea-b704-5126c35c817d","0198be8b-78cf-72d2-ba2b-1e62c78022e0","{""num_scrambled_semantic"":""8"",""num_scrambled_causal"":""4"",""num_scrambled_schematic"":""4"",""participantId"":""A07C19884DD34DE9B68B603C24791418"",""assignmentId"":""0198be8f-6a56-7fea-b704-5126c35c817d"",""projectId"":""0198be8b-78cf-72d2-ba2b-1e62c78022e0""}","https://test12345.live/?num_scrambled_semantic=8&num_scrambled_causal=4&num_scrambled_schematic=4&participantId=A07C19884DD34DE9B68B603C24791418&assignmentId=0198be8f-6a56-7fea-b704-5126c35c817d&projectId=0198be8b-78cf-72d2-ba2b-1e62c78022e0","A07C19884DD34DE9B68B603C24791418-2025-08-18-20-27-31","","null","","images/causal_sequence/the_performance_causal/the_performance_causal_1.png","null","",""
"","","","","","image-button-response","58","305903","0.0-12.0-1.0-1.0","A07C19884DD34DE9B68B603C24791418","A07C19884DD34DE9B68B603C24791418","0198be8f-6a56-7fea-b704-5126c35c817d","0198be8b-78cf-72d2-ba2b-1e62c78022e0","{""num_scrambled_semantic"":""8"",""num_scrambled_causal"":""4"",""num_scrambled_schematic"":""4"",""participantId"":""A07C19884DD34DE9B68B603C24791418"",""assignmentId"":""0198be8f-6a56-7fea-b704-5126c35c817d"",""projectId"":""0198be8b-78cf-72d2-ba2b-1e62c78022e0""}","https://test12345.live/?num_scrambled_semantic=8&num_scrambled_causal=4&num_scrambled_schematic=4&participantId=A07C19884DD34DE9B68B603C24791418&assignmentId=0198be8f-6a56-7fea-b704-5126c35c817d&projectId=0198be8b-78cf-72d2-ba2b-1e62c78022e0","A07C19884DD34DE9B68B603C24791418-2025-08-18-20-27-31","","null","","images/causal_sequence/the_performance_causal/the_performance_causal_1.png","null","",""
"","","","","","image-button-response","59","307714","0.0-12.0-1.0-2.0","A07C19884DD34DE9B68B603C24791418","A07C19884DD34DE9B68B603C24791418","0198be8f-6a56-7fea-b704-5126c35c817d","0198be8b-78cf-72d2-ba2b-1e62c78022e0","{""num_scrambled_semantic"":""8"",""num_scrambled_causal"":""4"",""num_scrambled_schematic"":""4"",""participantId"":""A07C19884DD34DE9B68B603C24791418"",""assignmentId"":""0198be8f-6a56-7fea-b704-5126c35c817d"",""projectId"":""0198be8b-78cf-72d2-ba2b-1e62c78022e0""}","https://test12345.live/?num_scrambled_semantic=8&num_scrambled_causal=4&num_scrambled_schematic=4&participantId=A07C19884DD34DE9B68B603C24791418&assignmentId=0198be8f-6a56-7fea-b704-5126c35c817d&projectId=0198be8b-78cf-72d2-ba2b-1e62c78022e0","A07C19884DD34DE9B68B603C24791418-2025-08-18-20-27-31","","null","","[]","null","",""
"","","","","","image-button-response","60","312226","0.0-12.0-1.0-0.1","A07C19884DD34DE9B68B603C24791418","A07C19884DD34DE9B68B603C24791418","0198be8f-6a56-7fea-b704-5126c35c817d","0198be8b-78cf-72d2-ba2b-1e62c78022e0","{""num_scrambled_semantic"":""8"",""num_scrambled_causal"":""4"",""num_scrambled_schematic"":""4"",""participantId"":""A07C19884DD34DE9B68B603C24791418"",""assignmentId"":""0198be8f-6a56-7fea-b704-5126c35c817d"",""projectId"":""0198be8b-78cf-72d2-ba2b-1e62c78022e0""}","https://test12345.live/?num_scrambled_semantic=8&num_scrambled_causal=4&num_scrambled_schematic=4&participantId=A07C19884DD34DE9B68B603C24791418&assignmentId=0198be8f-6a56-7fea-b704-5126c35c817d&projectId=0198be8b-78cf-72d2-ba2b-1e62c78022e0","A07C19884DD34DE9B68B603C24791418-2025-08-18-20-27-31","","null","","images/causal_sequence/the_performance_causal/the_performance_causal_2.png","null","",""
"","","","","","image-button-response","61","313785","0.0-12.0-1.0-1.1","A07C19884DD34DE9B68B603C24791418","A07C19884DD34DE9B68B603C24791418","0198be8f-6a56-7fea-b704-5126c35c817d","0198be8b-78cf-72d2-ba2b-1e62c78022e0","{""num_scrambled_semantic"":""8"",""num_scrambled_causal"":""4"",""num_scrambled_schematic"":""4"",""participantId"":""A07C19884DD34DE9B68B603C24791418"",""assignmentId"":""0198be8f-6a56-7fea-b704-5126c35c817d"",""projectId"":""0198be8b-78cf-72d2-ba2b-1e62c78022e0""}","https://test12345.live/?num_scrambled_semantic=8&num_scrambled_causal=4&num_scrambled_schematic=4&participantId=A07C19884DD34DE9B68B603C24791418&assignmentId=0198be8f-6a56-7fea-b704-5126c35c817d&projectId=0198be8b-78cf-72d2-ba2b-1e62c78022e0","A07C19884DD34DE9B68B603C24791418-2025-08-18-20-27-31","","1558","","images/causal_sequence/the_performance_causal/the_performance_causal_2.png","0","",""
"","","","","","image-button-response","62","315589","0.0-12.0-1.0-2.1","A07C19884DD34DE9B68B603C24791418","A07C19884DD34DE9B68B603C24791418","0198be8f-6a56-7fea-b704-5126c35c817d","0198be8b-78cf-72d2-ba2b-1e62c78022e0","{""num_scrambled_semantic"":""8"",""num_scrambled_causal"":""4"",""num_scrambled_schematic"":""4"",""participantId"":""A07C19884DD34DE9B68B603C24791418"",""assignmentId"":""0198be8f-6a56-7fea-b704-5126c35c817d"",""projectId"":""0198be8b-78cf-72d2-ba2b-1e62c78022e0""}","https://test12345.live/?num_scrambled_semantic=8&num_scrambled_causal=4&num_scrambled_schematic=4&participantId=A07C19884DD34DE9B68B603C24791418&assignmentId=0198be8f-6a56-7fea-b704-5126c35c817d&projectId=0198be8b-78cf-72d2-ba2b-1e62c78022e0","A07C19884DD34DE9B68B603C24791418-2025-08-18-20-27-31","","null","","[]","null","",""
"","","","","","image-button-response","63","320097","0.0-12.0-1.0-0.2","A07C19884DD34DE9B68B603C24791418","A07C19884DD34DE9B68B603C24791418","0198be8f-6a56-7fea-b704-5126c35c817d","0198be8b-78cf-72d2-ba2b-1e62c78022e0","{""num_scrambled_semantic"":""8"",""num_scrambled_causal"":""4"",""num_scrambled_schematic"":""4"",""participantId"":""A07C19884DD34DE9B68B603C24791418"",""assignmentId"":""0198be8f-6a56-7fea-b704-5126c35c817d"",""projectId"":""0198be8b-78cf-72d2-ba2b-1e62c78022e0""}","https://test12345.live/?num_scrambled_semantic=8&num_scrambled_causal=4&num_scrambled_schematic=4&participantId=A07C19884DD34DE9B68B603C24791418&assignmentId=0198be8f-6a56-7fea-b704-5126c35c817d&projectId=0198be8b-78cf-72d2-ba2b-1e62c78022e0","A07C19884DD34DE9B68B603C24791418-2025-08-18-20-27-31","","null","","images/causal_sequence/the_performance_causal/the_performance_causal_3.png","null","",""
"","","","","","image-button-response","64","320925","0.0-12.0-1.0-1.2","A07C19884DD34DE9B68B603C24791418","A07C19884DD34DE9B68B603C24791418","0198be8f-6a56-7fea-b704-5126c35c817d","0198be8b-78cf-72d2-ba2b-1e62c78022e0","{""num_scrambled_semantic"":""8"",""num_scrambled_causal"":""4"",""num_scrambled_schematic"":""4"",""participantId"":""A07C19884DD34DE9B68B603C24791418"",""assignmentId"":""0198be8f-6a56-7fea-b704-5126c35c817d"",""projectId"":""0198be8b-78cf-72d2-ba2b-1e62c78022e0""}","https://test12345.live/?num_scrambled_semantic=8&num_scrambled_causal=4&num_scrambled_schematic=4&participantId=A07C19884DD34DE9B68B603C24791418&assignmentId=0198be8f-6a56-7fea-b704-5126c35c817d&projectId=0198be8b-78cf-72d2-ba2b-1e62c78022e0","A07C19884DD34DE9B68B603C24791418-2025-08-18-20-27-31","","826","","images/causal_sequence/the_performance_causal/the_performance_causal_3.png","0","",""
"","","","","","image-button-response","65","322736","0.0-12.0-1.0-2.2","A07C19884DD34DE9B68B603C24791418","A07C19884DD34DE9B68B603C24791418","0198be8f-6a56-7fea-b704-5126c35c817d","0198be8b-78cf-72d2-ba2b-1e62c78022e0","{""num_scrambled_semantic"":""8"",""num_scrambled_causal"":""4"",""num_scrambled_schematic"":""4"",""participantId"":""A07C19884DD34DE9B68B603C24791418"",""assignmentId"":""0198be8f-6a56-7fea-b704-5126c35c817d"",""projectId"":""0198be8b-78cf-72d2-ba2b-1e62c78022e0""}","https://test12345.live/?num_scrambled_semantic=8&num_scrambled_causal=4&num_scrambled_schematic=4&participantId=A07C19884DD34DE9B68B603C24791418&assignmentId=0198be8f-6a56-7fea-b704-5126c35c817d&projectId=0198be8b-78cf-72d2-ba2b-1e62c78022e0","A07C19884DD34DE9B68B603C24791418-2025-08-18-20-27-31","","null","","[]","null","",""
"","","","","","image-button-response","66","327238","0.0-12.0-1.0-0.3","A07C19884DD34DE9B68B603C24791418","A07C19884DD34DE9B68B603C24791418","0198be8f-6a56-7fea-b704-5126c35c817d","0198be8b-78cf-72d2-ba2b-1e62c78022e0","{""num_scrambled_semantic"":""8"",""num_scrambled_causal"":""4"",""num_scrambled_schematic"":""4"",""participantId"":""A07C19884DD34DE9B68B603C24791418"",""assignmentId"":""0198be8f-6a56-7fea-b704-5126c35c817d"",""projectId"":""0198be8b-78cf-72d2-ba2b-1e62c78022e0""}","https://test12345.live/?num_scrambled_semantic=8&num_scrambled_causal=4&num_scrambled_schematic=4&participantId=A07C19884DD34DE9B68B603C24791418&assignmentId=0198be8f-6a56-7fea-b704-5126c35c817d&projectId=0198be8b-78cf-72d2-ba2b-1e62c78022e0","A07C19884DD34DE9B68B603C24791418-2025-08-18-20-27-31","","null","","images/causal_sequence/the_performance_causal/the_performance_causal_4.png","null","",""
"","","","","","image-button-response","67","328687","0.0-12.0-1.0-1.3","A07C19884DD34DE9B68B603C24791418","A07C19884DD34DE9B68B603C24791418","0198be8f-6a56-7fea-b704-5126c35c817d","0198be8b-78cf-72d2-ba2b-1e62c78022e0","{""num_scrambled_semantic"":""8"",""num_scrambled_causal"":""4"",""num_scrambled_schematic"":""4"",""participantId"":""A07C19884DD34DE9B68B603C24791418"",""assignmentId"":""0198be8f-6a56-7fea-b704-5126c35c817d"",""projectId"":""0198be8b-78cf-72d2-ba2b-1e62c78022e0""}","https://test12345.live/?num_scrambled_semantic=8&num_scrambled_causal=4&num_scrambled_schematic=4&participantId=A07C19884DD34DE9B68B603C24791418&assignmentId=0198be8f-6a56-7fea-b704-5126c35c817d&projectId=0198be8b-78cf-72d2-ba2b-1e62c78022e0","A07C19884DD34DE9B68B603C24791418-2025-08-18-20-27-31","","1448","","images/causal_sequence/the_performance_causal/the_performance_causal_4.png","0","",""
"","","","","","image-button-response","68","330498","0.0-12.0-1.0-2.3","A07C19884DD34DE9B68B603C24791418","A07C19884DD34DE9B68B603C24791418","0198be8f-6a56-7fea-b704-5126c35c817d","0198be8b-78cf-72d2-ba2b-1e62c78022e0","{""num_scrambled_semantic"":""8"",""num_scrambled_causal"":""4"",""num_scrambled_schematic"":""4"",""participantId"":""A07C19884DD34DE9B68B603C24791418"",""assignmentId"":""0198be8f-6a56-7fea-b704-5126c35c817d"",""projectId"":""0198be8b-78cf-72d2-ba2b-1e62c78022e0""}","https://test12345.live/?num_scrambled_semantic=8&num_scrambled_causal=4&num_scrambled_schematic=4&participantId=A07C19884DD34DE9B68B603C24791418&assignmentId=0198be8f-6a56-7fea-b704-5126c35c817d&projectId=0198be8b-78cf-72d2-ba2b-1e62c78022e0","A07C19884DD34DE9B68B603C24791418-2025-08-18-20-27-31","","null","","[]","null","",""
"","","","","","image-button-response","69","335014","0.0-12.0-1.0-0.4","A07C19884DD34DE9B68B603C24791418","A07C19884DD34DE9B68B603C24791418","0198be8f-6a56-7fea-b704-5126c35c817d","0198be8b-78cf-72d2-ba2b-1e62c78022e0","{""num_scrambled_semantic"":""8"",""num_scrambled_causal"":""4"",""num_scrambled_schematic"":""4"",""participantId"":""A07C19884DD34DE9B68B603C24791418"",""assignmentId"":""0198be8f-6a56-7fea-b704-5126c35c817d"",""projectId"":""0198be8b-78cf-72d2-ba2b-1e62c78022e0""}","https://test12345.live/?num_scrambled_semantic=8&num_scrambled_causal=4&num_scrambled_schematic=4&participantId=A07C19884DD34DE9B68B603C24791418&assignmentId=0198be8f-6a56-7fea-b704-5126c35c817d&projectId=0198be8b-78cf-72d2-ba2b-1e62c78022e0","A07C19884DD34DE9B68B603C24791418-2025-08-18-20-27-31","","null","","images/causal_sequence/the_performance_causal/the_performance_causal_5.png","null","",""
"","","","","","image-button-response","70","336378","0.0-12.0-1.0-1.4","A07C19884DD34DE9B68B603C24791418","A07C19884DD34DE9B68B603C24791418","0198be8f-6a56-7fea-b704-5126c35c817d","0198be8b-78cf-72d2-ba2b-1e62c78022e0","{""num_scrambled_semantic"":""8"",""num_scrambled_causal"":""4"",""num_scrambled_schematic"":""4"",""participantId"":""A07C19884DD34DE9B68B603C24791418"",""assignmentId"":""0198be8f-6a56-7fea-b704-5126c35c817d"",""projectId"":""0198be8b-78cf-72d2-ba2b-1e62c78022e0""}","https://test12345.live/?num_scrambled_semantic=8&num_scrambled_causal=4&num_scrambled_schematic=4&participantId=A07C19884DD34DE9B68B603C24791418&assignmentId=0198be8f-6a56-7fea-b704-5126c35c817d&projectId=0198be8b-78cf-72d2-ba2b-1e62c78022e0","A07C19884DD34DE9B68B603C24791418-2025-08-18-20-27-31","","1363","","images/causal_sequence/the_performance_causal/the_performance_causal_5.png","0","",""
"","","","","","image-button-response","71","338187","0.0-12.0-1.0-2.4","A07C19884DD34DE9B68B603C24791418","A07C19884DD34DE9B68B603C24791418","0198be8f-6a56-7fea-b704-5126c35c817d","0198be8b-78cf-72d2-ba2b-1e62c78022e0","{""num_scrambled_semantic"":""8"",""num_scrambled_causal"":""4"",""num_scrambled_schematic"":""4"",""participantId"":""A07C19884DD34DE9B68B603C24791418"",""assignmentId"":""0198be8f-6a56-7fea-b704-5126c35c817d"",""projectId"":""0198be8b-78cf-72d2-ba2b-1e62c78022e0""}","https://test12345.live/?num_scrambled_semantic=8&num_scrambled_causal=4&num_scrambled_schematic=4&participantId=A07C19884DD34DE9B68B603C24791418&assignmentId=0198be8f-6a56-7fea-b704-5126c35c817d&projectId=0198be8b-78cf-72d2-ba2b-1e62c78022e0","A07C19884DD34DE9B68B603C24791418-2025-08-18-20-27-31","","null","","[]","null","",""
"","","","","","image-button-response","72","342694","0.0-12.0-1.0-0.5","A07C19884DD34DE9B68B603C24791418","A07C19884DD34DE9B68B603C24791418","0198be8f-6a56-7fea-b704-5126c35c817d","0198be8b-78cf-72d2-ba2b-1e62c78022e0","{""num_scrambled_semantic"":""8"",""num_scrambled_causal"":""4"",""num_scrambled_schematic"":""4"",""participantId"":""A07C19884DD34DE9B68B603C24791418"",""assignmentId"":""0198be8f-6a56-7fea-b704-5126c35c817d"",""projectId"":""0198be8b-78cf-72d2-ba2b-1e62c78022e0""}","https://test12345.live/?num_scrambled_semantic=8&num_scrambled_causal=4&num_scrambled_schematic=4&participantId=A07C19884DD34DE9B68B603C24791418&assignmentId=0198be8f-6a56-7fea-b704-5126c35c817d&projectId=0198be8b-78cf-72d2-ba2b-1e62c78022e0","A07C19884DD34DE9B68B603C24791418-2025-08-18-20-27-31","","null","","images/causal_sequence/the_performance_causal/the_performance_causal_6.png","null","",""
"","","","","","image-button-response","73","344055","0.0-12.0-1.0-1.5","A07C19884DD34DE9B68B603C24791418","A07C19884DD34DE9B68B603C24791418","0198be8f-6a56-7fea-b704-5126c35c817d","0198be8b-78cf-72d2-ba2b-1e62c78022e0","{""num_scrambled_semantic"":""8"",""num_scrambled_causal"":""4"",""num_scrambled_schematic"":""4"",""participantId"":""A07C19884DD34DE9B68B603C24791418"",""assignmentId"":""0198be8f-6a56-7fea-b704-5126c35c817d"",""projectId"":""0198be8b-78cf-72d2-ba2b-1e62c78022e0""}","https://test12345.live/?num_scrambled_semantic=8&num_scrambled_causal=4&num_scrambled_schematic=4&participantId=A07C19884DD34DE9B68B603C24791418&assignmentId=0198be8f-6a56-7fea-b704-5126c35c817d&projectId=0198be8b-78cf-72d2-ba2b-1e62c78022e0","A07C19884DD34DE9B68B603C24791418-2025-08-18-20-27-31","","1359","","images/causal_sequence/the_performance_causal/the_performance_causal_6.png","0","",""
"","","","","","image-button-response","74","345857","0.0-12.0-1.0-2.5","A07C19884DD34DE9B68B603C24791418","A07C19884DD34DE9B68B603C24791418","0198be8f-6a56-7fea-b704-5126c35c817d","0198be8b-78cf-72d2-ba2b-1e62c78022e0","{""num_scrambled_semantic"":""8"",""num_scrambled_causal"":""4"",""num_scrambled_schematic"":""4"",""participantId"":""A07C19884DD34DE9B68B603C24791418"",""assignmentId"":""0198be8f-6a56-7fea-b704-5126c35c817d"",""projectId"":""0198be8b-78cf-72d2-ba2b-1e62c78022e0""}","https://test12345.live/?num_scrambled_semantic=8&num_scrambled_causal=4&num_scrambled_schematic=4&participantId=A07C19884DD34DE9B68B603C24791418&assignmentId=0198be8f-6a56-7fea-b704-5126c35c817d&projectId=0198be8b-78cf-72d2-ba2b-1e62c78022e0","A07C19884DD34DE9B68B603C24791418-2025-08-18-20-27-31","","null","","[]","null","",""
"","","","","","image-button-response","75","350368","0.0-12.0-1.0-0.6","A07C19884DD34DE9B68B603C24791418","A07C19884DD34DE9B68B603C24791418","0198be8f-6a56-7fea-b704-5126c35c817d","0198be8b-78cf-72d2-ba2b-1e62c78022e0","{""num_scrambled_semantic"":""8"",""num_scrambled_causal"":""4"",""num_scrambled_schematic"":""4"",""participantId"":""A07C19884DD34DE9B68B603C24791418"",""assignmentId"":""0198be8f-6a56-7fea-b704-5126c35c817d"",""projectId"":""0198be8b-78cf-72d2-ba2b-1e62c78022e0""}","https://test12345.live/?num_scrambled_semantic=8&num_scrambled_causal=4&num_scrambled_schematic=4&participantId=A07C19884DD34DE9B68B603C24791418&assignmentId=0198be8f-6a56-7fea-b704-5126c35c817d&projectId=0198be8b-78cf-72d2-ba2b-1e62c78022e0","A07C19884DD34DE9B68B603C24791418-2025-08-18-20-27-31","","null","","images/causal_sequence/the_performance_causal/the_performance_causal_7.png","null","",""
"","","","","","image-button-response","76","352029","0.0-12.0-1.0-1.6","A07C19884DD34DE9B68B603C24791418","A07C19884DD34DE9B68B603C24791418","0198be8f-6a56-7fea-b704-5126c35c817d","0198be8b-78cf-72d2-ba2b-1e62c78022e0","{""num_scrambled_semantic"":""8"",""num_scrambled_causal"":""4"",""num_scrambled_schematic"":""4"",""participantId"":""A07C19884DD34DE9B68B603C24791418"",""assignmentId"":""0198be8f-6a56-7fea-b704-5126c35c817d"",""projectId"":""0198be8b-78cf-72d2-ba2b-1e62c78022e0""}","https://test12345.live/?num_scrambled_semantic=8&num_scrambled_causal=4&num_scrambled_schematic=4&participantId=A07C19884DD34DE9B68B603C24791418&assignmentId=0198be8f-6a56-7fea-b704-5126c35c817d&projectId=0198be8b-78cf-72d2-ba2b-1e62c78022e0","A07C19884DD34DE9B68B603C24791418-2025-08-18-20-27-31","","1660","","images/causal_sequence/the_performance_causal/the_performance_causal_7.png","0","",""
"","","","","","image-button-response","77","353837","0.0-12.0-1.0-2.6","A07C19884DD34DE9B68B603C24791418","A07C19884DD34DE9B68B603C24791418","0198be8f-6a56-7fea-b704-5126c35c817d","0198be8b-78cf-72d2-ba2b-1e62c78022e0","{""num_scrambled_semantic"":""8"",""num_scrambled_causal"":""4"",""num_scrambled_schematic"":""4"",""participantId"":""A07C19884DD34DE9B68B603C24791418"",""assignmentId"":""0198be8f-6a56-7fea-b704-5126c35c817d"",""projectId"":""0198be8b-78cf-72d2-ba2b-1e62c78022e0""}","https://test12345.live/?num_scrambled_semantic=8&num_scrambled_causal=4&num_scrambled_schematic=4&participantId=A07C19884DD34DE9B68B603C24791418&assignmentId=0198be8f-6a56-7fea-b704-5126c35c817d&projectId=0198be8b-78cf-72d2-ba2b-1e62c78022e0","A07C19884DD34DE9B68B603C24791418-2025-08-18-20-27-31","","null","","[]","null","",""
"","","","","","image-button-response","78","358346","0.0-12.0-1.0-0.7","A07C19884DD34DE9B68B603C24791418","A07C19884DD34DE9B68B603C24791418","0198be8f-6a56-7fea-b704-5126c35c817d","0198be8b-78cf-72d2-ba2b-1e62c78022e0","{""num_scrambled_semantic"":""8"",""num_scrambled_causal"":""4"",""num_scrambled_schematic"":""4"",""participantId"":""A07C19884DD34DE9B68B603C24791418"",""assignmentId"":""0198be8f-6a56-7fea-b704-5126c35c817d"",""projectId"":""0198be8b-78cf-72d2-ba2b-1e62c78022e0""}","https://test12345.live/?num_scrambled_semantic=8&num_scrambled_causal=4&num_scrambled_schematic=4&participantId=A07C19884DD34DE9B68B603C24791418&assignmentId=0198be8f-6a56-7fea-b704-5126c35c817d&projectId=0198be8b-78cf-72d2-ba2b-1e62c78022e0","A07C19884DD34DE9B68B603C24791418-2025-08-18-20-27-31","","null","","images/causal_sequence/the_performance_causal/the_performance_causal_8.png","null","",""
"","","","","","image-button-response","79","359560","0.0-12.0-1.0-1.7","A07C19884DD34DE9B68B603C24791418","A07C19884DD34DE9B68B603C24791418","0198be8f-6a56-7fea-b704-5126c35c817d","0198be8b-78cf-72d2-ba2b-1e62c78022e0","{""num_scrambled_semantic"":""8"",""num_scrambled_causal"":""4"",""num_scrambled_schematic"":""4"",""participantId"":""A07C19884DD34DE9B68B603C24791418"",""assignmentId"":""0198be8f-6a56-7fea-b704-5126c35c817d"",""projectId"":""0198be8b-78cf-72d2-ba2b-1e62c78022e0""}","https://test12345.live/?num_scrambled_semantic=8&num_scrambled_causal=4&num_scrambled_schematic=4&participantId=A07C19884DD34DE9B68B603C24791418&assignmentId=0198be8f-6a56-7fea-b704-5126c35c817d&projectId=0198be8b-78cf-72d2-ba2b-1e62c78022e0","A07C19884DD34DE9B68B603C24791418-2025-08-18-20-27-31","","1213","","images/causal_sequence/the_performance_causal/the_performance_causal_8.png","0","",""
"","","","","","image-button-response","80","361366","0.0-12.0-1.0-2.7","A07C19884DD34DE9B68B603C24791418","A07C19884DD34DE9B68B603C24791418","0198be8f-6a56-7fea-b704-5126c35c817d","0198be8b-78cf-72d2-ba2b-1e62c78022e0","{""num_scrambled_semantic"":""8"",""num_scrambled_causal"":""4"",""num_scrambled_schematic"":""4"",""participantId"":""A07C19884DD34DE9B68B603C24791418"",""assignmentId"":""0198be8f-6a56-7fea-b704-5126c35c817d"",""projectId"":""0198be8b-78cf-72d2-ba2b-1e62c78022e0""}","https://test12345.live/?num_scrambled_semantic=8&num_scrambled_causal=4&num_scrambled_schematic=4&participantId=A07C19884DD34DE9B68B603C24791418&assignmentId=0198be8f-6a56-7fea-b704-5126c35c817d&projectId=0198be8b-78cf-72d2-ba2b-1e62c78022e0","A07C19884DD34DE9B68B603C24791418-2025-08-18-20-27-31","","null","","[]","null","",""
"","","","","","image-button-response","81","365871","0.0-12.0-1.0-0.8","A07C19884DD34DE9B68B603C24791418","A07C19884DD34DE9B68B603C24791418","0198be8f-6a56-7fea-b704-5126c35c817d","0198be8b-78cf-72d2-ba2b-1e62c78022e0","{""num_scrambled_semantic"":""8"",""num_scrambled_causal"":""4"",""num_scrambled_schematic"":""4"",""participantId"":""A07C19884DD34DE9B68B603C24791418"",""assignmentId"":""0198be8f-6a56-7fea-b704-5126c35c817d"",""projectId"":""0198be8b-78cf-72d2-ba2b-1e62c78022e0""}","https://test12345.live/?num_scrambled_semantic=8&num_scrambled_causal=4&num_scrambled_schematic=4&participantId=A07C19884DD34DE9B68B603C24791418&assignmentId=0198be8f-6a56-7fea-b704-5126c35c817d&projectId=0198be8b-78cf-72d2-ba2b-1e62c78022e0","A07C19884DD34DE9B68B603C24791418-2025-08-18-20-27-31","","null","","images/causal_sequence/the_performance_causal/the_performance_causal_9.png","null","",""
"","","","","","image-button-response","82","367227","0.0-12.0-1.0-1.8","A07C19884DD34DE9B68B603C24791418","A07C19884DD34DE9B68B603C24791418","0198be8f-6a56-7fea-b704-5126c35c817d","0198be8b-78cf-72d2-ba2b-1e62c78022e0","{""num_scrambled_semantic"":""8"",""num_scrambled_causal"":""4"",""num_scrambled_schematic"":""4"",""participantId"":""A07C19884DD34DE9B68B603C24791418"",""assignmentId"":""0198be8f-6a56-7fea-b704-5126c35c817d"",""projectId"":""0198be8b-78cf-72d2-ba2b-1e62c78022e0""}","https://test12345.live/?num_scrambled_semantic=8&num_scrambled_causal=4&num_scrambled_schematic=4&participantId=A07C19884DD34DE9B68B603C24791418&assignmentId=0198be8f-6a56-7fea-b704-5126c35c817d&projectId=0198be8b-78cf-72d2-ba2b-1e62c78022e0","A07C19884DD34DE9B68B603C24791418-2025-08-18-20-27-31","","1355","","images/causal_sequence/the_performance_causal/the_performance_causal_9.png","0","",""
"","","","","","image-button-response","83","369036","0.0-12.0-1.0-2.8","A07C19884DD34DE9B68B603C24791418","A07C19884DD34DE9B68B603C24791418","0198be8f-6a56-7fea-b704-5126c35c817d","0198be8b-78cf-72d2-ba2b-1e62c78022e0","{""num_scrambled_semantic"":""8"",""num_scrambled_causal"":""4"",""num_scrambled_schematic"":""4"",""participantId"":""A07C19884DD34DE9B68B603C24791418"",""assignmentId"":""0198be8f-6a56-7fea-b704-5126c35c817d"",""projectId"":""0198be8b-78cf-72d2-ba2b-1e62c78022e0""}","https://test12345.live/?num_scrambled_semantic=8&num_scrambled_causal=4&num_scrambled_schematic=4&participantId=A07C19884DD34DE9B68B603C24791418&assignmentId=0198be8f-6a56-7fea-b704-5126c35c817d&projectId=0198be8b-78cf-72d2-ba2b-1e62c78022e0","A07C19884DD34DE9B68B603C24791418-2025-08-18-20-27-31","","null","","[]","null","",""
"","","","","","image-button-response","84","373550","0.0-12.0-1.0-0.9","A07C19884DD34DE9B68B603C24791418","A07C19884DD34DE9B68B603C24791418","0198be8f-6a56-7fea-b704-5126c35c817d","0198be8b-78cf-72d2-ba2b-1e62c78022e0","{""num_scrambled_semantic"":""8"",""num_scrambled_causal"":""4"",""num_scrambled_schematic"":""4"",""participantId"":""A07C19884DD34DE9B68B603C24791418"",""assignmentId"":""0198be8f-6a56-7fea-b704-5126c35c817d"",""projectId"":""0198be8b-78cf-72d2-ba2b-1e62c78022e0""}","https://test12345.live/?num_scrambled_semantic=8&num_scrambled_causal=4&num_scrambled_schematic=4&participantId=A07C19884DD34DE9B68B603C24791418&assignmentId=0198be8f-6a56-7fea-b704-5126c35c817d&projectId=0198be8b-78cf-72d2-ba2b-1e62c78022e0","A07C19884DD34DE9B68B603C24791418-2025-08-18-20-27-31","","null","","images/causal_sequence/the_performance_causal/the_performance_causal_ten.png","null","",""
"","","","","","image-button-response","85","375330","0.0-12.0-1.0-1.9","A07C19884DD34DE9B68B603C24791418","A07C19884DD34DE9B68B603C24791418","0198be8f-6a56-7fea-b704-5126c35c817d","0198be8b-78cf-72d2-ba2b-1e62c78022e0","{""num_scrambled_semantic"":""8"",""num_scrambled_causal"":""4"",""num_scrambled_schematic"":""4"",""participantId"":""A07C19884DD34DE9B68B603C24791418"",""assignmentId"":""0198be8f-6a56-7fea-b704-5126c35c817d"",""projectId"":""0198be8b-78cf-72d2-ba2b-1e62c78022e0""}","https://test12345.live/?num_scrambled_semantic=8&num_scrambled_causal=4&num_scrambled_schematic=4&participantId=A07C19884DD34DE9B68B603C24791418&assignmentId=0198be8f-6a56-7fea-b704-5126c35c817d&projectId=0198be8b-78cf-72d2-ba2b-1e62c78022e0","A07C19884DD34DE9B68B603C24791418-2025-08-18-20-27-31","","1776","","images/causal_sequence/the_performance_causal/the_performance_causal_ten.png","0","",""
"","","","","","image-button-response","86","377139","0.0-12.0-1.0-2.9","A07C19884DD34DE9B68B603C24791418","A07C19884DD34DE9B68B603C24791418","0198be8f-6a56-7fea-b704-5126c35c817d","0198be8b-78cf-72d2-ba2b-1e62c78022e0","{""num_scrambled_semantic"":""8"",""num_scrambled_causal"":""4"",""num_scrambled_schematic"":""4"",""participantId"":""A07C19884DD34DE9B68B603C24791418"",""assignmentId"":""0198be8f-6a56-7fea-b704-5126c35c817d"",""projectId"":""0198be8b-78cf-72d2-ba2b-1e62c78022e0""}","https://test12345.live/?num_scrambled_semantic=8&num_scrambled_causal=4&num_scrambled_schematic=4&participantId=A07C19884DD34DE9B68B603C24791418&assignmentId=0198be8f-6a56-7fea-b704-5126c35c817d&projectId=0198be8b-78cf-72d2-ba2b-1e62c78022e0","A07C19884DD34DE9B68B603C24791418-2025-08-18-20-27-31","","null","","[]","null","",""
"","","","","","html-audio-response","87","433923","0.0-13.0","A07C19884DD34DE9B68B603C24791418","A07C19884DD34DE9B68B603C24791418","0198be8f-6a56-7fea-b704-5126c35c817d","0198be8b-78cf-72d2-ba2b-1e62c78022e0","{""num_scrambled_semantic"":""8"",""num_scrambled_causal"":""4"",""num_scrambled_schematic"":""4"",""participantId"":""A07C19884DD34DE9B68B603C24791418"",""assignmentId"":""0198be8f-6a56-7fea-b704-5126c35c817d"",""projectId"":""0198be8b-78cf-72d2-ba2b-1e62c78022e0""}","https://test12345.live/?num_scrambled_semantic=8&num_scrambled_causal=4&num_scrambled_schematic=4&participantId=A07C19884DD34DE9B68B603C24791418&assignmentId=0198be8f-6a56-7fea-b704-5126c35c817d&projectId=0198be8b-78cf-72d2-ba2b-1e62c78022e0","A07C19884DD34DE9B68B603C24791418-2025-08-18-20-27-31","","1980","","[""<span style=\""color: red; font-size: 24px\""> NOW RECORDING</span><p>Please say out loud all the images you saw, in the order of the story they create. Try to recall the sequence of events as they appeared in the story, not necessarily the order they were presented on the screen.</p>""]","","4","the_performance_causal"
"","","","","","image-button-response","88","439937","0.0-14.0-0.0","A07C19884DD34DE9B68B603C24791418","A07C19884DD34DE9B68B603C24791418","0198be8f-6a56-7fea-b704-5126c35c817d","0198be8b-78cf-72d2-ba2b-1e62c78022e0","{""num_scrambled_semantic"":""8"",""num_scrambled_causal"":""4"",""num_scrambled_schematic"":""4"",""participantId"":""A07C19884DD34DE9B68B603C24791418"",""assignmentId"":""0198be8f-6a56-7fea-b704-5126c35c817d"",""projectId"":""0198be8b-78cf-72d2-ba2b-1e62c78022e0""}","https://test12345.live/?num_scrambled_semantic=8&num_scrambled_causal=4&num_scrambled_schematic=4&participantId=A07C19884DD34DE9B68B603C24791418&assignmentId=0198be8f-6a56-7fea-b704-5126c35c817d&projectId=0198be8b-78cf-72d2-ba2b-1e62c78022e0","A07C19884DD34DE9B68B603C24791418-2025-08-18-20-27-31","","null","","images/semantic_sequence/housework_semantic/housework_semantic_0.png","null","",""
"","","","","","image-button-response","89","444450","0.0-14.0-1.0-0.0","A07C19884DD34DE9B68B603C24791418","A07C19884DD34DE9B68B603C24791418","0198be8f-6a56-7fea-b704-5126c35c817d","0198be8b-78cf-72d2-ba2b-1e62c78022e0","{""num_scrambled_semantic"":""8"",""num_scrambled_causal"":""4"",""num_scrambled_schematic"":""4"",""participantId"":""A07C19884DD34DE9B68B603C24791418"",""assignmentId"":""0198be8f-6a56-7fea-b704-5126c35c817d"",""projectId"":""0198be8b-78cf-72d2-ba2b-1e62c78022e0""}","https://test12345.live/?num_scrambled_semantic=8&num_scrambled_causal=4&num_scrambled_schematic=4&participantId=A07C19884DD34DE9B68B603C24791418&assignmentId=0198be8f-6a56-7fea-b704-5126c35c817d&projectId=0198be8b-78cf-72d2-ba2b-1e62c78022e0","A07C19884DD34DE9B68B603C24791418-2025-08-18-20-27-31","","null","","images/semantic_sequence/housework_semantic/housework_semantic_4.png","null","",""
"","","","","","image-button-response","90","445875","0.0-14.0-1.0-1.0","A07C19884DD34DE9B68B603C24791418","A07C19884DD34DE9B68B603C24791418","0198be8f-6a56-7fea-b704-5126c35c817d","0198be8b-78cf-72d2-ba2b-1e62c78022e0","{""num_scrambled_semantic"":""8"",""num_scrambled_causal"":""4"",""num_scrambled_schematic"":""4"",""participantId"":""A07C19884DD34DE9B68B603C24791418"",""assignmentId"":""0198be8f-6a56-7fea-b704-5126c35c817d"",""projectId"":""0198be8b-78cf-72d2-ba2b-1e62c78022e0""}","https://test12345.live/?num_scrambled_semantic=8&num_scrambled_causal=4&num_scrambled_schematic=4&participantId=A07C19884DD34DE9B68B603C24791418&assignmentId=0198be8f-6a56-7fea-b704-5126c35c817d&projectId=0198be8b-78cf-72d2-ba2b-1e62c78022e0","A07C19884DD34DE9B68B603C24791418-2025-08-18-20-27-31","","1422","","images/semantic_sequence/housework_semantic/housework_semantic_4.png","0","",""
"","","","","","image-button-response","91","447682","0.0-14.0-1.0-2.0","A07C19884DD34DE9B68B603C24791418","A07C19884DD34DE9B68B603C24791418","0198be8f-6a56-7fea-b704-5126c35c817d","0198be8b-78cf-72d2-ba2b-1e62c78022e0","{""num_scrambled_semantic"":""8"",""num_scrambled_causal"":""4"",""num_scrambled_schematic"":""4"",""participantId"":""A07C19884DD34DE9B68B603C24791418"",""assignmentId"":""0198be8f-6a56-7fea-b704-5126c35c817d"",""projectId"":""0198be8b-78cf-72d2-ba2b-1e62c78022e0""}","https://test12345.live/?num_scrambled_semantic=8&num_scrambled_causal=4&num_scrambled_schematic=4&participantId=A07C19884DD34DE9B68B603C24791418&assignmentId=0198be8f-6a56-7fea-b704-5126c35c817d&projectId=0198be8b-78cf-72d2-ba2b-1e62c78022e0","A07C19884DD34DE9B68B603C24791418-2025-08-18-20-27-31","","null","","[]","null","",""
"","","","","","image-button-response","92","452184","0.0-14.0-1.0-0.1","A07C19884DD34DE9B68B603C24791418","A07C19884DD34DE9B68B603C24791418","0198be8f-6a56-7fea-b704-5126c35c817d","0198be8b-78cf-72d2-ba2b-1e62c78022e0","{""num_scrambled_semantic"":""8"",""num_scrambled_causal"":""4"",""num_scrambled_schematic"":""4"",""participantId"":""A07C19884DD34DE9B68B603C24791418"",""assignmentId"":""0198be8f-6a56-7fea-b704-5126c35c817d"",""projectId"":""0198be8b-78cf-72d2-ba2b-1e62c78022e0""}","https://test12345.live/?num_scrambled_semantic=8&num_scrambled_causal=4&num_scrambled_schematic=4&participantId=A07C19884DD34DE9B68B603C24791418&assignmentId=0198be8f-6a56-7fea-b704-5126c35c817d&projectId=0198be8b-78cf-72d2-ba2b-1e62c78022e0","A07C19884DD34DE9B68B603C24791418-2025-08-18-20-27-31","","null","","images/semantic_sequence/housework_semantic/housework_semantic_8.png","null","",""
"","","","","","image-button-response","93","453696","0.0-14.0-1.0-1.1","A07C19884DD34DE9B68B603C24791418","A07C19884DD34DE9B68B603C24791418","0198be8f-6a56-7fea-b704-5126c35c817d","0198be8b-78cf-72d2-ba2b-1e62c78022e0","{""num_scrambled_semantic"":""8"",""num_scrambled_causal"":""4"",""num_scrambled_schematic"":""4"",""participantId"":""A07C19884DD34DE9B68B603C24791418"",""assignmentId"":""0198be8f-6a56-7fea-b704-5126c35c817d"",""projectId"":""0198be8b-78cf-72d2-ba2b-1e62c78022e0""}","https://test12345.live/?num_scrambled_semantic=8&num_scrambled_causal=4&num_scrambled_schematic=4&participantId=A07C19884DD34DE9B68B603C24791418&assignmentId=0198be8f-6a56-7fea-b704-5126c35c817d&projectId=0198be8b-78cf-72d2-ba2b-1e62c78022e0","A07C19884DD34DE9B68B603C24791418-2025-08-18-20-27-31","","1510","","images/semantic_sequence/housework_semantic/housework_semantic_8.png","0","",""
"","","","","","image-button-response","94","455508","0.0-14.0-1.0-2.1","A07C19884DD34DE9B68B603C24791418","A07C19884DD34DE9B68B603C24791418","0198be8f-6a56-7fea-b704-5126c35c817d","0198be8b-78cf-72d2-ba2b-1e62c78022e0","{""num_scrambled_semantic"":""8"",""num_scrambled_causal"":""4"",""num_scrambled_schematic"":""4"",""participantId"":""A07C19884DD34DE9B68B603C24791418"",""assignmentId"":""0198be8f-6a56-7fea-b704-5126c35c817d"",""projectId"":""0198be8b-78cf-72d2-ba2b-1e62c78022e0""}","https://test12345.live/?num_scrambled_semantic=8&num_scrambled_causal=4&num_scrambled_schematic=4&participantId=A07C19884DD34DE9B68B603C24791418&assignmentId=0198be8f-6a56-7fea-b704-5126c35c817d&projectId=0198be8b-78cf-72d2-ba2b-1e62c78022e0","A07C19884DD34DE9B68B603C24791418-2025-08-18-20-27-31","","null","","[]","null","",""
"","","","","","image-button-response","95","460016","0.0-14.0-1.0-0.2","A07C19884DD34DE9B68B603C24791418","A07C19884DD34DE9B68B603C24791418","0198be8f-6a56-7fea-b704-5126c35c817d","0198be8b-78cf-72d2-ba2b-1e62c78022e0","{""num_scrambled_semantic"":""8"",""num_scrambled_causal"":""4"",""num_scrambled_schematic"":""4"",""participantId"":""A07C19884DD34DE9B68B603C24791418"",""assignmentId"":""0198be8f-6a56-7fea-b704-5126c35c817d"",""projectId"":""0198be8b-78cf-72d2-ba2b-1e62c78022e0""}","https://test12345.live/?num_scrambled_semantic=8&num_scrambled_causal=4&num_scrambled_schematic=4&participantId=A07C19884DD34DE9B68B603C24791418&assignmentId=0198be8f-6a56-7fea-b704-5126c35c817d&projectId=0198be8b-78cf-72d2-ba2b-1e62c78022e0","A07C19884DD34DE9B68B603C24791418-2025-08-18-20-27-31","","null","","images/semantic_sequence/housework_semantic/housework_semantic_5.png","null","",""
"","","","","","image-button-response","96","461294","0.0-14.0-1.0-1.2","A07C19884DD34DE9B68B603C24791418","A07C19884DD34DE9B68B603C24791418","0198be8f-6a56-7fea-b704-5126c35c817d","0198be8b-78cf-72d2-ba2b-1e62c78022e0","{""num_scrambled_semantic"":""8"",""num_scrambled_causal"":""4"",""num_scrambled_schematic"":""4"",""participantId"":""A07C19884DD34DE9B68B603C24791418"",""assignmentId"":""0198be8f-6a56-7fea-b704-5126c35c817d"",""projectId"":""0198be8b-78cf-72d2-ba2b-1e62c78022e0""}","https://test12345.live/?num_scrambled_semantic=8&num_scrambled_causal=4&num_scrambled_schematic=4&participantId=A07C19884DD34DE9B68B603C24791418&assignmentId=0198be8f-6a56-7fea-b704-5126c35c817d&projectId=0198be8b-78cf-72d2-ba2b-1e62c78022e0","A07C19884DD34DE9B68B603C24791418-2025-08-18-20-27-31","","1277","","images/semantic_sequence/housework_semantic/housework_semantic_5.png","0","",""
"","","","","","image-button-response","97","463106","0.0-14.0-1.0-2.2","A07C19884DD34DE9B68B603C24791418","A07C19884DD34DE9B68B603C24791418","0198be8f-6a56-7fea-b704-5126c35c817d","0198be8b-78cf-72d2-ba2b-1e62c78022e0","{""num_scrambled_semantic"":""8"",""num_scrambled_causal"":""4"",""num_scrambled_schematic"":""4"",""participantId"":""A07C19884DD34DE9B68B603C24791418"",""assignmentId"":""0198be8f-6a56-7fea-b704-5126c35c817d"",""projectId"":""0198be8b-78cf-72d2-ba2b-1e62c78022e0""}","https://test12345.live/?num_scrambled_semantic=8&num_scrambled_causal=4&num_scrambled_schematic=4&participantId=A07C19884DD34DE9B68B603C24791418&assignmentId=0198be8f-6a56-7fea-b704-5126c35c817d&projectId=0198be8b-78cf-72d2-ba2b-1e62c78022e0","A07C19884DD34DE9B68B603C24791418-2025-08-18-20-27-31","","null","","[]","null","",""
"","","","","","image-button-response","98","467615","0.0-14.0-1.0-0.3","A07C19884DD34DE9B68B603C24791418","A07C19884DD34DE9B68B603C24791418","0198be8f-6a56-7fea-b704-5126c35c817d","0198be8b-78cf-72d2-ba2b-1e62c78022e0","{""num_scrambled_semantic"":""8"",""num_scrambled_causal"":""4"",""num_scrambled_schematic"":""4"",""participantId"":""A07C19884DD34DE9B68B603C24791418"",""assignmentId"":""0198be8f-6a56-7fea-b704-5126c35c817d"",""projectId"":""0198be8b-78cf-72d2-ba2b-1e62c78022e0""}","https://test12345.live/?num_scrambled_semantic=8&num_scrambled_causal=4&num_scrambled_schematic=4&participantId=A07C19884DD34DE9B68B603C24791418&assignmentId=0198be8f-6a56-7fea-b704-5126c35c817d&projectId=0198be8b-78cf-72d2-ba2b-1e62c78022e0","A07C19884DD34DE9B68B603C24791418-2025-08-18-20-27-31","","null","","images/semantic_sequence/housework_semantic/housework_semantic_6.png","null","",""
"","","","","","image-button-response","99","468457","0.0-14.0-1.0-1.3","A07C19884DD34DE9B68B603C24791418","A07C19884DD34DE9B68B603C24791418","0198be8f-6a56-7fea-b704-5126c35c817d","0198be8b-78cf-72d2-ba2b-1e62c78022e0","{""num_scrambled_semantic"":""8"",""num_scrambled_causal"":""4"",""num_scrambled_schematic"":""4"",""participantId"":""A07C19884DD34DE9B68B603C24791418"",""assignmentId"":""0198be8f-6a56-7fea-b704-5126c35c817d"",""projectId"":""0198be8b-78cf-72d2-ba2b-1e62c78022e0""}","https://test12345.live/?num_scrambled_semantic=8&num_scrambled_causal=4&num_scrambled_schematic=4&participantId=A07C19884DD34DE9B68B603C24791418&assignmentId=0198be8f-6a56-7fea-b704-5126c35c817d&projectId=0198be8b-78cf-72d2-ba2b-1e62c78022e0","A07C19884DD34DE9B68B603C24791418-2025-08-18-20-27-31","","841","","images/semantic_sequence/housework_semantic/housework_semantic_6.png","0","",""
"","","","","","image-button-response","100","470265","0.0-14.0-1.0-2.3","A07C19884DD34DE9B68B603C24791418","A07C19884DD34DE9B68B603C24791418","0198be8f-6a56-7fea-b704-5126c35c817d","0198be8b-78cf-72d2-ba2b-1e62c78022e0","{""num_scrambled_semantic"":""8"",""num_scrambled_causal"":""4"",""num_scrambled_schematic"":""4"",""participantId"":""A07C19884DD34DE9B68B603C24791418"",""assignmentId"":""0198be8f-6a56-7fea-b704-5126c35c817d"",""projectId"":""0198be8b-78cf-72d2-ba2b-1e62c78022e0""}","https://test12345.live/?num_scrambled_semantic=8&num_scrambled_causal=4&num_scrambled_schematic=4&participantId=A07C19884DD34DE9B68B603C24791418&assignmentId=0198be8f-6a56-7fea-b704-5126c35c817d&projectId=0198be8b-78cf-72d2-ba2b-1e62c78022e0","A07C19884DD34DE9B68B603C24791418-2025-08-18-20-27-31","","null","","[]","null","",""
"","","","","","image-button-response","101","474772","0.0-14.0-1.0-0.4","A07C19884DD34DE9B68B603C24791418","A07C19884DD34DE9B68B603C24791418","0198be8f-6a56-7fea-b704-5126c35c817d","0198be8b-78cf-72d2-ba2b-1e62c78022e0","{""num_scrambled_semantic"":""8"",""num_scrambled_causal"":""4"",""num_scrambled_schematic"":""4"",""participantId"":""A07C19884DD34DE9B68B603C24791418"",""assignmentId"":""0198be8f-6a56-7fea-b704-5126c35c817d"",""projectId"":""0198be8b-78cf-72d2-ba2b-1e62c78022e0""}","https://test12345.live/?num_scrambled_semantic=8&num_scrambled_causal=4&num_scrambled_schematic=4&participantId=A07C19884DD34DE9B68B603C24791418&assignmentId=0198be8f-6a56-7fea-b704-5126c35c817d&projectId=0198be8b-78cf-72d2-ba2b-1e62c78022e0","A07C19884DD34DE9B68B603C24791418-2025-08-18-20-27-31","","null","","images/semantic_sequence/housework_semantic/housework_semantic_ten.png","null","",""
"","","","","","image-button-response","102","475660","0.0-14.0-1.0-1.4","A07C19884DD34DE9B68B603C24791418","A07C19884DD34DE9B68B603C24791418","0198be8f-6a56-7fea-b704-5126c35c817d","0198be8b-78cf-72d2-ba2b-1e62c78022e0","{""num_scrambled_semantic"":""8"",""num_scrambled_causal"":""4"",""num_scrambled_schematic"":""4"",""participantId"":""A07C19884DD34DE9B68B603C24791418"",""assignmentId"":""0198be8f-6a56-7fea-b704-5126c35c817d"",""projectId"":""0198be8b-78cf-72d2-ba2b-1e62c78022e0""}","https://test12345.live/?num_scrambled_semantic=8&num_scrambled_causal=4&num_scrambled_schematic=4&participantId=A07C19884DD34DE9B68B603C24791418&assignmentId=0198be8f-6a56-7fea-b704-5126c35c817d&projectId=0198be8b-78cf-72d2-ba2b-1e62c78022e0","A07C19884DD34DE9B68B603C24791418-2025-08-18-20-27-31","","887","","images/semantic_sequence/housework_semantic/housework_semantic_ten.png","0","",""
"","","","","","image-button-response","103","477475","0.0-14.0-1.0-2.4","A07C19884DD34DE9B68B603C24791418","A07C19884DD34DE9B68B603C24791418","0198be8f-6a56-7fea-b704-5126c35c817d","0198be8b-78cf-72d2-ba2b-1e62c78022e0","{""num_scrambled_semantic"":""8"",""num_scrambled_causal"":""4"",""num_scrambled_schematic"":""4"",""participantId"":""A07C19884DD34DE9B68B603C24791418"",""assignmentId"":""0198be8f-6a56-7fea-b704-5126c35c817d"",""projectId"":""0198be8b-78cf-72d2-ba2b-1e62c78022e0""}","https://test12345.live/?num_scrambled_semantic=8&num_scrambled_causal=4&num_scrambled_schematic=4&participantId=A07C19884DD34DE9B68B603C24791418&assignmentId=0198be8f-6a56-7fea-b704-5126c35c817d&projectId=0198be8b-78cf-72d2-ba2b-1e62c78022e0","A07C19884DD34DE9B68B603C24791418-2025-08-18-20-27-31","","null","","[]","null","",""
"","","","","","image-button-response","104","481982","0.0-14.0-1.0-0.5","A07C19884DD34DE9B68B603C24791418","A07C19884DD34DE9B68B603C24791418","0198be8f-6a56-7fea-b704-5126c35c817d","0198be8b-78cf-72d2-ba2b-1e62c78022e0","{""num_scrambled_semantic"":""8"",""num_scrambled_causal"":""4"",""num_scrambled_schematic"":""4"",""participantId"":""A07C19884DD34DE9B68B603C24791418"",""assignmentId"":""0198be8f-6a56-7fea-b704-5126c35c817d"",""projectId"":""0198be8b-78cf-72d2-ba2b-1e62c78022e0""}","https://test12345.live/?num_scrambled_semantic=8&num_scrambled_causal=4&num_scrambled_schematic=4&participantId=A07C19884DD34DE9B68B603C24791418&assignmentId=0198be8f-6a56-7fea-b704-5126c35c817d&projectId=0198be8b-78cf-72d2-ba2b-1e62c78022e0","A07C19884DD34DE9B68B603C24791418-2025-08-18-20-27-31","","null","","images/semantic_sequence/housework_semantic/housework_semantic_9.png","null","",""
"","","","","","image-button-response","105","482702","0.0-14.0-1.0-1.5","A07C19884DD34DE9B68B603C24791418","A07C19884DD34DE9B68B603C24791418","0198be8f-6a56-7fea-b704-5126c35c817d","0198be8b-78cf-72d2-ba2b-1e62c78022e0","{""num_scrambled_semantic"":""8"",""num_scrambled_causal"":""4"",""num_scrambled_schematic"":""4"",""participantId"":""A07C19884DD34DE9B68B603C24791418"",""assignmentId"":""0198be8f-6a56-7fea-b704-5126c35c817d"",""projectId"":""0198be8b-78cf-72d2-ba2b-1e62c78022e0""}","https://test12345.live/?num_scrambled_semantic=8&num_scrambled_causal=4&num_scrambled_schematic=4&participantId=A07C19884DD34DE9B68B603C24791418&assignmentId=0198be8f-6a56-7fea-b704-5126c35c817d&projectId=0198be8b-78cf-72d2-ba2b-1e62c78022e0","A07C19884DD34DE9B68B603C24791418-2025-08-18-20-27-31","","718","","images/semantic_sequence/housework_semantic/housework_semantic_9.png","0","",""
"","","","","","image-button-response","106","484517","0.0-14.0-1.0-2.5","A07C19884DD34DE9B68B603C24791418","A07C19884DD34DE9B68B603C24791418","0198be8f-6a56-7fea-b704-5126c35c817d","0198be8b-78cf-72d2-ba2b-1e62c78022e0","{""num_scrambled_semantic"":""8"",""num_scrambled_causal"":""4"",""num_scrambled_schematic"":""4"",""participantId"":""A07C19884DD34DE9B68B603C24791418"",""assignmentId"":""0198be8f-6a56-7fea-b704-5126c35c817d"",""projectId"":""0198be8b-78cf-72d2-ba2b-1e62c78022e0""}","https://test12345.live/?num_scrambled_semantic=8&num_scrambled_causal=4&num_scrambled_schematic=4&participantId=A07C19884DD34DE9B68B603C24791418&assignmentId=0198be8f-6a56-7fea-b704-5126c35c817d&projectId=0198be8b-78cf-72d2-ba2b-1e62c78022e0","A07C19884DD34DE9B68B603C24791418-2025-08-18-20-27-31","","null","","[]","null","",""
"","","","","","image-button-response","107","489022","0.0-14.0-1.0-0.6","A07C19884DD34DE9B68B603C24791418","A07C19884DD34DE9B68B603C24791418","0198be8f-6a56-7fea-b704-5126c35c817d","0198be8b-78cf-72d2-ba2b-1e62c78022e0","{""num_scrambled_semantic"":""8"",""num_scrambled_causal"":""4"",""num_scrambled_schematic"":""4"",""participantId"":""A07C19884DD34DE9B68B603C24791418"",""assignmentId"":""0198be8f-6a56-7fea-b704-5126c35c817d"",""projectId"":""0198be8b-78cf-72d2-ba2b-1e62c78022e0""}","https://test12345.live/?num_scrambled_semantic=8&num_scrambled_causal=4&num_scrambled_schematic=4&participantId=A07C19884DD34DE9B68B603C24791418&assignmentId=0198be8f-6a56-7fea-b704-5126c35c817d&projectId=0198be8b-78cf-72d2-ba2b-1e62c78022e0","A07C19884DD34DE9B68B603C24791418-2025-08-18-20-27-31","","null","","images/semantic_sequence/housework_semantic/housework_semantic_1.png","null","",""
"","","","","","image-button-response","108","489996","0.0-14.0-1.0-1.6","A07C19884DD34DE9B68B603C24791418","A07C19884DD34DE9B68B603C24791418","0198be8f-6a56-7fea-b704-5126c35c817d","0198be8b-78cf-72d2-ba2b-1e62c78022e0","{""num_scrambled_semantic"":""8"",""num_scrambled_causal"":""4"",""num_scrambled_schematic"":""4"",""participantId"":""A07C19884DD34DE9B68B603C24791418"",""assignmentId"":""0198be8f-6a56-7fea-b704-5126c35c817d"",""projectId"":""0198be8b-78cf-72d2-ba2b-1e62c78022e0""}","https://test12345.live/?num_scrambled_semantic=8&num_scrambled_causal=4&num_scrambled_schematic=4&participantId=A07C19884DD34DE9B68B603C24791418&assignmentId=0198be8f-6a56-7fea-b704-5126c35c817d&projectId=0198be8b-78cf-72d2-ba2b-1e62c78022e0","A07C19884DD34DE9B68B603C24791418-2025-08-18-20-27-31","","973","","images/semantic_sequence/housework_semantic/housework_semantic_1.png","1","",""
"","","","","","image-button-response","109","491804","0.0-14.0-1.0-2.6","A07C19884DD34DE9B68B603C24791418","A07C19884DD34DE9B68B603C24791418","0198be8f-6a56-7fea-b704-5126c35c817d","0198be8b-78cf-72d2-ba2b-1e62c78022e0","{""num_scrambled_semantic"":""8"",""num_scrambled_causal"":""4"",""num_scrambled_schematic"":""4"",""participantId"":""A07C19884DD34DE9B68B603C24791418"",""assignmentId"":""0198be8f-6a56-7fea-b704-5126c35c817d"",""projectId"":""0198be8b-78cf-72d2-ba2b-1e62c78022e0""}","https://test12345.live/?num_scrambled_semantic=8&num_scrambled_causal=4&num_scrambled_schematic=4&participantId=A07C19884DD34DE9B68B603C24791418&assignmentId=0198be8f-6a56-7fea-b704-5126c35c817d&projectId=0198be8b-78cf-72d2-ba2b-1e62c78022e0","A07C19884DD34DE9B68B603C24791418-2025-08-18-20-27-31","","null","","[]","null","",""
"","","","","","image-button-response","110","496306","0.0-14.0-1.0-0.7","A07C19884DD34DE9B68B603C24791418","A07C19884DD34DE9B68B603C24791418","0198be8f-6a56-7fea-b704-5126c35c817d","0198be8b-78cf-72d2-ba2b-1e62c78022e0","{""num_scrambled_semantic"":""8"",""num_scrambled_causal"":""4"",""num_scrambled_schematic"":""4"",""participantId"":""A07C19884DD34DE9B68B603C24791418"",""assignmentId"":""0198be8f-6a56-7fea-b704-5126c35c817d"",""projectId"":""0198be8b-78cf-72d2-ba2b-1e62c78022e0""}","https://test12345.live/?num_scrambled_semantic=8&num_scrambled_causal=4&num_scrambled_schematic=4&participantId=A07C19884DD34DE9B68B603C24791418&assignmentId=0198be8f-6a56-7fea-b704-5126c35c817d&projectId=0198be8b-78cf-72d2-ba2b-1e62c78022e0","A07C19884DD34DE9B68B603C24791418-2025-08-18-20-27-31","","null","","images/semantic_sequence/housework_semantic/housework_semantic_3.png","null","",""
"","","","","","image-button-response","111","497435","0.0-14.0-1.0-1.7","A07C19884DD34DE9B68B603C24791418","A07C19884DD34DE9B68B603C24791418","0198be8f-6a56-7fea-b704-5126c35c817d","0198be8b-78cf-72d2-ba2b-1e62c78022e0","{""num_scrambled_semantic"":""8"",""num_scrambled_causal"":""4"",""num_scrambled_schematic"":""4"",""participantId"":""A07C19884DD34DE9B68B603C24791418"",""assignmentId"":""0198be8f-6a56-7fea-b704-5126c35c817d"",""projectId"":""0198be8b-78cf-72d2-ba2b-1e62c78022e0""}","https://test12345.live/?num_scrambled_semantic=8&num_scrambled_causal=4&num_scrambled_schematic=4&participantId=A07C19884DD34DE9B68B603C24791418&assignmentId=0198be8f-6a56-7fea-b704-5126c35c817d&projectId=0198be8b-78cf-72d2-ba2b-1e62c78022e0","A07C19884DD34DE9B68B603C24791418-2025-08-18-20-27-31","","1128","","images/semantic_sequence/housework_semantic/housework_semantic_3.png","0","",""
"","","","","","image-button-response","112","499249","0.0-14.0-1.0-2.7","A07C19884DD34DE9B68B603C24791418","A07C19884DD34DE9B68B603C24791418","0198be8f-6a56-7fea-b704-5126c35c817d","0198be8b-78cf-72d2-ba2b-1e62c78022e0","{""num_scrambled_semantic"":""8"",""num_scrambled_causal"":""4"",""num_scrambled_schematic"":""4"",""participantId"":""A07C19884DD34DE9B68B603C24791418"",""assignmentId"":""0198be8f-6a56-7fea-b704-5126c35c817d"",""projectId"":""0198be8b-78cf-72d2-ba2b-1e62c78022e0""}","https://test12345.live/?num_scrambled_semantic=8&num_scrambled_causal=4&num_scrambled_schematic=4&participantId=A07C19884DD34DE9B68B603C24791418&assignmentId=0198be8f-6a56-7fea-b704-5126c35c817d&projectId=0198be8b-78cf-72d2-ba2b-1e62c78022e0","A07C19884DD34DE9B68B603C24791418-2025-08-18-20-27-31","","null","","[]","null","",""
"","","","","","image-button-response","113","503753","0.0-14.0-1.0-0.8","A07C19884DD34DE9B68B603C24791418","A07C19884DD34DE9B68B603C24791418","0198be8f-6a56-7fea-b704-5126c35c817d","0198be8b-78cf-72d2-ba2b-1e62c78022e0","{""num_scrambled_semantic"":""8"",""num_scrambled_causal"":""4"",""num_scrambled_schematic"":""4"",""participantId"":""A07C19884DD34DE9B68B603C24791418"",""assignmentId"":""0198be8f-6a56-7fea-b704-5126c35c817d"",""projectId"":""0198be8b-78cf-72d2-ba2b-1e62c78022e0""}","https://test12345.live/?num_scrambled_semantic=8&num_scrambled_causal=4&num_scrambled_schematic=4&participantId=A07C19884DD34DE9B68B603C24791418&assignmentId=0198be8f-6a56-7fea-b704-5126c35c817d&projectId=0198be8b-78cf-72d2-ba2b-1e62c78022e0","A07C19884DD34DE9B68B603C24791418-2025-08-18-20-27-31","","null","","images/semantic_sequence/housework_semantic/housework_semantic_2.png","null","",""
