"success","timeout","failed_images","failed_audio","failed_video","trial_type","trial_index","time_elapsed","internal_node_id","subject","subject_id","study_id","session_id","urlvar","current_url","audio_id","view_history","rt","device_id","stimulus","response","estimated_stimulus_onset","seq_name"
"true","false","[]","[]","[]","preload","0","4944","0.0-0.0","A212555F1B764AB68A8851FE624A86A5","A212555F1B764AB68A8851FE624A86A5","0198be36-6fcc-7ad8-a9e6-93be354ab198","0198be1d-574a-752e-ae53-1d263a30e856","{""num_scrambled_semantic"":""8"",""num_scrambled_causal"":""4"",""num_scrambled_schematic"":""4"",""participantId"":""A212555F1B764AB68A8851FE624A86A5"",""assignmentId"":""0198be36-6fcc-7ad8-a9e6-93be354ab198"",""projectId"":""0198be1d-574a-752e-ae53-1d263a30e856""}","https://test12345.live/?num_scrambled_semantic=8&num_scrambled_causal=4&num_scrambled_schematic=4&participantId=A212555F1B764AB68A8851FE624A86A5&assignmentId=0198be36-6fcc-7ad8-a9e6-93be354ab198&projectId=0198be1d-574a-752e-ae53-1d263a30e856","A212555F1B764AB68A8851FE624A86A5-2025-08-18-18-13-59","","","","","","",""
"","","","","","instructions","1","110429","0.0-1.0","A212555F1B764AB68A8851FE624A86A5","A212555F1B764AB68A8851FE624A86A5","0198be36-6fcc-7ad8-a9e6-93be354ab198","0198be1d-574a-752e-ae53-1d263a30e856","{""num_scrambled_semantic"":""8"",""num_scrambled_causal"":""4"",""num_scrambled_schematic"":""4"",""participantId"":""A212555F1B764AB68A8851FE624A86A5"",""assignmentId"":""0198be36-6fcc-7ad8-a9e6-93be354ab198"",""projectId"":""0198be1d-574a-752e-ae53-1d263a30e856""}","https://test12345.live/?num_scrambled_semantic=8&num_scrambled_causal=4&num_scrambled_schematic=4&participantId=A212555F1B764AB68A8851FE624A86A5&assignmentId=0198be36-6fcc-7ad8-a9e6-93be354ab198&projectId=0198be1d-574a-752e-ae53-1d263a30e856","A212555F1B764AB68A8851FE624A86A5-2025-08-18-18-13-59","[{""page_index"":0,""viewing_time"":105484}]","105485","","","","",""
"","","","","","instructions","2","183246","0.0-2.0","A212555F1B764AB68A8851FE624A86A5","A212555F1B764AB68A8851FE624A86A5","0198be36-6fcc-7ad8-a9e6-93be354ab198","0198be1d-574a-752e-ae53-1d263a30e856","{""num_scrambled_semantic"":""8"",""num_scrambled_causal"":""4"",""num_scrambled_schematic"":""4"",""participantId"":""A212555F1B764AB68A8851FE624A86A5"",""assignmentId"":""0198be36-6fcc-7ad8-a9e6-93be354ab198"",""projectId"":""0198be1d-574a-752e-ae53-1d263a30e856""}","https://test12345.live/?num_scrambled_semantic=8&num_scrambled_causal=4&num_scrambled_schematic=4&participantId=A212555F1B764AB68A8851FE624A86A5&assignmentId=0198be36-6fcc-7ad8-a9e6-93be354ab198&projectId=0198be1d-574a-752e-ae53-1d263a30e856","A212555F1B764AB68A8851FE624A86A5-2025-08-18-18-13-59","[{""page_index"":0,""viewing_time"":72816}]","72816","","","","",""
"true","","","","","fullscreen","3","186485","0.0-3.0","A212555F1B764AB68A8851FE624A86A5","A212555F1B764AB68A8851FE624A86A5","0198be36-6fcc-7ad8-a9e6-93be354ab198","0198be1d-574a-752e-ae53-1d263a30e856","{""num_scrambled_semantic"":""8"",""num_scrambled_causal"":""4"",""num_scrambled_schematic"":""4"",""participantId"":""A212555F1B764AB68A8851FE624A86A5"",""assignmentId"":""0198be36-6fcc-7ad8-a9e6-93be354ab198"",""projectId"":""0198be1d-574a-752e-ae53-1d263a30e856""}","https://test12345.live/?num_scrambled_semantic=8&num_scrambled_causal=4&num_scrambled_schematic=4&participantId=A212555F1B764AB68A8851FE624A86A5&assignmentId=0198be36-6fcc-7ad8-a9e6-93be354ab198&projectId=0198be1d-574a-752e-ae53-1d263a30e856","A212555F1B764AB68A8851FE624A86A5-2025-08-18-18-13-59","","2228","","","","",""
"","","","","","initialize-microphone","4","195377","0.0-4.0-0.0","A212555F1B764AB68A8851FE624A86A5","A212555F1B764AB68A8851FE624A86A5","0198be36-6fcc-7ad8-a9e6-93be354ab198","0198be1d-574a-752e-ae53-1d263a30e856","{""num_scrambled_semantic"":""8"",""num_scrambled_causal"":""4"",""num_scrambled_schematic"":""4"",""participantId"":""A212555F1B764AB68A8851FE624A86A5"",""assignmentId"":""0198be36-6fcc-7ad8-a9e6-93be354ab198"",""projectId"":""0198be1d-574a-752e-ae53-1d263a30e856""}","https://test12345.live/?num_scrambled_semantic=8&num_scrambled_causal=4&num_scrambled_schematic=4&participantId=A212555F1B764AB68A8851FE624A86A5&assignmentId=0198be36-6fcc-7ad8-a9e6-93be354ab198&projectId=0198be1d-574a-752e-ae53-1d263a30e856","A212555F1B764AB68A8851FE624A86A5-2025-08-18-18-13-59","","","v/ZnqM5Q57tzqxj+bschbVS5yeuNbj69Ec4wDkNcbfg=","","","",""
"","","","","","html-audio-response","5","441581","0.0-4.0-1.0","A212555F1B764AB68A8851FE624A86A5","A212555F1B764AB68A8851FE624A86A5","0198be36-6fcc-7ad8-a9e6-93be354ab198","0198be1d-574a-752e-ae53-1d263a30e856","{""num_scrambled_semantic"":""8"",""num_scrambled_causal"":""4"",""num_scrambled_schematic"":""4"",""participantId"":""A212555F1B764AB68A8851FE624A86A5"",""assignmentId"":""0198be36-6fcc-7ad8-a9e6-93be354ab198"",""projectId"":""0198be1d-574a-752e-ae53-1d263a30e856""}","https://test12345.live/?num_scrambled_semantic=8&num_scrambled_causal=4&num_scrambled_schematic=4&participantId=A212555F1B764AB68A8851FE624A86A5&assignmentId=0198be36-6fcc-7ad8-a9e6-93be354ab198&projectId=0198be1d-574a-752e-ae53-1d263a30e856","A212555F1B764AB68A8851FE624A86A5-2025-08-18-18-13-59","","9321","","<span style=""color: red; font-size: 24px""> NOW RECORDING</span>
        <p>Please test Microphone</p>","","2",""
"","","","","","html-button-response","6","444739","0.0-4.0-2.0","A212555F1B764AB68A8851FE624A86A5","A212555F1B764AB68A8851FE624A86A5","0198be36-6fcc-7ad8-a9e6-93be354ab198","0198be1d-574a-752e-ae53-1d263a30e856","{""num_scrambled_semantic"":""8"",""num_scrambled_causal"":""4"",""num_scrambled_schematic"":""4"",""participantId"":""A212555F1B764AB68A8851FE624A86A5"",""assignmentId"":""0198be36-6fcc-7ad8-a9e6-93be354ab198"",""projectId"":""0198be1d-574a-752e-ae53-1d263a30e856""}","https://test12345.live/?num_scrambled_semantic=8&num_scrambled_causal=4&num_scrambled_schematic=4&participantId=A212555F1B764AB68A8851FE624A86A5&assignmentId=0198be36-6fcc-7ad8-a9e6-93be354ab198&projectId=0198be1d-574a-752e-ae53-1d263a30e856","A212555F1B764AB68A8851FE624A86A5-2025-08-18-18-13-59","","3156","","<p style=""font-size:48px; color:red;"">Is Microphone OK?</p>","0","",""
"","","","","","initialize-microphone","7","452365","0.0-4.1-0.1","A212555F1B764AB68A8851FE624A86A5","A212555F1B764AB68A8851FE624A86A5","0198be36-6fcc-7ad8-a9e6-93be354ab198","0198be1d-574a-752e-ae53-1d263a30e856","{""num_scrambled_semantic"":""8"",""num_scrambled_causal"":""4"",""num_scrambled_schematic"":""4"",""participantId"":""A212555F1B764AB68A8851FE624A86A5"",""assignmentId"":""0198be36-6fcc-7ad8-a9e6-93be354ab198"",""projectId"":""0198be1d-574a-752e-ae53-1d263a30e856""}","https://test12345.live/?num_scrambled_semantic=8&num_scrambled_causal=4&num_scrambled_schematic=4&participantId=A212555F1B764AB68A8851FE624A86A5&assignmentId=0198be36-6fcc-7ad8-a9e6-93be354ab198&projectId=0198be1d-574a-752e-ae53-1d263a30e856","A212555F1B764AB68A8851FE624A86A5-2025-08-18-18-13-59","","","E2y2qRcqd0N2R0lg1vJHSA8MxKwWesHktO7IoCfEOBQ=","","","",""
"","","","","","html-audio-response","8","479415","0.0-4.1-1.1","A212555F1B764AB68A8851FE624A86A5","A212555F1B764AB68A8851FE624A86A5","0198be36-6fcc-7ad8-a9e6-93be354ab198","0198be1d-574a-752e-ae53-1d263a30e856","{""num_scrambled_semantic"":""8"",""num_scrambled_causal"":""4"",""num_scrambled_schematic"":""4"",""participantId"":""A212555F1B764AB68A8851FE624A86A5"",""assignmentId"":""0198be36-6fcc-7ad8-a9e6-93be354ab198"",""projectId"":""0198be1d-574a-752e-ae53-1d263a30e856""}","https://test12345.live/?num_scrambled_semantic=8&num_scrambled_causal=4&num_scrambled_schematic=4&participantId=A212555F1B764AB68A8851FE624A86A5&assignmentId=0198be36-6fcc-7ad8-a9e6-93be354ab198&projectId=0198be1d-574a-752e-ae53-1d263a30e856","A212555F1B764AB68A8851FE624A86A5-2025-08-18-18-13-59","","11356","","<span style=""color: red; font-size: 24px""> NOW RECORDING</span>
        <p>Please test Microphone</p>","","17",""
"","","","","","html-button-response","9","480715","0.0-4.1-2.1","A212555F1B764AB68A8851FE624A86A5","A212555F1B764AB68A8851FE624A86A5","0198be36-6fcc-7ad8-a9e6-93be354ab198","0198be1d-574a-752e-ae53-1d263a30e856","{""num_scrambled_semantic"":""8"",""num_scrambled_causal"":""4"",""num_scrambled_schematic"":""4"",""participantId"":""A212555F1B764AB68A8851FE624A86A5"",""assignmentId"":""0198be36-6fcc-7ad8-a9e6-93be354ab198"",""projectId"":""0198be1d-574a-752e-ae53-1d263a30e856""}","https://test12345.live/?num_scrambled_semantic=8&num_scrambled_causal=4&num_scrambled_schematic=4&participantId=A212555F1B764AB68A8851FE624A86A5&assignmentId=0198be36-6fcc-7ad8-a9e6-93be354ab198&projectId=0198be1d-574a-752e-ae53-1d263a30e856","A212555F1B764AB68A8851FE624A86A5-2025-08-18-18-13-59","","1301","","<p style=""font-size:48px; color:red;"">Is Microphone OK?</p>","1","",""
"","","","","","instructions","10","493287","0.0-5.0","A212555F1B764AB68A8851FE624A86A5","A212555F1B764AB68A8851FE624A86A5","0198be36-6fcc-7ad8-a9e6-93be354ab198","0198be1d-574a-752e-ae53-1d263a30e856","{""num_scrambled_semantic"":""8"",""num_scrambled_causal"":""4"",""num_scrambled_schematic"":""4"",""participantId"":""A212555F1B764AB68A8851FE624A86A5"",""assignmentId"":""0198be36-6fcc-7ad8-a9e6-93be354ab198"",""projectId"":""0198be1d-574a-752e-ae53-1d263a30e856""}","https://test12345.live/?num_scrambled_semantic=8&num_scrambled_causal=4&num_scrambled_schematic=4&participantId=A212555F1B764AB68A8851FE624A86A5&assignmentId=0198be36-6fcc-7ad8-a9e6-93be354ab198&projectId=0198be1d-574a-752e-ae53-1d263a30e856","A212555F1B764AB68A8851FE624A86A5-2025-08-18-18-13-59","[{""page_index"":0,""viewing_time"":5781},{""page_index"":1,""viewing_time"":6790}]","12571","","","","",""
"","","","","","image-button-response","11","499296","0.0-6.0-0.0","A212555F1B764AB68A8851FE624A86A5","A212555F1B764AB68A8851FE624A86A5","0198be36-6fcc-7ad8-a9e6-93be354ab198","0198be1d-574a-752e-ae53-1d263a30e856","{""num_scrambled_semantic"":""8"",""num_scrambled_causal"":""4"",""num_scrambled_schematic"":""4"",""participantId"":""A212555F1B764AB68A8851FE624A86A5"",""assignmentId"":""0198be36-6fcc-7ad8-a9e6-93be354ab198"",""projectId"":""0198be1d-574a-752e-ae53-1d263a30e856""}","https://test12345.live/?num_scrambled_semantic=8&num_scrambled_causal=4&num_scrambled_schematic=4&participantId=A212555F1B764AB68A8851FE624A86A5&assignmentId=0198be36-6fcc-7ad8-a9e6-93be354ab198&projectId=0198be1d-574a-752e-ae53-1d263a30e856","A212555F1B764AB68A8851FE624A86A5-2025-08-18-18-13-59","","null","","images/instructions/movie_0.png","null","",""
"","","","","","image-button-response","12","503814","0.0-6.0-1.0-0.0","A212555F1B764AB68A8851FE624A86A5","A212555F1B764AB68A8851FE624A86A5","0198be36-6fcc-7ad8-a9e6-93be354ab198","0198be1d-574a-752e-ae53-1d263a30e856","{""num_scrambled_semantic"":""8"",""num_scrambled_causal"":""4"",""num_scrambled_schematic"":""4"",""participantId"":""A212555F1B764AB68A8851FE624A86A5"",""assignmentId"":""0198be36-6fcc-7ad8-a9e6-93be354ab198"",""projectId"":""0198be1d-574a-752e-ae53-1d263a30e856""}","https://test12345.live/?num_scrambled_semantic=8&num_scrambled_causal=4&num_scrambled_schematic=4&participantId=A212555F1B764AB68A8851FE624A86A5&assignmentId=0198be36-6fcc-7ad8-a9e6-93be354ab198&projectId=0198be1d-574a-752e-ae53-1d263a30e856","A212555F1B764AB68A8851FE624A86A5-2025-08-18-18-13-59","","null","","images/instructions/movie_1.png","null","",""
"","","","","","image-button-response","13","507152","0.0-6.0-1.0-1.0","A212555F1B764AB68A8851FE624A86A5","A212555F1B764AB68A8851FE624A86A5","0198be36-6fcc-7ad8-a9e6-93be354ab198","0198be1d-574a-752e-ae53-1d263a30e856","{""num_scrambled_semantic"":""8"",""num_scrambled_causal"":""4"",""num_scrambled_schematic"":""4"",""participantId"":""A212555F1B764AB68A8851FE624A86A5"",""assignmentId"":""0198be36-6fcc-7ad8-a9e6-93be354ab198"",""projectId"":""0198be1d-574a-752e-ae53-1d263a30e856""}","https://test12345.live/?num_scrambled_semantic=8&num_scrambled_causal=4&num_scrambled_schematic=4&participantId=A212555F1B764AB68A8851FE624A86A5&assignmentId=0198be36-6fcc-7ad8-a9e6-93be354ab198&projectId=0198be1d-574a-752e-ae53-1d263a30e856","A212555F1B764AB68A8851FE624A86A5-2025-08-18-18-13-59","","3338","","images/instructions/movie_1.png","0","",""
"","","","","","image-button-response","14","517953","0.0-6.0-1.0-2.0","A212555F1B764AB68A8851FE624A86A5","A212555F1B764AB68A8851FE624A86A5","0198be36-6fcc-7ad8-a9e6-93be354ab198","0198be1d-574a-752e-ae53-1d263a30e856","{""num_scrambled_semantic"":""8"",""num_scrambled_causal"":""4"",""num_scrambled_schematic"":""4"",""participantId"":""A212555F1B764AB68A8851FE624A86A5"",""assignmentId"":""0198be36-6fcc-7ad8-a9e6-93be354ab198"",""projectId"":""0198be1d-574a-752e-ae53-1d263a30e856""}","https://test12345.live/?num_scrambled_semantic=8&num_scrambled_causal=4&num_scrambled_schematic=4&participantId=A212555F1B764AB68A8851FE624A86A5&assignmentId=0198be36-6fcc-7ad8-a9e6-93be354ab198&projectId=0198be1d-574a-752e-ae53-1d263a30e856","A212555F1B764AB68A8851FE624A86A5-2025-08-18-18-13-59","","null","","[]","null","",""
"","","","","","image-button-response","15","522467","0.0-6.0-1.0-0.1","A212555F1B764AB68A8851FE624A86A5","A212555F1B764AB68A8851FE624A86A5","0198be36-6fcc-7ad8-a9e6-93be354ab198","0198be1d-574a-752e-ae53-1d263a30e856","{""num_scrambled_semantic"":""8"",""num_scrambled_causal"":""4"",""num_scrambled_schematic"":""4"",""participantId"":""A212555F1B764AB68A8851FE624A86A5"",""assignmentId"":""0198be36-6fcc-7ad8-a9e6-93be354ab198"",""projectId"":""0198be1d-574a-752e-ae53-1d263a30e856""}","https://test12345.live/?num_scrambled_semantic=8&num_scrambled_causal=4&num_scrambled_schematic=4&participantId=A212555F1B764AB68A8851FE624A86A5&assignmentId=0198be36-6fcc-7ad8-a9e6-93be354ab198&projectId=0198be1d-574a-752e-ae53-1d263a30e856","A212555F1B764AB68A8851FE624A86A5-2025-08-18-18-13-59","","null","","images/instructions/movie_2.png","null","",""
"","","","","","image-button-response","16","525377","0.0-6.0-1.0-1.1","A212555F1B764AB68A8851FE624A86A5","A212555F1B764AB68A8851FE624A86A5","0198be36-6fcc-7ad8-a9e6-93be354ab198","0198be1d-574a-752e-ae53-1d263a30e856","{""num_scrambled_semantic"":""8"",""num_scrambled_causal"":""4"",""num_scrambled_schematic"":""4"",""participantId"":""A212555F1B764AB68A8851FE624A86A5"",""assignmentId"":""0198be36-6fcc-7ad8-a9e6-93be354ab198"",""projectId"":""0198be1d-574a-752e-ae53-1d263a30e856""}","https://test12345.live/?num_scrambled_semantic=8&num_scrambled_causal=4&num_scrambled_schematic=4&participantId=A212555F1B764AB68A8851FE624A86A5&assignmentId=0198be36-6fcc-7ad8-a9e6-93be354ab198&projectId=0198be1d-574a-752e-ae53-1d263a30e856","A212555F1B764AB68A8851FE624A86A5-2025-08-18-18-13-59","","2909","","images/instructions/movie_2.png","0","",""
"","","","","","image-button-response","17","536180","0.0-6.0-1.0-2.1","A212555F1B764AB68A8851FE624A86A5","A212555F1B764AB68A8851FE624A86A5","0198be36-6fcc-7ad8-a9e6-93be354ab198","0198be1d-574a-752e-ae53-1d263a30e856","{""num_scrambled_semantic"":""8"",""num_scrambled_causal"":""4"",""num_scrambled_schematic"":""4"",""participantId"":""A212555F1B764AB68A8851FE624A86A5"",""assignmentId"":""0198be36-6fcc-7ad8-a9e6-93be354ab198"",""projectId"":""0198be1d-574a-752e-ae53-1d263a30e856""}","https://test12345.live/?num_scrambled_semantic=8&num_scrambled_causal=4&num_scrambled_schematic=4&participantId=A212555F1B764AB68A8851FE624A86A5&assignmentId=0198be36-6fcc-7ad8-a9e6-93be354ab198&projectId=0198be1d-574a-752e-ae53-1d263a30e856","A212555F1B764AB68A8851FE624A86A5-2025-08-18-18-13-59","","null","","[]","null","",""
"","","","","","image-button-response","18","540766","0.0-6.0-1.0-0.2","A212555F1B764AB68A8851FE624A86A5","A212555F1B764AB68A8851FE624A86A5","0198be36-6fcc-7ad8-a9e6-93be354ab198","0198be1d-574a-752e-ae53-1d263a30e856","{""num_scrambled_semantic"":""8"",""num_scrambled_causal"":""4"",""num_scrambled_schematic"":""4"",""participantId"":""A212555F1B764AB68A8851FE624A86A5"",""assignmentId"":""0198be36-6fcc-7ad8-a9e6-93be354ab198"",""projectId"":""0198be1d-574a-752e-ae53-1d263a30e856""}","https://test12345.live/?num_scrambled_semantic=8&num_scrambled_causal=4&num_scrambled_schematic=4&participantId=A212555F1B764AB68A8851FE624A86A5&assignmentId=0198be36-6fcc-7ad8-a9e6-93be354ab198&projectId=0198be1d-574a-752e-ae53-1d263a30e856","A212555F1B764AB68A8851FE624A86A5-2025-08-18-18-13-59","","null","","images/instructions/movie_3.png","null","",""
"","","","","","image-button-response","19","543954","0.0-6.0-1.0-1.2","A212555F1B764AB68A8851FE624A86A5","A212555F1B764AB68A8851FE624A86A5","0198be36-6fcc-7ad8-a9e6-93be354ab198","0198be1d-574a-752e-ae53-1d263a30e856","{""num_scrambled_semantic"":""8"",""num_scrambled_causal"":""4"",""num_scrambled_schematic"":""4"",""participantId"":""A212555F1B764AB68A8851FE624A86A5"",""assignmentId"":""0198be36-6fcc-7ad8-a9e6-93be354ab198"",""projectId"":""0198be1d-574a-752e-ae53-1d263a30e856""}","https://test12345.live/?num_scrambled_semantic=8&num_scrambled_causal=4&num_scrambled_schematic=4&participantId=A212555F1B764AB68A8851FE624A86A5&assignmentId=0198be36-6fcc-7ad8-a9e6-93be354ab198&projectId=0198be1d-574a-752e-ae53-1d263a30e856","A212555F1B764AB68A8851FE624A86A5-2025-08-18-18-13-59","","3187","","images/instructions/movie_3.png","0","",""
"","","","","","image-button-response","20","554757","0.0-6.0-1.0-2.2","A212555F1B764AB68A8851FE624A86A5","A212555F1B764AB68A8851FE624A86A5","0198be36-6fcc-7ad8-a9e6-93be354ab198","0198be1d-574a-752e-ae53-1d263a30e856","{""num_scrambled_semantic"":""8"",""num_scrambled_causal"":""4"",""num_scrambled_schematic"":""4"",""participantId"":""A212555F1B764AB68A8851FE624A86A5"",""assignmentId"":""0198be36-6fcc-7ad8-a9e6-93be354ab198"",""projectId"":""0198be1d-574a-752e-ae53-1d263a30e856""}","https://test12345.live/?num_scrambled_semantic=8&num_scrambled_causal=4&num_scrambled_schematic=4&participantId=A212555F1B764AB68A8851FE624A86A5&assignmentId=0198be36-6fcc-7ad8-a9e6-93be354ab198&projectId=0198be1d-574a-752e-ae53-1d263a30e856","A212555F1B764AB68A8851FE624A86A5-2025-08-18-18-13-59","","null","","[]","null","",""
"","","","","","image-button-response","21","559271","0.0-6.0-1.0-0.3","A212555F1B764AB68A8851FE624A86A5","A212555F1B764AB68A8851FE624A86A5","0198be36-6fcc-7ad8-a9e6-93be354ab198","0198be1d-574a-752e-ae53-1d263a30e856","{""num_scrambled_semantic"":""8"",""num_scrambled_causal"":""4"",""num_scrambled_schematic"":""4"",""participantId"":""A212555F1B764AB68A8851FE624A86A5"",""assignmentId"":""0198be36-6fcc-7ad8-a9e6-93be354ab198"",""projectId"":""0198be1d-574a-752e-ae53-1d263a30e856""}","https://test12345.live/?num_scrambled_semantic=8&num_scrambled_causal=4&num_scrambled_schematic=4&participantId=A212555F1B764AB68A8851FE624A86A5&assignmentId=0198be36-6fcc-7ad8-a9e6-93be354ab198&projectId=0198be1d-574a-752e-ae53-1d263a30e856","A212555F1B764AB68A8851FE624A86A5-2025-08-18-18-13-59","","null","","images/instructions/movie_4.png","null","",""
"","","","","","image-button-response","22","560951","0.0-6.0-1.0-1.3","A212555F1B764AB68A8851FE624A86A5","A212555F1B764AB68A8851FE624A86A5","0198be36-6fcc-7ad8-a9e6-93be354ab198","0198be1d-574a-752e-ae53-1d263a30e856","{""num_scrambled_semantic"":""8"",""num_scrambled_causal"":""4"",""num_scrambled_schematic"":""4"",""participantId"":""A212555F1B764AB68A8851FE624A86A5"",""assignmentId"":""0198be36-6fcc-7ad8-a9e6-93be354ab198"",""projectId"":""0198be1d-574a-752e-ae53-1d263a30e856""}","https://test12345.live/?num_scrambled_semantic=8&num_scrambled_causal=4&num_scrambled_schematic=4&participantId=A212555F1B764AB68A8851FE624A86A5&assignmentId=0198be36-6fcc-7ad8-a9e6-93be354ab198&projectId=0198be1d-574a-752e-ae53-1d263a30e856","A212555F1B764AB68A8851FE624A86A5-2025-08-18-18-13-59","","1679","","images/instructions/movie_4.png","0","",""
"","","","","","image-button-response","23","571754","0.0-6.0-1.0-2.3","A212555F1B764AB68A8851FE624A86A5","A212555F1B764AB68A8851FE624A86A5","0198be36-6fcc-7ad8-a9e6-93be354ab198","0198be1d-574a-752e-ae53-1d263a30e856","{""num_scrambled_semantic"":""8"",""num_scrambled_causal"":""4"",""num_scrambled_schematic"":""4"",""participantId"":""A212555F1B764AB68A8851FE624A86A5"",""assignmentId"":""0198be36-6fcc-7ad8-a9e6-93be354ab198"",""projectId"":""0198be1d-574a-752e-ae53-1d263a30e856""}","https://test12345.live/?num_scrambled_semantic=8&num_scrambled_causal=4&num_scrambled_schematic=4&participantId=A212555F1B764AB68A8851FE624A86A5&assignmentId=0198be36-6fcc-7ad8-a9e6-93be354ab198&projectId=0198be1d-574a-752e-ae53-1d263a30e856","A212555F1B764AB68A8851FE624A86A5-2025-08-18-18-13-59","","null","","[]","null","",""
"","","","","","instructions","24","604143","0.0-7.0","A212555F1B764AB68A8851FE624A86A5","A212555F1B764AB68A8851FE624A86A5","0198be36-6fcc-7ad8-a9e6-93be354ab198","0198be1d-574a-752e-ae53-1d263a30e856","{""num_scrambled_semantic"":""8"",""num_scrambled_causal"":""4"",""num_scrambled_schematic"":""4"",""participantId"":""A212555F1B764AB68A8851FE624A86A5"",""assignmentId"":""0198be36-6fcc-7ad8-a9e6-93be354ab198"",""projectId"":""0198be1d-574a-752e-ae53-1d263a30e856""}","https://test12345.live/?num_scrambled_semantic=8&num_scrambled_causal=4&num_scrambled_schematic=4&participantId=A212555F1B764AB68A8851FE624A86A5&assignmentId=0198be36-6fcc-7ad8-a9e6-93be354ab198&projectId=0198be1d-574a-752e-ae53-1d263a30e856","A212555F1B764AB68A8851FE624A86A5-2025-08-18-18-13-59","[{""page_index"":0,""viewing_time"":30611},{""page_index"":1,""viewing_time"":1777}]","32388","","","","",""
"","","","","","html-audio-response","25","645635","0.0-8.0","A212555F1B764AB68A8851FE624A86A5","A212555F1B764AB68A8851FE624A86A5","0198be36-6fcc-7ad8-a9e6-93be354ab198","0198be1d-574a-752e-ae53-1d263a30e856","{""num_scrambled_semantic"":""8"",""num_scrambled_causal"":""4"",""num_scrambled_schematic"":""4"",""participantId"":""A212555F1B764AB68A8851FE624A86A5"",""assignmentId"":""0198be36-6fcc-7ad8-a9e6-93be354ab198"",""projectId"":""0198be1d-574a-752e-ae53-1d263a30e856""}","https://test12345.live/?num_scrambled_semantic=8&num_scrambled_causal=4&num_scrambled_schematic=4&participantId=A212555F1B764AB68A8851FE624A86A5&assignmentId=0198be36-6fcc-7ad8-a9e6-93be354ab198&projectId=0198be1d-574a-752e-ae53-1d263a30e856","A212555F1B764AB68A8851FE624A86A5-2025-08-18-18-13-59","","19407","","[""<span style=\""color: red; font-size: 24px\""> NOW RECORDING</span><p>Please say out loud all the images you saw in the exact order you saw them. Try to recall as many images as you can, but remember: getting the order right is more important than the number of images you recall.</p>""]","","7",""
"","","","","","instructions","26","648172","0.0-9.0","A212555F1B764AB68A8851FE624A86A5","A212555F1B764AB68A8851FE624A86A5","0198be36-6fcc-7ad8-a9e6-93be354ab198","0198be1d-574a-752e-ae53-1d263a30e856","{""num_scrambled_semantic"":""8"",""num_scrambled_causal"":""4"",""num_scrambled_schematic"":""4"",""participantId"":""A212555F1B764AB68A8851FE624A86A5"",""assignmentId"":""0198be36-6fcc-7ad8-a9e6-93be354ab198"",""projectId"":""0198be1d-574a-752e-ae53-1d263a30e856""}","https://test12345.live/?num_scrambled_semantic=8&num_scrambled_causal=4&num_scrambled_schematic=4&participantId=A212555F1B764AB68A8851FE624A86A5&assignmentId=0198be36-6fcc-7ad8-a9e6-93be354ab198&projectId=0198be1d-574a-752e-ae53-1d263a30e856","A212555F1B764AB68A8851FE624A86A5-2025-08-18-18-13-59","[{""page_index"":0,""viewing_time"":2534}]","2534","","","","",""
"","","","","","image-button-response","27","654179","0.0-10.0-0.0","A212555F1B764AB68A8851FE624A86A5","A212555F1B764AB68A8851FE624A86A5","0198be36-6fcc-7ad8-a9e6-93be354ab198","0198be1d-574a-752e-ae53-1d263a30e856","{""num_scrambled_semantic"":""8"",""num_scrambled_causal"":""4"",""num_scrambled_schematic"":""4"",""participantId"":""A212555F1B764AB68A8851FE624A86A5"",""assignmentId"":""0198be36-6fcc-7ad8-a9e6-93be354ab198"",""projectId"":""0198be1d-574a-752e-ae53-1d263a30e856""}","https://test12345.live/?num_scrambled_semantic=8&num_scrambled_causal=4&num_scrambled_schematic=4&participantId=A212555F1B764AB68A8851FE624A86A5&assignmentId=0198be36-6fcc-7ad8-a9e6-93be354ab198&projectId=0198be1d-574a-752e-ae53-1d263a30e856","A212555F1B764AB68A8851FE624A86A5-2025-08-18-18-13-59","","null","","images/causal_sequence/dog_causal/dog_causal_0.png","null","",""
"","","","","","image-button-response","28","658695","0.0-10.0-1.0-0.0","A212555F1B764AB68A8851FE624A86A5","A212555F1B764AB68A8851FE624A86A5","0198be36-6fcc-7ad8-a9e6-93be354ab198","0198be1d-574a-752e-ae53-1d263a30e856","{""num_scrambled_semantic"":""8"",""num_scrambled_causal"":""4"",""num_scrambled_schematic"":""4"",""participantId"":""A212555F1B764AB68A8851FE624A86A5"",""assignmentId"":""0198be36-6fcc-7ad8-a9e6-93be354ab198"",""projectId"":""0198be1d-574a-752e-ae53-1d263a30e856""}","https://test12345.live/?num_scrambled_semantic=8&num_scrambled_causal=4&num_scrambled_schematic=4&participantId=A212555F1B764AB68A8851FE624A86A5&assignmentId=0198be36-6fcc-7ad8-a9e6-93be354ab198&projectId=0198be1d-574a-752e-ae53-1d263a30e856","A212555F1B764AB68A8851FE624A86A5-2025-08-18-18-13-59","","null","","images/causal_sequence/dog_causal/dog_causal_6.png","null","",""
"","","","","","image-button-response","29","661401","0.0-10.0-1.0-1.0","A212555F1B764AB68A8851FE624A86A5","A212555F1B764AB68A8851FE624A86A5","0198be36-6fcc-7ad8-a9e6-93be354ab198","0198be1d-574a-752e-ae53-1d263a30e856","{""num_scrambled_semantic"":""8"",""num_scrambled_causal"":""4"",""num_scrambled_schematic"":""4"",""participantId"":""A212555F1B764AB68A8851FE624A86A5"",""assignmentId"":""0198be36-6fcc-7ad8-a9e6-93be354ab198"",""projectId"":""0198be1d-574a-752e-ae53-1d263a30e856""}","https://test12345.live/?num_scrambled_semantic=8&num_scrambled_causal=4&num_scrambled_schematic=4&participantId=A212555F1B764AB68A8851FE624A86A5&assignmentId=0198be36-6fcc-7ad8-a9e6-93be354ab198&projectId=0198be1d-574a-752e-ae53-1d263a30e856","A212555F1B764AB68A8851FE624A86A5-2025-08-18-18-13-59","","2705","","images/causal_sequence/dog_causal/dog_causal_6.png","0","",""
"","","","","","image-button-response","30","672201","0.0-10.0-1.0-2.0","A212555F1B764AB68A8851FE624A86A5","A212555F1B764AB68A8851FE624A86A5","0198be36-6fcc-7ad8-a9e6-93be354ab198","0198be1d-574a-752e-ae53-1d263a30e856","{""num_scrambled_semantic"":""8"",""num_scrambled_causal"":""4"",""num_scrambled_schematic"":""4"",""participantId"":""A212555F1B764AB68A8851FE624A86A5"",""assignmentId"":""0198be36-6fcc-7ad8-a9e6-93be354ab198"",""projectId"":""0198be1d-574a-752e-ae53-1d263a30e856""}","https://test12345.live/?num_scrambled_semantic=8&num_scrambled_causal=4&num_scrambled_schematic=4&participantId=A212555F1B764AB68A8851FE624A86A5&assignmentId=0198be36-6fcc-7ad8-a9e6-93be354ab198&projectId=0198be1d-574a-752e-ae53-1d263a30e856","A212555F1B764AB68A8851FE624A86A5-2025-08-18-18-13-59","","null","","[]","null","",""
"","","","","","image-button-response","31","676721","0.0-10.0-1.0-0.1","A212555F1B764AB68A8851FE624A86A5","A212555F1B764AB68A8851FE624A86A5","0198be36-6fcc-7ad8-a9e6-93be354ab198","0198be1d-574a-752e-ae53-1d263a30e856","{""num_scrambled_semantic"":""8"",""num_scrambled_causal"":""4"",""num_scrambled_schematic"":""4"",""participantId"":""A212555F1B764AB68A8851FE624A86A5"",""assignmentId"":""0198be36-6fcc-7ad8-a9e6-93be354ab198"",""projectId"":""0198be1d-574a-752e-ae53-1d263a30e856""}","https://test12345.live/?num_scrambled_semantic=8&num_scrambled_causal=4&num_scrambled_schematic=4&participantId=A212555F1B764AB68A8851FE624A86A5&assignmentId=0198be36-6fcc-7ad8-a9e6-93be354ab198&projectId=0198be1d-574a-752e-ae53-1d263a30e856","A212555F1B764AB68A8851FE624A86A5-2025-08-18-18-13-59","","null","","images/causal_sequence/dog_causal/dog_causal_7.png","null","",""
"","","","","","image-button-response","32","680723","0.0-10.0-1.0-1.1","A212555F1B764AB68A8851FE624A86A5","A212555F1B764AB68A8851FE624A86A5","0198be36-6fcc-7ad8-a9e6-93be354ab198","0198be1d-574a-752e-ae53-1d263a30e856","{""num_scrambled_semantic"":""8"",""num_scrambled_causal"":""4"",""num_scrambled_schematic"":""4"",""participantId"":""A212555F1B764AB68A8851FE624A86A5"",""assignmentId"":""0198be36-6fcc-7ad8-a9e6-93be354ab198"",""projectId"":""0198be1d-574a-752e-ae53-1d263a30e856""}","https://test12345.live/?num_scrambled_semantic=8&num_scrambled_causal=4&num_scrambled_schematic=4&participantId=A212555F1B764AB68A8851FE624A86A5&assignmentId=0198be36-6fcc-7ad8-a9e6-93be354ab198&projectId=0198be1d-574a-752e-ae53-1d263a30e856","A212555F1B764AB68A8851FE624A86A5-2025-08-18-18-13-59","","null","","images/causal_sequence/dog_causal/dog_causal_7.png","null","",""
"","","","","","image-button-response","33","691524","0.0-10.0-1.0-2.1","A212555F1B764AB68A8851FE624A86A5","A212555F1B764AB68A8851FE624A86A5","0198be36-6fcc-7ad8-a9e6-93be354ab198","0198be1d-574a-752e-ae53-1d263a30e856","{""num_scrambled_semantic"":""8"",""num_scrambled_causal"":""4"",""num_scrambled_schematic"":""4"",""participantId"":""A212555F1B764AB68A8851FE624A86A5"",""assignmentId"":""0198be36-6fcc-7ad8-a9e6-93be354ab198"",""projectId"":""0198be1d-574a-752e-ae53-1d263a30e856""}","https://test12345.live/?num_scrambled_semantic=8&num_scrambled_causal=4&num_scrambled_schematic=4&participantId=A212555F1B764AB68A8851FE624A86A5&assignmentId=0198be36-6fcc-7ad8-a9e6-93be354ab198&projectId=0198be1d-574a-752e-ae53-1d263a30e856","A212555F1B764AB68A8851FE624A86A5-2025-08-18-18-13-59","","null","","[]","null","",""
"","","","","","image-button-response","34","696042","0.0-10.0-1.0-0.2","A212555F1B764AB68A8851FE624A86A5","A212555F1B764AB68A8851FE624A86A5","0198be36-6fcc-7ad8-a9e6-93be354ab198","0198be1d-574a-752e-ae53-1d263a30e856","{""num_scrambled_semantic"":""8"",""num_scrambled_causal"":""4"",""num_scrambled_schematic"":""4"",""participantId"":""A212555F1B764AB68A8851FE624A86A5"",""assignmentId"":""0198be36-6fcc-7ad8-a9e6-93be354ab198"",""projectId"":""0198be1d-574a-752e-ae53-1d263a30e856""}","https://test12345.live/?num_scrambled_semantic=8&num_scrambled_causal=4&num_scrambled_schematic=4&participantId=A212555F1B764AB68A8851FE624A86A5&assignmentId=0198be36-6fcc-7ad8-a9e6-93be354ab198&projectId=0198be1d-574a-752e-ae53-1d263a30e856","A212555F1B764AB68A8851FE624A86A5-2025-08-18-18-13-59","","null","","images/causal_sequence/dog_causal/dog_causal_9.png","null","",""
"","","","","","image-button-response","35","698542","0.0-10.0-1.0-1.2","A212555F1B764AB68A8851FE624A86A5","A212555F1B764AB68A8851FE624A86A5","0198be36-6fcc-7ad8-a9e6-93be354ab198","0198be1d-574a-752e-ae53-1d263a30e856","{""num_scrambled_semantic"":""8"",""num_scrambled_causal"":""4"",""num_scrambled_schematic"":""4"",""participantId"":""A212555F1B764AB68A8851FE624A86A5"",""assignmentId"":""0198be36-6fcc-7ad8-a9e6-93be354ab198"",""projectId"":""0198be1d-574a-752e-ae53-1d263a30e856""}","https://test12345.live/?num_scrambled_semantic=8&num_scrambled_causal=4&num_scrambled_schematic=4&participantId=A212555F1B764AB68A8851FE624A86A5&assignmentId=0198be36-6fcc-7ad8-a9e6-93be354ab198&projectId=0198be1d-574a-752e-ae53-1d263a30e856","A212555F1B764AB68A8851FE624A86A5-2025-08-18-18-13-59","","2499","","images/causal_sequence/dog_causal/dog_causal_9.png","0","",""
"","","","","","image-button-response","36","709347","0.0-10.0-1.0-2.2","A212555F1B764AB68A8851FE624A86A5","A212555F1B764AB68A8851FE624A86A5","0198be36-6fcc-7ad8-a9e6-93be354ab198","0198be1d-574a-752e-ae53-1d263a30e856","{""num_scrambled_semantic"":""8"",""num_scrambled_causal"":""4"",""num_scrambled_schematic"":""4"",""participantId"":""A212555F1B764AB68A8851FE624A86A5"",""assignmentId"":""0198be36-6fcc-7ad8-a9e6-93be354ab198"",""projectId"":""0198be1d-574a-752e-ae53-1d263a30e856""}","https://test12345.live/?num_scrambled_semantic=8&num_scrambled_causal=4&num_scrambled_schematic=4&participantId=A212555F1B764AB68A8851FE624A86A5&assignmentId=0198be36-6fcc-7ad8-a9e6-93be354ab198&projectId=0198be1d-574a-752e-ae53-1d263a30e856","A212555F1B764AB68A8851FE624A86A5-2025-08-18-18-13-59","","null","","[]","null","",""
"","","","","","image-button-response","37","713861","0.0-10.0-1.0-0.3","A212555F1B764AB68A8851FE624A86A5","A212555F1B764AB68A8851FE624A86A5","0198be36-6fcc-7ad8-a9e6-93be354ab198","0198be1d-574a-752e-ae53-1d263a30e856","{""num_scrambled_semantic"":""8"",""num_scrambled_causal"":""4"",""num_scrambled_schematic"":""4"",""participantId"":""A212555F1B764AB68A8851FE624A86A5"",""assignmentId"":""0198be36-6fcc-7ad8-a9e6-93be354ab198"",""projectId"":""0198be1d-574a-752e-ae53-1d263a30e856""}","https://test12345.live/?num_scrambled_semantic=8&num_scrambled_causal=4&num_scrambled_schematic=4&participantId=A212555F1B764AB68A8851FE624A86A5&assignmentId=0198be36-6fcc-7ad8-a9e6-93be354ab198&projectId=0198be1d-574a-752e-ae53-1d263a30e856","A212555F1B764AB68A8851FE624A86A5-2025-08-18-18-13-59","","null","","images/causal_sequence/dog_causal/dog_causal_3.png","null","",""
"","","","","","image-button-response","38","716511","0.0-10.0-1.0-1.3","A212555F1B764AB68A8851FE624A86A5","A212555F1B764AB68A8851FE624A86A5","0198be36-6fcc-7ad8-a9e6-93be354ab198","0198be1d-574a-752e-ae53-1d263a30e856","{""num_scrambled_semantic"":""8"",""num_scrambled_causal"":""4"",""num_scrambled_schematic"":""4"",""participantId"":""A212555F1B764AB68A8851FE624A86A5"",""assignmentId"":""0198be36-6fcc-7ad8-a9e6-93be354ab198"",""projectId"":""0198be1d-574a-752e-ae53-1d263a30e856""}","https://test12345.live/?num_scrambled_semantic=8&num_scrambled_causal=4&num_scrambled_schematic=4&participantId=A212555F1B764AB68A8851FE624A86A5&assignmentId=0198be36-6fcc-7ad8-a9e6-93be354ab198&projectId=0198be1d-574a-752e-ae53-1d263a30e856","A212555F1B764AB68A8851FE624A86A5-2025-08-18-18-13-59","","2649","","images/causal_sequence/dog_causal/dog_causal_3.png","0","",""
"","","","","","image-button-response","39","727312","0.0-10.0-1.0-2.3","A212555F1B764AB68A8851FE624A86A5","A212555F1B764AB68A8851FE624A86A5","0198be36-6fcc-7ad8-a9e6-93be354ab198","0198be1d-574a-752e-ae53-1d263a30e856","{""num_scrambled_semantic"":""8"",""num_scrambled_causal"":""4"",""num_scrambled_schematic"":""4"",""participantId"":""A212555F1B764AB68A8851FE624A86A5"",""assignmentId"":""0198be36-6fcc-7ad8-a9e6-93be354ab198"",""projectId"":""0198be1d-574a-752e-ae53-1d263a30e856""}","https://test12345.live/?num_scrambled_semantic=8&num_scrambled_causal=4&num_scrambled_schematic=4&participantId=A212555F1B764AB68A8851FE624A86A5&assignmentId=0198be36-6fcc-7ad8-a9e6-93be354ab198&projectId=0198be1d-574a-752e-ae53-1d263a30e856","A212555F1B764AB68A8851FE624A86A5-2025-08-18-18-13-59","","null","","[]","null","",""
"","","","","","image-button-response","40","731829","0.0-10.0-1.0-0.4","A212555F1B764AB68A8851FE624A86A5","A212555F1B764AB68A8851FE624A86A5","0198be36-6fcc-7ad8-a9e6-93be354ab198","0198be1d-574a-752e-ae53-1d263a30e856","{""num_scrambled_semantic"":""8"",""num_scrambled_causal"":""4"",""num_scrambled_schematic"":""4"",""participantId"":""A212555F1B764AB68A8851FE624A86A5"",""assignmentId"":""0198be36-6fcc-7ad8-a9e6-93be354ab198"",""projectId"":""0198be1d-574a-752e-ae53-1d263a30e856""}","https://test12345.live/?num_scrambled_semantic=8&num_scrambled_causal=4&num_scrambled_schematic=4&participantId=A212555F1B764AB68A8851FE624A86A5&assignmentId=0198be36-6fcc-7ad8-a9e6-93be354ab198&projectId=0198be1d-574a-752e-ae53-1d263a30e856","A212555F1B764AB68A8851FE624A86A5-2025-08-18-18-13-59","","null","","images/causal_sequence/dog_causal/dog_causal_8.png","null","",""
"","","","","","image-button-response","41","735848","0.0-10.0-1.0-1.4","A212555F1B764AB68A8851FE624A86A5","A212555F1B764AB68A8851FE624A86A5","0198be36-6fcc-7ad8-a9e6-93be354ab198","0198be1d-574a-752e-ae53-1d263a30e856","{""num_scrambled_semantic"":""8"",""num_scrambled_causal"":""4"",""num_scrambled_schematic"":""4"",""participantId"":""A212555F1B764AB68A8851FE624A86A5"",""assignmentId"":""0198be36-6fcc-7ad8-a9e6-93be354ab198"",""projectId"":""0198be1d-574a-752e-ae53-1d263a30e856""}","https://test12345.live/?num_scrambled_semantic=8&num_scrambled_causal=4&num_scrambled_schematic=4&participantId=A212555F1B764AB68A8851FE624A86A5&assignmentId=0198be36-6fcc-7ad8-a9e6-93be354ab198&projectId=0198be1d-574a-752e-ae53-1d263a30e856","A212555F1B764AB68A8851FE624A86A5-2025-08-18-18-13-59","","null","","images/causal_sequence/dog_causal/dog_causal_8.png","null","",""
"","","","","","image-button-response","42","746650","0.0-10.0-1.0-2.4","A212555F1B764AB68A8851FE624A86A5","A212555F1B764AB68A8851FE624A86A5","0198be36-6fcc-7ad8-a9e6-93be354ab198","0198be1d-574a-752e-ae53-1d263a30e856","{""num_scrambled_semantic"":""8"",""num_scrambled_causal"":""4"",""num_scrambled_schematic"":""4"",""participantId"":""A212555F1B764AB68A8851FE624A86A5"",""assignmentId"":""0198be36-6fcc-7ad8-a9e6-93be354ab198"",""projectId"":""0198be1d-574a-752e-ae53-1d263a30e856""}","https://test12345.live/?num_scrambled_semantic=8&num_scrambled_causal=4&num_scrambled_schematic=4&participantId=A212555F1B764AB68A8851FE624A86A5&assignmentId=0198be36-6fcc-7ad8-a9e6-93be354ab198&projectId=0198be1d-574a-752e-ae53-1d263a30e856","A212555F1B764AB68A8851FE624A86A5-2025-08-18-18-13-59","","null","","[]","null","",""
"","","","","","image-button-response","43","751168","0.0-10.0-1.0-0.5","A212555F1B764AB68A8851FE624A86A5","A212555F1B764AB68A8851FE624A86A5","0198be36-6fcc-7ad8-a9e6-93be354ab198","0198be1d-574a-752e-ae53-1d263a30e856","{""num_scrambled_semantic"":""8"",""num_scrambled_causal"":""4"",""num_scrambled_schematic"":""4"",""participantId"":""A212555F1B764AB68A8851FE624A86A5"",""assignmentId"":""0198be36-6fcc-7ad8-a9e6-93be354ab198"",""projectId"":""0198be1d-574a-752e-ae53-1d263a30e856""}","https://test12345.live/?num_scrambled_semantic=8&num_scrambled_causal=4&num_scrambled_schematic=4&participantId=A212555F1B764AB68A8851FE624A86A5&assignmentId=0198be36-6fcc-7ad8-a9e6-93be354ab198&projectId=0198be1d-574a-752e-ae53-1d263a30e856","A212555F1B764AB68A8851FE624A86A5-2025-08-18-18-13-59","","null","","images/causal_sequence/dog_causal/dog_causal_2.png","null","",""
"","","","","","image-button-response","44","753800","0.0-10.0-1.0-1.5","A212555F1B764AB68A8851FE624A86A5","A212555F1B764AB68A8851FE624A86A5","0198be36-6fcc-7ad8-a9e6-93be354ab198","0198be1d-574a-752e-ae53-1d263a30e856","{""num_scrambled_semantic"":""8"",""num_scrambled_causal"":""4"",""num_scrambled_schematic"":""4"",""participantId"":""A212555F1B764AB68A8851FE624A86A5"",""assignmentId"":""0198be36-6fcc-7ad8-a9e6-93be354ab198"",""projectId"":""0198be1d-574a-752e-ae53-1d263a30e856""}","https://test12345.live/?num_scrambled_semantic=8&num_scrambled_causal=4&num_scrambled_schematic=4&participantId=A212555F1B764AB68A8851FE624A86A5&assignmentId=0198be36-6fcc-7ad8-a9e6-93be354ab198&projectId=0198be1d-574a-752e-ae53-1d263a30e856","A212555F1B764AB68A8851FE624A86A5-2025-08-18-18-13-59","","2632","","images/causal_sequence/dog_causal/dog_causal_2.png","0","",""
"","","","","","image-button-response","45","764602","0.0-10.0-1.0-2.5","A212555F1B764AB68A8851FE624A86A5","A212555F1B764AB68A8851FE624A86A5","0198be36-6fcc-7ad8-a9e6-93be354ab198","0198be1d-574a-752e-ae53-1d263a30e856","{""num_scrambled_semantic"":""8"",""num_scrambled_causal"":""4"",""num_scrambled_schematic"":""4"",""participantId"":""A212555F1B764AB68A8851FE624A86A5"",""assignmentId"":""0198be36-6fcc-7ad8-a9e6-93be354ab198"",""projectId"":""0198be1d-574a-752e-ae53-1d263a30e856""}","https://test12345.live/?num_scrambled_semantic=8&num_scrambled_causal=4&num_scrambled_schematic=4&participantId=A212555F1B764AB68A8851FE624A86A5&assignmentId=0198be36-6fcc-7ad8-a9e6-93be354ab198&projectId=0198be1d-574a-752e-ae53-1d263a30e856","A212555F1B764AB68A8851FE624A86A5-2025-08-18-18-13-59","","null","","[]","null","",""
"","","","","","image-button-response","46","769119","0.0-10.0-1.0-0.6","A212555F1B764AB68A8851FE624A86A5","A212555F1B764AB68A8851FE624A86A5","0198be36-6fcc-7ad8-a9e6-93be354ab198","0198be1d-574a-752e-ae53-1d263a30e856","{""num_scrambled_semantic"":""8"",""num_scrambled_causal"":""4"",""num_scrambled_schematic"":""4"",""participantId"":""A212555F1B764AB68A8851FE624A86A5"",""assignmentId"":""0198be36-6fcc-7ad8-a9e6-93be354ab198"",""projectId"":""0198be1d-574a-752e-ae53-1d263a30e856""}","https://test12345.live/?num_scrambled_semantic=8&num_scrambled_causal=4&num_scrambled_schematic=4&participantId=A212555F1B764AB68A8851FE624A86A5&assignmentId=0198be36-6fcc-7ad8-a9e6-93be354ab198&projectId=0198be1d-574a-752e-ae53-1d263a30e856","A212555F1B764AB68A8851FE624A86A5-2025-08-18-18-13-59","","null","","images/causal_sequence/dog_causal/dog_causal_4.png","null","",""
"","","","","","image-button-response","47","773122","0.0-10.0-1.0-1.6","A212555F1B764AB68A8851FE624A86A5","A212555F1B764AB68A8851FE624A86A5","0198be36-6fcc-7ad8-a9e6-93be354ab198","0198be1d-574a-752e-ae53-1d263a30e856","{""num_scrambled_semantic"":""8"",""num_scrambled_causal"":""4"",""num_scrambled_schematic"":""4"",""participantId"":""A212555F1B764AB68A8851FE624A86A5"",""assignmentId"":""0198be36-6fcc-7ad8-a9e6-93be354ab198"",""projectId"":""0198be1d-574a-752e-ae53-1d263a30e856""}","https://test12345.live/?num_scrambled_semantic=8&num_scrambled_causal=4&num_scrambled_schematic=4&participantId=A212555F1B764AB68A8851FE624A86A5&assignmentId=0198be36-6fcc-7ad8-a9e6-93be354ab198&projectId=0198be1d-574a-752e-ae53-1d263a30e856","A212555F1B764AB68A8851FE624A86A5-2025-08-18-18-13-59","","null","","images/causal_sequence/dog_causal/dog_causal_4.png","null","",""
"","","","","","image-button-response","48","783924","0.0-10.0-1.0-2.6","A212555F1B764AB68A8851FE624A86A5","A212555F1B764AB68A8851FE624A86A5","0198be36-6fcc-7ad8-a9e6-93be354ab198","0198be1d-574a-752e-ae53-1d263a30e856","{""num_scrambled_semantic"":""8"",""num_scrambled_causal"":""4"",""num_scrambled_schematic"":""4"",""participantId"":""A212555F1B764AB68A8851FE624A86A5"",""assignmentId"":""0198be36-6fcc-7ad8-a9e6-93be354ab198"",""projectId"":""0198be1d-574a-752e-ae53-1d263a30e856""}","https://test12345.live/?num_scrambled_semantic=8&num_scrambled_causal=4&num_scrambled_schematic=4&participantId=A212555F1B764AB68A8851FE624A86A5&assignmentId=0198be36-6fcc-7ad8-a9e6-93be354ab198&projectId=0198be1d-574a-752e-ae53-1d263a30e856","A212555F1B764AB68A8851FE624A86A5-2025-08-18-18-13-59","","null","","[]","null","",""
"","","","","","image-button-response","49","788444","0.0-10.0-1.0-0.7","A212555F1B764AB68A8851FE624A86A5","A212555F1B764AB68A8851FE624A86A5","0198be36-6fcc-7ad8-a9e6-93be354ab198","0198be1d-574a-752e-ae53-1d263a30e856","{""num_scrambled_semantic"":""8"",""num_scrambled_causal"":""4"",""num_scrambled_schematic"":""4"",""participantId"":""A212555F1B764AB68A8851FE624A86A5"",""assignmentId"":""0198be36-6fcc-7ad8-a9e6-93be354ab198"",""projectId"":""0198be1d-574a-752e-ae53-1d263a30e856""}","https://test12345.live/?num_scrambled_semantic=8&num_scrambled_causal=4&num_scrambled_schematic=4&participantId=A212555F1B764AB68A8851FE624A86A5&assignmentId=0198be36-6fcc-7ad8-a9e6-93be354ab198&projectId=0198be1d-574a-752e-ae53-1d263a30e856","A212555F1B764AB68A8851FE624A86A5-2025-08-18-18-13-59","","null","","images/causal_sequence/dog_causal/dog_causal_5.png","null","",""
"","","","","","image-button-response","50","790701","0.0-10.0-1.0-1.7","A212555F1B764AB68A8851FE624A86A5","A212555F1B764AB68A8851FE624A86A5","0198be36-6fcc-7ad8-a9e6-93be354ab198","0198be1d-574a-752e-ae53-1d263a30e856","{""num_scrambled_semantic"":""8"",""num_scrambled_causal"":""4"",""num_scrambled_schematic"":""4"",""participantId"":""A212555F1B764AB68A8851FE624A86A5"",""assignmentId"":""0198be36-6fcc-7ad8-a9e6-93be354ab198"",""projectId"":""0198be1d-574a-752e-ae53-1d263a30e856""}","https://test12345.live/?num_scrambled_semantic=8&num_scrambled_causal=4&num_scrambled_schematic=4&participantId=A212555F1B764AB68A8851FE624A86A5&assignmentId=0198be36-6fcc-7ad8-a9e6-93be354ab198&projectId=0198be1d-574a-752e-ae53-1d263a30e856","A212555F1B764AB68A8851FE624A86A5-2025-08-18-18-13-59","","2255","","images/causal_sequence/dog_causal/dog_causal_5.png","0","",""
"","","","","","image-button-response","51","801502","0.0-10.0-1.0-2.7","A212555F1B764AB68A8851FE624A86A5","A212555F1B764AB68A8851FE624A86A5","0198be36-6fcc-7ad8-a9e6-93be354ab198","0198be1d-574a-752e-ae53-1d263a30e856","{""num_scrambled_semantic"":""8"",""num_scrambled_causal"":""4"",""num_scrambled_schematic"":""4"",""participantId"":""A212555F1B764AB68A8851FE624A86A5"",""assignmentId"":""0198be36-6fcc-7ad8-a9e6-93be354ab198"",""projectId"":""0198be1d-574a-752e-ae53-1d263a30e856""}","https://test12345.live/?num_scrambled_semantic=8&num_scrambled_causal=4&num_scrambled_schematic=4&participantId=A212555F1B764AB68A8851FE624A86A5&assignmentId=0198be36-6fcc-7ad8-a9e6-93be354ab198&projectId=0198be1d-574a-752e-ae53-1d263a30e856","A212555F1B764AB68A8851FE624A86A5-2025-08-18-18-13-59","","null","","[]","null","",""
"","","","","","image-button-response","52","806019","0.0-10.0-1.0-0.8","A212555F1B764AB68A8851FE624A86A5","A212555F1B764AB68A8851FE624A86A5","0198be36-6fcc-7ad8-a9e6-93be354ab198","0198be1d-574a-752e-ae53-1d263a30e856","{""num_scrambled_semantic"":""8"",""num_scrambled_causal"":""4"",""num_scrambled_schematic"":""4"",""participantId"":""A212555F1B764AB68A8851FE624A86A5"",""assignmentId"":""0198be36-6fcc-7ad8-a9e6-93be354ab198"",""projectId"":""0198be1d-574a-752e-ae53-1d263a30e856""}","https://test12345.live/?num_scrambled_semantic=8&num_scrambled_causal=4&num_scrambled_schematic=4&participantId=A212555F1B764AB68A8851FE624A86A5&assignmentId=0198be36-6fcc-7ad8-a9e6-93be354ab198&projectId=0198be1d-574a-752e-ae53-1d263a30e856","A212555F1B764AB68A8851FE624A86A5-2025-08-18-18-13-59","","null","","images/causal_sequence/dog_causal/dog_causal_1.png","null","",""
"","","","","","image-button-response","53","807889","0.0-10.0-1.0-1.8","A212555F1B764AB68A8851FE624A86A5","A212555F1B764AB68A8851FE624A86A5","0198be36-6fcc-7ad8-a9e6-93be354ab198","0198be1d-574a-752e-ae53-1d263a30e856","{""num_scrambled_semantic"":""8"",""num_scrambled_causal"":""4"",""num_scrambled_schematic"":""4"",""participantId"":""A212555F1B764AB68A8851FE624A86A5"",""assignmentId"":""0198be36-6fcc-7ad8-a9e6-93be354ab198"",""projectId"":""0198be1d-574a-752e-ae53-1d263a30e856""}","https://test12345.live/?num_scrambled_semantic=8&num_scrambled_causal=4&num_scrambled_schematic=4&participantId=A212555F1B764AB68A8851FE624A86A5&assignmentId=0198be36-6fcc-7ad8-a9e6-93be354ab198&projectId=0198be1d-574a-752e-ae53-1d263a30e856","A212555F1B764AB68A8851FE624A86A5-2025-08-18-18-13-59","","1869","","images/causal_sequence/dog_causal/dog_causal_1.png","0","",""
"","","","","","image-button-response","54","818691","0.0-10.0-1.0-2.8","A212555F1B764AB68A8851FE624A86A5","A212555F1B764AB68A8851FE624A86A5","0198be36-6fcc-7ad8-a9e6-93be354ab198","0198be1d-574a-752e-ae53-1d263a30e856","{""num_scrambled_semantic"":""8"",""num_scrambled_causal"":""4"",""num_scrambled_schematic"":""4"",""participantId"":""A212555F1B764AB68A8851FE624A86A5"",""assignmentId"":""0198be36-6fcc-7ad8-a9e6-93be354ab198"",""projectId"":""0198be1d-574a-752e-ae53-1d263a30e856""}","https://test12345.live/?num_scrambled_semantic=8&num_scrambled_causal=4&num_scrambled_schematic=4&participantId=A212555F1B764AB68A8851FE624A86A5&assignmentId=0198be36-6fcc-7ad8-a9e6-93be354ab198&projectId=0198be1d-574a-752e-ae53-1d263a30e856","A212555F1B764AB68A8851FE624A86A5-2025-08-18-18-13-59","","null","","[]","null","",""
"","","","","","image-button-response","55","823208","0.0-10.0-1.0-0.9","A212555F1B764AB68A8851FE624A86A5","A212555F1B764AB68A8851FE624A86A5","0198be36-6fcc-7ad8-a9e6-93be354ab198","0198be1d-574a-752e-ae53-1d263a30e856","{""num_scrambled_semantic"":""8"",""num_scrambled_causal"":""4"",""num_scrambled_schematic"":""4"",""participantId"":""A212555F1B764AB68A8851FE624A86A5"",""assignmentId"":""0198be36-6fcc-7ad8-a9e6-93be354ab198"",""projectId"":""0198be1d-574a-752e-ae53-1d263a30e856""}","https://test12345.live/?num_scrambled_semantic=8&num_scrambled_causal=4&num_scrambled_schematic=4&participantId=A212555F1B764AB68A8851FE624A86A5&assignmentId=0198be36-6fcc-7ad8-a9e6-93be354ab198&projectId=0198be1d-574a-752e-ae53-1d263a30e856","A212555F1B764AB68A8851FE624A86A5-2025-08-18-18-13-59","","null","","images/causal_sequence/dog_causal/dog_causal_ten.png","null","",""
"","","","","","image-button-response","56","827210","0.0-10.0-1.0-1.9","A212555F1B764AB68A8851FE624A86A5","A212555F1B764AB68A8851FE624A86A5","0198be36-6fcc-7ad8-a9e6-93be354ab198","0198be1d-574a-752e-ae53-1d263a30e856","{""num_scrambled_semantic"":""8"",""num_scrambled_causal"":""4"",""num_scrambled_schematic"":""4"",""participantId"":""A212555F1B764AB68A8851FE624A86A5"",""assignmentId"":""0198be36-6fcc-7ad8-a9e6-93be354ab198"",""projectId"":""0198be1d-574a-752e-ae53-1d263a30e856""}","https://test12345.live/?num_scrambled_semantic=8&num_scrambled_causal=4&num_scrambled_schematic=4&participantId=A212555F1B764AB68A8851FE624A86A5&assignmentId=0198be36-6fcc-7ad8-a9e6-93be354ab198&projectId=0198be1d-574a-752e-ae53-1d263a30e856","A212555F1B764AB68A8851FE624A86A5-2025-08-18-18-13-59","","null","","images/causal_sequence/dog_causal/dog_causal_ten.png","null","",""
"","","","","","image-button-response","57","838012","0.0-10.0-1.0-2.9","A212555F1B764AB68A8851FE624A86A5","A212555F1B764AB68A8851FE624A86A5","0198be36-6fcc-7ad8-a9e6-93be354ab198","0198be1d-574a-752e-ae53-1d263a30e856","{""num_scrambled_semantic"":""8"",""num_scrambled_causal"":""4"",""num_scrambled_schematic"":""4"",""participantId"":""A212555F1B764AB68A8851FE624A86A5"",""assignmentId"":""0198be36-6fcc-7ad8-a9e6-93be354ab198"",""projectId"":""0198be1d-574a-752e-ae53-1d263a30e856""}","https://test12345.live/?num_scrambled_semantic=8&num_scrambled_causal=4&num_scrambled_schematic=4&participantId=A212555F1B764AB68A8851FE624A86A5&assignmentId=0198be36-6fcc-7ad8-a9e6-93be354ab198&projectId=0198be1d-574a-752e-ae53-1d263a30e856","A212555F1B764AB68A8851FE624A86A5-2025-08-18-18-13-59","","null","","[]","null","",""
"","","","","","html-audio-response","58","957509","0.0-11.0","A212555F1B764AB68A8851FE624A86A5","A212555F1B764AB68A8851FE624A86A5","0198be36-6fcc-7ad8-a9e6-93be354ab198","0198be1d-574a-752e-ae53-1d263a30e856","{""num_scrambled_semantic"":""8"",""num_scrambled_causal"":""4"",""num_scrambled_schematic"":""4"",""participantId"":""A212555F1B764AB68A8851FE624A86A5"",""assignmentId"":""0198be36-6fcc-7ad8-a9e6-93be354ab198"",""projectId"":""0198be1d-574a-752e-ae53-1d263a30e856""}","https://test12345.live/?num_scrambled_semantic=8&num_scrambled_causal=4&num_scrambled_schematic=4&participantId=A212555F1B764AB68A8851FE624A86A5&assignmentId=0198be36-6fcc-7ad8-a9e6-93be354ab198&projectId=0198be1d-574a-752e-ae53-1d263a30e856","A212555F1B764AB68A8851FE624A86A5-2025-08-18-18-13-59","","null","","[""<span style=\""color: red; font-size: 24px\""> NOW RECORDING</span><p>Please say out loud all the images you saw, in the exact order you saw them. Try to recall as many images as you can, but remember: getting the order right is more important than the number of images you recall.</p>""]","","9","dog_causal"
"","","","","","image-button-response","59","963522","0.0-12.0-0.0","A212555F1B764AB68A8851FE624A86A5","A212555F1B764AB68A8851FE624A86A5","0198be36-6fcc-7ad8-a9e6-93be354ab198","0198be1d-574a-752e-ae53-1d263a30e856","{""num_scrambled_semantic"":""8"",""num_scrambled_causal"":""4"",""num_scrambled_schematic"":""4"",""participantId"":""A212555F1B764AB68A8851FE624A86A5"",""assignmentId"":""0198be36-6fcc-7ad8-a9e6-93be354ab198"",""projectId"":""0198be1d-574a-752e-ae53-1d263a30e856""}","https://test12345.live/?num_scrambled_semantic=8&num_scrambled_causal=4&num_scrambled_schematic=4&participantId=A212555F1B764AB68A8851FE624A86A5&assignmentId=0198be36-6fcc-7ad8-a9e6-93be354ab198&projectId=0198be1d-574a-752e-ae53-1d263a30e856","A212555F1B764AB68A8851FE624A86A5-2025-08-18-18-13-59","","null","","images/semantic_sequence/cat_care_semantic/cat_care_semantic_0.png","null","",""
"","","","","","image-button-response","60","968038","0.0-12.0-1.0-0.0","A212555F1B764AB68A8851FE624A86A5","A212555F1B764AB68A8851FE624A86A5","0198be36-6fcc-7ad8-a9e6-93be354ab198","0198be1d-574a-752e-ae53-1d263a30e856","{""num_scrambled_semantic"":""8"",""num_scrambled_causal"":""4"",""num_scrambled_schematic"":""4"",""participantId"":""A212555F1B764AB68A8851FE624A86A5"",""assignmentId"":""0198be36-6fcc-7ad8-a9e6-93be354ab198"",""projectId"":""0198be1d-574a-752e-ae53-1d263a30e856""}","https://test12345.live/?num_scrambled_semantic=8&num_scrambled_causal=4&num_scrambled_schematic=4&participantId=A212555F1B764AB68A8851FE624A86A5&assignmentId=0198be36-6fcc-7ad8-a9e6-93be354ab198&projectId=0198be1d-574a-752e-ae53-1d263a30e856","A212555F1B764AB68A8851FE624A86A5-2025-08-18-18-13-59","","null","","images/semantic_sequence/cat_care_semantic/cat_care_semantic_3.png","null","",""
"","","","","","image-button-response","61","971091","0.0-12.0-1.0-1.0","A212555F1B764AB68A8851FE624A86A5","A212555F1B764AB68A8851FE624A86A5","0198be36-6fcc-7ad8-a9e6-93be354ab198","0198be1d-574a-752e-ae53-1d263a30e856","{""num_scrambled_semantic"":""8"",""num_scrambled_causal"":""4"",""num_scrambled_schematic"":""4"",""participantId"":""A212555F1B764AB68A8851FE624A86A5"",""assignmentId"":""0198be36-6fcc-7ad8-a9e6-93be354ab198"",""projectId"":""0198be1d-574a-752e-ae53-1d263a30e856""}","https://test12345.live/?num_scrambled_semantic=8&num_scrambled_causal=4&num_scrambled_schematic=4&participantId=A212555F1B764AB68A8851FE624A86A5&assignmentId=0198be36-6fcc-7ad8-a9e6-93be354ab198&projectId=0198be1d-574a-752e-ae53-1d263a30e856","A212555F1B764AB68A8851FE624A86A5-2025-08-18-18-13-59","","3052","","images/semantic_sequence/cat_care_semantic/cat_care_semantic_3.png","0","",""
"","","","","","image-button-response","62","981893","0.0-12.0-1.0-2.0","A212555F1B764AB68A8851FE624A86A5","A212555F1B764AB68A8851FE624A86A5","0198be36-6fcc-7ad8-a9e6-93be354ab198","0198be1d-574a-752e-ae53-1d263a30e856","{""num_scrambled_semantic"":""8"",""num_scrambled_causal"":""4"",""num_scrambled_schematic"":""4"",""participantId"":""A212555F1B764AB68A8851FE624A86A5"",""assignmentId"":""0198be36-6fcc-7ad8-a9e6-93be354ab198"",""projectId"":""0198be1d-574a-752e-ae53-1d263a30e856""}","https://test12345.live/?num_scrambled_semantic=8&num_scrambled_causal=4&num_scrambled_schematic=4&participantId=A212555F1B764AB68A8851FE624A86A5&assignmentId=0198be36-6fcc-7ad8-a9e6-93be354ab198&projectId=0198be1d-574a-752e-ae53-1d263a30e856","A212555F1B764AB68A8851FE624A86A5-2025-08-18-18-13-59","","null","","[]","null","",""
"","","","","","image-button-response","63","986408","0.0-12.0-1.0-0.1","A212555F1B764AB68A8851FE624A86A5","A212555F1B764AB68A8851FE624A86A5","0198be36-6fcc-7ad8-a9e6-93be354ab198","0198be1d-574a-752e-ae53-1d263a30e856","{""num_scrambled_semantic"":""8"",""num_scrambled_causal"":""4"",""num_scrambled_schematic"":""4"",""participantId"":""A212555F1B764AB68A8851FE624A86A5"",""assignmentId"":""0198be36-6fcc-7ad8-a9e6-93be354ab198"",""projectId"":""0198be1d-574a-752e-ae53-1d263a30e856""}","https://test12345.live/?num_scrambled_semantic=8&num_scrambled_causal=4&num_scrambled_schematic=4&participantId=A212555F1B764AB68A8851FE624A86A5&assignmentId=0198be36-6fcc-7ad8-a9e6-93be354ab198&projectId=0198be1d-574a-752e-ae53-1d263a30e856","A212555F1B764AB68A8851FE624A86A5-2025-08-18-18-13-59","","null","","images/semantic_sequence/cat_care_semantic/cat_care_semantic_6.png","null","",""
"","","","","","image-button-response","64","990410","0.0-12.0-1.0-1.1","A212555F1B764AB68A8851FE624A86A5","A212555F1B764AB68A8851FE624A86A5","0198be36-6fcc-7ad8-a9e6-93be354ab198","0198be1d-574a-752e-ae53-1d263a30e856","{""num_scrambled_semantic"":""8"",""num_scrambled_causal"":""4"",""num_scrambled_schematic"":""4"",""participantId"":""A212555F1B764AB68A8851FE624A86A5"",""assignmentId"":""0198be36-6fcc-7ad8-a9e6-93be354ab198"",""projectId"":""0198be1d-574a-752e-ae53-1d263a30e856""}","https://test12345.live/?num_scrambled_semantic=8&num_scrambled_causal=4&num_scrambled_schematic=4&participantId=A212555F1B764AB68A8851FE624A86A5&assignmentId=0198be36-6fcc-7ad8-a9e6-93be354ab198&projectId=0198be1d-574a-752e-ae53-1d263a30e856","A212555F1B764AB68A8851FE624A86A5-2025-08-18-18-13-59","","null","","images/semantic_sequence/cat_care_semantic/cat_care_semantic_6.png","null","",""
"","","","","","image-button-response","65","1001211","0.0-12.0-1.0-2.1","A212555F1B764AB68A8851FE624A86A5","A212555F1B764AB68A8851FE624A86A5","0198be36-6fcc-7ad8-a9e6-93be354ab198","0198be1d-574a-752e-ae53-1d263a30e856","{""num_scrambled_semantic"":""8"",""num_scrambled_causal"":""4"",""num_scrambled_schematic"":""4"",""participantId"":""A212555F1B764AB68A8851FE624A86A5"",""assignmentId"":""0198be36-6fcc-7ad8-a9e6-93be354ab198"",""projectId"":""0198be1d-574a-752e-ae53-1d263a30e856""}","https://test12345.live/?num_scrambled_semantic=8&num_scrambled_causal=4&num_scrambled_schematic=4&participantId=A212555F1B764AB68A8851FE624A86A5&assignmentId=0198be36-6fcc-7ad8-a9e6-93be354ab198&projectId=0198be1d-574a-752e-ae53-1d263a30e856","A212555F1B764AB68A8851FE624A86A5-2025-08-18-18-13-59","","null","","[]","null","",""
"","","","","","image-button-response","66","1005729","0.0-12.0-1.0-0.2","A212555F1B764AB68A8851FE624A86A5","A212555F1B764AB68A8851FE624A86A5","0198be36-6fcc-7ad8-a9e6-93be354ab198","0198be1d-574a-752e-ae53-1d263a30e856","{""num_scrambled_semantic"":""8"",""num_scrambled_causal"":""4"",""num_scrambled_schematic"":""4"",""participantId"":""A212555F1B764AB68A8851FE624A86A5"",""assignmentId"":""0198be36-6fcc-7ad8-a9e6-93be354ab198"",""projectId"":""0198be1d-574a-752e-ae53-1d263a30e856""}","https://test12345.live/?num_scrambled_semantic=8&num_scrambled_causal=4&num_scrambled_schematic=4&participantId=A212555F1B764AB68A8851FE624A86A5&assignmentId=0198be36-6fcc-7ad8-a9e6-93be354ab198&projectId=0198be1d-574a-752e-ae53-1d263a30e856","A212555F1B764AB68A8851FE624A86A5-2025-08-18-18-13-59","","null","","images/semantic_sequence/cat_care_semantic/cat_care_semantic_1.png","null","",""
"","","","","","image-button-response","67","1009066","0.0-12.0-1.0-1.2","A212555F1B764AB68A8851FE624A86A5","A212555F1B764AB68A8851FE624A86A5","0198be36-6fcc-7ad8-a9e6-93be354ab198","0198be1d-574a-752e-ae53-1d263a30e856","{""num_scrambled_semantic"":""8"",""num_scrambled_causal"":""4"",""num_scrambled_schematic"":""4"",""participantId"":""A212555F1B764AB68A8851FE624A86A5"",""assignmentId"":""0198be36-6fcc-7ad8-a9e6-93be354ab198"",""projectId"":""0198be1d-574a-752e-ae53-1d263a30e856""}","https://test12345.live/?num_scrambled_semantic=8&num_scrambled_causal=4&num_scrambled_schematic=4&participantId=A212555F1B764AB68A8851FE624A86A5&assignmentId=0198be36-6fcc-7ad8-a9e6-93be354ab198&projectId=0198be1d-574a-752e-ae53-1d263a30e856","A212555F1B764AB68A8851FE624A86A5-2025-08-18-18-13-59","","3337","","images/semantic_sequence/cat_care_semantic/cat_care_semantic_1.png","0","",""
"","","","","","image-button-response","68","1019867","0.0-12.0-1.0-2.2","A212555F1B764AB68A8851FE624A86A5","A212555F1B764AB68A8851FE624A86A5","0198be36-6fcc-7ad8-a9e6-93be354ab198","0198be1d-574a-752e-ae53-1d263a30e856","{""num_scrambled_semantic"":""8"",""num_scrambled_causal"":""4"",""num_scrambled_schematic"":""4"",""participantId"":""A212555F1B764AB68A8851FE624A86A5"",""assignmentId"":""0198be36-6fcc-7ad8-a9e6-93be354ab198"",""projectId"":""0198be1d-574a-752e-ae53-1d263a30e856""}","https://test12345.live/?num_scrambled_semantic=8&num_scrambled_causal=4&num_scrambled_schematic=4&participantId=A212555F1B764AB68A8851FE624A86A5&assignmentId=0198be36-6fcc-7ad8-a9e6-93be354ab198&projectId=0198be1d-574a-752e-ae53-1d263a30e856","A212555F1B764AB68A8851FE624A86A5-2025-08-18-18-13-59","","null","","[]","null","",""
"","","","","","image-button-response","69","1024382","0.0-12.0-1.0-0.3","A212555F1B764AB68A8851FE624A86A5","A212555F1B764AB68A8851FE624A86A5","0198be36-6fcc-7ad8-a9e6-93be354ab198","0198be1d-574a-752e-ae53-1d263a30e856","{""num_scrambled_semantic"":""8"",""num_scrambled_causal"":""4"",""num_scrambled_schematic"":""4"",""participantId"":""A212555F1B764AB68A8851FE624A86A5"",""assignmentId"":""0198be36-6fcc-7ad8-a9e6-93be354ab198"",""projectId"":""0198be1d-574a-752e-ae53-1d263a30e856""}","https://test12345.live/?num_scrambled_semantic=8&num_scrambled_causal=4&num_scrambled_schematic=4&participantId=A212555F1B764AB68A8851FE624A86A5&assignmentId=0198be36-6fcc-7ad8-a9e6-93be354ab198&projectId=0198be1d-574a-752e-ae53-1d263a30e856","A212555F1B764AB68A8851FE624A86A5-2025-08-18-18-13-59","","null","","images/semantic_sequence/cat_care_semantic/cat_care_semantic_ten.png","null","",""
"","","","","","image-button-response","70","1027092","0.0-12.0-1.0-1.3","A212555F1B764AB68A8851FE624A86A5","A212555F1B764AB68A8851FE624A86A5","0198be36-6fcc-7ad8-a9e6-93be354ab198","0198be1d-574a-752e-ae53-1d263a30e856","{""num_scrambled_semantic"":""8"",""num_scrambled_causal"":""4"",""num_scrambled_schematic"":""4"",""participantId"":""A212555F1B764AB68A8851FE624A86A5"",""assignmentId"":""0198be36-6fcc-7ad8-a9e6-93be354ab198"",""projectId"":""0198be1d-574a-752e-ae53-1d263a30e856""}","https://test12345.live/?num_scrambled_semantic=8&num_scrambled_causal=4&num_scrambled_schematic=4&participantId=A212555F1B764AB68A8851FE624A86A5&assignmentId=0198be36-6fcc-7ad8-a9e6-93be354ab198&projectId=0198be1d-574a-752e-ae53-1d263a30e856","A212555F1B764AB68A8851FE624A86A5-2025-08-18-18-13-59","","2710","","images/semantic_sequence/cat_care_semantic/cat_care_semantic_ten.png","1","",""
"","","","","","image-button-response","71","1037893","0.0-12.0-1.0-2.3","A212555F1B764AB68A8851FE624A86A5","A212555F1B764AB68A8851FE624A86A5","0198be36-6fcc-7ad8-a9e6-93be354ab198","0198be1d-574a-752e-ae53-1d263a30e856","{""num_scrambled_semantic"":""8"",""num_scrambled_causal"":""4"",""num_scrambled_schematic"":""4"",""participantId"":""A212555F1B764AB68A8851FE624A86A5"",""assignmentId"":""0198be36-6fcc-7ad8-a9e6-93be354ab198"",""projectId"":""0198be1d-574a-752e-ae53-1d263a30e856""}","https://test12345.live/?num_scrambled_semantic=8&num_scrambled_causal=4&num_scrambled_schematic=4&participantId=A212555F1B764AB68A8851FE624A86A5&assignmentId=0198be36-6fcc-7ad8-a9e6-93be354ab198&projectId=0198be1d-574a-752e-ae53-1d263a30e856","A212555F1B764AB68A8851FE624A86A5-2025-08-18-18-13-59","","null","","[]","null","",""
"","","","","","image-button-response","72","1042408","0.0-12.0-1.0-0.4","A212555F1B764AB68A8851FE624A86A5","A212555F1B764AB68A8851FE624A86A5","0198be36-6fcc-7ad8-a9e6-93be354ab198","0198be1d-574a-752e-ae53-1d263a30e856","{""num_scrambled_semantic"":""8"",""num_scrambled_causal"":""4"",""num_scrambled_schematic"":""4"",""participantId"":""A212555F1B764AB68A8851FE624A86A5"",""assignmentId"":""0198be36-6fcc-7ad8-a9e6-93be354ab198"",""projectId"":""0198be1d-574a-752e-ae53-1d263a30e856""}","https://test12345.live/?num_scrambled_semantic=8&num_scrambled_causal=4&num_scrambled_schematic=4&participantId=A212555F1B764AB68A8851FE624A86A5&assignmentId=0198be36-6fcc-7ad8-a9e6-93be354ab198&projectId=0198be1d-574a-752e-ae53-1d263a30e856","A212555F1B764AB68A8851FE624A86A5-2025-08-18-18-13-59","","null","","images/semantic_sequence/cat_care_semantic/cat_care_semantic_5.png","null","",""
"","","","","","image-button-response","73","1044450","0.0-12.0-1.0-1.4","A212555F1B764AB68A8851FE624A86A5","A212555F1B764AB68A8851FE624A86A5","0198be36-6fcc-7ad8-a9e6-93be354ab198","0198be1d-574a-752e-ae53-1d263a30e856","{""num_scrambled_semantic"":""8"",""num_scrambled_causal"":""4"",""num_scrambled_schematic"":""4"",""participantId"":""A212555F1B764AB68A8851FE624A86A5"",""assignmentId"":""0198be36-6fcc-7ad8-a9e6-93be354ab198"",""projectId"":""0198be1d-574a-752e-ae53-1d263a30e856""}","https://test12345.live/?num_scrambled_semantic=8&num_scrambled_causal=4&num_scrambled_schematic=4&participantId=A212555F1B764AB68A8851FE624A86A5&assignmentId=0198be36-6fcc-7ad8-a9e6-93be354ab198&projectId=0198be1d-574a-752e-ae53-1d263a30e856","A212555F1B764AB68A8851FE624A86A5-2025-08-18-18-13-59","","2040","","images/semantic_sequence/cat_care_semantic/cat_care_semantic_5.png","0","",""
"","","","","","image-button-response","74","1055251","0.0-12.0-1.0-2.4","A212555F1B764AB68A8851FE624A86A5","A212555F1B764AB68A8851FE624A86A5","0198be36-6fcc-7ad8-a9e6-93be354ab198","0198be1d-574a-752e-ae53-1d263a30e856","{""num_scrambled_semantic"":""8"",""num_scrambled_causal"":""4"",""num_scrambled_schematic"":""4"",""participantId"":""A212555F1B764AB68A8851FE624A86A5"",""assignmentId"":""0198be36-6fcc-7ad8-a9e6-93be354ab198"",""projectId"":""0198be1d-574a-752e-ae53-1d263a30e856""}","https://test12345.live/?num_scrambled_semantic=8&num_scrambled_causal=4&num_scrambled_schematic=4&participantId=A212555F1B764AB68A8851FE624A86A5&assignmentId=0198be36-6fcc-7ad8-a9e6-93be354ab198&projectId=0198be1d-574a-752e-ae53-1d263a30e856","A212555F1B764AB68A8851FE624A86A5-2025-08-18-18-13-59","","null","","[]","null","",""
"","","","","","image-button-response","75","1059765","0.0-12.0-1.0-0.5","A212555F1B764AB68A8851FE624A86A5","A212555F1B764AB68A8851FE624A86A5","0198be36-6fcc-7ad8-a9e6-93be354ab198","0198be1d-574a-752e-ae53-1d263a30e856","{""num_scrambled_semantic"":""8"",""num_scrambled_causal"":""4"",""num_scrambled_schematic"":""4"",""participantId"":""A212555F1B764AB68A8851FE624A86A5"",""assignmentId"":""0198be36-6fcc-7ad8-a9e6-93be354ab198"",""projectId"":""0198be1d-574a-752e-ae53-1d263a30e856""}","https://test12345.live/?num_scrambled_semantic=8&num_scrambled_causal=4&num_scrambled_schematic=4&participantId=A212555F1B764AB68A8851FE624A86A5&assignmentId=0198be36-6fcc-7ad8-a9e6-93be354ab198&projectId=0198be1d-574a-752e-ae53-1d263a30e856","A212555F1B764AB68A8851FE624A86A5-2025-08-18-18-13-59","","null","","images/semantic_sequence/cat_care_semantic/cat_care_semantic_2.png","null","",""
"","","","","","image-button-response","76","1060783","0.0-12.0-1.0-1.5","A212555F1B764AB68A8851FE624A86A5","A212555F1B764AB68A8851FE624A86A5","0198be36-6fcc-7ad8-a9e6-93be354ab198","0198be1d-574a-752e-ae53-1d263a30e856","{""num_scrambled_semantic"":""8"",""num_scrambled_causal"":""4"",""num_scrambled_schematic"":""4"",""participantId"":""A212555F1B764AB68A8851FE624A86A5"",""assignmentId"":""0198be36-6fcc-7ad8-a9e6-93be354ab198"",""projectId"":""0198be1d-574a-752e-ae53-1d263a30e856""}","https://test12345.live/?num_scrambled_semantic=8&num_scrambled_causal=4&num_scrambled_schematic=4&participantId=A212555F1B764AB68A8851FE624A86A5&assignmentId=0198be36-6fcc-7ad8-a9e6-93be354ab198&projectId=0198be1d-574a-752e-ae53-1d263a30e856","A212555F1B764AB68A8851FE624A86A5-2025-08-18-18-13-59","","1016","","images/semantic_sequence/cat_care_semantic/cat_care_semantic_2.png","0","",""
"","","","","","image-button-response","77","1071584","0.0-12.0-1.0-2.5","A212555F1B764AB68A8851FE624A86A5","A212555F1B764AB68A8851FE624A86A5","0198be36-6fcc-7ad8-a9e6-93be354ab198","0198be1d-574a-752e-ae53-1d263a30e856","{""num_scrambled_semantic"":""8"",""num_scrambled_causal"":""4"",""num_scrambled_schematic"":""4"",""participantId"":""A212555F1B764AB68A8851FE624A86A5"",""assignmentId"":""0198be36-6fcc-7ad8-a9e6-93be354ab198"",""projectId"":""0198be1d-574a-752e-ae53-1d263a30e856""}","https://test12345.live/?num_scrambled_semantic=8&num_scrambled_causal=4&num_scrambled_schematic=4&participantId=A212555F1B764AB68A8851FE624A86A5&assignmentId=0198be36-6fcc-7ad8-a9e6-93be354ab198&projectId=0198be1d-574a-752e-ae53-1d263a30e856","A212555F1B764AB68A8851FE624A86A5-2025-08-18-18-13-59","","null","","[]","null","",""
"","","","","","image-button-response","78","1076099","0.0-12.0-1.0-0.6","A212555F1B764AB68A8851FE624A86A5","A212555F1B764AB68A8851FE624A86A5","0198be36-6fcc-7ad8-a9e6-93be354ab198","0198be1d-574a-752e-ae53-1d263a30e856","{""num_scrambled_semantic"":""8"",""num_scrambled_causal"":""4"",""num_scrambled_schematic"":""4"",""participantId"":""A212555F1B764AB68A8851FE624A86A5"",""assignmentId"":""0198be36-6fcc-7ad8-a9e6-93be354ab198"",""projectId"":""0198be1d-574a-752e-ae53-1d263a30e856""}","https://test12345.live/?num_scrambled_semantic=8&num_scrambled_causal=4&num_scrambled_schematic=4&participantId=A212555F1B764AB68A8851FE624A86A5&assignmentId=0198be36-6fcc-7ad8-a9e6-93be354ab198&projectId=0198be1d-574a-752e-ae53-1d263a30e856","A212555F1B764AB68A8851FE624A86A5-2025-08-18-18-13-59","","null","","images/semantic_sequence/cat_care_semantic/cat_care_semantic_9.png","null","",""
"","","","","","image-button-response","79","1077950","0.0-12.0-1.0-1.6","A212555F1B764AB68A8851FE624A86A5","A212555F1B764AB68A8851FE624A86A5","0198be36-6fcc-7ad8-a9e6-93be354ab198","0198be1d-574a-752e-ae53-1d263a30e856","{""num_scrambled_semantic"":""8"",""num_scrambled_causal"":""4"",""num_scrambled_schematic"":""4"",""participantId"":""A212555F1B764AB68A8851FE624A86A5"",""assignmentId"":""0198be36-6fcc-7ad8-a9e6-93be354ab198"",""projectId"":""0198be1d-574a-752e-ae53-1d263a30e856""}","https://test12345.live/?num_scrambled_semantic=8&num_scrambled_causal=4&num_scrambled_schematic=4&participantId=A212555F1B764AB68A8851FE624A86A5&assignmentId=0198be36-6fcc-7ad8-a9e6-93be354ab198&projectId=0198be1d-574a-752e-ae53-1d263a30e856","A212555F1B764AB68A8851FE624A86A5-2025-08-18-18-13-59","","1850","","images/semantic_sequence/cat_care_semantic/cat_care_semantic_9.png","0","",""
"","","","","","image-button-response","80","1088751","0.0-12.0-1.0-2.6","A212555F1B764AB68A8851FE624A86A5","A212555F1B764AB68A8851FE624A86A5","0198be36-6fcc-7ad8-a9e6-93be354ab198","0198be1d-574a-752e-ae53-1d263a30e856","{""num_scrambled_semantic"":""8"",""num_scrambled_causal"":""4"",""num_scrambled_schematic"":""4"",""participantId"":""A212555F1B764AB68A8851FE624A86A5"",""assignmentId"":""0198be36-6fcc-7ad8-a9e6-93be354ab198"",""projectId"":""0198be1d-574a-752e-ae53-1d263a30e856""}","https://test12345.live/?num_scrambled_semantic=8&num_scrambled_causal=4&num_scrambled_schematic=4&participantId=A212555F1B764AB68A8851FE624A86A5&assignmentId=0198be36-6fcc-7ad8-a9e6-93be354ab198&projectId=0198be1d-574a-752e-ae53-1d263a30e856","A212555F1B764AB68A8851FE624A86A5-2025-08-18-18-13-59","","null","","[]","null","",""
"","","","","","image-button-response","81","1093264","0.0-12.0-1.0-0.7","A212555F1B764AB68A8851FE624A86A5","A212555F1B764AB68A8851FE624A86A5","0198be36-6fcc-7ad8-a9e6-93be354ab198","0198be1d-574a-752e-ae53-1d263a30e856","{""num_scrambled_semantic"":""8"",""num_scrambled_causal"":""4"",""num_scrambled_schematic"":""4"",""participantId"":""A212555F1B764AB68A8851FE624A86A5"",""assignmentId"":""0198be36-6fcc-7ad8-a9e6-93be354ab198"",""projectId"":""0198be1d-574a-752e-ae53-1d263a30e856""}","https://test12345.live/?num_scrambled_semantic=8&num_scrambled_causal=4&num_scrambled_schematic=4&participantId=A212555F1B764AB68A8851FE624A86A5&assignmentId=0198be36-6fcc-7ad8-a9e6-93be354ab198&projectId=0198be1d-574a-752e-ae53-1d263a30e856","A212555F1B764AB68A8851FE624A86A5-2025-08-18-18-13-59","","null","","images/semantic_sequence/cat_care_semantic/cat_care_semantic_4.png","null","",""
"","","","","","image-button-response","82","1095990","0.0-12.0-1.0-1.7","A212555F1B764AB68A8851FE624A86A5","A212555F1B764AB68A8851FE624A86A5","0198be36-6fcc-7ad8-a9e6-93be354ab198","0198be1d-574a-752e-ae53-1d263a30e856","{""num_scrambled_semantic"":""8"",""num_scrambled_causal"":""4"",""num_scrambled_schematic"":""4"",""participantId"":""A212555F1B764AB68A8851FE624A86A5"",""assignmentId"":""0198be36-6fcc-7ad8-a9e6-93be354ab198"",""projectId"":""0198be1d-574a-752e-ae53-1d263a30e856""}","https://test12345.live/?num_scrambled_semantic=8&num_scrambled_causal=4&num_scrambled_schematic=4&participantId=A212555F1B764AB68A8851FE624A86A5&assignmentId=0198be36-6fcc-7ad8-a9e6-93be354ab198&projectId=0198be1d-574a-752e-ae53-1d263a30e856","A212555F1B764AB68A8851FE624A86A5-2025-08-18-18-13-59","","2725","","images/semantic_sequence/cat_care_semantic/cat_care_semantic_4.png","0","",""
"","","","","","image-button-response","83","1106791","0.0-12.0-1.0-2.7","A212555F1B764AB68A8851FE624A86A5","A212555F1B764AB68A8851FE624A86A5","0198be36-6fcc-7ad8-a9e6-93be354ab198","0198be1d-574a-752e-ae53-1d263a30e856","{""num_scrambled_semantic"":""8"",""num_scrambled_causal"":""4"",""num_scrambled_schematic"":""4"",""participantId"":""A212555F1B764AB68A8851FE624A86A5"",""assignmentId"":""0198be36-6fcc-7ad8-a9e6-93be354ab198"",""projectId"":""0198be1d-574a-752e-ae53-1d263a30e856""}","https://test12345.live/?num_scrambled_semantic=8&num_scrambled_causal=4&num_scrambled_schematic=4&participantId=A212555F1B764AB68A8851FE624A86A5&assignmentId=0198be36-6fcc-7ad8-a9e6-93be354ab198&projectId=0198be1d-574a-752e-ae53-1d263a30e856","A212555F1B764AB68A8851FE624A86A5-2025-08-18-18-13-59","","null","","[]","null","",""
"","","","","","image-button-response","84","1111307","0.0-12.0-1.0-0.8","A212555F1B764AB68A8851FE624A86A5","A212555F1B764AB68A8851FE624A86A5","0198be36-6fcc-7ad8-a9e6-93be354ab198","0198be1d-574a-752e-ae53-1d263a30e856","{""num_scrambled_semantic"":""8"",""num_scrambled_causal"":""4"",""num_scrambled_schematic"":""4"",""participantId"":""A212555F1B764AB68A8851FE624A86A5"",""assignmentId"":""0198be36-6fcc-7ad8-a9e6-93be354ab198"",""projectId"":""0198be1d-574a-752e-ae53-1d263a30e856""}","https://test12345.live/?num_scrambled_semantic=8&num_scrambled_causal=4&num_scrambled_schematic=4&participantId=A212555F1B764AB68A8851FE624A86A5&assignmentId=0198be36-6fcc-7ad8-a9e6-93be354ab198&projectId=0198be1d-574a-752e-ae53-1d263a30e856","A212555F1B764AB68A8851FE624A86A5-2025-08-18-18-13-59","","null","","images/semantic_sequence/cat_care_semantic/cat_care_semantic_8.png","null","",""
"","","","","","image-button-response","85","1113255","0.0-12.0-1.0-1.8","A212555F1B764AB68A8851FE624A86A5","A212555F1B764AB68A8851FE624A86A5","0198be36-6fcc-7ad8-a9e6-93be354ab198","0198be1d-574a-752e-ae53-1d263a30e856","{""num_scrambled_semantic"":""8"",""num_scrambled_causal"":""4"",""num_scrambled_schematic"":""4"",""participantId"":""A212555F1B764AB68A8851FE624A86A5"",""assignmentId"":""0198be36-6fcc-7ad8-a9e6-93be354ab198"",""projectId"":""0198be1d-574a-752e-ae53-1d263a30e856""}","https://test12345.live/?num_scrambled_semantic=8&num_scrambled_causal=4&num_scrambled_schematic=4&participantId=A212555F1B764AB68A8851FE624A86A5&assignmentId=0198be36-6fcc-7ad8-a9e6-93be354ab198&projectId=0198be1d-574a-752e-ae53-1d263a30e856","A212555F1B764AB68A8851FE624A86A5-2025-08-18-18-13-59","","1947","","images/semantic_sequence/cat_care_semantic/cat_care_semantic_8.png","0","",""
"","","","","","image-button-response","86","1124057","0.0-12.0-1.0-2.8","A212555F1B764AB68A8851FE624A86A5","A212555F1B764AB68A8851FE624A86A5","0198be36-6fcc-7ad8-a9e6-93be354ab198","0198be1d-574a-752e-ae53-1d263a30e856","{""num_scrambled_semantic"":""8"",""num_scrambled_causal"":""4"",""num_scrambled_schematic"":""4"",""participantId"":""A212555F1B764AB68A8851FE624A86A5"",""assignmentId"":""0198be36-6fcc-7ad8-a9e6-93be354ab198"",""projectId"":""0198be1d-574a-752e-ae53-1d263a30e856""}","https://test12345.live/?num_scrambled_semantic=8&num_scrambled_causal=4&num_scrambled_schematic=4&participantId=A212555F1B764AB68A8851FE624A86A5&assignmentId=0198be36-6fcc-7ad8-a9e6-93be354ab198&projectId=0198be1d-574a-752e-ae53-1d263a30e856","A212555F1B764AB68A8851FE624A86A5-2025-08-18-18-13-59","","null","","[]","null","",""
"","","","","","image-button-response","87","1128574","0.0-12.0-1.0-0.9","A212555F1B764AB68A8851FE624A86A5","A212555F1B764AB68A8851FE624A86A5","0198be36-6fcc-7ad8-a9e6-93be354ab198","0198be1d-574a-752e-ae53-1d263a30e856","{""num_scrambled_semantic"":""8"",""num_scrambled_causal"":""4"",""num_scrambled_schematic"":""4"",""participantId"":""A212555F1B764AB68A8851FE624A86A5"",""assignmentId"":""0198be36-6fcc-7ad8-a9e6-93be354ab198"",""projectId"":""0198be1d-574a-752e-ae53-1d263a30e856""}","https://test12345.live/?num_scrambled_semantic=8&num_scrambled_causal=4&num_scrambled_schematic=4&participantId=A212555F1B764AB68A8851FE624A86A5&assignmentId=0198be36-6fcc-7ad8-a9e6-93be354ab198&projectId=0198be1d-574a-752e-ae53-1d263a30e856","A212555F1B764AB68A8851FE624A86A5-2025-08-18-18-13-59","","null","","images/semantic_sequence/cat_care_semantic/cat_care_semantic_7.png","null","",""
"","","","","","image-button-response","88","1129887","0.0-12.0-1.0-1.9","A212555F1B764AB68A8851FE624A86A5","A212555F1B764AB68A8851FE624A86A5","0198be36-6fcc-7ad8-a9e6-93be354ab198","0198be1d-574a-752e-ae53-1d263a30e856","{""num_scrambled_semantic"":""8"",""num_scrambled_causal"":""4"",""num_scrambled_schematic"":""4"",""participantId"":""A212555F1B764AB68A8851FE624A86A5"",""assignmentId"":""0198be36-6fcc-7ad8-a9e6-93be354ab198"",""projectId"":""0198be1d-574a-752e-ae53-1d263a30e856""}","https://test12345.live/?num_scrambled_semantic=8&num_scrambled_causal=4&num_scrambled_schematic=4&participantId=A212555F1B764AB68A8851FE624A86A5&assignmentId=0198be36-6fcc-7ad8-a9e6-93be354ab198&projectId=0198be1d-574a-752e-ae53-1d263a30e856","A212555F1B764AB68A8851FE624A86A5-2025-08-18-18-13-59","","1312","","images/semantic_sequence/cat_care_semantic/cat_care_semantic_7.png","0","",""
"","","","","","image-button-response","89","1140689","0.0-12.0-1.0-2.9","A212555F1B764AB68A8851FE624A86A5","A212555F1B764AB68A8851FE624A86A5","0198be36-6fcc-7ad8-a9e6-93be354ab198","0198be1d-574a-752e-ae53-1d263a30e856","{""num_scrambled_semantic"":""8"",""num_scrambled_causal"":""4"",""num_scrambled_schematic"":""4"",""participantId"":""A212555F1B764AB68A8851FE624A86A5"",""assignmentId"":""0198be36-6fcc-7ad8-a9e6-93be354ab198"",""projectId"":""0198be1d-574a-752e-ae53-1d263a30e856""}","https://test12345.live/?num_scrambled_semantic=8&num_scrambled_causal=4&num_scrambled_schematic=4&participantId=A212555F1B764AB68A8851FE624A86A5&assignmentId=0198be36-6fcc-7ad8-a9e6-93be354ab198&projectId=0198be1d-574a-752e-ae53-1d263a30e856","A212555F1B764AB68A8851FE624A86A5-2025-08-18-18-13-59","","null","","[]","null","",""
"","","","","","html-audio-response","90","1233814","0.0-13.0","A212555F1B764AB68A8851FE624A86A5","A212555F1B764AB68A8851FE624A86A5","0198be36-6fcc-7ad8-a9e6-93be354ab198","0198be1d-574a-752e-ae53-1d263a30e856","{""num_scrambled_semantic"":""8"",""num_scrambled_causal"":""4"",""num_scrambled_schematic"":""4"",""participantId"":""A212555F1B764AB68A8851FE624A86A5"",""assignmentId"":""0198be36-6fcc-7ad8-a9e6-93be354ab198"",""projectId"":""0198be1d-574a-752e-ae53-1d263a30e856""}","https://test12345.live/?num_scrambled_semantic=8&num_scrambled_causal=4&num_scrambled_schematic=4&participantId=A212555F1B764AB68A8851FE624A86A5&assignmentId=0198be36-6fcc-7ad8-a9e6-93be354ab198&projectId=0198be1d-574a-752e-ae53-1d263a30e856","A212555F1B764AB68A8851FE624A86A5-2025-08-18-18-13-59","","44777","","[""<span style=\""color: red; font-size: 24px\""> NOW RECORDING</span><p>Please say out loud all the images you saw, in the exact order you saw them. Try to recall as many images as you can, but remember: getting the order right is more important than the number of images you recall.</p>""]","","15","cat_care_semantic"
"","","","","","image-button-response","91","1239890","0.0-14.0-0.0","A212555F1B764AB68A8851FE624A86A5","A212555F1B764AB68A8851FE624A86A5","0198be36-6fcc-7ad8-a9e6-93be354ab198","0198be1d-574a-752e-ae53-1d263a30e856","{""num_scrambled_semantic"":""8"",""num_scrambled_causal"":""4"",""num_scrambled_schematic"":""4"",""participantId"":""A212555F1B764AB68A8851FE624A86A5"",""assignmentId"":""0198be36-6fcc-7ad8-a9e6-93be354ab198"",""projectId"":""0198be1d-574a-752e-ae53-1d263a30e856""}","https://test12345.live/?num_scrambled_semantic=8&num_scrambled_causal=4&num_scrambled_schematic=4&participantId=A212555F1B764AB68A8851FE624A86A5&assignmentId=0198be36-6fcc-7ad8-a9e6-93be354ab198&projectId=0198be1d-574a-752e-ae53-1d263a30e856","A212555F1B764AB68A8851FE624A86A5-2025-08-18-18-13-59","","null","","images/causal_sequence/coin_causal/coin_causal_0.png","null","",""
"","","","","","image-button-response","92","1244409","0.0-14.0-1.0-0.0","A212555F1B764AB68A8851FE624A86A5","A212555F1B764AB68A8851FE624A86A5","0198be36-6fcc-7ad8-a9e6-93be354ab198","0198be1d-574a-752e-ae53-1d263a30e856","{""num_scrambled_semantic"":""8"",""num_scrambled_causal"":""4"",""num_scrambled_schematic"":""4"",""participantId"":""A212555F1B764AB68A8851FE624A86A5"",""assignmentId"":""0198be36-6fcc-7ad8-a9e6-93be354ab198"",""projectId"":""0198be1d-574a-752e-ae53-1d263a30e856""}","https://test12345.live/?num_scrambled_semantic=8&num_scrambled_causal=4&num_scrambled_schematic=4&participantId=A212555F1B764AB68A8851FE624A86A5&assignmentId=0198be36-6fcc-7ad8-a9e6-93be354ab198&projectId=0198be1d-574a-752e-ae53-1d263a30e856","A212555F1B764AB68A8851FE624A86A5-2025-08-18-18-13-59","","null","","images/causal_sequence/coin_causal/coin_causal_3.png","null","",""
"","","","","","image-button-response","93","1246384","0.0-14.0-1.0-1.0","A212555F1B764AB68A8851FE624A86A5","A212555F1B764AB68A8851FE624A86A5","0198be36-6fcc-7ad8-a9e6-93be354ab198","0198be1d-574a-752e-ae53-1d263a30e856","{""num_scrambled_semantic"":""8"",""num_scrambled_causal"":""4"",""num_scrambled_schematic"":""4"",""participantId"":""A212555F1B764AB68A8851FE624A86A5"",""assignmentId"":""0198be36-6fcc-7ad8-a9e6-93be354ab198"",""projectId"":""0198be1d-574a-752e-ae53-1d263a30e856""}","https://test12345.live/?num_scrambled_semantic=8&num_scrambled_causal=4&num_scrambled_schematic=4&participantId=A212555F1B764AB68A8851FE624A86A5&assignmentId=0198be36-6fcc-7ad8-a9e6-93be354ab198&projectId=0198be1d-574a-752e-ae53-1d263a30e856","A212555F1B764AB68A8851FE624A86A5-2025-08-18-18-13-59","","1975","","images/causal_sequence/coin_causal/coin_causal_3.png","0","",""
"","","","","","image-button-response","94","1257185","0.0-14.0-1.0-2.0","A212555F1B764AB68A8851FE624A86A5","A212555F1B764AB68A8851FE624A86A5","0198be36-6fcc-7ad8-a9e6-93be354ab198","0198be1d-574a-752e-ae53-1d263a30e856","{""num_scrambled_semantic"":""8"",""num_scrambled_causal"":""4"",""num_scrambled_schematic"":""4"",""participantId"":""A212555F1B764AB68A8851FE624A86A5"",""assignmentId"":""0198be36-6fcc-7ad8-a9e6-93be354ab198"",""projectId"":""0198be1d-574a-752e-ae53-1d263a30e856""}","https://test12345.live/?num_scrambled_semantic=8&num_scrambled_causal=4&num_scrambled_schematic=4&participantId=A212555F1B764AB68A8851FE624A86A5&assignmentId=0198be36-6fcc-7ad8-a9e6-93be354ab198&projectId=0198be1d-574a-752e-ae53-1d263a30e856","A212555F1B764AB68A8851FE624A86A5-2025-08-18-18-13-59","","null","","[]","null","",""
"","","","","","image-button-response","95","1261703","0.0-14.0-1.0-0.1","A212555F1B764AB68A8851FE624A86A5","A212555F1B764AB68A8851FE624A86A5","0198be36-6fcc-7ad8-a9e6-93be354ab198","0198be1d-574a-752e-ae53-1d263a30e856","{""num_scrambled_semantic"":""8"",""num_scrambled_causal"":""4"",""num_scrambled_schematic"":""4"",""participantId"":""A212555F1B764AB68A8851FE624A86A5"",""assignmentId"":""0198be36-6fcc-7ad8-a9e6-93be354ab198"",""projectId"":""0198be1d-574a-752e-ae53-1d263a30e856""}","https://test12345.live/?num_scrambled_semantic=8&num_scrambled_causal=4&num_scrambled_schematic=4&participantId=A212555F1B764AB68A8851FE624A86A5&assignmentId=0198be36-6fcc-7ad8-a9e6-93be354ab198&projectId=0198be1d-574a-752e-ae53-1d263a30e856","A212555F1B764AB68A8851FE624A86A5-2025-08-18-18-13-59","","null","","images/causal_sequence/coin_causal/coin_causal_4.png","null","",""
"","","","","","image-button-response","96","1263401","0.0-14.0-1.0-1.1","A212555F1B764AB68A8851FE624A86A5","A212555F1B764AB68A8851FE624A86A5","0198be36-6fcc-7ad8-a9e6-93be354ab198","0198be1d-574a-752e-ae53-1d263a30e856","{""num_scrambled_semantic"":""8"",""num_scrambled_causal"":""4"",""num_scrambled_schematic"":""4"",""participantId"":""A212555F1B764AB68A8851FE624A86A5"",""assignmentId"":""0198be36-6fcc-7ad8-a9e6-93be354ab198"",""projectId"":""0198be1d-574a-752e-ae53-1d263a30e856""}","https://test12345.live/?num_scrambled_semantic=8&num_scrambled_causal=4&num_scrambled_schematic=4&participantId=A212555F1B764AB68A8851FE624A86A5&assignmentId=0198be36-6fcc-7ad8-a9e6-93be354ab198&projectId=0198be1d-574a-752e-ae53-1d263a30e856","A212555F1B764AB68A8851FE624A86A5-2025-08-18-18-13-59","","1699","","images/causal_sequence/coin_causal/coin_causal_4.png","0","",""
"","","","","","image-button-response","97","1274202","0.0-14.0-1.0-2.1","A212555F1B764AB68A8851FE624A86A5","A212555F1B764AB68A8851FE624A86A5","0198be36-6fcc-7ad8-a9e6-93be354ab198","0198be1d-574a-752e-ae53-1d263a30e856","{""num_scrambled_semantic"":""8"",""num_scrambled_causal"":""4"",""num_scrambled_schematic"":""4"",""participantId"":""A212555F1B764AB68A8851FE624A86A5"",""assignmentId"":""0198be36-6fcc-7ad8-a9e6-93be354ab198"",""projectId"":""0198be1d-574a-752e-ae53-1d263a30e856""}","https://test12345.live/?num_scrambled_semantic=8&num_scrambled_causal=4&num_scrambled_schematic=4&participantId=A212555F1B764AB68A8851FE624A86A5&assignmentId=0198be36-6fcc-7ad8-a9e6-93be354ab198&projectId=0198be1d-574a-752e-ae53-1d263a30e856","A212555F1B764AB68A8851FE624A86A5-2025-08-18-18-13-59","","null","","[]","null","",""
"","","","","","image-button-response","98","1278717","0.0-14.0-1.0-0.2","A212555F1B764AB68A8851FE624A86A5","A212555F1B764AB68A8851FE624A86A5","0198be36-6fcc-7ad8-a9e6-93be354ab198","0198be1d-574a-752e-ae53-1d263a30e856","{""num_scrambled_semantic"":""8"",""num_scrambled_causal"":""4"",""num_scrambled_schematic"":""4"",""participantId"":""A212555F1B764AB68A8851FE624A86A5"",""assignmentId"":""0198be36-6fcc-7ad8-a9e6-93be354ab198"",""projectId"":""0198be1d-574a-752e-ae53-1d263a30e856""}","https://test12345.live/?num_scrambled_semantic=8&num_scrambled_causal=4&num_scrambled_schematic=4&participantId=A212555F1B764AB68A8851FE624A86A5&assignmentId=0198be36-6fcc-7ad8-a9e6-93be354ab198&projectId=0198be1d-574a-752e-ae53-1d263a30e856","A212555F1B764AB68A8851FE624A86A5-2025-08-18-18-13-59","","null","","images/causal_sequence/coin_causal/coin_causal_ten.png","null","",""
"","","","","","image-button-response","99","1280347","0.0-14.0-1.0-1.2","A212555F1B764AB68A8851FE624A86A5","A212555F1B764AB68A8851FE624A86A5","0198be36-6fcc-7ad8-a9e6-93be354ab198","0198be1d-574a-752e-ae53-1d263a30e856","{""num_scrambled_semantic"":""8"",""num_scrambled_causal"":""4"",""num_scrambled_schematic"":""4"",""participantId"":""A212555F1B764AB68A8851FE624A86A5"",""assignmentId"":""0198be36-6fcc-7ad8-a9e6-93be354ab198"",""projectId"":""0198be1d-574a-752e-ae53-1d263a30e856""}","https://test12345.live/?num_scrambled_semantic=8&num_scrambled_causal=4&num_scrambled_schematic=4&participantId=A212555F1B764AB68A8851FE624A86A5&assignmentId=0198be36-6fcc-7ad8-a9e6-93be354ab198&projectId=0198be1d-574a-752e-ae53-1d263a30e856","A212555F1B764AB68A8851FE624A86A5-2025-08-18-18-13-59","","1627","","images/causal_sequence/coin_causal/coin_causal_ten.png","0","",""
"","","","","","image-button-response","100","1291149","0.0-14.0-1.0-2.2","A212555F1B764AB68A8851FE624A86A5","A212555F1B764AB68A8851FE624A86A5","0198be36-6fcc-7ad8-a9e6-93be354ab198","0198be1d-574a-752e-ae53-1d263a30e856","{""num_scrambled_semantic"":""8"",""num_scrambled_causal"":""4"",""num_scrambled_schematic"":""4"",""participantId"":""A212555F1B764AB68A8851FE624A86A5"",""assignmentId"":""0198be36-6fcc-7ad8-a9e6-93be354ab198"",""projectId"":""0198be1d-574a-752e-ae53-1d263a30e856""}","https://test12345.live/?num_scrambled_semantic=8&num_scrambled_causal=4&num_scrambled_schematic=4&participantId=A212555F1B764AB68A8851FE624A86A5&assignmentId=0198be36-6fcc-7ad8-a9e6-93be354ab198&projectId=0198be1d-574a-752e-ae53-1d263a30e856","A212555F1B764AB68A8851FE624A86A5-2025-08-18-18-13-59","","null","","[]","null","",""
"","","","","","image-button-response","101","1295662","0.0-14.0-1.0-0.3","A212555F1B764AB68A8851FE624A86A5","A212555F1B764AB68A8851FE624A86A5","0198be36-6fcc-7ad8-a9e6-93be354ab198","0198be1d-574a-752e-ae53-1d263a30e856","{""num_scrambled_semantic"":""8"",""num_scrambled_causal"":""4"",""num_scrambled_schematic"":""4"",""participantId"":""A212555F1B764AB68A8851FE624A86A5"",""assignmentId"":""0198be36-6fcc-7ad8-a9e6-93be354ab198"",""projectId"":""0198be1d-574a-752e-ae53-1d263a30e856""}","https://test12345.live/?num_scrambled_semantic=8&num_scrambled_causal=4&num_scrambled_schematic=4&participantId=A212555F1B764AB68A8851FE624A86A5&assignmentId=0198be36-6fcc-7ad8-a9e6-93be354ab198&projectId=0198be1d-574a-752e-ae53-1d263a30e856","A212555F1B764AB68A8851FE624A86A5-2025-08-18-18-13-59","","null","","images/causal_sequence/coin_causal/coin_causal_7.png","null","",""
"","","","","","image-button-response","102","1298035","0.0-14.0-1.0-1.3","A212555F1B764AB68A8851FE624A86A5","A212555F1B764AB68A8851FE624A86A5","0198be36-6fcc-7ad8-a9e6-93be354ab198","0198be1d-574a-752e-ae53-1d263a30e856","{""num_scrambled_semantic"":""8"",""num_scrambled_causal"":""4"",""num_scrambled_schematic"":""4"",""participantId"":""A212555F1B764AB68A8851FE624A86A5"",""assignmentId"":""0198be36-6fcc-7ad8-a9e6-93be354ab198"",""projectId"":""0198be1d-574a-752e-ae53-1d263a30e856""}","https://test12345.live/?num_scrambled_semantic=8&num_scrambled_causal=4&num_scrambled_schematic=4&participantId=A212555F1B764AB68A8851FE624A86A5&assignmentId=0198be36-6fcc-7ad8-a9e6-93be354ab198&projectId=0198be1d-574a-752e-ae53-1d263a30e856","A212555F1B764AB68A8851FE624A86A5-2025-08-18-18-13-59","","2372","","images/causal_sequence/coin_causal/coin_causal_7.png","1","",""
"","","","","","image-button-response","103","1308837","0.0-14.0-1.0-2.3","A212555F1B764AB68A8851FE624A86A5","A212555F1B764AB68A8851FE624A86A5","0198be36-6fcc-7ad8-a9e6-93be354ab198","0198be1d-574a-752e-ae53-1d263a30e856","{""num_scrambled_semantic"":""8"",""num_scrambled_causal"":""4"",""num_scrambled_schematic"":""4"",""participantId"":""A212555F1B764AB68A8851FE624A86A5"",""assignmentId"":""0198be36-6fcc-7ad8-a9e6-93be354ab198"",""projectId"":""0198be1d-574a-752e-ae53-1d263a30e856""}","https://test12345.live/?num_scrambled_semantic=8&num_scrambled_causal=4&num_scrambled_schematic=4&participantId=A212555F1B764AB68A8851FE624A86A5&assignmentId=0198be36-6fcc-7ad8-a9e6-93be354ab198&projectId=0198be1d-574a-752e-ae53-1d263a30e856","A212555F1B764AB68A8851FE624A86A5-2025-08-18-18-13-59","","null","","[]","null","",""
"","","","","","image-button-response","104","1313357","0.0-14.0-1.0-0.4","A212555F1B764AB68A8851FE624A86A5","A212555F1B764AB68A8851FE624A86A5","0198be36-6fcc-7ad8-a9e6-93be354ab198","0198be1d-574a-752e-ae53-1d263a30e856","{""num_scrambled_semantic"":""8"",""num_scrambled_causal"":""4"",""num_scrambled_schematic"":""4"",""participantId"":""A212555F1B764AB68A8851FE624A86A5"",""assignmentId"":""0198be36-6fcc-7ad8-a9e6-93be354ab198"",""projectId"":""0198be1d-574a-752e-ae53-1d263a30e856""}","https://test12345.live/?num_scrambled_semantic=8&num_scrambled_causal=4&num_scrambled_schematic=4&participantId=A212555F1B764AB68A8851FE624A86A5&assignmentId=0198be36-6fcc-7ad8-a9e6-93be354ab198&projectId=0198be1d-574a-752e-ae53-1d263a30e856","A212555F1B764AB68A8851FE624A86A5-2025-08-18-18-13-59","","null","","images/causal_sequence/coin_causal/coin_causal_5.png","null","",""
"","","","","","image-button-response","105","1316216","0.0-14.0-1.0-1.4","A212555F1B764AB68A8851FE624A86A5","A212555F1B764AB68A8851FE624A86A5","0198be36-6fcc-7ad8-a9e6-93be354ab198","0198be1d-574a-752e-ae53-1d263a30e856","{""num_scrambled_semantic"":""8"",""num_scrambled_causal"":""4"",""num_scrambled_schematic"":""4"",""participantId"":""A212555F1B764AB68A8851FE624A86A5"",""assignmentId"":""0198be36-6fcc-7ad8-a9e6-93be354ab198"",""projectId"":""0198be1d-574a-752e-ae53-1d263a30e856""}","https://test12345.live/?num_scrambled_semantic=8&num_scrambled_causal=4&num_scrambled_schematic=4&participantId=A212555F1B764AB68A8851FE624A86A5&assignmentId=0198be36-6fcc-7ad8-a9e6-93be354ab198&projectId=0198be1d-574a-752e-ae53-1d263a30e856","A212555F1B764AB68A8851FE624A86A5-2025-08-18-18-13-59","","2858","","images/causal_sequence/coin_causal/coin_causal_5.png","0","",""
"","","","","","image-button-response","106","1327017","0.0-14.0-1.0-2.4","A212555F1B764AB68A8851FE624A86A5","A212555F1B764AB68A8851FE624A86A5","0198be36-6fcc-7ad8-a9e6-93be354ab198","0198be1d-574a-752e-ae53-1d263a30e856","{""num_scrambled_semantic"":""8"",""num_scrambled_causal"":""4"",""num_scrambled_schematic"":""4"",""participantId"":""A212555F1B764AB68A8851FE624A86A5"",""assignmentId"":""0198be36-6fcc-7ad8-a9e6-93be354ab198"",""projectId"":""0198be1d-574a-752e-ae53-1d263a30e856""}","https://test12345.live/?num_scrambled_semantic=8&num_scrambled_causal=4&num_scrambled_schematic=4&participantId=A212555F1B764AB68A8851FE624A86A5&assignmentId=0198be36-6fcc-7ad8-a9e6-93be354ab198&projectId=0198be1d-574a-752e-ae53-1d263a30e856","A212555F1B764AB68A8851FE624A86A5-2025-08-18-18-13-59","","null","","[]","null","",""
"","","","","","image-button-response","107","1331532","0.0-14.0-1.0-0.5","A212555F1B764AB68A8851FE624A86A5","A212555F1B764AB68A8851FE624A86A5","0198be36-6fcc-7ad8-a9e6-93be354ab198","0198be1d-574a-752e-ae53-1d263a30e856","{""num_scrambled_semantic"":""8"",""num_scrambled_causal"":""4"",""num_scrambled_schematic"":""4"",""participantId"":""A212555F1B764AB68A8851FE624A86A5"",""assignmentId"":""0198be36-6fcc-7ad8-a9e6-93be354ab198"",""projectId"":""0198be1d-574a-752e-ae53-1d263a30e856""}","https://test12345.live/?num_scrambled_semantic=8&num_scrambled_causal=4&num_scrambled_schematic=4&participantId=A212555F1B764AB68A8851FE624A86A5&assignmentId=0198be36-6fcc-7ad8-a9e6-93be354ab198&projectId=0198be1d-574a-752e-ae53-1d263a30e856","A212555F1B764AB68A8851FE624A86A5-2025-08-18-18-13-59","","null","","images/causal_sequence/coin_causal/coin_causal_6.png","null","",""
"","","","","","image-button-response","108","1335534","0.0-14.0-1.0-1.5","A212555F1B764AB68A8851FE624A86A5","A212555F1B764AB68A8851FE624A86A5","0198be36-6fcc-7ad8-a9e6-93be354ab198","0198be1d-574a-752e-ae53-1d263a30e856","{""num_scrambled_semantic"":""8"",""num_scrambled_causal"":""4"",""num_scrambled_schematic"":""4"",""participantId"":""A212555F1B764AB68A8851FE624A86A5"",""assignmentId"":""0198be36-6fcc-7ad8-a9e6-93be354ab198"",""projectId"":""0198be1d-574a-752e-ae53-1d263a30e856""}","https://test12345.live/?num_scrambled_semantic=8&num_scrambled_causal=4&num_scrambled_schematic=4&participantId=A212555F1B764AB68A8851FE624A86A5&assignmentId=0198be36-6fcc-7ad8-a9e6-93be354ab198&projectId=0198be1d-574a-752e-ae53-1d263a30e856","A212555F1B764AB68A8851FE624A86A5-2025-08-18-18-13-59","","null","","images/causal_sequence/coin_causal/coin_causal_6.png","null","",""
"","","","","","image-button-response","109","1346335","0.0-14.0-1.0-2.5","A212555F1B764AB68A8851FE624A86A5","A212555F1B764AB68A8851FE624A86A5","0198be36-6fcc-7ad8-a9e6-93be354ab198","0198be1d-574a-752e-ae53-1d263a30e856","{""num_scrambled_semantic"":""8"",""num_scrambled_causal"":""4"",""num_scrambled_schematic"":""4"",""participantId"":""A212555F1B764AB68A8851FE624A86A5"",""assignmentId"":""0198be36-6fcc-7ad8-a9e6-93be354ab198"",""projectId"":""0198be1d-574a-752e-ae53-1d263a30e856""}","https://test12345.live/?num_scrambled_semantic=8&num_scrambled_causal=4&num_scrambled_schematic=4&participantId=A212555F1B764AB68A8851FE624A86A5&assignmentId=0198be36-6fcc-7ad8-a9e6-93be354ab198&projectId=0198be1d-574a-752e-ae53-1d263a30e856","A212555F1B764AB68A8851FE624A86A5-2025-08-18-18-13-59","","null","","[]","null","",""
"","","","","","image-button-response","110","1350854","0.0-14.0-1.0-0.6","A212555F1B764AB68A8851FE624A86A5","A212555F1B764AB68A8851FE624A86A5","0198be36-6fcc-7ad8-a9e6-93be354ab198","0198be1d-574a-752e-ae53-1d263a30e856","{""num_scrambled_semantic"":""8"",""num_scrambled_causal"":""4"",""num_scrambled_schematic"":""4"",""participantId"":""A212555F1B764AB68A8851FE624A86A5"",""assignmentId"":""0198be36-6fcc-7ad8-a9e6-93be354ab198"",""projectId"":""0198be1d-574a-752e-ae53-1d263a30e856""}","https://test12345.live/?num_scrambled_semantic=8&num_scrambled_causal=4&num_scrambled_schematic=4&participantId=A212555F1B764AB68A8851FE624A86A5&assignmentId=0198be36-6fcc-7ad8-a9e6-93be354ab198&projectId=0198be1d-574a-752e-ae53-1d263a30e856","A212555F1B764AB68A8851FE624A86A5-2025-08-18-18-13-59","","null","","images/causal_sequence/coin_causal/coin_causal_1.png","null","",""
"","","","","","image-button-response","111","1352899","0.0-14.0-1.0-1.6","A212555F1B764AB68A8851FE624A86A5","A212555F1B764AB68A8851FE624A86A5","0198be36-6fcc-7ad8-a9e6-93be354ab198","0198be1d-574a-752e-ae53-1d263a30e856","{""num_scrambled_semantic"":""8"",""num_scrambled_causal"":""4"",""num_scrambled_schematic"":""4"",""participantId"":""A212555F1B764AB68A8851FE624A86A5"",""assignmentId"":""0198be36-6fcc-7ad8-a9e6-93be354ab198"",""projectId"":""0198be1d-574a-752e-ae53-1d263a30e856""}","https://test12345.live/?num_scrambled_semantic=8&num_scrambled_causal=4&num_scrambled_schematic=4&participantId=A212555F1B764AB68A8851FE624A86A5&assignmentId=0198be36-6fcc-7ad8-a9e6-93be354ab198&projectId=0198be1d-574a-752e-ae53-1d263a30e856","A212555F1B764AB68A8851FE624A86A5-2025-08-18-18-13-59","","2045","","images/causal_sequence/coin_causal/coin_causal_1.png","0","",""
"","","","","","image-button-response","112","1363699","0.0-14.0-1.0-2.6","A212555F1B764AB68A8851FE624A86A5","A212555F1B764AB68A8851FE624A86A5","0198be36-6fcc-7ad8-a9e6-93be354ab198","0198be1d-574a-752e-ae53-1d263a30e856","{""num_scrambled_semantic"":""8"",""num_scrambled_causal"":""4"",""num_scrambled_schematic"":""4"",""participantId"":""A212555F1B764AB68A8851FE624A86A5"",""assignmentId"":""0198be36-6fcc-7ad8-a9e6-93be354ab198"",""projectId"":""0198be1d-574a-752e-ae53-1d263a30e856""}","https://test12345.live/?num_scrambled_semantic=8&num_scrambled_causal=4&num_scrambled_schematic=4&participantId=A212555F1B764AB68A8851FE624A86A5&assignmentId=0198be36-6fcc-7ad8-a9e6-93be354ab198&projectId=0198be1d-574a-752e-ae53-1d263a30e856","A212555F1B764AB68A8851FE624A86A5-2025-08-18-18-13-59","","null","","[]","null","",""
"","","","","","image-button-response","113","1368216","0.0-14.0-1.0-0.7","A212555F1B764AB68A8851FE624A86A5","A212555F1B764AB68A8851FE624A86A5","0198be36-6fcc-7ad8-a9e6-93be354ab198","0198be1d-574a-752e-ae53-1d263a30e856","{""num_scrambled_semantic"":""8"",""num_scrambled_causal"":""4"",""num_scrambled_schematic"":""4"",""participantId"":""A212555F1B764AB68A8851FE624A86A5"",""assignmentId"":""0198be36-6fcc-7ad8-a9e6-93be354ab198"",""projectId"":""0198be1d-574a-752e-ae53-1d263a30e856""}","https://test12345.live/?num_scrambled_semantic=8&num_scrambled_causal=4&num_scrambled_schematic=4&participantId=A212555F1B764AB68A8851FE624A86A5&assignmentId=0198be36-6fcc-7ad8-a9e6-93be354ab198&projectId=0198be1d-574a-752e-ae53-1d263a30e856","A212555F1B764AB68A8851FE624A86A5-2025-08-18-18-13-59","","null","","images/causal_sequence/coin_causal/coin_causal_8.png","null","",""
"","","","","","image-button-response","114","1369852","0.0-14.0-1.0-1.7","A212555F1B764AB68A8851FE624A86A5","A212555F1B764AB68A8851FE624A86A5","0198be36-6fcc-7ad8-a9e6-93be354ab198","0198be1d-574a-752e-ae53-1d263a30e856","{""num_scrambled_semantic"":""8"",""num_scrambled_causal"":""4"",""num_scrambled_schematic"":""4"",""participantId"":""A212555F1B764AB68A8851FE624A86A5"",""assignmentId"":""0198be36-6fcc-7ad8-a9e6-93be354ab198"",""projectId"":""0198be1d-574a-752e-ae53-1d263a30e856""}","https://test12345.live/?num_scrambled_semantic=8&num_scrambled_causal=4&num_scrambled_schematic=4&participantId=A212555F1B764AB68A8851FE624A86A5&assignmentId=0198be36-6fcc-7ad8-a9e6-93be354ab198&projectId=0198be1d-574a-752e-ae53-1d263a30e856","A212555F1B764AB68A8851FE624A86A5-2025-08-18-18-13-59","","1637","","images/causal_sequence/coin_causal/coin_causal_8.png","0","",""
