"success","timeout","failed_images","failed_audio","failed_video","trial_type","trial_index","time_elapsed","internal_node_id","subject","subject_id","study_id","session_id","urlvar","current_url","audio_id","view_history","rt","device_id","stimulus","response","estimated_stimulus_onset","seq_name"
"true","false","[]","[]","[]","preload","0","108649","0.0-0.0","A3648FD0E9B24E6CBEA9A7BD38955AE3","A3648FD0E9B24E6CBEA9A7BD38955AE3","0198ee69-f030-7330-b5ac-450dcc8cb518","0198ee3c-27ac-7803-a9ea-f3b4ad4ad678","{""num_scrambled_semantic"":""8"",""num_scrambled_causal"":""4"",""num_scrambled_schematic"":""4"",""participantId"":""A3648FD0E9B24E6CBEA9A7BD38955AE3"",""assignmentId"":""0198ee69-f030-7330-b5ac-450dcc8cb518"",""projectId"":""0198ee3c-27ac-7803-a9ea-f3b4ad4ad678""}","https://test12345.live/?num_scrambled_semantic=8&num_scrambled_causal=4&num_scrambled_schematic=4&participantId=A3648FD0E9B24E6CBEA9A7BD38955AE3&assignmentId=0198ee69-f030-7330-b5ac-450dcc8cb518&projectId=0198ee3c-27ac-7803-a9ea-f3b4ad4ad678","A3648FD0E9B24E6CBEA9A7BD38955AE3-2025-08-28-03-06-55","","","","","","",""
"","","","","","instructions","1","144912","0.0-1.0","A3648FD0E9B24E6CBEA9A7BD38955AE3","A3648FD0E9B24E6CBEA9A7BD38955AE3","0198ee69-f030-7330-b5ac-450dcc8cb518","0198ee3c-27ac-7803-a9ea-f3b4ad4ad678","{""num_scrambled_semantic"":""8"",""num_scrambled_causal"":""4"",""num_scrambled_schematic"":""4"",""participantId"":""A3648FD0E9B24E6CBEA9A7BD38955AE3"",""assignmentId"":""0198ee69-f030-7330-b5ac-450dcc8cb518"",""projectId"":""0198ee3c-27ac-7803-a9ea-f3b4ad4ad678""}","https://test12345.live/?num_scrambled_semantic=8&num_scrambled_causal=4&num_scrambled_schematic=4&participantId=A3648FD0E9B24E6CBEA9A7BD38955AE3&assignmentId=0198ee69-f030-7330-b5ac-450dcc8cb518&projectId=0198ee3c-27ac-7803-a9ea-f3b4ad4ad678","A3648FD0E9B24E6CBEA9A7BD38955AE3-2025-08-28-03-06-55","[{""page_index"":0,""viewing_time"":36262}]","36263","","","","",""
"","","","","","instructions","2","149586","0.0-2.0","A3648FD0E9B24E6CBEA9A7BD38955AE3","A3648FD0E9B24E6CBEA9A7BD38955AE3","0198ee69-f030-7330-b5ac-450dcc8cb518","0198ee3c-27ac-7803-a9ea-f3b4ad4ad678","{""num_scrambled_semantic"":""8"",""num_scrambled_causal"":""4"",""num_scrambled_schematic"":""4"",""participantId"":""A3648FD0E9B24E6CBEA9A7BD38955AE3"",""assignmentId"":""0198ee69-f030-7330-b5ac-450dcc8cb518"",""projectId"":""0198ee3c-27ac-7803-a9ea-f3b4ad4ad678""}","https://test12345.live/?num_scrambled_semantic=8&num_scrambled_causal=4&num_scrambled_schematic=4&participantId=A3648FD0E9B24E6CBEA9A7BD38955AE3&assignmentId=0198ee69-f030-7330-b5ac-450dcc8cb518&projectId=0198ee3c-27ac-7803-a9ea-f3b4ad4ad678","A3648FD0E9B24E6CBEA9A7BD38955AE3-2025-08-28-03-06-55","[{""page_index"":0,""viewing_time"":4673}]","4673","","","","",""
"true","","","","","fullscreen","3","153610","0.0-3.0","A3648FD0E9B24E6CBEA9A7BD38955AE3","A3648FD0E9B24E6CBEA9A7BD38955AE3","0198ee69-f030-7330-b5ac-450dcc8cb518","0198ee3c-27ac-7803-a9ea-f3b4ad4ad678","{""num_scrambled_semantic"":""8"",""num_scrambled_causal"":""4"",""num_scrambled_schematic"":""4"",""participantId"":""A3648FD0E9B24E6CBEA9A7BD38955AE3"",""assignmentId"":""0198ee69-f030-7330-b5ac-450dcc8cb518"",""projectId"":""0198ee3c-27ac-7803-a9ea-f3b4ad4ad678""}","https://test12345.live/?num_scrambled_semantic=8&num_scrambled_causal=4&num_scrambled_schematic=4&participantId=A3648FD0E9B24E6CBEA9A7BD38955AE3&assignmentId=0198ee69-f030-7330-b5ac-450dcc8cb518&projectId=0198ee3c-27ac-7803-a9ea-f3b4ad4ad678","A3648FD0E9B24E6CBEA9A7BD38955AE3-2025-08-28-03-06-55","","3005","","","","",""
"","","","","","initialize-microphone","4","502788","0.0-4.0-0.0","A3648FD0E9B24E6CBEA9A7BD38955AE3","A3648FD0E9B24E6CBEA9A7BD38955AE3","0198ee69-f030-7330-b5ac-450dcc8cb518","0198ee3c-27ac-7803-a9ea-f3b4ad4ad678","{""num_scrambled_semantic"":""8"",""num_scrambled_causal"":""4"",""num_scrambled_schematic"":""4"",""participantId"":""A3648FD0E9B24E6CBEA9A7BD38955AE3"",""assignmentId"":""0198ee69-f030-7330-b5ac-450dcc8cb518"",""projectId"":""0198ee3c-27ac-7803-a9ea-f3b4ad4ad678""}","https://test12345.live/?num_scrambled_semantic=8&num_scrambled_causal=4&num_scrambled_schematic=4&participantId=A3648FD0E9B24E6CBEA9A7BD38955AE3&assignmentId=0198ee69-f030-7330-b5ac-450dcc8cb518&projectId=0198ee3c-27ac-7803-a9ea-f3b4ad4ad678","A3648FD0E9B24E6CBEA9A7BD38955AE3-2025-08-28-03-06-55","","","8feb8e73d37ed18e8f8420af1be63aa0868da1090c60c825dd3b8d6be9115b75","","","",""
"","","","","","html-audio-response","5","516280","0.0-4.0-1.0","A3648FD0E9B24E6CBEA9A7BD38955AE3","A3648FD0E9B24E6CBEA9A7BD38955AE3","0198ee69-f030-7330-b5ac-450dcc8cb518","0198ee3c-27ac-7803-a9ea-f3b4ad4ad678","{""num_scrambled_semantic"":""8"",""num_scrambled_causal"":""4"",""num_scrambled_schematic"":""4"",""participantId"":""A3648FD0E9B24E6CBEA9A7BD38955AE3"",""assignmentId"":""0198ee69-f030-7330-b5ac-450dcc8cb518"",""projectId"":""0198ee3c-27ac-7803-a9ea-f3b4ad4ad678""}","https://test12345.live/?num_scrambled_semantic=8&num_scrambled_causal=4&num_scrambled_schematic=4&participantId=A3648FD0E9B24E6CBEA9A7BD38955AE3&assignmentId=0198ee69-f030-7330-b5ac-450dcc8cb518&projectId=0198ee3c-27ac-7803-a9ea-f3b4ad4ad678","A3648FD0E9B24E6CBEA9A7BD38955AE3-2025-08-28-03-06-55","","4143","","<span style=""color: red; font-size: 24px""> NOW RECORDING</span>
        <p>Please test Microphone</p>","","5",""
"","","","","","html-button-response","6","518264","0.0-4.0-2.0","A3648FD0E9B24E6CBEA9A7BD38955AE3","A3648FD0E9B24E6CBEA9A7BD38955AE3","0198ee69-f030-7330-b5ac-450dcc8cb518","0198ee3c-27ac-7803-a9ea-f3b4ad4ad678","{""num_scrambled_semantic"":""8"",""num_scrambled_causal"":""4"",""num_scrambled_schematic"":""4"",""participantId"":""A3648FD0E9B24E6CBEA9A7BD38955AE3"",""assignmentId"":""0198ee69-f030-7330-b5ac-450dcc8cb518"",""projectId"":""0198ee3c-27ac-7803-a9ea-f3b4ad4ad678""}","https://test12345.live/?num_scrambled_semantic=8&num_scrambled_causal=4&num_scrambled_schematic=4&participantId=A3648FD0E9B24E6CBEA9A7BD38955AE3&assignmentId=0198ee69-f030-7330-b5ac-450dcc8cb518&projectId=0198ee3c-27ac-7803-a9ea-f3b4ad4ad678","A3648FD0E9B24E6CBEA9A7BD38955AE3-2025-08-28-03-06-55","","1982","","<p style=""font-size:48px; color:red;"">Is Microphone OK?</p>","1","",""
"","","","","","instructions","7","533540","0.0-5.0","A3648FD0E9B24E6CBEA9A7BD38955AE3","A3648FD0E9B24E6CBEA9A7BD38955AE3","0198ee69-f030-7330-b5ac-450dcc8cb518","0198ee3c-27ac-7803-a9ea-f3b4ad4ad678","{""num_scrambled_semantic"":""8"",""num_scrambled_causal"":""4"",""num_scrambled_schematic"":""4"",""participantId"":""A3648FD0E9B24E6CBEA9A7BD38955AE3"",""assignmentId"":""0198ee69-f030-7330-b5ac-450dcc8cb518"",""projectId"":""0198ee3c-27ac-7803-a9ea-f3b4ad4ad678""}","https://test12345.live/?num_scrambled_semantic=8&num_scrambled_causal=4&num_scrambled_schematic=4&participantId=A3648FD0E9B24E6CBEA9A7BD38955AE3&assignmentId=0198ee69-f030-7330-b5ac-450dcc8cb518&projectId=0198ee3c-27ac-7803-a9ea-f3b4ad4ad678","A3648FD0E9B24E6CBEA9A7BD38955AE3-2025-08-28-03-06-55","[{""page_index"":0,""viewing_time"":5213},{""page_index"":1,""viewing_time"":10062}]","15275","","","","",""
"","","","","","image-button-response","8","539555","0.0-6.0-0.0","A3648FD0E9B24E6CBEA9A7BD38955AE3","A3648FD0E9B24E6CBEA9A7BD38955AE3","0198ee69-f030-7330-b5ac-450dcc8cb518","0198ee3c-27ac-7803-a9ea-f3b4ad4ad678","{""num_scrambled_semantic"":""8"",""num_scrambled_causal"":""4"",""num_scrambled_schematic"":""4"",""participantId"":""A3648FD0E9B24E6CBEA9A7BD38955AE3"",""assignmentId"":""0198ee69-f030-7330-b5ac-450dcc8cb518"",""projectId"":""0198ee3c-27ac-7803-a9ea-f3b4ad4ad678""}","https://test12345.live/?num_scrambled_semantic=8&num_scrambled_causal=4&num_scrambled_schematic=4&participantId=A3648FD0E9B24E6CBEA9A7BD38955AE3&assignmentId=0198ee69-f030-7330-b5ac-450dcc8cb518&projectId=0198ee3c-27ac-7803-a9ea-f3b4ad4ad678","A3648FD0E9B24E6CBEA9A7BD38955AE3-2025-08-28-03-06-55","","null","","images/instructions/movie_0.png","null","",""
"","","","","","image-button-response","9","544063","0.0-6.0-1.0-0.0","A3648FD0E9B24E6CBEA9A7BD38955AE3","A3648FD0E9B24E6CBEA9A7BD38955AE3","0198ee69-f030-7330-b5ac-450dcc8cb518","0198ee3c-27ac-7803-a9ea-f3b4ad4ad678","{""num_scrambled_semantic"":""8"",""num_scrambled_causal"":""4"",""num_scrambled_schematic"":""4"",""participantId"":""A3648FD0E9B24E6CBEA9A7BD38955AE3"",""assignmentId"":""0198ee69-f030-7330-b5ac-450dcc8cb518"",""projectId"":""0198ee3c-27ac-7803-a9ea-f3b4ad4ad678""}","https://test12345.live/?num_scrambled_semantic=8&num_scrambled_causal=4&num_scrambled_schematic=4&participantId=A3648FD0E9B24E6CBEA9A7BD38955AE3&assignmentId=0198ee69-f030-7330-b5ac-450dcc8cb518&projectId=0198ee3c-27ac-7803-a9ea-f3b4ad4ad678","A3648FD0E9B24E6CBEA9A7BD38955AE3-2025-08-28-03-06-55","","null","","images/instructions/movie_1.png","null","",""
"","","","","","image-button-response","10","548066","0.0-6.0-1.0-1.0","A3648FD0E9B24E6CBEA9A7BD38955AE3","A3648FD0E9B24E6CBEA9A7BD38955AE3","0198ee69-f030-7330-b5ac-450dcc8cb518","0198ee3c-27ac-7803-a9ea-f3b4ad4ad678","{""num_scrambled_semantic"":""8"",""num_scrambled_causal"":""4"",""num_scrambled_schematic"":""4"",""participantId"":""A3648FD0E9B24E6CBEA9A7BD38955AE3"",""assignmentId"":""0198ee69-f030-7330-b5ac-450dcc8cb518"",""projectId"":""0198ee3c-27ac-7803-a9ea-f3b4ad4ad678""}","https://test12345.live/?num_scrambled_semantic=8&num_scrambled_causal=4&num_scrambled_schematic=4&participantId=A3648FD0E9B24E6CBEA9A7BD38955AE3&assignmentId=0198ee69-f030-7330-b5ac-450dcc8cb518&projectId=0198ee3c-27ac-7803-a9ea-f3b4ad4ad678","A3648FD0E9B24E6CBEA9A7BD38955AE3-2025-08-28-03-06-55","","null","","images/instructions/movie_1.png","null","",""
"","","","","","image-button-response","11","549870","0.0-6.0-1.0-2.0","A3648FD0E9B24E6CBEA9A7BD38955AE3","A3648FD0E9B24E6CBEA9A7BD38955AE3","0198ee69-f030-7330-b5ac-450dcc8cb518","0198ee3c-27ac-7803-a9ea-f3b4ad4ad678","{""num_scrambled_semantic"":""8"",""num_scrambled_causal"":""4"",""num_scrambled_schematic"":""4"",""participantId"":""A3648FD0E9B24E6CBEA9A7BD38955AE3"",""assignmentId"":""0198ee69-f030-7330-b5ac-450dcc8cb518"",""projectId"":""0198ee3c-27ac-7803-a9ea-f3b4ad4ad678""}","https://test12345.live/?num_scrambled_semantic=8&num_scrambled_causal=4&num_scrambled_schematic=4&participantId=A3648FD0E9B24E6CBEA9A7BD38955AE3&assignmentId=0198ee69-f030-7330-b5ac-450dcc8cb518&projectId=0198ee3c-27ac-7803-a9ea-f3b4ad4ad678","A3648FD0E9B24E6CBEA9A7BD38955AE3-2025-08-28-03-06-55","","null","","[]","null","",""
"","","","","","image-button-response","12","554380","0.0-6.0-1.0-0.1","A3648FD0E9B24E6CBEA9A7BD38955AE3","A3648FD0E9B24E6CBEA9A7BD38955AE3","0198ee69-f030-7330-b5ac-450dcc8cb518","0198ee3c-27ac-7803-a9ea-f3b4ad4ad678","{""num_scrambled_semantic"":""8"",""num_scrambled_causal"":""4"",""num_scrambled_schematic"":""4"",""participantId"":""A3648FD0E9B24E6CBEA9A7BD38955AE3"",""assignmentId"":""0198ee69-f030-7330-b5ac-450dcc8cb518"",""projectId"":""0198ee3c-27ac-7803-a9ea-f3b4ad4ad678""}","https://test12345.live/?num_scrambled_semantic=8&num_scrambled_causal=4&num_scrambled_schematic=4&participantId=A3648FD0E9B24E6CBEA9A7BD38955AE3&assignmentId=0198ee69-f030-7330-b5ac-450dcc8cb518&projectId=0198ee3c-27ac-7803-a9ea-f3b4ad4ad678","A3648FD0E9B24E6CBEA9A7BD38955AE3-2025-08-28-03-06-55","","null","","images/instructions/movie_2.png","null","",""
"","","","","","image-button-response","13","558382","0.0-6.0-1.0-1.1","A3648FD0E9B24E6CBEA9A7BD38955AE3","A3648FD0E9B24E6CBEA9A7BD38955AE3","0198ee69-f030-7330-b5ac-450dcc8cb518","0198ee3c-27ac-7803-a9ea-f3b4ad4ad678","{""num_scrambled_semantic"":""8"",""num_scrambled_causal"":""4"",""num_scrambled_schematic"":""4"",""participantId"":""A3648FD0E9B24E6CBEA9A7BD38955AE3"",""assignmentId"":""0198ee69-f030-7330-b5ac-450dcc8cb518"",""projectId"":""0198ee3c-27ac-7803-a9ea-f3b4ad4ad678""}","https://test12345.live/?num_scrambled_semantic=8&num_scrambled_causal=4&num_scrambled_schematic=4&participantId=A3648FD0E9B24E6CBEA9A7BD38955AE3&assignmentId=0198ee69-f030-7330-b5ac-450dcc8cb518&projectId=0198ee3c-27ac-7803-a9ea-f3b4ad4ad678","A3648FD0E9B24E6CBEA9A7BD38955AE3-2025-08-28-03-06-55","","null","","images/instructions/movie_2.png","null","",""
"","","","","","image-button-response","14","560193","0.0-6.0-1.0-2.1","A3648FD0E9B24E6CBEA9A7BD38955AE3","A3648FD0E9B24E6CBEA9A7BD38955AE3","0198ee69-f030-7330-b5ac-450dcc8cb518","0198ee3c-27ac-7803-a9ea-f3b4ad4ad678","{""num_scrambled_semantic"":""8"",""num_scrambled_causal"":""4"",""num_scrambled_schematic"":""4"",""participantId"":""A3648FD0E9B24E6CBEA9A7BD38955AE3"",""assignmentId"":""0198ee69-f030-7330-b5ac-450dcc8cb518"",""projectId"":""0198ee3c-27ac-7803-a9ea-f3b4ad4ad678""}","https://test12345.live/?num_scrambled_semantic=8&num_scrambled_causal=4&num_scrambled_schematic=4&participantId=A3648FD0E9B24E6CBEA9A7BD38955AE3&assignmentId=0198ee69-f030-7330-b5ac-450dcc8cb518&projectId=0198ee3c-27ac-7803-a9ea-f3b4ad4ad678","A3648FD0E9B24E6CBEA9A7BD38955AE3-2025-08-28-03-06-55","","null","","[]","null","",""
"","","","","","image-button-response","15","564709","0.0-6.0-1.0-0.2","A3648FD0E9B24E6CBEA9A7BD38955AE3","A3648FD0E9B24E6CBEA9A7BD38955AE3","0198ee69-f030-7330-b5ac-450dcc8cb518","0198ee3c-27ac-7803-a9ea-f3b4ad4ad678","{""num_scrambled_semantic"":""8"",""num_scrambled_causal"":""4"",""num_scrambled_schematic"":""4"",""participantId"":""A3648FD0E9B24E6CBEA9A7BD38955AE3"",""assignmentId"":""0198ee69-f030-7330-b5ac-450dcc8cb518"",""projectId"":""0198ee3c-27ac-7803-a9ea-f3b4ad4ad678""}","https://test12345.live/?num_scrambled_semantic=8&num_scrambled_causal=4&num_scrambled_schematic=4&participantId=A3648FD0E9B24E6CBEA9A7BD38955AE3&assignmentId=0198ee69-f030-7330-b5ac-450dcc8cb518&projectId=0198ee3c-27ac-7803-a9ea-f3b4ad4ad678","A3648FD0E9B24E6CBEA9A7BD38955AE3-2025-08-28-03-06-55","","null","","images/instructions/movie_3.png","null","",""
"","","","","","image-button-response","16","566210","0.0-6.0-1.0-1.2","A3648FD0E9B24E6CBEA9A7BD38955AE3","A3648FD0E9B24E6CBEA9A7BD38955AE3","0198ee69-f030-7330-b5ac-450dcc8cb518","0198ee3c-27ac-7803-a9ea-f3b4ad4ad678","{""num_scrambled_semantic"":""8"",""num_scrambled_causal"":""4"",""num_scrambled_schematic"":""4"",""participantId"":""A3648FD0E9B24E6CBEA9A7BD38955AE3"",""assignmentId"":""0198ee69-f030-7330-b5ac-450dcc8cb518"",""projectId"":""0198ee3c-27ac-7803-a9ea-f3b4ad4ad678""}","https://test12345.live/?num_scrambled_semantic=8&num_scrambled_causal=4&num_scrambled_schematic=4&participantId=A3648FD0E9B24E6CBEA9A7BD38955AE3&assignmentId=0198ee69-f030-7330-b5ac-450dcc8cb518&projectId=0198ee3c-27ac-7803-a9ea-f3b4ad4ad678","A3648FD0E9B24E6CBEA9A7BD38955AE3-2025-08-28-03-06-55","","1499","","images/instructions/movie_3.png","0","",""
"","","","","","image-button-response","17","568022","0.0-6.0-1.0-2.2","A3648FD0E9B24E6CBEA9A7BD38955AE3","A3648FD0E9B24E6CBEA9A7BD38955AE3","0198ee69-f030-7330-b5ac-450dcc8cb518","0198ee3c-27ac-7803-a9ea-f3b4ad4ad678","{""num_scrambled_semantic"":""8"",""num_scrambled_causal"":""4"",""num_scrambled_schematic"":""4"",""participantId"":""A3648FD0E9B24E6CBEA9A7BD38955AE3"",""assignmentId"":""0198ee69-f030-7330-b5ac-450dcc8cb518"",""projectId"":""0198ee3c-27ac-7803-a9ea-f3b4ad4ad678""}","https://test12345.live/?num_scrambled_semantic=8&num_scrambled_causal=4&num_scrambled_schematic=4&participantId=A3648FD0E9B24E6CBEA9A7BD38955AE3&assignmentId=0198ee69-f030-7330-b5ac-450dcc8cb518&projectId=0198ee3c-27ac-7803-a9ea-f3b4ad4ad678","A3648FD0E9B24E6CBEA9A7BD38955AE3-2025-08-28-03-06-55","","null","","[]","null","",""
"","","","","","image-button-response","18","572534","0.0-6.0-1.0-0.3","A3648FD0E9B24E6CBEA9A7BD38955AE3","A3648FD0E9B24E6CBEA9A7BD38955AE3","0198ee69-f030-7330-b5ac-450dcc8cb518","0198ee3c-27ac-7803-a9ea-f3b4ad4ad678","{""num_scrambled_semantic"":""8"",""num_scrambled_causal"":""4"",""num_scrambled_schematic"":""4"",""participantId"":""A3648FD0E9B24E6CBEA9A7BD38955AE3"",""assignmentId"":""0198ee69-f030-7330-b5ac-450dcc8cb518"",""projectId"":""0198ee3c-27ac-7803-a9ea-f3b4ad4ad678""}","https://test12345.live/?num_scrambled_semantic=8&num_scrambled_causal=4&num_scrambled_schematic=4&participantId=A3648FD0E9B24E6CBEA9A7BD38955AE3&assignmentId=0198ee69-f030-7330-b5ac-450dcc8cb518&projectId=0198ee3c-27ac-7803-a9ea-f3b4ad4ad678","A3648FD0E9B24E6CBEA9A7BD38955AE3-2025-08-28-03-06-55","","null","","images/instructions/movie_4.png","null","",""
"","","","","","image-button-response","19","574087","0.0-6.0-1.0-1.3","A3648FD0E9B24E6CBEA9A7BD38955AE3","A3648FD0E9B24E6CBEA9A7BD38955AE3","0198ee69-f030-7330-b5ac-450dcc8cb518","0198ee3c-27ac-7803-a9ea-f3b4ad4ad678","{""num_scrambled_semantic"":""8"",""num_scrambled_causal"":""4"",""num_scrambled_schematic"":""4"",""participantId"":""A3648FD0E9B24E6CBEA9A7BD38955AE3"",""assignmentId"":""0198ee69-f030-7330-b5ac-450dcc8cb518"",""projectId"":""0198ee3c-27ac-7803-a9ea-f3b4ad4ad678""}","https://test12345.live/?num_scrambled_semantic=8&num_scrambled_causal=4&num_scrambled_schematic=4&participantId=A3648FD0E9B24E6CBEA9A7BD38955AE3&assignmentId=0198ee69-f030-7330-b5ac-450dcc8cb518&projectId=0198ee3c-27ac-7803-a9ea-f3b4ad4ad678","A3648FD0E9B24E6CBEA9A7BD38955AE3-2025-08-28-03-06-55","","1552","","images/instructions/movie_4.png","0","",""
"","","","","","image-button-response","20","575904","0.0-6.0-1.0-2.3","A3648FD0E9B24E6CBEA9A7BD38955AE3","A3648FD0E9B24E6CBEA9A7BD38955AE3","0198ee69-f030-7330-b5ac-450dcc8cb518","0198ee3c-27ac-7803-a9ea-f3b4ad4ad678","{""num_scrambled_semantic"":""8"",""num_scrambled_causal"":""4"",""num_scrambled_schematic"":""4"",""participantId"":""A3648FD0E9B24E6CBEA9A7BD38955AE3"",""assignmentId"":""0198ee69-f030-7330-b5ac-450dcc8cb518"",""projectId"":""0198ee3c-27ac-7803-a9ea-f3b4ad4ad678""}","https://test12345.live/?num_scrambled_semantic=8&num_scrambled_causal=4&num_scrambled_schematic=4&participantId=A3648FD0E9B24E6CBEA9A7BD38955AE3&assignmentId=0198ee69-f030-7330-b5ac-450dcc8cb518&projectId=0198ee3c-27ac-7803-a9ea-f3b4ad4ad678","A3648FD0E9B24E6CBEA9A7BD38955AE3-2025-08-28-03-06-55","","null","","[]","null","",""
"","","","","","instructions","21","584437","0.0-7.0","A3648FD0E9B24E6CBEA9A7BD38955AE3","A3648FD0E9B24E6CBEA9A7BD38955AE3","0198ee69-f030-7330-b5ac-450dcc8cb518","0198ee3c-27ac-7803-a9ea-f3b4ad4ad678","{""num_scrambled_semantic"":""8"",""num_scrambled_causal"":""4"",""num_scrambled_schematic"":""4"",""participantId"":""A3648FD0E9B24E6CBEA9A7BD38955AE3"",""assignmentId"":""0198ee69-f030-7330-b5ac-450dcc8cb518"",""projectId"":""0198ee3c-27ac-7803-a9ea-f3b4ad4ad678""}","https://test12345.live/?num_scrambled_semantic=8&num_scrambled_causal=4&num_scrambled_schematic=4&participantId=A3648FD0E9B24E6CBEA9A7BD38955AE3&assignmentId=0198ee69-f030-7330-b5ac-450dcc8cb518&projectId=0198ee3c-27ac-7803-a9ea-f3b4ad4ad678","A3648FD0E9B24E6CBEA9A7BD38955AE3-2025-08-28-03-06-55","[{""page_index"":0,""viewing_time"":8532}]","8532","","","","",""
"","","","","","html-audio-response","22","627939","0.0-8.0","A3648FD0E9B24E6CBEA9A7BD38955AE3","A3648FD0E9B24E6CBEA9A7BD38955AE3","0198ee69-f030-7330-b5ac-450dcc8cb518","0198ee3c-27ac-7803-a9ea-f3b4ad4ad678","{""num_scrambled_semantic"":""8"",""num_scrambled_causal"":""4"",""num_scrambled_schematic"":""4"",""participantId"":""A3648FD0E9B24E6CBEA9A7BD38955AE3"",""assignmentId"":""0198ee69-f030-7330-b5ac-450dcc8cb518"",""projectId"":""0198ee3c-27ac-7803-a9ea-f3b4ad4ad678""}","https://test12345.live/?num_scrambled_semantic=8&num_scrambled_causal=4&num_scrambled_schematic=4&participantId=A3648FD0E9B24E6CBEA9A7BD38955AE3&assignmentId=0198ee69-f030-7330-b5ac-450dcc8cb518&projectId=0198ee3c-27ac-7803-a9ea-f3b4ad4ad678","A3648FD0E9B24E6CBEA9A7BD38955AE3-2025-08-28-03-06-55","","22359","","[""<span style=\""color: red; font-size: 24px\""> NOW RECORDING</span><p>Please say out loud all the images you saw, in the order of the story they create. Try to recall the sequence of events as they appeared in the story, not necessarily the order they were presented on the screen.</p>""]","","23",""
"","","","","","instructions","23","629573","0.0-9.0","A3648FD0E9B24E6CBEA9A7BD38955AE3","A3648FD0E9B24E6CBEA9A7BD38955AE3","0198ee69-f030-7330-b5ac-450dcc8cb518","0198ee3c-27ac-7803-a9ea-f3b4ad4ad678","{""num_scrambled_semantic"":""8"",""num_scrambled_causal"":""4"",""num_scrambled_schematic"":""4"",""participantId"":""A3648FD0E9B24E6CBEA9A7BD38955AE3"",""assignmentId"":""0198ee69-f030-7330-b5ac-450dcc8cb518"",""projectId"":""0198ee3c-27ac-7803-a9ea-f3b4ad4ad678""}","https://test12345.live/?num_scrambled_semantic=8&num_scrambled_causal=4&num_scrambled_schematic=4&participantId=A3648FD0E9B24E6CBEA9A7BD38955AE3&assignmentId=0198ee69-f030-7330-b5ac-450dcc8cb518&projectId=0198ee3c-27ac-7803-a9ea-f3b4ad4ad678","A3648FD0E9B24E6CBEA9A7BD38955AE3-2025-08-28-03-06-55","[{""page_index"":0,""viewing_time"":1624}]","1624","","","","",""
"","","","","","image-button-response","24","635575","0.0-10.0-0.0","A3648FD0E9B24E6CBEA9A7BD38955AE3","A3648FD0E9B24E6CBEA9A7BD38955AE3","0198ee69-f030-7330-b5ac-450dcc8cb518","0198ee3c-27ac-7803-a9ea-f3b4ad4ad678","{""num_scrambled_semantic"":""8"",""num_scrambled_causal"":""4"",""num_scrambled_schematic"":""4"",""participantId"":""A3648FD0E9B24E6CBEA9A7BD38955AE3"",""assignmentId"":""0198ee69-f030-7330-b5ac-450dcc8cb518"",""projectId"":""0198ee3c-27ac-7803-a9ea-f3b4ad4ad678""}","https://test12345.live/?num_scrambled_semantic=8&num_scrambled_causal=4&num_scrambled_schematic=4&participantId=A3648FD0E9B24E6CBEA9A7BD38955AE3&assignmentId=0198ee69-f030-7330-b5ac-450dcc8cb518&projectId=0198ee3c-27ac-7803-a9ea-f3b4ad4ad678","A3648FD0E9B24E6CBEA9A7BD38955AE3-2025-08-28-03-06-55","","null","","images/semantic_sequence/exploring_nature_semantic/exploring_nature_semantic_0.png","null","",""
"","","","","","image-button-response","25","640089","0.0-10.0-1.0-0.0","A3648FD0E9B24E6CBEA9A7BD38955AE3","A3648FD0E9B24E6CBEA9A7BD38955AE3","0198ee69-f030-7330-b5ac-450dcc8cb518","0198ee3c-27ac-7803-a9ea-f3b4ad4ad678","{""num_scrambled_semantic"":""8"",""num_scrambled_causal"":""4"",""num_scrambled_schematic"":""4"",""participantId"":""A3648FD0E9B24E6CBEA9A7BD38955AE3"",""assignmentId"":""0198ee69-f030-7330-b5ac-450dcc8cb518"",""projectId"":""0198ee3c-27ac-7803-a9ea-f3b4ad4ad678""}","https://test12345.live/?num_scrambled_semantic=8&num_scrambled_causal=4&num_scrambled_schematic=4&participantId=A3648FD0E9B24E6CBEA9A7BD38955AE3&assignmentId=0198ee69-f030-7330-b5ac-450dcc8cb518&projectId=0198ee3c-27ac-7803-a9ea-f3b4ad4ad678","A3648FD0E9B24E6CBEA9A7BD38955AE3-2025-08-28-03-06-55","","null","","images/semantic_sequence/exploring_nature_semantic/exploring_nature_semantic_2.png","null","",""
"","","","","","image-button-response","26","644104","0.0-10.0-1.0-1.0","A3648FD0E9B24E6CBEA9A7BD38955AE3","A3648FD0E9B24E6CBEA9A7BD38955AE3","0198ee69-f030-7330-b5ac-450dcc8cb518","0198ee3c-27ac-7803-a9ea-f3b4ad4ad678","{""num_scrambled_semantic"":""8"",""num_scrambled_causal"":""4"",""num_scrambled_schematic"":""4"",""participantId"":""A3648FD0E9B24E6CBEA9A7BD38955AE3"",""assignmentId"":""0198ee69-f030-7330-b5ac-450dcc8cb518"",""projectId"":""0198ee3c-27ac-7803-a9ea-f3b4ad4ad678""}","https://test12345.live/?num_scrambled_semantic=8&num_scrambled_causal=4&num_scrambled_schematic=4&participantId=A3648FD0E9B24E6CBEA9A7BD38955AE3&assignmentId=0198ee69-f030-7330-b5ac-450dcc8cb518&projectId=0198ee3c-27ac-7803-a9ea-f3b4ad4ad678","A3648FD0E9B24E6CBEA9A7BD38955AE3-2025-08-28-03-06-55","","null","","images/semantic_sequence/exploring_nature_semantic/exploring_nature_semantic_2.png","null","",""
"","","","","","image-button-response","27","645914","0.0-10.0-1.0-2.0","A3648FD0E9B24E6CBEA9A7BD38955AE3","A3648FD0E9B24E6CBEA9A7BD38955AE3","0198ee69-f030-7330-b5ac-450dcc8cb518","0198ee3c-27ac-7803-a9ea-f3b4ad4ad678","{""num_scrambled_semantic"":""8"",""num_scrambled_causal"":""4"",""num_scrambled_schematic"":""4"",""participantId"":""A3648FD0E9B24E6CBEA9A7BD38955AE3"",""assignmentId"":""0198ee69-f030-7330-b5ac-450dcc8cb518"",""projectId"":""0198ee3c-27ac-7803-a9ea-f3b4ad4ad678""}","https://test12345.live/?num_scrambled_semantic=8&num_scrambled_causal=4&num_scrambled_schematic=4&participantId=A3648FD0E9B24E6CBEA9A7BD38955AE3&assignmentId=0198ee69-f030-7330-b5ac-450dcc8cb518&projectId=0198ee3c-27ac-7803-a9ea-f3b4ad4ad678","A3648FD0E9B24E6CBEA9A7BD38955AE3-2025-08-28-03-06-55","","null","","[]","null","",""
"","","","","","image-button-response","28","650419","0.0-10.0-1.0-0.1","A3648FD0E9B24E6CBEA9A7BD38955AE3","A3648FD0E9B24E6CBEA9A7BD38955AE3","0198ee69-f030-7330-b5ac-450dcc8cb518","0198ee3c-27ac-7803-a9ea-f3b4ad4ad678","{""num_scrambled_semantic"":""8"",""num_scrambled_causal"":""4"",""num_scrambled_schematic"":""4"",""participantId"":""A3648FD0E9B24E6CBEA9A7BD38955AE3"",""assignmentId"":""0198ee69-f030-7330-b5ac-450dcc8cb518"",""projectId"":""0198ee3c-27ac-7803-a9ea-f3b4ad4ad678""}","https://test12345.live/?num_scrambled_semantic=8&num_scrambled_causal=4&num_scrambled_schematic=4&participantId=A3648FD0E9B24E6CBEA9A7BD38955AE3&assignmentId=0198ee69-f030-7330-b5ac-450dcc8cb518&projectId=0198ee3c-27ac-7803-a9ea-f3b4ad4ad678","A3648FD0E9B24E6CBEA9A7BD38955AE3-2025-08-28-03-06-55","","null","","images/semantic_sequence/exploring_nature_semantic/exploring_nature_semantic_9.png","null","",""
"","","","","","image-button-response","29","654063","0.0-10.0-1.0-1.1","A3648FD0E9B24E6CBEA9A7BD38955AE3","A3648FD0E9B24E6CBEA9A7BD38955AE3","0198ee69-f030-7330-b5ac-450dcc8cb518","0198ee3c-27ac-7803-a9ea-f3b4ad4ad678","{""num_scrambled_semantic"":""8"",""num_scrambled_causal"":""4"",""num_scrambled_schematic"":""4"",""participantId"":""A3648FD0E9B24E6CBEA9A7BD38955AE3"",""assignmentId"":""0198ee69-f030-7330-b5ac-450dcc8cb518"",""projectId"":""0198ee3c-27ac-7803-a9ea-f3b4ad4ad678""}","https://test12345.live/?num_scrambled_semantic=8&num_scrambled_causal=4&num_scrambled_schematic=4&participantId=A3648FD0E9B24E6CBEA9A7BD38955AE3&assignmentId=0198ee69-f030-7330-b5ac-450dcc8cb518&projectId=0198ee3c-27ac-7803-a9ea-f3b4ad4ad678","A3648FD0E9B24E6CBEA9A7BD38955AE3-2025-08-28-03-06-55","","3642","","images/semantic_sequence/exploring_nature_semantic/exploring_nature_semantic_9.png","0","",""
"","","","","","image-button-response","30","655869","0.0-10.0-1.0-2.1","A3648FD0E9B24E6CBEA9A7BD38955AE3","A3648FD0E9B24E6CBEA9A7BD38955AE3","0198ee69-f030-7330-b5ac-450dcc8cb518","0198ee3c-27ac-7803-a9ea-f3b4ad4ad678","{""num_scrambled_semantic"":""8"",""num_scrambled_causal"":""4"",""num_scrambled_schematic"":""4"",""participantId"":""A3648FD0E9B24E6CBEA9A7BD38955AE3"",""assignmentId"":""0198ee69-f030-7330-b5ac-450dcc8cb518"",""projectId"":""0198ee3c-27ac-7803-a9ea-f3b4ad4ad678""}","https://test12345.live/?num_scrambled_semantic=8&num_scrambled_causal=4&num_scrambled_schematic=4&participantId=A3648FD0E9B24E6CBEA9A7BD38955AE3&assignmentId=0198ee69-f030-7330-b5ac-450dcc8cb518&projectId=0198ee3c-27ac-7803-a9ea-f3b4ad4ad678","A3648FD0E9B24E6CBEA9A7BD38955AE3-2025-08-28-03-06-55","","null","","[]","null","",""
"","","","","","image-button-response","31","660384","0.0-10.0-1.0-0.2","A3648FD0E9B24E6CBEA9A7BD38955AE3","A3648FD0E9B24E6CBEA9A7BD38955AE3","0198ee69-f030-7330-b5ac-450dcc8cb518","0198ee3c-27ac-7803-a9ea-f3b4ad4ad678","{""num_scrambled_semantic"":""8"",""num_scrambled_causal"":""4"",""num_scrambled_schematic"":""4"",""participantId"":""A3648FD0E9B24E6CBEA9A7BD38955AE3"",""assignmentId"":""0198ee69-f030-7330-b5ac-450dcc8cb518"",""projectId"":""0198ee3c-27ac-7803-a9ea-f3b4ad4ad678""}","https://test12345.live/?num_scrambled_semantic=8&num_scrambled_causal=4&num_scrambled_schematic=4&participantId=A3648FD0E9B24E6CBEA9A7BD38955AE3&assignmentId=0198ee69-f030-7330-b5ac-450dcc8cb518&projectId=0198ee3c-27ac-7803-a9ea-f3b4ad4ad678","A3648FD0E9B24E6CBEA9A7BD38955AE3-2025-08-28-03-06-55","","null","","images/semantic_sequence/exploring_nature_semantic/exploring_nature_semantic_6.png","null","",""
"","","","","","image-button-response","32","662870","0.0-10.0-1.0-1.2","A3648FD0E9B24E6CBEA9A7BD38955AE3","A3648FD0E9B24E6CBEA9A7BD38955AE3","0198ee69-f030-7330-b5ac-450dcc8cb518","0198ee3c-27ac-7803-a9ea-f3b4ad4ad678","{""num_scrambled_semantic"":""8"",""num_scrambled_causal"":""4"",""num_scrambled_schematic"":""4"",""participantId"":""A3648FD0E9B24E6CBEA9A7BD38955AE3"",""assignmentId"":""0198ee69-f030-7330-b5ac-450dcc8cb518"",""projectId"":""0198ee3c-27ac-7803-a9ea-f3b4ad4ad678""}","https://test12345.live/?num_scrambled_semantic=8&num_scrambled_causal=4&num_scrambled_schematic=4&participantId=A3648FD0E9B24E6CBEA9A7BD38955AE3&assignmentId=0198ee69-f030-7330-b5ac-450dcc8cb518&projectId=0198ee3c-27ac-7803-a9ea-f3b4ad4ad678","A3648FD0E9B24E6CBEA9A7BD38955AE3-2025-08-28-03-06-55","","2486","","images/semantic_sequence/exploring_nature_semantic/exploring_nature_semantic_6.png","0","",""
"","","","","","image-button-response","33","664681","0.0-10.0-1.0-2.2","A3648FD0E9B24E6CBEA9A7BD38955AE3","A3648FD0E9B24E6CBEA9A7BD38955AE3","0198ee69-f030-7330-b5ac-450dcc8cb518","0198ee3c-27ac-7803-a9ea-f3b4ad4ad678","{""num_scrambled_semantic"":""8"",""num_scrambled_causal"":""4"",""num_scrambled_schematic"":""4"",""participantId"":""A3648FD0E9B24E6CBEA9A7BD38955AE3"",""assignmentId"":""0198ee69-f030-7330-b5ac-450dcc8cb518"",""projectId"":""0198ee3c-27ac-7803-a9ea-f3b4ad4ad678""}","https://test12345.live/?num_scrambled_semantic=8&num_scrambled_causal=4&num_scrambled_schematic=4&participantId=A3648FD0E9B24E6CBEA9A7BD38955AE3&assignmentId=0198ee69-f030-7330-b5ac-450dcc8cb518&projectId=0198ee3c-27ac-7803-a9ea-f3b4ad4ad678","A3648FD0E9B24E6CBEA9A7BD38955AE3-2025-08-28-03-06-55","","null","","[]","null","",""
"","","","","","image-button-response","34","669191","0.0-10.0-1.0-0.3","A3648FD0E9B24E6CBEA9A7BD38955AE3","A3648FD0E9B24E6CBEA9A7BD38955AE3","0198ee69-f030-7330-b5ac-450dcc8cb518","0198ee3c-27ac-7803-a9ea-f3b4ad4ad678","{""num_scrambled_semantic"":""8"",""num_scrambled_causal"":""4"",""num_scrambled_schematic"":""4"",""participantId"":""A3648FD0E9B24E6CBEA9A7BD38955AE3"",""assignmentId"":""0198ee69-f030-7330-b5ac-450dcc8cb518"",""projectId"":""0198ee3c-27ac-7803-a9ea-f3b4ad4ad678""}","https://test12345.live/?num_scrambled_semantic=8&num_scrambled_causal=4&num_scrambled_schematic=4&participantId=A3648FD0E9B24E6CBEA9A7BD38955AE3&assignmentId=0198ee69-f030-7330-b5ac-450dcc8cb518&projectId=0198ee3c-27ac-7803-a9ea-f3b4ad4ad678","A3648FD0E9B24E6CBEA9A7BD38955AE3-2025-08-28-03-06-55","","null","","images/semantic_sequence/exploring_nature_semantic/exploring_nature_semantic_3.png","null","",""
"","","","","","image-button-response","35","672111","0.0-10.0-1.0-1.3","A3648FD0E9B24E6CBEA9A7BD38955AE3","A3648FD0E9B24E6CBEA9A7BD38955AE3","0198ee69-f030-7330-b5ac-450dcc8cb518","0198ee3c-27ac-7803-a9ea-f3b4ad4ad678","{""num_scrambled_semantic"":""8"",""num_scrambled_causal"":""4"",""num_scrambled_schematic"":""4"",""participantId"":""A3648FD0E9B24E6CBEA9A7BD38955AE3"",""assignmentId"":""0198ee69-f030-7330-b5ac-450dcc8cb518"",""projectId"":""0198ee3c-27ac-7803-a9ea-f3b4ad4ad678""}","https://test12345.live/?num_scrambled_semantic=8&num_scrambled_causal=4&num_scrambled_schematic=4&participantId=A3648FD0E9B24E6CBEA9A7BD38955AE3&assignmentId=0198ee69-f030-7330-b5ac-450dcc8cb518&projectId=0198ee3c-27ac-7803-a9ea-f3b4ad4ad678","A3648FD0E9B24E6CBEA9A7BD38955AE3-2025-08-28-03-06-55","","2918","","images/semantic_sequence/exploring_nature_semantic/exploring_nature_semantic_3.png","0","",""
"","","","","","image-button-response","36","673917","0.0-10.0-1.0-2.3","A3648FD0E9B24E6CBEA9A7BD38955AE3","A3648FD0E9B24E6CBEA9A7BD38955AE3","0198ee69-f030-7330-b5ac-450dcc8cb518","0198ee3c-27ac-7803-a9ea-f3b4ad4ad678","{""num_scrambled_semantic"":""8"",""num_scrambled_causal"":""4"",""num_scrambled_schematic"":""4"",""participantId"":""A3648FD0E9B24E6CBEA9A7BD38955AE3"",""assignmentId"":""0198ee69-f030-7330-b5ac-450dcc8cb518"",""projectId"":""0198ee3c-27ac-7803-a9ea-f3b4ad4ad678""}","https://test12345.live/?num_scrambled_semantic=8&num_scrambled_causal=4&num_scrambled_schematic=4&participantId=A3648FD0E9B24E6CBEA9A7BD38955AE3&assignmentId=0198ee69-f030-7330-b5ac-450dcc8cb518&projectId=0198ee3c-27ac-7803-a9ea-f3b4ad4ad678","A3648FD0E9B24E6CBEA9A7BD38955AE3-2025-08-28-03-06-55","","null","","[]","null","",""
"","","","","","image-button-response","37","678421","0.0-10.0-1.0-0.4","A3648FD0E9B24E6CBEA9A7BD38955AE3","A3648FD0E9B24E6CBEA9A7BD38955AE3","0198ee69-f030-7330-b5ac-450dcc8cb518","0198ee3c-27ac-7803-a9ea-f3b4ad4ad678","{""num_scrambled_semantic"":""8"",""num_scrambled_causal"":""4"",""num_scrambled_schematic"":""4"",""participantId"":""A3648FD0E9B24E6CBEA9A7BD38955AE3"",""assignmentId"":""0198ee69-f030-7330-b5ac-450dcc8cb518"",""projectId"":""0198ee3c-27ac-7803-a9ea-f3b4ad4ad678""}","https://test12345.live/?num_scrambled_semantic=8&num_scrambled_causal=4&num_scrambled_schematic=4&participantId=A3648FD0E9B24E6CBEA9A7BD38955AE3&assignmentId=0198ee69-f030-7330-b5ac-450dcc8cb518&projectId=0198ee3c-27ac-7803-a9ea-f3b4ad4ad678","A3648FD0E9B24E6CBEA9A7BD38955AE3-2025-08-28-03-06-55","","null","","images/semantic_sequence/exploring_nature_semantic/exploring_nature_semantic_1.png","null","",""
"","","","","","image-button-response","38","680631","0.0-10.0-1.0-1.4","A3648FD0E9B24E6CBEA9A7BD38955AE3","A3648FD0E9B24E6CBEA9A7BD38955AE3","0198ee69-f030-7330-b5ac-450dcc8cb518","0198ee3c-27ac-7803-a9ea-f3b4ad4ad678","{""num_scrambled_semantic"":""8"",""num_scrambled_causal"":""4"",""num_scrambled_schematic"":""4"",""participantId"":""A3648FD0E9B24E6CBEA9A7BD38955AE3"",""assignmentId"":""0198ee69-f030-7330-b5ac-450dcc8cb518"",""projectId"":""0198ee3c-27ac-7803-a9ea-f3b4ad4ad678""}","https://test12345.live/?num_scrambled_semantic=8&num_scrambled_causal=4&num_scrambled_schematic=4&participantId=A3648FD0E9B24E6CBEA9A7BD38955AE3&assignmentId=0198ee69-f030-7330-b5ac-450dcc8cb518&projectId=0198ee3c-27ac-7803-a9ea-f3b4ad4ad678","A3648FD0E9B24E6CBEA9A7BD38955AE3-2025-08-28-03-06-55","","2209","","images/semantic_sequence/exploring_nature_semantic/exploring_nature_semantic_1.png","0","",""
"","","","","","image-button-response","39","682437","0.0-10.0-1.0-2.4","A3648FD0E9B24E6CBEA9A7BD38955AE3","A3648FD0E9B24E6CBEA9A7BD38955AE3","0198ee69-f030-7330-b5ac-450dcc8cb518","0198ee3c-27ac-7803-a9ea-f3b4ad4ad678","{""num_scrambled_semantic"":""8"",""num_scrambled_causal"":""4"",""num_scrambled_schematic"":""4"",""participantId"":""A3648FD0E9B24E6CBEA9A7BD38955AE3"",""assignmentId"":""0198ee69-f030-7330-b5ac-450dcc8cb518"",""projectId"":""0198ee3c-27ac-7803-a9ea-f3b4ad4ad678""}","https://test12345.live/?num_scrambled_semantic=8&num_scrambled_causal=4&num_scrambled_schematic=4&participantId=A3648FD0E9B24E6CBEA9A7BD38955AE3&assignmentId=0198ee69-f030-7330-b5ac-450dcc8cb518&projectId=0198ee3c-27ac-7803-a9ea-f3b4ad4ad678","A3648FD0E9B24E6CBEA9A7BD38955AE3-2025-08-28-03-06-55","","null","","[]","null","",""
"","","","","","image-button-response","40","686945","0.0-10.0-1.0-0.5","A3648FD0E9B24E6CBEA9A7BD38955AE3","A3648FD0E9B24E6CBEA9A7BD38955AE3","0198ee69-f030-7330-b5ac-450dcc8cb518","0198ee3c-27ac-7803-a9ea-f3b4ad4ad678","{""num_scrambled_semantic"":""8"",""num_scrambled_causal"":""4"",""num_scrambled_schematic"":""4"",""participantId"":""A3648FD0E9B24E6CBEA9A7BD38955AE3"",""assignmentId"":""0198ee69-f030-7330-b5ac-450dcc8cb518"",""projectId"":""0198ee3c-27ac-7803-a9ea-f3b4ad4ad678""}","https://test12345.live/?num_scrambled_semantic=8&num_scrambled_causal=4&num_scrambled_schematic=4&participantId=A3648FD0E9B24E6CBEA9A7BD38955AE3&assignmentId=0198ee69-f030-7330-b5ac-450dcc8cb518&projectId=0198ee3c-27ac-7803-a9ea-f3b4ad4ad678","A3648FD0E9B24E6CBEA9A7BD38955AE3-2025-08-28-03-06-55","","null","","images/semantic_sequence/exploring_nature_semantic/exploring_nature_semantic_ten.png","null","",""
"","","","","","image-button-response","41","689217","0.0-10.0-1.0-1.5","A3648FD0E9B24E6CBEA9A7BD38955AE3","A3648FD0E9B24E6CBEA9A7BD38955AE3","0198ee69-f030-7330-b5ac-450dcc8cb518","0198ee3c-27ac-7803-a9ea-f3b4ad4ad678","{""num_scrambled_semantic"":""8"",""num_scrambled_causal"":""4"",""num_scrambled_schematic"":""4"",""participantId"":""A3648FD0E9B24E6CBEA9A7BD38955AE3"",""assignmentId"":""0198ee69-f030-7330-b5ac-450dcc8cb518"",""projectId"":""0198ee3c-27ac-7803-a9ea-f3b4ad4ad678""}","https://test12345.live/?num_scrambled_semantic=8&num_scrambled_causal=4&num_scrambled_schematic=4&participantId=A3648FD0E9B24E6CBEA9A7BD38955AE3&assignmentId=0198ee69-f030-7330-b5ac-450dcc8cb518&projectId=0198ee3c-27ac-7803-a9ea-f3b4ad4ad678","A3648FD0E9B24E6CBEA9A7BD38955AE3-2025-08-28-03-06-55","","2271","","images/semantic_sequence/exploring_nature_semantic/exploring_nature_semantic_ten.png","0","",""
"","","","","","image-button-response","42","691030","0.0-10.0-1.0-2.5","A3648FD0E9B24E6CBEA9A7BD38955AE3","A3648FD0E9B24E6CBEA9A7BD38955AE3","0198ee69-f030-7330-b5ac-450dcc8cb518","0198ee3c-27ac-7803-a9ea-f3b4ad4ad678","{""num_scrambled_semantic"":""8"",""num_scrambled_causal"":""4"",""num_scrambled_schematic"":""4"",""participantId"":""A3648FD0E9B24E6CBEA9A7BD38955AE3"",""assignmentId"":""0198ee69-f030-7330-b5ac-450dcc8cb518"",""projectId"":""0198ee3c-27ac-7803-a9ea-f3b4ad4ad678""}","https://test12345.live/?num_scrambled_semantic=8&num_scrambled_causal=4&num_scrambled_schematic=4&participantId=A3648FD0E9B24E6CBEA9A7BD38955AE3&assignmentId=0198ee69-f030-7330-b5ac-450dcc8cb518&projectId=0198ee3c-27ac-7803-a9ea-f3b4ad4ad678","A3648FD0E9B24E6CBEA9A7BD38955AE3-2025-08-28-03-06-55","","null","","[]","null","",""
"","","","","","image-button-response","43","695547","0.0-10.0-1.0-0.6","A3648FD0E9B24E6CBEA9A7BD38955AE3","A3648FD0E9B24E6CBEA9A7BD38955AE3","0198ee69-f030-7330-b5ac-450dcc8cb518","0198ee3c-27ac-7803-a9ea-f3b4ad4ad678","{""num_scrambled_semantic"":""8"",""num_scrambled_causal"":""4"",""num_scrambled_schematic"":""4"",""participantId"":""A3648FD0E9B24E6CBEA9A7BD38955AE3"",""assignmentId"":""0198ee69-f030-7330-b5ac-450dcc8cb518"",""projectId"":""0198ee3c-27ac-7803-a9ea-f3b4ad4ad678""}","https://test12345.live/?num_scrambled_semantic=8&num_scrambled_causal=4&num_scrambled_schematic=4&participantId=A3648FD0E9B24E6CBEA9A7BD38955AE3&assignmentId=0198ee69-f030-7330-b5ac-450dcc8cb518&projectId=0198ee3c-27ac-7803-a9ea-f3b4ad4ad678","A3648FD0E9B24E6CBEA9A7BD38955AE3-2025-08-28-03-06-55","","null","","images/semantic_sequence/exploring_nature_semantic/exploring_nature_semantic_8.png","null","",""
"","","","","","image-button-response","44","697738","0.0-10.0-1.0-1.6","A3648FD0E9B24E6CBEA9A7BD38955AE3","A3648FD0E9B24E6CBEA9A7BD38955AE3","0198ee69-f030-7330-b5ac-450dcc8cb518","0198ee3c-27ac-7803-a9ea-f3b4ad4ad678","{""num_scrambled_semantic"":""8"",""num_scrambled_causal"":""4"",""num_scrambled_schematic"":""4"",""participantId"":""A3648FD0E9B24E6CBEA9A7BD38955AE3"",""assignmentId"":""0198ee69-f030-7330-b5ac-450dcc8cb518"",""projectId"":""0198ee3c-27ac-7803-a9ea-f3b4ad4ad678""}","https://test12345.live/?num_scrambled_semantic=8&num_scrambled_causal=4&num_scrambled_schematic=4&participantId=A3648FD0E9B24E6CBEA9A7BD38955AE3&assignmentId=0198ee69-f030-7330-b5ac-450dcc8cb518&projectId=0198ee3c-27ac-7803-a9ea-f3b4ad4ad678","A3648FD0E9B24E6CBEA9A7BD38955AE3-2025-08-28-03-06-55","","2191","","images/semantic_sequence/exploring_nature_semantic/exploring_nature_semantic_8.png","0","",""
"","","","","","image-button-response","45","699545","0.0-10.0-1.0-2.6","A3648FD0E9B24E6CBEA9A7BD38955AE3","A3648FD0E9B24E6CBEA9A7BD38955AE3","0198ee69-f030-7330-b5ac-450dcc8cb518","0198ee3c-27ac-7803-a9ea-f3b4ad4ad678","{""num_scrambled_semantic"":""8"",""num_scrambled_causal"":""4"",""num_scrambled_schematic"":""4"",""participantId"":""A3648FD0E9B24E6CBEA9A7BD38955AE3"",""assignmentId"":""0198ee69-f030-7330-b5ac-450dcc8cb518"",""projectId"":""0198ee3c-27ac-7803-a9ea-f3b4ad4ad678""}","https://test12345.live/?num_scrambled_semantic=8&num_scrambled_causal=4&num_scrambled_schematic=4&participantId=A3648FD0E9B24E6CBEA9A7BD38955AE3&assignmentId=0198ee69-f030-7330-b5ac-450dcc8cb518&projectId=0198ee3c-27ac-7803-a9ea-f3b4ad4ad678","A3648FD0E9B24E6CBEA9A7BD38955AE3-2025-08-28-03-06-55","","null","","[]","null","",""
"","","","","","image-button-response","46","704060","0.0-10.0-1.0-0.7","A3648FD0E9B24E6CBEA9A7BD38955AE3","A3648FD0E9B24E6CBEA9A7BD38955AE3","0198ee69-f030-7330-b5ac-450dcc8cb518","0198ee3c-27ac-7803-a9ea-f3b4ad4ad678","{""num_scrambled_semantic"":""8"",""num_scrambled_causal"":""4"",""num_scrambled_schematic"":""4"",""participantId"":""A3648FD0E9B24E6CBEA9A7BD38955AE3"",""assignmentId"":""0198ee69-f030-7330-b5ac-450dcc8cb518"",""projectId"":""0198ee3c-27ac-7803-a9ea-f3b4ad4ad678""}","https://test12345.live/?num_scrambled_semantic=8&num_scrambled_causal=4&num_scrambled_schematic=4&participantId=A3648FD0E9B24E6CBEA9A7BD38955AE3&assignmentId=0198ee69-f030-7330-b5ac-450dcc8cb518&projectId=0198ee3c-27ac-7803-a9ea-f3b4ad4ad678","A3648FD0E9B24E6CBEA9A7BD38955AE3-2025-08-28-03-06-55","","null","","images/semantic_sequence/exploring_nature_semantic/exploring_nature_semantic_4.png","null","",""
"","","","","","image-button-response","47","705114","0.0-10.0-1.0-1.7","A3648FD0E9B24E6CBEA9A7BD38955AE3","A3648FD0E9B24E6CBEA9A7BD38955AE3","0198ee69-f030-7330-b5ac-450dcc8cb518","0198ee3c-27ac-7803-a9ea-f3b4ad4ad678","{""num_scrambled_semantic"":""8"",""num_scrambled_causal"":""4"",""num_scrambled_schematic"":""4"",""participantId"":""A3648FD0E9B24E6CBEA9A7BD38955AE3"",""assignmentId"":""0198ee69-f030-7330-b5ac-450dcc8cb518"",""projectId"":""0198ee3c-27ac-7803-a9ea-f3b4ad4ad678""}","https://test12345.live/?num_scrambled_semantic=8&num_scrambled_causal=4&num_scrambled_schematic=4&participantId=A3648FD0E9B24E6CBEA9A7BD38955AE3&assignmentId=0198ee69-f030-7330-b5ac-450dcc8cb518&projectId=0198ee3c-27ac-7803-a9ea-f3b4ad4ad678","A3648FD0E9B24E6CBEA9A7BD38955AE3-2025-08-28-03-06-55","","1052","","images/semantic_sequence/exploring_nature_semantic/exploring_nature_semantic_4.png","0","",""
"","","","","","image-button-response","48","706923","0.0-10.0-1.0-2.7","A3648FD0E9B24E6CBEA9A7BD38955AE3","A3648FD0E9B24E6CBEA9A7BD38955AE3","0198ee69-f030-7330-b5ac-450dcc8cb518","0198ee3c-27ac-7803-a9ea-f3b4ad4ad678","{""num_scrambled_semantic"":""8"",""num_scrambled_causal"":""4"",""num_scrambled_schematic"":""4"",""participantId"":""A3648FD0E9B24E6CBEA9A7BD38955AE3"",""assignmentId"":""0198ee69-f030-7330-b5ac-450dcc8cb518"",""projectId"":""0198ee3c-27ac-7803-a9ea-f3b4ad4ad678""}","https://test12345.live/?num_scrambled_semantic=8&num_scrambled_causal=4&num_scrambled_schematic=4&participantId=A3648FD0E9B24E6CBEA9A7BD38955AE3&assignmentId=0198ee69-f030-7330-b5ac-450dcc8cb518&projectId=0198ee3c-27ac-7803-a9ea-f3b4ad4ad678","A3648FD0E9B24E6CBEA9A7BD38955AE3-2025-08-28-03-06-55","","null","","[]","null","",""
"","","","","","image-button-response","49","711433","0.0-10.0-1.0-0.8","A3648FD0E9B24E6CBEA9A7BD38955AE3","A3648FD0E9B24E6CBEA9A7BD38955AE3","0198ee69-f030-7330-b5ac-450dcc8cb518","0198ee3c-27ac-7803-a9ea-f3b4ad4ad678","{""num_scrambled_semantic"":""8"",""num_scrambled_causal"":""4"",""num_scrambled_schematic"":""4"",""participantId"":""A3648FD0E9B24E6CBEA9A7BD38955AE3"",""assignmentId"":""0198ee69-f030-7330-b5ac-450dcc8cb518"",""projectId"":""0198ee3c-27ac-7803-a9ea-f3b4ad4ad678""}","https://test12345.live/?num_scrambled_semantic=8&num_scrambled_causal=4&num_scrambled_schematic=4&participantId=A3648FD0E9B24E6CBEA9A7BD38955AE3&assignmentId=0198ee69-f030-7330-b5ac-450dcc8cb518&projectId=0198ee3c-27ac-7803-a9ea-f3b4ad4ad678","A3648FD0E9B24E6CBEA9A7BD38955AE3-2025-08-28-03-06-55","","null","","images/semantic_sequence/exploring_nature_semantic/exploring_nature_semantic_5.png","null","",""
"","","","","","image-button-response","50","713173","0.0-10.0-1.0-1.8","A3648FD0E9B24E6CBEA9A7BD38955AE3","A3648FD0E9B24E6CBEA9A7BD38955AE3","0198ee69-f030-7330-b5ac-450dcc8cb518","0198ee3c-27ac-7803-a9ea-f3b4ad4ad678","{""num_scrambled_semantic"":""8"",""num_scrambled_causal"":""4"",""num_scrambled_schematic"":""4"",""participantId"":""A3648FD0E9B24E6CBEA9A7BD38955AE3"",""assignmentId"":""0198ee69-f030-7330-b5ac-450dcc8cb518"",""projectId"":""0198ee3c-27ac-7803-a9ea-f3b4ad4ad678""}","https://test12345.live/?num_scrambled_semantic=8&num_scrambled_causal=4&num_scrambled_schematic=4&participantId=A3648FD0E9B24E6CBEA9A7BD38955AE3&assignmentId=0198ee69-f030-7330-b5ac-450dcc8cb518&projectId=0198ee3c-27ac-7803-a9ea-f3b4ad4ad678","A3648FD0E9B24E6CBEA9A7BD38955AE3-2025-08-28-03-06-55","","1738","","images/semantic_sequence/exploring_nature_semantic/exploring_nature_semantic_5.png","0","",""
"","","","","","image-button-response","51","714982","0.0-10.0-1.0-2.8","A3648FD0E9B24E6CBEA9A7BD38955AE3","A3648FD0E9B24E6CBEA9A7BD38955AE3","0198ee69-f030-7330-b5ac-450dcc8cb518","0198ee3c-27ac-7803-a9ea-f3b4ad4ad678","{""num_scrambled_semantic"":""8"",""num_scrambled_causal"":""4"",""num_scrambled_schematic"":""4"",""participantId"":""A3648FD0E9B24E6CBEA9A7BD38955AE3"",""assignmentId"":""0198ee69-f030-7330-b5ac-450dcc8cb518"",""projectId"":""0198ee3c-27ac-7803-a9ea-f3b4ad4ad678""}","https://test12345.live/?num_scrambled_semantic=8&num_scrambled_causal=4&num_scrambled_schematic=4&participantId=A3648FD0E9B24E6CBEA9A7BD38955AE3&assignmentId=0198ee69-f030-7330-b5ac-450dcc8cb518&projectId=0198ee3c-27ac-7803-a9ea-f3b4ad4ad678","A3648FD0E9B24E6CBEA9A7BD38955AE3-2025-08-28-03-06-55","","null","","[]","null","",""
"","","","","","image-button-response","52","719483","0.0-10.0-1.0-0.9","A3648FD0E9B24E6CBEA9A7BD38955AE3","A3648FD0E9B24E6CBEA9A7BD38955AE3","0198ee69-f030-7330-b5ac-450dcc8cb518","0198ee3c-27ac-7803-a9ea-f3b4ad4ad678","{""num_scrambled_semantic"":""8"",""num_scrambled_causal"":""4"",""num_scrambled_schematic"":""4"",""participantId"":""A3648FD0E9B24E6CBEA9A7BD38955AE3"",""assignmentId"":""0198ee69-f030-7330-b5ac-450dcc8cb518"",""projectId"":""0198ee3c-27ac-7803-a9ea-f3b4ad4ad678""}","https://test12345.live/?num_scrambled_semantic=8&num_scrambled_causal=4&num_scrambled_schematic=4&participantId=A3648FD0E9B24E6CBEA9A7BD38955AE3&assignmentId=0198ee69-f030-7330-b5ac-450dcc8cb518&projectId=0198ee3c-27ac-7803-a9ea-f3b4ad4ad678","A3648FD0E9B24E6CBEA9A7BD38955AE3-2025-08-28-03-06-55","","null","","images/semantic_sequence/exploring_nature_semantic/exploring_nature_semantic_7.png","null","",""
"","","","","","image-button-response","53","721262","0.0-10.0-1.0-1.9","A3648FD0E9B24E6CBEA9A7BD38955AE3","A3648FD0E9B24E6CBEA9A7BD38955AE3","0198ee69-f030-7330-b5ac-450dcc8cb518","0198ee3c-27ac-7803-a9ea-f3b4ad4ad678","{""num_scrambled_semantic"":""8"",""num_scrambled_causal"":""4"",""num_scrambled_schematic"":""4"",""participantId"":""A3648FD0E9B24E6CBEA9A7BD38955AE3"",""assignmentId"":""0198ee69-f030-7330-b5ac-450dcc8cb518"",""projectId"":""0198ee3c-27ac-7803-a9ea-f3b4ad4ad678""}","https://test12345.live/?num_scrambled_semantic=8&num_scrambled_causal=4&num_scrambled_schematic=4&participantId=A3648FD0E9B24E6CBEA9A7BD38955AE3&assignmentId=0198ee69-f030-7330-b5ac-450dcc8cb518&projectId=0198ee3c-27ac-7803-a9ea-f3b4ad4ad678","A3648FD0E9B24E6CBEA9A7BD38955AE3-2025-08-28-03-06-55","","1777","","images/semantic_sequence/exploring_nature_semantic/exploring_nature_semantic_7.png","0","",""
"","","","","","image-button-response","54","723063","0.0-10.0-1.0-2.9","A3648FD0E9B24E6CBEA9A7BD38955AE3","A3648FD0E9B24E6CBEA9A7BD38955AE3","0198ee69-f030-7330-b5ac-450dcc8cb518","0198ee3c-27ac-7803-a9ea-f3b4ad4ad678","{""num_scrambled_semantic"":""8"",""num_scrambled_causal"":""4"",""num_scrambled_schematic"":""4"",""participantId"":""A3648FD0E9B24E6CBEA9A7BD38955AE3"",""assignmentId"":""0198ee69-f030-7330-b5ac-450dcc8cb518"",""projectId"":""0198ee3c-27ac-7803-a9ea-f3b4ad4ad678""}","https://test12345.live/?num_scrambled_semantic=8&num_scrambled_causal=4&num_scrambled_schematic=4&participantId=A3648FD0E9B24E6CBEA9A7BD38955AE3&assignmentId=0198ee69-f030-7330-b5ac-450dcc8cb518&projectId=0198ee3c-27ac-7803-a9ea-f3b4ad4ad678","A3648FD0E9B24E6CBEA9A7BD38955AE3-2025-08-28-03-06-55","","null","","[]","null","",""
"","","","","","html-audio-response","55","762024","0.0-11.0","A3648FD0E9B24E6CBEA9A7BD38955AE3","A3648FD0E9B24E6CBEA9A7BD38955AE3","0198ee69-f030-7330-b5ac-450dcc8cb518","0198ee3c-27ac-7803-a9ea-f3b4ad4ad678","{""num_scrambled_semantic"":""8"",""num_scrambled_causal"":""4"",""num_scrambled_schematic"":""4"",""participantId"":""A3648FD0E9B24E6CBEA9A7BD38955AE3"",""assignmentId"":""0198ee69-f030-7330-b5ac-450dcc8cb518"",""projectId"":""0198ee3c-27ac-7803-a9ea-f3b4ad4ad678""}","https://test12345.live/?num_scrambled_semantic=8&num_scrambled_causal=4&num_scrambled_schematic=4&participantId=A3648FD0E9B24E6CBEA9A7BD38955AE3&assignmentId=0198ee69-f030-7330-b5ac-450dcc8cb518&projectId=0198ee3c-27ac-7803-a9ea-f3b4ad4ad678","A3648FD0E9B24E6CBEA9A7BD38955AE3-2025-08-28-03-06-55","","37158","","[""<span style=\""color: red; font-size: 24px\""> NOW RECORDING</span><p>Please say out loud all the images you saw, in the order of the story they create. Try to recall the sequence of events as they appeared in the story, not necessarily the order they were presented on the screen.</p>""]","","12","exploring_nature_semantic"
"","","","","","image-button-response","56","768041","0.0-12.0-0.0","A3648FD0E9B24E6CBEA9A7BD38955AE3","A3648FD0E9B24E6CBEA9A7BD38955AE3","0198ee69-f030-7330-b5ac-450dcc8cb518","0198ee3c-27ac-7803-a9ea-f3b4ad4ad678","{""num_scrambled_semantic"":""8"",""num_scrambled_causal"":""4"",""num_scrambled_schematic"":""4"",""participantId"":""A3648FD0E9B24E6CBEA9A7BD38955AE3"",""assignmentId"":""0198ee69-f030-7330-b5ac-450dcc8cb518"",""projectId"":""0198ee3c-27ac-7803-a9ea-f3b4ad4ad678""}","https://test12345.live/?num_scrambled_semantic=8&num_scrambled_causal=4&num_scrambled_schematic=4&participantId=A3648FD0E9B24E6CBEA9A7BD38955AE3&assignmentId=0198ee69-f030-7330-b5ac-450dcc8cb518&projectId=0198ee3c-27ac-7803-a9ea-f3b4ad4ad678","A3648FD0E9B24E6CBEA9A7BD38955AE3-2025-08-28-03-06-55","","null","","images/schematic_sequence/supermarket_scheme/supermarket_scheme_0.png","null","",""
"","","","","","image-button-response","57","772556","0.0-12.0-1.0-0.0","A3648FD0E9B24E6CBEA9A7BD38955AE3","A3648FD0E9B24E6CBEA9A7BD38955AE3","0198ee69-f030-7330-b5ac-450dcc8cb518","0198ee3c-27ac-7803-a9ea-f3b4ad4ad678","{""num_scrambled_semantic"":""8"",""num_scrambled_causal"":""4"",""num_scrambled_schematic"":""4"",""participantId"":""A3648FD0E9B24E6CBEA9A7BD38955AE3"",""assignmentId"":""0198ee69-f030-7330-b5ac-450dcc8cb518"",""projectId"":""0198ee3c-27ac-7803-a9ea-f3b4ad4ad678""}","https://test12345.live/?num_scrambled_semantic=8&num_scrambled_causal=4&num_scrambled_schematic=4&participantId=A3648FD0E9B24E6CBEA9A7BD38955AE3&assignmentId=0198ee69-f030-7330-b5ac-450dcc8cb518&projectId=0198ee3c-27ac-7803-a9ea-f3b4ad4ad678","A3648FD0E9B24E6CBEA9A7BD38955AE3-2025-08-28-03-06-55","","null","","images/schematic_sequence/supermarket_scheme/supermarket_scheme_5.png","null","",""
"","","","","","image-button-response","58","774644","0.0-12.0-1.0-1.0","A3648FD0E9B24E6CBEA9A7BD38955AE3","A3648FD0E9B24E6CBEA9A7BD38955AE3","0198ee69-f030-7330-b5ac-450dcc8cb518","0198ee3c-27ac-7803-a9ea-f3b4ad4ad678","{""num_scrambled_semantic"":""8"",""num_scrambled_causal"":""4"",""num_scrambled_schematic"":""4"",""participantId"":""A3648FD0E9B24E6CBEA9A7BD38955AE3"",""assignmentId"":""0198ee69-f030-7330-b5ac-450dcc8cb518"",""projectId"":""0198ee3c-27ac-7803-a9ea-f3b4ad4ad678""}","https://test12345.live/?num_scrambled_semantic=8&num_scrambled_causal=4&num_scrambled_schematic=4&participantId=A3648FD0E9B24E6CBEA9A7BD38955AE3&assignmentId=0198ee69-f030-7330-b5ac-450dcc8cb518&projectId=0198ee3c-27ac-7803-a9ea-f3b4ad4ad678","A3648FD0E9B24E6CBEA9A7BD38955AE3-2025-08-28-03-06-55","","2086","","images/schematic_sequence/supermarket_scheme/supermarket_scheme_5.png","1","",""
"","","","","","image-button-response","59","776451","0.0-12.0-1.0-2.0","A3648FD0E9B24E6CBEA9A7BD38955AE3","A3648FD0E9B24E6CBEA9A7BD38955AE3","0198ee69-f030-7330-b5ac-450dcc8cb518","0198ee3c-27ac-7803-a9ea-f3b4ad4ad678","{""num_scrambled_semantic"":""8"",""num_scrambled_causal"":""4"",""num_scrambled_schematic"":""4"",""participantId"":""A3648FD0E9B24E6CBEA9A7BD38955AE3"",""assignmentId"":""0198ee69-f030-7330-b5ac-450dcc8cb518"",""projectId"":""0198ee3c-27ac-7803-a9ea-f3b4ad4ad678""}","https://test12345.live/?num_scrambled_semantic=8&num_scrambled_causal=4&num_scrambled_schematic=4&participantId=A3648FD0E9B24E6CBEA9A7BD38955AE3&assignmentId=0198ee69-f030-7330-b5ac-450dcc8cb518&projectId=0198ee3c-27ac-7803-a9ea-f3b4ad4ad678","A3648FD0E9B24E6CBEA9A7BD38955AE3-2025-08-28-03-06-55","","null","","[]","null","",""
"","","","","","image-button-response","60","780964","0.0-12.0-1.0-0.1","A3648FD0E9B24E6CBEA9A7BD38955AE3","A3648FD0E9B24E6CBEA9A7BD38955AE3","0198ee69-f030-7330-b5ac-450dcc8cb518","0198ee3c-27ac-7803-a9ea-f3b4ad4ad678","{""num_scrambled_semantic"":""8"",""num_scrambled_causal"":""4"",""num_scrambled_schematic"":""4"",""participantId"":""A3648FD0E9B24E6CBEA9A7BD38955AE3"",""assignmentId"":""0198ee69-f030-7330-b5ac-450dcc8cb518"",""projectId"":""0198ee3c-27ac-7803-a9ea-f3b4ad4ad678""}","https://test12345.live/?num_scrambled_semantic=8&num_scrambled_causal=4&num_scrambled_schematic=4&participantId=A3648FD0E9B24E6CBEA9A7BD38955AE3&assignmentId=0198ee69-f030-7330-b5ac-450dcc8cb518&projectId=0198ee3c-27ac-7803-a9ea-f3b4ad4ad678","A3648FD0E9B24E6CBEA9A7BD38955AE3-2025-08-28-03-06-55","","null","","images/schematic_sequence/supermarket_scheme/supermarket_scheme_8.png","null","",""
"","","","","","image-button-response","61","782194","0.0-12.0-1.0-1.1","A3648FD0E9B24E6CBEA9A7BD38955AE3","A3648FD0E9B24E6CBEA9A7BD38955AE3","0198ee69-f030-7330-b5ac-450dcc8cb518","0198ee3c-27ac-7803-a9ea-f3b4ad4ad678","{""num_scrambled_semantic"":""8"",""num_scrambled_causal"":""4"",""num_scrambled_schematic"":""4"",""participantId"":""A3648FD0E9B24E6CBEA9A7BD38955AE3"",""assignmentId"":""0198ee69-f030-7330-b5ac-450dcc8cb518"",""projectId"":""0198ee3c-27ac-7803-a9ea-f3b4ad4ad678""}","https://test12345.live/?num_scrambled_semantic=8&num_scrambled_causal=4&num_scrambled_schematic=4&participantId=A3648FD0E9B24E6CBEA9A7BD38955AE3&assignmentId=0198ee69-f030-7330-b5ac-450dcc8cb518&projectId=0198ee3c-27ac-7803-a9ea-f3b4ad4ad678","A3648FD0E9B24E6CBEA9A7BD38955AE3-2025-08-28-03-06-55","","1230","","images/schematic_sequence/supermarket_scheme/supermarket_scheme_8.png","0","",""
"","","","","","image-button-response","62","784003","0.0-12.0-1.0-2.1","A3648FD0E9B24E6CBEA9A7BD38955AE3","A3648FD0E9B24E6CBEA9A7BD38955AE3","0198ee69-f030-7330-b5ac-450dcc8cb518","0198ee3c-27ac-7803-a9ea-f3b4ad4ad678","{""num_scrambled_semantic"":""8"",""num_scrambled_causal"":""4"",""num_scrambled_schematic"":""4"",""participantId"":""A3648FD0E9B24E6CBEA9A7BD38955AE3"",""assignmentId"":""0198ee69-f030-7330-b5ac-450dcc8cb518"",""projectId"":""0198ee3c-27ac-7803-a9ea-f3b4ad4ad678""}","https://test12345.live/?num_scrambled_semantic=8&num_scrambled_causal=4&num_scrambled_schematic=4&participantId=A3648FD0E9B24E6CBEA9A7BD38955AE3&assignmentId=0198ee69-f030-7330-b5ac-450dcc8cb518&projectId=0198ee3c-27ac-7803-a9ea-f3b4ad4ad678","A3648FD0E9B24E6CBEA9A7BD38955AE3-2025-08-28-03-06-55","","null","","[]","null","",""
"","","","","","image-button-response","63","788519","0.0-12.0-1.0-0.2","A3648FD0E9B24E6CBEA9A7BD38955AE3","A3648FD0E9B24E6CBEA9A7BD38955AE3","0198ee69-f030-7330-b5ac-450dcc8cb518","0198ee3c-27ac-7803-a9ea-f3b4ad4ad678","{""num_scrambled_semantic"":""8"",""num_scrambled_causal"":""4"",""num_scrambled_schematic"":""4"",""participantId"":""A3648FD0E9B24E6CBEA9A7BD38955AE3"",""assignmentId"":""0198ee69-f030-7330-b5ac-450dcc8cb518"",""projectId"":""0198ee3c-27ac-7803-a9ea-f3b4ad4ad678""}","https://test12345.live/?num_scrambled_semantic=8&num_scrambled_causal=4&num_scrambled_schematic=4&participantId=A3648FD0E9B24E6CBEA9A7BD38955AE3&assignmentId=0198ee69-f030-7330-b5ac-450dcc8cb518&projectId=0198ee3c-27ac-7803-a9ea-f3b4ad4ad678","A3648FD0E9B24E6CBEA9A7BD38955AE3-2025-08-28-03-06-55","","null","","images/schematic_sequence/supermarket_scheme/supermarket_scheme_3.png","null","",""
"","","","","","image-button-response","64","790513","0.0-12.0-1.0-1.2","A3648FD0E9B24E6CBEA9A7BD38955AE3","A3648FD0E9B24E6CBEA9A7BD38955AE3","0198ee69-f030-7330-b5ac-450dcc8cb518","0198ee3c-27ac-7803-a9ea-f3b4ad4ad678","{""num_scrambled_semantic"":""8"",""num_scrambled_causal"":""4"",""num_scrambled_schematic"":""4"",""participantId"":""A3648FD0E9B24E6CBEA9A7BD38955AE3"",""assignmentId"":""0198ee69-f030-7330-b5ac-450dcc8cb518"",""projectId"":""0198ee3c-27ac-7803-a9ea-f3b4ad4ad678""}","https://test12345.live/?num_scrambled_semantic=8&num_scrambled_causal=4&num_scrambled_schematic=4&participantId=A3648FD0E9B24E6CBEA9A7BD38955AE3&assignmentId=0198ee69-f030-7330-b5ac-450dcc8cb518&projectId=0198ee3c-27ac-7803-a9ea-f3b4ad4ad678","A3648FD0E9B24E6CBEA9A7BD38955AE3-2025-08-28-03-06-55","","1993","","images/schematic_sequence/supermarket_scheme/supermarket_scheme_3.png","1","",""
"","","","","","image-button-response","65","792324","0.0-12.0-1.0-2.2","A3648FD0E9B24E6CBEA9A7BD38955AE3","A3648FD0E9B24E6CBEA9A7BD38955AE3","0198ee69-f030-7330-b5ac-450dcc8cb518","0198ee3c-27ac-7803-a9ea-f3b4ad4ad678","{""num_scrambled_semantic"":""8"",""num_scrambled_causal"":""4"",""num_scrambled_schematic"":""4"",""participantId"":""A3648FD0E9B24E6CBEA9A7BD38955AE3"",""assignmentId"":""0198ee69-f030-7330-b5ac-450dcc8cb518"",""projectId"":""0198ee3c-27ac-7803-a9ea-f3b4ad4ad678""}","https://test12345.live/?num_scrambled_semantic=8&num_scrambled_causal=4&num_scrambled_schematic=4&participantId=A3648FD0E9B24E6CBEA9A7BD38955AE3&assignmentId=0198ee69-f030-7330-b5ac-450dcc8cb518&projectId=0198ee3c-27ac-7803-a9ea-f3b4ad4ad678","A3648FD0E9B24E6CBEA9A7BD38955AE3-2025-08-28-03-06-55","","null","","[]","null","",""
"","","","","","image-button-response","66","796834","0.0-12.0-1.0-0.3","A3648FD0E9B24E6CBEA9A7BD38955AE3","A3648FD0E9B24E6CBEA9A7BD38955AE3","0198ee69-f030-7330-b5ac-450dcc8cb518","0198ee3c-27ac-7803-a9ea-f3b4ad4ad678","{""num_scrambled_semantic"":""8"",""num_scrambled_causal"":""4"",""num_scrambled_schematic"":""4"",""participantId"":""A3648FD0E9B24E6CBEA9A7BD38955AE3"",""assignmentId"":""0198ee69-f030-7330-b5ac-450dcc8cb518"",""projectId"":""0198ee3c-27ac-7803-a9ea-f3b4ad4ad678""}","https://test12345.live/?num_scrambled_semantic=8&num_scrambled_causal=4&num_scrambled_schematic=4&participantId=A3648FD0E9B24E6CBEA9A7BD38955AE3&assignmentId=0198ee69-f030-7330-b5ac-450dcc8cb518&projectId=0198ee3c-27ac-7803-a9ea-f3b4ad4ad678","A3648FD0E9B24E6CBEA9A7BD38955AE3-2025-08-28-03-06-55","","null","","images/schematic_sequence/supermarket_scheme/supermarket_scheme_1.png","null","",""
"","","","","","image-button-response","67","798812","0.0-12.0-1.0-1.3","A3648FD0E9B24E6CBEA9A7BD38955AE3","A3648FD0E9B24E6CBEA9A7BD38955AE3","0198ee69-f030-7330-b5ac-450dcc8cb518","0198ee3c-27ac-7803-a9ea-f3b4ad4ad678","{""num_scrambled_semantic"":""8"",""num_scrambled_causal"":""4"",""num_scrambled_schematic"":""4"",""participantId"":""A3648FD0E9B24E6CBEA9A7BD38955AE3"",""assignmentId"":""0198ee69-f030-7330-b5ac-450dcc8cb518"",""projectId"":""0198ee3c-27ac-7803-a9ea-f3b4ad4ad678""}","https://test12345.live/?num_scrambled_semantic=8&num_scrambled_causal=4&num_scrambled_schematic=4&participantId=A3648FD0E9B24E6CBEA9A7BD38955AE3&assignmentId=0198ee69-f030-7330-b5ac-450dcc8cb518&projectId=0198ee3c-27ac-7803-a9ea-f3b4ad4ad678","A3648FD0E9B24E6CBEA9A7BD38955AE3-2025-08-28-03-06-55","","1977","","images/schematic_sequence/supermarket_scheme/supermarket_scheme_1.png","1","",""
"","","","","","image-button-response","68","800619","0.0-12.0-1.0-2.3","A3648FD0E9B24E6CBEA9A7BD38955AE3","A3648FD0E9B24E6CBEA9A7BD38955AE3","0198ee69-f030-7330-b5ac-450dcc8cb518","0198ee3c-27ac-7803-a9ea-f3b4ad4ad678","{""num_scrambled_semantic"":""8"",""num_scrambled_causal"":""4"",""num_scrambled_schematic"":""4"",""participantId"":""A3648FD0E9B24E6CBEA9A7BD38955AE3"",""assignmentId"":""0198ee69-f030-7330-b5ac-450dcc8cb518"",""projectId"":""0198ee3c-27ac-7803-a9ea-f3b4ad4ad678""}","https://test12345.live/?num_scrambled_semantic=8&num_scrambled_causal=4&num_scrambled_schematic=4&participantId=A3648FD0E9B24E6CBEA9A7BD38955AE3&assignmentId=0198ee69-f030-7330-b5ac-450dcc8cb518&projectId=0198ee3c-27ac-7803-a9ea-f3b4ad4ad678","A3648FD0E9B24E6CBEA9A7BD38955AE3-2025-08-28-03-06-55","","null","","[]","null","",""
"","","","","","image-button-response","69","805134","0.0-12.0-1.0-0.4","A3648FD0E9B24E6CBEA9A7BD38955AE3","A3648FD0E9B24E6CBEA9A7BD38955AE3","0198ee69-f030-7330-b5ac-450dcc8cb518","0198ee3c-27ac-7803-a9ea-f3b4ad4ad678","{""num_scrambled_semantic"":""8"",""num_scrambled_causal"":""4"",""num_scrambled_schematic"":""4"",""participantId"":""A3648FD0E9B24E6CBEA9A7BD38955AE3"",""assignmentId"":""0198ee69-f030-7330-b5ac-450dcc8cb518"",""projectId"":""0198ee3c-27ac-7803-a9ea-f3b4ad4ad678""}","https://test12345.live/?num_scrambled_semantic=8&num_scrambled_causal=4&num_scrambled_schematic=4&participantId=A3648FD0E9B24E6CBEA9A7BD38955AE3&assignmentId=0198ee69-f030-7330-b5ac-450dcc8cb518&projectId=0198ee3c-27ac-7803-a9ea-f3b4ad4ad678","A3648FD0E9B24E6CBEA9A7BD38955AE3-2025-08-28-03-06-55","","null","","images/schematic_sequence/supermarket_scheme/supermarket_scheme_9.png","null","",""
"","","","","","image-button-response","70","806189","0.0-12.0-1.0-1.4","A3648FD0E9B24E6CBEA9A7BD38955AE3","A3648FD0E9B24E6CBEA9A7BD38955AE3","0198ee69-f030-7330-b5ac-450dcc8cb518","0198ee3c-27ac-7803-a9ea-f3b4ad4ad678","{""num_scrambled_semantic"":""8"",""num_scrambled_causal"":""4"",""num_scrambled_schematic"":""4"",""participantId"":""A3648FD0E9B24E6CBEA9A7BD38955AE3"",""assignmentId"":""0198ee69-f030-7330-b5ac-450dcc8cb518"",""projectId"":""0198ee3c-27ac-7803-a9ea-f3b4ad4ad678""}","https://test12345.live/?num_scrambled_semantic=8&num_scrambled_causal=4&num_scrambled_schematic=4&participantId=A3648FD0E9B24E6CBEA9A7BD38955AE3&assignmentId=0198ee69-f030-7330-b5ac-450dcc8cb518&projectId=0198ee3c-27ac-7803-a9ea-f3b4ad4ad678","A3648FD0E9B24E6CBEA9A7BD38955AE3-2025-08-28-03-06-55","","1053","","images/schematic_sequence/supermarket_scheme/supermarket_scheme_9.png","0","",""
"","","","","","image-button-response","71","807992","0.0-12.0-1.0-2.4","A3648FD0E9B24E6CBEA9A7BD38955AE3","A3648FD0E9B24E6CBEA9A7BD38955AE3","0198ee69-f030-7330-b5ac-450dcc8cb518","0198ee3c-27ac-7803-a9ea-f3b4ad4ad678","{""num_scrambled_semantic"":""8"",""num_scrambled_causal"":""4"",""num_scrambled_schematic"":""4"",""participantId"":""A3648FD0E9B24E6CBEA9A7BD38955AE3"",""assignmentId"":""0198ee69-f030-7330-b5ac-450dcc8cb518"",""projectId"":""0198ee3c-27ac-7803-a9ea-f3b4ad4ad678""}","https://test12345.live/?num_scrambled_semantic=8&num_scrambled_causal=4&num_scrambled_schematic=4&participantId=A3648FD0E9B24E6CBEA9A7BD38955AE3&assignmentId=0198ee69-f030-7330-b5ac-450dcc8cb518&projectId=0198ee3c-27ac-7803-a9ea-f3b4ad4ad678","A3648FD0E9B24E6CBEA9A7BD38955AE3-2025-08-28-03-06-55","","null","","[]","null","",""
"","","","","","image-button-response","72","812506","0.0-12.0-1.0-0.5","A3648FD0E9B24E6CBEA9A7BD38955AE3","A3648FD0E9B24E6CBEA9A7BD38955AE3","0198ee69-f030-7330-b5ac-450dcc8cb518","0198ee3c-27ac-7803-a9ea-f3b4ad4ad678","{""num_scrambled_semantic"":""8"",""num_scrambled_causal"":""4"",""num_scrambled_schematic"":""4"",""participantId"":""A3648FD0E9B24E6CBEA9A7BD38955AE3"",""assignmentId"":""0198ee69-f030-7330-b5ac-450dcc8cb518"",""projectId"":""0198ee3c-27ac-7803-a9ea-f3b4ad4ad678""}","https://test12345.live/?num_scrambled_semantic=8&num_scrambled_causal=4&num_scrambled_schematic=4&participantId=A3648FD0E9B24E6CBEA9A7BD38955AE3&assignmentId=0198ee69-f030-7330-b5ac-450dcc8cb518&projectId=0198ee3c-27ac-7803-a9ea-f3b4ad4ad678","A3648FD0E9B24E6CBEA9A7BD38955AE3-2025-08-28-03-06-55","","null","","images/schematic_sequence/supermarket_scheme/supermarket_scheme_2.png","null","",""
"","","","","","image-button-response","73","814071","0.0-12.0-1.0-1.5","A3648FD0E9B24E6CBEA9A7BD38955AE3","A3648FD0E9B24E6CBEA9A7BD38955AE3","0198ee69-f030-7330-b5ac-450dcc8cb518","0198ee3c-27ac-7803-a9ea-f3b4ad4ad678","{""num_scrambled_semantic"":""8"",""num_scrambled_causal"":""4"",""num_scrambled_schematic"":""4"",""participantId"":""A3648FD0E9B24E6CBEA9A7BD38955AE3"",""assignmentId"":""0198ee69-f030-7330-b5ac-450dcc8cb518"",""projectId"":""0198ee3c-27ac-7803-a9ea-f3b4ad4ad678""}","https://test12345.live/?num_scrambled_semantic=8&num_scrambled_causal=4&num_scrambled_schematic=4&participantId=A3648FD0E9B24E6CBEA9A7BD38955AE3&assignmentId=0198ee69-f030-7330-b5ac-450dcc8cb518&projectId=0198ee3c-27ac-7803-a9ea-f3b4ad4ad678","A3648FD0E9B24E6CBEA9A7BD38955AE3-2025-08-28-03-06-55","","1564","","images/schematic_sequence/supermarket_scheme/supermarket_scheme_2.png","1","",""
"","","","","","image-button-response","74","815872","0.0-12.0-1.0-2.5","A3648FD0E9B24E6CBEA9A7BD38955AE3","A3648FD0E9B24E6CBEA9A7BD38955AE3","0198ee69-f030-7330-b5ac-450dcc8cb518","0198ee3c-27ac-7803-a9ea-f3b4ad4ad678","{""num_scrambled_semantic"":""8"",""num_scrambled_causal"":""4"",""num_scrambled_schematic"":""4"",""participantId"":""A3648FD0E9B24E6CBEA9A7BD38955AE3"",""assignmentId"":""0198ee69-f030-7330-b5ac-450dcc8cb518"",""projectId"":""0198ee3c-27ac-7803-a9ea-f3b4ad4ad678""}","https://test12345.live/?num_scrambled_semantic=8&num_scrambled_causal=4&num_scrambled_schematic=4&participantId=A3648FD0E9B24E6CBEA9A7BD38955AE3&assignmentId=0198ee69-f030-7330-b5ac-450dcc8cb518&projectId=0198ee3c-27ac-7803-a9ea-f3b4ad4ad678","A3648FD0E9B24E6CBEA9A7BD38955AE3-2025-08-28-03-06-55","","null","","[]","null","",""
"","","","","","image-button-response","75","820388","0.0-12.0-1.0-0.6","A3648FD0E9B24E6CBEA9A7BD38955AE3","A3648FD0E9B24E6CBEA9A7BD38955AE3","0198ee69-f030-7330-b5ac-450dcc8cb518","0198ee3c-27ac-7803-a9ea-f3b4ad4ad678","{""num_scrambled_semantic"":""8"",""num_scrambled_causal"":""4"",""num_scrambled_schematic"":""4"",""participantId"":""A3648FD0E9B24E6CBEA9A7BD38955AE3"",""assignmentId"":""0198ee69-f030-7330-b5ac-450dcc8cb518"",""projectId"":""0198ee3c-27ac-7803-a9ea-f3b4ad4ad678""}","https://test12345.live/?num_scrambled_semantic=8&num_scrambled_causal=4&num_scrambled_schematic=4&participantId=A3648FD0E9B24E6CBEA9A7BD38955AE3&assignmentId=0198ee69-f030-7330-b5ac-450dcc8cb518&projectId=0198ee3c-27ac-7803-a9ea-f3b4ad4ad678","A3648FD0E9B24E6CBEA9A7BD38955AE3-2025-08-28-03-06-55","","null","","images/schematic_sequence/supermarket_scheme/supermarket_scheme_ten.png","null","",""
"","","","","","image-button-response","76","821548","0.0-12.0-1.0-1.6","A3648FD0E9B24E6CBEA9A7BD38955AE3","A3648FD0E9B24E6CBEA9A7BD38955AE3","0198ee69-f030-7330-b5ac-450dcc8cb518","0198ee3c-27ac-7803-a9ea-f3b4ad4ad678","{""num_scrambled_semantic"":""8"",""num_scrambled_causal"":""4"",""num_scrambled_schematic"":""4"",""participantId"":""A3648FD0E9B24E6CBEA9A7BD38955AE3"",""assignmentId"":""0198ee69-f030-7330-b5ac-450dcc8cb518"",""projectId"":""0198ee3c-27ac-7803-a9ea-f3b4ad4ad678""}","https://test12345.live/?num_scrambled_semantic=8&num_scrambled_causal=4&num_scrambled_schematic=4&participantId=A3648FD0E9B24E6CBEA9A7BD38955AE3&assignmentId=0198ee69-f030-7330-b5ac-450dcc8cb518&projectId=0198ee3c-27ac-7803-a9ea-f3b4ad4ad678","A3648FD0E9B24E6CBEA9A7BD38955AE3-2025-08-28-03-06-55","","1159","","images/schematic_sequence/supermarket_scheme/supermarket_scheme_ten.png","1","",""
"","","","","","image-button-response","77","823355","0.0-12.0-1.0-2.6","A3648FD0E9B24E6CBEA9A7BD38955AE3","A3648FD0E9B24E6CBEA9A7BD38955AE3","0198ee69-f030-7330-b5ac-450dcc8cb518","0198ee3c-27ac-7803-a9ea-f3b4ad4ad678","{""num_scrambled_semantic"":""8"",""num_scrambled_causal"":""4"",""num_scrambled_schematic"":""4"",""participantId"":""A3648FD0E9B24E6CBEA9A7BD38955AE3"",""assignmentId"":""0198ee69-f030-7330-b5ac-450dcc8cb518"",""projectId"":""0198ee3c-27ac-7803-a9ea-f3b4ad4ad678""}","https://test12345.live/?num_scrambled_semantic=8&num_scrambled_causal=4&num_scrambled_schematic=4&participantId=A3648FD0E9B24E6CBEA9A7BD38955AE3&assignmentId=0198ee69-f030-7330-b5ac-450dcc8cb518&projectId=0198ee3c-27ac-7803-a9ea-f3b4ad4ad678","A3648FD0E9B24E6CBEA9A7BD38955AE3-2025-08-28-03-06-55","","null","","[]","null","",""
"","","","","","image-button-response","78","827866","0.0-12.0-1.0-0.7","A3648FD0E9B24E6CBEA9A7BD38955AE3","A3648FD0E9B24E6CBEA9A7BD38955AE3","0198ee69-f030-7330-b5ac-450dcc8cb518","0198ee3c-27ac-7803-a9ea-f3b4ad4ad678","{""num_scrambled_semantic"":""8"",""num_scrambled_causal"":""4"",""num_scrambled_schematic"":""4"",""participantId"":""A3648FD0E9B24E6CBEA9A7BD38955AE3"",""assignmentId"":""0198ee69-f030-7330-b5ac-450dcc8cb518"",""projectId"":""0198ee3c-27ac-7803-a9ea-f3b4ad4ad678""}","https://test12345.live/?num_scrambled_semantic=8&num_scrambled_causal=4&num_scrambled_schematic=4&participantId=A3648FD0E9B24E6CBEA9A7BD38955AE3&assignmentId=0198ee69-f030-7330-b5ac-450dcc8cb518&projectId=0198ee3c-27ac-7803-a9ea-f3b4ad4ad678","A3648FD0E9B24E6CBEA9A7BD38955AE3-2025-08-28-03-06-55","","null","","images/schematic_sequence/supermarket_scheme/supermarket_scheme_4.png","null","",""
"","","","","","image-button-response","79","829754","0.0-12.0-1.0-1.7","A3648FD0E9B24E6CBEA9A7BD38955AE3","A3648FD0E9B24E6CBEA9A7BD38955AE3","0198ee69-f030-7330-b5ac-450dcc8cb518","0198ee3c-27ac-7803-a9ea-f3b4ad4ad678","{""num_scrambled_semantic"":""8"",""num_scrambled_causal"":""4"",""num_scrambled_schematic"":""4"",""participantId"":""A3648FD0E9B24E6CBEA9A7BD38955AE3"",""assignmentId"":""0198ee69-f030-7330-b5ac-450dcc8cb518"",""projectId"":""0198ee3c-27ac-7803-a9ea-f3b4ad4ad678""}","https://test12345.live/?num_scrambled_semantic=8&num_scrambled_causal=4&num_scrambled_schematic=4&participantId=A3648FD0E9B24E6CBEA9A7BD38955AE3&assignmentId=0198ee69-f030-7330-b5ac-450dcc8cb518&projectId=0198ee3c-27ac-7803-a9ea-f3b4ad4ad678","A3648FD0E9B24E6CBEA9A7BD38955AE3-2025-08-28-03-06-55","","1887","","images/schematic_sequence/supermarket_scheme/supermarket_scheme_4.png","0","",""
"","","","","","image-button-response","80","831556","0.0-12.0-1.0-2.7","A3648FD0E9B24E6CBEA9A7BD38955AE3","A3648FD0E9B24E6CBEA9A7BD38955AE3","0198ee69-f030-7330-b5ac-450dcc8cb518","0198ee3c-27ac-7803-a9ea-f3b4ad4ad678","{""num_scrambled_semantic"":""8"",""num_scrambled_causal"":""4"",""num_scrambled_schematic"":""4"",""participantId"":""A3648FD0E9B24E6CBEA9A7BD38955AE3"",""assignmentId"":""0198ee69-f030-7330-b5ac-450dcc8cb518"",""projectId"":""0198ee3c-27ac-7803-a9ea-f3b4ad4ad678""}","https://test12345.live/?num_scrambled_semantic=8&num_scrambled_causal=4&num_scrambled_schematic=4&participantId=A3648FD0E9B24E6CBEA9A7BD38955AE3&assignmentId=0198ee69-f030-7330-b5ac-450dcc8cb518&projectId=0198ee3c-27ac-7803-a9ea-f3b4ad4ad678","A3648FD0E9B24E6CBEA9A7BD38955AE3-2025-08-28-03-06-55","","null","","[]","null","",""
"","","","","","image-button-response","81","836070","0.0-12.0-1.0-0.8","A3648FD0E9B24E6CBEA9A7BD38955AE3","A3648FD0E9B24E6CBEA9A7BD38955AE3","0198ee69-f030-7330-b5ac-450dcc8cb518","0198ee3c-27ac-7803-a9ea-f3b4ad4ad678","{""num_scrambled_semantic"":""8"",""num_scrambled_causal"":""4"",""num_scrambled_schematic"":""4"",""participantId"":""A3648FD0E9B24E6CBEA9A7BD38955AE3"",""assignmentId"":""0198ee69-f030-7330-b5ac-450dcc8cb518"",""projectId"":""0198ee3c-27ac-7803-a9ea-f3b4ad4ad678""}","https://test12345.live/?num_scrambled_semantic=8&num_scrambled_causal=4&num_scrambled_schematic=4&participantId=A3648FD0E9B24E6CBEA9A7BD38955AE3&assignmentId=0198ee69-f030-7330-b5ac-450dcc8cb518&projectId=0198ee3c-27ac-7803-a9ea-f3b4ad4ad678","A3648FD0E9B24E6CBEA9A7BD38955AE3-2025-08-28-03-06-55","","null","","images/schematic_sequence/supermarket_scheme/supermarket_scheme_6.png","null","",""
"","","","","","image-button-response","82","837189","0.0-12.0-1.0-1.8","A3648FD0E9B24E6CBEA9A7BD38955AE3","A3648FD0E9B24E6CBEA9A7BD38955AE3","0198ee69-f030-7330-b5ac-450dcc8cb518","0198ee3c-27ac-7803-a9ea-f3b4ad4ad678","{""num_scrambled_semantic"":""8"",""num_scrambled_causal"":""4"",""num_scrambled_schematic"":""4"",""participantId"":""A3648FD0E9B24E6CBEA9A7BD38955AE3"",""assignmentId"":""0198ee69-f030-7330-b5ac-450dcc8cb518"",""projectId"":""0198ee3c-27ac-7803-a9ea-f3b4ad4ad678""}","https://test12345.live/?num_scrambled_semantic=8&num_scrambled_causal=4&num_scrambled_schematic=4&participantId=A3648FD0E9B24E6CBEA9A7BD38955AE3&assignmentId=0198ee69-f030-7330-b5ac-450dcc8cb518&projectId=0198ee3c-27ac-7803-a9ea-f3b4ad4ad678","A3648FD0E9B24E6CBEA9A7BD38955AE3-2025-08-28-03-06-55","","1118","","images/schematic_sequence/supermarket_scheme/supermarket_scheme_6.png","0","",""
"","","","","","image-button-response","83","839003","0.0-12.0-1.0-2.8","A3648FD0E9B24E6CBEA9A7BD38955AE3","A3648FD0E9B24E6CBEA9A7BD38955AE3","0198ee69-f030-7330-b5ac-450dcc8cb518","0198ee3c-27ac-7803-a9ea-f3b4ad4ad678","{""num_scrambled_semantic"":""8"",""num_scrambled_causal"":""4"",""num_scrambled_schematic"":""4"",""participantId"":""A3648FD0E9B24E6CBEA9A7BD38955AE3"",""assignmentId"":""0198ee69-f030-7330-b5ac-450dcc8cb518"",""projectId"":""0198ee3c-27ac-7803-a9ea-f3b4ad4ad678""}","https://test12345.live/?num_scrambled_semantic=8&num_scrambled_causal=4&num_scrambled_schematic=4&participantId=A3648FD0E9B24E6CBEA9A7BD38955AE3&assignmentId=0198ee69-f030-7330-b5ac-450dcc8cb518&projectId=0198ee3c-27ac-7803-a9ea-f3b4ad4ad678","A3648FD0E9B24E6CBEA9A7BD38955AE3-2025-08-28-03-06-55","","null","","[]","null","",""
"","","","","","image-button-response","84","843511","0.0-12.0-1.0-0.9","A3648FD0E9B24E6CBEA9A7BD38955AE3","A3648FD0E9B24E6CBEA9A7BD38955AE3","0198ee69-f030-7330-b5ac-450dcc8cb518","0198ee3c-27ac-7803-a9ea-f3b4ad4ad678","{""num_scrambled_semantic"":""8"",""num_scrambled_causal"":""4"",""num_scrambled_schematic"":""4"",""participantId"":""A3648FD0E9B24E6CBEA9A7BD38955AE3"",""assignmentId"":""0198ee69-f030-7330-b5ac-450dcc8cb518"",""projectId"":""0198ee3c-27ac-7803-a9ea-f3b4ad4ad678""}","https://test12345.live/?num_scrambled_semantic=8&num_scrambled_causal=4&num_scrambled_schematic=4&participantId=A3648FD0E9B24E6CBEA9A7BD38955AE3&assignmentId=0198ee69-f030-7330-b5ac-450dcc8cb518&projectId=0198ee3c-27ac-7803-a9ea-f3b4ad4ad678","A3648FD0E9B24E6CBEA9A7BD38955AE3-2025-08-28-03-06-55","","null","","images/schematic_sequence/supermarket_scheme/supermarket_scheme_7.png","null","",""
"","","","","","image-button-response","85","844666","0.0-12.0-1.0-1.9","A3648FD0E9B24E6CBEA9A7BD38955AE3","A3648FD0E9B24E6CBEA9A7BD38955AE3","0198ee69-f030-7330-b5ac-450dcc8cb518","0198ee3c-27ac-7803-a9ea-f3b4ad4ad678","{""num_scrambled_semantic"":""8"",""num_scrambled_causal"":""4"",""num_scrambled_schematic"":""4"",""participantId"":""A3648FD0E9B24E6CBEA9A7BD38955AE3"",""assignmentId"":""0198ee69-f030-7330-b5ac-450dcc8cb518"",""projectId"":""0198ee3c-27ac-7803-a9ea-f3b4ad4ad678""}","https://test12345.live/?num_scrambled_semantic=8&num_scrambled_causal=4&num_scrambled_schematic=4&participantId=A3648FD0E9B24E6CBEA9A7BD38955AE3&assignmentId=0198ee69-f030-7330-b5ac-450dcc8cb518&projectId=0198ee3c-27ac-7803-a9ea-f3b4ad4ad678","A3648FD0E9B24E6CBEA9A7BD38955AE3-2025-08-28-03-06-55","","1153","","images/schematic_sequence/supermarket_scheme/supermarket_scheme_7.png","0","",""
"","","","","","image-button-response","86","846472","0.0-12.0-1.0-2.9","A3648FD0E9B24E6CBEA9A7BD38955AE3","A3648FD0E9B24E6CBEA9A7BD38955AE3","0198ee69-f030-7330-b5ac-450dcc8cb518","0198ee3c-27ac-7803-a9ea-f3b4ad4ad678","{""num_scrambled_semantic"":""8"",""num_scrambled_causal"":""4"",""num_scrambled_schematic"":""4"",""participantId"":""A3648FD0E9B24E6CBEA9A7BD38955AE3"",""assignmentId"":""0198ee69-f030-7330-b5ac-450dcc8cb518"",""projectId"":""0198ee3c-27ac-7803-a9ea-f3b4ad4ad678""}","https://test12345.live/?num_scrambled_semantic=8&num_scrambled_causal=4&num_scrambled_schematic=4&participantId=A3648FD0E9B24E6CBEA9A7BD38955AE3&assignmentId=0198ee69-f030-7330-b5ac-450dcc8cb518&projectId=0198ee3c-27ac-7803-a9ea-f3b4ad4ad678","A3648FD0E9B24E6CBEA9A7BD38955AE3-2025-08-28-03-06-55","","null","","[]","null","",""
"","","","","","html-audio-response","87","902843","0.0-13.0","A3648FD0E9B24E6CBEA9A7BD38955AE3","A3648FD0E9B24E6CBEA9A7BD38955AE3","0198ee69-f030-7330-b5ac-450dcc8cb518","0198ee3c-27ac-7803-a9ea-f3b4ad4ad678","{""num_scrambled_semantic"":""8"",""num_scrambled_causal"":""4"",""num_scrambled_schematic"":""4"",""participantId"":""A3648FD0E9B24E6CBEA9A7BD38955AE3"",""assignmentId"":""0198ee69-f030-7330-b5ac-450dcc8cb518"",""projectId"":""0198ee3c-27ac-7803-a9ea-f3b4ad4ad678""}","https://test12345.live/?num_scrambled_semantic=8&num_scrambled_causal=4&num_scrambled_schematic=4&participantId=A3648FD0E9B24E6CBEA9A7BD38955AE3&assignmentId=0198ee69-f030-7330-b5ac-450dcc8cb518&projectId=0198ee3c-27ac-7803-a9ea-f3b4ad4ad678","A3648FD0E9B24E6CBEA9A7BD38955AE3-2025-08-28-03-06-55","","54612","","[""<span style=\""color: red; font-size: 24px\""> NOW RECORDING</span><p>Please say out loud all the images you saw, in the order of the story they create. Try to recall the sequence of events as they appeared in the story, not necessarily the order they were presented on the screen.</p>""]","","1","supermarket_scheme"
"","","","","","image-button-response","88","908857","0.0-14.0-0.0","A3648FD0E9B24E6CBEA9A7BD38955AE3","A3648FD0E9B24E6CBEA9A7BD38955AE3","0198ee69-f030-7330-b5ac-450dcc8cb518","0198ee3c-27ac-7803-a9ea-f3b4ad4ad678","{""num_scrambled_semantic"":""8"",""num_scrambled_causal"":""4"",""num_scrambled_schematic"":""4"",""participantId"":""A3648FD0E9B24E6CBEA9A7BD38955AE3"",""assignmentId"":""0198ee69-f030-7330-b5ac-450dcc8cb518"",""projectId"":""0198ee3c-27ac-7803-a9ea-f3b4ad4ad678""}","https://test12345.live/?num_scrambled_semantic=8&num_scrambled_causal=4&num_scrambled_schematic=4&participantId=A3648FD0E9B24E6CBEA9A7BD38955AE3&assignmentId=0198ee69-f030-7330-b5ac-450dcc8cb518&projectId=0198ee3c-27ac-7803-a9ea-f3b4ad4ad678","A3648FD0E9B24E6CBEA9A7BD38955AE3-2025-08-28-03-06-55","","null","","images/causal_sequence/the_performance_causal/the_performance_causal_0.png","null","",""
"","","","","","image-button-response","89","913364","0.0-14.0-1.0-0.0","A3648FD0E9B24E6CBEA9A7BD38955AE3","A3648FD0E9B24E6CBEA9A7BD38955AE3","0198ee69-f030-7330-b5ac-450dcc8cb518","0198ee3c-27ac-7803-a9ea-f3b4ad4ad678","{""num_scrambled_semantic"":""8"",""num_scrambled_causal"":""4"",""num_scrambled_schematic"":""4"",""participantId"":""A3648FD0E9B24E6CBEA9A7BD38955AE3"",""assignmentId"":""0198ee69-f030-7330-b5ac-450dcc8cb518"",""projectId"":""0198ee3c-27ac-7803-a9ea-f3b4ad4ad678""}","https://test12345.live/?num_scrambled_semantic=8&num_scrambled_causal=4&num_scrambled_schematic=4&participantId=A3648FD0E9B24E6CBEA9A7BD38955AE3&assignmentId=0198ee69-f030-7330-b5ac-450dcc8cb518&projectId=0198ee3c-27ac-7803-a9ea-f3b4ad4ad678","A3648FD0E9B24E6CBEA9A7BD38955AE3-2025-08-28-03-06-55","","null","","images/causal_sequence/the_performance_causal/the_performance_causal_9.png","null","",""
"","","","","","image-button-response","90","915952","0.0-14.0-1.0-1.0","A3648FD0E9B24E6CBEA9A7BD38955AE3","A3648FD0E9B24E6CBEA9A7BD38955AE3","0198ee69-f030-7330-b5ac-450dcc8cb518","0198ee3c-27ac-7803-a9ea-f3b4ad4ad678","{""num_scrambled_semantic"":""8"",""num_scrambled_causal"":""4"",""num_scrambled_schematic"":""4"",""participantId"":""A3648FD0E9B24E6CBEA9A7BD38955AE3"",""assignmentId"":""0198ee69-f030-7330-b5ac-450dcc8cb518"",""projectId"":""0198ee3c-27ac-7803-a9ea-f3b4ad4ad678""}","https://test12345.live/?num_scrambled_semantic=8&num_scrambled_causal=4&num_scrambled_schematic=4&participantId=A3648FD0E9B24E6CBEA9A7BD38955AE3&assignmentId=0198ee69-f030-7330-b5ac-450dcc8cb518&projectId=0198ee3c-27ac-7803-a9ea-f3b4ad4ad678","A3648FD0E9B24E6CBEA9A7BD38955AE3-2025-08-28-03-06-55","","2587","","images/causal_sequence/the_performance_causal/the_performance_causal_9.png","0","",""
"","","","","","image-button-response","91","917760","0.0-14.0-1.0-2.0","A3648FD0E9B24E6CBEA9A7BD38955AE3","A3648FD0E9B24E6CBEA9A7BD38955AE3","0198ee69-f030-7330-b5ac-450dcc8cb518","0198ee3c-27ac-7803-a9ea-f3b4ad4ad678","{""num_scrambled_semantic"":""8"",""num_scrambled_causal"":""4"",""num_scrambled_schematic"":""4"",""participantId"":""A3648FD0E9B24E6CBEA9A7BD38955AE3"",""assignmentId"":""0198ee69-f030-7330-b5ac-450dcc8cb518"",""projectId"":""0198ee3c-27ac-7803-a9ea-f3b4ad4ad678""}","https://test12345.live/?num_scrambled_semantic=8&num_scrambled_causal=4&num_scrambled_schematic=4&participantId=A3648FD0E9B24E6CBEA9A7BD38955AE3&assignmentId=0198ee69-f030-7330-b5ac-450dcc8cb518&projectId=0198ee3c-27ac-7803-a9ea-f3b4ad4ad678","A3648FD0E9B24E6CBEA9A7BD38955AE3-2025-08-28-03-06-55","","null","","[]","null","",""
"","","","","","image-button-response","92","922266","0.0-14.0-1.0-0.1","A3648FD0E9B24E6CBEA9A7BD38955AE3","A3648FD0E9B24E6CBEA9A7BD38955AE3","0198ee69-f030-7330-b5ac-450dcc8cb518","0198ee3c-27ac-7803-a9ea-f3b4ad4ad678","{""num_scrambled_semantic"":""8"",""num_scrambled_causal"":""4"",""num_scrambled_schematic"":""4"",""participantId"":""A3648FD0E9B24E6CBEA9A7BD38955AE3"",""assignmentId"":""0198ee69-f030-7330-b5ac-450dcc8cb518"",""projectId"":""0198ee3c-27ac-7803-a9ea-f3b4ad4ad678""}","https://test12345.live/?num_scrambled_semantic=8&num_scrambled_causal=4&num_scrambled_schematic=4&participantId=A3648FD0E9B24E6CBEA9A7BD38955AE3&assignmentId=0198ee69-f030-7330-b5ac-450dcc8cb518&projectId=0198ee3c-27ac-7803-a9ea-f3b4ad4ad678","A3648FD0E9B24E6CBEA9A7BD38955AE3-2025-08-28-03-06-55","","null","","images/causal_sequence/the_performance_causal/the_performance_causal_6.png","null","",""
"","","","","","image-button-response","93","924164","0.0-14.0-1.0-1.1","A3648FD0E9B24E6CBEA9A7BD38955AE3","A3648FD0E9B24E6CBEA9A7BD38955AE3","0198ee69-f030-7330-b5ac-450dcc8cb518","0198ee3c-27ac-7803-a9ea-f3b4ad4ad678","{""num_scrambled_semantic"":""8"",""num_scrambled_causal"":""4"",""num_scrambled_schematic"":""4"",""participantId"":""A3648FD0E9B24E6CBEA9A7BD38955AE3"",""assignmentId"":""0198ee69-f030-7330-b5ac-450dcc8cb518"",""projectId"":""0198ee3c-27ac-7803-a9ea-f3b4ad4ad678""}","https://test12345.live/?num_scrambled_semantic=8&num_scrambled_causal=4&num_scrambled_schematic=4&participantId=A3648FD0E9B24E6CBEA9A7BD38955AE3&assignmentId=0198ee69-f030-7330-b5ac-450dcc8cb518&projectId=0198ee3c-27ac-7803-a9ea-f3b4ad4ad678","A3648FD0E9B24E6CBEA9A7BD38955AE3-2025-08-28-03-06-55","","1897","","images/causal_sequence/the_performance_causal/the_performance_causal_6.png","0","",""
"","","","","","image-button-response","94","925967","0.0-14.0-1.0-2.1","A3648FD0E9B24E6CBEA9A7BD38955AE3","A3648FD0E9B24E6CBEA9A7BD38955AE3","0198ee69-f030-7330-b5ac-450dcc8cb518","0198ee3c-27ac-7803-a9ea-f3b4ad4ad678","{""num_scrambled_semantic"":""8"",""num_scrambled_causal"":""4"",""num_scrambled_schematic"":""4"",""participantId"":""A3648FD0E9B24E6CBEA9A7BD38955AE3"",""assignmentId"":""0198ee69-f030-7330-b5ac-450dcc8cb518"",""projectId"":""0198ee3c-27ac-7803-a9ea-f3b4ad4ad678""}","https://test12345.live/?num_scrambled_semantic=8&num_scrambled_causal=4&num_scrambled_schematic=4&participantId=A3648FD0E9B24E6CBEA9A7BD38955AE3&assignmentId=0198ee69-f030-7330-b5ac-450dcc8cb518&projectId=0198ee3c-27ac-7803-a9ea-f3b4ad4ad678","A3648FD0E9B24E6CBEA9A7BD38955AE3-2025-08-28-03-06-55","","null","","[]","null","",""
"","","","","","image-button-response","95","930471","0.0-14.0-1.0-0.2","A3648FD0E9B24E6CBEA9A7BD38955AE3","A3648FD0E9B24E6CBEA9A7BD38955AE3","0198ee69-f030-7330-b5ac-450dcc8cb518","0198ee3c-27ac-7803-a9ea-f3b4ad4ad678","{""num_scrambled_semantic"":""8"",""num_scrambled_causal"":""4"",""num_scrambled_schematic"":""4"",""participantId"":""A3648FD0E9B24E6CBEA9A7BD38955AE3"",""assignmentId"":""0198ee69-f030-7330-b5ac-450dcc8cb518"",""projectId"":""0198ee3c-27ac-7803-a9ea-f3b4ad4ad678""}","https://test12345.live/?num_scrambled_semantic=8&num_scrambled_causal=4&num_scrambled_schematic=4&participantId=A3648FD0E9B24E6CBEA9A7BD38955AE3&assignmentId=0198ee69-f030-7330-b5ac-450dcc8cb518&projectId=0198ee3c-27ac-7803-a9ea-f3b4ad4ad678","A3648FD0E9B24E6CBEA9A7BD38955AE3-2025-08-28-03-06-55","","null","","images/causal_sequence/the_performance_causal/the_performance_causal_8.png","null","",""
"","","","","","image-button-response","96","931815","0.0-14.0-1.0-1.2","A3648FD0E9B24E6CBEA9A7BD38955AE3","A3648FD0E9B24E6CBEA9A7BD38955AE3","0198ee69-f030-7330-b5ac-450dcc8cb518","0198ee3c-27ac-7803-a9ea-f3b4ad4ad678","{""num_scrambled_semantic"":""8"",""num_scrambled_causal"":""4"",""num_scrambled_schematic"":""4"",""participantId"":""A3648FD0E9B24E6CBEA9A7BD38955AE3"",""assignmentId"":""0198ee69-f030-7330-b5ac-450dcc8cb518"",""projectId"":""0198ee3c-27ac-7803-a9ea-f3b4ad4ad678""}","https://test12345.live/?num_scrambled_semantic=8&num_scrambled_causal=4&num_scrambled_schematic=4&participantId=A3648FD0E9B24E6CBEA9A7BD38955AE3&assignmentId=0198ee69-f030-7330-b5ac-450dcc8cb518&projectId=0198ee3c-27ac-7803-a9ea-f3b4ad4ad678","A3648FD0E9B24E6CBEA9A7BD38955AE3-2025-08-28-03-06-55","","1343","","images/causal_sequence/the_performance_causal/the_performance_causal_8.png","0","",""
"","","","","","image-button-response","97","933616","0.0-14.0-1.0-2.2","A3648FD0E9B24E6CBEA9A7BD38955AE3","A3648FD0E9B24E6CBEA9A7BD38955AE3","0198ee69-f030-7330-b5ac-450dcc8cb518","0198ee3c-27ac-7803-a9ea-f3b4ad4ad678","{""num_scrambled_semantic"":""8"",""num_scrambled_causal"":""4"",""num_scrambled_schematic"":""4"",""participantId"":""A3648FD0E9B24E6CBEA9A7BD38955AE3"",""assignmentId"":""0198ee69-f030-7330-b5ac-450dcc8cb518"",""projectId"":""0198ee3c-27ac-7803-a9ea-f3b4ad4ad678""}","https://test12345.live/?num_scrambled_semantic=8&num_scrambled_causal=4&num_scrambled_schematic=4&participantId=A3648FD0E9B24E6CBEA9A7BD38955AE3&assignmentId=0198ee69-f030-7330-b5ac-450dcc8cb518&projectId=0198ee3c-27ac-7803-a9ea-f3b4ad4ad678","A3648FD0E9B24E6CBEA9A7BD38955AE3-2025-08-28-03-06-55","","null","","[]","null","",""
"","","","","","image-button-response","98","938118","0.0-14.0-1.0-0.3","A3648FD0E9B24E6CBEA9A7BD38955AE3","A3648FD0E9B24E6CBEA9A7BD38955AE3","0198ee69-f030-7330-b5ac-450dcc8cb518","0198ee3c-27ac-7803-a9ea-f3b4ad4ad678","{""num_scrambled_semantic"":""8"",""num_scrambled_causal"":""4"",""num_scrambled_schematic"":""4"",""participantId"":""A3648FD0E9B24E6CBEA9A7BD38955AE3"",""assignmentId"":""0198ee69-f030-7330-b5ac-450dcc8cb518"",""projectId"":""0198ee3c-27ac-7803-a9ea-f3b4ad4ad678""}","https://test12345.live/?num_scrambled_semantic=8&num_scrambled_causal=4&num_scrambled_schematic=4&participantId=A3648FD0E9B24E6CBEA9A7BD38955AE3&assignmentId=0198ee69-f030-7330-b5ac-450dcc8cb518&projectId=0198ee3c-27ac-7803-a9ea-f3b4ad4ad678","A3648FD0E9B24E6CBEA9A7BD38955AE3-2025-08-28-03-06-55","","null","","images/causal_sequence/the_performance_causal/the_performance_causal_7.png","null","",""
"","","","","","image-button-response","99","940639","0.0-14.0-1.0-1.3","A3648FD0E9B24E6CBEA9A7BD38955AE3","A3648FD0E9B24E6CBEA9A7BD38955AE3","0198ee69-f030-7330-b5ac-450dcc8cb518","0198ee3c-27ac-7803-a9ea-f3b4ad4ad678","{""num_scrambled_semantic"":""8"",""num_scrambled_causal"":""4"",""num_scrambled_schematic"":""4"",""participantId"":""A3648FD0E9B24E6CBEA9A7BD38955AE3"",""assignmentId"":""0198ee69-f030-7330-b5ac-450dcc8cb518"",""projectId"":""0198ee3c-27ac-7803-a9ea-f3b4ad4ad678""}","https://test12345.live/?num_scrambled_semantic=8&num_scrambled_causal=4&num_scrambled_schematic=4&participantId=A3648FD0E9B24E6CBEA9A7BD38955AE3&assignmentId=0198ee69-f030-7330-b5ac-450dcc8cb518&projectId=0198ee3c-27ac-7803-a9ea-f3b4ad4ad678","A3648FD0E9B24E6CBEA9A7BD38955AE3-2025-08-28-03-06-55","","2519","","images/causal_sequence/the_performance_causal/the_performance_causal_7.png","0","",""
"","","","","","image-button-response","100","942448","0.0-14.0-1.0-2.3","A3648FD0E9B24E6CBEA9A7BD38955AE3","A3648FD0E9B24E6CBEA9A7BD38955AE3","0198ee69-f030-7330-b5ac-450dcc8cb518","0198ee3c-27ac-7803-a9ea-f3b4ad4ad678","{""num_scrambled_semantic"":""8"",""num_scrambled_causal"":""4"",""num_scrambled_schematic"":""4"",""participantId"":""A3648FD0E9B24E6CBEA9A7BD38955AE3"",""assignmentId"":""0198ee69-f030-7330-b5ac-450dcc8cb518"",""projectId"":""0198ee3c-27ac-7803-a9ea-f3b4ad4ad678""}","https://test12345.live/?num_scrambled_semantic=8&num_scrambled_causal=4&num_scrambled_schematic=4&participantId=A3648FD0E9B24E6CBEA9A7BD38955AE3&assignmentId=0198ee69-f030-7330-b5ac-450dcc8cb518&projectId=0198ee3c-27ac-7803-a9ea-f3b4ad4ad678","A3648FD0E9B24E6CBEA9A7BD38955AE3-2025-08-28-03-06-55","","null","","[]","null","",""
"","","","","","image-button-response","101","946962","0.0-14.0-1.0-0.4","A3648FD0E9B24E6CBEA9A7BD38955AE3","A3648FD0E9B24E6CBEA9A7BD38955AE3","0198ee69-f030-7330-b5ac-450dcc8cb518","0198ee3c-27ac-7803-a9ea-f3b4ad4ad678","{""num_scrambled_semantic"":""8"",""num_scrambled_causal"":""4"",""num_scrambled_schematic"":""4"",""participantId"":""A3648FD0E9B24E6CBEA9A7BD38955AE3"",""assignmentId"":""0198ee69-f030-7330-b5ac-450dcc8cb518"",""projectId"":""0198ee3c-27ac-7803-a9ea-f3b4ad4ad678""}","https://test12345.live/?num_scrambled_semantic=8&num_scrambled_causal=4&num_scrambled_schematic=4&participantId=A3648FD0E9B24E6CBEA9A7BD38955AE3&assignmentId=0198ee69-f030-7330-b5ac-450dcc8cb518&projectId=0198ee3c-27ac-7803-a9ea-f3b4ad4ad678","A3648FD0E9B24E6CBEA9A7BD38955AE3-2025-08-28-03-06-55","","null","","images/causal_sequence/the_performance_causal/the_performance_causal_ten.png","null","",""
"","","","","","image-button-response","102","948021","0.0-14.0-1.0-1.4","A3648FD0E9B24E6CBEA9A7BD38955AE3","A3648FD0E9B24E6CBEA9A7BD38955AE3","0198ee69-f030-7330-b5ac-450dcc8cb518","0198ee3c-27ac-7803-a9ea-f3b4ad4ad678","{""num_scrambled_semantic"":""8"",""num_scrambled_causal"":""4"",""num_scrambled_schematic"":""4"",""participantId"":""A3648FD0E9B24E6CBEA9A7BD38955AE3"",""assignmentId"":""0198ee69-f030-7330-b5ac-450dcc8cb518"",""projectId"":""0198ee3c-27ac-7803-a9ea-f3b4ad4ad678""}","https://test12345.live/?num_scrambled_semantic=8&num_scrambled_causal=4&num_scrambled_schematic=4&participantId=A3648FD0E9B24E6CBEA9A7BD38955AE3&assignmentId=0198ee69-f030-7330-b5ac-450dcc8cb518&projectId=0198ee3c-27ac-7803-a9ea-f3b4ad4ad678","A3648FD0E9B24E6CBEA9A7BD38955AE3-2025-08-28-03-06-55","","1058","","images/causal_sequence/the_performance_causal/the_performance_causal_ten.png","0","",""
"","","","","","image-button-response","103","949837","0.0-14.0-1.0-2.4","A3648FD0E9B24E6CBEA9A7BD38955AE3","A3648FD0E9B24E6CBEA9A7BD38955AE3","0198ee69-f030-7330-b5ac-450dcc8cb518","0198ee3c-27ac-7803-a9ea-f3b4ad4ad678","{""num_scrambled_semantic"":""8"",""num_scrambled_causal"":""4"",""num_scrambled_schematic"":""4"",""participantId"":""A3648FD0E9B24E6CBEA9A7BD38955AE3"",""assignmentId"":""0198ee69-f030-7330-b5ac-450dcc8cb518"",""projectId"":""0198ee3c-27ac-7803-a9ea-f3b4ad4ad678""}","https://test12345.live/?num_scrambled_semantic=8&num_scrambled_causal=4&num_scrambled_schematic=4&participantId=A3648FD0E9B24E6CBEA9A7BD38955AE3&assignmentId=0198ee69-f030-7330-b5ac-450dcc8cb518&projectId=0198ee3c-27ac-7803-a9ea-f3b4ad4ad678","A3648FD0E9B24E6CBEA9A7BD38955AE3-2025-08-28-03-06-55","","null","","[]","null","",""
"","","","","","image-button-response","104","954341","0.0-14.0-1.0-0.5","A3648FD0E9B24E6CBEA9A7BD38955AE3","A3648FD0E9B24E6CBEA9A7BD38955AE3","0198ee69-f030-7330-b5ac-450dcc8cb518","0198ee3c-27ac-7803-a9ea-f3b4ad4ad678","{""num_scrambled_semantic"":""8"",""num_scrambled_causal"":""4"",""num_scrambled_schematic"":""4"",""participantId"":""A3648FD0E9B24E6CBEA9A7BD38955AE3"",""assignmentId"":""0198ee69-f030-7330-b5ac-450dcc8cb518"",""projectId"":""0198ee3c-27ac-7803-a9ea-f3b4ad4ad678""}","https://test12345.live/?num_scrambled_semantic=8&num_scrambled_causal=4&num_scrambled_schematic=4&participantId=A3648FD0E9B24E6CBEA9A7BD38955AE3&assignmentId=0198ee69-f030-7330-b5ac-450dcc8cb518&projectId=0198ee3c-27ac-7803-a9ea-f3b4ad4ad678","A3648FD0E9B24E6CBEA9A7BD38955AE3-2025-08-28-03-06-55","","null","","images/causal_sequence/the_performance_causal/the_performance_causal_4.png","null","",""
"","","","","","image-button-response","105","956125","0.0-14.0-1.0-1.5","A3648FD0E9B24E6CBEA9A7BD38955AE3","A3648FD0E9B24E6CBEA9A7BD38955AE3","0198ee69-f030-7330-b5ac-450dcc8cb518","0198ee3c-27ac-7803-a9ea-f3b4ad4ad678","{""num_scrambled_semantic"":""8"",""num_scrambled_causal"":""4"",""num_scrambled_schematic"":""4"",""participantId"":""A3648FD0E9B24E6CBEA9A7BD38955AE3"",""assignmentId"":""0198ee69-f030-7330-b5ac-450dcc8cb518"",""projectId"":""0198ee3c-27ac-7803-a9ea-f3b4ad4ad678""}","https://test12345.live/?num_scrambled_semantic=8&num_scrambled_causal=4&num_scrambled_schematic=4&participantId=A3648FD0E9B24E6CBEA9A7BD38955AE3&assignmentId=0198ee69-f030-7330-b5ac-450dcc8cb518&projectId=0198ee3c-27ac-7803-a9ea-f3b4ad4ad678","A3648FD0E9B24E6CBEA9A7BD38955AE3-2025-08-28-03-06-55","","1783","","images/causal_sequence/the_performance_causal/the_performance_causal_4.png","0","",""
"","","","","","image-button-response","106","957937","0.0-14.0-1.0-2.5","A3648FD0E9B24E6CBEA9A7BD38955AE3","A3648FD0E9B24E6CBEA9A7BD38955AE3","0198ee69-f030-7330-b5ac-450dcc8cb518","0198ee3c-27ac-7803-a9ea-f3b4ad4ad678","{""num_scrambled_semantic"":""8"",""num_scrambled_causal"":""4"",""num_scrambled_schematic"":""4"",""participantId"":""A3648FD0E9B24E6CBEA9A7BD38955AE3"",""assignmentId"":""0198ee69-f030-7330-b5ac-450dcc8cb518"",""projectId"":""0198ee3c-27ac-7803-a9ea-f3b4ad4ad678""}","https://test12345.live/?num_scrambled_semantic=8&num_scrambled_causal=4&num_scrambled_schematic=4&participantId=A3648FD0E9B24E6CBEA9A7BD38955AE3&assignmentId=0198ee69-f030-7330-b5ac-450dcc8cb518&projectId=0198ee3c-27ac-7803-a9ea-f3b4ad4ad678","A3648FD0E9B24E6CBEA9A7BD38955AE3-2025-08-28-03-06-55","","null","","[]","null","",""
"","","","","","image-button-response","107","962447","0.0-14.0-1.0-0.6","A3648FD0E9B24E6CBEA9A7BD38955AE3","A3648FD0E9B24E6CBEA9A7BD38955AE3","0198ee69-f030-7330-b5ac-450dcc8cb518","0198ee3c-27ac-7803-a9ea-f3b4ad4ad678","{""num_scrambled_semantic"":""8"",""num_scrambled_causal"":""4"",""num_scrambled_schematic"":""4"",""participantId"":""A3648FD0E9B24E6CBEA9A7BD38955AE3"",""assignmentId"":""0198ee69-f030-7330-b5ac-450dcc8cb518"",""projectId"":""0198ee3c-27ac-7803-a9ea-f3b4ad4ad678""}","https://test12345.live/?num_scrambled_semantic=8&num_scrambled_causal=4&num_scrambled_schematic=4&participantId=A3648FD0E9B24E6CBEA9A7BD38955AE3&assignmentId=0198ee69-f030-7330-b5ac-450dcc8cb518&projectId=0198ee3c-27ac-7803-a9ea-f3b4ad4ad678","A3648FD0E9B24E6CBEA9A7BD38955AE3-2025-08-28-03-06-55","","null","","images/causal_sequence/the_performance_causal/the_performance_causal_3.png","null","",""
"","","","","","image-button-response","108","964220","0.0-14.0-1.0-1.6","A3648FD0E9B24E6CBEA9A7BD38955AE3","A3648FD0E9B24E6CBEA9A7BD38955AE3","0198ee69-f030-7330-b5ac-450dcc8cb518","0198ee3c-27ac-7803-a9ea-f3b4ad4ad678","{""num_scrambled_semantic"":""8"",""num_scrambled_causal"":""4"",""num_scrambled_schematic"":""4"",""participantId"":""A3648FD0E9B24E6CBEA9A7BD38955AE3"",""assignmentId"":""0198ee69-f030-7330-b5ac-450dcc8cb518"",""projectId"":""0198ee3c-27ac-7803-a9ea-f3b4ad4ad678""}","https://test12345.live/?num_scrambled_semantic=8&num_scrambled_causal=4&num_scrambled_schematic=4&participantId=A3648FD0E9B24E6CBEA9A7BD38955AE3&assignmentId=0198ee69-f030-7330-b5ac-450dcc8cb518&projectId=0198ee3c-27ac-7803-a9ea-f3b4ad4ad678","A3648FD0E9B24E6CBEA9A7BD38955AE3-2025-08-28-03-06-55","","1771","","images/causal_sequence/the_performance_causal/the_performance_causal_3.png","0","",""
"","","","","","image-button-response","109","966027","0.0-14.0-1.0-2.6","A3648FD0E9B24E6CBEA9A7BD38955AE3","A3648FD0E9B24E6CBEA9A7BD38955AE3","0198ee69-f030-7330-b5ac-450dcc8cb518","0198ee3c-27ac-7803-a9ea-f3b4ad4ad678","{""num_scrambled_semantic"":""8"",""num_scrambled_causal"":""4"",""num_scrambled_schematic"":""4"",""participantId"":""A3648FD0E9B24E6CBEA9A7BD38955AE3"",""assignmentId"":""0198ee69-f030-7330-b5ac-450dcc8cb518"",""projectId"":""0198ee3c-27ac-7803-a9ea-f3b4ad4ad678""}","https://test12345.live/?num_scrambled_semantic=8&num_scrambled_causal=4&num_scrambled_schematic=4&participantId=A3648FD0E9B24E6CBEA9A7BD38955AE3&assignmentId=0198ee69-f030-7330-b5ac-450dcc8cb518&projectId=0198ee3c-27ac-7803-a9ea-f3b4ad4ad678","A3648FD0E9B24E6CBEA9A7BD38955AE3-2025-08-28-03-06-55","","null","","[]","null","",""
"","","","","","image-button-response","110","970530","0.0-14.0-1.0-0.7","A3648FD0E9B24E6CBEA9A7BD38955AE3","A3648FD0E9B24E6CBEA9A7BD38955AE3","0198ee69-f030-7330-b5ac-450dcc8cb518","0198ee3c-27ac-7803-a9ea-f3b4ad4ad678","{""num_scrambled_semantic"":""8"",""num_scrambled_causal"":""4"",""num_scrambled_schematic"":""4"",""participantId"":""A3648FD0E9B24E6CBEA9A7BD38955AE3"",""assignmentId"":""0198ee69-f030-7330-b5ac-450dcc8cb518"",""projectId"":""0198ee3c-27ac-7803-a9ea-f3b4ad4ad678""}","https://test12345.live/?num_scrambled_semantic=8&num_scrambled_causal=4&num_scrambled_schematic=4&participantId=A3648FD0E9B24E6CBEA9A7BD38955AE3&assignmentId=0198ee69-f030-7330-b5ac-450dcc8cb518&projectId=0198ee3c-27ac-7803-a9ea-f3b4ad4ad678","A3648FD0E9B24E6CBEA9A7BD38955AE3-2025-08-28-03-06-55","","null","","images/causal_sequence/the_performance_causal/the_performance_causal_1.png","null","",""
"","","","","","image-button-response","111","971739","0.0-14.0-1.0-1.7","A3648FD0E9B24E6CBEA9A7BD38955AE3","A3648FD0E9B24E6CBEA9A7BD38955AE3","0198ee69-f030-7330-b5ac-450dcc8cb518","0198ee3c-27ac-7803-a9ea-f3b4ad4ad678","{""num_scrambled_semantic"":""8"",""num_scrambled_causal"":""4"",""num_scrambled_schematic"":""4"",""participantId"":""A3648FD0E9B24E6CBEA9A7BD38955AE3"",""assignmentId"":""0198ee69-f030-7330-b5ac-450dcc8cb518"",""projectId"":""0198ee3c-27ac-7803-a9ea-f3b4ad4ad678""}","https://test12345.live/?num_scrambled_semantic=8&num_scrambled_causal=4&num_scrambled_schematic=4&participantId=A3648FD0E9B24E6CBEA9A7BD38955AE3&assignmentId=0198ee69-f030-7330-b5ac-450dcc8cb518&projectId=0198ee3c-27ac-7803-a9ea-f3b4ad4ad678","A3648FD0E9B24E6CBEA9A7BD38955AE3-2025-08-28-03-06-55","","1204","","images/causal_sequence/the_performance_causal/the_performance_causal_1.png","0","",""
"","","","","","image-button-response","112","973541","0.0-14.0-1.0-2.7","A3648FD0E9B24E6CBEA9A7BD38955AE3","A3648FD0E9B24E6CBEA9A7BD38955AE3","0198ee69-f030-7330-b5ac-450dcc8cb518","0198ee3c-27ac-7803-a9ea-f3b4ad4ad678","{""num_scrambled_semantic"":""8"",""num_scrambled_causal"":""4"",""num_scrambled_schematic"":""4"",""participantId"":""A3648FD0E9B24E6CBEA9A7BD38955AE3"",""assignmentId"":""0198ee69-f030-7330-b5ac-450dcc8cb518"",""projectId"":""0198ee3c-27ac-7803-a9ea-f3b4ad4ad678""}","https://test12345.live/?num_scrambled_semantic=8&num_scrambled_causal=4&num_scrambled_schematic=4&participantId=A3648FD0E9B24E6CBEA9A7BD38955AE3&assignmentId=0198ee69-f030-7330-b5ac-450dcc8cb518&projectId=0198ee3c-27ac-7803-a9ea-f3b4ad4ad678","A3648FD0E9B24E6CBEA9A7BD38955AE3-2025-08-28-03-06-55","","null","","[]","null","",""
"","","","","","image-button-response","113","978042","0.0-14.0-1.0-0.8","A3648FD0E9B24E6CBEA9A7BD38955AE3","A3648FD0E9B24E6CBEA9A7BD38955AE3","0198ee69-f030-7330-b5ac-450dcc8cb518","0198ee3c-27ac-7803-a9ea-f3b4ad4ad678","{""num_scrambled_semantic"":""8"",""num_scrambled_causal"":""4"",""num_scrambled_schematic"":""4"",""participantId"":""A3648FD0E9B24E6CBEA9A7BD38955AE3"",""assignmentId"":""0198ee69-f030-7330-b5ac-450dcc8cb518"",""projectId"":""0198ee3c-27ac-7803-a9ea-f3b4ad4ad678""}","https://test12345.live/?num_scrambled_semantic=8&num_scrambled_causal=4&num_scrambled_schematic=4&participantId=A3648FD0E9B24E6CBEA9A7BD38955AE3&assignmentId=0198ee69-f030-7330-b5ac-450dcc8cb518&projectId=0198ee3c-27ac-7803-a9ea-f3b4ad4ad678","A3648FD0E9B24E6CBEA9A7BD38955AE3-2025-08-28-03-06-55","","null","","images/causal_sequence/the_performance_causal/the_performance_causal_5.png","null","",""
