"success","timeout","failed_images","failed_audio","failed_video","trial_type","trial_index","time_elapsed","internal_node_id","subject","subject_id","study_id","session_id","urlvar","current_url","audio_id","view_history","rt","device_id","stimulus","response","estimated_stimulus_onset","seq_name"
"true","false","[]","[]","[]","preload","0","58171","0.0-0.0","A4B0360D515C40C1BB31545581FC1E08","A4B0360D515C40C1BB31545581FC1E08","97f029b0-93e3-4b17-b5a8-e4453b835cb8","9076ac92-be42-43a2-9634-8b67c7fe93a7","{""num_scrambled_semantic"":""8"",""num_scrambled_causal"":""4"",""num_scrambled_schematic"":""4"",""participantId"":""A4B0360D515C40C1BB31545581FC1E08"",""assignmentId"":""97f029b0-93e3-4b17-b5a8-e4453b835cb8"",""projectId"":""9076ac92-be42-43a2-9634-8b67c7fe93a7""}","https://test12345.live/?num_scrambled_semantic=8&num_scrambled_causal=4&num_scrambled_schematic=4&participantId=A4B0360D515C40C1BB31545581FC1E08&assignmentId=97f029b0-93e3-4b17-b5a8-e4453b835cb8&projectId=9076ac92-be42-43a2-9634-8b67c7fe93a7","A4B0360D515C40C1BB31545581FC1E08-2025-05-22-20-04-06","","","","","","",""
"","","","","","instructions","1","1794396","0.0-1.0","A4B0360D515C40C1BB31545581FC1E08","A4B0360D515C40C1BB31545581FC1E08","97f029b0-93e3-4b17-b5a8-e4453b835cb8","9076ac92-be42-43a2-9634-8b67c7fe93a7","{""num_scrambled_semantic"":""8"",""num_scrambled_causal"":""4"",""num_scrambled_schematic"":""4"",""participantId"":""A4B0360D515C40C1BB31545581FC1E08"",""assignmentId"":""97f029b0-93e3-4b17-b5a8-e4453b835cb8"",""projectId"":""9076ac92-be42-43a2-9634-8b67c7fe93a7""}","https://test12345.live/?num_scrambled_semantic=8&num_scrambled_causal=4&num_scrambled_schematic=4&participantId=A4B0360D515C40C1BB31545581FC1E08&assignmentId=97f029b0-93e3-4b17-b5a8-e4453b835cb8&projectId=9076ac92-be42-43a2-9634-8b67c7fe93a7","A4B0360D515C40C1BB31545581FC1E08-2025-05-22-20-04-06","[{""page_index"":0,""viewing_time"":1736223}]","1736224","","","","",""
"","","","","","instructions","2","1803733","0.0-2.0","A4B0360D515C40C1BB31545581FC1E08","A4B0360D515C40C1BB31545581FC1E08","97f029b0-93e3-4b17-b5a8-e4453b835cb8","9076ac92-be42-43a2-9634-8b67c7fe93a7","{""num_scrambled_semantic"":""8"",""num_scrambled_causal"":""4"",""num_scrambled_schematic"":""4"",""participantId"":""A4B0360D515C40C1BB31545581FC1E08"",""assignmentId"":""97f029b0-93e3-4b17-b5a8-e4453b835cb8"",""projectId"":""9076ac92-be42-43a2-9634-8b67c7fe93a7""}","https://test12345.live/?num_scrambled_semantic=8&num_scrambled_causal=4&num_scrambled_schematic=4&participantId=A4B0360D515C40C1BB31545581FC1E08&assignmentId=97f029b0-93e3-4b17-b5a8-e4453b835cb8&projectId=9076ac92-be42-43a2-9634-8b67c7fe93a7","A4B0360D515C40C1BB31545581FC1E08-2025-05-22-20-04-06","[{""page_index"":0,""viewing_time"":9335}]","9336","","","","",""
"true","","","","","fullscreen","3","1806912","0.0-3.0","A4B0360D515C40C1BB31545581FC1E08","A4B0360D515C40C1BB31545581FC1E08","97f029b0-93e3-4b17-b5a8-e4453b835cb8","9076ac92-be42-43a2-9634-8b67c7fe93a7","{""num_scrambled_semantic"":""8"",""num_scrambled_causal"":""4"",""num_scrambled_schematic"":""4"",""participantId"":""A4B0360D515C40C1BB31545581FC1E08"",""assignmentId"":""97f029b0-93e3-4b17-b5a8-e4453b835cb8"",""projectId"":""9076ac92-be42-43a2-9634-8b67c7fe93a7""}","https://test12345.live/?num_scrambled_semantic=8&num_scrambled_causal=4&num_scrambled_schematic=4&participantId=A4B0360D515C40C1BB31545581FC1E08&assignmentId=97f029b0-93e3-4b17-b5a8-e4453b835cb8&projectId=9076ac92-be42-43a2-9634-8b67c7fe93a7","A4B0360D515C40C1BB31545581FC1E08-2025-05-22-20-04-06","","2163","","","","",""
"","","","","","initialize-microphone","4","1819860","0.0-4.0-0.0","A4B0360D515C40C1BB31545581FC1E08","A4B0360D515C40C1BB31545581FC1E08","97f029b0-93e3-4b17-b5a8-e4453b835cb8","9076ac92-be42-43a2-9634-8b67c7fe93a7","{""num_scrambled_semantic"":""8"",""num_scrambled_causal"":""4"",""num_scrambled_schematic"":""4"",""participantId"":""A4B0360D515C40C1BB31545581FC1E08"",""assignmentId"":""97f029b0-93e3-4b17-b5a8-e4453b835cb8"",""projectId"":""9076ac92-be42-43a2-9634-8b67c7fe93a7""}","https://test12345.live/?num_scrambled_semantic=8&num_scrambled_causal=4&num_scrambled_schematic=4&participantId=A4B0360D515C40C1BB31545581FC1E08&assignmentId=97f029b0-93e3-4b17-b5a8-e4453b835cb8&projectId=9076ac92-be42-43a2-9634-8b67c7fe93a7","A4B0360D515C40C1BB31545581FC1E08-2025-05-22-20-04-06","","","3e7afbaa9bc8ede9186e39e5d837b800f0a28e6fb76587db251646a5b7933d24","","","",""
"","","","","","html-audio-response","5","1873882","0.0-4.0-1.0","A4B0360D515C40C1BB31545581FC1E08","A4B0360D515C40C1BB31545581FC1E08","97f029b0-93e3-4b17-b5a8-e4453b835cb8","9076ac92-be42-43a2-9634-8b67c7fe93a7","{""num_scrambled_semantic"":""8"",""num_scrambled_causal"":""4"",""num_scrambled_schematic"":""4"",""participantId"":""A4B0360D515C40C1BB31545581FC1E08"",""assignmentId"":""97f029b0-93e3-4b17-b5a8-e4453b835cb8"",""projectId"":""9076ac92-be42-43a2-9634-8b67c7fe93a7""}","https://test12345.live/?num_scrambled_semantic=8&num_scrambled_causal=4&num_scrambled_schematic=4&participantId=A4B0360D515C40C1BB31545581FC1E08&assignmentId=97f029b0-93e3-4b17-b5a8-e4453b835cb8&projectId=9076ac92-be42-43a2-9634-8b67c7fe93a7","A4B0360D515C40C1BB31545581FC1E08-2025-05-22-20-04-06","","7423","","<span style=""color: red; font-size: 24px""> NOW RECORDING</span>
        <p>Please test Microphone</p>","","4",""
"","","","","","html-button-response","6","1877292","0.0-4.0-2.0","A4B0360D515C40C1BB31545581FC1E08","A4B0360D515C40C1BB31545581FC1E08","97f029b0-93e3-4b17-b5a8-e4453b835cb8","9076ac92-be42-43a2-9634-8b67c7fe93a7","{""num_scrambled_semantic"":""8"",""num_scrambled_causal"":""4"",""num_scrambled_schematic"":""4"",""participantId"":""A4B0360D515C40C1BB31545581FC1E08"",""assignmentId"":""97f029b0-93e3-4b17-b5a8-e4453b835cb8"",""projectId"":""9076ac92-be42-43a2-9634-8b67c7fe93a7""}","https://test12345.live/?num_scrambled_semantic=8&num_scrambled_causal=4&num_scrambled_schematic=4&participantId=A4B0360D515C40C1BB31545581FC1E08&assignmentId=97f029b0-93e3-4b17-b5a8-e4453b835cb8&projectId=9076ac92-be42-43a2-9634-8b67c7fe93a7","A4B0360D515C40C1BB31545581FC1E08-2025-05-22-20-04-06","","3407","","<p style=""font-size:48px; color:red;"">Is Microphone OK?</p>","1","",""
"","","","","","instructions","7","1896095","0.0-5.0","A4B0360D515C40C1BB31545581FC1E08","A4B0360D515C40C1BB31545581FC1E08","97f029b0-93e3-4b17-b5a8-e4453b835cb8","9076ac92-be42-43a2-9634-8b67c7fe93a7","{""num_scrambled_semantic"":""8"",""num_scrambled_causal"":""4"",""num_scrambled_schematic"":""4"",""participantId"":""A4B0360D515C40C1BB31545581FC1E08"",""assignmentId"":""97f029b0-93e3-4b17-b5a8-e4453b835cb8"",""projectId"":""9076ac92-be42-43a2-9634-8b67c7fe93a7""}","https://test12345.live/?num_scrambled_semantic=8&num_scrambled_causal=4&num_scrambled_schematic=4&participantId=A4B0360D515C40C1BB31545581FC1E08&assignmentId=97f029b0-93e3-4b17-b5a8-e4453b835cb8&projectId=9076ac92-be42-43a2-9634-8b67c7fe93a7","A4B0360D515C40C1BB31545581FC1E08-2025-05-22-20-04-06","[{""page_index"":0,""viewing_time"":7163},{""page_index"":1,""viewing_time"":11639}]","18803","","","","",""
"","","","","","image-button-response","8","1902109","0.0-6.0-0.0","A4B0360D515C40C1BB31545581FC1E08","A4B0360D515C40C1BB31545581FC1E08","97f029b0-93e3-4b17-b5a8-e4453b835cb8","9076ac92-be42-43a2-9634-8b67c7fe93a7","{""num_scrambled_semantic"":""8"",""num_scrambled_causal"":""4"",""num_scrambled_schematic"":""4"",""participantId"":""A4B0360D515C40C1BB31545581FC1E08"",""assignmentId"":""97f029b0-93e3-4b17-b5a8-e4453b835cb8"",""projectId"":""9076ac92-be42-43a2-9634-8b67c7fe93a7""}","https://test12345.live/?num_scrambled_semantic=8&num_scrambled_causal=4&num_scrambled_schematic=4&participantId=A4B0360D515C40C1BB31545581FC1E08&assignmentId=97f029b0-93e3-4b17-b5a8-e4453b835cb8&projectId=9076ac92-be42-43a2-9634-8b67c7fe93a7","A4B0360D515C40C1BB31545581FC1E08-2025-05-22-20-04-06","","null","","images/instructions/movie_0.png","null","",""
"","","","","","image-button-response","9","1906614","0.0-6.0-1.0-0.0","A4B0360D515C40C1BB31545581FC1E08","A4B0360D515C40C1BB31545581FC1E08","97f029b0-93e3-4b17-b5a8-e4453b835cb8","9076ac92-be42-43a2-9634-8b67c7fe93a7","{""num_scrambled_semantic"":""8"",""num_scrambled_causal"":""4"",""num_scrambled_schematic"":""4"",""participantId"":""A4B0360D515C40C1BB31545581FC1E08"",""assignmentId"":""97f029b0-93e3-4b17-b5a8-e4453b835cb8"",""projectId"":""9076ac92-be42-43a2-9634-8b67c7fe93a7""}","https://test12345.live/?num_scrambled_semantic=8&num_scrambled_causal=4&num_scrambled_schematic=4&participantId=A4B0360D515C40C1BB31545581FC1E08&assignmentId=97f029b0-93e3-4b17-b5a8-e4453b835cb8&projectId=9076ac92-be42-43a2-9634-8b67c7fe93a7","A4B0360D515C40C1BB31545581FC1E08-2025-05-22-20-04-06","","null","","images/instructions/movie_1.png","null","",""
"","","","","","image-button-response","10","1910330","0.0-6.0-1.0-1.0","A4B0360D515C40C1BB31545581FC1E08","A4B0360D515C40C1BB31545581FC1E08","97f029b0-93e3-4b17-b5a8-e4453b835cb8","9076ac92-be42-43a2-9634-8b67c7fe93a7","{""num_scrambled_semantic"":""8"",""num_scrambled_causal"":""4"",""num_scrambled_schematic"":""4"",""participantId"":""A4B0360D515C40C1BB31545581FC1E08"",""assignmentId"":""97f029b0-93e3-4b17-b5a8-e4453b835cb8"",""projectId"":""9076ac92-be42-43a2-9634-8b67c7fe93a7""}","https://test12345.live/?num_scrambled_semantic=8&num_scrambled_causal=4&num_scrambled_schematic=4&participantId=A4B0360D515C40C1BB31545581FC1E08&assignmentId=97f029b0-93e3-4b17-b5a8-e4453b835cb8&projectId=9076ac92-be42-43a2-9634-8b67c7fe93a7","A4B0360D515C40C1BB31545581FC1E08-2025-05-22-20-04-06","","3714","","images/instructions/movie_1.png","0","",""
"","","","","","image-button-response","11","1912141","0.0-6.0-1.0-2.0","A4B0360D515C40C1BB31545581FC1E08","A4B0360D515C40C1BB31545581FC1E08","97f029b0-93e3-4b17-b5a8-e4453b835cb8","9076ac92-be42-43a2-9634-8b67c7fe93a7","{""num_scrambled_semantic"":""8"",""num_scrambled_causal"":""4"",""num_scrambled_schematic"":""4"",""participantId"":""A4B0360D515C40C1BB31545581FC1E08"",""assignmentId"":""97f029b0-93e3-4b17-b5a8-e4453b835cb8"",""projectId"":""9076ac92-be42-43a2-9634-8b67c7fe93a7""}","https://test12345.live/?num_scrambled_semantic=8&num_scrambled_causal=4&num_scrambled_schematic=4&participantId=A4B0360D515C40C1BB31545581FC1E08&assignmentId=97f029b0-93e3-4b17-b5a8-e4453b835cb8&projectId=9076ac92-be42-43a2-9634-8b67c7fe93a7","A4B0360D515C40C1BB31545581FC1E08-2025-05-22-20-04-06","","null","","[]","null","",""
"","","","","","image-button-response","12","1916652","0.0-6.0-1.0-0.1","A4B0360D515C40C1BB31545581FC1E08","A4B0360D515C40C1BB31545581FC1E08","97f029b0-93e3-4b17-b5a8-e4453b835cb8","9076ac92-be42-43a2-9634-8b67c7fe93a7","{""num_scrambled_semantic"":""8"",""num_scrambled_causal"":""4"",""num_scrambled_schematic"":""4"",""participantId"":""A4B0360D515C40C1BB31545581FC1E08"",""assignmentId"":""97f029b0-93e3-4b17-b5a8-e4453b835cb8"",""projectId"":""9076ac92-be42-43a2-9634-8b67c7fe93a7""}","https://test12345.live/?num_scrambled_semantic=8&num_scrambled_causal=4&num_scrambled_schematic=4&participantId=A4B0360D515C40C1BB31545581FC1E08&assignmentId=97f029b0-93e3-4b17-b5a8-e4453b835cb8&projectId=9076ac92-be42-43a2-9634-8b67c7fe93a7","A4B0360D515C40C1BB31545581FC1E08-2025-05-22-20-04-06","","null","","images/instructions/movie_2.png","null","",""
"","","","","","image-button-response","13","1918669","0.0-6.0-1.0-1.1","A4B0360D515C40C1BB31545581FC1E08","A4B0360D515C40C1BB31545581FC1E08","97f029b0-93e3-4b17-b5a8-e4453b835cb8","9076ac92-be42-43a2-9634-8b67c7fe93a7","{""num_scrambled_semantic"":""8"",""num_scrambled_causal"":""4"",""num_scrambled_schematic"":""4"",""participantId"":""A4B0360D515C40C1BB31545581FC1E08"",""assignmentId"":""97f029b0-93e3-4b17-b5a8-e4453b835cb8"",""projectId"":""9076ac92-be42-43a2-9634-8b67c7fe93a7""}","https://test12345.live/?num_scrambled_semantic=8&num_scrambled_causal=4&num_scrambled_schematic=4&participantId=A4B0360D515C40C1BB31545581FC1E08&assignmentId=97f029b0-93e3-4b17-b5a8-e4453b835cb8&projectId=9076ac92-be42-43a2-9634-8b67c7fe93a7","A4B0360D515C40C1BB31545581FC1E08-2025-05-22-20-04-06","","2015","","images/instructions/movie_2.png","1","",""
"","","","","","image-button-response","14","1920483","0.0-6.0-1.0-2.1","A4B0360D515C40C1BB31545581FC1E08","A4B0360D515C40C1BB31545581FC1E08","97f029b0-93e3-4b17-b5a8-e4453b835cb8","9076ac92-be42-43a2-9634-8b67c7fe93a7","{""num_scrambled_semantic"":""8"",""num_scrambled_causal"":""4"",""num_scrambled_schematic"":""4"",""participantId"":""A4B0360D515C40C1BB31545581FC1E08"",""assignmentId"":""97f029b0-93e3-4b17-b5a8-e4453b835cb8"",""projectId"":""9076ac92-be42-43a2-9634-8b67c7fe93a7""}","https://test12345.live/?num_scrambled_semantic=8&num_scrambled_causal=4&num_scrambled_schematic=4&participantId=A4B0360D515C40C1BB31545581FC1E08&assignmentId=97f029b0-93e3-4b17-b5a8-e4453b835cb8&projectId=9076ac92-be42-43a2-9634-8b67c7fe93a7","A4B0360D515C40C1BB31545581FC1E08-2025-05-22-20-04-06","","null","","[]","null","",""
"","","","","","image-button-response","15","1924995","0.0-6.0-1.0-0.2","A4B0360D515C40C1BB31545581FC1E08","A4B0360D515C40C1BB31545581FC1E08","97f029b0-93e3-4b17-b5a8-e4453b835cb8","9076ac92-be42-43a2-9634-8b67c7fe93a7","{""num_scrambled_semantic"":""8"",""num_scrambled_causal"":""4"",""num_scrambled_schematic"":""4"",""participantId"":""A4B0360D515C40C1BB31545581FC1E08"",""assignmentId"":""97f029b0-93e3-4b17-b5a8-e4453b835cb8"",""projectId"":""9076ac92-be42-43a2-9634-8b67c7fe93a7""}","https://test12345.live/?num_scrambled_semantic=8&num_scrambled_causal=4&num_scrambled_schematic=4&participantId=A4B0360D515C40C1BB31545581FC1E08&assignmentId=97f029b0-93e3-4b17-b5a8-e4453b835cb8&projectId=9076ac92-be42-43a2-9634-8b67c7fe93a7","A4B0360D515C40C1BB31545581FC1E08-2025-05-22-20-04-06","","null","","images/instructions/movie_3.png","null","",""
"","","","","","image-button-response","16","1926301","0.0-6.0-1.0-1.2","A4B0360D515C40C1BB31545581FC1E08","A4B0360D515C40C1BB31545581FC1E08","97f029b0-93e3-4b17-b5a8-e4453b835cb8","9076ac92-be42-43a2-9634-8b67c7fe93a7","{""num_scrambled_semantic"":""8"",""num_scrambled_causal"":""4"",""num_scrambled_schematic"":""4"",""participantId"":""A4B0360D515C40C1BB31545581FC1E08"",""assignmentId"":""97f029b0-93e3-4b17-b5a8-e4453b835cb8"",""projectId"":""9076ac92-be42-43a2-9634-8b67c7fe93a7""}","https://test12345.live/?num_scrambled_semantic=8&num_scrambled_causal=4&num_scrambled_schematic=4&participantId=A4B0360D515C40C1BB31545581FC1E08&assignmentId=97f029b0-93e3-4b17-b5a8-e4453b835cb8&projectId=9076ac92-be42-43a2-9634-8b67c7fe93a7","A4B0360D515C40C1BB31545581FC1E08-2025-05-22-20-04-06","","1304","","images/instructions/movie_3.png","0","",""
"","","","","","image-button-response","17","1928106","0.0-6.0-1.0-2.2","A4B0360D515C40C1BB31545581FC1E08","A4B0360D515C40C1BB31545581FC1E08","97f029b0-93e3-4b17-b5a8-e4453b835cb8","9076ac92-be42-43a2-9634-8b67c7fe93a7","{""num_scrambled_semantic"":""8"",""num_scrambled_causal"":""4"",""num_scrambled_schematic"":""4"",""participantId"":""A4B0360D515C40C1BB31545581FC1E08"",""assignmentId"":""97f029b0-93e3-4b17-b5a8-e4453b835cb8"",""projectId"":""9076ac92-be42-43a2-9634-8b67c7fe93a7""}","https://test12345.live/?num_scrambled_semantic=8&num_scrambled_causal=4&num_scrambled_schematic=4&participantId=A4B0360D515C40C1BB31545581FC1E08&assignmentId=97f029b0-93e3-4b17-b5a8-e4453b835cb8&projectId=9076ac92-be42-43a2-9634-8b67c7fe93a7","A4B0360D515C40C1BB31545581FC1E08-2025-05-22-20-04-06","","null","","[]","null","",""
"","","","","","image-button-response","18","1932623","0.0-6.0-1.0-0.3","A4B0360D515C40C1BB31545581FC1E08","A4B0360D515C40C1BB31545581FC1E08","97f029b0-93e3-4b17-b5a8-e4453b835cb8","9076ac92-be42-43a2-9634-8b67c7fe93a7","{""num_scrambled_semantic"":""8"",""num_scrambled_causal"":""4"",""num_scrambled_schematic"":""4"",""participantId"":""A4B0360D515C40C1BB31545581FC1E08"",""assignmentId"":""97f029b0-93e3-4b17-b5a8-e4453b835cb8"",""projectId"":""9076ac92-be42-43a2-9634-8b67c7fe93a7""}","https://test12345.live/?num_scrambled_semantic=8&num_scrambled_causal=4&num_scrambled_schematic=4&participantId=A4B0360D515C40C1BB31545581FC1E08&assignmentId=97f029b0-93e3-4b17-b5a8-e4453b835cb8&projectId=9076ac92-be42-43a2-9634-8b67c7fe93a7","A4B0360D515C40C1BB31545581FC1E08-2025-05-22-20-04-06","","null","","images/instructions/movie_4.png","null","",""
"","","","","","image-button-response","19","1933905","0.0-6.0-1.0-1.3","A4B0360D515C40C1BB31545581FC1E08","A4B0360D515C40C1BB31545581FC1E08","97f029b0-93e3-4b17-b5a8-e4453b835cb8","9076ac92-be42-43a2-9634-8b67c7fe93a7","{""num_scrambled_semantic"":""8"",""num_scrambled_causal"":""4"",""num_scrambled_schematic"":""4"",""participantId"":""A4B0360D515C40C1BB31545581FC1E08"",""assignmentId"":""97f029b0-93e3-4b17-b5a8-e4453b835cb8"",""projectId"":""9076ac92-be42-43a2-9634-8b67c7fe93a7""}","https://test12345.live/?num_scrambled_semantic=8&num_scrambled_causal=4&num_scrambled_schematic=4&participantId=A4B0360D515C40C1BB31545581FC1E08&assignmentId=97f029b0-93e3-4b17-b5a8-e4453b835cb8&projectId=9076ac92-be42-43a2-9634-8b67c7fe93a7","A4B0360D515C40C1BB31545581FC1E08-2025-05-22-20-04-06","","1281","","images/instructions/movie_4.png","0","",""
"","","","","","image-button-response","20","1935721","0.0-6.0-1.0-2.3","A4B0360D515C40C1BB31545581FC1E08","A4B0360D515C40C1BB31545581FC1E08","97f029b0-93e3-4b17-b5a8-e4453b835cb8","9076ac92-be42-43a2-9634-8b67c7fe93a7","{""num_scrambled_semantic"":""8"",""num_scrambled_causal"":""4"",""num_scrambled_schematic"":""4"",""participantId"":""A4B0360D515C40C1BB31545581FC1E08"",""assignmentId"":""97f029b0-93e3-4b17-b5a8-e4453b835cb8"",""projectId"":""9076ac92-be42-43a2-9634-8b67c7fe93a7""}","https://test12345.live/?num_scrambled_semantic=8&num_scrambled_causal=4&num_scrambled_schematic=4&participantId=A4B0360D515C40C1BB31545581FC1E08&assignmentId=97f029b0-93e3-4b17-b5a8-e4453b835cb8&projectId=9076ac92-be42-43a2-9634-8b67c7fe93a7","A4B0360D515C40C1BB31545581FC1E08-2025-05-22-20-04-06","","null","","[]","null","",""
"","","","","","instructions","21","1971132","0.0-7.0","A4B0360D515C40C1BB31545581FC1E08","A4B0360D515C40C1BB31545581FC1E08","97f029b0-93e3-4b17-b5a8-e4453b835cb8","9076ac92-be42-43a2-9634-8b67c7fe93a7","{""num_scrambled_semantic"":""8"",""num_scrambled_causal"":""4"",""num_scrambled_schematic"":""4"",""participantId"":""A4B0360D515C40C1BB31545581FC1E08"",""assignmentId"":""97f029b0-93e3-4b17-b5a8-e4453b835cb8"",""projectId"":""9076ac92-be42-43a2-9634-8b67c7fe93a7""}","https://test12345.live/?num_scrambled_semantic=8&num_scrambled_causal=4&num_scrambled_schematic=4&participantId=A4B0360D515C40C1BB31545581FC1E08&assignmentId=97f029b0-93e3-4b17-b5a8-e4453b835cb8&projectId=9076ac92-be42-43a2-9634-8b67c7fe93a7","A4B0360D515C40C1BB31545581FC1E08-2025-05-22-20-04-06","[{""page_index"":0,""viewing_time"":33406},{""page_index"":1,""viewing_time"":2003}]","35410","","","","",""
"","","","","","html-audio-response","22","2023235","0.0-8.0","A4B0360D515C40C1BB31545581FC1E08","A4B0360D515C40C1BB31545581FC1E08","97f029b0-93e3-4b17-b5a8-e4453b835cb8","9076ac92-be42-43a2-9634-8b67c7fe93a7","{""num_scrambled_semantic"":""8"",""num_scrambled_causal"":""4"",""num_scrambled_schematic"":""4"",""participantId"":""A4B0360D515C40C1BB31545581FC1E08"",""assignmentId"":""97f029b0-93e3-4b17-b5a8-e4453b835cb8"",""projectId"":""9076ac92-be42-43a2-9634-8b67c7fe93a7""}","https://test12345.live/?num_scrambled_semantic=8&num_scrambled_causal=4&num_scrambled_schematic=4&participantId=A4B0360D515C40C1BB31545581FC1E08&assignmentId=97f029b0-93e3-4b17-b5a8-e4453b835cb8&projectId=9076ac92-be42-43a2-9634-8b67c7fe93a7","A4B0360D515C40C1BB31545581FC1E08-2025-05-22-20-04-06","","13080","","[""<span style=\""color: red; font-size: 24px\""> NOW RECORDING</span><p>Please say out loud all the images you saw in the exact order you saw them. Try to recall as many images as you can, but remember: getting the order right is more important than the number of images you recall.</p>""]","","2",""
"","","","","","instructions","23","2024949","0.0-9.0","A4B0360D515C40C1BB31545581FC1E08","A4B0360D515C40C1BB31545581FC1E08","97f029b0-93e3-4b17-b5a8-e4453b835cb8","9076ac92-be42-43a2-9634-8b67c7fe93a7","{""num_scrambled_semantic"":""8"",""num_scrambled_causal"":""4"",""num_scrambled_schematic"":""4"",""participantId"":""A4B0360D515C40C1BB31545581FC1E08"",""assignmentId"":""97f029b0-93e3-4b17-b5a8-e4453b835cb8"",""projectId"":""9076ac92-be42-43a2-9634-8b67c7fe93a7""}","https://test12345.live/?num_scrambled_semantic=8&num_scrambled_causal=4&num_scrambled_schematic=4&participantId=A4B0360D515C40C1BB31545581FC1E08&assignmentId=97f029b0-93e3-4b17-b5a8-e4453b835cb8&projectId=9076ac92-be42-43a2-9634-8b67c7fe93a7","A4B0360D515C40C1BB31545581FC1E08-2025-05-22-20-04-06","[{""page_index"":0,""viewing_time"":1708}]","1708","","","","",""
"","","","","","image-button-response","24","2030954","0.0-10.0-0.0","A4B0360D515C40C1BB31545581FC1E08","A4B0360D515C40C1BB31545581FC1E08","97f029b0-93e3-4b17-b5a8-e4453b835cb8","9076ac92-be42-43a2-9634-8b67c7fe93a7","{""num_scrambled_semantic"":""8"",""num_scrambled_causal"":""4"",""num_scrambled_schematic"":""4"",""participantId"":""A4B0360D515C40C1BB31545581FC1E08"",""assignmentId"":""97f029b0-93e3-4b17-b5a8-e4453b835cb8"",""projectId"":""9076ac92-be42-43a2-9634-8b67c7fe93a7""}","https://test12345.live/?num_scrambled_semantic=8&num_scrambled_causal=4&num_scrambled_schematic=4&participantId=A4B0360D515C40C1BB31545581FC1E08&assignmentId=97f029b0-93e3-4b17-b5a8-e4453b835cb8&projectId=9076ac92-be42-43a2-9634-8b67c7fe93a7","A4B0360D515C40C1BB31545581FC1E08-2025-05-22-20-04-06","","null","","images/schematic_sequence/flight_scheme/flight_scheme_0.png","null","",""
"","","","","","image-button-response","25","2035470","0.0-10.0-1.0-0.0","A4B0360D515C40C1BB31545581FC1E08","A4B0360D515C40C1BB31545581FC1E08","97f029b0-93e3-4b17-b5a8-e4453b835cb8","9076ac92-be42-43a2-9634-8b67c7fe93a7","{""num_scrambled_semantic"":""8"",""num_scrambled_causal"":""4"",""num_scrambled_schematic"":""4"",""participantId"":""A4B0360D515C40C1BB31545581FC1E08"",""assignmentId"":""97f029b0-93e3-4b17-b5a8-e4453b835cb8"",""projectId"":""9076ac92-be42-43a2-9634-8b67c7fe93a7""}","https://test12345.live/?num_scrambled_semantic=8&num_scrambled_causal=4&num_scrambled_schematic=4&participantId=A4B0360D515C40C1BB31545581FC1E08&assignmentId=97f029b0-93e3-4b17-b5a8-e4453b835cb8&projectId=9076ac92-be42-43a2-9634-8b67c7fe93a7","A4B0360D515C40C1BB31545581FC1E08-2025-05-22-20-04-06","","null","","images/schematic_sequence/flight_scheme/flight_scheme_1.png","null","",""
"","","","","","image-button-response","26","2037558","0.0-10.0-1.0-1.0","A4B0360D515C40C1BB31545581FC1E08","A4B0360D515C40C1BB31545581FC1E08","97f029b0-93e3-4b17-b5a8-e4453b835cb8","9076ac92-be42-43a2-9634-8b67c7fe93a7","{""num_scrambled_semantic"":""8"",""num_scrambled_causal"":""4"",""num_scrambled_schematic"":""4"",""participantId"":""A4B0360D515C40C1BB31545581FC1E08"",""assignmentId"":""97f029b0-93e3-4b17-b5a8-e4453b835cb8"",""projectId"":""9076ac92-be42-43a2-9634-8b67c7fe93a7""}","https://test12345.live/?num_scrambled_semantic=8&num_scrambled_causal=4&num_scrambled_schematic=4&participantId=A4B0360D515C40C1BB31545581FC1E08&assignmentId=97f029b0-93e3-4b17-b5a8-e4453b835cb8&projectId=9076ac92-be42-43a2-9634-8b67c7fe93a7","A4B0360D515C40C1BB31545581FC1E08-2025-05-22-20-04-06","","2087","","images/schematic_sequence/flight_scheme/flight_scheme_1.png","0","",""
"","","","","","image-button-response","27","2039369","0.0-10.0-1.0-2.0","A4B0360D515C40C1BB31545581FC1E08","A4B0360D515C40C1BB31545581FC1E08","97f029b0-93e3-4b17-b5a8-e4453b835cb8","9076ac92-be42-43a2-9634-8b67c7fe93a7","{""num_scrambled_semantic"":""8"",""num_scrambled_causal"":""4"",""num_scrambled_schematic"":""4"",""participantId"":""A4B0360D515C40C1BB31545581FC1E08"",""assignmentId"":""97f029b0-93e3-4b17-b5a8-e4453b835cb8"",""projectId"":""9076ac92-be42-43a2-9634-8b67c7fe93a7""}","https://test12345.live/?num_scrambled_semantic=8&num_scrambled_causal=4&num_scrambled_schematic=4&participantId=A4B0360D515C40C1BB31545581FC1E08&assignmentId=97f029b0-93e3-4b17-b5a8-e4453b835cb8&projectId=9076ac92-be42-43a2-9634-8b67c7fe93a7","A4B0360D515C40C1BB31545581FC1E08-2025-05-22-20-04-06","","null","","[]","null","",""
"","","","","","image-button-response","28","2043872","0.0-10.0-1.0-0.1","A4B0360D515C40C1BB31545581FC1E08","A4B0360D515C40C1BB31545581FC1E08","97f029b0-93e3-4b17-b5a8-e4453b835cb8","9076ac92-be42-43a2-9634-8b67c7fe93a7","{""num_scrambled_semantic"":""8"",""num_scrambled_causal"":""4"",""num_scrambled_schematic"":""4"",""participantId"":""A4B0360D515C40C1BB31545581FC1E08"",""assignmentId"":""97f029b0-93e3-4b17-b5a8-e4453b835cb8"",""projectId"":""9076ac92-be42-43a2-9634-8b67c7fe93a7""}","https://test12345.live/?num_scrambled_semantic=8&num_scrambled_causal=4&num_scrambled_schematic=4&participantId=A4B0360D515C40C1BB31545581FC1E08&assignmentId=97f029b0-93e3-4b17-b5a8-e4453b835cb8&projectId=9076ac92-be42-43a2-9634-8b67c7fe93a7","A4B0360D515C40C1BB31545581FC1E08-2025-05-22-20-04-06","","null","","images/schematic_sequence/flight_scheme/flight_scheme_2.png","null","",""
"","","","","","image-button-response","29","2045140","0.0-10.0-1.0-1.1","A4B0360D515C40C1BB31545581FC1E08","A4B0360D515C40C1BB31545581FC1E08","97f029b0-93e3-4b17-b5a8-e4453b835cb8","9076ac92-be42-43a2-9634-8b67c7fe93a7","{""num_scrambled_semantic"":""8"",""num_scrambled_causal"":""4"",""num_scrambled_schematic"":""4"",""participantId"":""A4B0360D515C40C1BB31545581FC1E08"",""assignmentId"":""97f029b0-93e3-4b17-b5a8-e4453b835cb8"",""projectId"":""9076ac92-be42-43a2-9634-8b67c7fe93a7""}","https://test12345.live/?num_scrambled_semantic=8&num_scrambled_causal=4&num_scrambled_schematic=4&participantId=A4B0360D515C40C1BB31545581FC1E08&assignmentId=97f029b0-93e3-4b17-b5a8-e4453b835cb8&projectId=9076ac92-be42-43a2-9634-8b67c7fe93a7","A4B0360D515C40C1BB31545581FC1E08-2025-05-22-20-04-06","","1266","","images/schematic_sequence/flight_scheme/flight_scheme_2.png","1","",""
"","","","","","image-button-response","30","2046956","0.0-10.0-1.0-2.1","A4B0360D515C40C1BB31545581FC1E08","A4B0360D515C40C1BB31545581FC1E08","97f029b0-93e3-4b17-b5a8-e4453b835cb8","9076ac92-be42-43a2-9634-8b67c7fe93a7","{""num_scrambled_semantic"":""8"",""num_scrambled_causal"":""4"",""num_scrambled_schematic"":""4"",""participantId"":""A4B0360D515C40C1BB31545581FC1E08"",""assignmentId"":""97f029b0-93e3-4b17-b5a8-e4453b835cb8"",""projectId"":""9076ac92-be42-43a2-9634-8b67c7fe93a7""}","https://test12345.live/?num_scrambled_semantic=8&num_scrambled_causal=4&num_scrambled_schematic=4&participantId=A4B0360D515C40C1BB31545581FC1E08&assignmentId=97f029b0-93e3-4b17-b5a8-e4453b835cb8&projectId=9076ac92-be42-43a2-9634-8b67c7fe93a7","A4B0360D515C40C1BB31545581FC1E08-2025-05-22-20-04-06","","null","","[]","null","",""
"","","","","","image-button-response","31","2051459","0.0-10.0-1.0-0.2","A4B0360D515C40C1BB31545581FC1E08","A4B0360D515C40C1BB31545581FC1E08","97f029b0-93e3-4b17-b5a8-e4453b835cb8","9076ac92-be42-43a2-9634-8b67c7fe93a7","{""num_scrambled_semantic"":""8"",""num_scrambled_causal"":""4"",""num_scrambled_schematic"":""4"",""participantId"":""A4B0360D515C40C1BB31545581FC1E08"",""assignmentId"":""97f029b0-93e3-4b17-b5a8-e4453b835cb8"",""projectId"":""9076ac92-be42-43a2-9634-8b67c7fe93a7""}","https://test12345.live/?num_scrambled_semantic=8&num_scrambled_causal=4&num_scrambled_schematic=4&participantId=A4B0360D515C40C1BB31545581FC1E08&assignmentId=97f029b0-93e3-4b17-b5a8-e4453b835cb8&projectId=9076ac92-be42-43a2-9634-8b67c7fe93a7","A4B0360D515C40C1BB31545581FC1E08-2025-05-22-20-04-06","","null","","images/schematic_sequence/flight_scheme/flight_scheme_3.png","null","",""
"","","","","","image-button-response","32","2052507","0.0-10.0-1.0-1.2","A4B0360D515C40C1BB31545581FC1E08","A4B0360D515C40C1BB31545581FC1E08","97f029b0-93e3-4b17-b5a8-e4453b835cb8","9076ac92-be42-43a2-9634-8b67c7fe93a7","{""num_scrambled_semantic"":""8"",""num_scrambled_causal"":""4"",""num_scrambled_schematic"":""4"",""participantId"":""A4B0360D515C40C1BB31545581FC1E08"",""assignmentId"":""97f029b0-93e3-4b17-b5a8-e4453b835cb8"",""projectId"":""9076ac92-be42-43a2-9634-8b67c7fe93a7""}","https://test12345.live/?num_scrambled_semantic=8&num_scrambled_causal=4&num_scrambled_schematic=4&participantId=A4B0360D515C40C1BB31545581FC1E08&assignmentId=97f029b0-93e3-4b17-b5a8-e4453b835cb8&projectId=9076ac92-be42-43a2-9634-8b67c7fe93a7","A4B0360D515C40C1BB31545581FC1E08-2025-05-22-20-04-06","","1046","","images/schematic_sequence/flight_scheme/flight_scheme_3.png","0","",""
"","","","","","image-button-response","33","2054317","0.0-10.0-1.0-2.2","A4B0360D515C40C1BB31545581FC1E08","A4B0360D515C40C1BB31545581FC1E08","97f029b0-93e3-4b17-b5a8-e4453b835cb8","9076ac92-be42-43a2-9634-8b67c7fe93a7","{""num_scrambled_semantic"":""8"",""num_scrambled_causal"":""4"",""num_scrambled_schematic"":""4"",""participantId"":""A4B0360D515C40C1BB31545581FC1E08"",""assignmentId"":""97f029b0-93e3-4b17-b5a8-e4453b835cb8"",""projectId"":""9076ac92-be42-43a2-9634-8b67c7fe93a7""}","https://test12345.live/?num_scrambled_semantic=8&num_scrambled_causal=4&num_scrambled_schematic=4&participantId=A4B0360D515C40C1BB31545581FC1E08&assignmentId=97f029b0-93e3-4b17-b5a8-e4453b835cb8&projectId=9076ac92-be42-43a2-9634-8b67c7fe93a7","A4B0360D515C40C1BB31545581FC1E08-2025-05-22-20-04-06","","null","","[]","null","",""
"","","","","","image-button-response","34","2058822","0.0-10.0-1.0-0.3","A4B0360D515C40C1BB31545581FC1E08","A4B0360D515C40C1BB31545581FC1E08","97f029b0-93e3-4b17-b5a8-e4453b835cb8","9076ac92-be42-43a2-9634-8b67c7fe93a7","{""num_scrambled_semantic"":""8"",""num_scrambled_causal"":""4"",""num_scrambled_schematic"":""4"",""participantId"":""A4B0360D515C40C1BB31545581FC1E08"",""assignmentId"":""97f029b0-93e3-4b17-b5a8-e4453b835cb8"",""projectId"":""9076ac92-be42-43a2-9634-8b67c7fe93a7""}","https://test12345.live/?num_scrambled_semantic=8&num_scrambled_causal=4&num_scrambled_schematic=4&participantId=A4B0360D515C40C1BB31545581FC1E08&assignmentId=97f029b0-93e3-4b17-b5a8-e4453b835cb8&projectId=9076ac92-be42-43a2-9634-8b67c7fe93a7","A4B0360D515C40C1BB31545581FC1E08-2025-05-22-20-04-06","","null","","images/schematic_sequence/flight_scheme/flight_scheme_4.png","null","",""
"","","","","","image-button-response","35","2060520","0.0-10.0-1.0-1.3","A4B0360D515C40C1BB31545581FC1E08","A4B0360D515C40C1BB31545581FC1E08","97f029b0-93e3-4b17-b5a8-e4453b835cb8","9076ac92-be42-43a2-9634-8b67c7fe93a7","{""num_scrambled_semantic"":""8"",""num_scrambled_causal"":""4"",""num_scrambled_schematic"":""4"",""participantId"":""A4B0360D515C40C1BB31545581FC1E08"",""assignmentId"":""97f029b0-93e3-4b17-b5a8-e4453b835cb8"",""projectId"":""9076ac92-be42-43a2-9634-8b67c7fe93a7""}","https://test12345.live/?num_scrambled_semantic=8&num_scrambled_causal=4&num_scrambled_schematic=4&participantId=A4B0360D515C40C1BB31545581FC1E08&assignmentId=97f029b0-93e3-4b17-b5a8-e4453b835cb8&projectId=9076ac92-be42-43a2-9634-8b67c7fe93a7","A4B0360D515C40C1BB31545581FC1E08-2025-05-22-20-04-06","","1696","","images/schematic_sequence/flight_scheme/flight_scheme_4.png","0","",""
"","","","","","image-button-response","36","2062329","0.0-10.0-1.0-2.3","A4B0360D515C40C1BB31545581FC1E08","A4B0360D515C40C1BB31545581FC1E08","97f029b0-93e3-4b17-b5a8-e4453b835cb8","9076ac92-be42-43a2-9634-8b67c7fe93a7","{""num_scrambled_semantic"":""8"",""num_scrambled_causal"":""4"",""num_scrambled_schematic"":""4"",""participantId"":""A4B0360D515C40C1BB31545581FC1E08"",""assignmentId"":""97f029b0-93e3-4b17-b5a8-e4453b835cb8"",""projectId"":""9076ac92-be42-43a2-9634-8b67c7fe93a7""}","https://test12345.live/?num_scrambled_semantic=8&num_scrambled_causal=4&num_scrambled_schematic=4&participantId=A4B0360D515C40C1BB31545581FC1E08&assignmentId=97f029b0-93e3-4b17-b5a8-e4453b835cb8&projectId=9076ac92-be42-43a2-9634-8b67c7fe93a7","A4B0360D515C40C1BB31545581FC1E08-2025-05-22-20-04-06","","null","","[]","null","",""
"","","","","","image-button-response","37","2066839","0.0-10.0-1.0-0.4","A4B0360D515C40C1BB31545581FC1E08","A4B0360D515C40C1BB31545581FC1E08","97f029b0-93e3-4b17-b5a8-e4453b835cb8","9076ac92-be42-43a2-9634-8b67c7fe93a7","{""num_scrambled_semantic"":""8"",""num_scrambled_causal"":""4"",""num_scrambled_schematic"":""4"",""participantId"":""A4B0360D515C40C1BB31545581FC1E08"",""assignmentId"":""97f029b0-93e3-4b17-b5a8-e4453b835cb8"",""projectId"":""9076ac92-be42-43a2-9634-8b67c7fe93a7""}","https://test12345.live/?num_scrambled_semantic=8&num_scrambled_causal=4&num_scrambled_schematic=4&participantId=A4B0360D515C40C1BB31545581FC1E08&assignmentId=97f029b0-93e3-4b17-b5a8-e4453b835cb8&projectId=9076ac92-be42-43a2-9634-8b67c7fe93a7","A4B0360D515C40C1BB31545581FC1E08-2025-05-22-20-04-06","","null","","images/schematic_sequence/flight_scheme/flight_scheme_5.png","null","",""
"","","","","","image-button-response","38","2069296","0.0-10.0-1.0-1.4","A4B0360D515C40C1BB31545581FC1E08","A4B0360D515C40C1BB31545581FC1E08","97f029b0-93e3-4b17-b5a8-e4453b835cb8","9076ac92-be42-43a2-9634-8b67c7fe93a7","{""num_scrambled_semantic"":""8"",""num_scrambled_causal"":""4"",""num_scrambled_schematic"":""4"",""participantId"":""A4B0360D515C40C1BB31545581FC1E08"",""assignmentId"":""97f029b0-93e3-4b17-b5a8-e4453b835cb8"",""projectId"":""9076ac92-be42-43a2-9634-8b67c7fe93a7""}","https://test12345.live/?num_scrambled_semantic=8&num_scrambled_causal=4&num_scrambled_schematic=4&participantId=A4B0360D515C40C1BB31545581FC1E08&assignmentId=97f029b0-93e3-4b17-b5a8-e4453b835cb8&projectId=9076ac92-be42-43a2-9634-8b67c7fe93a7","A4B0360D515C40C1BB31545581FC1E08-2025-05-22-20-04-06","","2456","","images/schematic_sequence/flight_scheme/flight_scheme_5.png","0","",""
"","","","","","image-button-response","39","2071105","0.0-10.0-1.0-2.4","A4B0360D515C40C1BB31545581FC1E08","A4B0360D515C40C1BB31545581FC1E08","97f029b0-93e3-4b17-b5a8-e4453b835cb8","9076ac92-be42-43a2-9634-8b67c7fe93a7","{""num_scrambled_semantic"":""8"",""num_scrambled_causal"":""4"",""num_scrambled_schematic"":""4"",""participantId"":""A4B0360D515C40C1BB31545581FC1E08"",""assignmentId"":""97f029b0-93e3-4b17-b5a8-e4453b835cb8"",""projectId"":""9076ac92-be42-43a2-9634-8b67c7fe93a7""}","https://test12345.live/?num_scrambled_semantic=8&num_scrambled_causal=4&num_scrambled_schematic=4&participantId=A4B0360D515C40C1BB31545581FC1E08&assignmentId=97f029b0-93e3-4b17-b5a8-e4453b835cb8&projectId=9076ac92-be42-43a2-9634-8b67c7fe93a7","A4B0360D515C40C1BB31545581FC1E08-2025-05-22-20-04-06","","null","","[]","null","",""
"","","","","","image-button-response","40","2075610","0.0-10.0-1.0-0.5","A4B0360D515C40C1BB31545581FC1E08","A4B0360D515C40C1BB31545581FC1E08","97f029b0-93e3-4b17-b5a8-e4453b835cb8","9076ac92-be42-43a2-9634-8b67c7fe93a7","{""num_scrambled_semantic"":""8"",""num_scrambled_causal"":""4"",""num_scrambled_schematic"":""4"",""participantId"":""A4B0360D515C40C1BB31545581FC1E08"",""assignmentId"":""97f029b0-93e3-4b17-b5a8-e4453b835cb8"",""projectId"":""9076ac92-be42-43a2-9634-8b67c7fe93a7""}","https://test12345.live/?num_scrambled_semantic=8&num_scrambled_causal=4&num_scrambled_schematic=4&participantId=A4B0360D515C40C1BB31545581FC1E08&assignmentId=97f029b0-93e3-4b17-b5a8-e4453b835cb8&projectId=9076ac92-be42-43a2-9634-8b67c7fe93a7","A4B0360D515C40C1BB31545581FC1E08-2025-05-22-20-04-06","","null","","images/schematic_sequence/flight_scheme/flight_scheme_6.png","null","",""
"","","","","","image-button-response","41","2077326","0.0-10.0-1.0-1.5","A4B0360D515C40C1BB31545581FC1E08","A4B0360D515C40C1BB31545581FC1E08","97f029b0-93e3-4b17-b5a8-e4453b835cb8","9076ac92-be42-43a2-9634-8b67c7fe93a7","{""num_scrambled_semantic"":""8"",""num_scrambled_causal"":""4"",""num_scrambled_schematic"":""4"",""participantId"":""A4B0360D515C40C1BB31545581FC1E08"",""assignmentId"":""97f029b0-93e3-4b17-b5a8-e4453b835cb8"",""projectId"":""9076ac92-be42-43a2-9634-8b67c7fe93a7""}","https://test12345.live/?num_scrambled_semantic=8&num_scrambled_causal=4&num_scrambled_schematic=4&participantId=A4B0360D515C40C1BB31545581FC1E08&assignmentId=97f029b0-93e3-4b17-b5a8-e4453b835cb8&projectId=9076ac92-be42-43a2-9634-8b67c7fe93a7","A4B0360D515C40C1BB31545581FC1E08-2025-05-22-20-04-06","","1713","","images/schematic_sequence/flight_scheme/flight_scheme_6.png","1","",""
"","","","","","image-button-response","42","2079139","0.0-10.0-1.0-2.5","A4B0360D515C40C1BB31545581FC1E08","A4B0360D515C40C1BB31545581FC1E08","97f029b0-93e3-4b17-b5a8-e4453b835cb8","9076ac92-be42-43a2-9634-8b67c7fe93a7","{""num_scrambled_semantic"":""8"",""num_scrambled_causal"":""4"",""num_scrambled_schematic"":""4"",""participantId"":""A4B0360D515C40C1BB31545581FC1E08"",""assignmentId"":""97f029b0-93e3-4b17-b5a8-e4453b835cb8"",""projectId"":""9076ac92-be42-43a2-9634-8b67c7fe93a7""}","https://test12345.live/?num_scrambled_semantic=8&num_scrambled_causal=4&num_scrambled_schematic=4&participantId=A4B0360D515C40C1BB31545581FC1E08&assignmentId=97f029b0-93e3-4b17-b5a8-e4453b835cb8&projectId=9076ac92-be42-43a2-9634-8b67c7fe93a7","A4B0360D515C40C1BB31545581FC1E08-2025-05-22-20-04-06","","null","","[]","null","",""
"","","","","","image-button-response","43","2083647","0.0-10.0-1.0-0.6","A4B0360D515C40C1BB31545581FC1E08","A4B0360D515C40C1BB31545581FC1E08","97f029b0-93e3-4b17-b5a8-e4453b835cb8","9076ac92-be42-43a2-9634-8b67c7fe93a7","{""num_scrambled_semantic"":""8"",""num_scrambled_causal"":""4"",""num_scrambled_schematic"":""4"",""participantId"":""A4B0360D515C40C1BB31545581FC1E08"",""assignmentId"":""97f029b0-93e3-4b17-b5a8-e4453b835cb8"",""projectId"":""9076ac92-be42-43a2-9634-8b67c7fe93a7""}","https://test12345.live/?num_scrambled_semantic=8&num_scrambled_causal=4&num_scrambled_schematic=4&participantId=A4B0360D515C40C1BB31545581FC1E08&assignmentId=97f029b0-93e3-4b17-b5a8-e4453b835cb8&projectId=9076ac92-be42-43a2-9634-8b67c7fe93a7","A4B0360D515C40C1BB31545581FC1E08-2025-05-22-20-04-06","","null","","images/schematic_sequence/flight_scheme/flight_scheme_7.png","null","",""
"","","","","","image-button-response","44","2087649","0.0-10.0-1.0-1.6","A4B0360D515C40C1BB31545581FC1E08","A4B0360D515C40C1BB31545581FC1E08","97f029b0-93e3-4b17-b5a8-e4453b835cb8","9076ac92-be42-43a2-9634-8b67c7fe93a7","{""num_scrambled_semantic"":""8"",""num_scrambled_causal"":""4"",""num_scrambled_schematic"":""4"",""participantId"":""A4B0360D515C40C1BB31545581FC1E08"",""assignmentId"":""97f029b0-93e3-4b17-b5a8-e4453b835cb8"",""projectId"":""9076ac92-be42-43a2-9634-8b67c7fe93a7""}","https://test12345.live/?num_scrambled_semantic=8&num_scrambled_causal=4&num_scrambled_schematic=4&participantId=A4B0360D515C40C1BB31545581FC1E08&assignmentId=97f029b0-93e3-4b17-b5a8-e4453b835cb8&projectId=9076ac92-be42-43a2-9634-8b67c7fe93a7","A4B0360D515C40C1BB31545581FC1E08-2025-05-22-20-04-06","","null","","images/schematic_sequence/flight_scheme/flight_scheme_7.png","null","",""
"","","","","","image-button-response","45","2089453","0.0-10.0-1.0-2.6","A4B0360D515C40C1BB31545581FC1E08","A4B0360D515C40C1BB31545581FC1E08","97f029b0-93e3-4b17-b5a8-e4453b835cb8","9076ac92-be42-43a2-9634-8b67c7fe93a7","{""num_scrambled_semantic"":""8"",""num_scrambled_causal"":""4"",""num_scrambled_schematic"":""4"",""participantId"":""A4B0360D515C40C1BB31545581FC1E08"",""assignmentId"":""97f029b0-93e3-4b17-b5a8-e4453b835cb8"",""projectId"":""9076ac92-be42-43a2-9634-8b67c7fe93a7""}","https://test12345.live/?num_scrambled_semantic=8&num_scrambled_causal=4&num_scrambled_schematic=4&participantId=A4B0360D515C40C1BB31545581FC1E08&assignmentId=97f029b0-93e3-4b17-b5a8-e4453b835cb8&projectId=9076ac92-be42-43a2-9634-8b67c7fe93a7","A4B0360D515C40C1BB31545581FC1E08-2025-05-22-20-04-06","","null","","[]","null","",""
"","","","","","image-button-response","46","2093968","0.0-10.0-1.0-0.7","A4B0360D515C40C1BB31545581FC1E08","A4B0360D515C40C1BB31545581FC1E08","97f029b0-93e3-4b17-b5a8-e4453b835cb8","9076ac92-be42-43a2-9634-8b67c7fe93a7","{""num_scrambled_semantic"":""8"",""num_scrambled_causal"":""4"",""num_scrambled_schematic"":""4"",""participantId"":""A4B0360D515C40C1BB31545581FC1E08"",""assignmentId"":""97f029b0-93e3-4b17-b5a8-e4453b835cb8"",""projectId"":""9076ac92-be42-43a2-9634-8b67c7fe93a7""}","https://test12345.live/?num_scrambled_semantic=8&num_scrambled_causal=4&num_scrambled_schematic=4&participantId=A4B0360D515C40C1BB31545581FC1E08&assignmentId=97f029b0-93e3-4b17-b5a8-e4453b835cb8&projectId=9076ac92-be42-43a2-9634-8b67c7fe93a7","A4B0360D515C40C1BB31545581FC1E08-2025-05-22-20-04-06","","null","","images/schematic_sequence/flight_scheme/flight_scheme_8.png","null","",""
"","","","","","image-button-response","47","2095670","0.0-10.0-1.0-1.7","A4B0360D515C40C1BB31545581FC1E08","A4B0360D515C40C1BB31545581FC1E08","97f029b0-93e3-4b17-b5a8-e4453b835cb8","9076ac92-be42-43a2-9634-8b67c7fe93a7","{""num_scrambled_semantic"":""8"",""num_scrambled_causal"":""4"",""num_scrambled_schematic"":""4"",""participantId"":""A4B0360D515C40C1BB31545581FC1E08"",""assignmentId"":""97f029b0-93e3-4b17-b5a8-e4453b835cb8"",""projectId"":""9076ac92-be42-43a2-9634-8b67c7fe93a7""}","https://test12345.live/?num_scrambled_semantic=8&num_scrambled_causal=4&num_scrambled_schematic=4&participantId=A4B0360D515C40C1BB31545581FC1E08&assignmentId=97f029b0-93e3-4b17-b5a8-e4453b835cb8&projectId=9076ac92-be42-43a2-9634-8b67c7fe93a7","A4B0360D515C40C1BB31545581FC1E08-2025-05-22-20-04-06","","1700","","images/schematic_sequence/flight_scheme/flight_scheme_8.png","1","",""
"","","","","","image-button-response","48","2097473","0.0-10.0-1.0-2.7","A4B0360D515C40C1BB31545581FC1E08","A4B0360D515C40C1BB31545581FC1E08","97f029b0-93e3-4b17-b5a8-e4453b835cb8","9076ac92-be42-43a2-9634-8b67c7fe93a7","{""num_scrambled_semantic"":""8"",""num_scrambled_causal"":""4"",""num_scrambled_schematic"":""4"",""participantId"":""A4B0360D515C40C1BB31545581FC1E08"",""assignmentId"":""97f029b0-93e3-4b17-b5a8-e4453b835cb8"",""projectId"":""9076ac92-be42-43a2-9634-8b67c7fe93a7""}","https://test12345.live/?num_scrambled_semantic=8&num_scrambled_causal=4&num_scrambled_schematic=4&participantId=A4B0360D515C40C1BB31545581FC1E08&assignmentId=97f029b0-93e3-4b17-b5a8-e4453b835cb8&projectId=9076ac92-be42-43a2-9634-8b67c7fe93a7","A4B0360D515C40C1BB31545581FC1E08-2025-05-22-20-04-06","","null","","[]","null","",""
"","","","","","image-button-response","49","2101985","0.0-10.0-1.0-0.8","A4B0360D515C40C1BB31545581FC1E08","A4B0360D515C40C1BB31545581FC1E08","97f029b0-93e3-4b17-b5a8-e4453b835cb8","9076ac92-be42-43a2-9634-8b67c7fe93a7","{""num_scrambled_semantic"":""8"",""num_scrambled_causal"":""4"",""num_scrambled_schematic"":""4"",""participantId"":""A4B0360D515C40C1BB31545581FC1E08"",""assignmentId"":""97f029b0-93e3-4b17-b5a8-e4453b835cb8"",""projectId"":""9076ac92-be42-43a2-9634-8b67c7fe93a7""}","https://test12345.live/?num_scrambled_semantic=8&num_scrambled_causal=4&num_scrambled_schematic=4&participantId=A4B0360D515C40C1BB31545581FC1E08&assignmentId=97f029b0-93e3-4b17-b5a8-e4453b835cb8&projectId=9076ac92-be42-43a2-9634-8b67c7fe93a7","A4B0360D515C40C1BB31545581FC1E08-2025-05-22-20-04-06","","null","","images/schematic_sequence/flight_scheme/flight_scheme_9.png","null","",""
"","","","","","image-button-response","50","2104725","0.0-10.0-1.0-1.8","A4B0360D515C40C1BB31545581FC1E08","A4B0360D515C40C1BB31545581FC1E08","97f029b0-93e3-4b17-b5a8-e4453b835cb8","9076ac92-be42-43a2-9634-8b67c7fe93a7","{""num_scrambled_semantic"":""8"",""num_scrambled_causal"":""4"",""num_scrambled_schematic"":""4"",""participantId"":""A4B0360D515C40C1BB31545581FC1E08"",""assignmentId"":""97f029b0-93e3-4b17-b5a8-e4453b835cb8"",""projectId"":""9076ac92-be42-43a2-9634-8b67c7fe93a7""}","https://test12345.live/?num_scrambled_semantic=8&num_scrambled_causal=4&num_scrambled_schematic=4&participantId=A4B0360D515C40C1BB31545581FC1E08&assignmentId=97f029b0-93e3-4b17-b5a8-e4453b835cb8&projectId=9076ac92-be42-43a2-9634-8b67c7fe93a7","A4B0360D515C40C1BB31545581FC1E08-2025-05-22-20-04-06","","2738","","images/schematic_sequence/flight_scheme/flight_scheme_9.png","0","",""
"","","","","","image-button-response","51","2106540","0.0-10.0-1.0-2.8","A4B0360D515C40C1BB31545581FC1E08","A4B0360D515C40C1BB31545581FC1E08","97f029b0-93e3-4b17-b5a8-e4453b835cb8","9076ac92-be42-43a2-9634-8b67c7fe93a7","{""num_scrambled_semantic"":""8"",""num_scrambled_causal"":""4"",""num_scrambled_schematic"":""4"",""participantId"":""A4B0360D515C40C1BB31545581FC1E08"",""assignmentId"":""97f029b0-93e3-4b17-b5a8-e4453b835cb8"",""projectId"":""9076ac92-be42-43a2-9634-8b67c7fe93a7""}","https://test12345.live/?num_scrambled_semantic=8&num_scrambled_causal=4&num_scrambled_schematic=4&participantId=A4B0360D515C40C1BB31545581FC1E08&assignmentId=97f029b0-93e3-4b17-b5a8-e4453b835cb8&projectId=9076ac92-be42-43a2-9634-8b67c7fe93a7","A4B0360D515C40C1BB31545581FC1E08-2025-05-22-20-04-06","","null","","[]","null","",""
"","","","","","image-button-response","52","2111048","0.0-10.0-1.0-0.9","A4B0360D515C40C1BB31545581FC1E08","A4B0360D515C40C1BB31545581FC1E08","97f029b0-93e3-4b17-b5a8-e4453b835cb8","9076ac92-be42-43a2-9634-8b67c7fe93a7","{""num_scrambled_semantic"":""8"",""num_scrambled_causal"":""4"",""num_scrambled_schematic"":""4"",""participantId"":""A4B0360D515C40C1BB31545581FC1E08"",""assignmentId"":""97f029b0-93e3-4b17-b5a8-e4453b835cb8"",""projectId"":""9076ac92-be42-43a2-9634-8b67c7fe93a7""}","https://test12345.live/?num_scrambled_semantic=8&num_scrambled_causal=4&num_scrambled_schematic=4&participantId=A4B0360D515C40C1BB31545581FC1E08&assignmentId=97f029b0-93e3-4b17-b5a8-e4453b835cb8&projectId=9076ac92-be42-43a2-9634-8b67c7fe93a7","A4B0360D515C40C1BB31545581FC1E08-2025-05-22-20-04-06","","null","","images/schematic_sequence/flight_scheme/flight_scheme_ten.png","null","",""
"","","","","","image-button-response","53","2112248","0.0-10.0-1.0-1.9","A4B0360D515C40C1BB31545581FC1E08","A4B0360D515C40C1BB31545581FC1E08","97f029b0-93e3-4b17-b5a8-e4453b835cb8","9076ac92-be42-43a2-9634-8b67c7fe93a7","{""num_scrambled_semantic"":""8"",""num_scrambled_causal"":""4"",""num_scrambled_schematic"":""4"",""participantId"":""A4B0360D515C40C1BB31545581FC1E08"",""assignmentId"":""97f029b0-93e3-4b17-b5a8-e4453b835cb8"",""projectId"":""9076ac92-be42-43a2-9634-8b67c7fe93a7""}","https://test12345.live/?num_scrambled_semantic=8&num_scrambled_causal=4&num_scrambled_schematic=4&participantId=A4B0360D515C40C1BB31545581FC1E08&assignmentId=97f029b0-93e3-4b17-b5a8-e4453b835cb8&projectId=9076ac92-be42-43a2-9634-8b67c7fe93a7","A4B0360D515C40C1BB31545581FC1E08-2025-05-22-20-04-06","","1198","","images/schematic_sequence/flight_scheme/flight_scheme_ten.png","0","",""
"","","","","","image-button-response","54","2114056","0.0-10.0-1.0-2.9","A4B0360D515C40C1BB31545581FC1E08","A4B0360D515C40C1BB31545581FC1E08","97f029b0-93e3-4b17-b5a8-e4453b835cb8","9076ac92-be42-43a2-9634-8b67c7fe93a7","{""num_scrambled_semantic"":""8"",""num_scrambled_causal"":""4"",""num_scrambled_schematic"":""4"",""participantId"":""A4B0360D515C40C1BB31545581FC1E08"",""assignmentId"":""97f029b0-93e3-4b17-b5a8-e4453b835cb8"",""projectId"":""9076ac92-be42-43a2-9634-8b67c7fe93a7""}","https://test12345.live/?num_scrambled_semantic=8&num_scrambled_causal=4&num_scrambled_schematic=4&participantId=A4B0360D515C40C1BB31545581FC1E08&assignmentId=97f029b0-93e3-4b17-b5a8-e4453b835cb8&projectId=9076ac92-be42-43a2-9634-8b67c7fe93a7","A4B0360D515C40C1BB31545581FC1E08-2025-05-22-20-04-06","","null","","[]","null","",""
"","","","","","html-audio-response","55","2231874","0.0-11.0","A4B0360D515C40C1BB31545581FC1E08","A4B0360D515C40C1BB31545581FC1E08","97f029b0-93e3-4b17-b5a8-e4453b835cb8","9076ac92-be42-43a2-9634-8b67c7fe93a7","{""num_scrambled_semantic"":""8"",""num_scrambled_causal"":""4"",""num_scrambled_schematic"":""4"",""participantId"":""A4B0360D515C40C1BB31545581FC1E08"",""assignmentId"":""97f029b0-93e3-4b17-b5a8-e4453b835cb8"",""projectId"":""9076ac92-be42-43a2-9634-8b67c7fe93a7""}","https://test12345.live/?num_scrambled_semantic=8&num_scrambled_causal=4&num_scrambled_schematic=4&participantId=A4B0360D515C40C1BB31545581FC1E08&assignmentId=97f029b0-93e3-4b17-b5a8-e4453b835cb8&projectId=9076ac92-be42-43a2-9634-8b67c7fe93a7","A4B0360D515C40C1BB31545581FC1E08-2025-05-22-20-04-06","","41246","","[""<span style=\""color: red; font-size: 24px\""> NOW RECORDING</span><p>Please say out loud all the images you saw, in the exact order you saw them. Try to recall as many images as you can, but remember: getting the order right is more important than the number of images you recall.</p>""]","","2","flight_scheme"
"","","","","","image-button-response","56","2237886","0.0-12.0-0.0","A4B0360D515C40C1BB31545581FC1E08","A4B0360D515C40C1BB31545581FC1E08","97f029b0-93e3-4b17-b5a8-e4453b835cb8","9076ac92-be42-43a2-9634-8b67c7fe93a7","{""num_scrambled_semantic"":""8"",""num_scrambled_causal"":""4"",""num_scrambled_schematic"":""4"",""participantId"":""A4B0360D515C40C1BB31545581FC1E08"",""assignmentId"":""97f029b0-93e3-4b17-b5a8-e4453b835cb8"",""projectId"":""9076ac92-be42-43a2-9634-8b67c7fe93a7""}","https://test12345.live/?num_scrambled_semantic=8&num_scrambled_causal=4&num_scrambled_schematic=4&participantId=A4B0360D515C40C1BB31545581FC1E08&assignmentId=97f029b0-93e3-4b17-b5a8-e4453b835cb8&projectId=9076ac92-be42-43a2-9634-8b67c7fe93a7","A4B0360D515C40C1BB31545581FC1E08-2025-05-22-20-04-06","","null","","images/schematic_sequence/restaurant_scheme/restaurant_scheme_0.png","null","",""
"","","","","","image-button-response","57","2242400","0.0-12.0-1.0-0.0","A4B0360D515C40C1BB31545581FC1E08","A4B0360D515C40C1BB31545581FC1E08","97f029b0-93e3-4b17-b5a8-e4453b835cb8","9076ac92-be42-43a2-9634-8b67c7fe93a7","{""num_scrambled_semantic"":""8"",""num_scrambled_causal"":""4"",""num_scrambled_schematic"":""4"",""participantId"":""A4B0360D515C40C1BB31545581FC1E08"",""assignmentId"":""97f029b0-93e3-4b17-b5a8-e4453b835cb8"",""projectId"":""9076ac92-be42-43a2-9634-8b67c7fe93a7""}","https://test12345.live/?num_scrambled_semantic=8&num_scrambled_causal=4&num_scrambled_schematic=4&participantId=A4B0360D515C40C1BB31545581FC1E08&assignmentId=97f029b0-93e3-4b17-b5a8-e4453b835cb8&projectId=9076ac92-be42-43a2-9634-8b67c7fe93a7","A4B0360D515C40C1BB31545581FC1E08-2025-05-22-20-04-06","","null","","images/schematic_sequence/restaurant_scheme/restaurant_scheme_1.png","null","",""
"","","","","","image-button-response","58","2244374","0.0-12.0-1.0-1.0","A4B0360D515C40C1BB31545581FC1E08","A4B0360D515C40C1BB31545581FC1E08","97f029b0-93e3-4b17-b5a8-e4453b835cb8","9076ac92-be42-43a2-9634-8b67c7fe93a7","{""num_scrambled_semantic"":""8"",""num_scrambled_causal"":""4"",""num_scrambled_schematic"":""4"",""participantId"":""A4B0360D515C40C1BB31545581FC1E08"",""assignmentId"":""97f029b0-93e3-4b17-b5a8-e4453b835cb8"",""projectId"":""9076ac92-be42-43a2-9634-8b67c7fe93a7""}","https://test12345.live/?num_scrambled_semantic=8&num_scrambled_causal=4&num_scrambled_schematic=4&participantId=A4B0360D515C40C1BB31545581FC1E08&assignmentId=97f029b0-93e3-4b17-b5a8-e4453b835cb8&projectId=9076ac92-be42-43a2-9634-8b67c7fe93a7","A4B0360D515C40C1BB31545581FC1E08-2025-05-22-20-04-06","","1970","","images/schematic_sequence/restaurant_scheme/restaurant_scheme_1.png","0","",""
"","","","","","image-button-response","59","2246179","0.0-12.0-1.0-2.0","A4B0360D515C40C1BB31545581FC1E08","A4B0360D515C40C1BB31545581FC1E08","97f029b0-93e3-4b17-b5a8-e4453b835cb8","9076ac92-be42-43a2-9634-8b67c7fe93a7","{""num_scrambled_semantic"":""8"",""num_scrambled_causal"":""4"",""num_scrambled_schematic"":""4"",""participantId"":""A4B0360D515C40C1BB31545581FC1E08"",""assignmentId"":""97f029b0-93e3-4b17-b5a8-e4453b835cb8"",""projectId"":""9076ac92-be42-43a2-9634-8b67c7fe93a7""}","https://test12345.live/?num_scrambled_semantic=8&num_scrambled_causal=4&num_scrambled_schematic=4&participantId=A4B0360D515C40C1BB31545581FC1E08&assignmentId=97f029b0-93e3-4b17-b5a8-e4453b835cb8&projectId=9076ac92-be42-43a2-9634-8b67c7fe93a7","A4B0360D515C40C1BB31545581FC1E08-2025-05-22-20-04-06","","null","","[]","null","",""
"","","","","","image-button-response","60","2250692","0.0-12.0-1.0-0.1","A4B0360D515C40C1BB31545581FC1E08","A4B0360D515C40C1BB31545581FC1E08","97f029b0-93e3-4b17-b5a8-e4453b835cb8","9076ac92-be42-43a2-9634-8b67c7fe93a7","{""num_scrambled_semantic"":""8"",""num_scrambled_causal"":""4"",""num_scrambled_schematic"":""4"",""participantId"":""A4B0360D515C40C1BB31545581FC1E08"",""assignmentId"":""97f029b0-93e3-4b17-b5a8-e4453b835cb8"",""projectId"":""9076ac92-be42-43a2-9634-8b67c7fe93a7""}","https://test12345.live/?num_scrambled_semantic=8&num_scrambled_causal=4&num_scrambled_schematic=4&participantId=A4B0360D515C40C1BB31545581FC1E08&assignmentId=97f029b0-93e3-4b17-b5a8-e4453b835cb8&projectId=9076ac92-be42-43a2-9634-8b67c7fe93a7","A4B0360D515C40C1BB31545581FC1E08-2025-05-22-20-04-06","","null","","images/schematic_sequence/restaurant_scheme/restaurant_scheme_6.png","null","",""
"","","","","","image-button-response","61","2251602","0.0-12.0-1.0-1.1","A4B0360D515C40C1BB31545581FC1E08","A4B0360D515C40C1BB31545581FC1E08","97f029b0-93e3-4b17-b5a8-e4453b835cb8","9076ac92-be42-43a2-9634-8b67c7fe93a7","{""num_scrambled_semantic"":""8"",""num_scrambled_causal"":""4"",""num_scrambled_schematic"":""4"",""participantId"":""A4B0360D515C40C1BB31545581FC1E08"",""assignmentId"":""97f029b0-93e3-4b17-b5a8-e4453b835cb8"",""projectId"":""9076ac92-be42-43a2-9634-8b67c7fe93a7""}","https://test12345.live/?num_scrambled_semantic=8&num_scrambled_causal=4&num_scrambled_schematic=4&participantId=A4B0360D515C40C1BB31545581FC1E08&assignmentId=97f029b0-93e3-4b17-b5a8-e4453b835cb8&projectId=9076ac92-be42-43a2-9634-8b67c7fe93a7","A4B0360D515C40C1BB31545581FC1E08-2025-05-22-20-04-06","","908","","images/schematic_sequence/restaurant_scheme/restaurant_scheme_6.png","1","",""
"","","","","","image-button-response","62","2253404","0.0-12.0-1.0-2.1","A4B0360D515C40C1BB31545581FC1E08","A4B0360D515C40C1BB31545581FC1E08","97f029b0-93e3-4b17-b5a8-e4453b835cb8","9076ac92-be42-43a2-9634-8b67c7fe93a7","{""num_scrambled_semantic"":""8"",""num_scrambled_causal"":""4"",""num_scrambled_schematic"":""4"",""participantId"":""A4B0360D515C40C1BB31545581FC1E08"",""assignmentId"":""97f029b0-93e3-4b17-b5a8-e4453b835cb8"",""projectId"":""9076ac92-be42-43a2-9634-8b67c7fe93a7""}","https://test12345.live/?num_scrambled_semantic=8&num_scrambled_causal=4&num_scrambled_schematic=4&participantId=A4B0360D515C40C1BB31545581FC1E08&assignmentId=97f029b0-93e3-4b17-b5a8-e4453b835cb8&projectId=9076ac92-be42-43a2-9634-8b67c7fe93a7","A4B0360D515C40C1BB31545581FC1E08-2025-05-22-20-04-06","","null","","[]","null","",""
"","","","","","image-button-response","63","2257913","0.0-12.0-1.0-0.2","A4B0360D515C40C1BB31545581FC1E08","A4B0360D515C40C1BB31545581FC1E08","97f029b0-93e3-4b17-b5a8-e4453b835cb8","9076ac92-be42-43a2-9634-8b67c7fe93a7","{""num_scrambled_semantic"":""8"",""num_scrambled_causal"":""4"",""num_scrambled_schematic"":""4"",""participantId"":""A4B0360D515C40C1BB31545581FC1E08"",""assignmentId"":""97f029b0-93e3-4b17-b5a8-e4453b835cb8"",""projectId"":""9076ac92-be42-43a2-9634-8b67c7fe93a7""}","https://test12345.live/?num_scrambled_semantic=8&num_scrambled_causal=4&num_scrambled_schematic=4&participantId=A4B0360D515C40C1BB31545581FC1E08&assignmentId=97f029b0-93e3-4b17-b5a8-e4453b835cb8&projectId=9076ac92-be42-43a2-9634-8b67c7fe93a7","A4B0360D515C40C1BB31545581FC1E08-2025-05-22-20-04-06","","null","","images/schematic_sequence/restaurant_scheme/restaurant_scheme_4.png","null","",""
"","","","","","image-button-response","64","2260352","0.0-12.0-1.0-1.2","A4B0360D515C40C1BB31545581FC1E08","A4B0360D515C40C1BB31545581FC1E08","97f029b0-93e3-4b17-b5a8-e4453b835cb8","9076ac92-be42-43a2-9634-8b67c7fe93a7","{""num_scrambled_semantic"":""8"",""num_scrambled_causal"":""4"",""num_scrambled_schematic"":""4"",""participantId"":""A4B0360D515C40C1BB31545581FC1E08"",""assignmentId"":""97f029b0-93e3-4b17-b5a8-e4453b835cb8"",""projectId"":""9076ac92-be42-43a2-9634-8b67c7fe93a7""}","https://test12345.live/?num_scrambled_semantic=8&num_scrambled_causal=4&num_scrambled_schematic=4&participantId=A4B0360D515C40C1BB31545581FC1E08&assignmentId=97f029b0-93e3-4b17-b5a8-e4453b835cb8&projectId=9076ac92-be42-43a2-9634-8b67c7fe93a7","A4B0360D515C40C1BB31545581FC1E08-2025-05-22-20-04-06","","2438","","images/schematic_sequence/restaurant_scheme/restaurant_scheme_4.png","0","",""
"","","","","","image-button-response","65","2262161","0.0-12.0-1.0-2.2","A4B0360D515C40C1BB31545581FC1E08","A4B0360D515C40C1BB31545581FC1E08","97f029b0-93e3-4b17-b5a8-e4453b835cb8","9076ac92-be42-43a2-9634-8b67c7fe93a7","{""num_scrambled_semantic"":""8"",""num_scrambled_causal"":""4"",""num_scrambled_schematic"":""4"",""participantId"":""A4B0360D515C40C1BB31545581FC1E08"",""assignmentId"":""97f029b0-93e3-4b17-b5a8-e4453b835cb8"",""projectId"":""9076ac92-be42-43a2-9634-8b67c7fe93a7""}","https://test12345.live/?num_scrambled_semantic=8&num_scrambled_causal=4&num_scrambled_schematic=4&participantId=A4B0360D515C40C1BB31545581FC1E08&assignmentId=97f029b0-93e3-4b17-b5a8-e4453b835cb8&projectId=9076ac92-be42-43a2-9634-8b67c7fe93a7","A4B0360D515C40C1BB31545581FC1E08-2025-05-22-20-04-06","","null","","[]","null","",""
"","","","","","image-button-response","66","2266677","0.0-12.0-1.0-0.3","A4B0360D515C40C1BB31545581FC1E08","A4B0360D515C40C1BB31545581FC1E08","97f029b0-93e3-4b17-b5a8-e4453b835cb8","9076ac92-be42-43a2-9634-8b67c7fe93a7","{""num_scrambled_semantic"":""8"",""num_scrambled_causal"":""4"",""num_scrambled_schematic"":""4"",""participantId"":""A4B0360D515C40C1BB31545581FC1E08"",""assignmentId"":""97f029b0-93e3-4b17-b5a8-e4453b835cb8"",""projectId"":""9076ac92-be42-43a2-9634-8b67c7fe93a7""}","https://test12345.live/?num_scrambled_semantic=8&num_scrambled_causal=4&num_scrambled_schematic=4&participantId=A4B0360D515C40C1BB31545581FC1E08&assignmentId=97f029b0-93e3-4b17-b5a8-e4453b835cb8&projectId=9076ac92-be42-43a2-9634-8b67c7fe93a7","A4B0360D515C40C1BB31545581FC1E08-2025-05-22-20-04-06","","null","","images/schematic_sequence/restaurant_scheme/restaurant_scheme_9.png","null","",""
"","","","","","image-button-response","67","2267746","0.0-12.0-1.0-1.3","A4B0360D515C40C1BB31545581FC1E08","A4B0360D515C40C1BB31545581FC1E08","97f029b0-93e3-4b17-b5a8-e4453b835cb8","9076ac92-be42-43a2-9634-8b67c7fe93a7","{""num_scrambled_semantic"":""8"",""num_scrambled_causal"":""4"",""num_scrambled_schematic"":""4"",""participantId"":""A4B0360D515C40C1BB31545581FC1E08"",""assignmentId"":""97f029b0-93e3-4b17-b5a8-e4453b835cb8"",""projectId"":""9076ac92-be42-43a2-9634-8b67c7fe93a7""}","https://test12345.live/?num_scrambled_semantic=8&num_scrambled_causal=4&num_scrambled_schematic=4&participantId=A4B0360D515C40C1BB31545581FC1E08&assignmentId=97f029b0-93e3-4b17-b5a8-e4453b835cb8&projectId=9076ac92-be42-43a2-9634-8b67c7fe93a7","A4B0360D515C40C1BB31545581FC1E08-2025-05-22-20-04-06","","1067","","images/schematic_sequence/restaurant_scheme/restaurant_scheme_9.png","0","",""
"","","","","","image-button-response","68","2269553","0.0-12.0-1.0-2.3","A4B0360D515C40C1BB31545581FC1E08","A4B0360D515C40C1BB31545581FC1E08","97f029b0-93e3-4b17-b5a8-e4453b835cb8","9076ac92-be42-43a2-9634-8b67c7fe93a7","{""num_scrambled_semantic"":""8"",""num_scrambled_causal"":""4"",""num_scrambled_schematic"":""4"",""participantId"":""A4B0360D515C40C1BB31545581FC1E08"",""assignmentId"":""97f029b0-93e3-4b17-b5a8-e4453b835cb8"",""projectId"":""9076ac92-be42-43a2-9634-8b67c7fe93a7""}","https://test12345.live/?num_scrambled_semantic=8&num_scrambled_causal=4&num_scrambled_schematic=4&participantId=A4B0360D515C40C1BB31545581FC1E08&assignmentId=97f029b0-93e3-4b17-b5a8-e4453b835cb8&projectId=9076ac92-be42-43a2-9634-8b67c7fe93a7","A4B0360D515C40C1BB31545581FC1E08-2025-05-22-20-04-06","","null","","[]","null","",""
"","","","","","image-button-response","69","2274062","0.0-12.0-1.0-0.4","A4B0360D515C40C1BB31545581FC1E08","A4B0360D515C40C1BB31545581FC1E08","97f029b0-93e3-4b17-b5a8-e4453b835cb8","9076ac92-be42-43a2-9634-8b67c7fe93a7","{""num_scrambled_semantic"":""8"",""num_scrambled_causal"":""4"",""num_scrambled_schematic"":""4"",""participantId"":""A4B0360D515C40C1BB31545581FC1E08"",""assignmentId"":""97f029b0-93e3-4b17-b5a8-e4453b835cb8"",""projectId"":""9076ac92-be42-43a2-9634-8b67c7fe93a7""}","https://test12345.live/?num_scrambled_semantic=8&num_scrambled_causal=4&num_scrambled_schematic=4&participantId=A4B0360D515C40C1BB31545581FC1E08&assignmentId=97f029b0-93e3-4b17-b5a8-e4453b835cb8&projectId=9076ac92-be42-43a2-9634-8b67c7fe93a7","A4B0360D515C40C1BB31545581FC1E08-2025-05-22-20-04-06","","null","","images/schematic_sequence/restaurant_scheme/restaurant_scheme_2.png","null","",""
"","","","","","image-button-response","70","2276840","0.0-12.0-1.0-1.4","A4B0360D515C40C1BB31545581FC1E08","A4B0360D515C40C1BB31545581FC1E08","97f029b0-93e3-4b17-b5a8-e4453b835cb8","9076ac92-be42-43a2-9634-8b67c7fe93a7","{""num_scrambled_semantic"":""8"",""num_scrambled_causal"":""4"",""num_scrambled_schematic"":""4"",""participantId"":""A4B0360D515C40C1BB31545581FC1E08"",""assignmentId"":""97f029b0-93e3-4b17-b5a8-e4453b835cb8"",""projectId"":""9076ac92-be42-43a2-9634-8b67c7fe93a7""}","https://test12345.live/?num_scrambled_semantic=8&num_scrambled_causal=4&num_scrambled_schematic=4&participantId=A4B0360D515C40C1BB31545581FC1E08&assignmentId=97f029b0-93e3-4b17-b5a8-e4453b835cb8&projectId=9076ac92-be42-43a2-9634-8b67c7fe93a7","A4B0360D515C40C1BB31545581FC1E08-2025-05-22-20-04-06","","2777","","images/schematic_sequence/restaurant_scheme/restaurant_scheme_2.png","1","",""
"","","","","","image-button-response","71","2278655","0.0-12.0-1.0-2.4","A4B0360D515C40C1BB31545581FC1E08","A4B0360D515C40C1BB31545581FC1E08","97f029b0-93e3-4b17-b5a8-e4453b835cb8","9076ac92-be42-43a2-9634-8b67c7fe93a7","{""num_scrambled_semantic"":""8"",""num_scrambled_causal"":""4"",""num_scrambled_schematic"":""4"",""participantId"":""A4B0360D515C40C1BB31545581FC1E08"",""assignmentId"":""97f029b0-93e3-4b17-b5a8-e4453b835cb8"",""projectId"":""9076ac92-be42-43a2-9634-8b67c7fe93a7""}","https://test12345.live/?num_scrambled_semantic=8&num_scrambled_causal=4&num_scrambled_schematic=4&participantId=A4B0360D515C40C1BB31545581FC1E08&assignmentId=97f029b0-93e3-4b17-b5a8-e4453b835cb8&projectId=9076ac92-be42-43a2-9634-8b67c7fe93a7","A4B0360D515C40C1BB31545581FC1E08-2025-05-22-20-04-06","","null","","[]","null","",""
"","","","","","image-button-response","72","2283164","0.0-12.0-1.0-0.5","A4B0360D515C40C1BB31545581FC1E08","A4B0360D515C40C1BB31545581FC1E08","97f029b0-93e3-4b17-b5a8-e4453b835cb8","9076ac92-be42-43a2-9634-8b67c7fe93a7","{""num_scrambled_semantic"":""8"",""num_scrambled_causal"":""4"",""num_scrambled_schematic"":""4"",""participantId"":""A4B0360D515C40C1BB31545581FC1E08"",""assignmentId"":""97f029b0-93e3-4b17-b5a8-e4453b835cb8"",""projectId"":""9076ac92-be42-43a2-9634-8b67c7fe93a7""}","https://test12345.live/?num_scrambled_semantic=8&num_scrambled_causal=4&num_scrambled_schematic=4&participantId=A4B0360D515C40C1BB31545581FC1E08&assignmentId=97f029b0-93e3-4b17-b5a8-e4453b835cb8&projectId=9076ac92-be42-43a2-9634-8b67c7fe93a7","A4B0360D515C40C1BB31545581FC1E08-2025-05-22-20-04-06","","null","","images/schematic_sequence/restaurant_scheme/restaurant_scheme_5.png","null","",""
"","","","","","image-button-response","73","2285162","0.0-12.0-1.0-1.5","A4B0360D515C40C1BB31545581FC1E08","A4B0360D515C40C1BB31545581FC1E08","97f029b0-93e3-4b17-b5a8-e4453b835cb8","9076ac92-be42-43a2-9634-8b67c7fe93a7","{""num_scrambled_semantic"":""8"",""num_scrambled_causal"":""4"",""num_scrambled_schematic"":""4"",""participantId"":""A4B0360D515C40C1BB31545581FC1E08"",""assignmentId"":""97f029b0-93e3-4b17-b5a8-e4453b835cb8"",""projectId"":""9076ac92-be42-43a2-9634-8b67c7fe93a7""}","https://test12345.live/?num_scrambled_semantic=8&num_scrambled_causal=4&num_scrambled_schematic=4&participantId=A4B0360D515C40C1BB31545581FC1E08&assignmentId=97f029b0-93e3-4b17-b5a8-e4453b835cb8&projectId=9076ac92-be42-43a2-9634-8b67c7fe93a7","A4B0360D515C40C1BB31545581FC1E08-2025-05-22-20-04-06","","1996","","images/schematic_sequence/restaurant_scheme/restaurant_scheme_5.png","0","",""
"","","","","","image-button-response","74","2286972","0.0-12.0-1.0-2.5","A4B0360D515C40C1BB31545581FC1E08","A4B0360D515C40C1BB31545581FC1E08","97f029b0-93e3-4b17-b5a8-e4453b835cb8","9076ac92-be42-43a2-9634-8b67c7fe93a7","{""num_scrambled_semantic"":""8"",""num_scrambled_causal"":""4"",""num_scrambled_schematic"":""4"",""participantId"":""A4B0360D515C40C1BB31545581FC1E08"",""assignmentId"":""97f029b0-93e3-4b17-b5a8-e4453b835cb8"",""projectId"":""9076ac92-be42-43a2-9634-8b67c7fe93a7""}","https://test12345.live/?num_scrambled_semantic=8&num_scrambled_causal=4&num_scrambled_schematic=4&participantId=A4B0360D515C40C1BB31545581FC1E08&assignmentId=97f029b0-93e3-4b17-b5a8-e4453b835cb8&projectId=9076ac92-be42-43a2-9634-8b67c7fe93a7","A4B0360D515C40C1BB31545581FC1E08-2025-05-22-20-04-06","","null","","[]","null","",""
"","","","","","image-button-response","75","2291482","0.0-12.0-1.0-0.6","A4B0360D515C40C1BB31545581FC1E08","A4B0360D515C40C1BB31545581FC1E08","97f029b0-93e3-4b17-b5a8-e4453b835cb8","9076ac92-be42-43a2-9634-8b67c7fe93a7","{""num_scrambled_semantic"":""8"",""num_scrambled_causal"":""4"",""num_scrambled_schematic"":""4"",""participantId"":""A4B0360D515C40C1BB31545581FC1E08"",""assignmentId"":""97f029b0-93e3-4b17-b5a8-e4453b835cb8"",""projectId"":""9076ac92-be42-43a2-9634-8b67c7fe93a7""}","https://test12345.live/?num_scrambled_semantic=8&num_scrambled_causal=4&num_scrambled_schematic=4&participantId=A4B0360D515C40C1BB31545581FC1E08&assignmentId=97f029b0-93e3-4b17-b5a8-e4453b835cb8&projectId=9076ac92-be42-43a2-9634-8b67c7fe93a7","A4B0360D515C40C1BB31545581FC1E08-2025-05-22-20-04-06","","null","","images/schematic_sequence/restaurant_scheme/restaurant_scheme_8.png","null","",""
"","","","","","image-button-response","76","2293315","0.0-12.0-1.0-1.6","A4B0360D515C40C1BB31545581FC1E08","A4B0360D515C40C1BB31545581FC1E08","97f029b0-93e3-4b17-b5a8-e4453b835cb8","9076ac92-be42-43a2-9634-8b67c7fe93a7","{""num_scrambled_semantic"":""8"",""num_scrambled_causal"":""4"",""num_scrambled_schematic"":""4"",""participantId"":""A4B0360D515C40C1BB31545581FC1E08"",""assignmentId"":""97f029b0-93e3-4b17-b5a8-e4453b835cb8"",""projectId"":""9076ac92-be42-43a2-9634-8b67c7fe93a7""}","https://test12345.live/?num_scrambled_semantic=8&num_scrambled_causal=4&num_scrambled_schematic=4&participantId=A4B0360D515C40C1BB31545581FC1E08&assignmentId=97f029b0-93e3-4b17-b5a8-e4453b835cb8&projectId=9076ac92-be42-43a2-9634-8b67c7fe93a7","A4B0360D515C40C1BB31545581FC1E08-2025-05-22-20-04-06","","1830","","images/schematic_sequence/restaurant_scheme/restaurant_scheme_8.png","1","",""
"","","","","","image-button-response","77","2295121","0.0-12.0-1.0-2.6","A4B0360D515C40C1BB31545581FC1E08","A4B0360D515C40C1BB31545581FC1E08","97f029b0-93e3-4b17-b5a8-e4453b835cb8","9076ac92-be42-43a2-9634-8b67c7fe93a7","{""num_scrambled_semantic"":""8"",""num_scrambled_causal"":""4"",""num_scrambled_schematic"":""4"",""participantId"":""A4B0360D515C40C1BB31545581FC1E08"",""assignmentId"":""97f029b0-93e3-4b17-b5a8-e4453b835cb8"",""projectId"":""9076ac92-be42-43a2-9634-8b67c7fe93a7""}","https://test12345.live/?num_scrambled_semantic=8&num_scrambled_causal=4&num_scrambled_schematic=4&participantId=A4B0360D515C40C1BB31545581FC1E08&assignmentId=97f029b0-93e3-4b17-b5a8-e4453b835cb8&projectId=9076ac92-be42-43a2-9634-8b67c7fe93a7","A4B0360D515C40C1BB31545581FC1E08-2025-05-22-20-04-06","","null","","[]","null","",""
"","","","","","image-button-response","78","2299625","0.0-12.0-1.0-0.7","A4B0360D515C40C1BB31545581FC1E08","A4B0360D515C40C1BB31545581FC1E08","97f029b0-93e3-4b17-b5a8-e4453b835cb8","9076ac92-be42-43a2-9634-8b67c7fe93a7","{""num_scrambled_semantic"":""8"",""num_scrambled_causal"":""4"",""num_scrambled_schematic"":""4"",""participantId"":""A4B0360D515C40C1BB31545581FC1E08"",""assignmentId"":""97f029b0-93e3-4b17-b5a8-e4453b835cb8"",""projectId"":""9076ac92-be42-43a2-9634-8b67c7fe93a7""}","https://test12345.live/?num_scrambled_semantic=8&num_scrambled_causal=4&num_scrambled_schematic=4&participantId=A4B0360D515C40C1BB31545581FC1E08&assignmentId=97f029b0-93e3-4b17-b5a8-e4453b835cb8&projectId=9076ac92-be42-43a2-9634-8b67c7fe93a7","A4B0360D515C40C1BB31545581FC1E08-2025-05-22-20-04-06","","null","","images/schematic_sequence/restaurant_scheme/restaurant_scheme_7.png","null","",""
"","","","","","image-button-response","79","2302512","0.0-12.0-1.0-1.7","A4B0360D515C40C1BB31545581FC1E08","A4B0360D515C40C1BB31545581FC1E08","97f029b0-93e3-4b17-b5a8-e4453b835cb8","9076ac92-be42-43a2-9634-8b67c7fe93a7","{""num_scrambled_semantic"":""8"",""num_scrambled_causal"":""4"",""num_scrambled_schematic"":""4"",""participantId"":""A4B0360D515C40C1BB31545581FC1E08"",""assignmentId"":""97f029b0-93e3-4b17-b5a8-e4453b835cb8"",""projectId"":""9076ac92-be42-43a2-9634-8b67c7fe93a7""}","https://test12345.live/?num_scrambled_semantic=8&num_scrambled_causal=4&num_scrambled_schematic=4&participantId=A4B0360D515C40C1BB31545581FC1E08&assignmentId=97f029b0-93e3-4b17-b5a8-e4453b835cb8&projectId=9076ac92-be42-43a2-9634-8b67c7fe93a7","A4B0360D515C40C1BB31545581FC1E08-2025-05-22-20-04-06","","2887","","images/schematic_sequence/restaurant_scheme/restaurant_scheme_7.png","1","",""
"","","","","","image-button-response","80","2304320","0.0-12.0-1.0-2.7","A4B0360D515C40C1BB31545581FC1E08","A4B0360D515C40C1BB31545581FC1E08","97f029b0-93e3-4b17-b5a8-e4453b835cb8","9076ac92-be42-43a2-9634-8b67c7fe93a7","{""num_scrambled_semantic"":""8"",""num_scrambled_causal"":""4"",""num_scrambled_schematic"":""4"",""participantId"":""A4B0360D515C40C1BB31545581FC1E08"",""assignmentId"":""97f029b0-93e3-4b17-b5a8-e4453b835cb8"",""projectId"":""9076ac92-be42-43a2-9634-8b67c7fe93a7""}","https://test12345.live/?num_scrambled_semantic=8&num_scrambled_causal=4&num_scrambled_schematic=4&participantId=A4B0360D515C40C1BB31545581FC1E08&assignmentId=97f029b0-93e3-4b17-b5a8-e4453b835cb8&projectId=9076ac92-be42-43a2-9634-8b67c7fe93a7","A4B0360D515C40C1BB31545581FC1E08-2025-05-22-20-04-06","","null","","[]","null","",""
"","","","","","image-button-response","81","2308823","0.0-12.0-1.0-0.8","A4B0360D515C40C1BB31545581FC1E08","A4B0360D515C40C1BB31545581FC1E08","97f029b0-93e3-4b17-b5a8-e4453b835cb8","9076ac92-be42-43a2-9634-8b67c7fe93a7","{""num_scrambled_semantic"":""8"",""num_scrambled_causal"":""4"",""num_scrambled_schematic"":""4"",""participantId"":""A4B0360D515C40C1BB31545581FC1E08"",""assignmentId"":""97f029b0-93e3-4b17-b5a8-e4453b835cb8"",""projectId"":""9076ac92-be42-43a2-9634-8b67c7fe93a7""}","https://test12345.live/?num_scrambled_semantic=8&num_scrambled_causal=4&num_scrambled_schematic=4&participantId=A4B0360D515C40C1BB31545581FC1E08&assignmentId=97f029b0-93e3-4b17-b5a8-e4453b835cb8&projectId=9076ac92-be42-43a2-9634-8b67c7fe93a7","A4B0360D515C40C1BB31545581FC1E08-2025-05-22-20-04-06","","null","","images/schematic_sequence/restaurant_scheme/restaurant_scheme_ten.png","null","",""
"","","","","","image-button-response","82","2310888","0.0-12.0-1.0-1.8","A4B0360D515C40C1BB31545581FC1E08","A4B0360D515C40C1BB31545581FC1E08","97f029b0-93e3-4b17-b5a8-e4453b835cb8","9076ac92-be42-43a2-9634-8b67c7fe93a7","{""num_scrambled_semantic"":""8"",""num_scrambled_causal"":""4"",""num_scrambled_schematic"":""4"",""participantId"":""A4B0360D515C40C1BB31545581FC1E08"",""assignmentId"":""97f029b0-93e3-4b17-b5a8-e4453b835cb8"",""projectId"":""9076ac92-be42-43a2-9634-8b67c7fe93a7""}","https://test12345.live/?num_scrambled_semantic=8&num_scrambled_causal=4&num_scrambled_schematic=4&participantId=A4B0360D515C40C1BB31545581FC1E08&assignmentId=97f029b0-93e3-4b17-b5a8-e4453b835cb8&projectId=9076ac92-be42-43a2-9634-8b67c7fe93a7","A4B0360D515C40C1BB31545581FC1E08-2025-05-22-20-04-06","","2063","","images/schematic_sequence/restaurant_scheme/restaurant_scheme_ten.png","0","",""
"","","","","","image-button-response","83","2312692","0.0-12.0-1.0-2.8","A4B0360D515C40C1BB31545581FC1E08","A4B0360D515C40C1BB31545581FC1E08","97f029b0-93e3-4b17-b5a8-e4453b835cb8","9076ac92-be42-43a2-9634-8b67c7fe93a7","{""num_scrambled_semantic"":""8"",""num_scrambled_causal"":""4"",""num_scrambled_schematic"":""4"",""participantId"":""A4B0360D515C40C1BB31545581FC1E08"",""assignmentId"":""97f029b0-93e3-4b17-b5a8-e4453b835cb8"",""projectId"":""9076ac92-be42-43a2-9634-8b67c7fe93a7""}","https://test12345.live/?num_scrambled_semantic=8&num_scrambled_causal=4&num_scrambled_schematic=4&participantId=A4B0360D515C40C1BB31545581FC1E08&assignmentId=97f029b0-93e3-4b17-b5a8-e4453b835cb8&projectId=9076ac92-be42-43a2-9634-8b67c7fe93a7","A4B0360D515C40C1BB31545581FC1E08-2025-05-22-20-04-06","","null","","[]","null","",""
"","","","","","image-button-response","84","2317210","0.0-12.0-1.0-0.9","A4B0360D515C40C1BB31545581FC1E08","A4B0360D515C40C1BB31545581FC1E08","97f029b0-93e3-4b17-b5a8-e4453b835cb8","9076ac92-be42-43a2-9634-8b67c7fe93a7","{""num_scrambled_semantic"":""8"",""num_scrambled_causal"":""4"",""num_scrambled_schematic"":""4"",""participantId"":""A4B0360D515C40C1BB31545581FC1E08"",""assignmentId"":""97f029b0-93e3-4b17-b5a8-e4453b835cb8"",""projectId"":""9076ac92-be42-43a2-9634-8b67c7fe93a7""}","https://test12345.live/?num_scrambled_semantic=8&num_scrambled_causal=4&num_scrambled_schematic=4&participantId=A4B0360D515C40C1BB31545581FC1E08&assignmentId=97f029b0-93e3-4b17-b5a8-e4453b835cb8&projectId=9076ac92-be42-43a2-9634-8b67c7fe93a7","A4B0360D515C40C1BB31545581FC1E08-2025-05-22-20-04-06","","null","","images/schematic_sequence/restaurant_scheme/restaurant_scheme_3.png","null","",""
"","","","","","image-button-response","85","2318920","0.0-12.0-1.0-1.9","A4B0360D515C40C1BB31545581FC1E08","A4B0360D515C40C1BB31545581FC1E08","97f029b0-93e3-4b17-b5a8-e4453b835cb8","9076ac92-be42-43a2-9634-8b67c7fe93a7","{""num_scrambled_semantic"":""8"",""num_scrambled_causal"":""4"",""num_scrambled_schematic"":""4"",""participantId"":""A4B0360D515C40C1BB31545581FC1E08"",""assignmentId"":""97f029b0-93e3-4b17-b5a8-e4453b835cb8"",""projectId"":""9076ac92-be42-43a2-9634-8b67c7fe93a7""}","https://test12345.live/?num_scrambled_semantic=8&num_scrambled_causal=4&num_scrambled_schematic=4&participantId=A4B0360D515C40C1BB31545581FC1E08&assignmentId=97f029b0-93e3-4b17-b5a8-e4453b835cb8&projectId=9076ac92-be42-43a2-9634-8b67c7fe93a7","A4B0360D515C40C1BB31545581FC1E08-2025-05-22-20-04-06","","1709","","images/schematic_sequence/restaurant_scheme/restaurant_scheme_3.png","1","",""
"","","","","","image-button-response","86","2320729","0.0-12.0-1.0-2.9","A4B0360D515C40C1BB31545581FC1E08","A4B0360D515C40C1BB31545581FC1E08","97f029b0-93e3-4b17-b5a8-e4453b835cb8","9076ac92-be42-43a2-9634-8b67c7fe93a7","{""num_scrambled_semantic"":""8"",""num_scrambled_causal"":""4"",""num_scrambled_schematic"":""4"",""participantId"":""A4B0360D515C40C1BB31545581FC1E08"",""assignmentId"":""97f029b0-93e3-4b17-b5a8-e4453b835cb8"",""projectId"":""9076ac92-be42-43a2-9634-8b67c7fe93a7""}","https://test12345.live/?num_scrambled_semantic=8&num_scrambled_causal=4&num_scrambled_schematic=4&participantId=A4B0360D515C40C1BB31545581FC1E08&assignmentId=97f029b0-93e3-4b17-b5a8-e4453b835cb8&projectId=9076ac92-be42-43a2-9634-8b67c7fe93a7","A4B0360D515C40C1BB31545581FC1E08-2025-05-22-20-04-06","","null","","[]","null","",""
"","","","","","html-audio-response","87","2376897","0.0-13.0","A4B0360D515C40C1BB31545581FC1E08","A4B0360D515C40C1BB31545581FC1E08","97f029b0-93e3-4b17-b5a8-e4453b835cb8","9076ac92-be42-43a2-9634-8b67c7fe93a7","{""num_scrambled_semantic"":""8"",""num_scrambled_causal"":""4"",""num_scrambled_schematic"":""4"",""participantId"":""A4B0360D515C40C1BB31545581FC1E08"",""assignmentId"":""97f029b0-93e3-4b17-b5a8-e4453b835cb8"",""projectId"":""9076ac92-be42-43a2-9634-8b67c7fe93a7""}","https://test12345.live/?num_scrambled_semantic=8&num_scrambled_causal=4&num_scrambled_schematic=4&participantId=A4B0360D515C40C1BB31545581FC1E08&assignmentId=97f029b0-93e3-4b17-b5a8-e4453b835cb8&projectId=9076ac92-be42-43a2-9634-8b67c7fe93a7","A4B0360D515C40C1BB31545581FC1E08-2025-05-22-20-04-06","","31651","","[""<span style=\""color: red; font-size: 24px\""> NOW RECORDING</span><p>Please say out loud all the images you saw, in the exact order you saw them. Try to recall as many images as you can, but remember: getting the order right is more important than the number of images you recall.</p>""]","","14","restaurant_scheme"
"","","","","","image-button-response","88","2382921","0.0-14.0-0.0","A4B0360D515C40C1BB31545581FC1E08","A4B0360D515C40C1BB31545581FC1E08","97f029b0-93e3-4b17-b5a8-e4453b835cb8","9076ac92-be42-43a2-9634-8b67c7fe93a7","{""num_scrambled_semantic"":""8"",""num_scrambled_causal"":""4"",""num_scrambled_schematic"":""4"",""participantId"":""A4B0360D515C40C1BB31545581FC1E08"",""assignmentId"":""97f029b0-93e3-4b17-b5a8-e4453b835cb8"",""projectId"":""9076ac92-be42-43a2-9634-8b67c7fe93a7""}","https://test12345.live/?num_scrambled_semantic=8&num_scrambled_causal=4&num_scrambled_schematic=4&participantId=A4B0360D515C40C1BB31545581FC1E08&assignmentId=97f029b0-93e3-4b17-b5a8-e4453b835cb8&projectId=9076ac92-be42-43a2-9634-8b67c7fe93a7","A4B0360D515C40C1BB31545581FC1E08-2025-05-22-20-04-06","","null","","images/semantic_sequence/exploring_nature_semantic/exploring_nature_semantic_0.png","null","",""
"","","","","","image-button-response","89","2387429","0.0-14.0-1.0-0.0","A4B0360D515C40C1BB31545581FC1E08","A4B0360D515C40C1BB31545581FC1E08","97f029b0-93e3-4b17-b5a8-e4453b835cb8","9076ac92-be42-43a2-9634-8b67c7fe93a7","{""num_scrambled_semantic"":""8"",""num_scrambled_causal"":""4"",""num_scrambled_schematic"":""4"",""participantId"":""A4B0360D515C40C1BB31545581FC1E08"",""assignmentId"":""97f029b0-93e3-4b17-b5a8-e4453b835cb8"",""projectId"":""9076ac92-be42-43a2-9634-8b67c7fe93a7""}","https://test12345.live/?num_scrambled_semantic=8&num_scrambled_causal=4&num_scrambled_schematic=4&participantId=A4B0360D515C40C1BB31545581FC1E08&assignmentId=97f029b0-93e3-4b17-b5a8-e4453b835cb8&projectId=9076ac92-be42-43a2-9634-8b67c7fe93a7","A4B0360D515C40C1BB31545581FC1E08-2025-05-22-20-04-06","","null","","images/semantic_sequence/exploring_nature_semantic/exploring_nature_semantic_6.png","null","",""
"","","","","","image-button-response","90","2389705","0.0-14.0-1.0-1.0","A4B0360D515C40C1BB31545581FC1E08","A4B0360D515C40C1BB31545581FC1E08","97f029b0-93e3-4b17-b5a8-e4453b835cb8","9076ac92-be42-43a2-9634-8b67c7fe93a7","{""num_scrambled_semantic"":""8"",""num_scrambled_causal"":""4"",""num_scrambled_schematic"":""4"",""participantId"":""A4B0360D515C40C1BB31545581FC1E08"",""assignmentId"":""97f029b0-93e3-4b17-b5a8-e4453b835cb8"",""projectId"":""9076ac92-be42-43a2-9634-8b67c7fe93a7""}","https://test12345.live/?num_scrambled_semantic=8&num_scrambled_causal=4&num_scrambled_schematic=4&participantId=A4B0360D515C40C1BB31545581FC1E08&assignmentId=97f029b0-93e3-4b17-b5a8-e4453b835cb8&projectId=9076ac92-be42-43a2-9634-8b67c7fe93a7","A4B0360D515C40C1BB31545581FC1E08-2025-05-22-20-04-06","","2274","","images/semantic_sequence/exploring_nature_semantic/exploring_nature_semantic_6.png","0","",""
"","","","","","image-button-response","91","2391522","0.0-14.0-1.0-2.0","A4B0360D515C40C1BB31545581FC1E08","A4B0360D515C40C1BB31545581FC1E08","97f029b0-93e3-4b17-b5a8-e4453b835cb8","9076ac92-be42-43a2-9634-8b67c7fe93a7","{""num_scrambled_semantic"":""8"",""num_scrambled_causal"":""4"",""num_scrambled_schematic"":""4"",""participantId"":""A4B0360D515C40C1BB31545581FC1E08"",""assignmentId"":""97f029b0-93e3-4b17-b5a8-e4453b835cb8"",""projectId"":""9076ac92-be42-43a2-9634-8b67c7fe93a7""}","https://test12345.live/?num_scrambled_semantic=8&num_scrambled_causal=4&num_scrambled_schematic=4&participantId=A4B0360D515C40C1BB31545581FC1E08&assignmentId=97f029b0-93e3-4b17-b5a8-e4453b835cb8&projectId=9076ac92-be42-43a2-9634-8b67c7fe93a7","A4B0360D515C40C1BB31545581FC1E08-2025-05-22-20-04-06","","null","","[]","null","",""
"","","","","","image-button-response","92","2396031","0.0-14.0-1.0-0.1","A4B0360D515C40C1BB31545581FC1E08","A4B0360D515C40C1BB31545581FC1E08","97f029b0-93e3-4b17-b5a8-e4453b835cb8","9076ac92-be42-43a2-9634-8b67c7fe93a7","{""num_scrambled_semantic"":""8"",""num_scrambled_causal"":""4"",""num_scrambled_schematic"":""4"",""participantId"":""A4B0360D515C40C1BB31545581FC1E08"",""assignmentId"":""97f029b0-93e3-4b17-b5a8-e4453b835cb8"",""projectId"":""9076ac92-be42-43a2-9634-8b67c7fe93a7""}","https://test12345.live/?num_scrambled_semantic=8&num_scrambled_causal=4&num_scrambled_schematic=4&participantId=A4B0360D515C40C1BB31545581FC1E08&assignmentId=97f029b0-93e3-4b17-b5a8-e4453b835cb8&projectId=9076ac92-be42-43a2-9634-8b67c7fe93a7","A4B0360D515C40C1BB31545581FC1E08-2025-05-22-20-04-06","","null","","images/semantic_sequence/exploring_nature_semantic/exploring_nature_semantic_7.png","null","",""
"","","","","","image-button-response","93","2397246","0.0-14.0-1.0-1.1","A4B0360D515C40C1BB31545581FC1E08","A4B0360D515C40C1BB31545581FC1E08","97f029b0-93e3-4b17-b5a8-e4453b835cb8","9076ac92-be42-43a2-9634-8b67c7fe93a7","{""num_scrambled_semantic"":""8"",""num_scrambled_causal"":""4"",""num_scrambled_schematic"":""4"",""participantId"":""A4B0360D515C40C1BB31545581FC1E08"",""assignmentId"":""97f029b0-93e3-4b17-b5a8-e4453b835cb8"",""projectId"":""9076ac92-be42-43a2-9634-8b67c7fe93a7""}","https://test12345.live/?num_scrambled_semantic=8&num_scrambled_causal=4&num_scrambled_schematic=4&participantId=A4B0360D515C40C1BB31545581FC1E08&assignmentId=97f029b0-93e3-4b17-b5a8-e4453b835cb8&projectId=9076ac92-be42-43a2-9634-8b67c7fe93a7","A4B0360D515C40C1BB31545581FC1E08-2025-05-22-20-04-06","","1213","","images/semantic_sequence/exploring_nature_semantic/exploring_nature_semantic_7.png","0","",""
"","","","","","image-button-response","94","2399053","0.0-14.0-1.0-2.1","A4B0360D515C40C1BB31545581FC1E08","A4B0360D515C40C1BB31545581FC1E08","97f029b0-93e3-4b17-b5a8-e4453b835cb8","9076ac92-be42-43a2-9634-8b67c7fe93a7","{""num_scrambled_semantic"":""8"",""num_scrambled_causal"":""4"",""num_scrambled_schematic"":""4"",""participantId"":""A4B0360D515C40C1BB31545581FC1E08"",""assignmentId"":""97f029b0-93e3-4b17-b5a8-e4453b835cb8"",""projectId"":""9076ac92-be42-43a2-9634-8b67c7fe93a7""}","https://test12345.live/?num_scrambled_semantic=8&num_scrambled_causal=4&num_scrambled_schematic=4&participantId=A4B0360D515C40C1BB31545581FC1E08&assignmentId=97f029b0-93e3-4b17-b5a8-e4453b835cb8&projectId=9076ac92-be42-43a2-9634-8b67c7fe93a7","A4B0360D515C40C1BB31545581FC1E08-2025-05-22-20-04-06","","null","","[]","null","",""
"","","","","","image-button-response","95","2403567","0.0-14.0-1.0-0.2","A4B0360D515C40C1BB31545581FC1E08","A4B0360D515C40C1BB31545581FC1E08","97f029b0-93e3-4b17-b5a8-e4453b835cb8","9076ac92-be42-43a2-9634-8b67c7fe93a7","{""num_scrambled_semantic"":""8"",""num_scrambled_causal"":""4"",""num_scrambled_schematic"":""4"",""participantId"":""A4B0360D515C40C1BB31545581FC1E08"",""assignmentId"":""97f029b0-93e3-4b17-b5a8-e4453b835cb8"",""projectId"":""9076ac92-be42-43a2-9634-8b67c7fe93a7""}","https://test12345.live/?num_scrambled_semantic=8&num_scrambled_causal=4&num_scrambled_schematic=4&participantId=A4B0360D515C40C1BB31545581FC1E08&assignmentId=97f029b0-93e3-4b17-b5a8-e4453b835cb8&projectId=9076ac92-be42-43a2-9634-8b67c7fe93a7","A4B0360D515C40C1BB31545581FC1E08-2025-05-22-20-04-06","","null","","images/semantic_sequence/exploring_nature_semantic/exploring_nature_semantic_9.png","null","",""
"","","","","","image-button-response","96","2405894","0.0-14.0-1.0-1.2","A4B0360D515C40C1BB31545581FC1E08","A4B0360D515C40C1BB31545581FC1E08","97f029b0-93e3-4b17-b5a8-e4453b835cb8","9076ac92-be42-43a2-9634-8b67c7fe93a7","{""num_scrambled_semantic"":""8"",""num_scrambled_causal"":""4"",""num_scrambled_schematic"":""4"",""participantId"":""A4B0360D515C40C1BB31545581FC1E08"",""assignmentId"":""97f029b0-93e3-4b17-b5a8-e4453b835cb8"",""projectId"":""9076ac92-be42-43a2-9634-8b67c7fe93a7""}","https://test12345.live/?num_scrambled_semantic=8&num_scrambled_causal=4&num_scrambled_schematic=4&participantId=A4B0360D515C40C1BB31545581FC1E08&assignmentId=97f029b0-93e3-4b17-b5a8-e4453b835cb8&projectId=9076ac92-be42-43a2-9634-8b67c7fe93a7","A4B0360D515C40C1BB31545581FC1E08-2025-05-22-20-04-06","","2325","","images/semantic_sequence/exploring_nature_semantic/exploring_nature_semantic_9.png","0","",""
"","","","","","image-button-response","97","2407698","0.0-14.0-1.0-2.2","A4B0360D515C40C1BB31545581FC1E08","A4B0360D515C40C1BB31545581FC1E08","97f029b0-93e3-4b17-b5a8-e4453b835cb8","9076ac92-be42-43a2-9634-8b67c7fe93a7","{""num_scrambled_semantic"":""8"",""num_scrambled_causal"":""4"",""num_scrambled_schematic"":""4"",""participantId"":""A4B0360D515C40C1BB31545581FC1E08"",""assignmentId"":""97f029b0-93e3-4b17-b5a8-e4453b835cb8"",""projectId"":""9076ac92-be42-43a2-9634-8b67c7fe93a7""}","https://test12345.live/?num_scrambled_semantic=8&num_scrambled_causal=4&num_scrambled_schematic=4&participantId=A4B0360D515C40C1BB31545581FC1E08&assignmentId=97f029b0-93e3-4b17-b5a8-e4453b835cb8&projectId=9076ac92-be42-43a2-9634-8b67c7fe93a7","A4B0360D515C40C1BB31545581FC1E08-2025-05-22-20-04-06","","null","","[]","null","",""
"","","","","","image-button-response","98","2412206","0.0-14.0-1.0-0.3","A4B0360D515C40C1BB31545581FC1E08","A4B0360D515C40C1BB31545581FC1E08","97f029b0-93e3-4b17-b5a8-e4453b835cb8","9076ac92-be42-43a2-9634-8b67c7fe93a7","{""num_scrambled_semantic"":""8"",""num_scrambled_causal"":""4"",""num_scrambled_schematic"":""4"",""participantId"":""A4B0360D515C40C1BB31545581FC1E08"",""assignmentId"":""97f029b0-93e3-4b17-b5a8-e4453b835cb8"",""projectId"":""9076ac92-be42-43a2-9634-8b67c7fe93a7""}","https://test12345.live/?num_scrambled_semantic=8&num_scrambled_causal=4&num_scrambled_schematic=4&participantId=A4B0360D515C40C1BB31545581FC1E08&assignmentId=97f029b0-93e3-4b17-b5a8-e4453b835cb8&projectId=9076ac92-be42-43a2-9634-8b67c7fe93a7","A4B0360D515C40C1BB31545581FC1E08-2025-05-22-20-04-06","","null","","images/semantic_sequence/exploring_nature_semantic/exploring_nature_semantic_4.png","null","",""
"","","","","","image-button-response","99","2413219","0.0-14.0-1.0-1.3","A4B0360D515C40C1BB31545581FC1E08","A4B0360D515C40C1BB31545581FC1E08","97f029b0-93e3-4b17-b5a8-e4453b835cb8","9076ac92-be42-43a2-9634-8b67c7fe93a7","{""num_scrambled_semantic"":""8"",""num_scrambled_causal"":""4"",""num_scrambled_schematic"":""4"",""participantId"":""A4B0360D515C40C1BB31545581FC1E08"",""assignmentId"":""97f029b0-93e3-4b17-b5a8-e4453b835cb8"",""projectId"":""9076ac92-be42-43a2-9634-8b67c7fe93a7""}","https://test12345.live/?num_scrambled_semantic=8&num_scrambled_causal=4&num_scrambled_schematic=4&participantId=A4B0360D515C40C1BB31545581FC1E08&assignmentId=97f029b0-93e3-4b17-b5a8-e4453b835cb8&projectId=9076ac92-be42-43a2-9634-8b67c7fe93a7","A4B0360D515C40C1BB31545581FC1E08-2025-05-22-20-04-06","","1011","","images/semantic_sequence/exploring_nature_semantic/exploring_nature_semantic_4.png","0","",""
"","","","","","image-button-response","100","2415021","0.0-14.0-1.0-2.3","A4B0360D515C40C1BB31545581FC1E08","A4B0360D515C40C1BB31545581FC1E08","97f029b0-93e3-4b17-b5a8-e4453b835cb8","9076ac92-be42-43a2-9634-8b67c7fe93a7","{""num_scrambled_semantic"":""8"",""num_scrambled_causal"":""4"",""num_scrambled_schematic"":""4"",""participantId"":""A4B0360D515C40C1BB31545581FC1E08"",""assignmentId"":""97f029b0-93e3-4b17-b5a8-e4453b835cb8"",""projectId"":""9076ac92-be42-43a2-9634-8b67c7fe93a7""}","https://test12345.live/?num_scrambled_semantic=8&num_scrambled_causal=4&num_scrambled_schematic=4&participantId=A4B0360D515C40C1BB31545581FC1E08&assignmentId=97f029b0-93e3-4b17-b5a8-e4453b835cb8&projectId=9076ac92-be42-43a2-9634-8b67c7fe93a7","A4B0360D515C40C1BB31545581FC1E08-2025-05-22-20-04-06","","null","","[]","null","",""
"","","","","","image-button-response","101","2419532","0.0-14.0-1.0-0.4","A4B0360D515C40C1BB31545581FC1E08","A4B0360D515C40C1BB31545581FC1E08","97f029b0-93e3-4b17-b5a8-e4453b835cb8","9076ac92-be42-43a2-9634-8b67c7fe93a7","{""num_scrambled_semantic"":""8"",""num_scrambled_causal"":""4"",""num_scrambled_schematic"":""4"",""participantId"":""A4B0360D515C40C1BB31545581FC1E08"",""assignmentId"":""97f029b0-93e3-4b17-b5a8-e4453b835cb8"",""projectId"":""9076ac92-be42-43a2-9634-8b67c7fe93a7""}","https://test12345.live/?num_scrambled_semantic=8&num_scrambled_causal=4&num_scrambled_schematic=4&participantId=A4B0360D515C40C1BB31545581FC1E08&assignmentId=97f029b0-93e3-4b17-b5a8-e4453b835cb8&projectId=9076ac92-be42-43a2-9634-8b67c7fe93a7","A4B0360D515C40C1BB31545581FC1E08-2025-05-22-20-04-06","","null","","images/semantic_sequence/exploring_nature_semantic/exploring_nature_semantic_ten.png","null","",""
"","","","","","image-button-response","102","2420801","0.0-14.0-1.0-1.4","A4B0360D515C40C1BB31545581FC1E08","A4B0360D515C40C1BB31545581FC1E08","97f029b0-93e3-4b17-b5a8-e4453b835cb8","9076ac92-be42-43a2-9634-8b67c7fe93a7","{""num_scrambled_semantic"":""8"",""num_scrambled_causal"":""4"",""num_scrambled_schematic"":""4"",""participantId"":""A4B0360D515C40C1BB31545581FC1E08"",""assignmentId"":""97f029b0-93e3-4b17-b5a8-e4453b835cb8"",""projectId"":""9076ac92-be42-43a2-9634-8b67c7fe93a7""}","https://test12345.live/?num_scrambled_semantic=8&num_scrambled_causal=4&num_scrambled_schematic=4&participantId=A4B0360D515C40C1BB31545581FC1E08&assignmentId=97f029b0-93e3-4b17-b5a8-e4453b835cb8&projectId=9076ac92-be42-43a2-9634-8b67c7fe93a7","A4B0360D515C40C1BB31545581FC1E08-2025-05-22-20-04-06","","1267","","images/semantic_sequence/exploring_nature_semantic/exploring_nature_semantic_ten.png","0","",""
"","","","","","image-button-response","103","2422607","0.0-14.0-1.0-2.4","A4B0360D515C40C1BB31545581FC1E08","A4B0360D515C40C1BB31545581FC1E08","97f029b0-93e3-4b17-b5a8-e4453b835cb8","9076ac92-be42-43a2-9634-8b67c7fe93a7","{""num_scrambled_semantic"":""8"",""num_scrambled_causal"":""4"",""num_scrambled_schematic"":""4"",""participantId"":""A4B0360D515C40C1BB31545581FC1E08"",""assignmentId"":""97f029b0-93e3-4b17-b5a8-e4453b835cb8"",""projectId"":""9076ac92-be42-43a2-9634-8b67c7fe93a7""}","https://test12345.live/?num_scrambled_semantic=8&num_scrambled_causal=4&num_scrambled_schematic=4&participantId=A4B0360D515C40C1BB31545581FC1E08&assignmentId=97f029b0-93e3-4b17-b5a8-e4453b835cb8&projectId=9076ac92-be42-43a2-9634-8b67c7fe93a7","A4B0360D515C40C1BB31545581FC1E08-2025-05-22-20-04-06","","null","","[]","null","",""
"","","","","","image-button-response","104","2427120","0.0-14.0-1.0-0.5","A4B0360D515C40C1BB31545581FC1E08","A4B0360D515C40C1BB31545581FC1E08","97f029b0-93e3-4b17-b5a8-e4453b835cb8","9076ac92-be42-43a2-9634-8b67c7fe93a7","{""num_scrambled_semantic"":""8"",""num_scrambled_causal"":""4"",""num_scrambled_schematic"":""4"",""participantId"":""A4B0360D515C40C1BB31545581FC1E08"",""assignmentId"":""97f029b0-93e3-4b17-b5a8-e4453b835cb8"",""projectId"":""9076ac92-be42-43a2-9634-8b67c7fe93a7""}","https://test12345.live/?num_scrambled_semantic=8&num_scrambled_causal=4&num_scrambled_schematic=4&participantId=A4B0360D515C40C1BB31545581FC1E08&assignmentId=97f029b0-93e3-4b17-b5a8-e4453b835cb8&projectId=9076ac92-be42-43a2-9634-8b67c7fe93a7","A4B0360D515C40C1BB31545581FC1E08-2025-05-22-20-04-06","","null","","images/semantic_sequence/exploring_nature_semantic/exploring_nature_semantic_1.png","null","",""
"","","","","","image-button-response","105","2429496","0.0-14.0-1.0-1.5","A4B0360D515C40C1BB31545581FC1E08","A4B0360D515C40C1BB31545581FC1E08","97f029b0-93e3-4b17-b5a8-e4453b835cb8","9076ac92-be42-43a2-9634-8b67c7fe93a7","{""num_scrambled_semantic"":""8"",""num_scrambled_causal"":""4"",""num_scrambled_schematic"":""4"",""participantId"":""A4B0360D515C40C1BB31545581FC1E08"",""assignmentId"":""97f029b0-93e3-4b17-b5a8-e4453b835cb8"",""projectId"":""9076ac92-be42-43a2-9634-8b67c7fe93a7""}","https://test12345.live/?num_scrambled_semantic=8&num_scrambled_causal=4&num_scrambled_schematic=4&participantId=A4B0360D515C40C1BB31545581FC1E08&assignmentId=97f029b0-93e3-4b17-b5a8-e4453b835cb8&projectId=9076ac92-be42-43a2-9634-8b67c7fe93a7","A4B0360D515C40C1BB31545581FC1E08-2025-05-22-20-04-06","","2374","","images/semantic_sequence/exploring_nature_semantic/exploring_nature_semantic_1.png","0","",""
"","","","","","image-button-response","106","2431304","0.0-14.0-1.0-2.5","A4B0360D515C40C1BB31545581FC1E08","A4B0360D515C40C1BB31545581FC1E08","97f029b0-93e3-4b17-b5a8-e4453b835cb8","9076ac92-be42-43a2-9634-8b67c7fe93a7","{""num_scrambled_semantic"":""8"",""num_scrambled_causal"":""4"",""num_scrambled_schematic"":""4"",""participantId"":""A4B0360D515C40C1BB31545581FC1E08"",""assignmentId"":""97f029b0-93e3-4b17-b5a8-e4453b835cb8"",""projectId"":""9076ac92-be42-43a2-9634-8b67c7fe93a7""}","https://test12345.live/?num_scrambled_semantic=8&num_scrambled_causal=4&num_scrambled_schematic=4&participantId=A4B0360D515C40C1BB31545581FC1E08&assignmentId=97f029b0-93e3-4b17-b5a8-e4453b835cb8&projectId=9076ac92-be42-43a2-9634-8b67c7fe93a7","A4B0360D515C40C1BB31545581FC1E08-2025-05-22-20-04-06","","null","","[]","null","",""
"","","","","","image-button-response","107","2435817","0.0-14.0-1.0-0.6","A4B0360D515C40C1BB31545581FC1E08","A4B0360D515C40C1BB31545581FC1E08","97f029b0-93e3-4b17-b5a8-e4453b835cb8","9076ac92-be42-43a2-9634-8b67c7fe93a7","{""num_scrambled_semantic"":""8"",""num_scrambled_causal"":""4"",""num_scrambled_schematic"":""4"",""participantId"":""A4B0360D515C40C1BB31545581FC1E08"",""assignmentId"":""97f029b0-93e3-4b17-b5a8-e4453b835cb8"",""projectId"":""9076ac92-be42-43a2-9634-8b67c7fe93a7""}","https://test12345.live/?num_scrambled_semantic=8&num_scrambled_causal=4&num_scrambled_schematic=4&participantId=A4B0360D515C40C1BB31545581FC1E08&assignmentId=97f029b0-93e3-4b17-b5a8-e4453b835cb8&projectId=9076ac92-be42-43a2-9634-8b67c7fe93a7","A4B0360D515C40C1BB31545581FC1E08-2025-05-22-20-04-06","","null","","images/semantic_sequence/exploring_nature_semantic/exploring_nature_semantic_2.png","null","",""
"","","","","","image-button-response","108","2436915","0.0-14.0-1.0-1.6","A4B0360D515C40C1BB31545581FC1E08","A4B0360D515C40C1BB31545581FC1E08","97f029b0-93e3-4b17-b5a8-e4453b835cb8","9076ac92-be42-43a2-9634-8b67c7fe93a7","{""num_scrambled_semantic"":""8"",""num_scrambled_causal"":""4"",""num_scrambled_schematic"":""4"",""participantId"":""A4B0360D515C40C1BB31545581FC1E08"",""assignmentId"":""97f029b0-93e3-4b17-b5a8-e4453b835cb8"",""projectId"":""9076ac92-be42-43a2-9634-8b67c7fe93a7""}","https://test12345.live/?num_scrambled_semantic=8&num_scrambled_causal=4&num_scrambled_schematic=4&participantId=A4B0360D515C40C1BB31545581FC1E08&assignmentId=97f029b0-93e3-4b17-b5a8-e4453b835cb8&projectId=9076ac92-be42-43a2-9634-8b67c7fe93a7","A4B0360D515C40C1BB31545581FC1E08-2025-05-22-20-04-06","","1096","","images/semantic_sequence/exploring_nature_semantic/exploring_nature_semantic_2.png","0","",""
"","","","","","image-button-response","109","2438729","0.0-14.0-1.0-2.6","A4B0360D515C40C1BB31545581FC1E08","A4B0360D515C40C1BB31545581FC1E08","97f029b0-93e3-4b17-b5a8-e4453b835cb8","9076ac92-be42-43a2-9634-8b67c7fe93a7","{""num_scrambled_semantic"":""8"",""num_scrambled_causal"":""4"",""num_scrambled_schematic"":""4"",""participantId"":""A4B0360D515C40C1BB31545581FC1E08"",""assignmentId"":""97f029b0-93e3-4b17-b5a8-e4453b835cb8"",""projectId"":""9076ac92-be42-43a2-9634-8b67c7fe93a7""}","https://test12345.live/?num_scrambled_semantic=8&num_scrambled_causal=4&num_scrambled_schematic=4&participantId=A4B0360D515C40C1BB31545581FC1E08&assignmentId=97f029b0-93e3-4b17-b5a8-e4453b835cb8&projectId=9076ac92-be42-43a2-9634-8b67c7fe93a7","A4B0360D515C40C1BB31545581FC1E08-2025-05-22-20-04-06","","null","","[]","null","",""
"","","","","","image-button-response","110","2443234","0.0-14.0-1.0-0.7","A4B0360D515C40C1BB31545581FC1E08","A4B0360D515C40C1BB31545581FC1E08","97f029b0-93e3-4b17-b5a8-e4453b835cb8","9076ac92-be42-43a2-9634-8b67c7fe93a7","{""num_scrambled_semantic"":""8"",""num_scrambled_causal"":""4"",""num_scrambled_schematic"":""4"",""participantId"":""A4B0360D515C40C1BB31545581FC1E08"",""assignmentId"":""97f029b0-93e3-4b17-b5a8-e4453b835cb8"",""projectId"":""9076ac92-be42-43a2-9634-8b67c7fe93a7""}","https://test12345.live/?num_scrambled_semantic=8&num_scrambled_causal=4&num_scrambled_schematic=4&participantId=A4B0360D515C40C1BB31545581FC1E08&assignmentId=97f029b0-93e3-4b17-b5a8-e4453b835cb8&projectId=9076ac92-be42-43a2-9634-8b67c7fe93a7","A4B0360D515C40C1BB31545581FC1E08-2025-05-22-20-04-06","","null","","images/semantic_sequence/exploring_nature_semantic/exploring_nature_semantic_5.png","null","",""
"","","","","","image-button-response","111","2444870","0.0-14.0-1.0-1.7","A4B0360D515C40C1BB31545581FC1E08","A4B0360D515C40C1BB31545581FC1E08","97f029b0-93e3-4b17-b5a8-e4453b835cb8","9076ac92-be42-43a2-9634-8b67c7fe93a7","{""num_scrambled_semantic"":""8"",""num_scrambled_causal"":""4"",""num_scrambled_schematic"":""4"",""participantId"":""A4B0360D515C40C1BB31545581FC1E08"",""assignmentId"":""97f029b0-93e3-4b17-b5a8-e4453b835cb8"",""projectId"":""9076ac92-be42-43a2-9634-8b67c7fe93a7""}","https://test12345.live/?num_scrambled_semantic=8&num_scrambled_causal=4&num_scrambled_schematic=4&participantId=A4B0360D515C40C1BB31545581FC1E08&assignmentId=97f029b0-93e3-4b17-b5a8-e4453b835cb8&projectId=9076ac92-be42-43a2-9634-8b67c7fe93a7","A4B0360D515C40C1BB31545581FC1E08-2025-05-22-20-04-06","","1634","","images/semantic_sequence/exploring_nature_semantic/exploring_nature_semantic_5.png","0","",""
"","","","","","image-button-response","112","2446672","0.0-14.0-1.0-2.7","A4B0360D515C40C1BB31545581FC1E08","A4B0360D515C40C1BB31545581FC1E08","97f029b0-93e3-4b17-b5a8-e4453b835cb8","9076ac92-be42-43a2-9634-8b67c7fe93a7","{""num_scrambled_semantic"":""8"",""num_scrambled_causal"":""4"",""num_scrambled_schematic"":""4"",""participantId"":""A4B0360D515C40C1BB31545581FC1E08"",""assignmentId"":""97f029b0-93e3-4b17-b5a8-e4453b835cb8"",""projectId"":""9076ac92-be42-43a2-9634-8b67c7fe93a7""}","https://test12345.live/?num_scrambled_semantic=8&num_scrambled_causal=4&num_scrambled_schematic=4&participantId=A4B0360D515C40C1BB31545581FC1E08&assignmentId=97f029b0-93e3-4b17-b5a8-e4453b835cb8&projectId=9076ac92-be42-43a2-9634-8b67c7fe93a7","A4B0360D515C40C1BB31545581FC1E08-2025-05-22-20-04-06","","null","","[]","null","",""
"","","","","","image-button-response","113","2451183","0.0-14.0-1.0-0.8","A4B0360D515C40C1BB31545581FC1E08","A4B0360D515C40C1BB31545581FC1E08","97f029b0-93e3-4b17-b5a8-e4453b835cb8","9076ac92-be42-43a2-9634-8b67c7fe93a7","{""num_scrambled_semantic"":""8"",""num_scrambled_causal"":""4"",""num_scrambled_schematic"":""4"",""participantId"":""A4B0360D515C40C1BB31545581FC1E08"",""assignmentId"":""97f029b0-93e3-4b17-b5a8-e4453b835cb8"",""projectId"":""9076ac92-be42-43a2-9634-8b67c7fe93a7""}","https://test12345.live/?num_scrambled_semantic=8&num_scrambled_causal=4&num_scrambled_schematic=4&participantId=A4B0360D515C40C1BB31545581FC1E08&assignmentId=97f029b0-93e3-4b17-b5a8-e4453b835cb8&projectId=9076ac92-be42-43a2-9634-8b67c7fe93a7","A4B0360D515C40C1BB31545581FC1E08-2025-05-22-20-04-06","","null","","images/semantic_sequence/exploring_nature_semantic/exploring_nature_semantic_3.png","null","",""
