"success","timeout","failed_images","failed_audio","failed_video","trial_type","trial_index","time_elapsed","internal_node_id","subject","subject_id","study_id","session_id","urlvar","current_url","audio_id","view_history","rt","device_id","stimulus","response","estimated_stimulus_onset","seq_name"
"true","false","[]","[]","[]","preload","0","50046","0.0-0.0","A88B7E566F794A63B2C9CD11B78E018D","A88B7E566F794A63B2C9CD11B78E018D","0198ee47-bfeb-7e3b-9535-7ff3e31f6c2a","0198ee3c-27ac-7803-a9ea-f3b4ad4ad678","{""num_scrambled_semantic"":""8"",""num_scrambled_causal"":""4"",""num_scrambled_schematic"":""4"",""participantId"":""A88B7E566F794A63B2C9CD11B78E018D"",""assignmentId"":""0198ee47-bfeb-7e3b-9535-7ff3e31f6c2a"",""projectId"":""0198ee3c-27ac-7803-a9ea-f3b4ad4ad678""}","https://test12345.live/?num_scrambled_semantic=8&num_scrambled_causal=4&num_scrambled_schematic=4&participantId=A88B7E566F794A63B2C9CD11B78E018D&assignmentId=0198ee47-bfeb-7e3b-9535-7ff3e31f6c2a&projectId=0198ee3c-27ac-7803-a9ea-f3b4ad4ad678","A88B7E566F794A63B2C9CD11B78E018D-2025-08-28-02-06-49","","","","","","",""
"","","","","","instructions","1","164454","0.0-1.0","A88B7E566F794A63B2C9CD11B78E018D","A88B7E566F794A63B2C9CD11B78E018D","0198ee47-bfeb-7e3b-9535-7ff3e31f6c2a","0198ee3c-27ac-7803-a9ea-f3b4ad4ad678","{""num_scrambled_semantic"":""8"",""num_scrambled_causal"":""4"",""num_scrambled_schematic"":""4"",""participantId"":""A88B7E566F794A63B2C9CD11B78E018D"",""assignmentId"":""0198ee47-bfeb-7e3b-9535-7ff3e31f6c2a"",""projectId"":""0198ee3c-27ac-7803-a9ea-f3b4ad4ad678""}","https://test12345.live/?num_scrambled_semantic=8&num_scrambled_causal=4&num_scrambled_schematic=4&participantId=A88B7E566F794A63B2C9CD11B78E018D&assignmentId=0198ee47-bfeb-7e3b-9535-7ff3e31f6c2a&projectId=0198ee3c-27ac-7803-a9ea-f3b4ad4ad678","A88B7E566F794A63B2C9CD11B78E018D-2025-08-28-02-06-49","[{""page_index"":0,""viewing_time"":114405}]","114406","","","","",""
"","","","","","instructions","2","171697","0.0-2.0","A88B7E566F794A63B2C9CD11B78E018D","A88B7E566F794A63B2C9CD11B78E018D","0198ee47-bfeb-7e3b-9535-7ff3e31f6c2a","0198ee3c-27ac-7803-a9ea-f3b4ad4ad678","{""num_scrambled_semantic"":""8"",""num_scrambled_causal"":""4"",""num_scrambled_schematic"":""4"",""participantId"":""A88B7E566F794A63B2C9CD11B78E018D"",""assignmentId"":""0198ee47-bfeb-7e3b-9535-7ff3e31f6c2a"",""projectId"":""0198ee3c-27ac-7803-a9ea-f3b4ad4ad678""}","https://test12345.live/?num_scrambled_semantic=8&num_scrambled_causal=4&num_scrambled_schematic=4&participantId=A88B7E566F794A63B2C9CD11B78E018D&assignmentId=0198ee47-bfeb-7e3b-9535-7ff3e31f6c2a&projectId=0198ee3c-27ac-7803-a9ea-f3b4ad4ad678","A88B7E566F794A63B2C9CD11B78E018D-2025-08-28-02-06-49","[{""page_index"":0,""viewing_time"":7233}]","7243","","","","",""
"true","","","","","fullscreen","3","175406","0.0-3.0","A88B7E566F794A63B2C9CD11B78E018D","A88B7E566F794A63B2C9CD11B78E018D","0198ee47-bfeb-7e3b-9535-7ff3e31f6c2a","0198ee3c-27ac-7803-a9ea-f3b4ad4ad678","{""num_scrambled_semantic"":""8"",""num_scrambled_causal"":""4"",""num_scrambled_schematic"":""4"",""participantId"":""A88B7E566F794A63B2C9CD11B78E018D"",""assignmentId"":""0198ee47-bfeb-7e3b-9535-7ff3e31f6c2a"",""projectId"":""0198ee3c-27ac-7803-a9ea-f3b4ad4ad678""}","https://test12345.live/?num_scrambled_semantic=8&num_scrambled_causal=4&num_scrambled_schematic=4&participantId=A88B7E566F794A63B2C9CD11B78E018D&assignmentId=0198ee47-bfeb-7e3b-9535-7ff3e31f6c2a&projectId=0198ee3c-27ac-7803-a9ea-f3b4ad4ad678","A88B7E566F794A63B2C9CD11B78E018D-2025-08-28-02-06-49","","2705","","","","",""
"","","","","","initialize-microphone","4","184109","0.0-4.0-0.0","A88B7E566F794A63B2C9CD11B78E018D","A88B7E566F794A63B2C9CD11B78E018D","0198ee47-bfeb-7e3b-9535-7ff3e31f6c2a","0198ee3c-27ac-7803-a9ea-f3b4ad4ad678","{""num_scrambled_semantic"":""8"",""num_scrambled_causal"":""4"",""num_scrambled_schematic"":""4"",""participantId"":""A88B7E566F794A63B2C9CD11B78E018D"",""assignmentId"":""0198ee47-bfeb-7e3b-9535-7ff3e31f6c2a"",""projectId"":""0198ee3c-27ac-7803-a9ea-f3b4ad4ad678""}","https://test12345.live/?num_scrambled_semantic=8&num_scrambled_causal=4&num_scrambled_schematic=4&participantId=A88B7E566F794A63B2C9CD11B78E018D&assignmentId=0198ee47-bfeb-7e3b-9535-7ff3e31f6c2a&projectId=0198ee3c-27ac-7803-a9ea-f3b4ad4ad678","A88B7E566F794A63B2C9CD11B78E018D-2025-08-28-02-06-49","","","83A4CD594FAC9EB8E09E7641F8276015B18C4D62","","","",""
"","","","","","html-audio-response","5","195121","0.0-4.0-1.0","A88B7E566F794A63B2C9CD11B78E018D","A88B7E566F794A63B2C9CD11B78E018D","0198ee47-bfeb-7e3b-9535-7ff3e31f6c2a","0198ee3c-27ac-7803-a9ea-f3b4ad4ad678","{""num_scrambled_semantic"":""8"",""num_scrambled_causal"":""4"",""num_scrambled_schematic"":""4"",""participantId"":""A88B7E566F794A63B2C9CD11B78E018D"",""assignmentId"":""0198ee47-bfeb-7e3b-9535-7ff3e31f6c2a"",""projectId"":""0198ee3c-27ac-7803-a9ea-f3b4ad4ad678""}","https://test12345.live/?num_scrambled_semantic=8&num_scrambled_causal=4&num_scrambled_schematic=4&participantId=A88B7E566F794A63B2C9CD11B78E018D&assignmentId=0198ee47-bfeb-7e3b-9535-7ff3e31f6c2a&projectId=0198ee3c-27ac-7803-a9ea-f3b4ad4ad678","A88B7E566F794A63B2C9CD11B78E018D-2025-08-28-02-06-49","","3149","","<span style=""color: red; font-size: 24px""> NOW RECORDING</span>
        <p>Please test Microphone</p>","","1",""
"","","","","","html-button-response","6","198371","0.0-4.0-2.0","A88B7E566F794A63B2C9CD11B78E018D","A88B7E566F794A63B2C9CD11B78E018D","0198ee47-bfeb-7e3b-9535-7ff3e31f6c2a","0198ee3c-27ac-7803-a9ea-f3b4ad4ad678","{""num_scrambled_semantic"":""8"",""num_scrambled_causal"":""4"",""num_scrambled_schematic"":""4"",""participantId"":""A88B7E566F794A63B2C9CD11B78E018D"",""assignmentId"":""0198ee47-bfeb-7e3b-9535-7ff3e31f6c2a"",""projectId"":""0198ee3c-27ac-7803-a9ea-f3b4ad4ad678""}","https://test12345.live/?num_scrambled_semantic=8&num_scrambled_causal=4&num_scrambled_schematic=4&participantId=A88B7E566F794A63B2C9CD11B78E018D&assignmentId=0198ee47-bfeb-7e3b-9535-7ff3e31f6c2a&projectId=0198ee3c-27ac-7803-a9ea-f3b4ad4ad678","A88B7E566F794A63B2C9CD11B78E018D-2025-08-28-02-06-49","","3248","","<p style=""font-size:48px; color:red;"">Is Microphone OK?</p>","1","",""
"","","","","","instructions","7","206620","0.0-5.0","A88B7E566F794A63B2C9CD11B78E018D","A88B7E566F794A63B2C9CD11B78E018D","0198ee47-bfeb-7e3b-9535-7ff3e31f6c2a","0198ee3c-27ac-7803-a9ea-f3b4ad4ad678","{""num_scrambled_semantic"":""8"",""num_scrambled_causal"":""4"",""num_scrambled_schematic"":""4"",""participantId"":""A88B7E566F794A63B2C9CD11B78E018D"",""assignmentId"":""0198ee47-bfeb-7e3b-9535-7ff3e31f6c2a"",""projectId"":""0198ee3c-27ac-7803-a9ea-f3b4ad4ad678""}","https://test12345.live/?num_scrambled_semantic=8&num_scrambled_causal=4&num_scrambled_schematic=4&participantId=A88B7E566F794A63B2C9CD11B78E018D&assignmentId=0198ee47-bfeb-7e3b-9535-7ff3e31f6c2a&projectId=0198ee3c-27ac-7803-a9ea-f3b4ad4ad678","A88B7E566F794A63B2C9CD11B78E018D-2025-08-28-02-06-49","[{""page_index"":0,""viewing_time"":6648},{""page_index"":1,""viewing_time"":1600}]","8248","","","","",""
"","","","","","image-button-response","8","212632","0.0-6.0-0.0","A88B7E566F794A63B2C9CD11B78E018D","A88B7E566F794A63B2C9CD11B78E018D","0198ee47-bfeb-7e3b-9535-7ff3e31f6c2a","0198ee3c-27ac-7803-a9ea-f3b4ad4ad678","{""num_scrambled_semantic"":""8"",""num_scrambled_causal"":""4"",""num_scrambled_schematic"":""4"",""participantId"":""A88B7E566F794A63B2C9CD11B78E018D"",""assignmentId"":""0198ee47-bfeb-7e3b-9535-7ff3e31f6c2a"",""projectId"":""0198ee3c-27ac-7803-a9ea-f3b4ad4ad678""}","https://test12345.live/?num_scrambled_semantic=8&num_scrambled_causal=4&num_scrambled_schematic=4&participantId=A88B7E566F794A63B2C9CD11B78E018D&assignmentId=0198ee47-bfeb-7e3b-9535-7ff3e31f6c2a&projectId=0198ee3c-27ac-7803-a9ea-f3b4ad4ad678","A88B7E566F794A63B2C9CD11B78E018D-2025-08-28-02-06-49","","null","","images/instructions/movie_0.png","null","",""
"","","","","","image-button-response","9","217156","0.0-6.0-1.0-0.0","A88B7E566F794A63B2C9CD11B78E018D","A88B7E566F794A63B2C9CD11B78E018D","0198ee47-bfeb-7e3b-9535-7ff3e31f6c2a","0198ee3c-27ac-7803-a9ea-f3b4ad4ad678","{""num_scrambled_semantic"":""8"",""num_scrambled_causal"":""4"",""num_scrambled_schematic"":""4"",""participantId"":""A88B7E566F794A63B2C9CD11B78E018D"",""assignmentId"":""0198ee47-bfeb-7e3b-9535-7ff3e31f6c2a"",""projectId"":""0198ee3c-27ac-7803-a9ea-f3b4ad4ad678""}","https://test12345.live/?num_scrambled_semantic=8&num_scrambled_causal=4&num_scrambled_schematic=4&participantId=A88B7E566F794A63B2C9CD11B78E018D&assignmentId=0198ee47-bfeb-7e3b-9535-7ff3e31f6c2a&projectId=0198ee3c-27ac-7803-a9ea-f3b4ad4ad678","A88B7E566F794A63B2C9CD11B78E018D-2025-08-28-02-06-49","","null","","images/instructions/movie_1.png","null","",""
"","","","","","image-button-response","10","221158","0.0-6.0-1.0-1.0","A88B7E566F794A63B2C9CD11B78E018D","A88B7E566F794A63B2C9CD11B78E018D","0198ee47-bfeb-7e3b-9535-7ff3e31f6c2a","0198ee3c-27ac-7803-a9ea-f3b4ad4ad678","{""num_scrambled_semantic"":""8"",""num_scrambled_causal"":""4"",""num_scrambled_schematic"":""4"",""participantId"":""A88B7E566F794A63B2C9CD11B78E018D"",""assignmentId"":""0198ee47-bfeb-7e3b-9535-7ff3e31f6c2a"",""projectId"":""0198ee3c-27ac-7803-a9ea-f3b4ad4ad678""}","https://test12345.live/?num_scrambled_semantic=8&num_scrambled_causal=4&num_scrambled_schematic=4&participantId=A88B7E566F794A63B2C9CD11B78E018D&assignmentId=0198ee47-bfeb-7e3b-9535-7ff3e31f6c2a&projectId=0198ee3c-27ac-7803-a9ea-f3b4ad4ad678","A88B7E566F794A63B2C9CD11B78E018D-2025-08-28-02-06-49","","null","","images/instructions/movie_1.png","null","",""
"","","","","","image-button-response","11","222960","0.0-6.0-1.0-2.0","A88B7E566F794A63B2C9CD11B78E018D","A88B7E566F794A63B2C9CD11B78E018D","0198ee47-bfeb-7e3b-9535-7ff3e31f6c2a","0198ee3c-27ac-7803-a9ea-f3b4ad4ad678","{""num_scrambled_semantic"":""8"",""num_scrambled_causal"":""4"",""num_scrambled_schematic"":""4"",""participantId"":""A88B7E566F794A63B2C9CD11B78E018D"",""assignmentId"":""0198ee47-bfeb-7e3b-9535-7ff3e31f6c2a"",""projectId"":""0198ee3c-27ac-7803-a9ea-f3b4ad4ad678""}","https://test12345.live/?num_scrambled_semantic=8&num_scrambled_causal=4&num_scrambled_schematic=4&participantId=A88B7E566F794A63B2C9CD11B78E018D&assignmentId=0198ee47-bfeb-7e3b-9535-7ff3e31f6c2a&projectId=0198ee3c-27ac-7803-a9ea-f3b4ad4ad678","A88B7E566F794A63B2C9CD11B78E018D-2025-08-28-02-06-49","","null","","[]","null","",""
"","","","","","image-button-response","12","227481","0.0-6.0-1.0-0.1","A88B7E566F794A63B2C9CD11B78E018D","A88B7E566F794A63B2C9CD11B78E018D","0198ee47-bfeb-7e3b-9535-7ff3e31f6c2a","0198ee3c-27ac-7803-a9ea-f3b4ad4ad678","{""num_scrambled_semantic"":""8"",""num_scrambled_causal"":""4"",""num_scrambled_schematic"":""4"",""participantId"":""A88B7E566F794A63B2C9CD11B78E018D"",""assignmentId"":""0198ee47-bfeb-7e3b-9535-7ff3e31f6c2a"",""projectId"":""0198ee3c-27ac-7803-a9ea-f3b4ad4ad678""}","https://test12345.live/?num_scrambled_semantic=8&num_scrambled_causal=4&num_scrambled_schematic=4&participantId=A88B7E566F794A63B2C9CD11B78E018D&assignmentId=0198ee47-bfeb-7e3b-9535-7ff3e31f6c2a&projectId=0198ee3c-27ac-7803-a9ea-f3b4ad4ad678","A88B7E566F794A63B2C9CD11B78E018D-2025-08-28-02-06-49","","null","","images/instructions/movie_2.png","null","",""
"","","","","","image-button-response","13","228770","0.0-6.0-1.0-1.1","A88B7E566F794A63B2C9CD11B78E018D","A88B7E566F794A63B2C9CD11B78E018D","0198ee47-bfeb-7e3b-9535-7ff3e31f6c2a","0198ee3c-27ac-7803-a9ea-f3b4ad4ad678","{""num_scrambled_semantic"":""8"",""num_scrambled_causal"":""4"",""num_scrambled_schematic"":""4"",""participantId"":""A88B7E566F794A63B2C9CD11B78E018D"",""assignmentId"":""0198ee47-bfeb-7e3b-9535-7ff3e31f6c2a"",""projectId"":""0198ee3c-27ac-7803-a9ea-f3b4ad4ad678""}","https://test12345.live/?num_scrambled_semantic=8&num_scrambled_causal=4&num_scrambled_schematic=4&participantId=A88B7E566F794A63B2C9CD11B78E018D&assignmentId=0198ee47-bfeb-7e3b-9535-7ff3e31f6c2a&projectId=0198ee3c-27ac-7803-a9ea-f3b4ad4ad678","A88B7E566F794A63B2C9CD11B78E018D-2025-08-28-02-06-49","","1287","","images/instructions/movie_2.png","0","",""
"","","","","","image-button-response","14","230572","0.0-6.0-1.0-2.1","A88B7E566F794A63B2C9CD11B78E018D","A88B7E566F794A63B2C9CD11B78E018D","0198ee47-bfeb-7e3b-9535-7ff3e31f6c2a","0198ee3c-27ac-7803-a9ea-f3b4ad4ad678","{""num_scrambled_semantic"":""8"",""num_scrambled_causal"":""4"",""num_scrambled_schematic"":""4"",""participantId"":""A88B7E566F794A63B2C9CD11B78E018D"",""assignmentId"":""0198ee47-bfeb-7e3b-9535-7ff3e31f6c2a"",""projectId"":""0198ee3c-27ac-7803-a9ea-f3b4ad4ad678""}","https://test12345.live/?num_scrambled_semantic=8&num_scrambled_causal=4&num_scrambled_schematic=4&participantId=A88B7E566F794A63B2C9CD11B78E018D&assignmentId=0198ee47-bfeb-7e3b-9535-7ff3e31f6c2a&projectId=0198ee3c-27ac-7803-a9ea-f3b4ad4ad678","A88B7E566F794A63B2C9CD11B78E018D-2025-08-28-02-06-49","","null","","[]","null","",""
"","","","","","image-button-response","15","235093","0.0-6.0-1.0-0.2","A88B7E566F794A63B2C9CD11B78E018D","A88B7E566F794A63B2C9CD11B78E018D","0198ee47-bfeb-7e3b-9535-7ff3e31f6c2a","0198ee3c-27ac-7803-a9ea-f3b4ad4ad678","{""num_scrambled_semantic"":""8"",""num_scrambled_causal"":""4"",""num_scrambled_schematic"":""4"",""participantId"":""A88B7E566F794A63B2C9CD11B78E018D"",""assignmentId"":""0198ee47-bfeb-7e3b-9535-7ff3e31f6c2a"",""projectId"":""0198ee3c-27ac-7803-a9ea-f3b4ad4ad678""}","https://test12345.live/?num_scrambled_semantic=8&num_scrambled_causal=4&num_scrambled_schematic=4&participantId=A88B7E566F794A63B2C9CD11B78E018D&assignmentId=0198ee47-bfeb-7e3b-9535-7ff3e31f6c2a&projectId=0198ee3c-27ac-7803-a9ea-f3b4ad4ad678","A88B7E566F794A63B2C9CD11B78E018D-2025-08-28-02-06-49","","null","","images/instructions/movie_3.png","null","",""
"","","","","","image-button-response","16","236038","0.0-6.0-1.0-1.2","A88B7E566F794A63B2C9CD11B78E018D","A88B7E566F794A63B2C9CD11B78E018D","0198ee47-bfeb-7e3b-9535-7ff3e31f6c2a","0198ee3c-27ac-7803-a9ea-f3b4ad4ad678","{""num_scrambled_semantic"":""8"",""num_scrambled_causal"":""4"",""num_scrambled_schematic"":""4"",""participantId"":""A88B7E566F794A63B2C9CD11B78E018D"",""assignmentId"":""0198ee47-bfeb-7e3b-9535-7ff3e31f6c2a"",""projectId"":""0198ee3c-27ac-7803-a9ea-f3b4ad4ad678""}","https://test12345.live/?num_scrambled_semantic=8&num_scrambled_causal=4&num_scrambled_schematic=4&participantId=A88B7E566F794A63B2C9CD11B78E018D&assignmentId=0198ee47-bfeb-7e3b-9535-7ff3e31f6c2a&projectId=0198ee3c-27ac-7803-a9ea-f3b4ad4ad678","A88B7E566F794A63B2C9CD11B78E018D-2025-08-28-02-06-49","","944","","images/instructions/movie_3.png","0","",""
"","","","","","image-button-response","17","237840","0.0-6.0-1.0-2.2","A88B7E566F794A63B2C9CD11B78E018D","A88B7E566F794A63B2C9CD11B78E018D","0198ee47-bfeb-7e3b-9535-7ff3e31f6c2a","0198ee3c-27ac-7803-a9ea-f3b4ad4ad678","{""num_scrambled_semantic"":""8"",""num_scrambled_causal"":""4"",""num_scrambled_schematic"":""4"",""participantId"":""A88B7E566F794A63B2C9CD11B78E018D"",""assignmentId"":""0198ee47-bfeb-7e3b-9535-7ff3e31f6c2a"",""projectId"":""0198ee3c-27ac-7803-a9ea-f3b4ad4ad678""}","https://test12345.live/?num_scrambled_semantic=8&num_scrambled_causal=4&num_scrambled_schematic=4&participantId=A88B7E566F794A63B2C9CD11B78E018D&assignmentId=0198ee47-bfeb-7e3b-9535-7ff3e31f6c2a&projectId=0198ee3c-27ac-7803-a9ea-f3b4ad4ad678","A88B7E566F794A63B2C9CD11B78E018D-2025-08-28-02-06-49","","null","","[]","null","",""
"","","","","","image-button-response","18","242361","0.0-6.0-1.0-0.3","A88B7E566F794A63B2C9CD11B78E018D","A88B7E566F794A63B2C9CD11B78E018D","0198ee47-bfeb-7e3b-9535-7ff3e31f6c2a","0198ee3c-27ac-7803-a9ea-f3b4ad4ad678","{""num_scrambled_semantic"":""8"",""num_scrambled_causal"":""4"",""num_scrambled_schematic"":""4"",""participantId"":""A88B7E566F794A63B2C9CD11B78E018D"",""assignmentId"":""0198ee47-bfeb-7e3b-9535-7ff3e31f6c2a"",""projectId"":""0198ee3c-27ac-7803-a9ea-f3b4ad4ad678""}","https://test12345.live/?num_scrambled_semantic=8&num_scrambled_causal=4&num_scrambled_schematic=4&participantId=A88B7E566F794A63B2C9CD11B78E018D&assignmentId=0198ee47-bfeb-7e3b-9535-7ff3e31f6c2a&projectId=0198ee3c-27ac-7803-a9ea-f3b4ad4ad678","A88B7E566F794A63B2C9CD11B78E018D-2025-08-28-02-06-49","","null","","images/instructions/movie_4.png","null","",""
"","","","","","image-button-response","19","243471","0.0-6.0-1.0-1.3","A88B7E566F794A63B2C9CD11B78E018D","A88B7E566F794A63B2C9CD11B78E018D","0198ee47-bfeb-7e3b-9535-7ff3e31f6c2a","0198ee3c-27ac-7803-a9ea-f3b4ad4ad678","{""num_scrambled_semantic"":""8"",""num_scrambled_causal"":""4"",""num_scrambled_schematic"":""4"",""participantId"":""A88B7E566F794A63B2C9CD11B78E018D"",""assignmentId"":""0198ee47-bfeb-7e3b-9535-7ff3e31f6c2a"",""projectId"":""0198ee3c-27ac-7803-a9ea-f3b4ad4ad678""}","https://test12345.live/?num_scrambled_semantic=8&num_scrambled_causal=4&num_scrambled_schematic=4&participantId=A88B7E566F794A63B2C9CD11B78E018D&assignmentId=0198ee47-bfeb-7e3b-9535-7ff3e31f6c2a&projectId=0198ee3c-27ac-7803-a9ea-f3b4ad4ad678","A88B7E566F794A63B2C9CD11B78E018D-2025-08-28-02-06-49","","1108","","images/instructions/movie_4.png","0","",""
"","","","","","image-button-response","20","245273","0.0-6.0-1.0-2.3","A88B7E566F794A63B2C9CD11B78E018D","A88B7E566F794A63B2C9CD11B78E018D","0198ee47-bfeb-7e3b-9535-7ff3e31f6c2a","0198ee3c-27ac-7803-a9ea-f3b4ad4ad678","{""num_scrambled_semantic"":""8"",""num_scrambled_causal"":""4"",""num_scrambled_schematic"":""4"",""participantId"":""A88B7E566F794A63B2C9CD11B78E018D"",""assignmentId"":""0198ee47-bfeb-7e3b-9535-7ff3e31f6c2a"",""projectId"":""0198ee3c-27ac-7803-a9ea-f3b4ad4ad678""}","https://test12345.live/?num_scrambled_semantic=8&num_scrambled_causal=4&num_scrambled_schematic=4&participantId=A88B7E566F794A63B2C9CD11B78E018D&assignmentId=0198ee47-bfeb-7e3b-9535-7ff3e31f6c2a&projectId=0198ee3c-27ac-7803-a9ea-f3b4ad4ad678","A88B7E566F794A63B2C9CD11B78E018D-2025-08-28-02-06-49","","null","","[]","null","",""
"","","","","","instructions","21","250737","0.0-7.0","A88B7E566F794A63B2C9CD11B78E018D","A88B7E566F794A63B2C9CD11B78E018D","0198ee47-bfeb-7e3b-9535-7ff3e31f6c2a","0198ee3c-27ac-7803-a9ea-f3b4ad4ad678","{""num_scrambled_semantic"":""8"",""num_scrambled_causal"":""4"",""num_scrambled_schematic"":""4"",""participantId"":""A88B7E566F794A63B2C9CD11B78E018D"",""assignmentId"":""0198ee47-bfeb-7e3b-9535-7ff3e31f6c2a"",""projectId"":""0198ee3c-27ac-7803-a9ea-f3b4ad4ad678""}","https://test12345.live/?num_scrambled_semantic=8&num_scrambled_causal=4&num_scrambled_schematic=4&participantId=A88B7E566F794A63B2C9CD11B78E018D&assignmentId=0198ee47-bfeb-7e3b-9535-7ff3e31f6c2a&projectId=0198ee3c-27ac-7803-a9ea-f3b4ad4ad678","A88B7E566F794A63B2C9CD11B78E018D-2025-08-28-02-06-49","[{""page_index"":0,""viewing_time"":5463}]","5463","","","","",""
"","","","","","html-audio-response","22","262871","0.0-8.0","A88B7E566F794A63B2C9CD11B78E018D","A88B7E566F794A63B2C9CD11B78E018D","0198ee47-bfeb-7e3b-9535-7ff3e31f6c2a","0198ee3c-27ac-7803-a9ea-f3b4ad4ad678","{""num_scrambled_semantic"":""8"",""num_scrambled_causal"":""4"",""num_scrambled_schematic"":""4"",""participantId"":""A88B7E566F794A63B2C9CD11B78E018D"",""assignmentId"":""0198ee47-bfeb-7e3b-9535-7ff3e31f6c2a"",""projectId"":""0198ee3c-27ac-7803-a9ea-f3b4ad4ad678""}","https://test12345.live/?num_scrambled_semantic=8&num_scrambled_causal=4&num_scrambled_schematic=4&participantId=A88B7E566F794A63B2C9CD11B78E018D&assignmentId=0198ee47-bfeb-7e3b-9535-7ff3e31f6c2a&projectId=0198ee3c-27ac-7803-a9ea-f3b4ad4ad678","A88B7E566F794A63B2C9CD11B78E018D-2025-08-28-02-06-49","","10887","","[""<span style=\""color: red; font-size: 24px\""> NOW RECORDING</span><p>Please say out loud all the images you saw, in the order of the story they create. Try to recall the sequence of events as they appeared in the story, not necessarily the order they were presented on the screen.</p>""]","","13",""
"","","","","","instructions","23","265171","0.0-9.0","A88B7E566F794A63B2C9CD11B78E018D","A88B7E566F794A63B2C9CD11B78E018D","0198ee47-bfeb-7e3b-9535-7ff3e31f6c2a","0198ee3c-27ac-7803-a9ea-f3b4ad4ad678","{""num_scrambled_semantic"":""8"",""num_scrambled_causal"":""4"",""num_scrambled_schematic"":""4"",""participantId"":""A88B7E566F794A63B2C9CD11B78E018D"",""assignmentId"":""0198ee47-bfeb-7e3b-9535-7ff3e31f6c2a"",""projectId"":""0198ee3c-27ac-7803-a9ea-f3b4ad4ad678""}","https://test12345.live/?num_scrambled_semantic=8&num_scrambled_causal=4&num_scrambled_schematic=4&participantId=A88B7E566F794A63B2C9CD11B78E018D&assignmentId=0198ee47-bfeb-7e3b-9535-7ff3e31f6c2a&projectId=0198ee3c-27ac-7803-a9ea-f3b4ad4ad678","A88B7E566F794A63B2C9CD11B78E018D-2025-08-28-02-06-49","[{""page_index"":0,""viewing_time"":2297}]","2297","","","","",""
"","","","","","image-button-response","24","271180","0.0-10.0-0.0","A88B7E566F794A63B2C9CD11B78E018D","A88B7E566F794A63B2C9CD11B78E018D","0198ee47-bfeb-7e3b-9535-7ff3e31f6c2a","0198ee3c-27ac-7803-a9ea-f3b4ad4ad678","{""num_scrambled_semantic"":""8"",""num_scrambled_causal"":""4"",""num_scrambled_schematic"":""4"",""participantId"":""A88B7E566F794A63B2C9CD11B78E018D"",""assignmentId"":""0198ee47-bfeb-7e3b-9535-7ff3e31f6c2a"",""projectId"":""0198ee3c-27ac-7803-a9ea-f3b4ad4ad678""}","https://test12345.live/?num_scrambled_semantic=8&num_scrambled_causal=4&num_scrambled_schematic=4&participantId=A88B7E566F794A63B2C9CD11B78E018D&assignmentId=0198ee47-bfeb-7e3b-9535-7ff3e31f6c2a&projectId=0198ee3c-27ac-7803-a9ea-f3b4ad4ad678","A88B7E566F794A63B2C9CD11B78E018D-2025-08-28-02-06-49","","null","","images/semantic_sequence/visiting_cities_semantic/visiting_cities_semantic_0.png","null","",""
"","","","","","image-button-response","25","275702","0.0-10.0-1.0-0.0","A88B7E566F794A63B2C9CD11B78E018D","A88B7E566F794A63B2C9CD11B78E018D","0198ee47-bfeb-7e3b-9535-7ff3e31f6c2a","0198ee3c-27ac-7803-a9ea-f3b4ad4ad678","{""num_scrambled_semantic"":""8"",""num_scrambled_causal"":""4"",""num_scrambled_schematic"":""4"",""participantId"":""A88B7E566F794A63B2C9CD11B78E018D"",""assignmentId"":""0198ee47-bfeb-7e3b-9535-7ff3e31f6c2a"",""projectId"":""0198ee3c-27ac-7803-a9ea-f3b4ad4ad678""}","https://test12345.live/?num_scrambled_semantic=8&num_scrambled_causal=4&num_scrambled_schematic=4&participantId=A88B7E566F794A63B2C9CD11B78E018D&assignmentId=0198ee47-bfeb-7e3b-9535-7ff3e31f6c2a&projectId=0198ee3c-27ac-7803-a9ea-f3b4ad4ad678","A88B7E566F794A63B2C9CD11B78E018D-2025-08-28-02-06-49","","null","","images/semantic_sequence/visiting_cities_semantic/visiting_cities_semantic_1.png","null","",""
"","","","","","image-button-response","26","278855","0.0-10.0-1.0-1.0","A88B7E566F794A63B2C9CD11B78E018D","A88B7E566F794A63B2C9CD11B78E018D","0198ee47-bfeb-7e3b-9535-7ff3e31f6c2a","0198ee3c-27ac-7803-a9ea-f3b4ad4ad678","{""num_scrambled_semantic"":""8"",""num_scrambled_causal"":""4"",""num_scrambled_schematic"":""4"",""participantId"":""A88B7E566F794A63B2C9CD11B78E018D"",""assignmentId"":""0198ee47-bfeb-7e3b-9535-7ff3e31f6c2a"",""projectId"":""0198ee3c-27ac-7803-a9ea-f3b4ad4ad678""}","https://test12345.live/?num_scrambled_semantic=8&num_scrambled_causal=4&num_scrambled_schematic=4&participantId=A88B7E566F794A63B2C9CD11B78E018D&assignmentId=0198ee47-bfeb-7e3b-9535-7ff3e31f6c2a&projectId=0198ee3c-27ac-7803-a9ea-f3b4ad4ad678","A88B7E566F794A63B2C9CD11B78E018D-2025-08-28-02-06-49","","3152","","images/semantic_sequence/visiting_cities_semantic/visiting_cities_semantic_1.png","0","",""
"","","","","","image-button-response","27","280656","0.0-10.0-1.0-2.0","A88B7E566F794A63B2C9CD11B78E018D","A88B7E566F794A63B2C9CD11B78E018D","0198ee47-bfeb-7e3b-9535-7ff3e31f6c2a","0198ee3c-27ac-7803-a9ea-f3b4ad4ad678","{""num_scrambled_semantic"":""8"",""num_scrambled_causal"":""4"",""num_scrambled_schematic"":""4"",""participantId"":""A88B7E566F794A63B2C9CD11B78E018D"",""assignmentId"":""0198ee47-bfeb-7e3b-9535-7ff3e31f6c2a"",""projectId"":""0198ee3c-27ac-7803-a9ea-f3b4ad4ad678""}","https://test12345.live/?num_scrambled_semantic=8&num_scrambled_causal=4&num_scrambled_schematic=4&participantId=A88B7E566F794A63B2C9CD11B78E018D&assignmentId=0198ee47-bfeb-7e3b-9535-7ff3e31f6c2a&projectId=0198ee3c-27ac-7803-a9ea-f3b4ad4ad678","A88B7E566F794A63B2C9CD11B78E018D-2025-08-28-02-06-49","","null","","[]","null","",""
"","","","","","image-button-response","28","285178","0.0-10.0-1.0-0.1","A88B7E566F794A63B2C9CD11B78E018D","A88B7E566F794A63B2C9CD11B78E018D","0198ee47-bfeb-7e3b-9535-7ff3e31f6c2a","0198ee3c-27ac-7803-a9ea-f3b4ad4ad678","{""num_scrambled_semantic"":""8"",""num_scrambled_causal"":""4"",""num_scrambled_schematic"":""4"",""participantId"":""A88B7E566F794A63B2C9CD11B78E018D"",""assignmentId"":""0198ee47-bfeb-7e3b-9535-7ff3e31f6c2a"",""projectId"":""0198ee3c-27ac-7803-a9ea-f3b4ad4ad678""}","https://test12345.live/?num_scrambled_semantic=8&num_scrambled_causal=4&num_scrambled_schematic=4&participantId=A88B7E566F794A63B2C9CD11B78E018D&assignmentId=0198ee47-bfeb-7e3b-9535-7ff3e31f6c2a&projectId=0198ee3c-27ac-7803-a9ea-f3b4ad4ad678","A88B7E566F794A63B2C9CD11B78E018D-2025-08-28-02-06-49","","null","","images/semantic_sequence/visiting_cities_semantic/visiting_cities_semantic_2.png","null","",""
"","","","","","image-button-response","29","286054","0.0-10.0-1.0-1.1","A88B7E566F794A63B2C9CD11B78E018D","A88B7E566F794A63B2C9CD11B78E018D","0198ee47-bfeb-7e3b-9535-7ff3e31f6c2a","0198ee3c-27ac-7803-a9ea-f3b4ad4ad678","{""num_scrambled_semantic"":""8"",""num_scrambled_causal"":""4"",""num_scrambled_schematic"":""4"",""participantId"":""A88B7E566F794A63B2C9CD11B78E018D"",""assignmentId"":""0198ee47-bfeb-7e3b-9535-7ff3e31f6c2a"",""projectId"":""0198ee3c-27ac-7803-a9ea-f3b4ad4ad678""}","https://test12345.live/?num_scrambled_semantic=8&num_scrambled_causal=4&num_scrambled_schematic=4&participantId=A88B7E566F794A63B2C9CD11B78E018D&assignmentId=0198ee47-bfeb-7e3b-9535-7ff3e31f6c2a&projectId=0198ee3c-27ac-7803-a9ea-f3b4ad4ad678","A88B7E566F794A63B2C9CD11B78E018D-2025-08-28-02-06-49","","874","","images/semantic_sequence/visiting_cities_semantic/visiting_cities_semantic_2.png","1","",""
"","","","","","image-button-response","30","287857","0.0-10.0-1.0-2.1","A88B7E566F794A63B2C9CD11B78E018D","A88B7E566F794A63B2C9CD11B78E018D","0198ee47-bfeb-7e3b-9535-7ff3e31f6c2a","0198ee3c-27ac-7803-a9ea-f3b4ad4ad678","{""num_scrambled_semantic"":""8"",""num_scrambled_causal"":""4"",""num_scrambled_schematic"":""4"",""participantId"":""A88B7E566F794A63B2C9CD11B78E018D"",""assignmentId"":""0198ee47-bfeb-7e3b-9535-7ff3e31f6c2a"",""projectId"":""0198ee3c-27ac-7803-a9ea-f3b4ad4ad678""}","https://test12345.live/?num_scrambled_semantic=8&num_scrambled_causal=4&num_scrambled_schematic=4&participantId=A88B7E566F794A63B2C9CD11B78E018D&assignmentId=0198ee47-bfeb-7e3b-9535-7ff3e31f6c2a&projectId=0198ee3c-27ac-7803-a9ea-f3b4ad4ad678","A88B7E566F794A63B2C9CD11B78E018D-2025-08-28-02-06-49","","null","","[]","null","",""
"","","","","","image-button-response","31","292377","0.0-10.0-1.0-0.2","A88B7E566F794A63B2C9CD11B78E018D","A88B7E566F794A63B2C9CD11B78E018D","0198ee47-bfeb-7e3b-9535-7ff3e31f6c2a","0198ee3c-27ac-7803-a9ea-f3b4ad4ad678","{""num_scrambled_semantic"":""8"",""num_scrambled_causal"":""4"",""num_scrambled_schematic"":""4"",""participantId"":""A88B7E566F794A63B2C9CD11B78E018D"",""assignmentId"":""0198ee47-bfeb-7e3b-9535-7ff3e31f6c2a"",""projectId"":""0198ee3c-27ac-7803-a9ea-f3b4ad4ad678""}","https://test12345.live/?num_scrambled_semantic=8&num_scrambled_causal=4&num_scrambled_schematic=4&participantId=A88B7E566F794A63B2C9CD11B78E018D&assignmentId=0198ee47-bfeb-7e3b-9535-7ff3e31f6c2a&projectId=0198ee3c-27ac-7803-a9ea-f3b4ad4ad678","A88B7E566F794A63B2C9CD11B78E018D-2025-08-28-02-06-49","","null","","images/semantic_sequence/visiting_cities_semantic/visiting_cities_semantic_3.png","null","",""
"","","","","","image-button-response","32","293253","0.0-10.0-1.0-1.2","A88B7E566F794A63B2C9CD11B78E018D","A88B7E566F794A63B2C9CD11B78E018D","0198ee47-bfeb-7e3b-9535-7ff3e31f6c2a","0198ee3c-27ac-7803-a9ea-f3b4ad4ad678","{""num_scrambled_semantic"":""8"",""num_scrambled_causal"":""4"",""num_scrambled_schematic"":""4"",""participantId"":""A88B7E566F794A63B2C9CD11B78E018D"",""assignmentId"":""0198ee47-bfeb-7e3b-9535-7ff3e31f6c2a"",""projectId"":""0198ee3c-27ac-7803-a9ea-f3b4ad4ad678""}","https://test12345.live/?num_scrambled_semantic=8&num_scrambled_causal=4&num_scrambled_schematic=4&participantId=A88B7E566F794A63B2C9CD11B78E018D&assignmentId=0198ee47-bfeb-7e3b-9535-7ff3e31f6c2a&projectId=0198ee3c-27ac-7803-a9ea-f3b4ad4ad678","A88B7E566F794A63B2C9CD11B78E018D-2025-08-28-02-06-49","","875","","images/semantic_sequence/visiting_cities_semantic/visiting_cities_semantic_3.png","1","",""
"","","","","","image-button-response","33","295055","0.0-10.0-1.0-2.2","A88B7E566F794A63B2C9CD11B78E018D","A88B7E566F794A63B2C9CD11B78E018D","0198ee47-bfeb-7e3b-9535-7ff3e31f6c2a","0198ee3c-27ac-7803-a9ea-f3b4ad4ad678","{""num_scrambled_semantic"":""8"",""num_scrambled_causal"":""4"",""num_scrambled_schematic"":""4"",""participantId"":""A88B7E566F794A63B2C9CD11B78E018D"",""assignmentId"":""0198ee47-bfeb-7e3b-9535-7ff3e31f6c2a"",""projectId"":""0198ee3c-27ac-7803-a9ea-f3b4ad4ad678""}","https://test12345.live/?num_scrambled_semantic=8&num_scrambled_causal=4&num_scrambled_schematic=4&participantId=A88B7E566F794A63B2C9CD11B78E018D&assignmentId=0198ee47-bfeb-7e3b-9535-7ff3e31f6c2a&projectId=0198ee3c-27ac-7803-a9ea-f3b4ad4ad678","A88B7E566F794A63B2C9CD11B78E018D-2025-08-28-02-06-49","","null","","[]","null","",""
"","","","","","image-button-response","34","299575","0.0-10.0-1.0-0.3","A88B7E566F794A63B2C9CD11B78E018D","A88B7E566F794A63B2C9CD11B78E018D","0198ee47-bfeb-7e3b-9535-7ff3e31f6c2a","0198ee3c-27ac-7803-a9ea-f3b4ad4ad678","{""num_scrambled_semantic"":""8"",""num_scrambled_causal"":""4"",""num_scrambled_schematic"":""4"",""participantId"":""A88B7E566F794A63B2C9CD11B78E018D"",""assignmentId"":""0198ee47-bfeb-7e3b-9535-7ff3e31f6c2a"",""projectId"":""0198ee3c-27ac-7803-a9ea-f3b4ad4ad678""}","https://test12345.live/?num_scrambled_semantic=8&num_scrambled_causal=4&num_scrambled_schematic=4&participantId=A88B7E566F794A63B2C9CD11B78E018D&assignmentId=0198ee47-bfeb-7e3b-9535-7ff3e31f6c2a&projectId=0198ee3c-27ac-7803-a9ea-f3b4ad4ad678","A88B7E566F794A63B2C9CD11B78E018D-2025-08-28-02-06-49","","null","","images/semantic_sequence/visiting_cities_semantic/visiting_cities_semantic_4.png","null","",""
"","","","","","image-button-response","35","300154","0.0-10.0-1.0-1.3","A88B7E566F794A63B2C9CD11B78E018D","A88B7E566F794A63B2C9CD11B78E018D","0198ee47-bfeb-7e3b-9535-7ff3e31f6c2a","0198ee3c-27ac-7803-a9ea-f3b4ad4ad678","{""num_scrambled_semantic"":""8"",""num_scrambled_causal"":""4"",""num_scrambled_schematic"":""4"",""participantId"":""A88B7E566F794A63B2C9CD11B78E018D"",""assignmentId"":""0198ee47-bfeb-7e3b-9535-7ff3e31f6c2a"",""projectId"":""0198ee3c-27ac-7803-a9ea-f3b4ad4ad678""}","https://test12345.live/?num_scrambled_semantic=8&num_scrambled_causal=4&num_scrambled_schematic=4&participantId=A88B7E566F794A63B2C9CD11B78E018D&assignmentId=0198ee47-bfeb-7e3b-9535-7ff3e31f6c2a&projectId=0198ee3c-27ac-7803-a9ea-f3b4ad4ad678","A88B7E566F794A63B2C9CD11B78E018D-2025-08-28-02-06-49","","578","","images/semantic_sequence/visiting_cities_semantic/visiting_cities_semantic_4.png","1","",""
"","","","","","image-button-response","36","301956","0.0-10.0-1.0-2.3","A88B7E566F794A63B2C9CD11B78E018D","A88B7E566F794A63B2C9CD11B78E018D","0198ee47-bfeb-7e3b-9535-7ff3e31f6c2a","0198ee3c-27ac-7803-a9ea-f3b4ad4ad678","{""num_scrambled_semantic"":""8"",""num_scrambled_causal"":""4"",""num_scrambled_schematic"":""4"",""participantId"":""A88B7E566F794A63B2C9CD11B78E018D"",""assignmentId"":""0198ee47-bfeb-7e3b-9535-7ff3e31f6c2a"",""projectId"":""0198ee3c-27ac-7803-a9ea-f3b4ad4ad678""}","https://test12345.live/?num_scrambled_semantic=8&num_scrambled_causal=4&num_scrambled_schematic=4&participantId=A88B7E566F794A63B2C9CD11B78E018D&assignmentId=0198ee47-bfeb-7e3b-9535-7ff3e31f6c2a&projectId=0198ee3c-27ac-7803-a9ea-f3b4ad4ad678","A88B7E566F794A63B2C9CD11B78E018D-2025-08-28-02-06-49","","null","","[]","null","",""
"","","","","","image-button-response","37","306476","0.0-10.0-1.0-0.4","A88B7E566F794A63B2C9CD11B78E018D","A88B7E566F794A63B2C9CD11B78E018D","0198ee47-bfeb-7e3b-9535-7ff3e31f6c2a","0198ee3c-27ac-7803-a9ea-f3b4ad4ad678","{""num_scrambled_semantic"":""8"",""num_scrambled_causal"":""4"",""num_scrambled_schematic"":""4"",""participantId"":""A88B7E566F794A63B2C9CD11B78E018D"",""assignmentId"":""0198ee47-bfeb-7e3b-9535-7ff3e31f6c2a"",""projectId"":""0198ee3c-27ac-7803-a9ea-f3b4ad4ad678""}","https://test12345.live/?num_scrambled_semantic=8&num_scrambled_causal=4&num_scrambled_schematic=4&participantId=A88B7E566F794A63B2C9CD11B78E018D&assignmentId=0198ee47-bfeb-7e3b-9535-7ff3e31f6c2a&projectId=0198ee3c-27ac-7803-a9ea-f3b4ad4ad678","A88B7E566F794A63B2C9CD11B78E018D-2025-08-28-02-06-49","","null","","images/semantic_sequence/visiting_cities_semantic/visiting_cities_semantic_5.png","null","",""
"","","","","","image-button-response","38","307187","0.0-10.0-1.0-1.4","A88B7E566F794A63B2C9CD11B78E018D","A88B7E566F794A63B2C9CD11B78E018D","0198ee47-bfeb-7e3b-9535-7ff3e31f6c2a","0198ee3c-27ac-7803-a9ea-f3b4ad4ad678","{""num_scrambled_semantic"":""8"",""num_scrambled_causal"":""4"",""num_scrambled_schematic"":""4"",""participantId"":""A88B7E566F794A63B2C9CD11B78E018D"",""assignmentId"":""0198ee47-bfeb-7e3b-9535-7ff3e31f6c2a"",""projectId"":""0198ee3c-27ac-7803-a9ea-f3b4ad4ad678""}","https://test12345.live/?num_scrambled_semantic=8&num_scrambled_causal=4&num_scrambled_schematic=4&participantId=A88B7E566F794A63B2C9CD11B78E018D&assignmentId=0198ee47-bfeb-7e3b-9535-7ff3e31f6c2a&projectId=0198ee3c-27ac-7803-a9ea-f3b4ad4ad678","A88B7E566F794A63B2C9CD11B78E018D-2025-08-28-02-06-49","","709","","images/semantic_sequence/visiting_cities_semantic/visiting_cities_semantic_5.png","1","",""
"","","","","","image-button-response","39","308989","0.0-10.0-1.0-2.4","A88B7E566F794A63B2C9CD11B78E018D","A88B7E566F794A63B2C9CD11B78E018D","0198ee47-bfeb-7e3b-9535-7ff3e31f6c2a","0198ee3c-27ac-7803-a9ea-f3b4ad4ad678","{""num_scrambled_semantic"":""8"",""num_scrambled_causal"":""4"",""num_scrambled_schematic"":""4"",""participantId"":""A88B7E566F794A63B2C9CD11B78E018D"",""assignmentId"":""0198ee47-bfeb-7e3b-9535-7ff3e31f6c2a"",""projectId"":""0198ee3c-27ac-7803-a9ea-f3b4ad4ad678""}","https://test12345.live/?num_scrambled_semantic=8&num_scrambled_causal=4&num_scrambled_schematic=4&participantId=A88B7E566F794A63B2C9CD11B78E018D&assignmentId=0198ee47-bfeb-7e3b-9535-7ff3e31f6c2a&projectId=0198ee3c-27ac-7803-a9ea-f3b4ad4ad678","A88B7E566F794A63B2C9CD11B78E018D-2025-08-28-02-06-49","","null","","[]","null","",""
"","","","","","image-button-response","40","313510","0.0-10.0-1.0-0.5","A88B7E566F794A63B2C9CD11B78E018D","A88B7E566F794A63B2C9CD11B78E018D","0198ee47-bfeb-7e3b-9535-7ff3e31f6c2a","0198ee3c-27ac-7803-a9ea-f3b4ad4ad678","{""num_scrambled_semantic"":""8"",""num_scrambled_causal"":""4"",""num_scrambled_schematic"":""4"",""participantId"":""A88B7E566F794A63B2C9CD11B78E018D"",""assignmentId"":""0198ee47-bfeb-7e3b-9535-7ff3e31f6c2a"",""projectId"":""0198ee3c-27ac-7803-a9ea-f3b4ad4ad678""}","https://test12345.live/?num_scrambled_semantic=8&num_scrambled_causal=4&num_scrambled_schematic=4&participantId=A88B7E566F794A63B2C9CD11B78E018D&assignmentId=0198ee47-bfeb-7e3b-9535-7ff3e31f6c2a&projectId=0198ee3c-27ac-7803-a9ea-f3b4ad4ad678","A88B7E566F794A63B2C9CD11B78E018D-2025-08-28-02-06-49","","null","","images/semantic_sequence/visiting_cities_semantic/visiting_cities_semantic_6.png","null","",""
"","","","","","image-button-response","41","314253","0.0-10.0-1.0-1.5","A88B7E566F794A63B2C9CD11B78E018D","A88B7E566F794A63B2C9CD11B78E018D","0198ee47-bfeb-7e3b-9535-7ff3e31f6c2a","0198ee3c-27ac-7803-a9ea-f3b4ad4ad678","{""num_scrambled_semantic"":""8"",""num_scrambled_causal"":""4"",""num_scrambled_schematic"":""4"",""participantId"":""A88B7E566F794A63B2C9CD11B78E018D"",""assignmentId"":""0198ee47-bfeb-7e3b-9535-7ff3e31f6c2a"",""projectId"":""0198ee3c-27ac-7803-a9ea-f3b4ad4ad678""}","https://test12345.live/?num_scrambled_semantic=8&num_scrambled_causal=4&num_scrambled_schematic=4&participantId=A88B7E566F794A63B2C9CD11B78E018D&assignmentId=0198ee47-bfeb-7e3b-9535-7ff3e31f6c2a&projectId=0198ee3c-27ac-7803-a9ea-f3b4ad4ad678","A88B7E566F794A63B2C9CD11B78E018D-2025-08-28-02-06-49","","742","","images/semantic_sequence/visiting_cities_semantic/visiting_cities_semantic_6.png","1","",""
"","","","","","image-button-response","42","316055","0.0-10.0-1.0-2.5","A88B7E566F794A63B2C9CD11B78E018D","A88B7E566F794A63B2C9CD11B78E018D","0198ee47-bfeb-7e3b-9535-7ff3e31f6c2a","0198ee3c-27ac-7803-a9ea-f3b4ad4ad678","{""num_scrambled_semantic"":""8"",""num_scrambled_causal"":""4"",""num_scrambled_schematic"":""4"",""participantId"":""A88B7E566F794A63B2C9CD11B78E018D"",""assignmentId"":""0198ee47-bfeb-7e3b-9535-7ff3e31f6c2a"",""projectId"":""0198ee3c-27ac-7803-a9ea-f3b4ad4ad678""}","https://test12345.live/?num_scrambled_semantic=8&num_scrambled_causal=4&num_scrambled_schematic=4&participantId=A88B7E566F794A63B2C9CD11B78E018D&assignmentId=0198ee47-bfeb-7e3b-9535-7ff3e31f6c2a&projectId=0198ee3c-27ac-7803-a9ea-f3b4ad4ad678","A88B7E566F794A63B2C9CD11B78E018D-2025-08-28-02-06-49","","null","","[]","null","",""
"","","","","","image-button-response","43","320577","0.0-10.0-1.0-0.6","A88B7E566F794A63B2C9CD11B78E018D","A88B7E566F794A63B2C9CD11B78E018D","0198ee47-bfeb-7e3b-9535-7ff3e31f6c2a","0198ee3c-27ac-7803-a9ea-f3b4ad4ad678","{""num_scrambled_semantic"":""8"",""num_scrambled_causal"":""4"",""num_scrambled_schematic"":""4"",""participantId"":""A88B7E566F794A63B2C9CD11B78E018D"",""assignmentId"":""0198ee47-bfeb-7e3b-9535-7ff3e31f6c2a"",""projectId"":""0198ee3c-27ac-7803-a9ea-f3b4ad4ad678""}","https://test12345.live/?num_scrambled_semantic=8&num_scrambled_causal=4&num_scrambled_schematic=4&participantId=A88B7E566F794A63B2C9CD11B78E018D&assignmentId=0198ee47-bfeb-7e3b-9535-7ff3e31f6c2a&projectId=0198ee3c-27ac-7803-a9ea-f3b4ad4ad678","A88B7E566F794A63B2C9CD11B78E018D-2025-08-28-02-06-49","","null","","images/semantic_sequence/visiting_cities_semantic/visiting_cities_semantic_7.png","null","",""
"","","","","","image-button-response","44","321471","0.0-10.0-1.0-1.6","A88B7E566F794A63B2C9CD11B78E018D","A88B7E566F794A63B2C9CD11B78E018D","0198ee47-bfeb-7e3b-9535-7ff3e31f6c2a","0198ee3c-27ac-7803-a9ea-f3b4ad4ad678","{""num_scrambled_semantic"":""8"",""num_scrambled_causal"":""4"",""num_scrambled_schematic"":""4"",""participantId"":""A88B7E566F794A63B2C9CD11B78E018D"",""assignmentId"":""0198ee47-bfeb-7e3b-9535-7ff3e31f6c2a"",""projectId"":""0198ee3c-27ac-7803-a9ea-f3b4ad4ad678""}","https://test12345.live/?num_scrambled_semantic=8&num_scrambled_causal=4&num_scrambled_schematic=4&participantId=A88B7E566F794A63B2C9CD11B78E018D&assignmentId=0198ee47-bfeb-7e3b-9535-7ff3e31f6c2a&projectId=0198ee3c-27ac-7803-a9ea-f3b4ad4ad678","A88B7E566F794A63B2C9CD11B78E018D-2025-08-28-02-06-49","","893","","images/semantic_sequence/visiting_cities_semantic/visiting_cities_semantic_7.png","1","",""
"","","","","","image-button-response","45","323273","0.0-10.0-1.0-2.6","A88B7E566F794A63B2C9CD11B78E018D","A88B7E566F794A63B2C9CD11B78E018D","0198ee47-bfeb-7e3b-9535-7ff3e31f6c2a","0198ee3c-27ac-7803-a9ea-f3b4ad4ad678","{""num_scrambled_semantic"":""8"",""num_scrambled_causal"":""4"",""num_scrambled_schematic"":""4"",""participantId"":""A88B7E566F794A63B2C9CD11B78E018D"",""assignmentId"":""0198ee47-bfeb-7e3b-9535-7ff3e31f6c2a"",""projectId"":""0198ee3c-27ac-7803-a9ea-f3b4ad4ad678""}","https://test12345.live/?num_scrambled_semantic=8&num_scrambled_causal=4&num_scrambled_schematic=4&participantId=A88B7E566F794A63B2C9CD11B78E018D&assignmentId=0198ee47-bfeb-7e3b-9535-7ff3e31f6c2a&projectId=0198ee3c-27ac-7803-a9ea-f3b4ad4ad678","A88B7E566F794A63B2C9CD11B78E018D-2025-08-28-02-06-49","","null","","[]","null","",""
"","","","","","image-button-response","46","327794","0.0-10.0-1.0-0.7","A88B7E566F794A63B2C9CD11B78E018D","A88B7E566F794A63B2C9CD11B78E018D","0198ee47-bfeb-7e3b-9535-7ff3e31f6c2a","0198ee3c-27ac-7803-a9ea-f3b4ad4ad678","{""num_scrambled_semantic"":""8"",""num_scrambled_causal"":""4"",""num_scrambled_schematic"":""4"",""participantId"":""A88B7E566F794A63B2C9CD11B78E018D"",""assignmentId"":""0198ee47-bfeb-7e3b-9535-7ff3e31f6c2a"",""projectId"":""0198ee3c-27ac-7803-a9ea-f3b4ad4ad678""}","https://test12345.live/?num_scrambled_semantic=8&num_scrambled_causal=4&num_scrambled_schematic=4&participantId=A88B7E566F794A63B2C9CD11B78E018D&assignmentId=0198ee47-bfeb-7e3b-9535-7ff3e31f6c2a&projectId=0198ee3c-27ac-7803-a9ea-f3b4ad4ad678","A88B7E566F794A63B2C9CD11B78E018D-2025-08-28-02-06-49","","null","","images/semantic_sequence/visiting_cities_semantic/visiting_cities_semantic_8.png","null","",""
"","","","","","image-button-response","47","328321","0.0-10.0-1.0-1.7","A88B7E566F794A63B2C9CD11B78E018D","A88B7E566F794A63B2C9CD11B78E018D","0198ee47-bfeb-7e3b-9535-7ff3e31f6c2a","0198ee3c-27ac-7803-a9ea-f3b4ad4ad678","{""num_scrambled_semantic"":""8"",""num_scrambled_causal"":""4"",""num_scrambled_schematic"":""4"",""participantId"":""A88B7E566F794A63B2C9CD11B78E018D"",""assignmentId"":""0198ee47-bfeb-7e3b-9535-7ff3e31f6c2a"",""projectId"":""0198ee3c-27ac-7803-a9ea-f3b4ad4ad678""}","https://test12345.live/?num_scrambled_semantic=8&num_scrambled_causal=4&num_scrambled_schematic=4&participantId=A88B7E566F794A63B2C9CD11B78E018D&assignmentId=0198ee47-bfeb-7e3b-9535-7ff3e31f6c2a&projectId=0198ee3c-27ac-7803-a9ea-f3b4ad4ad678","A88B7E566F794A63B2C9CD11B78E018D-2025-08-28-02-06-49","","525","","images/semantic_sequence/visiting_cities_semantic/visiting_cities_semantic_8.png","1","",""
"","","","","","image-button-response","48","330123","0.0-10.0-1.0-2.7","A88B7E566F794A63B2C9CD11B78E018D","A88B7E566F794A63B2C9CD11B78E018D","0198ee47-bfeb-7e3b-9535-7ff3e31f6c2a","0198ee3c-27ac-7803-a9ea-f3b4ad4ad678","{""num_scrambled_semantic"":""8"",""num_scrambled_causal"":""4"",""num_scrambled_schematic"":""4"",""participantId"":""A88B7E566F794A63B2C9CD11B78E018D"",""assignmentId"":""0198ee47-bfeb-7e3b-9535-7ff3e31f6c2a"",""projectId"":""0198ee3c-27ac-7803-a9ea-f3b4ad4ad678""}","https://test12345.live/?num_scrambled_semantic=8&num_scrambled_causal=4&num_scrambled_schematic=4&participantId=A88B7E566F794A63B2C9CD11B78E018D&assignmentId=0198ee47-bfeb-7e3b-9535-7ff3e31f6c2a&projectId=0198ee3c-27ac-7803-a9ea-f3b4ad4ad678","A88B7E566F794A63B2C9CD11B78E018D-2025-08-28-02-06-49","","null","","[]","null","",""
"","","","","","image-button-response","49","334643","0.0-10.0-1.0-0.8","A88B7E566F794A63B2C9CD11B78E018D","A88B7E566F794A63B2C9CD11B78E018D","0198ee47-bfeb-7e3b-9535-7ff3e31f6c2a","0198ee3c-27ac-7803-a9ea-f3b4ad4ad678","{""num_scrambled_semantic"":""8"",""num_scrambled_causal"":""4"",""num_scrambled_schematic"":""4"",""participantId"":""A88B7E566F794A63B2C9CD11B78E018D"",""assignmentId"":""0198ee47-bfeb-7e3b-9535-7ff3e31f6c2a"",""projectId"":""0198ee3c-27ac-7803-a9ea-f3b4ad4ad678""}","https://test12345.live/?num_scrambled_semantic=8&num_scrambled_causal=4&num_scrambled_schematic=4&participantId=A88B7E566F794A63B2C9CD11B78E018D&assignmentId=0198ee47-bfeb-7e3b-9535-7ff3e31f6c2a&projectId=0198ee3c-27ac-7803-a9ea-f3b4ad4ad678","A88B7E566F794A63B2C9CD11B78E018D-2025-08-28-02-06-49","","null","","images/semantic_sequence/visiting_cities_semantic/visiting_cities_semantic_9.png","null","",""
"","","","","","image-button-response","50","335838","0.0-10.0-1.0-1.8","A88B7E566F794A63B2C9CD11B78E018D","A88B7E566F794A63B2C9CD11B78E018D","0198ee47-bfeb-7e3b-9535-7ff3e31f6c2a","0198ee3c-27ac-7803-a9ea-f3b4ad4ad678","{""num_scrambled_semantic"":""8"",""num_scrambled_causal"":""4"",""num_scrambled_schematic"":""4"",""participantId"":""A88B7E566F794A63B2C9CD11B78E018D"",""assignmentId"":""0198ee47-bfeb-7e3b-9535-7ff3e31f6c2a"",""projectId"":""0198ee3c-27ac-7803-a9ea-f3b4ad4ad678""}","https://test12345.live/?num_scrambled_semantic=8&num_scrambled_causal=4&num_scrambled_schematic=4&participantId=A88B7E566F794A63B2C9CD11B78E018D&assignmentId=0198ee47-bfeb-7e3b-9535-7ff3e31f6c2a&projectId=0198ee3c-27ac-7803-a9ea-f3b4ad4ad678","A88B7E566F794A63B2C9CD11B78E018D-2025-08-28-02-06-49","","1193","","images/semantic_sequence/visiting_cities_semantic/visiting_cities_semantic_9.png","1","",""
"","","","","","image-button-response","51","337640","0.0-10.0-1.0-2.8","A88B7E566F794A63B2C9CD11B78E018D","A88B7E566F794A63B2C9CD11B78E018D","0198ee47-bfeb-7e3b-9535-7ff3e31f6c2a","0198ee3c-27ac-7803-a9ea-f3b4ad4ad678","{""num_scrambled_semantic"":""8"",""num_scrambled_causal"":""4"",""num_scrambled_schematic"":""4"",""participantId"":""A88B7E566F794A63B2C9CD11B78E018D"",""assignmentId"":""0198ee47-bfeb-7e3b-9535-7ff3e31f6c2a"",""projectId"":""0198ee3c-27ac-7803-a9ea-f3b4ad4ad678""}","https://test12345.live/?num_scrambled_semantic=8&num_scrambled_causal=4&num_scrambled_schematic=4&participantId=A88B7E566F794A63B2C9CD11B78E018D&assignmentId=0198ee47-bfeb-7e3b-9535-7ff3e31f6c2a&projectId=0198ee3c-27ac-7803-a9ea-f3b4ad4ad678","A88B7E566F794A63B2C9CD11B78E018D-2025-08-28-02-06-49","","null","","[]","null","",""
"","","","","","image-button-response","52","342159","0.0-10.0-1.0-0.9","A88B7E566F794A63B2C9CD11B78E018D","A88B7E566F794A63B2C9CD11B78E018D","0198ee47-bfeb-7e3b-9535-7ff3e31f6c2a","0198ee3c-27ac-7803-a9ea-f3b4ad4ad678","{""num_scrambled_semantic"":""8"",""num_scrambled_causal"":""4"",""num_scrambled_schematic"":""4"",""participantId"":""A88B7E566F794A63B2C9CD11B78E018D"",""assignmentId"":""0198ee47-bfeb-7e3b-9535-7ff3e31f6c2a"",""projectId"":""0198ee3c-27ac-7803-a9ea-f3b4ad4ad678""}","https://test12345.live/?num_scrambled_semantic=8&num_scrambled_causal=4&num_scrambled_schematic=4&participantId=A88B7E566F794A63B2C9CD11B78E018D&assignmentId=0198ee47-bfeb-7e3b-9535-7ff3e31f6c2a&projectId=0198ee3c-27ac-7803-a9ea-f3b4ad4ad678","A88B7E566F794A63B2C9CD11B78E018D-2025-08-28-02-06-49","","null","","images/semantic_sequence/visiting_cities_semantic/visiting_cities_semantic_ten.png","null","",""
"","","","","","image-button-response","53","343503","0.0-10.0-1.0-1.9","A88B7E566F794A63B2C9CD11B78E018D","A88B7E566F794A63B2C9CD11B78E018D","0198ee47-bfeb-7e3b-9535-7ff3e31f6c2a","0198ee3c-27ac-7803-a9ea-f3b4ad4ad678","{""num_scrambled_semantic"":""8"",""num_scrambled_causal"":""4"",""num_scrambled_schematic"":""4"",""participantId"":""A88B7E566F794A63B2C9CD11B78E018D"",""assignmentId"":""0198ee47-bfeb-7e3b-9535-7ff3e31f6c2a"",""projectId"":""0198ee3c-27ac-7803-a9ea-f3b4ad4ad678""}","https://test12345.live/?num_scrambled_semantic=8&num_scrambled_causal=4&num_scrambled_schematic=4&participantId=A88B7E566F794A63B2C9CD11B78E018D&assignmentId=0198ee47-bfeb-7e3b-9535-7ff3e31f6c2a&projectId=0198ee3c-27ac-7803-a9ea-f3b4ad4ad678","A88B7E566F794A63B2C9CD11B78E018D-2025-08-28-02-06-49","","1343","","images/semantic_sequence/visiting_cities_semantic/visiting_cities_semantic_ten.png","1","",""
"","","","","","image-button-response","54","345306","0.0-10.0-1.0-2.9","A88B7E566F794A63B2C9CD11B78E018D","A88B7E566F794A63B2C9CD11B78E018D","0198ee47-bfeb-7e3b-9535-7ff3e31f6c2a","0198ee3c-27ac-7803-a9ea-f3b4ad4ad678","{""num_scrambled_semantic"":""8"",""num_scrambled_causal"":""4"",""num_scrambled_schematic"":""4"",""participantId"":""A88B7E566F794A63B2C9CD11B78E018D"",""assignmentId"":""0198ee47-bfeb-7e3b-9535-7ff3e31f6c2a"",""projectId"":""0198ee3c-27ac-7803-a9ea-f3b4ad4ad678""}","https://test12345.live/?num_scrambled_semantic=8&num_scrambled_causal=4&num_scrambled_schematic=4&participantId=A88B7E566F794A63B2C9CD11B78E018D&assignmentId=0198ee47-bfeb-7e3b-9535-7ff3e31f6c2a&projectId=0198ee3c-27ac-7803-a9ea-f3b4ad4ad678","A88B7E566F794A63B2C9CD11B78E018D-2025-08-28-02-06-49","","null","","[]","null","",""
"","","","","","html-audio-response","55","359005","0.0-11.0","A88B7E566F794A63B2C9CD11B78E018D","A88B7E566F794A63B2C9CD11B78E018D","0198ee47-bfeb-7e3b-9535-7ff3e31f6c2a","0198ee3c-27ac-7803-a9ea-f3b4ad4ad678","{""num_scrambled_semantic"":""8"",""num_scrambled_causal"":""4"",""num_scrambled_schematic"":""4"",""participantId"":""A88B7E566F794A63B2C9CD11B78E018D"",""assignmentId"":""0198ee47-bfeb-7e3b-9535-7ff3e31f6c2a"",""projectId"":""0198ee3c-27ac-7803-a9ea-f3b4ad4ad678""}","https://test12345.live/?num_scrambled_semantic=8&num_scrambled_causal=4&num_scrambled_schematic=4&participantId=A88B7E566F794A63B2C9CD11B78E018D&assignmentId=0198ee47-bfeb-7e3b-9535-7ff3e31f6c2a&projectId=0198ee3c-27ac-7803-a9ea-f3b4ad4ad678","A88B7E566F794A63B2C9CD11B78E018D-2025-08-28-02-06-49","","11037","","[""<span style=\""color: red; font-size: 24px\""> NOW RECORDING</span><p>Please say out loud all the images you saw, in the order of the story they create. Try to recall the sequence of events as they appeared in the story, not necessarily the order they were presented on the screen.</p>""]","","10","visiting_cities_semantic"
"","","","","","image-button-response","56","365016","0.0-12.0-0.0","A88B7E566F794A63B2C9CD11B78E018D","A88B7E566F794A63B2C9CD11B78E018D","0198ee47-bfeb-7e3b-9535-7ff3e31f6c2a","0198ee3c-27ac-7803-a9ea-f3b4ad4ad678","{""num_scrambled_semantic"":""8"",""num_scrambled_causal"":""4"",""num_scrambled_schematic"":""4"",""participantId"":""A88B7E566F794A63B2C9CD11B78E018D"",""assignmentId"":""0198ee47-bfeb-7e3b-9535-7ff3e31f6c2a"",""projectId"":""0198ee3c-27ac-7803-a9ea-f3b4ad4ad678""}","https://test12345.live/?num_scrambled_semantic=8&num_scrambled_causal=4&num_scrambled_schematic=4&participantId=A88B7E566F794A63B2C9CD11B78E018D&assignmentId=0198ee47-bfeb-7e3b-9535-7ff3e31f6c2a&projectId=0198ee3c-27ac-7803-a9ea-f3b4ad4ad678","A88B7E566F794A63B2C9CD11B78E018D-2025-08-28-02-06-49","","null","","images/causal_sequence/saving_a_cat_causal/saving_a_cat_causal_0.png","null","",""
"","","","","","image-button-response","57","369538","0.0-12.0-1.0-0.0","A88B7E566F794A63B2C9CD11B78E018D","A88B7E566F794A63B2C9CD11B78E018D","0198ee47-bfeb-7e3b-9535-7ff3e31f6c2a","0198ee3c-27ac-7803-a9ea-f3b4ad4ad678","{""num_scrambled_semantic"":""8"",""num_scrambled_causal"":""4"",""num_scrambled_schematic"":""4"",""participantId"":""A88B7E566F794A63B2C9CD11B78E018D"",""assignmentId"":""0198ee47-bfeb-7e3b-9535-7ff3e31f6c2a"",""projectId"":""0198ee3c-27ac-7803-a9ea-f3b4ad4ad678""}","https://test12345.live/?num_scrambled_semantic=8&num_scrambled_causal=4&num_scrambled_schematic=4&participantId=A88B7E566F794A63B2C9CD11B78E018D&assignmentId=0198ee47-bfeb-7e3b-9535-7ff3e31f6c2a&projectId=0198ee3c-27ac-7803-a9ea-f3b4ad4ad678","A88B7E566F794A63B2C9CD11B78E018D-2025-08-28-02-06-49","","null","","images/causal_sequence/saving_a_cat_causal/saving_a_cat_causal_6.png","null","",""
"","","","","","image-button-response","58","372921","0.0-12.0-1.0-1.0","A88B7E566F794A63B2C9CD11B78E018D","A88B7E566F794A63B2C9CD11B78E018D","0198ee47-bfeb-7e3b-9535-7ff3e31f6c2a","0198ee3c-27ac-7803-a9ea-f3b4ad4ad678","{""num_scrambled_semantic"":""8"",""num_scrambled_causal"":""4"",""num_scrambled_schematic"":""4"",""participantId"":""A88B7E566F794A63B2C9CD11B78E018D"",""assignmentId"":""0198ee47-bfeb-7e3b-9535-7ff3e31f6c2a"",""projectId"":""0198ee3c-27ac-7803-a9ea-f3b4ad4ad678""}","https://test12345.live/?num_scrambled_semantic=8&num_scrambled_causal=4&num_scrambled_schematic=4&participantId=A88B7E566F794A63B2C9CD11B78E018D&assignmentId=0198ee47-bfeb-7e3b-9535-7ff3e31f6c2a&projectId=0198ee3c-27ac-7803-a9ea-f3b4ad4ad678","A88B7E566F794A63B2C9CD11B78E018D-2025-08-28-02-06-49","","3382","","images/causal_sequence/saving_a_cat_causal/saving_a_cat_causal_6.png","0","",""
"","","","","","image-button-response","59","374723","0.0-12.0-1.0-2.0","A88B7E566F794A63B2C9CD11B78E018D","A88B7E566F794A63B2C9CD11B78E018D","0198ee47-bfeb-7e3b-9535-7ff3e31f6c2a","0198ee3c-27ac-7803-a9ea-f3b4ad4ad678","{""num_scrambled_semantic"":""8"",""num_scrambled_causal"":""4"",""num_scrambled_schematic"":""4"",""participantId"":""A88B7E566F794A63B2C9CD11B78E018D"",""assignmentId"":""0198ee47-bfeb-7e3b-9535-7ff3e31f6c2a"",""projectId"":""0198ee3c-27ac-7803-a9ea-f3b4ad4ad678""}","https://test12345.live/?num_scrambled_semantic=8&num_scrambled_causal=4&num_scrambled_schematic=4&participantId=A88B7E566F794A63B2C9CD11B78E018D&assignmentId=0198ee47-bfeb-7e3b-9535-7ff3e31f6c2a&projectId=0198ee3c-27ac-7803-a9ea-f3b4ad4ad678","A88B7E566F794A63B2C9CD11B78E018D-2025-08-28-02-06-49","","null","","[]","null","",""
"","","","","","image-button-response","60","379243","0.0-12.0-1.0-0.1","A88B7E566F794A63B2C9CD11B78E018D","A88B7E566F794A63B2C9CD11B78E018D","0198ee47-bfeb-7e3b-9535-7ff3e31f6c2a","0198ee3c-27ac-7803-a9ea-f3b4ad4ad678","{""num_scrambled_semantic"":""8"",""num_scrambled_causal"":""4"",""num_scrambled_schematic"":""4"",""participantId"":""A88B7E566F794A63B2C9CD11B78E018D"",""assignmentId"":""0198ee47-bfeb-7e3b-9535-7ff3e31f6c2a"",""projectId"":""0198ee3c-27ac-7803-a9ea-f3b4ad4ad678""}","https://test12345.live/?num_scrambled_semantic=8&num_scrambled_causal=4&num_scrambled_schematic=4&participantId=A88B7E566F794A63B2C9CD11B78E018D&assignmentId=0198ee47-bfeb-7e3b-9535-7ff3e31f6c2a&projectId=0198ee3c-27ac-7803-a9ea-f3b4ad4ad678","A88B7E566F794A63B2C9CD11B78E018D-2025-08-28-02-06-49","","null","","images/causal_sequence/saving_a_cat_causal/saving_a_cat_causal_2.png","null","",""
"","","","","","image-button-response","61","381371","0.0-12.0-1.0-1.1","A88B7E566F794A63B2C9CD11B78E018D","A88B7E566F794A63B2C9CD11B78E018D","0198ee47-bfeb-7e3b-9535-7ff3e31f6c2a","0198ee3c-27ac-7803-a9ea-f3b4ad4ad678","{""num_scrambled_semantic"":""8"",""num_scrambled_causal"":""4"",""num_scrambled_schematic"":""4"",""participantId"":""A88B7E566F794A63B2C9CD11B78E018D"",""assignmentId"":""0198ee47-bfeb-7e3b-9535-7ff3e31f6c2a"",""projectId"":""0198ee3c-27ac-7803-a9ea-f3b4ad4ad678""}","https://test12345.live/?num_scrambled_semantic=8&num_scrambled_causal=4&num_scrambled_schematic=4&participantId=A88B7E566F794A63B2C9CD11B78E018D&assignmentId=0198ee47-bfeb-7e3b-9535-7ff3e31f6c2a&projectId=0198ee3c-27ac-7803-a9ea-f3b4ad4ad678","A88B7E566F794A63B2C9CD11B78E018D-2025-08-28-02-06-49","","2126","","images/causal_sequence/saving_a_cat_causal/saving_a_cat_causal_2.png","1","",""
"","","","","","image-button-response","62","383172","0.0-12.0-1.0-2.1","A88B7E566F794A63B2C9CD11B78E018D","A88B7E566F794A63B2C9CD11B78E018D","0198ee47-bfeb-7e3b-9535-7ff3e31f6c2a","0198ee3c-27ac-7803-a9ea-f3b4ad4ad678","{""num_scrambled_semantic"":""8"",""num_scrambled_causal"":""4"",""num_scrambled_schematic"":""4"",""participantId"":""A88B7E566F794A63B2C9CD11B78E018D"",""assignmentId"":""0198ee47-bfeb-7e3b-9535-7ff3e31f6c2a"",""projectId"":""0198ee3c-27ac-7803-a9ea-f3b4ad4ad678""}","https://test12345.live/?num_scrambled_semantic=8&num_scrambled_causal=4&num_scrambled_schematic=4&participantId=A88B7E566F794A63B2C9CD11B78E018D&assignmentId=0198ee47-bfeb-7e3b-9535-7ff3e31f6c2a&projectId=0198ee3c-27ac-7803-a9ea-f3b4ad4ad678","A88B7E566F794A63B2C9CD11B78E018D-2025-08-28-02-06-49","","null","","[]","null","",""
"","","","","","image-button-response","63","387689","0.0-12.0-1.0-0.2","A88B7E566F794A63B2C9CD11B78E018D","A88B7E566F794A63B2C9CD11B78E018D","0198ee47-bfeb-7e3b-9535-7ff3e31f6c2a","0198ee3c-27ac-7803-a9ea-f3b4ad4ad678","{""num_scrambled_semantic"":""8"",""num_scrambled_causal"":""4"",""num_scrambled_schematic"":""4"",""participantId"":""A88B7E566F794A63B2C9CD11B78E018D"",""assignmentId"":""0198ee47-bfeb-7e3b-9535-7ff3e31f6c2a"",""projectId"":""0198ee3c-27ac-7803-a9ea-f3b4ad4ad678""}","https://test12345.live/?num_scrambled_semantic=8&num_scrambled_causal=4&num_scrambled_schematic=4&participantId=A88B7E566F794A63B2C9CD11B78E018D&assignmentId=0198ee47-bfeb-7e3b-9535-7ff3e31f6c2a&projectId=0198ee3c-27ac-7803-a9ea-f3b4ad4ad678","A88B7E566F794A63B2C9CD11B78E018D-2025-08-28-02-06-49","","null","","images/causal_sequence/saving_a_cat_causal/saving_a_cat_causal_ten.png","null","",""
"","","","","","image-button-response","64","391687","0.0-12.0-1.0-1.2","A88B7E566F794A63B2C9CD11B78E018D","A88B7E566F794A63B2C9CD11B78E018D","0198ee47-bfeb-7e3b-9535-7ff3e31f6c2a","0198ee3c-27ac-7803-a9ea-f3b4ad4ad678","{""num_scrambled_semantic"":""8"",""num_scrambled_causal"":""4"",""num_scrambled_schematic"":""4"",""participantId"":""A88B7E566F794A63B2C9CD11B78E018D"",""assignmentId"":""0198ee47-bfeb-7e3b-9535-7ff3e31f6c2a"",""projectId"":""0198ee3c-27ac-7803-a9ea-f3b4ad4ad678""}","https://test12345.live/?num_scrambled_semantic=8&num_scrambled_causal=4&num_scrambled_schematic=4&participantId=A88B7E566F794A63B2C9CD11B78E018D&assignmentId=0198ee47-bfeb-7e3b-9535-7ff3e31f6c2a&projectId=0198ee3c-27ac-7803-a9ea-f3b4ad4ad678","A88B7E566F794A63B2C9CD11B78E018D-2025-08-28-02-06-49","","null","","images/causal_sequence/saving_a_cat_causal/saving_a_cat_causal_ten.png","null","",""
"","","","","","image-button-response","65","393487","0.0-12.0-1.0-2.2","A88B7E566F794A63B2C9CD11B78E018D","A88B7E566F794A63B2C9CD11B78E018D","0198ee47-bfeb-7e3b-9535-7ff3e31f6c2a","0198ee3c-27ac-7803-a9ea-f3b4ad4ad678","{""num_scrambled_semantic"":""8"",""num_scrambled_causal"":""4"",""num_scrambled_schematic"":""4"",""participantId"":""A88B7E566F794A63B2C9CD11B78E018D"",""assignmentId"":""0198ee47-bfeb-7e3b-9535-7ff3e31f6c2a"",""projectId"":""0198ee3c-27ac-7803-a9ea-f3b4ad4ad678""}","https://test12345.live/?num_scrambled_semantic=8&num_scrambled_causal=4&num_scrambled_schematic=4&participantId=A88B7E566F794A63B2C9CD11B78E018D&assignmentId=0198ee47-bfeb-7e3b-9535-7ff3e31f6c2a&projectId=0198ee3c-27ac-7803-a9ea-f3b4ad4ad678","A88B7E566F794A63B2C9CD11B78E018D-2025-08-28-02-06-49","","null","","[]","null","",""
"","","","","","image-button-response","66","398003","0.0-12.0-1.0-0.3","A88B7E566F794A63B2C9CD11B78E018D","A88B7E566F794A63B2C9CD11B78E018D","0198ee47-bfeb-7e3b-9535-7ff3e31f6c2a","0198ee3c-27ac-7803-a9ea-f3b4ad4ad678","{""num_scrambled_semantic"":""8"",""num_scrambled_causal"":""4"",""num_scrambled_schematic"":""4"",""participantId"":""A88B7E566F794A63B2C9CD11B78E018D"",""assignmentId"":""0198ee47-bfeb-7e3b-9535-7ff3e31f6c2a"",""projectId"":""0198ee3c-27ac-7803-a9ea-f3b4ad4ad678""}","https://test12345.live/?num_scrambled_semantic=8&num_scrambled_causal=4&num_scrambled_schematic=4&participantId=A88B7E566F794A63B2C9CD11B78E018D&assignmentId=0198ee47-bfeb-7e3b-9535-7ff3e31f6c2a&projectId=0198ee3c-27ac-7803-a9ea-f3b4ad4ad678","A88B7E566F794A63B2C9CD11B78E018D-2025-08-28-02-06-49","","null","","images/causal_sequence/saving_a_cat_causal/saving_a_cat_causal_7.png","null","",""
"","","","","","image-button-response","67","400421","0.0-12.0-1.0-1.3","A88B7E566F794A63B2C9CD11B78E018D","A88B7E566F794A63B2C9CD11B78E018D","0198ee47-bfeb-7e3b-9535-7ff3e31f6c2a","0198ee3c-27ac-7803-a9ea-f3b4ad4ad678","{""num_scrambled_semantic"":""8"",""num_scrambled_causal"":""4"",""num_scrambled_schematic"":""4"",""participantId"":""A88B7E566F794A63B2C9CD11B78E018D"",""assignmentId"":""0198ee47-bfeb-7e3b-9535-7ff3e31f6c2a"",""projectId"":""0198ee3c-27ac-7803-a9ea-f3b4ad4ad678""}","https://test12345.live/?num_scrambled_semantic=8&num_scrambled_causal=4&num_scrambled_schematic=4&participantId=A88B7E566F794A63B2C9CD11B78E018D&assignmentId=0198ee47-bfeb-7e3b-9535-7ff3e31f6c2a&projectId=0198ee3c-27ac-7803-a9ea-f3b4ad4ad678","A88B7E566F794A63B2C9CD11B78E018D-2025-08-28-02-06-49","","2419","","images/causal_sequence/saving_a_cat_causal/saving_a_cat_causal_7.png","0","",""
"","","","","","image-button-response","68","402222","0.0-12.0-1.0-2.3","A88B7E566F794A63B2C9CD11B78E018D","A88B7E566F794A63B2C9CD11B78E018D","0198ee47-bfeb-7e3b-9535-7ff3e31f6c2a","0198ee3c-27ac-7803-a9ea-f3b4ad4ad678","{""num_scrambled_semantic"":""8"",""num_scrambled_causal"":""4"",""num_scrambled_schematic"":""4"",""participantId"":""A88B7E566F794A63B2C9CD11B78E018D"",""assignmentId"":""0198ee47-bfeb-7e3b-9535-7ff3e31f6c2a"",""projectId"":""0198ee3c-27ac-7803-a9ea-f3b4ad4ad678""}","https://test12345.live/?num_scrambled_semantic=8&num_scrambled_causal=4&num_scrambled_schematic=4&participantId=A88B7E566F794A63B2C9CD11B78E018D&assignmentId=0198ee47-bfeb-7e3b-9535-7ff3e31f6c2a&projectId=0198ee3c-27ac-7803-a9ea-f3b4ad4ad678","A88B7E566F794A63B2C9CD11B78E018D-2025-08-28-02-06-49","","null","","[]","null","",""
"","","","","","image-button-response","69","406740","0.0-12.0-1.0-0.4","A88B7E566F794A63B2C9CD11B78E018D","A88B7E566F794A63B2C9CD11B78E018D","0198ee47-bfeb-7e3b-9535-7ff3e31f6c2a","0198ee3c-27ac-7803-a9ea-f3b4ad4ad678","{""num_scrambled_semantic"":""8"",""num_scrambled_causal"":""4"",""num_scrambled_schematic"":""4"",""participantId"":""A88B7E566F794A63B2C9CD11B78E018D"",""assignmentId"":""0198ee47-bfeb-7e3b-9535-7ff3e31f6c2a"",""projectId"":""0198ee3c-27ac-7803-a9ea-f3b4ad4ad678""}","https://test12345.live/?num_scrambled_semantic=8&num_scrambled_causal=4&num_scrambled_schematic=4&participantId=A88B7E566F794A63B2C9CD11B78E018D&assignmentId=0198ee47-bfeb-7e3b-9535-7ff3e31f6c2a&projectId=0198ee3c-27ac-7803-a9ea-f3b4ad4ad678","A88B7E566F794A63B2C9CD11B78E018D-2025-08-28-02-06-49","","null","","images/causal_sequence/saving_a_cat_causal/saving_a_cat_causal_9.png","null","",""
"","","","","","image-button-response","70","407634","0.0-12.0-1.0-1.4","A88B7E566F794A63B2C9CD11B78E018D","A88B7E566F794A63B2C9CD11B78E018D","0198ee47-bfeb-7e3b-9535-7ff3e31f6c2a","0198ee3c-27ac-7803-a9ea-f3b4ad4ad678","{""num_scrambled_semantic"":""8"",""num_scrambled_causal"":""4"",""num_scrambled_schematic"":""4"",""participantId"":""A88B7E566F794A63B2C9CD11B78E018D"",""assignmentId"":""0198ee47-bfeb-7e3b-9535-7ff3e31f6c2a"",""projectId"":""0198ee3c-27ac-7803-a9ea-f3b4ad4ad678""}","https://test12345.live/?num_scrambled_semantic=8&num_scrambled_causal=4&num_scrambled_schematic=4&participantId=A88B7E566F794A63B2C9CD11B78E018D&assignmentId=0198ee47-bfeb-7e3b-9535-7ff3e31f6c2a&projectId=0198ee3c-27ac-7803-a9ea-f3b4ad4ad678","A88B7E566F794A63B2C9CD11B78E018D-2025-08-28-02-06-49","","892","","images/causal_sequence/saving_a_cat_causal/saving_a_cat_causal_9.png","0","",""
"","","","","","image-button-response","71","409435","0.0-12.0-1.0-2.4","A88B7E566F794A63B2C9CD11B78E018D","A88B7E566F794A63B2C9CD11B78E018D","0198ee47-bfeb-7e3b-9535-7ff3e31f6c2a","0198ee3c-27ac-7803-a9ea-f3b4ad4ad678","{""num_scrambled_semantic"":""8"",""num_scrambled_causal"":""4"",""num_scrambled_schematic"":""4"",""participantId"":""A88B7E566F794A63B2C9CD11B78E018D"",""assignmentId"":""0198ee47-bfeb-7e3b-9535-7ff3e31f6c2a"",""projectId"":""0198ee3c-27ac-7803-a9ea-f3b4ad4ad678""}","https://test12345.live/?num_scrambled_semantic=8&num_scrambled_causal=4&num_scrambled_schematic=4&participantId=A88B7E566F794A63B2C9CD11B78E018D&assignmentId=0198ee47-bfeb-7e3b-9535-7ff3e31f6c2a&projectId=0198ee3c-27ac-7803-a9ea-f3b4ad4ad678","A88B7E566F794A63B2C9CD11B78E018D-2025-08-28-02-06-49","","null","","[]","null","",""
"","","","","","image-button-response","72","413954","0.0-12.0-1.0-0.5","A88B7E566F794A63B2C9CD11B78E018D","A88B7E566F794A63B2C9CD11B78E018D","0198ee47-bfeb-7e3b-9535-7ff3e31f6c2a","0198ee3c-27ac-7803-a9ea-f3b4ad4ad678","{""num_scrambled_semantic"":""8"",""num_scrambled_causal"":""4"",""num_scrambled_schematic"":""4"",""participantId"":""A88B7E566F794A63B2C9CD11B78E018D"",""assignmentId"":""0198ee47-bfeb-7e3b-9535-7ff3e31f6c2a"",""projectId"":""0198ee3c-27ac-7803-a9ea-f3b4ad4ad678""}","https://test12345.live/?num_scrambled_semantic=8&num_scrambled_causal=4&num_scrambled_schematic=4&participantId=A88B7E566F794A63B2C9CD11B78E018D&assignmentId=0198ee47-bfeb-7e3b-9535-7ff3e31f6c2a&projectId=0198ee3c-27ac-7803-a9ea-f3b4ad4ad678","A88B7E566F794A63B2C9CD11B78E018D-2025-08-28-02-06-49","","null","","images/causal_sequence/saving_a_cat_causal/saving_a_cat_causal_3.png","null","",""
"","","","","","image-button-response","73","414581","0.0-12.0-1.0-1.5","A88B7E566F794A63B2C9CD11B78E018D","A88B7E566F794A63B2C9CD11B78E018D","0198ee47-bfeb-7e3b-9535-7ff3e31f6c2a","0198ee3c-27ac-7803-a9ea-f3b4ad4ad678","{""num_scrambled_semantic"":""8"",""num_scrambled_causal"":""4"",""num_scrambled_schematic"":""4"",""participantId"":""A88B7E566F794A63B2C9CD11B78E018D"",""assignmentId"":""0198ee47-bfeb-7e3b-9535-7ff3e31f6c2a"",""projectId"":""0198ee3c-27ac-7803-a9ea-f3b4ad4ad678""}","https://test12345.live/?num_scrambled_semantic=8&num_scrambled_causal=4&num_scrambled_schematic=4&participantId=A88B7E566F794A63B2C9CD11B78E018D&assignmentId=0198ee47-bfeb-7e3b-9535-7ff3e31f6c2a&projectId=0198ee3c-27ac-7803-a9ea-f3b4ad4ad678","A88B7E566F794A63B2C9CD11B78E018D-2025-08-28-02-06-49","","625","","images/causal_sequence/saving_a_cat_causal/saving_a_cat_causal_3.png","1","",""
"","","","","","image-button-response","74","416382","0.0-12.0-1.0-2.5","A88B7E566F794A63B2C9CD11B78E018D","A88B7E566F794A63B2C9CD11B78E018D","0198ee47-bfeb-7e3b-9535-7ff3e31f6c2a","0198ee3c-27ac-7803-a9ea-f3b4ad4ad678","{""num_scrambled_semantic"":""8"",""num_scrambled_causal"":""4"",""num_scrambled_schematic"":""4"",""participantId"":""A88B7E566F794A63B2C9CD11B78E018D"",""assignmentId"":""0198ee47-bfeb-7e3b-9535-7ff3e31f6c2a"",""projectId"":""0198ee3c-27ac-7803-a9ea-f3b4ad4ad678""}","https://test12345.live/?num_scrambled_semantic=8&num_scrambled_causal=4&num_scrambled_schematic=4&participantId=A88B7E566F794A63B2C9CD11B78E018D&assignmentId=0198ee47-bfeb-7e3b-9535-7ff3e31f6c2a&projectId=0198ee3c-27ac-7803-a9ea-f3b4ad4ad678","A88B7E566F794A63B2C9CD11B78E018D-2025-08-28-02-06-49","","null","","[]","null","",""
"","","","","","image-button-response","75","420902","0.0-12.0-1.0-0.6","A88B7E566F794A63B2C9CD11B78E018D","A88B7E566F794A63B2C9CD11B78E018D","0198ee47-bfeb-7e3b-9535-7ff3e31f6c2a","0198ee3c-27ac-7803-a9ea-f3b4ad4ad678","{""num_scrambled_semantic"":""8"",""num_scrambled_causal"":""4"",""num_scrambled_schematic"":""4"",""participantId"":""A88B7E566F794A63B2C9CD11B78E018D"",""assignmentId"":""0198ee47-bfeb-7e3b-9535-7ff3e31f6c2a"",""projectId"":""0198ee3c-27ac-7803-a9ea-f3b4ad4ad678""}","https://test12345.live/?num_scrambled_semantic=8&num_scrambled_causal=4&num_scrambled_schematic=4&participantId=A88B7E566F794A63B2C9CD11B78E018D&assignmentId=0198ee47-bfeb-7e3b-9535-7ff3e31f6c2a&projectId=0198ee3c-27ac-7803-a9ea-f3b4ad4ad678","A88B7E566F794A63B2C9CD11B78E018D-2025-08-28-02-06-49","","null","","images/causal_sequence/saving_a_cat_causal/saving_a_cat_causal_4.png","null","",""
"","","","","","image-button-response","76","423463","0.0-12.0-1.0-1.6","A88B7E566F794A63B2C9CD11B78E018D","A88B7E566F794A63B2C9CD11B78E018D","0198ee47-bfeb-7e3b-9535-7ff3e31f6c2a","0198ee3c-27ac-7803-a9ea-f3b4ad4ad678","{""num_scrambled_semantic"":""8"",""num_scrambled_causal"":""4"",""num_scrambled_schematic"":""4"",""participantId"":""A88B7E566F794A63B2C9CD11B78E018D"",""assignmentId"":""0198ee47-bfeb-7e3b-9535-7ff3e31f6c2a"",""projectId"":""0198ee3c-27ac-7803-a9ea-f3b4ad4ad678""}","https://test12345.live/?num_scrambled_semantic=8&num_scrambled_causal=4&num_scrambled_schematic=4&participantId=A88B7E566F794A63B2C9CD11B78E018D&assignmentId=0198ee47-bfeb-7e3b-9535-7ff3e31f6c2a&projectId=0198ee3c-27ac-7803-a9ea-f3b4ad4ad678","A88B7E566F794A63B2C9CD11B78E018D-2025-08-28-02-06-49","","2561","","images/causal_sequence/saving_a_cat_causal/saving_a_cat_causal_4.png","0","",""
"","","","","","image-button-response","77","425265","0.0-12.0-1.0-2.6","A88B7E566F794A63B2C9CD11B78E018D","A88B7E566F794A63B2C9CD11B78E018D","0198ee47-bfeb-7e3b-9535-7ff3e31f6c2a","0198ee3c-27ac-7803-a9ea-f3b4ad4ad678","{""num_scrambled_semantic"":""8"",""num_scrambled_causal"":""4"",""num_scrambled_schematic"":""4"",""participantId"":""A88B7E566F794A63B2C9CD11B78E018D"",""assignmentId"":""0198ee47-bfeb-7e3b-9535-7ff3e31f6c2a"",""projectId"":""0198ee3c-27ac-7803-a9ea-f3b4ad4ad678""}","https://test12345.live/?num_scrambled_semantic=8&num_scrambled_causal=4&num_scrambled_schematic=4&participantId=A88B7E566F794A63B2C9CD11B78E018D&assignmentId=0198ee47-bfeb-7e3b-9535-7ff3e31f6c2a&projectId=0198ee3c-27ac-7803-a9ea-f3b4ad4ad678","A88B7E566F794A63B2C9CD11B78E018D-2025-08-28-02-06-49","","null","","[]","null","",""
"","","","","","image-button-response","78","429785","0.0-12.0-1.0-0.7","A88B7E566F794A63B2C9CD11B78E018D","A88B7E566F794A63B2C9CD11B78E018D","0198ee47-bfeb-7e3b-9535-7ff3e31f6c2a","0198ee3c-27ac-7803-a9ea-f3b4ad4ad678","{""num_scrambled_semantic"":""8"",""num_scrambled_causal"":""4"",""num_scrambled_schematic"":""4"",""participantId"":""A88B7E566F794A63B2C9CD11B78E018D"",""assignmentId"":""0198ee47-bfeb-7e3b-9535-7ff3e31f6c2a"",""projectId"":""0198ee3c-27ac-7803-a9ea-f3b4ad4ad678""}","https://test12345.live/?num_scrambled_semantic=8&num_scrambled_causal=4&num_scrambled_schematic=4&participantId=A88B7E566F794A63B2C9CD11B78E018D&assignmentId=0198ee47-bfeb-7e3b-9535-7ff3e31f6c2a&projectId=0198ee3c-27ac-7803-a9ea-f3b4ad4ad678","A88B7E566F794A63B2C9CD11B78E018D-2025-08-28-02-06-49","","null","","images/causal_sequence/saving_a_cat_causal/saving_a_cat_causal_1.png","null","",""
"","","","","","image-button-response","79","433787","0.0-12.0-1.0-1.7","A88B7E566F794A63B2C9CD11B78E018D","A88B7E566F794A63B2C9CD11B78E018D","0198ee47-bfeb-7e3b-9535-7ff3e31f6c2a","0198ee3c-27ac-7803-a9ea-f3b4ad4ad678","{""num_scrambled_semantic"":""8"",""num_scrambled_causal"":""4"",""num_scrambled_schematic"":""4"",""participantId"":""A88B7E566F794A63B2C9CD11B78E018D"",""assignmentId"":""0198ee47-bfeb-7e3b-9535-7ff3e31f6c2a"",""projectId"":""0198ee3c-27ac-7803-a9ea-f3b4ad4ad678""}","https://test12345.live/?num_scrambled_semantic=8&num_scrambled_causal=4&num_scrambled_schematic=4&participantId=A88B7E566F794A63B2C9CD11B78E018D&assignmentId=0198ee47-bfeb-7e3b-9535-7ff3e31f6c2a&projectId=0198ee3c-27ac-7803-a9ea-f3b4ad4ad678","A88B7E566F794A63B2C9CD11B78E018D-2025-08-28-02-06-49","","null","","images/causal_sequence/saving_a_cat_causal/saving_a_cat_causal_1.png","null","",""
"","","","","","image-button-response","80","435589","0.0-12.0-1.0-2.7","A88B7E566F794A63B2C9CD11B78E018D","A88B7E566F794A63B2C9CD11B78E018D","0198ee47-bfeb-7e3b-9535-7ff3e31f6c2a","0198ee3c-27ac-7803-a9ea-f3b4ad4ad678","{""num_scrambled_semantic"":""8"",""num_scrambled_causal"":""4"",""num_scrambled_schematic"":""4"",""participantId"":""A88B7E566F794A63B2C9CD11B78E018D"",""assignmentId"":""0198ee47-bfeb-7e3b-9535-7ff3e31f6c2a"",""projectId"":""0198ee3c-27ac-7803-a9ea-f3b4ad4ad678""}","https://test12345.live/?num_scrambled_semantic=8&num_scrambled_causal=4&num_scrambled_schematic=4&participantId=A88B7E566F794A63B2C9CD11B78E018D&assignmentId=0198ee47-bfeb-7e3b-9535-7ff3e31f6c2a&projectId=0198ee3c-27ac-7803-a9ea-f3b4ad4ad678","A88B7E566F794A63B2C9CD11B78E018D-2025-08-28-02-06-49","","null","","[]","null","",""
"","","","","","image-button-response","81","440110","0.0-12.0-1.0-0.8","A88B7E566F794A63B2C9CD11B78E018D","A88B7E566F794A63B2C9CD11B78E018D","0198ee47-bfeb-7e3b-9535-7ff3e31f6c2a","0198ee3c-27ac-7803-a9ea-f3b4ad4ad678","{""num_scrambled_semantic"":""8"",""num_scrambled_causal"":""4"",""num_scrambled_schematic"":""4"",""participantId"":""A88B7E566F794A63B2C9CD11B78E018D"",""assignmentId"":""0198ee47-bfeb-7e3b-9535-7ff3e31f6c2a"",""projectId"":""0198ee3c-27ac-7803-a9ea-f3b4ad4ad678""}","https://test12345.live/?num_scrambled_semantic=8&num_scrambled_causal=4&num_scrambled_schematic=4&participantId=A88B7E566F794A63B2C9CD11B78E018D&assignmentId=0198ee47-bfeb-7e3b-9535-7ff3e31f6c2a&projectId=0198ee3c-27ac-7803-a9ea-f3b4ad4ad678","A88B7E566F794A63B2C9CD11B78E018D-2025-08-28-02-06-49","","null","","images/causal_sequence/saving_a_cat_causal/saving_a_cat_causal_5.png","null","",""
"","","","","","image-button-response","82","440977","0.0-12.0-1.0-1.8","A88B7E566F794A63B2C9CD11B78E018D","A88B7E566F794A63B2C9CD11B78E018D","0198ee47-bfeb-7e3b-9535-7ff3e31f6c2a","0198ee3c-27ac-7803-a9ea-f3b4ad4ad678","{""num_scrambled_semantic"":""8"",""num_scrambled_causal"":""4"",""num_scrambled_schematic"":""4"",""participantId"":""A88B7E566F794A63B2C9CD11B78E018D"",""assignmentId"":""0198ee47-bfeb-7e3b-9535-7ff3e31f6c2a"",""projectId"":""0198ee3c-27ac-7803-a9ea-f3b4ad4ad678""}","https://test12345.live/?num_scrambled_semantic=8&num_scrambled_causal=4&num_scrambled_schematic=4&participantId=A88B7E566F794A63B2C9CD11B78E018D&assignmentId=0198ee47-bfeb-7e3b-9535-7ff3e31f6c2a&projectId=0198ee3c-27ac-7803-a9ea-f3b4ad4ad678","A88B7E566F794A63B2C9CD11B78E018D-2025-08-28-02-06-49","","865","","images/causal_sequence/saving_a_cat_causal/saving_a_cat_causal_5.png","0","",""
"","","","","","image-button-response","83","442779","0.0-12.0-1.0-2.8","A88B7E566F794A63B2C9CD11B78E018D","A88B7E566F794A63B2C9CD11B78E018D","0198ee47-bfeb-7e3b-9535-7ff3e31f6c2a","0198ee3c-27ac-7803-a9ea-f3b4ad4ad678","{""num_scrambled_semantic"":""8"",""num_scrambled_causal"":""4"",""num_scrambled_schematic"":""4"",""participantId"":""A88B7E566F794A63B2C9CD11B78E018D"",""assignmentId"":""0198ee47-bfeb-7e3b-9535-7ff3e31f6c2a"",""projectId"":""0198ee3c-27ac-7803-a9ea-f3b4ad4ad678""}","https://test12345.live/?num_scrambled_semantic=8&num_scrambled_causal=4&num_scrambled_schematic=4&participantId=A88B7E566F794A63B2C9CD11B78E018D&assignmentId=0198ee47-bfeb-7e3b-9535-7ff3e31f6c2a&projectId=0198ee3c-27ac-7803-a9ea-f3b4ad4ad678","A88B7E566F794A63B2C9CD11B78E018D-2025-08-28-02-06-49","","null","","[]","null","",""
"","","","","","image-button-response","84","447300","0.0-12.0-1.0-0.9","A88B7E566F794A63B2C9CD11B78E018D","A88B7E566F794A63B2C9CD11B78E018D","0198ee47-bfeb-7e3b-9535-7ff3e31f6c2a","0198ee3c-27ac-7803-a9ea-f3b4ad4ad678","{""num_scrambled_semantic"":""8"",""num_scrambled_causal"":""4"",""num_scrambled_schematic"":""4"",""participantId"":""A88B7E566F794A63B2C9CD11B78E018D"",""assignmentId"":""0198ee47-bfeb-7e3b-9535-7ff3e31f6c2a"",""projectId"":""0198ee3c-27ac-7803-a9ea-f3b4ad4ad678""}","https://test12345.live/?num_scrambled_semantic=8&num_scrambled_causal=4&num_scrambled_schematic=4&participantId=A88B7E566F794A63B2C9CD11B78E018D&assignmentId=0198ee47-bfeb-7e3b-9535-7ff3e31f6c2a&projectId=0198ee3c-27ac-7803-a9ea-f3b4ad4ad678","A88B7E566F794A63B2C9CD11B78E018D-2025-08-28-02-06-49","","null","","images/causal_sequence/saving_a_cat_causal/saving_a_cat_causal_8.png","null","",""
"","","","","","image-button-response","85","448094","0.0-12.0-1.0-1.9","A88B7E566F794A63B2C9CD11B78E018D","A88B7E566F794A63B2C9CD11B78E018D","0198ee47-bfeb-7e3b-9535-7ff3e31f6c2a","0198ee3c-27ac-7803-a9ea-f3b4ad4ad678","{""num_scrambled_semantic"":""8"",""num_scrambled_causal"":""4"",""num_scrambled_schematic"":""4"",""participantId"":""A88B7E566F794A63B2C9CD11B78E018D"",""assignmentId"":""0198ee47-bfeb-7e3b-9535-7ff3e31f6c2a"",""projectId"":""0198ee3c-27ac-7803-a9ea-f3b4ad4ad678""}","https://test12345.live/?num_scrambled_semantic=8&num_scrambled_causal=4&num_scrambled_schematic=4&participantId=A88B7E566F794A63B2C9CD11B78E018D&assignmentId=0198ee47-bfeb-7e3b-9535-7ff3e31f6c2a&projectId=0198ee3c-27ac-7803-a9ea-f3b4ad4ad678","A88B7E566F794A63B2C9CD11B78E018D-2025-08-28-02-06-49","","793","","images/causal_sequence/saving_a_cat_causal/saving_a_cat_causal_8.png","0","",""
"","","","","","image-button-response","86","449896","0.0-12.0-1.0-2.9","A88B7E566F794A63B2C9CD11B78E018D","A88B7E566F794A63B2C9CD11B78E018D","0198ee47-bfeb-7e3b-9535-7ff3e31f6c2a","0198ee3c-27ac-7803-a9ea-f3b4ad4ad678","{""num_scrambled_semantic"":""8"",""num_scrambled_causal"":""4"",""num_scrambled_schematic"":""4"",""participantId"":""A88B7E566F794A63B2C9CD11B78E018D"",""assignmentId"":""0198ee47-bfeb-7e3b-9535-7ff3e31f6c2a"",""projectId"":""0198ee3c-27ac-7803-a9ea-f3b4ad4ad678""}","https://test12345.live/?num_scrambled_semantic=8&num_scrambled_causal=4&num_scrambled_schematic=4&participantId=A88B7E566F794A63B2C9CD11B78E018D&assignmentId=0198ee47-bfeb-7e3b-9535-7ff3e31f6c2a&projectId=0198ee3c-27ac-7803-a9ea-f3b4ad4ad678","A88B7E566F794A63B2C9CD11B78E018D-2025-08-28-02-06-49","","null","","[]","null","",""
"","","","","","html-audio-response","87","461278","0.0-13.0","A88B7E566F794A63B2C9CD11B78E018D","A88B7E566F794A63B2C9CD11B78E018D","0198ee47-bfeb-7e3b-9535-7ff3e31f6c2a","0198ee3c-27ac-7803-a9ea-f3b4ad4ad678","{""num_scrambled_semantic"":""8"",""num_scrambled_causal"":""4"",""num_scrambled_schematic"":""4"",""participantId"":""A88B7E566F794A63B2C9CD11B78E018D"",""assignmentId"":""0198ee47-bfeb-7e3b-9535-7ff3e31f6c2a"",""projectId"":""0198ee3c-27ac-7803-a9ea-f3b4ad4ad678""}","https://test12345.live/?num_scrambled_semantic=8&num_scrambled_causal=4&num_scrambled_schematic=4&participantId=A88B7E566F794A63B2C9CD11B78E018D&assignmentId=0198ee47-bfeb-7e3b-9535-7ff3e31f6c2a&projectId=0198ee3c-27ac-7803-a9ea-f3b4ad4ad678","A88B7E566F794A63B2C9CD11B78E018D-2025-08-28-02-06-49","","8836","","[""<span style=\""color: red; font-size: 24px\""> NOW RECORDING</span><p>Please say out loud all the images you saw, in the order of the story they create. Try to recall the sequence of events as they appeared in the story, not necessarily the order they were presented on the screen.</p>""]","","10","saving_a_cat_causal"
"","","","","","image-button-response","88","467289","0.0-14.0-0.0","A88B7E566F794A63B2C9CD11B78E018D","A88B7E566F794A63B2C9CD11B78E018D","0198ee47-bfeb-7e3b-9535-7ff3e31f6c2a","0198ee3c-27ac-7803-a9ea-f3b4ad4ad678","{""num_scrambled_semantic"":""8"",""num_scrambled_causal"":""4"",""num_scrambled_schematic"":""4"",""participantId"":""A88B7E566F794A63B2C9CD11B78E018D"",""assignmentId"":""0198ee47-bfeb-7e3b-9535-7ff3e31f6c2a"",""projectId"":""0198ee3c-27ac-7803-a9ea-f3b4ad4ad678""}","https://test12345.live/?num_scrambled_semantic=8&num_scrambled_causal=4&num_scrambled_schematic=4&participantId=A88B7E566F794A63B2C9CD11B78E018D&assignmentId=0198ee47-bfeb-7e3b-9535-7ff3e31f6c2a&projectId=0198ee3c-27ac-7803-a9ea-f3b4ad4ad678","A88B7E566F794A63B2C9CD11B78E018D-2025-08-28-02-06-49","","null","","images/schematic_sequence/flight_scheme/flight_scheme_0.png","null","",""
"","","","","","image-button-response","89","471807","0.0-14.0-1.0-0.0","A88B7E566F794A63B2C9CD11B78E018D","A88B7E566F794A63B2C9CD11B78E018D","0198ee47-bfeb-7e3b-9535-7ff3e31f6c2a","0198ee3c-27ac-7803-a9ea-f3b4ad4ad678","{""num_scrambled_semantic"":""8"",""num_scrambled_causal"":""4"",""num_scrambled_schematic"":""4"",""participantId"":""A88B7E566F794A63B2C9CD11B78E018D"",""assignmentId"":""0198ee47-bfeb-7e3b-9535-7ff3e31f6c2a"",""projectId"":""0198ee3c-27ac-7803-a9ea-f3b4ad4ad678""}","https://test12345.live/?num_scrambled_semantic=8&num_scrambled_causal=4&num_scrambled_schematic=4&participantId=A88B7E566F794A63B2C9CD11B78E018D&assignmentId=0198ee47-bfeb-7e3b-9535-7ff3e31f6c2a&projectId=0198ee3c-27ac-7803-a9ea-f3b4ad4ad678","A88B7E566F794A63B2C9CD11B78E018D-2025-08-28-02-06-49","","null","","images/schematic_sequence/flight_scheme/flight_scheme_1.png","null","",""
"","","","","","image-button-response","90","473728","0.0-14.0-1.0-1.0","A88B7E566F794A63B2C9CD11B78E018D","A88B7E566F794A63B2C9CD11B78E018D","0198ee47-bfeb-7e3b-9535-7ff3e31f6c2a","0198ee3c-27ac-7803-a9ea-f3b4ad4ad678","{""num_scrambled_semantic"":""8"",""num_scrambled_causal"":""4"",""num_scrambled_schematic"":""4"",""participantId"":""A88B7E566F794A63B2C9CD11B78E018D"",""assignmentId"":""0198ee47-bfeb-7e3b-9535-7ff3e31f6c2a"",""projectId"":""0198ee3c-27ac-7803-a9ea-f3b4ad4ad678""}","https://test12345.live/?num_scrambled_semantic=8&num_scrambled_causal=4&num_scrambled_schematic=4&participantId=A88B7E566F794A63B2C9CD11B78E018D&assignmentId=0198ee47-bfeb-7e3b-9535-7ff3e31f6c2a&projectId=0198ee3c-27ac-7803-a9ea-f3b4ad4ad678","A88B7E566F794A63B2C9CD11B78E018D-2025-08-28-02-06-49","","1920","","images/schematic_sequence/flight_scheme/flight_scheme_1.png","1","",""
"","","","","","image-button-response","91","475530","0.0-14.0-1.0-2.0","A88B7E566F794A63B2C9CD11B78E018D","A88B7E566F794A63B2C9CD11B78E018D","0198ee47-bfeb-7e3b-9535-7ff3e31f6c2a","0198ee3c-27ac-7803-a9ea-f3b4ad4ad678","{""num_scrambled_semantic"":""8"",""num_scrambled_causal"":""4"",""num_scrambled_schematic"":""4"",""participantId"":""A88B7E566F794A63B2C9CD11B78E018D"",""assignmentId"":""0198ee47-bfeb-7e3b-9535-7ff3e31f6c2a"",""projectId"":""0198ee3c-27ac-7803-a9ea-f3b4ad4ad678""}","https://test12345.live/?num_scrambled_semantic=8&num_scrambled_causal=4&num_scrambled_schematic=4&participantId=A88B7E566F794A63B2C9CD11B78E018D&assignmentId=0198ee47-bfeb-7e3b-9535-7ff3e31f6c2a&projectId=0198ee3c-27ac-7803-a9ea-f3b4ad4ad678","A88B7E566F794A63B2C9CD11B78E018D-2025-08-28-02-06-49","","null","","[]","null","",""
"","","","","","image-button-response","92","480048","0.0-14.0-1.0-0.1","A88B7E566F794A63B2C9CD11B78E018D","A88B7E566F794A63B2C9CD11B78E018D","0198ee47-bfeb-7e3b-9535-7ff3e31f6c2a","0198ee3c-27ac-7803-a9ea-f3b4ad4ad678","{""num_scrambled_semantic"":""8"",""num_scrambled_causal"":""4"",""num_scrambled_schematic"":""4"",""participantId"":""A88B7E566F794A63B2C9CD11B78E018D"",""assignmentId"":""0198ee47-bfeb-7e3b-9535-7ff3e31f6c2a"",""projectId"":""0198ee3c-27ac-7803-a9ea-f3b4ad4ad678""}","https://test12345.live/?num_scrambled_semantic=8&num_scrambled_causal=4&num_scrambled_schematic=4&participantId=A88B7E566F794A63B2C9CD11B78E018D&assignmentId=0198ee47-bfeb-7e3b-9535-7ff3e31f6c2a&projectId=0198ee3c-27ac-7803-a9ea-f3b4ad4ad678","A88B7E566F794A63B2C9CD11B78E018D-2025-08-28-02-06-49","","null","","images/schematic_sequence/flight_scheme/flight_scheme_2.png","null","",""
"","","","","","image-button-response","93","481527","0.0-14.0-1.0-1.1","A88B7E566F794A63B2C9CD11B78E018D","A88B7E566F794A63B2C9CD11B78E018D","0198ee47-bfeb-7e3b-9535-7ff3e31f6c2a","0198ee3c-27ac-7803-a9ea-f3b4ad4ad678","{""num_scrambled_semantic"":""8"",""num_scrambled_causal"":""4"",""num_scrambled_schematic"":""4"",""participantId"":""A88B7E566F794A63B2C9CD11B78E018D"",""assignmentId"":""0198ee47-bfeb-7e3b-9535-7ff3e31f6c2a"",""projectId"":""0198ee3c-27ac-7803-a9ea-f3b4ad4ad678""}","https://test12345.live/?num_scrambled_semantic=8&num_scrambled_causal=4&num_scrambled_schematic=4&participantId=A88B7E566F794A63B2C9CD11B78E018D&assignmentId=0198ee47-bfeb-7e3b-9535-7ff3e31f6c2a&projectId=0198ee3c-27ac-7803-a9ea-f3b4ad4ad678","A88B7E566F794A63B2C9CD11B78E018D-2025-08-28-02-06-49","","1477","","images/schematic_sequence/flight_scheme/flight_scheme_2.png","1","",""
"","","","","","image-button-response","94","483329","0.0-14.0-1.0-2.1","A88B7E566F794A63B2C9CD11B78E018D","A88B7E566F794A63B2C9CD11B78E018D","0198ee47-bfeb-7e3b-9535-7ff3e31f6c2a","0198ee3c-27ac-7803-a9ea-f3b4ad4ad678","{""num_scrambled_semantic"":""8"",""num_scrambled_causal"":""4"",""num_scrambled_schematic"":""4"",""participantId"":""A88B7E566F794A63B2C9CD11B78E018D"",""assignmentId"":""0198ee47-bfeb-7e3b-9535-7ff3e31f6c2a"",""projectId"":""0198ee3c-27ac-7803-a9ea-f3b4ad4ad678""}","https://test12345.live/?num_scrambled_semantic=8&num_scrambled_causal=4&num_scrambled_schematic=4&participantId=A88B7E566F794A63B2C9CD11B78E018D&assignmentId=0198ee47-bfeb-7e3b-9535-7ff3e31f6c2a&projectId=0198ee3c-27ac-7803-a9ea-f3b4ad4ad678","A88B7E566F794A63B2C9CD11B78E018D-2025-08-28-02-06-49","","null","","[]","null","",""
"","","","","","image-button-response","95","487848","0.0-14.0-1.0-0.2","A88B7E566F794A63B2C9CD11B78E018D","A88B7E566F794A63B2C9CD11B78E018D","0198ee47-bfeb-7e3b-9535-7ff3e31f6c2a","0198ee3c-27ac-7803-a9ea-f3b4ad4ad678","{""num_scrambled_semantic"":""8"",""num_scrambled_causal"":""4"",""num_scrambled_schematic"":""4"",""participantId"":""A88B7E566F794A63B2C9CD11B78E018D"",""assignmentId"":""0198ee47-bfeb-7e3b-9535-7ff3e31f6c2a"",""projectId"":""0198ee3c-27ac-7803-a9ea-f3b4ad4ad678""}","https://test12345.live/?num_scrambled_semantic=8&num_scrambled_causal=4&num_scrambled_schematic=4&participantId=A88B7E566F794A63B2C9CD11B78E018D&assignmentId=0198ee47-bfeb-7e3b-9535-7ff3e31f6c2a&projectId=0198ee3c-27ac-7803-a9ea-f3b4ad4ad678","A88B7E566F794A63B2C9CD11B78E018D-2025-08-28-02-06-49","","null","","images/schematic_sequence/flight_scheme/flight_scheme_3.png","null","",""
"","","","","","image-button-response","96","488727","0.0-14.0-1.0-1.2","A88B7E566F794A63B2C9CD11B78E018D","A88B7E566F794A63B2C9CD11B78E018D","0198ee47-bfeb-7e3b-9535-7ff3e31f6c2a","0198ee3c-27ac-7803-a9ea-f3b4ad4ad678","{""num_scrambled_semantic"":""8"",""num_scrambled_causal"":""4"",""num_scrambled_schematic"":""4"",""participantId"":""A88B7E566F794A63B2C9CD11B78E018D"",""assignmentId"":""0198ee47-bfeb-7e3b-9535-7ff3e31f6c2a"",""projectId"":""0198ee3c-27ac-7803-a9ea-f3b4ad4ad678""}","https://test12345.live/?num_scrambled_semantic=8&num_scrambled_causal=4&num_scrambled_schematic=4&participantId=A88B7E566F794A63B2C9CD11B78E018D&assignmentId=0198ee47-bfeb-7e3b-9535-7ff3e31f6c2a&projectId=0198ee3c-27ac-7803-a9ea-f3b4ad4ad678","A88B7E566F794A63B2C9CD11B78E018D-2025-08-28-02-06-49","","878","","images/schematic_sequence/flight_scheme/flight_scheme_3.png","0","",""
"","","","","","image-button-response","97","490529","0.0-14.0-1.0-2.2","A88B7E566F794A63B2C9CD11B78E018D","A88B7E566F794A63B2C9CD11B78E018D","0198ee47-bfeb-7e3b-9535-7ff3e31f6c2a","0198ee3c-27ac-7803-a9ea-f3b4ad4ad678","{""num_scrambled_semantic"":""8"",""num_scrambled_causal"":""4"",""num_scrambled_schematic"":""4"",""participantId"":""A88B7E566F794A63B2C9CD11B78E018D"",""assignmentId"":""0198ee47-bfeb-7e3b-9535-7ff3e31f6c2a"",""projectId"":""0198ee3c-27ac-7803-a9ea-f3b4ad4ad678""}","https://test12345.live/?num_scrambled_semantic=8&num_scrambled_causal=4&num_scrambled_schematic=4&participantId=A88B7E566F794A63B2C9CD11B78E018D&assignmentId=0198ee47-bfeb-7e3b-9535-7ff3e31f6c2a&projectId=0198ee3c-27ac-7803-a9ea-f3b4ad4ad678","A88B7E566F794A63B2C9CD11B78E018D-2025-08-28-02-06-49","","null","","[]","null","",""
"","","","","","image-button-response","98","495047","0.0-14.0-1.0-0.3","A88B7E566F794A63B2C9CD11B78E018D","A88B7E566F794A63B2C9CD11B78E018D","0198ee47-bfeb-7e3b-9535-7ff3e31f6c2a","0198ee3c-27ac-7803-a9ea-f3b4ad4ad678","{""num_scrambled_semantic"":""8"",""num_scrambled_causal"":""4"",""num_scrambled_schematic"":""4"",""participantId"":""A88B7E566F794A63B2C9CD11B78E018D"",""assignmentId"":""0198ee47-bfeb-7e3b-9535-7ff3e31f6c2a"",""projectId"":""0198ee3c-27ac-7803-a9ea-f3b4ad4ad678""}","https://test12345.live/?num_scrambled_semantic=8&num_scrambled_causal=4&num_scrambled_schematic=4&participantId=A88B7E566F794A63B2C9CD11B78E018D&assignmentId=0198ee47-bfeb-7e3b-9535-7ff3e31f6c2a&projectId=0198ee3c-27ac-7803-a9ea-f3b4ad4ad678","A88B7E566F794A63B2C9CD11B78E018D-2025-08-28-02-06-49","","null","","images/schematic_sequence/flight_scheme/flight_scheme_4.png","null","",""
"","","","","","image-button-response","99","495910","0.0-14.0-1.0-1.3","A88B7E566F794A63B2C9CD11B78E018D","A88B7E566F794A63B2C9CD11B78E018D","0198ee47-bfeb-7e3b-9535-7ff3e31f6c2a","0198ee3c-27ac-7803-a9ea-f3b4ad4ad678","{""num_scrambled_semantic"":""8"",""num_scrambled_causal"":""4"",""num_scrambled_schematic"":""4"",""participantId"":""A88B7E566F794A63B2C9CD11B78E018D"",""assignmentId"":""0198ee47-bfeb-7e3b-9535-7ff3e31f6c2a"",""projectId"":""0198ee3c-27ac-7803-a9ea-f3b4ad4ad678""}","https://test12345.live/?num_scrambled_semantic=8&num_scrambled_causal=4&num_scrambled_schematic=4&participantId=A88B7E566F794A63B2C9CD11B78E018D&assignmentId=0198ee47-bfeb-7e3b-9535-7ff3e31f6c2a&projectId=0198ee3c-27ac-7803-a9ea-f3b4ad4ad678","A88B7E566F794A63B2C9CD11B78E018D-2025-08-28-02-06-49","","862","","images/schematic_sequence/flight_scheme/flight_scheme_4.png","0","",""
"","","","","","image-button-response","100","497712","0.0-14.0-1.0-2.3","A88B7E566F794A63B2C9CD11B78E018D","A88B7E566F794A63B2C9CD11B78E018D","0198ee47-bfeb-7e3b-9535-7ff3e31f6c2a","0198ee3c-27ac-7803-a9ea-f3b4ad4ad678","{""num_scrambled_semantic"":""8"",""num_scrambled_causal"":""4"",""num_scrambled_schematic"":""4"",""participantId"":""A88B7E566F794A63B2C9CD11B78E018D"",""assignmentId"":""0198ee47-bfeb-7e3b-9535-7ff3e31f6c2a"",""projectId"":""0198ee3c-27ac-7803-a9ea-f3b4ad4ad678""}","https://test12345.live/?num_scrambled_semantic=8&num_scrambled_causal=4&num_scrambled_schematic=4&participantId=A88B7E566F794A63B2C9CD11B78E018D&assignmentId=0198ee47-bfeb-7e3b-9535-7ff3e31f6c2a&projectId=0198ee3c-27ac-7803-a9ea-f3b4ad4ad678","A88B7E566F794A63B2C9CD11B78E018D-2025-08-28-02-06-49","","null","","[]","null","",""
"","","","","","image-button-response","101","502230","0.0-14.0-1.0-0.4","A88B7E566F794A63B2C9CD11B78E018D","A88B7E566F794A63B2C9CD11B78E018D","0198ee47-bfeb-7e3b-9535-7ff3e31f6c2a","0198ee3c-27ac-7803-a9ea-f3b4ad4ad678","{""num_scrambled_semantic"":""8"",""num_scrambled_causal"":""4"",""num_scrambled_schematic"":""4"",""participantId"":""A88B7E566F794A63B2C9CD11B78E018D"",""assignmentId"":""0198ee47-bfeb-7e3b-9535-7ff3e31f6c2a"",""projectId"":""0198ee3c-27ac-7803-a9ea-f3b4ad4ad678""}","https://test12345.live/?num_scrambled_semantic=8&num_scrambled_causal=4&num_scrambled_schematic=4&participantId=A88B7E566F794A63B2C9CD11B78E018D&assignmentId=0198ee47-bfeb-7e3b-9535-7ff3e31f6c2a&projectId=0198ee3c-27ac-7803-a9ea-f3b4ad4ad678","A88B7E566F794A63B2C9CD11B78E018D-2025-08-28-02-06-49","","null","","images/schematic_sequence/flight_scheme/flight_scheme_5.png","null","",""
"","","","","","image-button-response","102","502961","0.0-14.0-1.0-1.4","A88B7E566F794A63B2C9CD11B78E018D","A88B7E566F794A63B2C9CD11B78E018D","0198ee47-bfeb-7e3b-9535-7ff3e31f6c2a","0198ee3c-27ac-7803-a9ea-f3b4ad4ad678","{""num_scrambled_semantic"":""8"",""num_scrambled_causal"":""4"",""num_scrambled_schematic"":""4"",""participantId"":""A88B7E566F794A63B2C9CD11B78E018D"",""assignmentId"":""0198ee47-bfeb-7e3b-9535-7ff3e31f6c2a"",""projectId"":""0198ee3c-27ac-7803-a9ea-f3b4ad4ad678""}","https://test12345.live/?num_scrambled_semantic=8&num_scrambled_causal=4&num_scrambled_schematic=4&participantId=A88B7E566F794A63B2C9CD11B78E018D&assignmentId=0198ee47-bfeb-7e3b-9535-7ff3e31f6c2a&projectId=0198ee3c-27ac-7803-a9ea-f3b4ad4ad678","A88B7E566F794A63B2C9CD11B78E018D-2025-08-28-02-06-49","","730","","images/schematic_sequence/flight_scheme/flight_scheme_5.png","0","",""
"","","","","","image-button-response","103","504763","0.0-14.0-1.0-2.4","A88B7E566F794A63B2C9CD11B78E018D","A88B7E566F794A63B2C9CD11B78E018D","0198ee47-bfeb-7e3b-9535-7ff3e31f6c2a","0198ee3c-27ac-7803-a9ea-f3b4ad4ad678","{""num_scrambled_semantic"":""8"",""num_scrambled_causal"":""4"",""num_scrambled_schematic"":""4"",""participantId"":""A88B7E566F794A63B2C9CD11B78E018D"",""assignmentId"":""0198ee47-bfeb-7e3b-9535-7ff3e31f6c2a"",""projectId"":""0198ee3c-27ac-7803-a9ea-f3b4ad4ad678""}","https://test12345.live/?num_scrambled_semantic=8&num_scrambled_causal=4&num_scrambled_schematic=4&participantId=A88B7E566F794A63B2C9CD11B78E018D&assignmentId=0198ee47-bfeb-7e3b-9535-7ff3e31f6c2a&projectId=0198ee3c-27ac-7803-a9ea-f3b4ad4ad678","A88B7E566F794A63B2C9CD11B78E018D-2025-08-28-02-06-49","","null","","[]","null","",""
"","","","","","image-button-response","104","509281","0.0-14.0-1.0-0.5","A88B7E566F794A63B2C9CD11B78E018D","A88B7E566F794A63B2C9CD11B78E018D","0198ee47-bfeb-7e3b-9535-7ff3e31f6c2a","0198ee3c-27ac-7803-a9ea-f3b4ad4ad678","{""num_scrambled_semantic"":""8"",""num_scrambled_causal"":""4"",""num_scrambled_schematic"":""4"",""participantId"":""A88B7E566F794A63B2C9CD11B78E018D"",""assignmentId"":""0198ee47-bfeb-7e3b-9535-7ff3e31f6c2a"",""projectId"":""0198ee3c-27ac-7803-a9ea-f3b4ad4ad678""}","https://test12345.live/?num_scrambled_semantic=8&num_scrambled_causal=4&num_scrambled_schematic=4&participantId=A88B7E566F794A63B2C9CD11B78E018D&assignmentId=0198ee47-bfeb-7e3b-9535-7ff3e31f6c2a&projectId=0198ee3c-27ac-7803-a9ea-f3b4ad4ad678","A88B7E566F794A63B2C9CD11B78E018D-2025-08-28-02-06-49","","null","","images/schematic_sequence/flight_scheme/flight_scheme_6.png","null","",""
"","","","","","image-button-response","105","509911","0.0-14.0-1.0-1.5","A88B7E566F794A63B2C9CD11B78E018D","A88B7E566F794A63B2C9CD11B78E018D","0198ee47-bfeb-7e3b-9535-7ff3e31f6c2a","0198ee3c-27ac-7803-a9ea-f3b4ad4ad678","{""num_scrambled_semantic"":""8"",""num_scrambled_causal"":""4"",""num_scrambled_schematic"":""4"",""participantId"":""A88B7E566F794A63B2C9CD11B78E018D"",""assignmentId"":""0198ee47-bfeb-7e3b-9535-7ff3e31f6c2a"",""projectId"":""0198ee3c-27ac-7803-a9ea-f3b4ad4ad678""}","https://test12345.live/?num_scrambled_semantic=8&num_scrambled_causal=4&num_scrambled_schematic=4&participantId=A88B7E566F794A63B2C9CD11B78E018D&assignmentId=0198ee47-bfeb-7e3b-9535-7ff3e31f6c2a&projectId=0198ee3c-27ac-7803-a9ea-f3b4ad4ad678","A88B7E566F794A63B2C9CD11B78E018D-2025-08-28-02-06-49","","629","","images/schematic_sequence/flight_scheme/flight_scheme_6.png","1","",""
"","","","","","image-button-response","106","511713","0.0-14.0-1.0-2.5","A88B7E566F794A63B2C9CD11B78E018D","A88B7E566F794A63B2C9CD11B78E018D","0198ee47-bfeb-7e3b-9535-7ff3e31f6c2a","0198ee3c-27ac-7803-a9ea-f3b4ad4ad678","{""num_scrambled_semantic"":""8"",""num_scrambled_causal"":""4"",""num_scrambled_schematic"":""4"",""participantId"":""A88B7E566F794A63B2C9CD11B78E018D"",""assignmentId"":""0198ee47-bfeb-7e3b-9535-7ff3e31f6c2a"",""projectId"":""0198ee3c-27ac-7803-a9ea-f3b4ad4ad678""}","https://test12345.live/?num_scrambled_semantic=8&num_scrambled_causal=4&num_scrambled_schematic=4&participantId=A88B7E566F794A63B2C9CD11B78E018D&assignmentId=0198ee47-bfeb-7e3b-9535-7ff3e31f6c2a&projectId=0198ee3c-27ac-7803-a9ea-f3b4ad4ad678","A88B7E566F794A63B2C9CD11B78E018D-2025-08-28-02-06-49","","null","","[]","null","",""
"","","","","","image-button-response","107","516231","0.0-14.0-1.0-0.6","A88B7E566F794A63B2C9CD11B78E018D","A88B7E566F794A63B2C9CD11B78E018D","0198ee47-bfeb-7e3b-9535-7ff3e31f6c2a","0198ee3c-27ac-7803-a9ea-f3b4ad4ad678","{""num_scrambled_semantic"":""8"",""num_scrambled_causal"":""4"",""num_scrambled_schematic"":""4"",""participantId"":""A88B7E566F794A63B2C9CD11B78E018D"",""assignmentId"":""0198ee47-bfeb-7e3b-9535-7ff3e31f6c2a"",""projectId"":""0198ee3c-27ac-7803-a9ea-f3b4ad4ad678""}","https://test12345.live/?num_scrambled_semantic=8&num_scrambled_causal=4&num_scrambled_schematic=4&participantId=A88B7E566F794A63B2C9CD11B78E018D&assignmentId=0198ee47-bfeb-7e3b-9535-7ff3e31f6c2a&projectId=0198ee3c-27ac-7803-a9ea-f3b4ad4ad678","A88B7E566F794A63B2C9CD11B78E018D-2025-08-28-02-06-49","","null","","images/schematic_sequence/flight_scheme/flight_scheme_7.png","null","",""
"","","","","","image-button-response","108","516760","0.0-14.0-1.0-1.6","A88B7E566F794A63B2C9CD11B78E018D","A88B7E566F794A63B2C9CD11B78E018D","0198ee47-bfeb-7e3b-9535-7ff3e31f6c2a","0198ee3c-27ac-7803-a9ea-f3b4ad4ad678","{""num_scrambled_semantic"":""8"",""num_scrambled_causal"":""4"",""num_scrambled_schematic"":""4"",""participantId"":""A88B7E566F794A63B2C9CD11B78E018D"",""assignmentId"":""0198ee47-bfeb-7e3b-9535-7ff3e31f6c2a"",""projectId"":""0198ee3c-27ac-7803-a9ea-f3b4ad4ad678""}","https://test12345.live/?num_scrambled_semantic=8&num_scrambled_causal=4&num_scrambled_schematic=4&participantId=A88B7E566F794A63B2C9CD11B78E018D&assignmentId=0198ee47-bfeb-7e3b-9535-7ff3e31f6c2a&projectId=0198ee3c-27ac-7803-a9ea-f3b4ad4ad678","A88B7E566F794A63B2C9CD11B78E018D-2025-08-28-02-06-49","","528","","images/schematic_sequence/flight_scheme/flight_scheme_7.png","1","",""
"","","","","","image-button-response","109","518562","0.0-14.0-1.0-2.6","A88B7E566F794A63B2C9CD11B78E018D","A88B7E566F794A63B2C9CD11B78E018D","0198ee47-bfeb-7e3b-9535-7ff3e31f6c2a","0198ee3c-27ac-7803-a9ea-f3b4ad4ad678","{""num_scrambled_semantic"":""8"",""num_scrambled_causal"":""4"",""num_scrambled_schematic"":""4"",""participantId"":""A88B7E566F794A63B2C9CD11B78E018D"",""assignmentId"":""0198ee47-bfeb-7e3b-9535-7ff3e31f6c2a"",""projectId"":""0198ee3c-27ac-7803-a9ea-f3b4ad4ad678""}","https://test12345.live/?num_scrambled_semantic=8&num_scrambled_causal=4&num_scrambled_schematic=4&participantId=A88B7E566F794A63B2C9CD11B78E018D&assignmentId=0198ee47-bfeb-7e3b-9535-7ff3e31f6c2a&projectId=0198ee3c-27ac-7803-a9ea-f3b4ad4ad678","A88B7E566F794A63B2C9CD11B78E018D-2025-08-28-02-06-49","","null","","[]","null","",""
"","","","","","image-button-response","110","523077","0.0-14.0-1.0-0.7","A88B7E566F794A63B2C9CD11B78E018D","A88B7E566F794A63B2C9CD11B78E018D","0198ee47-bfeb-7e3b-9535-7ff3e31f6c2a","0198ee3c-27ac-7803-a9ea-f3b4ad4ad678","{""num_scrambled_semantic"":""8"",""num_scrambled_causal"":""4"",""num_scrambled_schematic"":""4"",""participantId"":""A88B7E566F794A63B2C9CD11B78E018D"",""assignmentId"":""0198ee47-bfeb-7e3b-9535-7ff3e31f6c2a"",""projectId"":""0198ee3c-27ac-7803-a9ea-f3b4ad4ad678""}","https://test12345.live/?num_scrambled_semantic=8&num_scrambled_causal=4&num_scrambled_schematic=4&participantId=A88B7E566F794A63B2C9CD11B78E018D&assignmentId=0198ee47-bfeb-7e3b-9535-7ff3e31f6c2a&projectId=0198ee3c-27ac-7803-a9ea-f3b4ad4ad678","A88B7E566F794A63B2C9CD11B78E018D-2025-08-28-02-06-49","","null","","images/schematic_sequence/flight_scheme/flight_scheme_8.png","null","",""
"","","","","","image-button-response","111","525212","0.0-14.0-1.0-1.7","A88B7E566F794A63B2C9CD11B78E018D","A88B7E566F794A63B2C9CD11B78E018D","0198ee47-bfeb-7e3b-9535-7ff3e31f6c2a","0198ee3c-27ac-7803-a9ea-f3b4ad4ad678","{""num_scrambled_semantic"":""8"",""num_scrambled_causal"":""4"",""num_scrambled_schematic"":""4"",""participantId"":""A88B7E566F794A63B2C9CD11B78E018D"",""assignmentId"":""0198ee47-bfeb-7e3b-9535-7ff3e31f6c2a"",""projectId"":""0198ee3c-27ac-7803-a9ea-f3b4ad4ad678""}","https://test12345.live/?num_scrambled_semantic=8&num_scrambled_causal=4&num_scrambled_schematic=4&participantId=A88B7E566F794A63B2C9CD11B78E018D&assignmentId=0198ee47-bfeb-7e3b-9535-7ff3e31f6c2a&projectId=0198ee3c-27ac-7803-a9ea-f3b4ad4ad678","A88B7E566F794A63B2C9CD11B78E018D-2025-08-28-02-06-49","","2134","","images/schematic_sequence/flight_scheme/flight_scheme_8.png","1","",""
"","","","","","image-button-response","112","527014","0.0-14.0-1.0-2.7","A88B7E566F794A63B2C9CD11B78E018D","A88B7E566F794A63B2C9CD11B78E018D","0198ee47-bfeb-7e3b-9535-7ff3e31f6c2a","0198ee3c-27ac-7803-a9ea-f3b4ad4ad678","{""num_scrambled_semantic"":""8"",""num_scrambled_causal"":""4"",""num_scrambled_schematic"":""4"",""participantId"":""A88B7E566F794A63B2C9CD11B78E018D"",""assignmentId"":""0198ee47-bfeb-7e3b-9535-7ff3e31f6c2a"",""projectId"":""0198ee3c-27ac-7803-a9ea-f3b4ad4ad678""}","https://test12345.live/?num_scrambled_semantic=8&num_scrambled_causal=4&num_scrambled_schematic=4&participantId=A88B7E566F794A63B2C9CD11B78E018D&assignmentId=0198ee47-bfeb-7e3b-9535-7ff3e31f6c2a&projectId=0198ee3c-27ac-7803-a9ea-f3b4ad4ad678","A88B7E566F794A63B2C9CD11B78E018D-2025-08-28-02-06-49","","null","","[]","null","",""
"","","","","","image-button-response","113","531532","0.0-14.0-1.0-0.8","A88B7E566F794A63B2C9CD11B78E018D","A88B7E566F794A63B2C9CD11B78E018D","0198ee47-bfeb-7e3b-9535-7ff3e31f6c2a","0198ee3c-27ac-7803-a9ea-f3b4ad4ad678","{""num_scrambled_semantic"":""8"",""num_scrambled_causal"":""4"",""num_scrambled_schematic"":""4"",""participantId"":""A88B7E566F794A63B2C9CD11B78E018D"",""assignmentId"":""0198ee47-bfeb-7e3b-9535-7ff3e31f6c2a"",""projectId"":""0198ee3c-27ac-7803-a9ea-f3b4ad4ad678""}","https://test12345.live/?num_scrambled_semantic=8&num_scrambled_causal=4&num_scrambled_schematic=4&participantId=A88B7E566F794A63B2C9CD11B78E018D&assignmentId=0198ee47-bfeb-7e3b-9535-7ff3e31f6c2a&projectId=0198ee3c-27ac-7803-a9ea-f3b4ad4ad678","A88B7E566F794A63B2C9CD11B78E018D-2025-08-28-02-06-49","","null","","images/schematic_sequence/flight_scheme/flight_scheme_9.png","null","",""
