"success","timeout","failed_images","failed_audio","failed_video","trial_type","trial_index","time_elapsed","internal_node_id","subject","subject_id","study_id","session_id","urlvar","current_url","audio_id","view_history","rt","device_id","stimulus","response","estimated_stimulus_onset","seq_name"
"true","false","[]","[]","[]","preload","0","9771","0.0-0.0","A8D959F3CEF64358AE82951D037B286D","A8D959F3CEF64358AE82951D037B286D","0f49cccf-56e6-4d4b-82c3-110f95fed89a","6d972c12-ef4f-4967-baa7-815328c4c025","{""num_scrambled_semantic"":""8"",""num_scrambled_causal"":""4"",""num_scrambled_schematic"":""4"",""participantId"":""A8D959F3CEF64358AE82951D037B286D"",""assignmentId"":""0f49cccf-56e6-4d4b-82c3-110f95fed89a"",""projectId"":""6d972c12-ef4f-4967-baa7-815328c4c025""}","https://test12345.live/?num_scrambled_semantic=8&num_scrambled_causal=4&num_scrambled_schematic=4&participantId=A8D959F3CEF64358AE82951D037B286D&assignmentId=0f49cccf-56e6-4d4b-82c3-110f95fed89a&projectId=6d972c12-ef4f-4967-baa7-815328c4c025","A8D959F3CEF64358AE82951D037B286D-2025-08-07-17-59-23","","","","","","",""
"","","","","","instructions","1","27196","0.0-1.0","A8D959F3CEF64358AE82951D037B286D","A8D959F3CEF64358AE82951D037B286D","0f49cccf-56e6-4d4b-82c3-110f95fed89a","6d972c12-ef4f-4967-baa7-815328c4c025","{""num_scrambled_semantic"":""8"",""num_scrambled_causal"":""4"",""num_scrambled_schematic"":""4"",""participantId"":""A8D959F3CEF64358AE82951D037B286D"",""assignmentId"":""0f49cccf-56e6-4d4b-82c3-110f95fed89a"",""projectId"":""6d972c12-ef4f-4967-baa7-815328c4c025""}","https://test12345.live/?num_scrambled_semantic=8&num_scrambled_causal=4&num_scrambled_schematic=4&participantId=A8D959F3CEF64358AE82951D037B286D&assignmentId=0f49cccf-56e6-4d4b-82c3-110f95fed89a&projectId=6d972c12-ef4f-4967-baa7-815328c4c025","A8D959F3CEF64358AE82951D037B286D-2025-08-07-17-59-23","[{""page_index"":0,""viewing_time"":17423}]","17424","","","","",""
"","","","","","instructions","2","42288","0.0-2.0","A8D959F3CEF64358AE82951D037B286D","A8D959F3CEF64358AE82951D037B286D","0f49cccf-56e6-4d4b-82c3-110f95fed89a","6d972c12-ef4f-4967-baa7-815328c4c025","{""num_scrambled_semantic"":""8"",""num_scrambled_causal"":""4"",""num_scrambled_schematic"":""4"",""participantId"":""A8D959F3CEF64358AE82951D037B286D"",""assignmentId"":""0f49cccf-56e6-4d4b-82c3-110f95fed89a"",""projectId"":""6d972c12-ef4f-4967-baa7-815328c4c025""}","https://test12345.live/?num_scrambled_semantic=8&num_scrambled_causal=4&num_scrambled_schematic=4&participantId=A8D959F3CEF64358AE82951D037B286D&assignmentId=0f49cccf-56e6-4d4b-82c3-110f95fed89a&projectId=6d972c12-ef4f-4967-baa7-815328c4c025","A8D959F3CEF64358AE82951D037B286D-2025-08-07-17-59-23","[{""page_index"":0,""viewing_time"":15089}]","15090","","","","",""
"true","","","","","fullscreen","3","45528","0.0-3.0","A8D959F3CEF64358AE82951D037B286D","A8D959F3CEF64358AE82951D037B286D","0f49cccf-56e6-4d4b-82c3-110f95fed89a","6d972c12-ef4f-4967-baa7-815328c4c025","{""num_scrambled_semantic"":""8"",""num_scrambled_causal"":""4"",""num_scrambled_schematic"":""4"",""participantId"":""A8D959F3CEF64358AE82951D037B286D"",""assignmentId"":""0f49cccf-56e6-4d4b-82c3-110f95fed89a"",""projectId"":""6d972c12-ef4f-4967-baa7-815328c4c025""}","https://test12345.live/?num_scrambled_semantic=8&num_scrambled_causal=4&num_scrambled_schematic=4&participantId=A8D959F3CEF64358AE82951D037B286D&assignmentId=0f49cccf-56e6-4d4b-82c3-110f95fed89a&projectId=6d972c12-ef4f-4967-baa7-815328c4c025","A8D959F3CEF64358AE82951D037B286D-2025-08-07-17-59-23","","2224","","","","",""
"","","","","","initialize-microphone","4","57647","0.0-4.0-0.0","A8D959F3CEF64358AE82951D037B286D","A8D959F3CEF64358AE82951D037B286D","0f49cccf-56e6-4d4b-82c3-110f95fed89a","6d972c12-ef4f-4967-baa7-815328c4c025","{""num_scrambled_semantic"":""8"",""num_scrambled_causal"":""4"",""num_scrambled_schematic"":""4"",""participantId"":""A8D959F3CEF64358AE82951D037B286D"",""assignmentId"":""0f49cccf-56e6-4d4b-82c3-110f95fed89a"",""projectId"":""6d972c12-ef4f-4967-baa7-815328c4c025""}","https://test12345.live/?num_scrambled_semantic=8&num_scrambled_causal=4&num_scrambled_schematic=4&participantId=A8D959F3CEF64358AE82951D037B286D&assignmentId=0f49cccf-56e6-4d4b-82c3-110f95fed89a&projectId=6d972c12-ef4f-4967-baa7-815328c4c025","A8D959F3CEF64358AE82951D037B286D-2025-08-07-17-59-23","","","685c9d599bfebd31c57b0522caa1d8d912b4399d2081804e780979480c246118","","","",""
"","","","","","html-audio-response","5","77869","0.0-4.0-1.0","A8D959F3CEF64358AE82951D037B286D","A8D959F3CEF64358AE82951D037B286D","0f49cccf-56e6-4d4b-82c3-110f95fed89a","6d972c12-ef4f-4967-baa7-815328c4c025","{""num_scrambled_semantic"":""8"",""num_scrambled_causal"":""4"",""num_scrambled_schematic"":""4"",""participantId"":""A8D959F3CEF64358AE82951D037B286D"",""assignmentId"":""0f49cccf-56e6-4d4b-82c3-110f95fed89a"",""projectId"":""6d972c12-ef4f-4967-baa7-815328c4c025""}","https://test12345.live/?num_scrambled_semantic=8&num_scrambled_causal=4&num_scrambled_schematic=4&participantId=A8D959F3CEF64358AE82951D037B286D&assignmentId=0f49cccf-56e6-4d4b-82c3-110f95fed89a&projectId=6d972c12-ef4f-4967-baa7-815328c4c025","A8D959F3CEF64358AE82951D037B286D-2025-08-07-17-59-23","","5057","","<span style=""color: red; font-size: 24px""> NOW RECORDING</span>
        <p>Please test Microphone</p>","","2",""
"","","","","","html-button-response","6","80527","0.0-4.0-2.0","A8D959F3CEF64358AE82951D037B286D","A8D959F3CEF64358AE82951D037B286D","0f49cccf-56e6-4d4b-82c3-110f95fed89a","6d972c12-ef4f-4967-baa7-815328c4c025","{""num_scrambled_semantic"":""8"",""num_scrambled_causal"":""4"",""num_scrambled_schematic"":""4"",""participantId"":""A8D959F3CEF64358AE82951D037B286D"",""assignmentId"":""0f49cccf-56e6-4d4b-82c3-110f95fed89a"",""projectId"":""6d972c12-ef4f-4967-baa7-815328c4c025""}","https://test12345.live/?num_scrambled_semantic=8&num_scrambled_causal=4&num_scrambled_schematic=4&participantId=A8D959F3CEF64358AE82951D037B286D&assignmentId=0f49cccf-56e6-4d4b-82c3-110f95fed89a&projectId=6d972c12-ef4f-4967-baa7-815328c4c025","A8D959F3CEF64358AE82951D037B286D-2025-08-07-17-59-23","","2655","","<p style=""font-size:48px; color:red;"">Is Microphone OK?</p>","1","",""
"","","","","","instructions","7","90206","0.0-5.0","A8D959F3CEF64358AE82951D037B286D","A8D959F3CEF64358AE82951D037B286D","0f49cccf-56e6-4d4b-82c3-110f95fed89a","6d972c12-ef4f-4967-baa7-815328c4c025","{""num_scrambled_semantic"":""8"",""num_scrambled_causal"":""4"",""num_scrambled_schematic"":""4"",""participantId"":""A8D959F3CEF64358AE82951D037B286D"",""assignmentId"":""0f49cccf-56e6-4d4b-82c3-110f95fed89a"",""projectId"":""6d972c12-ef4f-4967-baa7-815328c4c025""}","https://test12345.live/?num_scrambled_semantic=8&num_scrambled_causal=4&num_scrambled_schematic=4&participantId=A8D959F3CEF64358AE82951D037B286D&assignmentId=0f49cccf-56e6-4d4b-82c3-110f95fed89a&projectId=6d972c12-ef4f-4967-baa7-815328c4c025","A8D959F3CEF64358AE82951D037B286D-2025-08-07-17-59-23","[{""page_index"":0,""viewing_time"":4425},{""page_index"":1,""viewing_time"":5253}]","9678","","","","",""
"","","","","","image-button-response","8","96218","0.0-6.0-0.0","A8D959F3CEF64358AE82951D037B286D","A8D959F3CEF64358AE82951D037B286D","0f49cccf-56e6-4d4b-82c3-110f95fed89a","6d972c12-ef4f-4967-baa7-815328c4c025","{""num_scrambled_semantic"":""8"",""num_scrambled_causal"":""4"",""num_scrambled_schematic"":""4"",""participantId"":""A8D959F3CEF64358AE82951D037B286D"",""assignmentId"":""0f49cccf-56e6-4d4b-82c3-110f95fed89a"",""projectId"":""6d972c12-ef4f-4967-baa7-815328c4c025""}","https://test12345.live/?num_scrambled_semantic=8&num_scrambled_causal=4&num_scrambled_schematic=4&participantId=A8D959F3CEF64358AE82951D037B286D&assignmentId=0f49cccf-56e6-4d4b-82c3-110f95fed89a&projectId=6d972c12-ef4f-4967-baa7-815328c4c025","A8D959F3CEF64358AE82951D037B286D-2025-08-07-17-59-23","","null","","images/instructions/movie_0.png","null","",""
"","","","","","image-button-response","9","100734","0.0-6.0-1.0-0.0","A8D959F3CEF64358AE82951D037B286D","A8D959F3CEF64358AE82951D037B286D","0f49cccf-56e6-4d4b-82c3-110f95fed89a","6d972c12-ef4f-4967-baa7-815328c4c025","{""num_scrambled_semantic"":""8"",""num_scrambled_causal"":""4"",""num_scrambled_schematic"":""4"",""participantId"":""A8D959F3CEF64358AE82951D037B286D"",""assignmentId"":""0f49cccf-56e6-4d4b-82c3-110f95fed89a"",""projectId"":""6d972c12-ef4f-4967-baa7-815328c4c025""}","https://test12345.live/?num_scrambled_semantic=8&num_scrambled_causal=4&num_scrambled_schematic=4&participantId=A8D959F3CEF64358AE82951D037B286D&assignmentId=0f49cccf-56e6-4d4b-82c3-110f95fed89a&projectId=6d972c12-ef4f-4967-baa7-815328c4c025","A8D959F3CEF64358AE82951D037B286D-2025-08-07-17-59-23","","null","","images/instructions/movie_1.png","null","",""
"","","","","","image-button-response","10","103459","0.0-6.0-1.0-1.0","A8D959F3CEF64358AE82951D037B286D","A8D959F3CEF64358AE82951D037B286D","0f49cccf-56e6-4d4b-82c3-110f95fed89a","6d972c12-ef4f-4967-baa7-815328c4c025","{""num_scrambled_semantic"":""8"",""num_scrambled_causal"":""4"",""num_scrambled_schematic"":""4"",""participantId"":""A8D959F3CEF64358AE82951D037B286D"",""assignmentId"":""0f49cccf-56e6-4d4b-82c3-110f95fed89a"",""projectId"":""6d972c12-ef4f-4967-baa7-815328c4c025""}","https://test12345.live/?num_scrambled_semantic=8&num_scrambled_causal=4&num_scrambled_schematic=4&participantId=A8D959F3CEF64358AE82951D037B286D&assignmentId=0f49cccf-56e6-4d4b-82c3-110f95fed89a&projectId=6d972c12-ef4f-4967-baa7-815328c4c025","A8D959F3CEF64358AE82951D037B286D-2025-08-07-17-59-23","","2723","","images/instructions/movie_1.png","0","",""
"","","","","","image-button-response","11","105262","0.0-6.0-1.0-2.0","A8D959F3CEF64358AE82951D037B286D","A8D959F3CEF64358AE82951D037B286D","0f49cccf-56e6-4d4b-82c3-110f95fed89a","6d972c12-ef4f-4967-baa7-815328c4c025","{""num_scrambled_semantic"":""8"",""num_scrambled_causal"":""4"",""num_scrambled_schematic"":""4"",""participantId"":""A8D959F3CEF64358AE82951D037B286D"",""assignmentId"":""0f49cccf-56e6-4d4b-82c3-110f95fed89a"",""projectId"":""6d972c12-ef4f-4967-baa7-815328c4c025""}","https://test12345.live/?num_scrambled_semantic=8&num_scrambled_causal=4&num_scrambled_schematic=4&participantId=A8D959F3CEF64358AE82951D037B286D&assignmentId=0f49cccf-56e6-4d4b-82c3-110f95fed89a&projectId=6d972c12-ef4f-4967-baa7-815328c4c025","A8D959F3CEF64358AE82951D037B286D-2025-08-07-17-59-23","","null","","[]","null","",""
"","","","","","image-button-response","12","109776","0.0-6.0-1.0-0.1","A8D959F3CEF64358AE82951D037B286D","A8D959F3CEF64358AE82951D037B286D","0f49cccf-56e6-4d4b-82c3-110f95fed89a","6d972c12-ef4f-4967-baa7-815328c4c025","{""num_scrambled_semantic"":""8"",""num_scrambled_causal"":""4"",""num_scrambled_schematic"":""4"",""participantId"":""A8D959F3CEF64358AE82951D037B286D"",""assignmentId"":""0f49cccf-56e6-4d4b-82c3-110f95fed89a"",""projectId"":""6d972c12-ef4f-4967-baa7-815328c4c025""}","https://test12345.live/?num_scrambled_semantic=8&num_scrambled_causal=4&num_scrambled_schematic=4&participantId=A8D959F3CEF64358AE82951D037B286D&assignmentId=0f49cccf-56e6-4d4b-82c3-110f95fed89a&projectId=6d972c12-ef4f-4967-baa7-815328c4c025","A8D959F3CEF64358AE82951D037B286D-2025-08-07-17-59-23","","null","","images/instructions/movie_2.png","null","",""
"","","","","","image-button-response","13","111601","0.0-6.0-1.0-1.1","A8D959F3CEF64358AE82951D037B286D","A8D959F3CEF64358AE82951D037B286D","0f49cccf-56e6-4d4b-82c3-110f95fed89a","6d972c12-ef4f-4967-baa7-815328c4c025","{""num_scrambled_semantic"":""8"",""num_scrambled_causal"":""4"",""num_scrambled_schematic"":""4"",""participantId"":""A8D959F3CEF64358AE82951D037B286D"",""assignmentId"":""0f49cccf-56e6-4d4b-82c3-110f95fed89a"",""projectId"":""6d972c12-ef4f-4967-baa7-815328c4c025""}","https://test12345.live/?num_scrambled_semantic=8&num_scrambled_causal=4&num_scrambled_schematic=4&participantId=A8D959F3CEF64358AE82951D037B286D&assignmentId=0f49cccf-56e6-4d4b-82c3-110f95fed89a&projectId=6d972c12-ef4f-4967-baa7-815328c4c025","A8D959F3CEF64358AE82951D037B286D-2025-08-07-17-59-23","","1822","","images/instructions/movie_2.png","1","",""
"","","","","","image-button-response","14","113417","0.0-6.0-1.0-2.1","A8D959F3CEF64358AE82951D037B286D","A8D959F3CEF64358AE82951D037B286D","0f49cccf-56e6-4d4b-82c3-110f95fed89a","6d972c12-ef4f-4967-baa7-815328c4c025","{""num_scrambled_semantic"":""8"",""num_scrambled_causal"":""4"",""num_scrambled_schematic"":""4"",""participantId"":""A8D959F3CEF64358AE82951D037B286D"",""assignmentId"":""0f49cccf-56e6-4d4b-82c3-110f95fed89a"",""projectId"":""6d972c12-ef4f-4967-baa7-815328c4c025""}","https://test12345.live/?num_scrambled_semantic=8&num_scrambled_causal=4&num_scrambled_schematic=4&participantId=A8D959F3CEF64358AE82951D037B286D&assignmentId=0f49cccf-56e6-4d4b-82c3-110f95fed89a&projectId=6d972c12-ef4f-4967-baa7-815328c4c025","A8D959F3CEF64358AE82951D037B286D-2025-08-07-17-59-23","","null","","[]","null","",""
"","","","","","image-button-response","15","117928","0.0-6.0-1.0-0.2","A8D959F3CEF64358AE82951D037B286D","A8D959F3CEF64358AE82951D037B286D","0f49cccf-56e6-4d4b-82c3-110f95fed89a","6d972c12-ef4f-4967-baa7-815328c4c025","{""num_scrambled_semantic"":""8"",""num_scrambled_causal"":""4"",""num_scrambled_schematic"":""4"",""participantId"":""A8D959F3CEF64358AE82951D037B286D"",""assignmentId"":""0f49cccf-56e6-4d4b-82c3-110f95fed89a"",""projectId"":""6d972c12-ef4f-4967-baa7-815328c4c025""}","https://test12345.live/?num_scrambled_semantic=8&num_scrambled_causal=4&num_scrambled_schematic=4&participantId=A8D959F3CEF64358AE82951D037B286D&assignmentId=0f49cccf-56e6-4d4b-82c3-110f95fed89a&projectId=6d972c12-ef4f-4967-baa7-815328c4c025","A8D959F3CEF64358AE82951D037B286D-2025-08-07-17-59-23","","null","","images/instructions/movie_3.png","null","",""
"","","","","","image-button-response","16","119170","0.0-6.0-1.0-1.2","A8D959F3CEF64358AE82951D037B286D","A8D959F3CEF64358AE82951D037B286D","0f49cccf-56e6-4d4b-82c3-110f95fed89a","6d972c12-ef4f-4967-baa7-815328c4c025","{""num_scrambled_semantic"":""8"",""num_scrambled_causal"":""4"",""num_scrambled_schematic"":""4"",""participantId"":""A8D959F3CEF64358AE82951D037B286D"",""assignmentId"":""0f49cccf-56e6-4d4b-82c3-110f95fed89a"",""projectId"":""6d972c12-ef4f-4967-baa7-815328c4c025""}","https://test12345.live/?num_scrambled_semantic=8&num_scrambled_causal=4&num_scrambled_schematic=4&participantId=A8D959F3CEF64358AE82951D037B286D&assignmentId=0f49cccf-56e6-4d4b-82c3-110f95fed89a&projectId=6d972c12-ef4f-4967-baa7-815328c4c025","A8D959F3CEF64358AE82951D037B286D-2025-08-07-17-59-23","","1239","","images/instructions/movie_3.png","0","",""
"","","","","","image-button-response","17","120976","0.0-6.0-1.0-2.2","A8D959F3CEF64358AE82951D037B286D","A8D959F3CEF64358AE82951D037B286D","0f49cccf-56e6-4d4b-82c3-110f95fed89a","6d972c12-ef4f-4967-baa7-815328c4c025","{""num_scrambled_semantic"":""8"",""num_scrambled_causal"":""4"",""num_scrambled_schematic"":""4"",""participantId"":""A8D959F3CEF64358AE82951D037B286D"",""assignmentId"":""0f49cccf-56e6-4d4b-82c3-110f95fed89a"",""projectId"":""6d972c12-ef4f-4967-baa7-815328c4c025""}","https://test12345.live/?num_scrambled_semantic=8&num_scrambled_causal=4&num_scrambled_schematic=4&participantId=A8D959F3CEF64358AE82951D037B286D&assignmentId=0f49cccf-56e6-4d4b-82c3-110f95fed89a&projectId=6d972c12-ef4f-4967-baa7-815328c4c025","A8D959F3CEF64358AE82951D037B286D-2025-08-07-17-59-23","","null","","[]","null","",""
"","","","","","image-button-response","18","125482","0.0-6.0-1.0-0.3","A8D959F3CEF64358AE82951D037B286D","A8D959F3CEF64358AE82951D037B286D","0f49cccf-56e6-4d4b-82c3-110f95fed89a","6d972c12-ef4f-4967-baa7-815328c4c025","{""num_scrambled_semantic"":""8"",""num_scrambled_causal"":""4"",""num_scrambled_schematic"":""4"",""participantId"":""A8D959F3CEF64358AE82951D037B286D"",""assignmentId"":""0f49cccf-56e6-4d4b-82c3-110f95fed89a"",""projectId"":""6d972c12-ef4f-4967-baa7-815328c4c025""}","https://test12345.live/?num_scrambled_semantic=8&num_scrambled_causal=4&num_scrambled_schematic=4&participantId=A8D959F3CEF64358AE82951D037B286D&assignmentId=0f49cccf-56e6-4d4b-82c3-110f95fed89a&projectId=6d972c12-ef4f-4967-baa7-815328c4c025","A8D959F3CEF64358AE82951D037B286D-2025-08-07-17-59-23","","null","","images/instructions/movie_4.png","null","",""
"","","","","","image-button-response","19","127114","0.0-6.0-1.0-1.3","A8D959F3CEF64358AE82951D037B286D","A8D959F3CEF64358AE82951D037B286D","0f49cccf-56e6-4d4b-82c3-110f95fed89a","6d972c12-ef4f-4967-baa7-815328c4c025","{""num_scrambled_semantic"":""8"",""num_scrambled_causal"":""4"",""num_scrambled_schematic"":""4"",""participantId"":""A8D959F3CEF64358AE82951D037B286D"",""assignmentId"":""0f49cccf-56e6-4d4b-82c3-110f95fed89a"",""projectId"":""6d972c12-ef4f-4967-baa7-815328c4c025""}","https://test12345.live/?num_scrambled_semantic=8&num_scrambled_causal=4&num_scrambled_schematic=4&participantId=A8D959F3CEF64358AE82951D037B286D&assignmentId=0f49cccf-56e6-4d4b-82c3-110f95fed89a&projectId=6d972c12-ef4f-4967-baa7-815328c4c025","A8D959F3CEF64358AE82951D037B286D-2025-08-07-17-59-23","","1630","","images/instructions/movie_4.png","0","",""
"","","","","","image-button-response","20","128930","0.0-6.0-1.0-2.3","A8D959F3CEF64358AE82951D037B286D","A8D959F3CEF64358AE82951D037B286D","0f49cccf-56e6-4d4b-82c3-110f95fed89a","6d972c12-ef4f-4967-baa7-815328c4c025","{""num_scrambled_semantic"":""8"",""num_scrambled_causal"":""4"",""num_scrambled_schematic"":""4"",""participantId"":""A8D959F3CEF64358AE82951D037B286D"",""assignmentId"":""0f49cccf-56e6-4d4b-82c3-110f95fed89a"",""projectId"":""6d972c12-ef4f-4967-baa7-815328c4c025""}","https://test12345.live/?num_scrambled_semantic=8&num_scrambled_causal=4&num_scrambled_schematic=4&participantId=A8D959F3CEF64358AE82951D037B286D&assignmentId=0f49cccf-56e6-4d4b-82c3-110f95fed89a&projectId=6d972c12-ef4f-4967-baa7-815328c4c025","A8D959F3CEF64358AE82951D037B286D-2025-08-07-17-59-23","","null","","[]","null","",""
"","","","","","instructions","21","135890","0.0-7.0","A8D959F3CEF64358AE82951D037B286D","A8D959F3CEF64358AE82951D037B286D","0f49cccf-56e6-4d4b-82c3-110f95fed89a","6d972c12-ef4f-4967-baa7-815328c4c025","{""num_scrambled_semantic"":""8"",""num_scrambled_causal"":""4"",""num_scrambled_schematic"":""4"",""participantId"":""A8D959F3CEF64358AE82951D037B286D"",""assignmentId"":""0f49cccf-56e6-4d4b-82c3-110f95fed89a"",""projectId"":""6d972c12-ef4f-4967-baa7-815328c4c025""}","https://test12345.live/?num_scrambled_semantic=8&num_scrambled_causal=4&num_scrambled_schematic=4&participantId=A8D959F3CEF64358AE82951D037B286D&assignmentId=0f49cccf-56e6-4d4b-82c3-110f95fed89a&projectId=6d972c12-ef4f-4967-baa7-815328c4c025","A8D959F3CEF64358AE82951D037B286D-2025-08-07-17-59-23","[{""page_index"":0,""viewing_time"":5407},{""page_index"":1,""viewing_time"":1552}]","6959","","","","",""
"","","","","","html-audio-response","22","164054","0.0-8.0","A8D959F3CEF64358AE82951D037B286D","A8D959F3CEF64358AE82951D037B286D","0f49cccf-56e6-4d4b-82c3-110f95fed89a","6d972c12-ef4f-4967-baa7-815328c4c025","{""num_scrambled_semantic"":""8"",""num_scrambled_causal"":""4"",""num_scrambled_schematic"":""4"",""participantId"":""A8D959F3CEF64358AE82951D037B286D"",""assignmentId"":""0f49cccf-56e6-4d4b-82c3-110f95fed89a"",""projectId"":""6d972c12-ef4f-4967-baa7-815328c4c025""}","https://test12345.live/?num_scrambled_semantic=8&num_scrambled_causal=4&num_scrambled_schematic=4&participantId=A8D959F3CEF64358AE82951D037B286D&assignmentId=0f49cccf-56e6-4d4b-82c3-110f95fed89a&projectId=6d972c12-ef4f-4967-baa7-815328c4c025","A8D959F3CEF64358AE82951D037B286D-2025-08-07-17-59-23","","26558","","[""<span style=\""color: red; font-size: 24px\""> NOW RECORDING</span><p>Please say out loud all the images you saw in the exact order you saw them. Try to recall as many images as you can, but remember: getting the order right is more important than the number of images you recall.</p>""]","","2",""
"","","","","","instructions","23","166223","0.0-9.0","A8D959F3CEF64358AE82951D037B286D","A8D959F3CEF64358AE82951D037B286D","0f49cccf-56e6-4d4b-82c3-110f95fed89a","6d972c12-ef4f-4967-baa7-815328c4c025","{""num_scrambled_semantic"":""8"",""num_scrambled_causal"":""4"",""num_scrambled_schematic"":""4"",""participantId"":""A8D959F3CEF64358AE82951D037B286D"",""assignmentId"":""0f49cccf-56e6-4d4b-82c3-110f95fed89a"",""projectId"":""6d972c12-ef4f-4967-baa7-815328c4c025""}","https://test12345.live/?num_scrambled_semantic=8&num_scrambled_causal=4&num_scrambled_schematic=4&participantId=A8D959F3CEF64358AE82951D037B286D&assignmentId=0f49cccf-56e6-4d4b-82c3-110f95fed89a&projectId=6d972c12-ef4f-4967-baa7-815328c4c025","A8D959F3CEF64358AE82951D037B286D-2025-08-07-17-59-23","[{""page_index"":0,""viewing_time"":2145}]","2146","","","","",""
"","","","","","image-button-response","24","172232","0.0-10.0-0.0","A8D959F3CEF64358AE82951D037B286D","A8D959F3CEF64358AE82951D037B286D","0f49cccf-56e6-4d4b-82c3-110f95fed89a","6d972c12-ef4f-4967-baa7-815328c4c025","{""num_scrambled_semantic"":""8"",""num_scrambled_causal"":""4"",""num_scrambled_schematic"":""4"",""participantId"":""A8D959F3CEF64358AE82951D037B286D"",""assignmentId"":""0f49cccf-56e6-4d4b-82c3-110f95fed89a"",""projectId"":""6d972c12-ef4f-4967-baa7-815328c4c025""}","https://test12345.live/?num_scrambled_semantic=8&num_scrambled_causal=4&num_scrambled_schematic=4&participantId=A8D959F3CEF64358AE82951D037B286D&assignmentId=0f49cccf-56e6-4d4b-82c3-110f95fed89a&projectId=6d972c12-ef4f-4967-baa7-815328c4c025","A8D959F3CEF64358AE82951D037B286D-2025-08-07-17-59-23","","null","","images/causal_sequence/saving_a_cat_causal/saving_a_cat_causal_0.png","null","",""
"","","","","","image-button-response","25","176749","0.0-10.0-1.0-0.0","A8D959F3CEF64358AE82951D037B286D","A8D959F3CEF64358AE82951D037B286D","0f49cccf-56e6-4d4b-82c3-110f95fed89a","6d972c12-ef4f-4967-baa7-815328c4c025","{""num_scrambled_semantic"":""8"",""num_scrambled_causal"":""4"",""num_scrambled_schematic"":""4"",""participantId"":""A8D959F3CEF64358AE82951D037B286D"",""assignmentId"":""0f49cccf-56e6-4d4b-82c3-110f95fed89a"",""projectId"":""6d972c12-ef4f-4967-baa7-815328c4c025""}","https://test12345.live/?num_scrambled_semantic=8&num_scrambled_causal=4&num_scrambled_schematic=4&participantId=A8D959F3CEF64358AE82951D037B286D&assignmentId=0f49cccf-56e6-4d4b-82c3-110f95fed89a&projectId=6d972c12-ef4f-4967-baa7-815328c4c025","A8D959F3CEF64358AE82951D037B286D-2025-08-07-17-59-23","","null","","images/causal_sequence/saving_a_cat_causal/saving_a_cat_causal_1.png","null","",""
"","","","","","image-button-response","26","179381","0.0-10.0-1.0-1.0","A8D959F3CEF64358AE82951D037B286D","A8D959F3CEF64358AE82951D037B286D","0f49cccf-56e6-4d4b-82c3-110f95fed89a","6d972c12-ef4f-4967-baa7-815328c4c025","{""num_scrambled_semantic"":""8"",""num_scrambled_causal"":""4"",""num_scrambled_schematic"":""4"",""participantId"":""A8D959F3CEF64358AE82951D037B286D"",""assignmentId"":""0f49cccf-56e6-4d4b-82c3-110f95fed89a"",""projectId"":""6d972c12-ef4f-4967-baa7-815328c4c025""}","https://test12345.live/?num_scrambled_semantic=8&num_scrambled_causal=4&num_scrambled_schematic=4&participantId=A8D959F3CEF64358AE82951D037B286D&assignmentId=0f49cccf-56e6-4d4b-82c3-110f95fed89a&projectId=6d972c12-ef4f-4967-baa7-815328c4c025","A8D959F3CEF64358AE82951D037B286D-2025-08-07-17-59-23","","2630","","images/causal_sequence/saving_a_cat_causal/saving_a_cat_causal_1.png","0","",""
"","","","","","image-button-response","27","181190","0.0-10.0-1.0-2.0","A8D959F3CEF64358AE82951D037B286D","A8D959F3CEF64358AE82951D037B286D","0f49cccf-56e6-4d4b-82c3-110f95fed89a","6d972c12-ef4f-4967-baa7-815328c4c025","{""num_scrambled_semantic"":""8"",""num_scrambled_causal"":""4"",""num_scrambled_schematic"":""4"",""participantId"":""A8D959F3CEF64358AE82951D037B286D"",""assignmentId"":""0f49cccf-56e6-4d4b-82c3-110f95fed89a"",""projectId"":""6d972c12-ef4f-4967-baa7-815328c4c025""}","https://test12345.live/?num_scrambled_semantic=8&num_scrambled_causal=4&num_scrambled_schematic=4&participantId=A8D959F3CEF64358AE82951D037B286D&assignmentId=0f49cccf-56e6-4d4b-82c3-110f95fed89a&projectId=6d972c12-ef4f-4967-baa7-815328c4c025","A8D959F3CEF64358AE82951D037B286D-2025-08-07-17-59-23","","null","","[]","null","",""
"","","","","","image-button-response","28","185707","0.0-10.0-1.0-0.1","A8D959F3CEF64358AE82951D037B286D","A8D959F3CEF64358AE82951D037B286D","0f49cccf-56e6-4d4b-82c3-110f95fed89a","6d972c12-ef4f-4967-baa7-815328c4c025","{""num_scrambled_semantic"":""8"",""num_scrambled_causal"":""4"",""num_scrambled_schematic"":""4"",""participantId"":""A8D959F3CEF64358AE82951D037B286D"",""assignmentId"":""0f49cccf-56e6-4d4b-82c3-110f95fed89a"",""projectId"":""6d972c12-ef4f-4967-baa7-815328c4c025""}","https://test12345.live/?num_scrambled_semantic=8&num_scrambled_causal=4&num_scrambled_schematic=4&participantId=A8D959F3CEF64358AE82951D037B286D&assignmentId=0f49cccf-56e6-4d4b-82c3-110f95fed89a&projectId=6d972c12-ef4f-4967-baa7-815328c4c025","A8D959F3CEF64358AE82951D037B286D-2025-08-07-17-59-23","","null","","images/causal_sequence/saving_a_cat_causal/saving_a_cat_causal_2.png","null","",""
"","","","","","image-button-response","29","188209","0.0-10.0-1.0-1.1","A8D959F3CEF64358AE82951D037B286D","A8D959F3CEF64358AE82951D037B286D","0f49cccf-56e6-4d4b-82c3-110f95fed89a","6d972c12-ef4f-4967-baa7-815328c4c025","{""num_scrambled_semantic"":""8"",""num_scrambled_causal"":""4"",""num_scrambled_schematic"":""4"",""participantId"":""A8D959F3CEF64358AE82951D037B286D"",""assignmentId"":""0f49cccf-56e6-4d4b-82c3-110f95fed89a"",""projectId"":""6d972c12-ef4f-4967-baa7-815328c4c025""}","https://test12345.live/?num_scrambled_semantic=8&num_scrambled_causal=4&num_scrambled_schematic=4&participantId=A8D959F3CEF64358AE82951D037B286D&assignmentId=0f49cccf-56e6-4d4b-82c3-110f95fed89a&projectId=6d972c12-ef4f-4967-baa7-815328c4c025","A8D959F3CEF64358AE82951D037B286D-2025-08-07-17-59-23","","2500","","images/causal_sequence/saving_a_cat_causal/saving_a_cat_causal_2.png","1","",""
"","","","","","image-button-response","30","190019","0.0-10.0-1.0-2.1","A8D959F3CEF64358AE82951D037B286D","A8D959F3CEF64358AE82951D037B286D","0f49cccf-56e6-4d4b-82c3-110f95fed89a","6d972c12-ef4f-4967-baa7-815328c4c025","{""num_scrambled_semantic"":""8"",""num_scrambled_causal"":""4"",""num_scrambled_schematic"":""4"",""participantId"":""A8D959F3CEF64358AE82951D037B286D"",""assignmentId"":""0f49cccf-56e6-4d4b-82c3-110f95fed89a"",""projectId"":""6d972c12-ef4f-4967-baa7-815328c4c025""}","https://test12345.live/?num_scrambled_semantic=8&num_scrambled_causal=4&num_scrambled_schematic=4&participantId=A8D959F3CEF64358AE82951D037B286D&assignmentId=0f49cccf-56e6-4d4b-82c3-110f95fed89a&projectId=6d972c12-ef4f-4967-baa7-815328c4c025","A8D959F3CEF64358AE82951D037B286D-2025-08-07-17-59-23","","null","","[]","null","",""
"","","","","","image-button-response","31","194526","0.0-10.0-1.0-0.2","A8D959F3CEF64358AE82951D037B286D","A8D959F3CEF64358AE82951D037B286D","0f49cccf-56e6-4d4b-82c3-110f95fed89a","6d972c12-ef4f-4967-baa7-815328c4c025","{""num_scrambled_semantic"":""8"",""num_scrambled_causal"":""4"",""num_scrambled_schematic"":""4"",""participantId"":""A8D959F3CEF64358AE82951D037B286D"",""assignmentId"":""0f49cccf-56e6-4d4b-82c3-110f95fed89a"",""projectId"":""6d972c12-ef4f-4967-baa7-815328c4c025""}","https://test12345.live/?num_scrambled_semantic=8&num_scrambled_causal=4&num_scrambled_schematic=4&participantId=A8D959F3CEF64358AE82951D037B286D&assignmentId=0f49cccf-56e6-4d4b-82c3-110f95fed89a&projectId=6d972c12-ef4f-4967-baa7-815328c4c025","A8D959F3CEF64358AE82951D037B286D-2025-08-07-17-59-23","","null","","images/causal_sequence/saving_a_cat_causal/saving_a_cat_causal_3.png","null","",""
"","","","","","image-button-response","32","195999","0.0-10.0-1.0-1.2","A8D959F3CEF64358AE82951D037B286D","A8D959F3CEF64358AE82951D037B286D","0f49cccf-56e6-4d4b-82c3-110f95fed89a","6d972c12-ef4f-4967-baa7-815328c4c025","{""num_scrambled_semantic"":""8"",""num_scrambled_causal"":""4"",""num_scrambled_schematic"":""4"",""participantId"":""A8D959F3CEF64358AE82951D037B286D"",""assignmentId"":""0f49cccf-56e6-4d4b-82c3-110f95fed89a"",""projectId"":""6d972c12-ef4f-4967-baa7-815328c4c025""}","https://test12345.live/?num_scrambled_semantic=8&num_scrambled_causal=4&num_scrambled_schematic=4&participantId=A8D959F3CEF64358AE82951D037B286D&assignmentId=0f49cccf-56e6-4d4b-82c3-110f95fed89a&projectId=6d972c12-ef4f-4967-baa7-815328c4c025","A8D959F3CEF64358AE82951D037B286D-2025-08-07-17-59-23","","1471","","images/causal_sequence/saving_a_cat_causal/saving_a_cat_causal_3.png","1","",""
"","","","","","image-button-response","33","197808","0.0-10.0-1.0-2.2","A8D959F3CEF64358AE82951D037B286D","A8D959F3CEF64358AE82951D037B286D","0f49cccf-56e6-4d4b-82c3-110f95fed89a","6d972c12-ef4f-4967-baa7-815328c4c025","{""num_scrambled_semantic"":""8"",""num_scrambled_causal"":""4"",""num_scrambled_schematic"":""4"",""participantId"":""A8D959F3CEF64358AE82951D037B286D"",""assignmentId"":""0f49cccf-56e6-4d4b-82c3-110f95fed89a"",""projectId"":""6d972c12-ef4f-4967-baa7-815328c4c025""}","https://test12345.live/?num_scrambled_semantic=8&num_scrambled_causal=4&num_scrambled_schematic=4&participantId=A8D959F3CEF64358AE82951D037B286D&assignmentId=0f49cccf-56e6-4d4b-82c3-110f95fed89a&projectId=6d972c12-ef4f-4967-baa7-815328c4c025","A8D959F3CEF64358AE82951D037B286D-2025-08-07-17-59-23","","null","","[]","null","",""
"","","","","","image-button-response","34","202314","0.0-10.0-1.0-0.3","A8D959F3CEF64358AE82951D037B286D","A8D959F3CEF64358AE82951D037B286D","0f49cccf-56e6-4d4b-82c3-110f95fed89a","6d972c12-ef4f-4967-baa7-815328c4c025","{""num_scrambled_semantic"":""8"",""num_scrambled_causal"":""4"",""num_scrambled_schematic"":""4"",""participantId"":""A8D959F3CEF64358AE82951D037B286D"",""assignmentId"":""0f49cccf-56e6-4d4b-82c3-110f95fed89a"",""projectId"":""6d972c12-ef4f-4967-baa7-815328c4c025""}","https://test12345.live/?num_scrambled_semantic=8&num_scrambled_causal=4&num_scrambled_schematic=4&participantId=A8D959F3CEF64358AE82951D037B286D&assignmentId=0f49cccf-56e6-4d4b-82c3-110f95fed89a&projectId=6d972c12-ef4f-4967-baa7-815328c4c025","A8D959F3CEF64358AE82951D037B286D-2025-08-07-17-59-23","","null","","images/causal_sequence/saving_a_cat_causal/saving_a_cat_causal_4.png","null","",""
"","","","","","image-button-response","35","204008","0.0-10.0-1.0-1.3","A8D959F3CEF64358AE82951D037B286D","A8D959F3CEF64358AE82951D037B286D","0f49cccf-56e6-4d4b-82c3-110f95fed89a","6d972c12-ef4f-4967-baa7-815328c4c025","{""num_scrambled_semantic"":""8"",""num_scrambled_causal"":""4"",""num_scrambled_schematic"":""4"",""participantId"":""A8D959F3CEF64358AE82951D037B286D"",""assignmentId"":""0f49cccf-56e6-4d4b-82c3-110f95fed89a"",""projectId"":""6d972c12-ef4f-4967-baa7-815328c4c025""}","https://test12345.live/?num_scrambled_semantic=8&num_scrambled_causal=4&num_scrambled_schematic=4&participantId=A8D959F3CEF64358AE82951D037B286D&assignmentId=0f49cccf-56e6-4d4b-82c3-110f95fed89a&projectId=6d972c12-ef4f-4967-baa7-815328c4c025","A8D959F3CEF64358AE82951D037B286D-2025-08-07-17-59-23","","1693","","images/causal_sequence/saving_a_cat_causal/saving_a_cat_causal_4.png","0","",""
"","","","","","image-button-response","36","205810","0.0-10.0-1.0-2.3","A8D959F3CEF64358AE82951D037B286D","A8D959F3CEF64358AE82951D037B286D","0f49cccf-56e6-4d4b-82c3-110f95fed89a","6d972c12-ef4f-4967-baa7-815328c4c025","{""num_scrambled_semantic"":""8"",""num_scrambled_causal"":""4"",""num_scrambled_schematic"":""4"",""participantId"":""A8D959F3CEF64358AE82951D037B286D"",""assignmentId"":""0f49cccf-56e6-4d4b-82c3-110f95fed89a"",""projectId"":""6d972c12-ef4f-4967-baa7-815328c4c025""}","https://test12345.live/?num_scrambled_semantic=8&num_scrambled_causal=4&num_scrambled_schematic=4&participantId=A8D959F3CEF64358AE82951D037B286D&assignmentId=0f49cccf-56e6-4d4b-82c3-110f95fed89a&projectId=6d972c12-ef4f-4967-baa7-815328c4c025","A8D959F3CEF64358AE82951D037B286D-2025-08-07-17-59-23","","null","","[]","null","",""
"","","","","","image-button-response","37","210327","0.0-10.0-1.0-0.4","A8D959F3CEF64358AE82951D037B286D","A8D959F3CEF64358AE82951D037B286D","0f49cccf-56e6-4d4b-82c3-110f95fed89a","6d972c12-ef4f-4967-baa7-815328c4c025","{""num_scrambled_semantic"":""8"",""num_scrambled_causal"":""4"",""num_scrambled_schematic"":""4"",""participantId"":""A8D959F3CEF64358AE82951D037B286D"",""assignmentId"":""0f49cccf-56e6-4d4b-82c3-110f95fed89a"",""projectId"":""6d972c12-ef4f-4967-baa7-815328c4c025""}","https://test12345.live/?num_scrambled_semantic=8&num_scrambled_causal=4&num_scrambled_schematic=4&participantId=A8D959F3CEF64358AE82951D037B286D&assignmentId=0f49cccf-56e6-4d4b-82c3-110f95fed89a&projectId=6d972c12-ef4f-4967-baa7-815328c4c025","A8D959F3CEF64358AE82951D037B286D-2025-08-07-17-59-23","","null","","images/causal_sequence/saving_a_cat_causal/saving_a_cat_causal_5.png","null","",""
"","","","","","image-button-response","38","212766","0.0-10.0-1.0-1.4","A8D959F3CEF64358AE82951D037B286D","A8D959F3CEF64358AE82951D037B286D","0f49cccf-56e6-4d4b-82c3-110f95fed89a","6d972c12-ef4f-4967-baa7-815328c4c025","{""num_scrambled_semantic"":""8"",""num_scrambled_causal"":""4"",""num_scrambled_schematic"":""4"",""participantId"":""A8D959F3CEF64358AE82951D037B286D"",""assignmentId"":""0f49cccf-56e6-4d4b-82c3-110f95fed89a"",""projectId"":""6d972c12-ef4f-4967-baa7-815328c4c025""}","https://test12345.live/?num_scrambled_semantic=8&num_scrambled_causal=4&num_scrambled_schematic=4&participantId=A8D959F3CEF64358AE82951D037B286D&assignmentId=0f49cccf-56e6-4d4b-82c3-110f95fed89a&projectId=6d972c12-ef4f-4967-baa7-815328c4c025","A8D959F3CEF64358AE82951D037B286D-2025-08-07-17-59-23","","2436","","images/causal_sequence/saving_a_cat_causal/saving_a_cat_causal_5.png","0","",""
"","","","","","image-button-response","39","214573","0.0-10.0-1.0-2.4","A8D959F3CEF64358AE82951D037B286D","A8D959F3CEF64358AE82951D037B286D","0f49cccf-56e6-4d4b-82c3-110f95fed89a","6d972c12-ef4f-4967-baa7-815328c4c025","{""num_scrambled_semantic"":""8"",""num_scrambled_causal"":""4"",""num_scrambled_schematic"":""4"",""participantId"":""A8D959F3CEF64358AE82951D037B286D"",""assignmentId"":""0f49cccf-56e6-4d4b-82c3-110f95fed89a"",""projectId"":""6d972c12-ef4f-4967-baa7-815328c4c025""}","https://test12345.live/?num_scrambled_semantic=8&num_scrambled_causal=4&num_scrambled_schematic=4&participantId=A8D959F3CEF64358AE82951D037B286D&assignmentId=0f49cccf-56e6-4d4b-82c3-110f95fed89a&projectId=6d972c12-ef4f-4967-baa7-815328c4c025","A8D959F3CEF64358AE82951D037B286D-2025-08-07-17-59-23","","null","","[]","null","",""
"","","","","","image-button-response","40","219081","0.0-10.0-1.0-0.5","A8D959F3CEF64358AE82951D037B286D","A8D959F3CEF64358AE82951D037B286D","0f49cccf-56e6-4d4b-82c3-110f95fed89a","6d972c12-ef4f-4967-baa7-815328c4c025","{""num_scrambled_semantic"":""8"",""num_scrambled_causal"":""4"",""num_scrambled_schematic"":""4"",""participantId"":""A8D959F3CEF64358AE82951D037B286D"",""assignmentId"":""0f49cccf-56e6-4d4b-82c3-110f95fed89a"",""projectId"":""6d972c12-ef4f-4967-baa7-815328c4c025""}","https://test12345.live/?num_scrambled_semantic=8&num_scrambled_causal=4&num_scrambled_schematic=4&participantId=A8D959F3CEF64358AE82951D037B286D&assignmentId=0f49cccf-56e6-4d4b-82c3-110f95fed89a&projectId=6d972c12-ef4f-4967-baa7-815328c4c025","A8D959F3CEF64358AE82951D037B286D-2025-08-07-17-59-23","","null","","images/causal_sequence/saving_a_cat_causal/saving_a_cat_causal_6.png","null","",""
"","","","","","image-button-response","41","221060","0.0-10.0-1.0-1.5","A8D959F3CEF64358AE82951D037B286D","A8D959F3CEF64358AE82951D037B286D","0f49cccf-56e6-4d4b-82c3-110f95fed89a","6d972c12-ef4f-4967-baa7-815328c4c025","{""num_scrambled_semantic"":""8"",""num_scrambled_causal"":""4"",""num_scrambled_schematic"":""4"",""participantId"":""A8D959F3CEF64358AE82951D037B286D"",""assignmentId"":""0f49cccf-56e6-4d4b-82c3-110f95fed89a"",""projectId"":""6d972c12-ef4f-4967-baa7-815328c4c025""}","https://test12345.live/?num_scrambled_semantic=8&num_scrambled_causal=4&num_scrambled_schematic=4&participantId=A8D959F3CEF64358AE82951D037B286D&assignmentId=0f49cccf-56e6-4d4b-82c3-110f95fed89a&projectId=6d972c12-ef4f-4967-baa7-815328c4c025","A8D959F3CEF64358AE82951D037B286D-2025-08-07-17-59-23","","1977","","images/causal_sequence/saving_a_cat_causal/saving_a_cat_causal_6.png","0","",""
"","","","","","image-button-response","42","222869","0.0-10.0-1.0-2.5","A8D959F3CEF64358AE82951D037B286D","A8D959F3CEF64358AE82951D037B286D","0f49cccf-56e6-4d4b-82c3-110f95fed89a","6d972c12-ef4f-4967-baa7-815328c4c025","{""num_scrambled_semantic"":""8"",""num_scrambled_causal"":""4"",""num_scrambled_schematic"":""4"",""participantId"":""A8D959F3CEF64358AE82951D037B286D"",""assignmentId"":""0f49cccf-56e6-4d4b-82c3-110f95fed89a"",""projectId"":""6d972c12-ef4f-4967-baa7-815328c4c025""}","https://test12345.live/?num_scrambled_semantic=8&num_scrambled_causal=4&num_scrambled_schematic=4&participantId=A8D959F3CEF64358AE82951D037B286D&assignmentId=0f49cccf-56e6-4d4b-82c3-110f95fed89a&projectId=6d972c12-ef4f-4967-baa7-815328c4c025","A8D959F3CEF64358AE82951D037B286D-2025-08-07-17-59-23","","null","","[]","null","",""
"","","","","","image-button-response","43","227370","0.0-10.0-1.0-0.6","A8D959F3CEF64358AE82951D037B286D","A8D959F3CEF64358AE82951D037B286D","0f49cccf-56e6-4d4b-82c3-110f95fed89a","6d972c12-ef4f-4967-baa7-815328c4c025","{""num_scrambled_semantic"":""8"",""num_scrambled_causal"":""4"",""num_scrambled_schematic"":""4"",""participantId"":""A8D959F3CEF64358AE82951D037B286D"",""assignmentId"":""0f49cccf-56e6-4d4b-82c3-110f95fed89a"",""projectId"":""6d972c12-ef4f-4967-baa7-815328c4c025""}","https://test12345.live/?num_scrambled_semantic=8&num_scrambled_causal=4&num_scrambled_schematic=4&participantId=A8D959F3CEF64358AE82951D037B286D&assignmentId=0f49cccf-56e6-4d4b-82c3-110f95fed89a&projectId=6d972c12-ef4f-4967-baa7-815328c4c025","A8D959F3CEF64358AE82951D037B286D-2025-08-07-17-59-23","","null","","images/causal_sequence/saving_a_cat_causal/saving_a_cat_causal_7.png","null","",""
"","","","","","image-button-response","44","229360","0.0-10.0-1.0-1.6","A8D959F3CEF64358AE82951D037B286D","A8D959F3CEF64358AE82951D037B286D","0f49cccf-56e6-4d4b-82c3-110f95fed89a","6d972c12-ef4f-4967-baa7-815328c4c025","{""num_scrambled_semantic"":""8"",""num_scrambled_causal"":""4"",""num_scrambled_schematic"":""4"",""participantId"":""A8D959F3CEF64358AE82951D037B286D"",""assignmentId"":""0f49cccf-56e6-4d4b-82c3-110f95fed89a"",""projectId"":""6d972c12-ef4f-4967-baa7-815328c4c025""}","https://test12345.live/?num_scrambled_semantic=8&num_scrambled_causal=4&num_scrambled_schematic=4&participantId=A8D959F3CEF64358AE82951D037B286D&assignmentId=0f49cccf-56e6-4d4b-82c3-110f95fed89a&projectId=6d972c12-ef4f-4967-baa7-815328c4c025","A8D959F3CEF64358AE82951D037B286D-2025-08-07-17-59-23","","1989","","images/causal_sequence/saving_a_cat_causal/saving_a_cat_causal_7.png","0","",""
"","","","","","image-button-response","45","231163","0.0-10.0-1.0-2.6","A8D959F3CEF64358AE82951D037B286D","A8D959F3CEF64358AE82951D037B286D","0f49cccf-56e6-4d4b-82c3-110f95fed89a","6d972c12-ef4f-4967-baa7-815328c4c025","{""num_scrambled_semantic"":""8"",""num_scrambled_causal"":""4"",""num_scrambled_schematic"":""4"",""participantId"":""A8D959F3CEF64358AE82951D037B286D"",""assignmentId"":""0f49cccf-56e6-4d4b-82c3-110f95fed89a"",""projectId"":""6d972c12-ef4f-4967-baa7-815328c4c025""}","https://test12345.live/?num_scrambled_semantic=8&num_scrambled_causal=4&num_scrambled_schematic=4&participantId=A8D959F3CEF64358AE82951D037B286D&assignmentId=0f49cccf-56e6-4d4b-82c3-110f95fed89a&projectId=6d972c12-ef4f-4967-baa7-815328c4c025","A8D959F3CEF64358AE82951D037B286D-2025-08-07-17-59-23","","null","","[]","null","",""
"","","","","","image-button-response","46","235679","0.0-10.0-1.0-0.7","A8D959F3CEF64358AE82951D037B286D","A8D959F3CEF64358AE82951D037B286D","0f49cccf-56e6-4d4b-82c3-110f95fed89a","6d972c12-ef4f-4967-baa7-815328c4c025","{""num_scrambled_semantic"":""8"",""num_scrambled_causal"":""4"",""num_scrambled_schematic"":""4"",""participantId"":""A8D959F3CEF64358AE82951D037B286D"",""assignmentId"":""0f49cccf-56e6-4d4b-82c3-110f95fed89a"",""projectId"":""6d972c12-ef4f-4967-baa7-815328c4c025""}","https://test12345.live/?num_scrambled_semantic=8&num_scrambled_causal=4&num_scrambled_schematic=4&participantId=A8D959F3CEF64358AE82951D037B286D&assignmentId=0f49cccf-56e6-4d4b-82c3-110f95fed89a&projectId=6d972c12-ef4f-4967-baa7-815328c4c025","A8D959F3CEF64358AE82951D037B286D-2025-08-07-17-59-23","","null","","images/causal_sequence/saving_a_cat_causal/saving_a_cat_causal_8.png","null","",""
"","","","","","image-button-response","47","237334","0.0-10.0-1.0-1.7","A8D959F3CEF64358AE82951D037B286D","A8D959F3CEF64358AE82951D037B286D","0f49cccf-56e6-4d4b-82c3-110f95fed89a","6d972c12-ef4f-4967-baa7-815328c4c025","{""num_scrambled_semantic"":""8"",""num_scrambled_causal"":""4"",""num_scrambled_schematic"":""4"",""participantId"":""A8D959F3CEF64358AE82951D037B286D"",""assignmentId"":""0f49cccf-56e6-4d4b-82c3-110f95fed89a"",""projectId"":""6d972c12-ef4f-4967-baa7-815328c4c025""}","https://test12345.live/?num_scrambled_semantic=8&num_scrambled_causal=4&num_scrambled_schematic=4&participantId=A8D959F3CEF64358AE82951D037B286D&assignmentId=0f49cccf-56e6-4d4b-82c3-110f95fed89a&projectId=6d972c12-ef4f-4967-baa7-815328c4c025","A8D959F3CEF64358AE82951D037B286D-2025-08-07-17-59-23","","1653","","images/causal_sequence/saving_a_cat_causal/saving_a_cat_causal_8.png","0","",""
"","","","","","image-button-response","48","239142","0.0-10.0-1.0-2.7","A8D959F3CEF64358AE82951D037B286D","A8D959F3CEF64358AE82951D037B286D","0f49cccf-56e6-4d4b-82c3-110f95fed89a","6d972c12-ef4f-4967-baa7-815328c4c025","{""num_scrambled_semantic"":""8"",""num_scrambled_causal"":""4"",""num_scrambled_schematic"":""4"",""participantId"":""A8D959F3CEF64358AE82951D037B286D"",""assignmentId"":""0f49cccf-56e6-4d4b-82c3-110f95fed89a"",""projectId"":""6d972c12-ef4f-4967-baa7-815328c4c025""}","https://test12345.live/?num_scrambled_semantic=8&num_scrambled_causal=4&num_scrambled_schematic=4&participantId=A8D959F3CEF64358AE82951D037B286D&assignmentId=0f49cccf-56e6-4d4b-82c3-110f95fed89a&projectId=6d972c12-ef4f-4967-baa7-815328c4c025","A8D959F3CEF64358AE82951D037B286D-2025-08-07-17-59-23","","null","","[]","null","",""
"","","","","","image-button-response","49","243650","0.0-10.0-1.0-0.8","A8D959F3CEF64358AE82951D037B286D","A8D959F3CEF64358AE82951D037B286D","0f49cccf-56e6-4d4b-82c3-110f95fed89a","6d972c12-ef4f-4967-baa7-815328c4c025","{""num_scrambled_semantic"":""8"",""num_scrambled_causal"":""4"",""num_scrambled_schematic"":""4"",""participantId"":""A8D959F3CEF64358AE82951D037B286D"",""assignmentId"":""0f49cccf-56e6-4d4b-82c3-110f95fed89a"",""projectId"":""6d972c12-ef4f-4967-baa7-815328c4c025""}","https://test12345.live/?num_scrambled_semantic=8&num_scrambled_causal=4&num_scrambled_schematic=4&participantId=A8D959F3CEF64358AE82951D037B286D&assignmentId=0f49cccf-56e6-4d4b-82c3-110f95fed89a&projectId=6d972c12-ef4f-4967-baa7-815328c4c025","A8D959F3CEF64358AE82951D037B286D-2025-08-07-17-59-23","","null","","images/causal_sequence/saving_a_cat_causal/saving_a_cat_causal_9.png","null","",""
"","","","","","image-button-response","50","245194","0.0-10.0-1.0-1.8","A8D959F3CEF64358AE82951D037B286D","A8D959F3CEF64358AE82951D037B286D","0f49cccf-56e6-4d4b-82c3-110f95fed89a","6d972c12-ef4f-4967-baa7-815328c4c025","{""num_scrambled_semantic"":""8"",""num_scrambled_causal"":""4"",""num_scrambled_schematic"":""4"",""participantId"":""A8D959F3CEF64358AE82951D037B286D"",""assignmentId"":""0f49cccf-56e6-4d4b-82c3-110f95fed89a"",""projectId"":""6d972c12-ef4f-4967-baa7-815328c4c025""}","https://test12345.live/?num_scrambled_semantic=8&num_scrambled_causal=4&num_scrambled_schematic=4&participantId=A8D959F3CEF64358AE82951D037B286D&assignmentId=0f49cccf-56e6-4d4b-82c3-110f95fed89a&projectId=6d972c12-ef4f-4967-baa7-815328c4c025","A8D959F3CEF64358AE82951D037B286D-2025-08-07-17-59-23","","1543","","images/causal_sequence/saving_a_cat_causal/saving_a_cat_causal_9.png","0","",""
"","","","","","image-button-response","51","247002","0.0-10.0-1.0-2.8","A8D959F3CEF64358AE82951D037B286D","A8D959F3CEF64358AE82951D037B286D","0f49cccf-56e6-4d4b-82c3-110f95fed89a","6d972c12-ef4f-4967-baa7-815328c4c025","{""num_scrambled_semantic"":""8"",""num_scrambled_causal"":""4"",""num_scrambled_schematic"":""4"",""participantId"":""A8D959F3CEF64358AE82951D037B286D"",""assignmentId"":""0f49cccf-56e6-4d4b-82c3-110f95fed89a"",""projectId"":""6d972c12-ef4f-4967-baa7-815328c4c025""}","https://test12345.live/?num_scrambled_semantic=8&num_scrambled_causal=4&num_scrambled_schematic=4&participantId=A8D959F3CEF64358AE82951D037B286D&assignmentId=0f49cccf-56e6-4d4b-82c3-110f95fed89a&projectId=6d972c12-ef4f-4967-baa7-815328c4c025","A8D959F3CEF64358AE82951D037B286D-2025-08-07-17-59-23","","null","","[]","null","",""
"","","","","","image-button-response","52","251511","0.0-10.0-1.0-0.9","A8D959F3CEF64358AE82951D037B286D","A8D959F3CEF64358AE82951D037B286D","0f49cccf-56e6-4d4b-82c3-110f95fed89a","6d972c12-ef4f-4967-baa7-815328c4c025","{""num_scrambled_semantic"":""8"",""num_scrambled_causal"":""4"",""num_scrambled_schematic"":""4"",""participantId"":""A8D959F3CEF64358AE82951D037B286D"",""assignmentId"":""0f49cccf-56e6-4d4b-82c3-110f95fed89a"",""projectId"":""6d972c12-ef4f-4967-baa7-815328c4c025""}","https://test12345.live/?num_scrambled_semantic=8&num_scrambled_causal=4&num_scrambled_schematic=4&participantId=A8D959F3CEF64358AE82951D037B286D&assignmentId=0f49cccf-56e6-4d4b-82c3-110f95fed89a&projectId=6d972c12-ef4f-4967-baa7-815328c4c025","A8D959F3CEF64358AE82951D037B286D-2025-08-07-17-59-23","","null","","images/causal_sequence/saving_a_cat_causal/saving_a_cat_causal_ten.png","null","",""
"","","","","","image-button-response","53","252991","0.0-10.0-1.0-1.9","A8D959F3CEF64358AE82951D037B286D","A8D959F3CEF64358AE82951D037B286D","0f49cccf-56e6-4d4b-82c3-110f95fed89a","6d972c12-ef4f-4967-baa7-815328c4c025","{""num_scrambled_semantic"":""8"",""num_scrambled_causal"":""4"",""num_scrambled_schematic"":""4"",""participantId"":""A8D959F3CEF64358AE82951D037B286D"",""assignmentId"":""0f49cccf-56e6-4d4b-82c3-110f95fed89a"",""projectId"":""6d972c12-ef4f-4967-baa7-815328c4c025""}","https://test12345.live/?num_scrambled_semantic=8&num_scrambled_causal=4&num_scrambled_schematic=4&participantId=A8D959F3CEF64358AE82951D037B286D&assignmentId=0f49cccf-56e6-4d4b-82c3-110f95fed89a&projectId=6d972c12-ef4f-4967-baa7-815328c4c025","A8D959F3CEF64358AE82951D037B286D-2025-08-07-17-59-23","","1477","","images/causal_sequence/saving_a_cat_causal/saving_a_cat_causal_ten.png","0","",""
"","","","","","image-button-response","54","254802","0.0-10.0-1.0-2.9","A8D959F3CEF64358AE82951D037B286D","A8D959F3CEF64358AE82951D037B286D","0f49cccf-56e6-4d4b-82c3-110f95fed89a","6d972c12-ef4f-4967-baa7-815328c4c025","{""num_scrambled_semantic"":""8"",""num_scrambled_causal"":""4"",""num_scrambled_schematic"":""4"",""participantId"":""A8D959F3CEF64358AE82951D037B286D"",""assignmentId"":""0f49cccf-56e6-4d4b-82c3-110f95fed89a"",""projectId"":""6d972c12-ef4f-4967-baa7-815328c4c025""}","https://test12345.live/?num_scrambled_semantic=8&num_scrambled_causal=4&num_scrambled_schematic=4&participantId=A8D959F3CEF64358AE82951D037B286D&assignmentId=0f49cccf-56e6-4d4b-82c3-110f95fed89a&projectId=6d972c12-ef4f-4967-baa7-815328c4c025","A8D959F3CEF64358AE82951D037B286D-2025-08-07-17-59-23","","null","","[]","null","",""
"","","","","","html-audio-response","55","306575","0.0-11.0","A8D959F3CEF64358AE82951D037B286D","A8D959F3CEF64358AE82951D037B286D","0f49cccf-56e6-4d4b-82c3-110f95fed89a","6d972c12-ef4f-4967-baa7-815328c4c025","{""num_scrambled_semantic"":""8"",""num_scrambled_causal"":""4"",""num_scrambled_schematic"":""4"",""participantId"":""A8D959F3CEF64358AE82951D037B286D"",""assignmentId"":""0f49cccf-56e6-4d4b-82c3-110f95fed89a"",""projectId"":""6d972c12-ef4f-4967-baa7-815328c4c025""}","https://test12345.live/?num_scrambled_semantic=8&num_scrambled_causal=4&num_scrambled_schematic=4&participantId=A8D959F3CEF64358AE82951D037B286D&assignmentId=0f49cccf-56e6-4d4b-82c3-110f95fed89a&projectId=6d972c12-ef4f-4967-baa7-815328c4c025","A8D959F3CEF64358AE82951D037B286D-2025-08-07-17-59-23","","2194","","[""<span style=\""color: red; font-size: 24px\""> NOW RECORDING</span><p>Please say out loud all the images you saw, in the exact order you saw them. Try to recall as many images as you can, but remember: getting the order right is more important than the number of images you recall.</p>""]","","2","saving_a_cat_causal"
"","","","","","image-button-response","56","312601","0.0-12.0-0.0","A8D959F3CEF64358AE82951D037B286D","A8D959F3CEF64358AE82951D037B286D","0f49cccf-56e6-4d4b-82c3-110f95fed89a","6d972c12-ef4f-4967-baa7-815328c4c025","{""num_scrambled_semantic"":""8"",""num_scrambled_causal"":""4"",""num_scrambled_schematic"":""4"",""participantId"":""A8D959F3CEF64358AE82951D037B286D"",""assignmentId"":""0f49cccf-56e6-4d4b-82c3-110f95fed89a"",""projectId"":""6d972c12-ef4f-4967-baa7-815328c4c025""}","https://test12345.live/?num_scrambled_semantic=8&num_scrambled_causal=4&num_scrambled_schematic=4&participantId=A8D959F3CEF64358AE82951D037B286D&assignmentId=0f49cccf-56e6-4d4b-82c3-110f95fed89a&projectId=6d972c12-ef4f-4967-baa7-815328c4c025","A8D959F3CEF64358AE82951D037B286D-2025-08-07-17-59-23","","null","","images/causal_sequence/dog_causal/dog_causal_0.png","null","",""
"","","","","","image-button-response","57","317107","0.0-12.0-1.0-0.0","A8D959F3CEF64358AE82951D037B286D","A8D959F3CEF64358AE82951D037B286D","0f49cccf-56e6-4d4b-82c3-110f95fed89a","6d972c12-ef4f-4967-baa7-815328c4c025","{""num_scrambled_semantic"":""8"",""num_scrambled_causal"":""4"",""num_scrambled_schematic"":""4"",""participantId"":""A8D959F3CEF64358AE82951D037B286D"",""assignmentId"":""0f49cccf-56e6-4d4b-82c3-110f95fed89a"",""projectId"":""6d972c12-ef4f-4967-baa7-815328c4c025""}","https://test12345.live/?num_scrambled_semantic=8&num_scrambled_causal=4&num_scrambled_schematic=4&participantId=A8D959F3CEF64358AE82951D037B286D&assignmentId=0f49cccf-56e6-4d4b-82c3-110f95fed89a&projectId=6d972c12-ef4f-4967-baa7-815328c4c025","A8D959F3CEF64358AE82951D037B286D-2025-08-07-17-59-23","","null","","images/causal_sequence/dog_causal/dog_causal_6.png","null","",""
"","","","","","image-button-response","58","318749","0.0-12.0-1.0-1.0","A8D959F3CEF64358AE82951D037B286D","A8D959F3CEF64358AE82951D037B286D","0f49cccf-56e6-4d4b-82c3-110f95fed89a","6d972c12-ef4f-4967-baa7-815328c4c025","{""num_scrambled_semantic"":""8"",""num_scrambled_causal"":""4"",""num_scrambled_schematic"":""4"",""participantId"":""A8D959F3CEF64358AE82951D037B286D"",""assignmentId"":""0f49cccf-56e6-4d4b-82c3-110f95fed89a"",""projectId"":""6d972c12-ef4f-4967-baa7-815328c4c025""}","https://test12345.live/?num_scrambled_semantic=8&num_scrambled_causal=4&num_scrambled_schematic=4&participantId=A8D959F3CEF64358AE82951D037B286D&assignmentId=0f49cccf-56e6-4d4b-82c3-110f95fed89a&projectId=6d972c12-ef4f-4967-baa7-815328c4c025","A8D959F3CEF64358AE82951D037B286D-2025-08-07-17-59-23","","1641","","images/causal_sequence/dog_causal/dog_causal_6.png","0","",""
"","","","","","image-button-response","59","320562","0.0-12.0-1.0-2.0","A8D959F3CEF64358AE82951D037B286D","A8D959F3CEF64358AE82951D037B286D","0f49cccf-56e6-4d4b-82c3-110f95fed89a","6d972c12-ef4f-4967-baa7-815328c4c025","{""num_scrambled_semantic"":""8"",""num_scrambled_causal"":""4"",""num_scrambled_schematic"":""4"",""participantId"":""A8D959F3CEF64358AE82951D037B286D"",""assignmentId"":""0f49cccf-56e6-4d4b-82c3-110f95fed89a"",""projectId"":""6d972c12-ef4f-4967-baa7-815328c4c025""}","https://test12345.live/?num_scrambled_semantic=8&num_scrambled_causal=4&num_scrambled_schematic=4&participantId=A8D959F3CEF64358AE82951D037B286D&assignmentId=0f49cccf-56e6-4d4b-82c3-110f95fed89a&projectId=6d972c12-ef4f-4967-baa7-815328c4c025","A8D959F3CEF64358AE82951D037B286D-2025-08-07-17-59-23","","null","","[]","null","",""
"","","","","","image-button-response","60","325078","0.0-12.0-1.0-0.1","A8D959F3CEF64358AE82951D037B286D","A8D959F3CEF64358AE82951D037B286D","0f49cccf-56e6-4d4b-82c3-110f95fed89a","6d972c12-ef4f-4967-baa7-815328c4c025","{""num_scrambled_semantic"":""8"",""num_scrambled_causal"":""4"",""num_scrambled_schematic"":""4"",""participantId"":""A8D959F3CEF64358AE82951D037B286D"",""assignmentId"":""0f49cccf-56e6-4d4b-82c3-110f95fed89a"",""projectId"":""6d972c12-ef4f-4967-baa7-815328c4c025""}","https://test12345.live/?num_scrambled_semantic=8&num_scrambled_causal=4&num_scrambled_schematic=4&participantId=A8D959F3CEF64358AE82951D037B286D&assignmentId=0f49cccf-56e6-4d4b-82c3-110f95fed89a&projectId=6d972c12-ef4f-4967-baa7-815328c4c025","A8D959F3CEF64358AE82951D037B286D-2025-08-07-17-59-23","","null","","images/causal_sequence/dog_causal/dog_causal_ten.png","null","",""
"","","","","","image-button-response","61","328222","0.0-12.0-1.0-1.1","A8D959F3CEF64358AE82951D037B286D","A8D959F3CEF64358AE82951D037B286D","0f49cccf-56e6-4d4b-82c3-110f95fed89a","6d972c12-ef4f-4967-baa7-815328c4c025","{""num_scrambled_semantic"":""8"",""num_scrambled_causal"":""4"",""num_scrambled_schematic"":""4"",""participantId"":""A8D959F3CEF64358AE82951D037B286D"",""assignmentId"":""0f49cccf-56e6-4d4b-82c3-110f95fed89a"",""projectId"":""6d972c12-ef4f-4967-baa7-815328c4c025""}","https://test12345.live/?num_scrambled_semantic=8&num_scrambled_causal=4&num_scrambled_schematic=4&participantId=A8D959F3CEF64358AE82951D037B286D&assignmentId=0f49cccf-56e6-4d4b-82c3-110f95fed89a&projectId=6d972c12-ef4f-4967-baa7-815328c4c025","A8D959F3CEF64358AE82951D037B286D-2025-08-07-17-59-23","","3142","","images/causal_sequence/dog_causal/dog_causal_ten.png","0","",""
"","","","","","image-button-response","62","330034","0.0-12.0-1.0-2.1","A8D959F3CEF64358AE82951D037B286D","A8D959F3CEF64358AE82951D037B286D","0f49cccf-56e6-4d4b-82c3-110f95fed89a","6d972c12-ef4f-4967-baa7-815328c4c025","{""num_scrambled_semantic"":""8"",""num_scrambled_causal"":""4"",""num_scrambled_schematic"":""4"",""participantId"":""A8D959F3CEF64358AE82951D037B286D"",""assignmentId"":""0f49cccf-56e6-4d4b-82c3-110f95fed89a"",""projectId"":""6d972c12-ef4f-4967-baa7-815328c4c025""}","https://test12345.live/?num_scrambled_semantic=8&num_scrambled_causal=4&num_scrambled_schematic=4&participantId=A8D959F3CEF64358AE82951D037B286D&assignmentId=0f49cccf-56e6-4d4b-82c3-110f95fed89a&projectId=6d972c12-ef4f-4967-baa7-815328c4c025","A8D959F3CEF64358AE82951D037B286D-2025-08-07-17-59-23","","null","","[]","null","",""
"","","","","","image-button-response","63","334539","0.0-12.0-1.0-0.2","A8D959F3CEF64358AE82951D037B286D","A8D959F3CEF64358AE82951D037B286D","0f49cccf-56e6-4d4b-82c3-110f95fed89a","6d972c12-ef4f-4967-baa7-815328c4c025","{""num_scrambled_semantic"":""8"",""num_scrambled_causal"":""4"",""num_scrambled_schematic"":""4"",""participantId"":""A8D959F3CEF64358AE82951D037B286D"",""assignmentId"":""0f49cccf-56e6-4d4b-82c3-110f95fed89a"",""projectId"":""6d972c12-ef4f-4967-baa7-815328c4c025""}","https://test12345.live/?num_scrambled_semantic=8&num_scrambled_causal=4&num_scrambled_schematic=4&participantId=A8D959F3CEF64358AE82951D037B286D&assignmentId=0f49cccf-56e6-4d4b-82c3-110f95fed89a&projectId=6d972c12-ef4f-4967-baa7-815328c4c025","A8D959F3CEF64358AE82951D037B286D-2025-08-07-17-59-23","","null","","images/causal_sequence/dog_causal/dog_causal_9.png","null","",""
"","","","","","image-button-response","64","336050","0.0-12.0-1.0-1.2","A8D959F3CEF64358AE82951D037B286D","A8D959F3CEF64358AE82951D037B286D","0f49cccf-56e6-4d4b-82c3-110f95fed89a","6d972c12-ef4f-4967-baa7-815328c4c025","{""num_scrambled_semantic"":""8"",""num_scrambled_causal"":""4"",""num_scrambled_schematic"":""4"",""participantId"":""A8D959F3CEF64358AE82951D037B286D"",""assignmentId"":""0f49cccf-56e6-4d4b-82c3-110f95fed89a"",""projectId"":""6d972c12-ef4f-4967-baa7-815328c4c025""}","https://test12345.live/?num_scrambled_semantic=8&num_scrambled_causal=4&num_scrambled_schematic=4&participantId=A8D959F3CEF64358AE82951D037B286D&assignmentId=0f49cccf-56e6-4d4b-82c3-110f95fed89a&projectId=6d972c12-ef4f-4967-baa7-815328c4c025","A8D959F3CEF64358AE82951D037B286D-2025-08-07-17-59-23","","1509","","images/causal_sequence/dog_causal/dog_causal_9.png","0","",""
"","","","","","image-button-response","65","337855","0.0-12.0-1.0-2.2","A8D959F3CEF64358AE82951D037B286D","A8D959F3CEF64358AE82951D037B286D","0f49cccf-56e6-4d4b-82c3-110f95fed89a","6d972c12-ef4f-4967-baa7-815328c4c025","{""num_scrambled_semantic"":""8"",""num_scrambled_causal"":""4"",""num_scrambled_schematic"":""4"",""participantId"":""A8D959F3CEF64358AE82951D037B286D"",""assignmentId"":""0f49cccf-56e6-4d4b-82c3-110f95fed89a"",""projectId"":""6d972c12-ef4f-4967-baa7-815328c4c025""}","https://test12345.live/?num_scrambled_semantic=8&num_scrambled_causal=4&num_scrambled_schematic=4&participantId=A8D959F3CEF64358AE82951D037B286D&assignmentId=0f49cccf-56e6-4d4b-82c3-110f95fed89a&projectId=6d972c12-ef4f-4967-baa7-815328c4c025","A8D959F3CEF64358AE82951D037B286D-2025-08-07-17-59-23","","null","","[]","null","",""
"","","","","","image-button-response","66","342360","0.0-12.0-1.0-0.3","A8D959F3CEF64358AE82951D037B286D","A8D959F3CEF64358AE82951D037B286D","0f49cccf-56e6-4d4b-82c3-110f95fed89a","6d972c12-ef4f-4967-baa7-815328c4c025","{""num_scrambled_semantic"":""8"",""num_scrambled_causal"":""4"",""num_scrambled_schematic"":""4"",""participantId"":""A8D959F3CEF64358AE82951D037B286D"",""assignmentId"":""0f49cccf-56e6-4d4b-82c3-110f95fed89a"",""projectId"":""6d972c12-ef4f-4967-baa7-815328c4c025""}","https://test12345.live/?num_scrambled_semantic=8&num_scrambled_causal=4&num_scrambled_schematic=4&participantId=A8D959F3CEF64358AE82951D037B286D&assignmentId=0f49cccf-56e6-4d4b-82c3-110f95fed89a&projectId=6d972c12-ef4f-4967-baa7-815328c4c025","A8D959F3CEF64358AE82951D037B286D-2025-08-07-17-59-23","","null","","images/causal_sequence/dog_causal/dog_causal_1.png","null","",""
"","","","","","image-button-response","67","343728","0.0-12.0-1.0-1.3","A8D959F3CEF64358AE82951D037B286D","A8D959F3CEF64358AE82951D037B286D","0f49cccf-56e6-4d4b-82c3-110f95fed89a","6d972c12-ef4f-4967-baa7-815328c4c025","{""num_scrambled_semantic"":""8"",""num_scrambled_causal"":""4"",""num_scrambled_schematic"":""4"",""participantId"":""A8D959F3CEF64358AE82951D037B286D"",""assignmentId"":""0f49cccf-56e6-4d4b-82c3-110f95fed89a"",""projectId"":""6d972c12-ef4f-4967-baa7-815328c4c025""}","https://test12345.live/?num_scrambled_semantic=8&num_scrambled_causal=4&num_scrambled_schematic=4&participantId=A8D959F3CEF64358AE82951D037B286D&assignmentId=0f49cccf-56e6-4d4b-82c3-110f95fed89a&projectId=6d972c12-ef4f-4967-baa7-815328c4c025","A8D959F3CEF64358AE82951D037B286D-2025-08-07-17-59-23","","1366","","images/causal_sequence/dog_causal/dog_causal_1.png","0","",""
"","","","","","image-button-response","68","345545","0.0-12.0-1.0-2.3","A8D959F3CEF64358AE82951D037B286D","A8D959F3CEF64358AE82951D037B286D","0f49cccf-56e6-4d4b-82c3-110f95fed89a","6d972c12-ef4f-4967-baa7-815328c4c025","{""num_scrambled_semantic"":""8"",""num_scrambled_causal"":""4"",""num_scrambled_schematic"":""4"",""participantId"":""A8D959F3CEF64358AE82951D037B286D"",""assignmentId"":""0f49cccf-56e6-4d4b-82c3-110f95fed89a"",""projectId"":""6d972c12-ef4f-4967-baa7-815328c4c025""}","https://test12345.live/?num_scrambled_semantic=8&num_scrambled_causal=4&num_scrambled_schematic=4&participantId=A8D959F3CEF64358AE82951D037B286D&assignmentId=0f49cccf-56e6-4d4b-82c3-110f95fed89a&projectId=6d972c12-ef4f-4967-baa7-815328c4c025","A8D959F3CEF64358AE82951D037B286D-2025-08-07-17-59-23","","null","","[]","null","",""
"","","","","","image-button-response","69","350051","0.0-12.0-1.0-0.4","A8D959F3CEF64358AE82951D037B286D","A8D959F3CEF64358AE82951D037B286D","0f49cccf-56e6-4d4b-82c3-110f95fed89a","6d972c12-ef4f-4967-baa7-815328c4c025","{""num_scrambled_semantic"":""8"",""num_scrambled_causal"":""4"",""num_scrambled_schematic"":""4"",""participantId"":""A8D959F3CEF64358AE82951D037B286D"",""assignmentId"":""0f49cccf-56e6-4d4b-82c3-110f95fed89a"",""projectId"":""6d972c12-ef4f-4967-baa7-815328c4c025""}","https://test12345.live/?num_scrambled_semantic=8&num_scrambled_causal=4&num_scrambled_schematic=4&participantId=A8D959F3CEF64358AE82951D037B286D&assignmentId=0f49cccf-56e6-4d4b-82c3-110f95fed89a&projectId=6d972c12-ef4f-4967-baa7-815328c4c025","A8D959F3CEF64358AE82951D037B286D-2025-08-07-17-59-23","","null","","images/causal_sequence/dog_causal/dog_causal_2.png","null","",""
"","","","","","image-button-response","70","351693","0.0-12.0-1.0-1.4","A8D959F3CEF64358AE82951D037B286D","A8D959F3CEF64358AE82951D037B286D","0f49cccf-56e6-4d4b-82c3-110f95fed89a","6d972c12-ef4f-4967-baa7-815328c4c025","{""num_scrambled_semantic"":""8"",""num_scrambled_causal"":""4"",""num_scrambled_schematic"":""4"",""participantId"":""A8D959F3CEF64358AE82951D037B286D"",""assignmentId"":""0f49cccf-56e6-4d4b-82c3-110f95fed89a"",""projectId"":""6d972c12-ef4f-4967-baa7-815328c4c025""}","https://test12345.live/?num_scrambled_semantic=8&num_scrambled_causal=4&num_scrambled_schematic=4&participantId=A8D959F3CEF64358AE82951D037B286D&assignmentId=0f49cccf-56e6-4d4b-82c3-110f95fed89a&projectId=6d972c12-ef4f-4967-baa7-815328c4c025","A8D959F3CEF64358AE82951D037B286D-2025-08-07-17-59-23","","1638","","images/causal_sequence/dog_causal/dog_causal_2.png","0","",""
"","","","","","image-button-response","71","353505","0.0-12.0-1.0-2.4","A8D959F3CEF64358AE82951D037B286D","A8D959F3CEF64358AE82951D037B286D","0f49cccf-56e6-4d4b-82c3-110f95fed89a","6d972c12-ef4f-4967-baa7-815328c4c025","{""num_scrambled_semantic"":""8"",""num_scrambled_causal"":""4"",""num_scrambled_schematic"":""4"",""participantId"":""A8D959F3CEF64358AE82951D037B286D"",""assignmentId"":""0f49cccf-56e6-4d4b-82c3-110f95fed89a"",""projectId"":""6d972c12-ef4f-4967-baa7-815328c4c025""}","https://test12345.live/?num_scrambled_semantic=8&num_scrambled_causal=4&num_scrambled_schematic=4&participantId=A8D959F3CEF64358AE82951D037B286D&assignmentId=0f49cccf-56e6-4d4b-82c3-110f95fed89a&projectId=6d972c12-ef4f-4967-baa7-815328c4c025","A8D959F3CEF64358AE82951D037B286D-2025-08-07-17-59-23","","null","","[]","null","",""
"","","","","","image-button-response","72","358017","0.0-12.0-1.0-0.5","A8D959F3CEF64358AE82951D037B286D","A8D959F3CEF64358AE82951D037B286D","0f49cccf-56e6-4d4b-82c3-110f95fed89a","6d972c12-ef4f-4967-baa7-815328c4c025","{""num_scrambled_semantic"":""8"",""num_scrambled_causal"":""4"",""num_scrambled_schematic"":""4"",""participantId"":""A8D959F3CEF64358AE82951D037B286D"",""assignmentId"":""0f49cccf-56e6-4d4b-82c3-110f95fed89a"",""projectId"":""6d972c12-ef4f-4967-baa7-815328c4c025""}","https://test12345.live/?num_scrambled_semantic=8&num_scrambled_causal=4&num_scrambled_schematic=4&participantId=A8D959F3CEF64358AE82951D037B286D&assignmentId=0f49cccf-56e6-4d4b-82c3-110f95fed89a&projectId=6d972c12-ef4f-4967-baa7-815328c4c025","A8D959F3CEF64358AE82951D037B286D-2025-08-07-17-59-23","","null","","images/causal_sequence/dog_causal/dog_causal_4.png","null","",""
"","","","","","image-button-response","73","359600","0.0-12.0-1.0-1.5","A8D959F3CEF64358AE82951D037B286D","A8D959F3CEF64358AE82951D037B286D","0f49cccf-56e6-4d4b-82c3-110f95fed89a","6d972c12-ef4f-4967-baa7-815328c4c025","{""num_scrambled_semantic"":""8"",""num_scrambled_causal"":""4"",""num_scrambled_schematic"":""4"",""participantId"":""A8D959F3CEF64358AE82951D037B286D"",""assignmentId"":""0f49cccf-56e6-4d4b-82c3-110f95fed89a"",""projectId"":""6d972c12-ef4f-4967-baa7-815328c4c025""}","https://test12345.live/?num_scrambled_semantic=8&num_scrambled_causal=4&num_scrambled_schematic=4&participantId=A8D959F3CEF64358AE82951D037B286D&assignmentId=0f49cccf-56e6-4d4b-82c3-110f95fed89a&projectId=6d972c12-ef4f-4967-baa7-815328c4c025","A8D959F3CEF64358AE82951D037B286D-2025-08-07-17-59-23","","1580","","images/causal_sequence/dog_causal/dog_causal_4.png","0","",""
"","","","","","image-button-response","74","361413","0.0-12.0-1.0-2.5","A8D959F3CEF64358AE82951D037B286D","A8D959F3CEF64358AE82951D037B286D","0f49cccf-56e6-4d4b-82c3-110f95fed89a","6d972c12-ef4f-4967-baa7-815328c4c025","{""num_scrambled_semantic"":""8"",""num_scrambled_causal"":""4"",""num_scrambled_schematic"":""4"",""participantId"":""A8D959F3CEF64358AE82951D037B286D"",""assignmentId"":""0f49cccf-56e6-4d4b-82c3-110f95fed89a"",""projectId"":""6d972c12-ef4f-4967-baa7-815328c4c025""}","https://test12345.live/?num_scrambled_semantic=8&num_scrambled_causal=4&num_scrambled_schematic=4&participantId=A8D959F3CEF64358AE82951D037B286D&assignmentId=0f49cccf-56e6-4d4b-82c3-110f95fed89a&projectId=6d972c12-ef4f-4967-baa7-815328c4c025","A8D959F3CEF64358AE82951D037B286D-2025-08-07-17-59-23","","null","","[]","null","",""
"","","","","","image-button-response","75","365930","0.0-12.0-1.0-0.6","A8D959F3CEF64358AE82951D037B286D","A8D959F3CEF64358AE82951D037B286D","0f49cccf-56e6-4d4b-82c3-110f95fed89a","6d972c12-ef4f-4967-baa7-815328c4c025","{""num_scrambled_semantic"":""8"",""num_scrambled_causal"":""4"",""num_scrambled_schematic"":""4"",""participantId"":""A8D959F3CEF64358AE82951D037B286D"",""assignmentId"":""0f49cccf-56e6-4d4b-82c3-110f95fed89a"",""projectId"":""6d972c12-ef4f-4967-baa7-815328c4c025""}","https://test12345.live/?num_scrambled_semantic=8&num_scrambled_causal=4&num_scrambled_schematic=4&participantId=A8D959F3CEF64358AE82951D037B286D&assignmentId=0f49cccf-56e6-4d4b-82c3-110f95fed89a&projectId=6d972c12-ef4f-4967-baa7-815328c4c025","A8D959F3CEF64358AE82951D037B286D-2025-08-07-17-59-23","","null","","images/causal_sequence/dog_causal/dog_causal_8.png","null","",""
"","","","","","image-button-response","76","368694","0.0-12.0-1.0-1.6","A8D959F3CEF64358AE82951D037B286D","A8D959F3CEF64358AE82951D037B286D","0f49cccf-56e6-4d4b-82c3-110f95fed89a","6d972c12-ef4f-4967-baa7-815328c4c025","{""num_scrambled_semantic"":""8"",""num_scrambled_causal"":""4"",""num_scrambled_schematic"":""4"",""participantId"":""A8D959F3CEF64358AE82951D037B286D"",""assignmentId"":""0f49cccf-56e6-4d4b-82c3-110f95fed89a"",""projectId"":""6d972c12-ef4f-4967-baa7-815328c4c025""}","https://test12345.live/?num_scrambled_semantic=8&num_scrambled_causal=4&num_scrambled_schematic=4&participantId=A8D959F3CEF64358AE82951D037B286D&assignmentId=0f49cccf-56e6-4d4b-82c3-110f95fed89a&projectId=6d972c12-ef4f-4967-baa7-815328c4c025","A8D959F3CEF64358AE82951D037B286D-2025-08-07-17-59-23","","2762","","images/causal_sequence/dog_causal/dog_causal_8.png","0","",""
"","","","","","image-button-response","77","370505","0.0-12.0-1.0-2.6","A8D959F3CEF64358AE82951D037B286D","A8D959F3CEF64358AE82951D037B286D","0f49cccf-56e6-4d4b-82c3-110f95fed89a","6d972c12-ef4f-4967-baa7-815328c4c025","{""num_scrambled_semantic"":""8"",""num_scrambled_causal"":""4"",""num_scrambled_schematic"":""4"",""participantId"":""A8D959F3CEF64358AE82951D037B286D"",""assignmentId"":""0f49cccf-56e6-4d4b-82c3-110f95fed89a"",""projectId"":""6d972c12-ef4f-4967-baa7-815328c4c025""}","https://test12345.live/?num_scrambled_semantic=8&num_scrambled_causal=4&num_scrambled_schematic=4&participantId=A8D959F3CEF64358AE82951D037B286D&assignmentId=0f49cccf-56e6-4d4b-82c3-110f95fed89a&projectId=6d972c12-ef4f-4967-baa7-815328c4c025","A8D959F3CEF64358AE82951D037B286D-2025-08-07-17-59-23","","null","","[]","null","",""
"","","","","","image-button-response","78","375023","0.0-12.0-1.0-0.7","A8D959F3CEF64358AE82951D037B286D","A8D959F3CEF64358AE82951D037B286D","0f49cccf-56e6-4d4b-82c3-110f95fed89a","6d972c12-ef4f-4967-baa7-815328c4c025","{""num_scrambled_semantic"":""8"",""num_scrambled_causal"":""4"",""num_scrambled_schematic"":""4"",""participantId"":""A8D959F3CEF64358AE82951D037B286D"",""assignmentId"":""0f49cccf-56e6-4d4b-82c3-110f95fed89a"",""projectId"":""6d972c12-ef4f-4967-baa7-815328c4c025""}","https://test12345.live/?num_scrambled_semantic=8&num_scrambled_causal=4&num_scrambled_schematic=4&participantId=A8D959F3CEF64358AE82951D037B286D&assignmentId=0f49cccf-56e6-4d4b-82c3-110f95fed89a&projectId=6d972c12-ef4f-4967-baa7-815328c4c025","A8D959F3CEF64358AE82951D037B286D-2025-08-07-17-59-23","","null","","images/causal_sequence/dog_causal/dog_causal_7.png","null","",""
"","","","","","image-button-response","79","376702","0.0-12.0-1.0-1.7","A8D959F3CEF64358AE82951D037B286D","A8D959F3CEF64358AE82951D037B286D","0f49cccf-56e6-4d4b-82c3-110f95fed89a","6d972c12-ef4f-4967-baa7-815328c4c025","{""num_scrambled_semantic"":""8"",""num_scrambled_causal"":""4"",""num_scrambled_schematic"":""4"",""participantId"":""A8D959F3CEF64358AE82951D037B286D"",""assignmentId"":""0f49cccf-56e6-4d4b-82c3-110f95fed89a"",""projectId"":""6d972c12-ef4f-4967-baa7-815328c4c025""}","https://test12345.live/?num_scrambled_semantic=8&num_scrambled_causal=4&num_scrambled_schematic=4&participantId=A8D959F3CEF64358AE82951D037B286D&assignmentId=0f49cccf-56e6-4d4b-82c3-110f95fed89a&projectId=6d972c12-ef4f-4967-baa7-815328c4c025","A8D959F3CEF64358AE82951D037B286D-2025-08-07-17-59-23","","1676","","images/causal_sequence/dog_causal/dog_causal_7.png","0","",""
"","","","","","image-button-response","80","378512","0.0-12.0-1.0-2.7","A8D959F3CEF64358AE82951D037B286D","A8D959F3CEF64358AE82951D037B286D","0f49cccf-56e6-4d4b-82c3-110f95fed89a","6d972c12-ef4f-4967-baa7-815328c4c025","{""num_scrambled_semantic"":""8"",""num_scrambled_causal"":""4"",""num_scrambled_schematic"":""4"",""participantId"":""A8D959F3CEF64358AE82951D037B286D"",""assignmentId"":""0f49cccf-56e6-4d4b-82c3-110f95fed89a"",""projectId"":""6d972c12-ef4f-4967-baa7-815328c4c025""}","https://test12345.live/?num_scrambled_semantic=8&num_scrambled_causal=4&num_scrambled_schematic=4&participantId=A8D959F3CEF64358AE82951D037B286D&assignmentId=0f49cccf-56e6-4d4b-82c3-110f95fed89a&projectId=6d972c12-ef4f-4967-baa7-815328c4c025","A8D959F3CEF64358AE82951D037B286D-2025-08-07-17-59-23","","null","","[]","null","",""
"","","","","","image-button-response","81","383016","0.0-12.0-1.0-0.8","A8D959F3CEF64358AE82951D037B286D","A8D959F3CEF64358AE82951D037B286D","0f49cccf-56e6-4d4b-82c3-110f95fed89a","6d972c12-ef4f-4967-baa7-815328c4c025","{""num_scrambled_semantic"":""8"",""num_scrambled_causal"":""4"",""num_scrambled_schematic"":""4"",""participantId"":""A8D959F3CEF64358AE82951D037B286D"",""assignmentId"":""0f49cccf-56e6-4d4b-82c3-110f95fed89a"",""projectId"":""6d972c12-ef4f-4967-baa7-815328c4c025""}","https://test12345.live/?num_scrambled_semantic=8&num_scrambled_causal=4&num_scrambled_schematic=4&participantId=A8D959F3CEF64358AE82951D037B286D&assignmentId=0f49cccf-56e6-4d4b-82c3-110f95fed89a&projectId=6d972c12-ef4f-4967-baa7-815328c4c025","A8D959F3CEF64358AE82951D037B286D-2025-08-07-17-59-23","","null","","images/causal_sequence/dog_causal/dog_causal_3.png","null","",""
"","","","","","image-button-response","82","386509","0.0-12.0-1.0-1.8","A8D959F3CEF64358AE82951D037B286D","A8D959F3CEF64358AE82951D037B286D","0f49cccf-56e6-4d4b-82c3-110f95fed89a","6d972c12-ef4f-4967-baa7-815328c4c025","{""num_scrambled_semantic"":""8"",""num_scrambled_causal"":""4"",""num_scrambled_schematic"":""4"",""participantId"":""A8D959F3CEF64358AE82951D037B286D"",""assignmentId"":""0f49cccf-56e6-4d4b-82c3-110f95fed89a"",""projectId"":""6d972c12-ef4f-4967-baa7-815328c4c025""}","https://test12345.live/?num_scrambled_semantic=8&num_scrambled_causal=4&num_scrambled_schematic=4&participantId=A8D959F3CEF64358AE82951D037B286D&assignmentId=0f49cccf-56e6-4d4b-82c3-110f95fed89a&projectId=6d972c12-ef4f-4967-baa7-815328c4c025","A8D959F3CEF64358AE82951D037B286D-2025-08-07-17-59-23","","3491","","images/causal_sequence/dog_causal/dog_causal_3.png","0","",""
"","","","","","image-button-response","83","388321","0.0-12.0-1.0-2.8","A8D959F3CEF64358AE82951D037B286D","A8D959F3CEF64358AE82951D037B286D","0f49cccf-56e6-4d4b-82c3-110f95fed89a","6d972c12-ef4f-4967-baa7-815328c4c025","{""num_scrambled_semantic"":""8"",""num_scrambled_causal"":""4"",""num_scrambled_schematic"":""4"",""participantId"":""A8D959F3CEF64358AE82951D037B286D"",""assignmentId"":""0f49cccf-56e6-4d4b-82c3-110f95fed89a"",""projectId"":""6d972c12-ef4f-4967-baa7-815328c4c025""}","https://test12345.live/?num_scrambled_semantic=8&num_scrambled_causal=4&num_scrambled_schematic=4&participantId=A8D959F3CEF64358AE82951D037B286D&assignmentId=0f49cccf-56e6-4d4b-82c3-110f95fed89a&projectId=6d972c12-ef4f-4967-baa7-815328c4c025","A8D959F3CEF64358AE82951D037B286D-2025-08-07-17-59-23","","null","","[]","null","",""
"","","","","","image-button-response","84","392825","0.0-12.0-1.0-0.9","A8D959F3CEF64358AE82951D037B286D","A8D959F3CEF64358AE82951D037B286D","0f49cccf-56e6-4d4b-82c3-110f95fed89a","6d972c12-ef4f-4967-baa7-815328c4c025","{""num_scrambled_semantic"":""8"",""num_scrambled_causal"":""4"",""num_scrambled_schematic"":""4"",""participantId"":""A8D959F3CEF64358AE82951D037B286D"",""assignmentId"":""0f49cccf-56e6-4d4b-82c3-110f95fed89a"",""projectId"":""6d972c12-ef4f-4967-baa7-815328c4c025""}","https://test12345.live/?num_scrambled_semantic=8&num_scrambled_causal=4&num_scrambled_schematic=4&participantId=A8D959F3CEF64358AE82951D037B286D&assignmentId=0f49cccf-56e6-4d4b-82c3-110f95fed89a&projectId=6d972c12-ef4f-4967-baa7-815328c4c025","A8D959F3CEF64358AE82951D037B286D-2025-08-07-17-59-23","","null","","images/causal_sequence/dog_causal/dog_causal_5.png","null","",""
"","","","","","image-button-response","85","394209","0.0-12.0-1.0-1.9","A8D959F3CEF64358AE82951D037B286D","A8D959F3CEF64358AE82951D037B286D","0f49cccf-56e6-4d4b-82c3-110f95fed89a","6d972c12-ef4f-4967-baa7-815328c4c025","{""num_scrambled_semantic"":""8"",""num_scrambled_causal"":""4"",""num_scrambled_schematic"":""4"",""participantId"":""A8D959F3CEF64358AE82951D037B286D"",""assignmentId"":""0f49cccf-56e6-4d4b-82c3-110f95fed89a"",""projectId"":""6d972c12-ef4f-4967-baa7-815328c4c025""}","https://test12345.live/?num_scrambled_semantic=8&num_scrambled_causal=4&num_scrambled_schematic=4&participantId=A8D959F3CEF64358AE82951D037B286D&assignmentId=0f49cccf-56e6-4d4b-82c3-110f95fed89a&projectId=6d972c12-ef4f-4967-baa7-815328c4c025","A8D959F3CEF64358AE82951D037B286D-2025-08-07-17-59-23","","1383","","images/causal_sequence/dog_causal/dog_causal_5.png","0","",""
"","","","","","image-button-response","86","396019","0.0-12.0-1.0-2.9","A8D959F3CEF64358AE82951D037B286D","A8D959F3CEF64358AE82951D037B286D","0f49cccf-56e6-4d4b-82c3-110f95fed89a","6d972c12-ef4f-4967-baa7-815328c4c025","{""num_scrambled_semantic"":""8"",""num_scrambled_causal"":""4"",""num_scrambled_schematic"":""4"",""participantId"":""A8D959F3CEF64358AE82951D037B286D"",""assignmentId"":""0f49cccf-56e6-4d4b-82c3-110f95fed89a"",""projectId"":""6d972c12-ef4f-4967-baa7-815328c4c025""}","https://test12345.live/?num_scrambled_semantic=8&num_scrambled_causal=4&num_scrambled_schematic=4&participantId=A8D959F3CEF64358AE82951D037B286D&assignmentId=0f49cccf-56e6-4d4b-82c3-110f95fed89a&projectId=6d972c12-ef4f-4967-baa7-815328c4c025","A8D959F3CEF64358AE82951D037B286D-2025-08-07-17-59-23","","null","","[]","null","",""
"","","","","","html-audio-response","87","456810","0.0-13.0","A8D959F3CEF64358AE82951D037B286D","A8D959F3CEF64358AE82951D037B286D","0f49cccf-56e6-4d4b-82c3-110f95fed89a","6d972c12-ef4f-4967-baa7-815328c4c025","{""num_scrambled_semantic"":""8"",""num_scrambled_causal"":""4"",""num_scrambled_schematic"":""4"",""participantId"":""A8D959F3CEF64358AE82951D037B286D"",""assignmentId"":""0f49cccf-56e6-4d4b-82c3-110f95fed89a"",""projectId"":""6d972c12-ef4f-4967-baa7-815328c4c025""}","https://test12345.live/?num_scrambled_semantic=8&num_scrambled_causal=4&num_scrambled_schematic=4&participantId=A8D959F3CEF64358AE82951D037B286D&assignmentId=0f49cccf-56e6-4d4b-82c3-110f95fed89a&projectId=6d972c12-ef4f-4967-baa7-815328c4c025","A8D959F3CEF64358AE82951D037B286D-2025-08-07-17-59-23","","6345","","[""<span style=\""color: red; font-size: 24px\""> NOW RECORDING</span><p>Please say out loud all the images you saw, in the exact order you saw them. Try to recall as many images as you can, but remember: getting the order right is more important than the number of images you recall.</p>""]","","1","dog_causal"
"","","","","","image-button-response","88","462826","0.0-14.0-0.0","A8D959F3CEF64358AE82951D037B286D","A8D959F3CEF64358AE82951D037B286D","0f49cccf-56e6-4d4b-82c3-110f95fed89a","6d972c12-ef4f-4967-baa7-815328c4c025","{""num_scrambled_semantic"":""8"",""num_scrambled_causal"":""4"",""num_scrambled_schematic"":""4"",""participantId"":""A8D959F3CEF64358AE82951D037B286D"",""assignmentId"":""0f49cccf-56e6-4d4b-82c3-110f95fed89a"",""projectId"":""6d972c12-ef4f-4967-baa7-815328c4c025""}","https://test12345.live/?num_scrambled_semantic=8&num_scrambled_causal=4&num_scrambled_schematic=4&participantId=A8D959F3CEF64358AE82951D037B286D&assignmentId=0f49cccf-56e6-4d4b-82c3-110f95fed89a&projectId=6d972c12-ef4f-4967-baa7-815328c4c025","A8D959F3CEF64358AE82951D037B286D-2025-08-07-17-59-23","","null","","images/causal_sequence/the_performance_causal/the_performance_causal_0.png","null","",""
"","","","","","image-button-response","89","467342","0.0-14.0-1.0-0.0","A8D959F3CEF64358AE82951D037B286D","A8D959F3CEF64358AE82951D037B286D","0f49cccf-56e6-4d4b-82c3-110f95fed89a","6d972c12-ef4f-4967-baa7-815328c4c025","{""num_scrambled_semantic"":""8"",""num_scrambled_causal"":""4"",""num_scrambled_schematic"":""4"",""participantId"":""A8D959F3CEF64358AE82951D037B286D"",""assignmentId"":""0f49cccf-56e6-4d4b-82c3-110f95fed89a"",""projectId"":""6d972c12-ef4f-4967-baa7-815328c4c025""}","https://test12345.live/?num_scrambled_semantic=8&num_scrambled_causal=4&num_scrambled_schematic=4&participantId=A8D959F3CEF64358AE82951D037B286D&assignmentId=0f49cccf-56e6-4d4b-82c3-110f95fed89a&projectId=6d972c12-ef4f-4967-baa7-815328c4c025","A8D959F3CEF64358AE82951D037B286D-2025-08-07-17-59-23","","null","","images/causal_sequence/the_performance_causal/the_performance_causal_1.png","null","",""
"","","","","","image-button-response","90","468926","0.0-14.0-1.0-1.0","A8D959F3CEF64358AE82951D037B286D","A8D959F3CEF64358AE82951D037B286D","0f49cccf-56e6-4d4b-82c3-110f95fed89a","6d972c12-ef4f-4967-baa7-815328c4c025","{""num_scrambled_semantic"":""8"",""num_scrambled_causal"":""4"",""num_scrambled_schematic"":""4"",""participantId"":""A8D959F3CEF64358AE82951D037B286D"",""assignmentId"":""0f49cccf-56e6-4d4b-82c3-110f95fed89a"",""projectId"":""6d972c12-ef4f-4967-baa7-815328c4c025""}","https://test12345.live/?num_scrambled_semantic=8&num_scrambled_causal=4&num_scrambled_schematic=4&participantId=A8D959F3CEF64358AE82951D037B286D&assignmentId=0f49cccf-56e6-4d4b-82c3-110f95fed89a&projectId=6d972c12-ef4f-4967-baa7-815328c4c025","A8D959F3CEF64358AE82951D037B286D-2025-08-07-17-59-23","","1582","","images/causal_sequence/the_performance_causal/the_performance_causal_1.png","0","",""
"","","","","","image-button-response","91","470738","0.0-14.0-1.0-2.0","A8D959F3CEF64358AE82951D037B286D","A8D959F3CEF64358AE82951D037B286D","0f49cccf-56e6-4d4b-82c3-110f95fed89a","6d972c12-ef4f-4967-baa7-815328c4c025","{""num_scrambled_semantic"":""8"",""num_scrambled_causal"":""4"",""num_scrambled_schematic"":""4"",""participantId"":""A8D959F3CEF64358AE82951D037B286D"",""assignmentId"":""0f49cccf-56e6-4d4b-82c3-110f95fed89a"",""projectId"":""6d972c12-ef4f-4967-baa7-815328c4c025""}","https://test12345.live/?num_scrambled_semantic=8&num_scrambled_causal=4&num_scrambled_schematic=4&participantId=A8D959F3CEF64358AE82951D037B286D&assignmentId=0f49cccf-56e6-4d4b-82c3-110f95fed89a&projectId=6d972c12-ef4f-4967-baa7-815328c4c025","A8D959F3CEF64358AE82951D037B286D-2025-08-07-17-59-23","","null","","[]","null","",""
"","","","","","image-button-response","92","475243","0.0-14.0-1.0-0.1","A8D959F3CEF64358AE82951D037B286D","A8D959F3CEF64358AE82951D037B286D","0f49cccf-56e6-4d4b-82c3-110f95fed89a","6d972c12-ef4f-4967-baa7-815328c4c025","{""num_scrambled_semantic"":""8"",""num_scrambled_causal"":""4"",""num_scrambled_schematic"":""4"",""participantId"":""A8D959F3CEF64358AE82951D037B286D"",""assignmentId"":""0f49cccf-56e6-4d4b-82c3-110f95fed89a"",""projectId"":""6d972c12-ef4f-4967-baa7-815328c4c025""}","https://test12345.live/?num_scrambled_semantic=8&num_scrambled_causal=4&num_scrambled_schematic=4&participantId=A8D959F3CEF64358AE82951D037B286D&assignmentId=0f49cccf-56e6-4d4b-82c3-110f95fed89a&projectId=6d972c12-ef4f-4967-baa7-815328c4c025","A8D959F3CEF64358AE82951D037B286D-2025-08-07-17-59-23","","null","","images/causal_sequence/the_performance_causal/the_performance_causal_2.png","null","",""
"","","","","","image-button-response","93","476661","0.0-14.0-1.0-1.1","A8D959F3CEF64358AE82951D037B286D","A8D959F3CEF64358AE82951D037B286D","0f49cccf-56e6-4d4b-82c3-110f95fed89a","6d972c12-ef4f-4967-baa7-815328c4c025","{""num_scrambled_semantic"":""8"",""num_scrambled_causal"":""4"",""num_scrambled_schematic"":""4"",""participantId"":""A8D959F3CEF64358AE82951D037B286D"",""assignmentId"":""0f49cccf-56e6-4d4b-82c3-110f95fed89a"",""projectId"":""6d972c12-ef4f-4967-baa7-815328c4c025""}","https://test12345.live/?num_scrambled_semantic=8&num_scrambled_causal=4&num_scrambled_schematic=4&participantId=A8D959F3CEF64358AE82951D037B286D&assignmentId=0f49cccf-56e6-4d4b-82c3-110f95fed89a&projectId=6d972c12-ef4f-4967-baa7-815328c4c025","A8D959F3CEF64358AE82951D037B286D-2025-08-07-17-59-23","","1416","","images/causal_sequence/the_performance_causal/the_performance_causal_2.png","0","",""
"","","","","","image-button-response","94","478474","0.0-14.0-1.0-2.1","A8D959F3CEF64358AE82951D037B286D","A8D959F3CEF64358AE82951D037B286D","0f49cccf-56e6-4d4b-82c3-110f95fed89a","6d972c12-ef4f-4967-baa7-815328c4c025","{""num_scrambled_semantic"":""8"",""num_scrambled_causal"":""4"",""num_scrambled_schematic"":""4"",""participantId"":""A8D959F3CEF64358AE82951D037B286D"",""assignmentId"":""0f49cccf-56e6-4d4b-82c3-110f95fed89a"",""projectId"":""6d972c12-ef4f-4967-baa7-815328c4c025""}","https://test12345.live/?num_scrambled_semantic=8&num_scrambled_causal=4&num_scrambled_schematic=4&participantId=A8D959F3CEF64358AE82951D037B286D&assignmentId=0f49cccf-56e6-4d4b-82c3-110f95fed89a&projectId=6d972c12-ef4f-4967-baa7-815328c4c025","A8D959F3CEF64358AE82951D037B286D-2025-08-07-17-59-23","","null","","[]","null","",""
"","","","","","image-button-response","95","482985","0.0-14.0-1.0-0.2","A8D959F3CEF64358AE82951D037B286D","A8D959F3CEF64358AE82951D037B286D","0f49cccf-56e6-4d4b-82c3-110f95fed89a","6d972c12-ef4f-4967-baa7-815328c4c025","{""num_scrambled_semantic"":""8"",""num_scrambled_causal"":""4"",""num_scrambled_schematic"":""4"",""participantId"":""A8D959F3CEF64358AE82951D037B286D"",""assignmentId"":""0f49cccf-56e6-4d4b-82c3-110f95fed89a"",""projectId"":""6d972c12-ef4f-4967-baa7-815328c4c025""}","https://test12345.live/?num_scrambled_semantic=8&num_scrambled_causal=4&num_scrambled_schematic=4&participantId=A8D959F3CEF64358AE82951D037B286D&assignmentId=0f49cccf-56e6-4d4b-82c3-110f95fed89a&projectId=6d972c12-ef4f-4967-baa7-815328c4c025","A8D959F3CEF64358AE82951D037B286D-2025-08-07-17-59-23","","null","","images/causal_sequence/the_performance_causal/the_performance_causal_3.png","null","",""
"","","","","","image-button-response","96","484372","0.0-14.0-1.0-1.2","A8D959F3CEF64358AE82951D037B286D","A8D959F3CEF64358AE82951D037B286D","0f49cccf-56e6-4d4b-82c3-110f95fed89a","6d972c12-ef4f-4967-baa7-815328c4c025","{""num_scrambled_semantic"":""8"",""num_scrambled_causal"":""4"",""num_scrambled_schematic"":""4"",""participantId"":""A8D959F3CEF64358AE82951D037B286D"",""assignmentId"":""0f49cccf-56e6-4d4b-82c3-110f95fed89a"",""projectId"":""6d972c12-ef4f-4967-baa7-815328c4c025""}","https://test12345.live/?num_scrambled_semantic=8&num_scrambled_causal=4&num_scrambled_schematic=4&participantId=A8D959F3CEF64358AE82951D037B286D&assignmentId=0f49cccf-56e6-4d4b-82c3-110f95fed89a&projectId=6d972c12-ef4f-4967-baa7-815328c4c025","A8D959F3CEF64358AE82951D037B286D-2025-08-07-17-59-23","","1386","","images/causal_sequence/the_performance_causal/the_performance_causal_3.png","0","",""
"","","","","","image-button-response","97","486185","0.0-14.0-1.0-2.2","A8D959F3CEF64358AE82951D037B286D","A8D959F3CEF64358AE82951D037B286D","0f49cccf-56e6-4d4b-82c3-110f95fed89a","6d972c12-ef4f-4967-baa7-815328c4c025","{""num_scrambled_semantic"":""8"",""num_scrambled_causal"":""4"",""num_scrambled_schematic"":""4"",""participantId"":""A8D959F3CEF64358AE82951D037B286D"",""assignmentId"":""0f49cccf-56e6-4d4b-82c3-110f95fed89a"",""projectId"":""6d972c12-ef4f-4967-baa7-815328c4c025""}","https://test12345.live/?num_scrambled_semantic=8&num_scrambled_causal=4&num_scrambled_schematic=4&participantId=A8D959F3CEF64358AE82951D037B286D&assignmentId=0f49cccf-56e6-4d4b-82c3-110f95fed89a&projectId=6d972c12-ef4f-4967-baa7-815328c4c025","A8D959F3CEF64358AE82951D037B286D-2025-08-07-17-59-23","","null","","[]","null","",""
"","","","","","image-button-response","98","490698","0.0-14.0-1.0-0.3","A8D959F3CEF64358AE82951D037B286D","A8D959F3CEF64358AE82951D037B286D","0f49cccf-56e6-4d4b-82c3-110f95fed89a","6d972c12-ef4f-4967-baa7-815328c4c025","{""num_scrambled_semantic"":""8"",""num_scrambled_causal"":""4"",""num_scrambled_schematic"":""4"",""participantId"":""A8D959F3CEF64358AE82951D037B286D"",""assignmentId"":""0f49cccf-56e6-4d4b-82c3-110f95fed89a"",""projectId"":""6d972c12-ef4f-4967-baa7-815328c4c025""}","https://test12345.live/?num_scrambled_semantic=8&num_scrambled_causal=4&num_scrambled_schematic=4&participantId=A8D959F3CEF64358AE82951D037B286D&assignmentId=0f49cccf-56e6-4d4b-82c3-110f95fed89a&projectId=6d972c12-ef4f-4967-baa7-815328c4c025","A8D959F3CEF64358AE82951D037B286D-2025-08-07-17-59-23","","null","","images/causal_sequence/the_performance_causal/the_performance_causal_4.png","null","",""
"","","","","","image-button-response","99","492105","0.0-14.0-1.0-1.3","A8D959F3CEF64358AE82951D037B286D","A8D959F3CEF64358AE82951D037B286D","0f49cccf-56e6-4d4b-82c3-110f95fed89a","6d972c12-ef4f-4967-baa7-815328c4c025","{""num_scrambled_semantic"":""8"",""num_scrambled_causal"":""4"",""num_scrambled_schematic"":""4"",""participantId"":""A8D959F3CEF64358AE82951D037B286D"",""assignmentId"":""0f49cccf-56e6-4d4b-82c3-110f95fed89a"",""projectId"":""6d972c12-ef4f-4967-baa7-815328c4c025""}","https://test12345.live/?num_scrambled_semantic=8&num_scrambled_causal=4&num_scrambled_schematic=4&participantId=A8D959F3CEF64358AE82951D037B286D&assignmentId=0f49cccf-56e6-4d4b-82c3-110f95fed89a&projectId=6d972c12-ef4f-4967-baa7-815328c4c025","A8D959F3CEF64358AE82951D037B286D-2025-08-07-17-59-23","","1406","","images/causal_sequence/the_performance_causal/the_performance_causal_4.png","0","",""
"","","","","","image-button-response","100","493911","0.0-14.0-1.0-2.3","A8D959F3CEF64358AE82951D037B286D","A8D959F3CEF64358AE82951D037B286D","0f49cccf-56e6-4d4b-82c3-110f95fed89a","6d972c12-ef4f-4967-baa7-815328c4c025","{""num_scrambled_semantic"":""8"",""num_scrambled_causal"":""4"",""num_scrambled_schematic"":""4"",""participantId"":""A8D959F3CEF64358AE82951D037B286D"",""assignmentId"":""0f49cccf-56e6-4d4b-82c3-110f95fed89a"",""projectId"":""6d972c12-ef4f-4967-baa7-815328c4c025""}","https://test12345.live/?num_scrambled_semantic=8&num_scrambled_causal=4&num_scrambled_schematic=4&participantId=A8D959F3CEF64358AE82951D037B286D&assignmentId=0f49cccf-56e6-4d4b-82c3-110f95fed89a&projectId=6d972c12-ef4f-4967-baa7-815328c4c025","A8D959F3CEF64358AE82951D037B286D-2025-08-07-17-59-23","","null","","[]","null","",""
"","","","","","image-button-response","101","498420","0.0-14.0-1.0-0.4","A8D959F3CEF64358AE82951D037B286D","A8D959F3CEF64358AE82951D037B286D","0f49cccf-56e6-4d4b-82c3-110f95fed89a","6d972c12-ef4f-4967-baa7-815328c4c025","{""num_scrambled_semantic"":""8"",""num_scrambled_causal"":""4"",""num_scrambled_schematic"":""4"",""participantId"":""A8D959F3CEF64358AE82951D037B286D"",""assignmentId"":""0f49cccf-56e6-4d4b-82c3-110f95fed89a"",""projectId"":""6d972c12-ef4f-4967-baa7-815328c4c025""}","https://test12345.live/?num_scrambled_semantic=8&num_scrambled_causal=4&num_scrambled_schematic=4&participantId=A8D959F3CEF64358AE82951D037B286D&assignmentId=0f49cccf-56e6-4d4b-82c3-110f95fed89a&projectId=6d972c12-ef4f-4967-baa7-815328c4c025","A8D959F3CEF64358AE82951D037B286D-2025-08-07-17-59-23","","null","","images/causal_sequence/the_performance_causal/the_performance_causal_5.png","null","",""
"","","","","","image-button-response","102","500192","0.0-14.0-1.0-1.4","A8D959F3CEF64358AE82951D037B286D","A8D959F3CEF64358AE82951D037B286D","0f49cccf-56e6-4d4b-82c3-110f95fed89a","6d972c12-ef4f-4967-baa7-815328c4c025","{""num_scrambled_semantic"":""8"",""num_scrambled_causal"":""4"",""num_scrambled_schematic"":""4"",""participantId"":""A8D959F3CEF64358AE82951D037B286D"",""assignmentId"":""0f49cccf-56e6-4d4b-82c3-110f95fed89a"",""projectId"":""6d972c12-ef4f-4967-baa7-815328c4c025""}","https://test12345.live/?num_scrambled_semantic=8&num_scrambled_causal=4&num_scrambled_schematic=4&participantId=A8D959F3CEF64358AE82951D037B286D&assignmentId=0f49cccf-56e6-4d4b-82c3-110f95fed89a&projectId=6d972c12-ef4f-4967-baa7-815328c4c025","A8D959F3CEF64358AE82951D037B286D-2025-08-07-17-59-23","","1770","","images/causal_sequence/the_performance_causal/the_performance_causal_5.png","0","",""
"","","","","","image-button-response","103","502001","0.0-14.0-1.0-2.4","A8D959F3CEF64358AE82951D037B286D","A8D959F3CEF64358AE82951D037B286D","0f49cccf-56e6-4d4b-82c3-110f95fed89a","6d972c12-ef4f-4967-baa7-815328c4c025","{""num_scrambled_semantic"":""8"",""num_scrambled_causal"":""4"",""num_scrambled_schematic"":""4"",""participantId"":""A8D959F3CEF64358AE82951D037B286D"",""assignmentId"":""0f49cccf-56e6-4d4b-82c3-110f95fed89a"",""projectId"":""6d972c12-ef4f-4967-baa7-815328c4c025""}","https://test12345.live/?num_scrambled_semantic=8&num_scrambled_causal=4&num_scrambled_schematic=4&participantId=A8D959F3CEF64358AE82951D037B286D&assignmentId=0f49cccf-56e6-4d4b-82c3-110f95fed89a&projectId=6d972c12-ef4f-4967-baa7-815328c4c025","A8D959F3CEF64358AE82951D037B286D-2025-08-07-17-59-23","","null","","[]","null","",""
"","","","","","image-button-response","104","506503","0.0-14.0-1.0-0.5","A8D959F3CEF64358AE82951D037B286D","A8D959F3CEF64358AE82951D037B286D","0f49cccf-56e6-4d4b-82c3-110f95fed89a","6d972c12-ef4f-4967-baa7-815328c4c025","{""num_scrambled_semantic"":""8"",""num_scrambled_causal"":""4"",""num_scrambled_schematic"":""4"",""participantId"":""A8D959F3CEF64358AE82951D037B286D"",""assignmentId"":""0f49cccf-56e6-4d4b-82c3-110f95fed89a"",""projectId"":""6d972c12-ef4f-4967-baa7-815328c4c025""}","https://test12345.live/?num_scrambled_semantic=8&num_scrambled_causal=4&num_scrambled_schematic=4&participantId=A8D959F3CEF64358AE82951D037B286D&assignmentId=0f49cccf-56e6-4d4b-82c3-110f95fed89a&projectId=6d972c12-ef4f-4967-baa7-815328c4c025","A8D959F3CEF64358AE82951D037B286D-2025-08-07-17-59-23","","null","","images/causal_sequence/the_performance_causal/the_performance_causal_6.png","null","",""
"","","","","","image-button-response","105","508008","0.0-14.0-1.0-1.5","A8D959F3CEF64358AE82951D037B286D","A8D959F3CEF64358AE82951D037B286D","0f49cccf-56e6-4d4b-82c3-110f95fed89a","6d972c12-ef4f-4967-baa7-815328c4c025","{""num_scrambled_semantic"":""8"",""num_scrambled_causal"":""4"",""num_scrambled_schematic"":""4"",""participantId"":""A8D959F3CEF64358AE82951D037B286D"",""assignmentId"":""0f49cccf-56e6-4d4b-82c3-110f95fed89a"",""projectId"":""6d972c12-ef4f-4967-baa7-815328c4c025""}","https://test12345.live/?num_scrambled_semantic=8&num_scrambled_causal=4&num_scrambled_schematic=4&participantId=A8D959F3CEF64358AE82951D037B286D&assignmentId=0f49cccf-56e6-4d4b-82c3-110f95fed89a&projectId=6d972c12-ef4f-4967-baa7-815328c4c025","A8D959F3CEF64358AE82951D037B286D-2025-08-07-17-59-23","","1504","","images/causal_sequence/the_performance_causal/the_performance_causal_6.png","0","",""
"","","","","","image-button-response","106","509825","0.0-14.0-1.0-2.5","A8D959F3CEF64358AE82951D037B286D","A8D959F3CEF64358AE82951D037B286D","0f49cccf-56e6-4d4b-82c3-110f95fed89a","6d972c12-ef4f-4967-baa7-815328c4c025","{""num_scrambled_semantic"":""8"",""num_scrambled_causal"":""4"",""num_scrambled_schematic"":""4"",""participantId"":""A8D959F3CEF64358AE82951D037B286D"",""assignmentId"":""0f49cccf-56e6-4d4b-82c3-110f95fed89a"",""projectId"":""6d972c12-ef4f-4967-baa7-815328c4c025""}","https://test12345.live/?num_scrambled_semantic=8&num_scrambled_causal=4&num_scrambled_schematic=4&participantId=A8D959F3CEF64358AE82951D037B286D&assignmentId=0f49cccf-56e6-4d4b-82c3-110f95fed89a&projectId=6d972c12-ef4f-4967-baa7-815328c4c025","A8D959F3CEF64358AE82951D037B286D-2025-08-07-17-59-23","","null","","[]","null","",""
"","","","","","image-button-response","107","514335","0.0-14.0-1.0-0.6","A8D959F3CEF64358AE82951D037B286D","A8D959F3CEF64358AE82951D037B286D","0f49cccf-56e6-4d4b-82c3-110f95fed89a","6d972c12-ef4f-4967-baa7-815328c4c025","{""num_scrambled_semantic"":""8"",""num_scrambled_causal"":""4"",""num_scrambled_schematic"":""4"",""participantId"":""A8D959F3CEF64358AE82951D037B286D"",""assignmentId"":""0f49cccf-56e6-4d4b-82c3-110f95fed89a"",""projectId"":""6d972c12-ef4f-4967-baa7-815328c4c025""}","https://test12345.live/?num_scrambled_semantic=8&num_scrambled_causal=4&num_scrambled_schematic=4&participantId=A8D959F3CEF64358AE82951D037B286D&assignmentId=0f49cccf-56e6-4d4b-82c3-110f95fed89a&projectId=6d972c12-ef4f-4967-baa7-815328c4c025","A8D959F3CEF64358AE82951D037B286D-2025-08-07-17-59-23","","null","","images/causal_sequence/the_performance_causal/the_performance_causal_7.png","null","",""
"","","","","","image-button-response","108","515773","0.0-14.0-1.0-1.6","A8D959F3CEF64358AE82951D037B286D","A8D959F3CEF64358AE82951D037B286D","0f49cccf-56e6-4d4b-82c3-110f95fed89a","6d972c12-ef4f-4967-baa7-815328c4c025","{""num_scrambled_semantic"":""8"",""num_scrambled_causal"":""4"",""num_scrambled_schematic"":""4"",""participantId"":""A8D959F3CEF64358AE82951D037B286D"",""assignmentId"":""0f49cccf-56e6-4d4b-82c3-110f95fed89a"",""projectId"":""6d972c12-ef4f-4967-baa7-815328c4c025""}","https://test12345.live/?num_scrambled_semantic=8&num_scrambled_causal=4&num_scrambled_schematic=4&participantId=A8D959F3CEF64358AE82951D037B286D&assignmentId=0f49cccf-56e6-4d4b-82c3-110f95fed89a&projectId=6d972c12-ef4f-4967-baa7-815328c4c025","A8D959F3CEF64358AE82951D037B286D-2025-08-07-17-59-23","","1436","","images/causal_sequence/the_performance_causal/the_performance_causal_7.png","0","",""
"","","","","","image-button-response","109","517576","0.0-14.0-1.0-2.6","A8D959F3CEF64358AE82951D037B286D","A8D959F3CEF64358AE82951D037B286D","0f49cccf-56e6-4d4b-82c3-110f95fed89a","6d972c12-ef4f-4967-baa7-815328c4c025","{""num_scrambled_semantic"":""8"",""num_scrambled_causal"":""4"",""num_scrambled_schematic"":""4"",""participantId"":""A8D959F3CEF64358AE82951D037B286D"",""assignmentId"":""0f49cccf-56e6-4d4b-82c3-110f95fed89a"",""projectId"":""6d972c12-ef4f-4967-baa7-815328c4c025""}","https://test12345.live/?num_scrambled_semantic=8&num_scrambled_causal=4&num_scrambled_schematic=4&participantId=A8D959F3CEF64358AE82951D037B286D&assignmentId=0f49cccf-56e6-4d4b-82c3-110f95fed89a&projectId=6d972c12-ef4f-4967-baa7-815328c4c025","A8D959F3CEF64358AE82951D037B286D-2025-08-07-17-59-23","","null","","[]","null","",""
"","","","","","image-button-response","110","522093","0.0-14.0-1.0-0.7","A8D959F3CEF64358AE82951D037B286D","A8D959F3CEF64358AE82951D037B286D","0f49cccf-56e6-4d4b-82c3-110f95fed89a","6d972c12-ef4f-4967-baa7-815328c4c025","{""num_scrambled_semantic"":""8"",""num_scrambled_causal"":""4"",""num_scrambled_schematic"":""4"",""participantId"":""A8D959F3CEF64358AE82951D037B286D"",""assignmentId"":""0f49cccf-56e6-4d4b-82c3-110f95fed89a"",""projectId"":""6d972c12-ef4f-4967-baa7-815328c4c025""}","https://test12345.live/?num_scrambled_semantic=8&num_scrambled_causal=4&num_scrambled_schematic=4&participantId=A8D959F3CEF64358AE82951D037B286D&assignmentId=0f49cccf-56e6-4d4b-82c3-110f95fed89a&projectId=6d972c12-ef4f-4967-baa7-815328c4c025","A8D959F3CEF64358AE82951D037B286D-2025-08-07-17-59-23","","null","","images/causal_sequence/the_performance_causal/the_performance_causal_8.png","null","",""
"","","","","","image-button-response","111","523401","0.0-14.0-1.0-1.7","A8D959F3CEF64358AE82951D037B286D","A8D959F3CEF64358AE82951D037B286D","0f49cccf-56e6-4d4b-82c3-110f95fed89a","6d972c12-ef4f-4967-baa7-815328c4c025","{""num_scrambled_semantic"":""8"",""num_scrambled_causal"":""4"",""num_scrambled_schematic"":""4"",""participantId"":""A8D959F3CEF64358AE82951D037B286D"",""assignmentId"":""0f49cccf-56e6-4d4b-82c3-110f95fed89a"",""projectId"":""6d972c12-ef4f-4967-baa7-815328c4c025""}","https://test12345.live/?num_scrambled_semantic=8&num_scrambled_causal=4&num_scrambled_schematic=4&participantId=A8D959F3CEF64358AE82951D037B286D&assignmentId=0f49cccf-56e6-4d4b-82c3-110f95fed89a&projectId=6d972c12-ef4f-4967-baa7-815328c4c025","A8D959F3CEF64358AE82951D037B286D-2025-08-07-17-59-23","","1306","","images/causal_sequence/the_performance_causal/the_performance_causal_8.png","0","",""
"","","","","","image-button-response","112","525209","0.0-14.0-1.0-2.7","A8D959F3CEF64358AE82951D037B286D","A8D959F3CEF64358AE82951D037B286D","0f49cccf-56e6-4d4b-82c3-110f95fed89a","6d972c12-ef4f-4967-baa7-815328c4c025","{""num_scrambled_semantic"":""8"",""num_scrambled_causal"":""4"",""num_scrambled_schematic"":""4"",""participantId"":""A8D959F3CEF64358AE82951D037B286D"",""assignmentId"":""0f49cccf-56e6-4d4b-82c3-110f95fed89a"",""projectId"":""6d972c12-ef4f-4967-baa7-815328c4c025""}","https://test12345.live/?num_scrambled_semantic=8&num_scrambled_causal=4&num_scrambled_schematic=4&participantId=A8D959F3CEF64358AE82951D037B286D&assignmentId=0f49cccf-56e6-4d4b-82c3-110f95fed89a&projectId=6d972c12-ef4f-4967-baa7-815328c4c025","A8D959F3CEF64358AE82951D037B286D-2025-08-07-17-59-23","","null","","[]","null","",""
"","","","","","image-button-response","113","529724","0.0-14.0-1.0-0.8","A8D959F3CEF64358AE82951D037B286D","A8D959F3CEF64358AE82951D037B286D","0f49cccf-56e6-4d4b-82c3-110f95fed89a","6d972c12-ef4f-4967-baa7-815328c4c025","{""num_scrambled_semantic"":""8"",""num_scrambled_causal"":""4"",""num_scrambled_schematic"":""4"",""participantId"":""A8D959F3CEF64358AE82951D037B286D"",""assignmentId"":""0f49cccf-56e6-4d4b-82c3-110f95fed89a"",""projectId"":""6d972c12-ef4f-4967-baa7-815328c4c025""}","https://test12345.live/?num_scrambled_semantic=8&num_scrambled_causal=4&num_scrambled_schematic=4&participantId=A8D959F3CEF64358AE82951D037B286D&assignmentId=0f49cccf-56e6-4d4b-82c3-110f95fed89a&projectId=6d972c12-ef4f-4967-baa7-815328c4c025","A8D959F3CEF64358AE82951D037B286D-2025-08-07-17-59-23","","null","","images/causal_sequence/the_performance_causal/the_performance_causal_9 (2).png","null","",""
"","","","","","image-button-response","114","531572","0.0-14.0-1.0-1.8","A8D959F3CEF64358AE82951D037B286D","A8D959F3CEF64358AE82951D037B286D","0f49cccf-56e6-4d4b-82c3-110f95fed89a","6d972c12-ef4f-4967-baa7-815328c4c025","{""num_scrambled_semantic"":""8"",""num_scrambled_causal"":""4"",""num_scrambled_schematic"":""4"",""participantId"":""A8D959F3CEF64358AE82951D037B286D"",""assignmentId"":""0f49cccf-56e6-4d4b-82c3-110f95fed89a"",""projectId"":""6d972c12-ef4f-4967-baa7-815328c4c025""}","https://test12345.live/?num_scrambled_semantic=8&num_scrambled_causal=4&num_scrambled_schematic=4&participantId=A8D959F3CEF64358AE82951D037B286D&assignmentId=0f49cccf-56e6-4d4b-82c3-110f95fed89a&projectId=6d972c12-ef4f-4967-baa7-815328c4c025","A8D959F3CEF64358AE82951D037B286D-2025-08-07-17-59-23","","1845","","images/causal_sequence/the_performance_causal/the_performance_causal_9 (2).png","0","",""
