"success","timeout","failed_images","failed_audio","failed_video","trial_type","trial_index","time_elapsed","internal_node_id","subject","subject_id","study_id","session_id","urlvar","current_url","audio_id","view_history","rt","device_id","stimulus","response","estimated_stimulus_onset","seq_name"
"true","false","[]","[]","[]","preload","0","41593","0.0-0.0","AA328A2B29A14E278ACF8AFDAD6CD03C","AA328A2B29A14E278ACF8AFDAD6CD03C","362fa7b8-9c89-4957-bab4-ed738b831216","a0a8f18c-a66e-4ba7-a170-23efbdc67501","{""participantId"":""AA328A2B29A14E278ACF8AFDAD6CD03C"",""assignmentId"":""362fa7b8-9c89-4957-bab4-ed738b831216"",""projectId"":""a0a8f18c-a66e-4ba7-a170-23efbdc67501""}","https://test12345.live/?participantId=AA328A2B29A14E278ACF8AFDAD6CD03C&assignmentId=362fa7b8-9c89-4957-bab4-ed738b831216&projectId=a0a8f18c-a66e-4ba7-a170-23efbdc67501","AA328A2B29A14E278ACF8AFDAD6CD03C-2024-11-24-19-25-10","","","","","","",""
"","","","","","instructions","1","83006","0.0-1.0","AA328A2B29A14E278ACF8AFDAD6CD03C","AA328A2B29A14E278ACF8AFDAD6CD03C","362fa7b8-9c89-4957-bab4-ed738b831216","a0a8f18c-a66e-4ba7-a170-23efbdc67501","{""participantId"":""AA328A2B29A14E278ACF8AFDAD6CD03C"",""assignmentId"":""362fa7b8-9c89-4957-bab4-ed738b831216"",""projectId"":""a0a8f18c-a66e-4ba7-a170-23efbdc67501""}","https://test12345.live/?participantId=AA328A2B29A14E278ACF8AFDAD6CD03C&assignmentId=362fa7b8-9c89-4957-bab4-ed738b831216&projectId=a0a8f18c-a66e-4ba7-a170-23efbdc67501","AA328A2B29A14E278ACF8AFDAD6CD03C-2024-11-24-19-25-10","[{""page_index"":0,""viewing_time"":41407}]","41410","","","","",""
"","","","","","instructions","2","94114","0.0-2.0","AA328A2B29A14E278ACF8AFDAD6CD03C","AA328A2B29A14E278ACF8AFDAD6CD03C","362fa7b8-9c89-4957-bab4-ed738b831216","a0a8f18c-a66e-4ba7-a170-23efbdc67501","{""participantId"":""AA328A2B29A14E278ACF8AFDAD6CD03C"",""assignmentId"":""362fa7b8-9c89-4957-bab4-ed738b831216"",""projectId"":""a0a8f18c-a66e-4ba7-a170-23efbdc67501""}","https://test12345.live/?participantId=AA328A2B29A14E278ACF8AFDAD6CD03C&assignmentId=362fa7b8-9c89-4957-bab4-ed738b831216&projectId=a0a8f18c-a66e-4ba7-a170-23efbdc67501","AA328A2B29A14E278ACF8AFDAD6CD03C-2024-11-24-19-25-10","[{""page_index"":0,""viewing_time"":11106}]","11107","","","","",""
"true","","","","","fullscreen","3","127677","0.0-3.0","AA328A2B29A14E278ACF8AFDAD6CD03C","AA328A2B29A14E278ACF8AFDAD6CD03C","362fa7b8-9c89-4957-bab4-ed738b831216","a0a8f18c-a66e-4ba7-a170-23efbdc67501","{""participantId"":""AA328A2B29A14E278ACF8AFDAD6CD03C"",""assignmentId"":""362fa7b8-9c89-4957-bab4-ed738b831216"",""projectId"":""a0a8f18c-a66e-4ba7-a170-23efbdc67501""}","https://test12345.live/?participantId=AA328A2B29A14E278ACF8AFDAD6CD03C&assignmentId=362fa7b8-9c89-4957-bab4-ed738b831216&projectId=a0a8f18c-a66e-4ba7-a170-23efbdc67501","AA328A2B29A14E278ACF8AFDAD6CD03C-2024-11-24-19-25-10","","32554","","","","",""
"","","","","","initialize-microphone","4","155042","0.0-4.0-0.0","AA328A2B29A14E278ACF8AFDAD6CD03C","AA328A2B29A14E278ACF8AFDAD6CD03C","362fa7b8-9c89-4957-bab4-ed738b831216","a0a8f18c-a66e-4ba7-a170-23efbdc67501","{""participantId"":""AA328A2B29A14E278ACF8AFDAD6CD03C"",""assignmentId"":""362fa7b8-9c89-4957-bab4-ed738b831216"",""projectId"":""a0a8f18c-a66e-4ba7-a170-23efbdc67501""}","https://test12345.live/?participantId=AA328A2B29A14E278ACF8AFDAD6CD03C&assignmentId=362fa7b8-9c89-4957-bab4-ed738b831216&projectId=a0a8f18c-a66e-4ba7-a170-23efbdc67501","AA328A2B29A14E278ACF8AFDAD6CD03C-2024-11-24-19-25-10","","","abc55a51b9f90e1ae6a1d3c5cee15063a7fe6fb94b4e0947605c254559f36c1e","","","",""
"","","","","","html-audio-response","5","169344","0.0-4.0-1.0","AA328A2B29A14E278ACF8AFDAD6CD03C","AA328A2B29A14E278ACF8AFDAD6CD03C","362fa7b8-9c89-4957-bab4-ed738b831216","a0a8f18c-a66e-4ba7-a170-23efbdc67501","{""participantId"":""AA328A2B29A14E278ACF8AFDAD6CD03C"",""assignmentId"":""362fa7b8-9c89-4957-bab4-ed738b831216"",""projectId"":""a0a8f18c-a66e-4ba7-a170-23efbdc67501""}","https://test12345.live/?participantId=AA328A2B29A14E278ACF8AFDAD6CD03C&assignmentId=362fa7b8-9c89-4957-bab4-ed738b831216&projectId=a0a8f18c-a66e-4ba7-a170-23efbdc67501","AA328A2B29A14E278ACF8AFDAD6CD03C-2024-11-24-19-25-10","","2280","","<span style=""color: red; font-size: 24px""> NOW RECORDING</span>
        <p>Please test Microphone</p>","","8",""
"","","","","","html-button-response","6","172372","0.0-4.0-2.0","AA328A2B29A14E278ACF8AFDAD6CD03C","AA328A2B29A14E278ACF8AFDAD6CD03C","362fa7b8-9c89-4957-bab4-ed738b831216","a0a8f18c-a66e-4ba7-a170-23efbdc67501","{""participantId"":""AA328A2B29A14E278ACF8AFDAD6CD03C"",""assignmentId"":""362fa7b8-9c89-4957-bab4-ed738b831216"",""projectId"":""a0a8f18c-a66e-4ba7-a170-23efbdc67501""}","https://test12345.live/?participantId=AA328A2B29A14E278ACF8AFDAD6CD03C&assignmentId=362fa7b8-9c89-4957-bab4-ed738b831216&projectId=a0a8f18c-a66e-4ba7-a170-23efbdc67501","AA328A2B29A14E278ACF8AFDAD6CD03C-2024-11-24-19-25-10","","3026","","<p style=""font-size:48px; color:red;"">Is Microphone OK?</p>","1","",""
"","","","","","instructions","7","188925","0.0-5.0","AA328A2B29A14E278ACF8AFDAD6CD03C","AA328A2B29A14E278ACF8AFDAD6CD03C","362fa7b8-9c89-4957-bab4-ed738b831216","a0a8f18c-a66e-4ba7-a170-23efbdc67501","{""participantId"":""AA328A2B29A14E278ACF8AFDAD6CD03C"",""assignmentId"":""362fa7b8-9c89-4957-bab4-ed738b831216"",""projectId"":""a0a8f18c-a66e-4ba7-a170-23efbdc67501""}","https://test12345.live/?participantId=AA328A2B29A14E278ACF8AFDAD6CD03C&assignmentId=362fa7b8-9c89-4957-bab4-ed738b831216&projectId=a0a8f18c-a66e-4ba7-a170-23efbdc67501","AA328A2B29A14E278ACF8AFDAD6CD03C-2024-11-24-19-25-10","[{""page_index"":0,""viewing_time"":6711},{""page_index"":1,""viewing_time"":9837}]","16549","","","","",""
"","","","","","image-button-response","8","194940","0.0-6.0-0.0","AA328A2B29A14E278ACF8AFDAD6CD03C","AA328A2B29A14E278ACF8AFDAD6CD03C","362fa7b8-9c89-4957-bab4-ed738b831216","a0a8f18c-a66e-4ba7-a170-23efbdc67501","{""participantId"":""AA328A2B29A14E278ACF8AFDAD6CD03C"",""assignmentId"":""362fa7b8-9c89-4957-bab4-ed738b831216"",""projectId"":""a0a8f18c-a66e-4ba7-a170-23efbdc67501""}","https://test12345.live/?participantId=AA328A2B29A14E278ACF8AFDAD6CD03C&assignmentId=362fa7b8-9c89-4957-bab4-ed738b831216&projectId=a0a8f18c-a66e-4ba7-a170-23efbdc67501","AA328A2B29A14E278ACF8AFDAD6CD03C-2024-11-24-19-25-10","","null","","images/instructions/movie_0.png","null","",""
"","","","","","image-button-response","9","199459","0.0-6.0-1.0-0.0","AA328A2B29A14E278ACF8AFDAD6CD03C","AA328A2B29A14E278ACF8AFDAD6CD03C","362fa7b8-9c89-4957-bab4-ed738b831216","a0a8f18c-a66e-4ba7-a170-23efbdc67501","{""participantId"":""AA328A2B29A14E278ACF8AFDAD6CD03C"",""assignmentId"":""362fa7b8-9c89-4957-bab4-ed738b831216"",""projectId"":""a0a8f18c-a66e-4ba7-a170-23efbdc67501""}","https://test12345.live/?participantId=AA328A2B29A14E278ACF8AFDAD6CD03C&assignmentId=362fa7b8-9c89-4957-bab4-ed738b831216&projectId=a0a8f18c-a66e-4ba7-a170-23efbdc67501","AA328A2B29A14E278ACF8AFDAD6CD03C-2024-11-24-19-25-10","","null","","images/instructions/movie_1.png","null","",""
"","","","","","image-button-response","10","203469","0.0-6.0-1.0-1.0","AA328A2B29A14E278ACF8AFDAD6CD03C","AA328A2B29A14E278ACF8AFDAD6CD03C","362fa7b8-9c89-4957-bab4-ed738b831216","a0a8f18c-a66e-4ba7-a170-23efbdc67501","{""participantId"":""AA328A2B29A14E278ACF8AFDAD6CD03C"",""assignmentId"":""362fa7b8-9c89-4957-bab4-ed738b831216"",""projectId"":""a0a8f18c-a66e-4ba7-a170-23efbdc67501""}","https://test12345.live/?participantId=AA328A2B29A14E278ACF8AFDAD6CD03C&assignmentId=362fa7b8-9c89-4957-bab4-ed738b831216&projectId=a0a8f18c-a66e-4ba7-a170-23efbdc67501","AA328A2B29A14E278ACF8AFDAD6CD03C-2024-11-24-19-25-10","","null","","images/instructions/movie_1.png","null","",""
"","","","","","image-button-response","11","205290","0.0-6.0-1.0-2.0","AA328A2B29A14E278ACF8AFDAD6CD03C","AA328A2B29A14E278ACF8AFDAD6CD03C","362fa7b8-9c89-4957-bab4-ed738b831216","a0a8f18c-a66e-4ba7-a170-23efbdc67501","{""participantId"":""AA328A2B29A14E278ACF8AFDAD6CD03C"",""assignmentId"":""362fa7b8-9c89-4957-bab4-ed738b831216"",""projectId"":""a0a8f18c-a66e-4ba7-a170-23efbdc67501""}","https://test12345.live/?participantId=AA328A2B29A14E278ACF8AFDAD6CD03C&assignmentId=362fa7b8-9c89-4957-bab4-ed738b831216&projectId=a0a8f18c-a66e-4ba7-a170-23efbdc67501","AA328A2B29A14E278ACF8AFDAD6CD03C-2024-11-24-19-25-10","","null","","[]","null","",""
"","","","","","image-button-response","12","209809","0.0-6.0-1.0-0.1","AA328A2B29A14E278ACF8AFDAD6CD03C","AA328A2B29A14E278ACF8AFDAD6CD03C","362fa7b8-9c89-4957-bab4-ed738b831216","a0a8f18c-a66e-4ba7-a170-23efbdc67501","{""participantId"":""AA328A2B29A14E278ACF8AFDAD6CD03C"",""assignmentId"":""362fa7b8-9c89-4957-bab4-ed738b831216"",""projectId"":""a0a8f18c-a66e-4ba7-a170-23efbdc67501""}","https://test12345.live/?participantId=AA328A2B29A14E278ACF8AFDAD6CD03C&assignmentId=362fa7b8-9c89-4957-bab4-ed738b831216&projectId=a0a8f18c-a66e-4ba7-a170-23efbdc67501","AA328A2B29A14E278ACF8AFDAD6CD03C-2024-11-24-19-25-10","","null","","images/instructions/movie_2.png","null","",""
"","","","","","image-button-response","13","213819","0.0-6.0-1.0-1.1","AA328A2B29A14E278ACF8AFDAD6CD03C","AA328A2B29A14E278ACF8AFDAD6CD03C","362fa7b8-9c89-4957-bab4-ed738b831216","a0a8f18c-a66e-4ba7-a170-23efbdc67501","{""participantId"":""AA328A2B29A14E278ACF8AFDAD6CD03C"",""assignmentId"":""362fa7b8-9c89-4957-bab4-ed738b831216"",""projectId"":""a0a8f18c-a66e-4ba7-a170-23efbdc67501""}","https://test12345.live/?participantId=AA328A2B29A14E278ACF8AFDAD6CD03C&assignmentId=362fa7b8-9c89-4957-bab4-ed738b831216&projectId=a0a8f18c-a66e-4ba7-a170-23efbdc67501","AA328A2B29A14E278ACF8AFDAD6CD03C-2024-11-24-19-25-10","","null","","images/instructions/movie_2.png","null","",""
"","","","","","image-button-response","14","215629","0.0-6.0-1.0-2.1","AA328A2B29A14E278ACF8AFDAD6CD03C","AA328A2B29A14E278ACF8AFDAD6CD03C","362fa7b8-9c89-4957-bab4-ed738b831216","a0a8f18c-a66e-4ba7-a170-23efbdc67501","{""participantId"":""AA328A2B29A14E278ACF8AFDAD6CD03C"",""assignmentId"":""362fa7b8-9c89-4957-bab4-ed738b831216"",""projectId"":""a0a8f18c-a66e-4ba7-a170-23efbdc67501""}","https://test12345.live/?participantId=AA328A2B29A14E278ACF8AFDAD6CD03C&assignmentId=362fa7b8-9c89-4957-bab4-ed738b831216&projectId=a0a8f18c-a66e-4ba7-a170-23efbdc67501","AA328A2B29A14E278ACF8AFDAD6CD03C-2024-11-24-19-25-10","","null","","[]","null","",""
"","","","","","image-button-response","15","220149","0.0-6.0-1.0-0.2","AA328A2B29A14E278ACF8AFDAD6CD03C","AA328A2B29A14E278ACF8AFDAD6CD03C","362fa7b8-9c89-4957-bab4-ed738b831216","a0a8f18c-a66e-4ba7-a170-23efbdc67501","{""participantId"":""AA328A2B29A14E278ACF8AFDAD6CD03C"",""assignmentId"":""362fa7b8-9c89-4957-bab4-ed738b831216"",""projectId"":""a0a8f18c-a66e-4ba7-a170-23efbdc67501""}","https://test12345.live/?participantId=AA328A2B29A14E278ACF8AFDAD6CD03C&assignmentId=362fa7b8-9c89-4957-bab4-ed738b831216&projectId=a0a8f18c-a66e-4ba7-a170-23efbdc67501","AA328A2B29A14E278ACF8AFDAD6CD03C-2024-11-24-19-25-10","","null","","images/instructions/movie_3.png","null","",""
"","","","","","image-button-response","16","221777","0.0-6.0-1.0-1.2","AA328A2B29A14E278ACF8AFDAD6CD03C","AA328A2B29A14E278ACF8AFDAD6CD03C","362fa7b8-9c89-4957-bab4-ed738b831216","a0a8f18c-a66e-4ba7-a170-23efbdc67501","{""participantId"":""AA328A2B29A14E278ACF8AFDAD6CD03C"",""assignmentId"":""362fa7b8-9c89-4957-bab4-ed738b831216"",""projectId"":""a0a8f18c-a66e-4ba7-a170-23efbdc67501""}","https://test12345.live/?participantId=AA328A2B29A14E278ACF8AFDAD6CD03C&assignmentId=362fa7b8-9c89-4957-bab4-ed738b831216&projectId=a0a8f18c-a66e-4ba7-a170-23efbdc67501","AA328A2B29A14E278ACF8AFDAD6CD03C-2024-11-24-19-25-10","","1625","","images/instructions/movie_3.png","0","",""
"","","","","","image-button-response","17","223579","0.0-6.0-1.0-2.2","AA328A2B29A14E278ACF8AFDAD6CD03C","AA328A2B29A14E278ACF8AFDAD6CD03C","362fa7b8-9c89-4957-bab4-ed738b831216","a0a8f18c-a66e-4ba7-a170-23efbdc67501","{""participantId"":""AA328A2B29A14E278ACF8AFDAD6CD03C"",""assignmentId"":""362fa7b8-9c89-4957-bab4-ed738b831216"",""projectId"":""a0a8f18c-a66e-4ba7-a170-23efbdc67501""}","https://test12345.live/?participantId=AA328A2B29A14E278ACF8AFDAD6CD03C&assignmentId=362fa7b8-9c89-4957-bab4-ed738b831216&projectId=a0a8f18c-a66e-4ba7-a170-23efbdc67501","AA328A2B29A14E278ACF8AFDAD6CD03C-2024-11-24-19-25-10","","null","","[]","null","",""
"","","","","","image-button-response","18","228089","0.0-6.0-1.0-0.3","AA328A2B29A14E278ACF8AFDAD6CD03C","AA328A2B29A14E278ACF8AFDAD6CD03C","362fa7b8-9c89-4957-bab4-ed738b831216","a0a8f18c-a66e-4ba7-a170-23efbdc67501","{""participantId"":""AA328A2B29A14E278ACF8AFDAD6CD03C"",""assignmentId"":""362fa7b8-9c89-4957-bab4-ed738b831216"",""projectId"":""a0a8f18c-a66e-4ba7-a170-23efbdc67501""}","https://test12345.live/?participantId=AA328A2B29A14E278ACF8AFDAD6CD03C&assignmentId=362fa7b8-9c89-4957-bab4-ed738b831216&projectId=a0a8f18c-a66e-4ba7-a170-23efbdc67501","AA328A2B29A14E278ACF8AFDAD6CD03C-2024-11-24-19-25-10","","null","","images/instructions/movie_4.png","null","",""
"","","","","","image-button-response","19","230969","0.0-6.0-1.0-1.3","AA328A2B29A14E278ACF8AFDAD6CD03C","AA328A2B29A14E278ACF8AFDAD6CD03C","362fa7b8-9c89-4957-bab4-ed738b831216","a0a8f18c-a66e-4ba7-a170-23efbdc67501","{""participantId"":""AA328A2B29A14E278ACF8AFDAD6CD03C"",""assignmentId"":""362fa7b8-9c89-4957-bab4-ed738b831216"",""projectId"":""a0a8f18c-a66e-4ba7-a170-23efbdc67501""}","https://test12345.live/?participantId=AA328A2B29A14E278ACF8AFDAD6CD03C&assignmentId=362fa7b8-9c89-4957-bab4-ed738b831216&projectId=a0a8f18c-a66e-4ba7-a170-23efbdc67501","AA328A2B29A14E278ACF8AFDAD6CD03C-2024-11-24-19-25-10","","2878","","images/instructions/movie_4.png","0","",""
"","","","","","image-button-response","20","232789","0.0-6.0-1.0-2.3","AA328A2B29A14E278ACF8AFDAD6CD03C","AA328A2B29A14E278ACF8AFDAD6CD03C","362fa7b8-9c89-4957-bab4-ed738b831216","a0a8f18c-a66e-4ba7-a170-23efbdc67501","{""participantId"":""AA328A2B29A14E278ACF8AFDAD6CD03C"",""assignmentId"":""362fa7b8-9c89-4957-bab4-ed738b831216"",""projectId"":""a0a8f18c-a66e-4ba7-a170-23efbdc67501""}","https://test12345.live/?participantId=AA328A2B29A14E278ACF8AFDAD6CD03C&assignmentId=362fa7b8-9c89-4957-bab4-ed738b831216&projectId=a0a8f18c-a66e-4ba7-a170-23efbdc67501","AA328A2B29A14E278ACF8AFDAD6CD03C-2024-11-24-19-25-10","","null","","[]","null","",""
"","","","","","instructions","21","239505","0.0-7.0","AA328A2B29A14E278ACF8AFDAD6CD03C","AA328A2B29A14E278ACF8AFDAD6CD03C","362fa7b8-9c89-4957-bab4-ed738b831216","a0a8f18c-a66e-4ba7-a170-23efbdc67501","{""participantId"":""AA328A2B29A14E278ACF8AFDAD6CD03C"",""assignmentId"":""362fa7b8-9c89-4957-bab4-ed738b831216"",""projectId"":""a0a8f18c-a66e-4ba7-a170-23efbdc67501""}","https://test12345.live/?participantId=AA328A2B29A14E278ACF8AFDAD6CD03C&assignmentId=362fa7b8-9c89-4957-bab4-ed738b831216&projectId=a0a8f18c-a66e-4ba7-a170-23efbdc67501","AA328A2B29A14E278ACF8AFDAD6CD03C-2024-11-24-19-25-10","[{""page_index"":0,""viewing_time"":5101},{""page_index"":1,""viewing_time"":1614}]","6715","","","","",""
"","","","","","html-audio-response","22","272922","0.0-8.0","AA328A2B29A14E278ACF8AFDAD6CD03C","AA328A2B29A14E278ACF8AFDAD6CD03C","362fa7b8-9c89-4957-bab4-ed738b831216","a0a8f18c-a66e-4ba7-a170-23efbdc67501","{""participantId"":""AA328A2B29A14E278ACF8AFDAD6CD03C"",""assignmentId"":""362fa7b8-9c89-4957-bab4-ed738b831216"",""projectId"":""a0a8f18c-a66e-4ba7-a170-23efbdc67501""}","https://test12345.live/?participantId=AA328A2B29A14E278ACF8AFDAD6CD03C&assignmentId=362fa7b8-9c89-4957-bab4-ed738b831216&projectId=a0a8f18c-a66e-4ba7-a170-23efbdc67501","AA328A2B29A14E278ACF8AFDAD6CD03C-2024-11-24-19-25-10","","3117","","[""<span style=\""color: red; font-size: 24px\""> NOW RECORDING</span><p>Please say out loud all the images you saw, as many as you can remember. The images can be said in any order.</p>""]","","6",""
"","","","","","instructions","23","274554","0.0-9.0","AA328A2B29A14E278ACF8AFDAD6CD03C","AA328A2B29A14E278ACF8AFDAD6CD03C","362fa7b8-9c89-4957-bab4-ed738b831216","a0a8f18c-a66e-4ba7-a170-23efbdc67501","{""participantId"":""AA328A2B29A14E278ACF8AFDAD6CD03C"",""assignmentId"":""362fa7b8-9c89-4957-bab4-ed738b831216"",""projectId"":""a0a8f18c-a66e-4ba7-a170-23efbdc67501""}","https://test12345.live/?participantId=AA328A2B29A14E278ACF8AFDAD6CD03C&assignmentId=362fa7b8-9c89-4957-bab4-ed738b831216&projectId=a0a8f18c-a66e-4ba7-a170-23efbdc67501","AA328A2B29A14E278ACF8AFDAD6CD03C-2024-11-24-19-25-10","[{""page_index"":0,""viewing_time"":1629}]","1630","","","","",""
"","","","","","image-button-response","24","280569","0.0-10.0-0.0","AA328A2B29A14E278ACF8AFDAD6CD03C","AA328A2B29A14E278ACF8AFDAD6CD03C","362fa7b8-9c89-4957-bab4-ed738b831216","a0a8f18c-a66e-4ba7-a170-23efbdc67501","{""participantId"":""AA328A2B29A14E278ACF8AFDAD6CD03C"",""assignmentId"":""362fa7b8-9c89-4957-bab4-ed738b831216"",""projectId"":""a0a8f18c-a66e-4ba7-a170-23efbdc67501""}","https://test12345.live/?participantId=AA328A2B29A14E278ACF8AFDAD6CD03C&assignmentId=362fa7b8-9c89-4957-bab4-ed738b831216&projectId=a0a8f18c-a66e-4ba7-a170-23efbdc67501","AA328A2B29A14E278ACF8AFDAD6CD03C-2024-11-24-19-25-10","","null","","images/causal_sequence/saving_a_cat_causal/saving_a_cat_causal_0.png","null","",""
"","","","","","image-button-response","25","285089","0.0-10.0-1.0-0.0","AA328A2B29A14E278ACF8AFDAD6CD03C","AA328A2B29A14E278ACF8AFDAD6CD03C","362fa7b8-9c89-4957-bab4-ed738b831216","a0a8f18c-a66e-4ba7-a170-23efbdc67501","{""participantId"":""AA328A2B29A14E278ACF8AFDAD6CD03C"",""assignmentId"":""362fa7b8-9c89-4957-bab4-ed738b831216"",""projectId"":""a0a8f18c-a66e-4ba7-a170-23efbdc67501""}","https://test12345.live/?participantId=AA328A2B29A14E278ACF8AFDAD6CD03C&assignmentId=362fa7b8-9c89-4957-bab4-ed738b831216&projectId=a0a8f18c-a66e-4ba7-a170-23efbdc67501","AA328A2B29A14E278ACF8AFDAD6CD03C-2024-11-24-19-25-10","","null","","images/causal_sequence/saving_a_cat_causal/saving_a_cat_causal_7.png","null","",""
"","","","","","image-button-response","26","287499","0.0-10.0-1.0-1.0","AA328A2B29A14E278ACF8AFDAD6CD03C","AA328A2B29A14E278ACF8AFDAD6CD03C","362fa7b8-9c89-4957-bab4-ed738b831216","a0a8f18c-a66e-4ba7-a170-23efbdc67501","{""participantId"":""AA328A2B29A14E278ACF8AFDAD6CD03C"",""assignmentId"":""362fa7b8-9c89-4957-bab4-ed738b831216"",""projectId"":""a0a8f18c-a66e-4ba7-a170-23efbdc67501""}","https://test12345.live/?participantId=AA328A2B29A14E278ACF8AFDAD6CD03C&assignmentId=362fa7b8-9c89-4957-bab4-ed738b831216&projectId=a0a8f18c-a66e-4ba7-a170-23efbdc67501","AA328A2B29A14E278ACF8AFDAD6CD03C-2024-11-24-19-25-10","","2407","","images/causal_sequence/saving_a_cat_causal/saving_a_cat_causal_7.png","1","",""
"","","","","","image-button-response","27","289305","0.0-10.0-1.0-2.0","AA328A2B29A14E278ACF8AFDAD6CD03C","AA328A2B29A14E278ACF8AFDAD6CD03C","362fa7b8-9c89-4957-bab4-ed738b831216","a0a8f18c-a66e-4ba7-a170-23efbdc67501","{""participantId"":""AA328A2B29A14E278ACF8AFDAD6CD03C"",""assignmentId"":""362fa7b8-9c89-4957-bab4-ed738b831216"",""projectId"":""a0a8f18c-a66e-4ba7-a170-23efbdc67501""}","https://test12345.live/?participantId=AA328A2B29A14E278ACF8AFDAD6CD03C&assignmentId=362fa7b8-9c89-4957-bab4-ed738b831216&projectId=a0a8f18c-a66e-4ba7-a170-23efbdc67501","AA328A2B29A14E278ACF8AFDAD6CD03C-2024-11-24-19-25-10","","null","","[]","null","",""
"","","","","","image-button-response","28","293809","0.0-10.0-1.0-0.1","AA328A2B29A14E278ACF8AFDAD6CD03C","AA328A2B29A14E278ACF8AFDAD6CD03C","362fa7b8-9c89-4957-bab4-ed738b831216","a0a8f18c-a66e-4ba7-a170-23efbdc67501","{""participantId"":""AA328A2B29A14E278ACF8AFDAD6CD03C"",""assignmentId"":""362fa7b8-9c89-4957-bab4-ed738b831216"",""projectId"":""a0a8f18c-a66e-4ba7-a170-23efbdc67501""}","https://test12345.live/?participantId=AA328A2B29A14E278ACF8AFDAD6CD03C&assignmentId=362fa7b8-9c89-4957-bab4-ed738b831216&projectId=a0a8f18c-a66e-4ba7-a170-23efbdc67501","AA328A2B29A14E278ACF8AFDAD6CD03C-2024-11-24-19-25-10","","null","","images/causal_sequence/saving_a_cat_causal/saving_a_cat_causal_1.png","null","",""
"","","","","","image-button-response","29","294692","0.0-10.0-1.0-1.1","AA328A2B29A14E278ACF8AFDAD6CD03C","AA328A2B29A14E278ACF8AFDAD6CD03C","362fa7b8-9c89-4957-bab4-ed738b831216","a0a8f18c-a66e-4ba7-a170-23efbdc67501","{""participantId"":""AA328A2B29A14E278ACF8AFDAD6CD03C"",""assignmentId"":""362fa7b8-9c89-4957-bab4-ed738b831216"",""projectId"":""a0a8f18c-a66e-4ba7-a170-23efbdc67501""}","https://test12345.live/?participantId=AA328A2B29A14E278ACF8AFDAD6CD03C&assignmentId=362fa7b8-9c89-4957-bab4-ed738b831216&projectId=a0a8f18c-a66e-4ba7-a170-23efbdc67501","AA328A2B29A14E278ACF8AFDAD6CD03C-2024-11-24-19-25-10","","881","","images/causal_sequence/saving_a_cat_causal/saving_a_cat_causal_1.png","0","",""
"","","","","","image-button-response","30","296509","0.0-10.0-1.0-2.1","AA328A2B29A14E278ACF8AFDAD6CD03C","AA328A2B29A14E278ACF8AFDAD6CD03C","362fa7b8-9c89-4957-bab4-ed738b831216","a0a8f18c-a66e-4ba7-a170-23efbdc67501","{""participantId"":""AA328A2B29A14E278ACF8AFDAD6CD03C"",""assignmentId"":""362fa7b8-9c89-4957-bab4-ed738b831216"",""projectId"":""a0a8f18c-a66e-4ba7-a170-23efbdc67501""}","https://test12345.live/?participantId=AA328A2B29A14E278ACF8AFDAD6CD03C&assignmentId=362fa7b8-9c89-4957-bab4-ed738b831216&projectId=a0a8f18c-a66e-4ba7-a170-23efbdc67501","AA328A2B29A14E278ACF8AFDAD6CD03C-2024-11-24-19-25-10","","null","","[]","null","",""
"","","","","","image-button-response","31","301015","0.0-10.0-1.0-0.2","AA328A2B29A14E278ACF8AFDAD6CD03C","AA328A2B29A14E278ACF8AFDAD6CD03C","362fa7b8-9c89-4957-bab4-ed738b831216","a0a8f18c-a66e-4ba7-a170-23efbdc67501","{""participantId"":""AA328A2B29A14E278ACF8AFDAD6CD03C"",""assignmentId"":""362fa7b8-9c89-4957-bab4-ed738b831216"",""projectId"":""a0a8f18c-a66e-4ba7-a170-23efbdc67501""}","https://test12345.live/?participantId=AA328A2B29A14E278ACF8AFDAD6CD03C&assignmentId=362fa7b8-9c89-4957-bab4-ed738b831216&projectId=a0a8f18c-a66e-4ba7-a170-23efbdc67501","AA328A2B29A14E278ACF8AFDAD6CD03C-2024-11-24-19-25-10","","null","","images/causal_sequence/saving_a_cat_causal/saving_a_cat_causal_3.png","null","",""
"","","","","","image-button-response","32","302625","0.0-10.0-1.0-1.2","AA328A2B29A14E278ACF8AFDAD6CD03C","AA328A2B29A14E278ACF8AFDAD6CD03C","362fa7b8-9c89-4957-bab4-ed738b831216","a0a8f18c-a66e-4ba7-a170-23efbdc67501","{""participantId"":""AA328A2B29A14E278ACF8AFDAD6CD03C"",""assignmentId"":""362fa7b8-9c89-4957-bab4-ed738b831216"",""projectId"":""a0a8f18c-a66e-4ba7-a170-23efbdc67501""}","https://test12345.live/?participantId=AA328A2B29A14E278ACF8AFDAD6CD03C&assignmentId=362fa7b8-9c89-4957-bab4-ed738b831216&projectId=a0a8f18c-a66e-4ba7-a170-23efbdc67501","AA328A2B29A14E278ACF8AFDAD6CD03C-2024-11-24-19-25-10","","1608","","images/causal_sequence/saving_a_cat_causal/saving_a_cat_causal_3.png","0","",""
"","","","","","image-button-response","33","304429","0.0-10.0-1.0-2.2","AA328A2B29A14E278ACF8AFDAD6CD03C","AA328A2B29A14E278ACF8AFDAD6CD03C","362fa7b8-9c89-4957-bab4-ed738b831216","a0a8f18c-a66e-4ba7-a170-23efbdc67501","{""participantId"":""AA328A2B29A14E278ACF8AFDAD6CD03C"",""assignmentId"":""362fa7b8-9c89-4957-bab4-ed738b831216"",""projectId"":""a0a8f18c-a66e-4ba7-a170-23efbdc67501""}","https://test12345.live/?participantId=AA328A2B29A14E278ACF8AFDAD6CD03C&assignmentId=362fa7b8-9c89-4957-bab4-ed738b831216&projectId=a0a8f18c-a66e-4ba7-a170-23efbdc67501","AA328A2B29A14E278ACF8AFDAD6CD03C-2024-11-24-19-25-10","","null","","[]","null","",""
"","","","","","image-button-response","34","308949","0.0-10.0-1.0-0.3","AA328A2B29A14E278ACF8AFDAD6CD03C","AA328A2B29A14E278ACF8AFDAD6CD03C","362fa7b8-9c89-4957-bab4-ed738b831216","a0a8f18c-a66e-4ba7-a170-23efbdc67501","{""participantId"":""AA328A2B29A14E278ACF8AFDAD6CD03C"",""assignmentId"":""362fa7b8-9c89-4957-bab4-ed738b831216"",""projectId"":""a0a8f18c-a66e-4ba7-a170-23efbdc67501""}","https://test12345.live/?participantId=AA328A2B29A14E278ACF8AFDAD6CD03C&assignmentId=362fa7b8-9c89-4957-bab4-ed738b831216&projectId=a0a8f18c-a66e-4ba7-a170-23efbdc67501","AA328A2B29A14E278ACF8AFDAD6CD03C-2024-11-24-19-25-10","","null","","images/causal_sequence/saving_a_cat_causal/saving_a_cat_causal_8.png","null","",""
"","","","","","image-button-response","35","310284","0.0-10.0-1.0-1.3","AA328A2B29A14E278ACF8AFDAD6CD03C","AA328A2B29A14E278ACF8AFDAD6CD03C","362fa7b8-9c89-4957-bab4-ed738b831216","a0a8f18c-a66e-4ba7-a170-23efbdc67501","{""participantId"":""AA328A2B29A14E278ACF8AFDAD6CD03C"",""assignmentId"":""362fa7b8-9c89-4957-bab4-ed738b831216"",""projectId"":""a0a8f18c-a66e-4ba7-a170-23efbdc67501""}","https://test12345.live/?participantId=AA328A2B29A14E278ACF8AFDAD6CD03C&assignmentId=362fa7b8-9c89-4957-bab4-ed738b831216&projectId=a0a8f18c-a66e-4ba7-a170-23efbdc67501","AA328A2B29A14E278ACF8AFDAD6CD03C-2024-11-24-19-25-10","","1333","","images/causal_sequence/saving_a_cat_causal/saving_a_cat_causal_8.png","0","",""
"","","","","","image-button-response","36","312089","0.0-10.0-1.0-2.3","AA328A2B29A14E278ACF8AFDAD6CD03C","AA328A2B29A14E278ACF8AFDAD6CD03C","362fa7b8-9c89-4957-bab4-ed738b831216","a0a8f18c-a66e-4ba7-a170-23efbdc67501","{""participantId"":""AA328A2B29A14E278ACF8AFDAD6CD03C"",""assignmentId"":""362fa7b8-9c89-4957-bab4-ed738b831216"",""projectId"":""a0a8f18c-a66e-4ba7-a170-23efbdc67501""}","https://test12345.live/?participantId=AA328A2B29A14E278ACF8AFDAD6CD03C&assignmentId=362fa7b8-9c89-4957-bab4-ed738b831216&projectId=a0a8f18c-a66e-4ba7-a170-23efbdc67501","AA328A2B29A14E278ACF8AFDAD6CD03C-2024-11-24-19-25-10","","null","","[]","null","",""
"","","","","","image-button-response","37","316609","0.0-10.0-1.0-0.4","AA328A2B29A14E278ACF8AFDAD6CD03C","AA328A2B29A14E278ACF8AFDAD6CD03C","362fa7b8-9c89-4957-bab4-ed738b831216","a0a8f18c-a66e-4ba7-a170-23efbdc67501","{""participantId"":""AA328A2B29A14E278ACF8AFDAD6CD03C"",""assignmentId"":""362fa7b8-9c89-4957-bab4-ed738b831216"",""projectId"":""a0a8f18c-a66e-4ba7-a170-23efbdc67501""}","https://test12345.live/?participantId=AA328A2B29A14E278ACF8AFDAD6CD03C&assignmentId=362fa7b8-9c89-4957-bab4-ed738b831216&projectId=a0a8f18c-a66e-4ba7-a170-23efbdc67501","AA328A2B29A14E278ACF8AFDAD6CD03C-2024-11-24-19-25-10","","null","","images/causal_sequence/saving_a_cat_causal/saving_a_cat_causal_5.png","null","",""
"","","","","","image-button-response","38","317631","0.0-10.0-1.0-1.4","AA328A2B29A14E278ACF8AFDAD6CD03C","AA328A2B29A14E278ACF8AFDAD6CD03C","362fa7b8-9c89-4957-bab4-ed738b831216","a0a8f18c-a66e-4ba7-a170-23efbdc67501","{""participantId"":""AA328A2B29A14E278ACF8AFDAD6CD03C"",""assignmentId"":""362fa7b8-9c89-4957-bab4-ed738b831216"",""projectId"":""a0a8f18c-a66e-4ba7-a170-23efbdc67501""}","https://test12345.live/?participantId=AA328A2B29A14E278ACF8AFDAD6CD03C&assignmentId=362fa7b8-9c89-4957-bab4-ed738b831216&projectId=a0a8f18c-a66e-4ba7-a170-23efbdc67501","AA328A2B29A14E278ACF8AFDAD6CD03C-2024-11-24-19-25-10","","1020","","images/causal_sequence/saving_a_cat_causal/saving_a_cat_causal_5.png","0","",""
"","","","","","image-button-response","39","319439","0.0-10.0-1.0-2.4","AA328A2B29A14E278ACF8AFDAD6CD03C","AA328A2B29A14E278ACF8AFDAD6CD03C","362fa7b8-9c89-4957-bab4-ed738b831216","a0a8f18c-a66e-4ba7-a170-23efbdc67501","{""participantId"":""AA328A2B29A14E278ACF8AFDAD6CD03C"",""assignmentId"":""362fa7b8-9c89-4957-bab4-ed738b831216"",""projectId"":""a0a8f18c-a66e-4ba7-a170-23efbdc67501""}","https://test12345.live/?participantId=AA328A2B29A14E278ACF8AFDAD6CD03C&assignmentId=362fa7b8-9c89-4957-bab4-ed738b831216&projectId=a0a8f18c-a66e-4ba7-a170-23efbdc67501","AA328A2B29A14E278ACF8AFDAD6CD03C-2024-11-24-19-25-10","","null","","[]","null","",""
"","","","","","image-button-response","40","323959","0.0-10.0-1.0-0.5","AA328A2B29A14E278ACF8AFDAD6CD03C","AA328A2B29A14E278ACF8AFDAD6CD03C","362fa7b8-9c89-4957-bab4-ed738b831216","a0a8f18c-a66e-4ba7-a170-23efbdc67501","{""participantId"":""AA328A2B29A14E278ACF8AFDAD6CD03C"",""assignmentId"":""362fa7b8-9c89-4957-bab4-ed738b831216"",""projectId"":""a0a8f18c-a66e-4ba7-a170-23efbdc67501""}","https://test12345.live/?participantId=AA328A2B29A14E278ACF8AFDAD6CD03C&assignmentId=362fa7b8-9c89-4957-bab4-ed738b831216&projectId=a0a8f18c-a66e-4ba7-a170-23efbdc67501","AA328A2B29A14E278ACF8AFDAD6CD03C-2024-11-24-19-25-10","","null","","images/causal_sequence/saving_a_cat_causal/saving_a_cat_causal_2.png","null","",""
"","","","","","image-button-response","41","325040","0.0-10.0-1.0-1.5","AA328A2B29A14E278ACF8AFDAD6CD03C","AA328A2B29A14E278ACF8AFDAD6CD03C","362fa7b8-9c89-4957-bab4-ed738b831216","a0a8f18c-a66e-4ba7-a170-23efbdc67501","{""participantId"":""AA328A2B29A14E278ACF8AFDAD6CD03C"",""assignmentId"":""362fa7b8-9c89-4957-bab4-ed738b831216"",""projectId"":""a0a8f18c-a66e-4ba7-a170-23efbdc67501""}","https://test12345.live/?participantId=AA328A2B29A14E278ACF8AFDAD6CD03C&assignmentId=362fa7b8-9c89-4957-bab4-ed738b831216&projectId=a0a8f18c-a66e-4ba7-a170-23efbdc67501","AA328A2B29A14E278ACF8AFDAD6CD03C-2024-11-24-19-25-10","","1079","","images/causal_sequence/saving_a_cat_causal/saving_a_cat_causal_2.png","0","",""
"","","","","","image-button-response","42","326849","0.0-10.0-1.0-2.5","AA328A2B29A14E278ACF8AFDAD6CD03C","AA328A2B29A14E278ACF8AFDAD6CD03C","362fa7b8-9c89-4957-bab4-ed738b831216","a0a8f18c-a66e-4ba7-a170-23efbdc67501","{""participantId"":""AA328A2B29A14E278ACF8AFDAD6CD03C"",""assignmentId"":""362fa7b8-9c89-4957-bab4-ed738b831216"",""projectId"":""a0a8f18c-a66e-4ba7-a170-23efbdc67501""}","https://test12345.live/?participantId=AA328A2B29A14E278ACF8AFDAD6CD03C&assignmentId=362fa7b8-9c89-4957-bab4-ed738b831216&projectId=a0a8f18c-a66e-4ba7-a170-23efbdc67501","AA328A2B29A14E278ACF8AFDAD6CD03C-2024-11-24-19-25-10","","null","","[]","null","",""
"","","","","","image-button-response","43","331369","0.0-10.0-1.0-0.6","AA328A2B29A14E278ACF8AFDAD6CD03C","AA328A2B29A14E278ACF8AFDAD6CD03C","362fa7b8-9c89-4957-bab4-ed738b831216","a0a8f18c-a66e-4ba7-a170-23efbdc67501","{""participantId"":""AA328A2B29A14E278ACF8AFDAD6CD03C"",""assignmentId"":""362fa7b8-9c89-4957-bab4-ed738b831216"",""projectId"":""a0a8f18c-a66e-4ba7-a170-23efbdc67501""}","https://test12345.live/?participantId=AA328A2B29A14E278ACF8AFDAD6CD03C&assignmentId=362fa7b8-9c89-4957-bab4-ed738b831216&projectId=a0a8f18c-a66e-4ba7-a170-23efbdc67501","AA328A2B29A14E278ACF8AFDAD6CD03C-2024-11-24-19-25-10","","null","","images/causal_sequence/saving_a_cat_causal/saving_a_cat_causal_ten.png","null","",""
"","","","","","image-button-response","44","332792","0.0-10.0-1.0-1.6","AA328A2B29A14E278ACF8AFDAD6CD03C","AA328A2B29A14E278ACF8AFDAD6CD03C","362fa7b8-9c89-4957-bab4-ed738b831216","a0a8f18c-a66e-4ba7-a170-23efbdc67501","{""participantId"":""AA328A2B29A14E278ACF8AFDAD6CD03C"",""assignmentId"":""362fa7b8-9c89-4957-bab4-ed738b831216"",""projectId"":""a0a8f18c-a66e-4ba7-a170-23efbdc67501""}","https://test12345.live/?participantId=AA328A2B29A14E278ACF8AFDAD6CD03C&assignmentId=362fa7b8-9c89-4957-bab4-ed738b831216&projectId=a0a8f18c-a66e-4ba7-a170-23efbdc67501","AA328A2B29A14E278ACF8AFDAD6CD03C-2024-11-24-19-25-10","","1421","","images/causal_sequence/saving_a_cat_causal/saving_a_cat_causal_ten.png","0","",""
"","","","","","image-button-response","45","334609","0.0-10.0-1.0-2.6","AA328A2B29A14E278ACF8AFDAD6CD03C","AA328A2B29A14E278ACF8AFDAD6CD03C","362fa7b8-9c89-4957-bab4-ed738b831216","a0a8f18c-a66e-4ba7-a170-23efbdc67501","{""participantId"":""AA328A2B29A14E278ACF8AFDAD6CD03C"",""assignmentId"":""362fa7b8-9c89-4957-bab4-ed738b831216"",""projectId"":""a0a8f18c-a66e-4ba7-a170-23efbdc67501""}","https://test12345.live/?participantId=AA328A2B29A14E278ACF8AFDAD6CD03C&assignmentId=362fa7b8-9c89-4957-bab4-ed738b831216&projectId=a0a8f18c-a66e-4ba7-a170-23efbdc67501","AA328A2B29A14E278ACF8AFDAD6CD03C-2024-11-24-19-25-10","","null","","[]","null","",""
"","","","","","image-button-response","46","339129","0.0-10.0-1.0-0.7","AA328A2B29A14E278ACF8AFDAD6CD03C","AA328A2B29A14E278ACF8AFDAD6CD03C","362fa7b8-9c89-4957-bab4-ed738b831216","a0a8f18c-a66e-4ba7-a170-23efbdc67501","{""participantId"":""AA328A2B29A14E278ACF8AFDAD6CD03C"",""assignmentId"":""362fa7b8-9c89-4957-bab4-ed738b831216"",""projectId"":""a0a8f18c-a66e-4ba7-a170-23efbdc67501""}","https://test12345.live/?participantId=AA328A2B29A14E278ACF8AFDAD6CD03C&assignmentId=362fa7b8-9c89-4957-bab4-ed738b831216&projectId=a0a8f18c-a66e-4ba7-a170-23efbdc67501","AA328A2B29A14E278ACF8AFDAD6CD03C-2024-11-24-19-25-10","","null","","images/causal_sequence/saving_a_cat_causal/saving_a_cat_causal_6.png","null","",""
"","","","","","image-button-response","47","340224","0.0-10.0-1.0-1.7","AA328A2B29A14E278ACF8AFDAD6CD03C","AA328A2B29A14E278ACF8AFDAD6CD03C","362fa7b8-9c89-4957-bab4-ed738b831216","a0a8f18c-a66e-4ba7-a170-23efbdc67501","{""participantId"":""AA328A2B29A14E278ACF8AFDAD6CD03C"",""assignmentId"":""362fa7b8-9c89-4957-bab4-ed738b831216"",""projectId"":""a0a8f18c-a66e-4ba7-a170-23efbdc67501""}","https://test12345.live/?participantId=AA328A2B29A14E278ACF8AFDAD6CD03C&assignmentId=362fa7b8-9c89-4957-bab4-ed738b831216&projectId=a0a8f18c-a66e-4ba7-a170-23efbdc67501","AA328A2B29A14E278ACF8AFDAD6CD03C-2024-11-24-19-25-10","","1092","","images/causal_sequence/saving_a_cat_causal/saving_a_cat_causal_6.png","0","",""
"","","","","","image-button-response","48","342039","0.0-10.0-1.0-2.7","AA328A2B29A14E278ACF8AFDAD6CD03C","AA328A2B29A14E278ACF8AFDAD6CD03C","362fa7b8-9c89-4957-bab4-ed738b831216","a0a8f18c-a66e-4ba7-a170-23efbdc67501","{""participantId"":""AA328A2B29A14E278ACF8AFDAD6CD03C"",""assignmentId"":""362fa7b8-9c89-4957-bab4-ed738b831216"",""projectId"":""a0a8f18c-a66e-4ba7-a170-23efbdc67501""}","https://test12345.live/?participantId=AA328A2B29A14E278ACF8AFDAD6CD03C&assignmentId=362fa7b8-9c89-4957-bab4-ed738b831216&projectId=a0a8f18c-a66e-4ba7-a170-23efbdc67501","AA328A2B29A14E278ACF8AFDAD6CD03C-2024-11-24-19-25-10","","null","","[]","null","",""
"","","","","","image-button-response","49","346549","0.0-10.0-1.0-0.8","AA328A2B29A14E278ACF8AFDAD6CD03C","AA328A2B29A14E278ACF8AFDAD6CD03C","362fa7b8-9c89-4957-bab4-ed738b831216","a0a8f18c-a66e-4ba7-a170-23efbdc67501","{""participantId"":""AA328A2B29A14E278ACF8AFDAD6CD03C"",""assignmentId"":""362fa7b8-9c89-4957-bab4-ed738b831216"",""projectId"":""a0a8f18c-a66e-4ba7-a170-23efbdc67501""}","https://test12345.live/?participantId=AA328A2B29A14E278ACF8AFDAD6CD03C&assignmentId=362fa7b8-9c89-4957-bab4-ed738b831216&projectId=a0a8f18c-a66e-4ba7-a170-23efbdc67501","AA328A2B29A14E278ACF8AFDAD6CD03C-2024-11-24-19-25-10","","null","","images/causal_sequence/saving_a_cat_causal/saving_a_cat_causal_9.png","null","",""
"","","","","","image-button-response","50","347691","0.0-10.0-1.0-1.8","AA328A2B29A14E278ACF8AFDAD6CD03C","AA328A2B29A14E278ACF8AFDAD6CD03C","362fa7b8-9c89-4957-bab4-ed738b831216","a0a8f18c-a66e-4ba7-a170-23efbdc67501","{""participantId"":""AA328A2B29A14E278ACF8AFDAD6CD03C"",""assignmentId"":""362fa7b8-9c89-4957-bab4-ed738b831216"",""projectId"":""a0a8f18c-a66e-4ba7-a170-23efbdc67501""}","https://test12345.live/?participantId=AA328A2B29A14E278ACF8AFDAD6CD03C&assignmentId=362fa7b8-9c89-4957-bab4-ed738b831216&projectId=a0a8f18c-a66e-4ba7-a170-23efbdc67501","AA328A2B29A14E278ACF8AFDAD6CD03C-2024-11-24-19-25-10","","1140","","images/causal_sequence/saving_a_cat_causal/saving_a_cat_causal_9.png","0","",""
"","","","","","image-button-response","51","349509","0.0-10.0-1.0-2.8","AA328A2B29A14E278ACF8AFDAD6CD03C","AA328A2B29A14E278ACF8AFDAD6CD03C","362fa7b8-9c89-4957-bab4-ed738b831216","a0a8f18c-a66e-4ba7-a170-23efbdc67501","{""participantId"":""AA328A2B29A14E278ACF8AFDAD6CD03C"",""assignmentId"":""362fa7b8-9c89-4957-bab4-ed738b831216"",""projectId"":""a0a8f18c-a66e-4ba7-a170-23efbdc67501""}","https://test12345.live/?participantId=AA328A2B29A14E278ACF8AFDAD6CD03C&assignmentId=362fa7b8-9c89-4957-bab4-ed738b831216&projectId=a0a8f18c-a66e-4ba7-a170-23efbdc67501","AA328A2B29A14E278ACF8AFDAD6CD03C-2024-11-24-19-25-10","","null","","[]","null","",""
"","","","","","image-button-response","52","354019","0.0-10.0-1.0-0.9","AA328A2B29A14E278ACF8AFDAD6CD03C","AA328A2B29A14E278ACF8AFDAD6CD03C","362fa7b8-9c89-4957-bab4-ed738b831216","a0a8f18c-a66e-4ba7-a170-23efbdc67501","{""participantId"":""AA328A2B29A14E278ACF8AFDAD6CD03C"",""assignmentId"":""362fa7b8-9c89-4957-bab4-ed738b831216"",""projectId"":""a0a8f18c-a66e-4ba7-a170-23efbdc67501""}","https://test12345.live/?participantId=AA328A2B29A14E278ACF8AFDAD6CD03C&assignmentId=362fa7b8-9c89-4957-bab4-ed738b831216&projectId=a0a8f18c-a66e-4ba7-a170-23efbdc67501","AA328A2B29A14E278ACF8AFDAD6CD03C-2024-11-24-19-25-10","","null","","images/causal_sequence/saving_a_cat_causal/saving_a_cat_causal_4.png","null","",""
"","","","","","image-button-response","53","357868","0.0-10.0-1.0-1.9","AA328A2B29A14E278ACF8AFDAD6CD03C","AA328A2B29A14E278ACF8AFDAD6CD03C","362fa7b8-9c89-4957-bab4-ed738b831216","a0a8f18c-a66e-4ba7-a170-23efbdc67501","{""participantId"":""AA328A2B29A14E278ACF8AFDAD6CD03C"",""assignmentId"":""362fa7b8-9c89-4957-bab4-ed738b831216"",""projectId"":""a0a8f18c-a66e-4ba7-a170-23efbdc67501""}","https://test12345.live/?participantId=AA328A2B29A14E278ACF8AFDAD6CD03C&assignmentId=362fa7b8-9c89-4957-bab4-ed738b831216&projectId=a0a8f18c-a66e-4ba7-a170-23efbdc67501","AA328A2B29A14E278ACF8AFDAD6CD03C-2024-11-24-19-25-10","","3847","","images/causal_sequence/saving_a_cat_causal/saving_a_cat_causal_4.png","0","",""
"","","","","","image-button-response","54","359669","0.0-10.0-1.0-2.9","AA328A2B29A14E278ACF8AFDAD6CD03C","AA328A2B29A14E278ACF8AFDAD6CD03C","362fa7b8-9c89-4957-bab4-ed738b831216","a0a8f18c-a66e-4ba7-a170-23efbdc67501","{""participantId"":""AA328A2B29A14E278ACF8AFDAD6CD03C"",""assignmentId"":""362fa7b8-9c89-4957-bab4-ed738b831216"",""projectId"":""a0a8f18c-a66e-4ba7-a170-23efbdc67501""}","https://test12345.live/?participantId=AA328A2B29A14E278ACF8AFDAD6CD03C&assignmentId=362fa7b8-9c89-4957-bab4-ed738b831216&projectId=a0a8f18c-a66e-4ba7-a170-23efbdc67501","AA328A2B29A14E278ACF8AFDAD6CD03C-2024-11-24-19-25-10","","null","","[]","null","",""
"","","","","","html-audio-response","55","373500","0.0-11.0","AA328A2B29A14E278ACF8AFDAD6CD03C","AA328A2B29A14E278ACF8AFDAD6CD03C","362fa7b8-9c89-4957-bab4-ed738b831216","a0a8f18c-a66e-4ba7-a170-23efbdc67501","{""participantId"":""AA328A2B29A14E278ACF8AFDAD6CD03C"",""assignmentId"":""362fa7b8-9c89-4957-bab4-ed738b831216"",""projectId"":""a0a8f18c-a66e-4ba7-a170-23efbdc67501""}","https://test12345.live/?participantId=AA328A2B29A14E278ACF8AFDAD6CD03C&assignmentId=362fa7b8-9c89-4957-bab4-ed738b831216&projectId=a0a8f18c-a66e-4ba7-a170-23efbdc67501","AA328A2B29A14E278ACF8AFDAD6CD03C-2024-11-24-19-25-10","","3150","","[""<span style=\""color: red; font-size: 24px\""> NOW RECORDING</span><p>Please say out loud all the images you saw, as many as you can remember. The images can be said in any order.</p>""]","","2","saving_a_cat_causal"
"","","","","","image-button-response","56","379519","0.0-12.0-0.0","AA328A2B29A14E278ACF8AFDAD6CD03C","AA328A2B29A14E278ACF8AFDAD6CD03C","362fa7b8-9c89-4957-bab4-ed738b831216","a0a8f18c-a66e-4ba7-a170-23efbdc67501","{""participantId"":""AA328A2B29A14E278ACF8AFDAD6CD03C"",""assignmentId"":""362fa7b8-9c89-4957-bab4-ed738b831216"",""projectId"":""a0a8f18c-a66e-4ba7-a170-23efbdc67501""}","https://test12345.live/?participantId=AA328A2B29A14E278ACF8AFDAD6CD03C&assignmentId=362fa7b8-9c89-4957-bab4-ed738b831216&projectId=a0a8f18c-a66e-4ba7-a170-23efbdc67501","AA328A2B29A14E278ACF8AFDAD6CD03C-2024-11-24-19-25-10","","null","","images/semantic_sequence/physical_activity_semantic/physical_activity_semantic_0.png","null","",""
"","","","","","image-button-response","57","384039","0.0-12.0-1.0-0.0","AA328A2B29A14E278ACF8AFDAD6CD03C","AA328A2B29A14E278ACF8AFDAD6CD03C","362fa7b8-9c89-4957-bab4-ed738b831216","a0a8f18c-a66e-4ba7-a170-23efbdc67501","{""participantId"":""AA328A2B29A14E278ACF8AFDAD6CD03C"",""assignmentId"":""362fa7b8-9c89-4957-bab4-ed738b831216"",""projectId"":""a0a8f18c-a66e-4ba7-a170-23efbdc67501""}","https://test12345.live/?participantId=AA328A2B29A14E278ACF8AFDAD6CD03C&assignmentId=362fa7b8-9c89-4957-bab4-ed738b831216&projectId=a0a8f18c-a66e-4ba7-a170-23efbdc67501","AA328A2B29A14E278ACF8AFDAD6CD03C-2024-11-24-19-25-10","","null","","images/semantic_sequence/physical_activity_semantic/physical_activity_semantic_1.png","null","",""
"","","","","","image-button-response","58","386107","0.0-12.0-1.0-1.0","AA328A2B29A14E278ACF8AFDAD6CD03C","AA328A2B29A14E278ACF8AFDAD6CD03C","362fa7b8-9c89-4957-bab4-ed738b831216","a0a8f18c-a66e-4ba7-a170-23efbdc67501","{""participantId"":""AA328A2B29A14E278ACF8AFDAD6CD03C"",""assignmentId"":""362fa7b8-9c89-4957-bab4-ed738b831216"",""projectId"":""a0a8f18c-a66e-4ba7-a170-23efbdc67501""}","https://test12345.live/?participantId=AA328A2B29A14E278ACF8AFDAD6CD03C&assignmentId=362fa7b8-9c89-4957-bab4-ed738b831216&projectId=a0a8f18c-a66e-4ba7-a170-23efbdc67501","AA328A2B29A14E278ACF8AFDAD6CD03C-2024-11-24-19-25-10","","2065","","images/semantic_sequence/physical_activity_semantic/physical_activity_semantic_1.png","0","",""
"","","","","","image-button-response","59","387909","0.0-12.0-1.0-2.0","AA328A2B29A14E278ACF8AFDAD6CD03C","AA328A2B29A14E278ACF8AFDAD6CD03C","362fa7b8-9c89-4957-bab4-ed738b831216","a0a8f18c-a66e-4ba7-a170-23efbdc67501","{""participantId"":""AA328A2B29A14E278ACF8AFDAD6CD03C"",""assignmentId"":""362fa7b8-9c89-4957-bab4-ed738b831216"",""projectId"":""a0a8f18c-a66e-4ba7-a170-23efbdc67501""}","https://test12345.live/?participantId=AA328A2B29A14E278ACF8AFDAD6CD03C&assignmentId=362fa7b8-9c89-4957-bab4-ed738b831216&projectId=a0a8f18c-a66e-4ba7-a170-23efbdc67501","AA328A2B29A14E278ACF8AFDAD6CD03C-2024-11-24-19-25-10","","null","","[]","null","",""
"","","","","","image-button-response","60","392428","0.0-12.0-1.0-0.1","AA328A2B29A14E278ACF8AFDAD6CD03C","AA328A2B29A14E278ACF8AFDAD6CD03C","362fa7b8-9c89-4957-bab4-ed738b831216","a0a8f18c-a66e-4ba7-a170-23efbdc67501","{""participantId"":""AA328A2B29A14E278ACF8AFDAD6CD03C"",""assignmentId"":""362fa7b8-9c89-4957-bab4-ed738b831216"",""projectId"":""a0a8f18c-a66e-4ba7-a170-23efbdc67501""}","https://test12345.live/?participantId=AA328A2B29A14E278ACF8AFDAD6CD03C&assignmentId=362fa7b8-9c89-4957-bab4-ed738b831216&projectId=a0a8f18c-a66e-4ba7-a170-23efbdc67501","AA328A2B29A14E278ACF8AFDAD6CD03C-2024-11-24-19-25-10","","null","","images/semantic_sequence/physical_activity_semantic/physical_activity_semantic_2.png","null","",""
"","","","","","image-button-response","61","394173","0.0-12.0-1.0-1.1","AA328A2B29A14E278ACF8AFDAD6CD03C","AA328A2B29A14E278ACF8AFDAD6CD03C","362fa7b8-9c89-4957-bab4-ed738b831216","a0a8f18c-a66e-4ba7-a170-23efbdc67501","{""participantId"":""AA328A2B29A14E278ACF8AFDAD6CD03C"",""assignmentId"":""362fa7b8-9c89-4957-bab4-ed738b831216"",""projectId"":""a0a8f18c-a66e-4ba7-a170-23efbdc67501""}","https://test12345.live/?participantId=AA328A2B29A14E278ACF8AFDAD6CD03C&assignmentId=362fa7b8-9c89-4957-bab4-ed738b831216&projectId=a0a8f18c-a66e-4ba7-a170-23efbdc67501","AA328A2B29A14E278ACF8AFDAD6CD03C-2024-11-24-19-25-10","","1742","","images/semantic_sequence/physical_activity_semantic/physical_activity_semantic_2.png","0","",""
"","","","","","image-button-response","62","395978","0.0-12.0-1.0-2.1","AA328A2B29A14E278ACF8AFDAD6CD03C","AA328A2B29A14E278ACF8AFDAD6CD03C","362fa7b8-9c89-4957-bab4-ed738b831216","a0a8f18c-a66e-4ba7-a170-23efbdc67501","{""participantId"":""AA328A2B29A14E278ACF8AFDAD6CD03C"",""assignmentId"":""362fa7b8-9c89-4957-bab4-ed738b831216"",""projectId"":""a0a8f18c-a66e-4ba7-a170-23efbdc67501""}","https://test12345.live/?participantId=AA328A2B29A14E278ACF8AFDAD6CD03C&assignmentId=362fa7b8-9c89-4957-bab4-ed738b831216&projectId=a0a8f18c-a66e-4ba7-a170-23efbdc67501","AA328A2B29A14E278ACF8AFDAD6CD03C-2024-11-24-19-25-10","","null","","[]","null","",""
"","","","","","image-button-response","63","400493","0.0-12.0-1.0-0.2","AA328A2B29A14E278ACF8AFDAD6CD03C","AA328A2B29A14E278ACF8AFDAD6CD03C","362fa7b8-9c89-4957-bab4-ed738b831216","a0a8f18c-a66e-4ba7-a170-23efbdc67501","{""participantId"":""AA328A2B29A14E278ACF8AFDAD6CD03C"",""assignmentId"":""362fa7b8-9c89-4957-bab4-ed738b831216"",""projectId"":""a0a8f18c-a66e-4ba7-a170-23efbdc67501""}","https://test12345.live/?participantId=AA328A2B29A14E278ACF8AFDAD6CD03C&assignmentId=362fa7b8-9c89-4957-bab4-ed738b831216&projectId=a0a8f18c-a66e-4ba7-a170-23efbdc67501","AA328A2B29A14E278ACF8AFDAD6CD03C-2024-11-24-19-25-10","","null","","images/semantic_sequence/physical_activity_semantic/physical_activity_semantic_3.png","null","",""
"","","","","","image-button-response","64","401913","0.0-12.0-1.0-1.2","AA328A2B29A14E278ACF8AFDAD6CD03C","AA328A2B29A14E278ACF8AFDAD6CD03C","362fa7b8-9c89-4957-bab4-ed738b831216","a0a8f18c-a66e-4ba7-a170-23efbdc67501","{""participantId"":""AA328A2B29A14E278ACF8AFDAD6CD03C"",""assignmentId"":""362fa7b8-9c89-4957-bab4-ed738b831216"",""projectId"":""a0a8f18c-a66e-4ba7-a170-23efbdc67501""}","https://test12345.live/?participantId=AA328A2B29A14E278ACF8AFDAD6CD03C&assignmentId=362fa7b8-9c89-4957-bab4-ed738b831216&projectId=a0a8f18c-a66e-4ba7-a170-23efbdc67501","AA328A2B29A14E278ACF8AFDAD6CD03C-2024-11-24-19-25-10","","1418","","images/semantic_sequence/physical_activity_semantic/physical_activity_semantic_3.png","0","",""
"","","","","","image-button-response","65","403719","0.0-12.0-1.0-2.2","AA328A2B29A14E278ACF8AFDAD6CD03C","AA328A2B29A14E278ACF8AFDAD6CD03C","362fa7b8-9c89-4957-bab4-ed738b831216","a0a8f18c-a66e-4ba7-a170-23efbdc67501","{""participantId"":""AA328A2B29A14E278ACF8AFDAD6CD03C"",""assignmentId"":""362fa7b8-9c89-4957-bab4-ed738b831216"",""projectId"":""a0a8f18c-a66e-4ba7-a170-23efbdc67501""}","https://test12345.live/?participantId=AA328A2B29A14E278ACF8AFDAD6CD03C&assignmentId=362fa7b8-9c89-4957-bab4-ed738b831216&projectId=a0a8f18c-a66e-4ba7-a170-23efbdc67501","AA328A2B29A14E278ACF8AFDAD6CD03C-2024-11-24-19-25-10","","null","","[]","null","",""
"","","","","","image-button-response","66","408223","0.0-12.0-1.0-0.3","AA328A2B29A14E278ACF8AFDAD6CD03C","AA328A2B29A14E278ACF8AFDAD6CD03C","362fa7b8-9c89-4957-bab4-ed738b831216","a0a8f18c-a66e-4ba7-a170-23efbdc67501","{""participantId"":""AA328A2B29A14E278ACF8AFDAD6CD03C"",""assignmentId"":""362fa7b8-9c89-4957-bab4-ed738b831216"",""projectId"":""a0a8f18c-a66e-4ba7-a170-23efbdc67501""}","https://test12345.live/?participantId=AA328A2B29A14E278ACF8AFDAD6CD03C&assignmentId=362fa7b8-9c89-4957-bab4-ed738b831216&projectId=a0a8f18c-a66e-4ba7-a170-23efbdc67501","AA328A2B29A14E278ACF8AFDAD6CD03C-2024-11-24-19-25-10","","null","","images/semantic_sequence/physical_activity_semantic/physical_activity_semantic_4.png","null","",""
"","","","","","image-button-response","67","412255","0.0-12.0-1.0-1.3","AA328A2B29A14E278ACF8AFDAD6CD03C","AA328A2B29A14E278ACF8AFDAD6CD03C","362fa7b8-9c89-4957-bab4-ed738b831216","a0a8f18c-a66e-4ba7-a170-23efbdc67501","{""participantId"":""AA328A2B29A14E278ACF8AFDAD6CD03C"",""assignmentId"":""362fa7b8-9c89-4957-bab4-ed738b831216"",""projectId"":""a0a8f18c-a66e-4ba7-a170-23efbdc67501""}","https://test12345.live/?participantId=AA328A2B29A14E278ACF8AFDAD6CD03C&assignmentId=362fa7b8-9c89-4957-bab4-ed738b831216&projectId=a0a8f18c-a66e-4ba7-a170-23efbdc67501","AA328A2B29A14E278ACF8AFDAD6CD03C-2024-11-24-19-25-10","","null","","images/semantic_sequence/physical_activity_semantic/physical_activity_semantic_4.png","null","",""
"","","","","","image-button-response","68","414069","0.0-12.0-1.0-2.3","AA328A2B29A14E278ACF8AFDAD6CD03C","AA328A2B29A14E278ACF8AFDAD6CD03C","362fa7b8-9c89-4957-bab4-ed738b831216","a0a8f18c-a66e-4ba7-a170-23efbdc67501","{""participantId"":""AA328A2B29A14E278ACF8AFDAD6CD03C"",""assignmentId"":""362fa7b8-9c89-4957-bab4-ed738b831216"",""projectId"":""a0a8f18c-a66e-4ba7-a170-23efbdc67501""}","https://test12345.live/?participantId=AA328A2B29A14E278ACF8AFDAD6CD03C&assignmentId=362fa7b8-9c89-4957-bab4-ed738b831216&projectId=a0a8f18c-a66e-4ba7-a170-23efbdc67501","AA328A2B29A14E278ACF8AFDAD6CD03C-2024-11-24-19-25-10","","null","","[]","null","",""
"","","","","","image-button-response","69","418579","0.0-12.0-1.0-0.4","AA328A2B29A14E278ACF8AFDAD6CD03C","AA328A2B29A14E278ACF8AFDAD6CD03C","362fa7b8-9c89-4957-bab4-ed738b831216","a0a8f18c-a66e-4ba7-a170-23efbdc67501","{""participantId"":""AA328A2B29A14E278ACF8AFDAD6CD03C"",""assignmentId"":""362fa7b8-9c89-4957-bab4-ed738b831216"",""projectId"":""a0a8f18c-a66e-4ba7-a170-23efbdc67501""}","https://test12345.live/?participantId=AA328A2B29A14E278ACF8AFDAD6CD03C&assignmentId=362fa7b8-9c89-4957-bab4-ed738b831216&projectId=a0a8f18c-a66e-4ba7-a170-23efbdc67501","AA328A2B29A14E278ACF8AFDAD6CD03C-2024-11-24-19-25-10","","null","","images/semantic_sequence/physical_activity_semantic/physical_activity_semantic_5.png","null","",""
"","","","","","image-button-response","70","422589","0.0-12.0-1.0-1.4","AA328A2B29A14E278ACF8AFDAD6CD03C","AA328A2B29A14E278ACF8AFDAD6CD03C","362fa7b8-9c89-4957-bab4-ed738b831216","a0a8f18c-a66e-4ba7-a170-23efbdc67501","{""participantId"":""AA328A2B29A14E278ACF8AFDAD6CD03C"",""assignmentId"":""362fa7b8-9c89-4957-bab4-ed738b831216"",""projectId"":""a0a8f18c-a66e-4ba7-a170-23efbdc67501""}","https://test12345.live/?participantId=AA328A2B29A14E278ACF8AFDAD6CD03C&assignmentId=362fa7b8-9c89-4957-bab4-ed738b831216&projectId=a0a8f18c-a66e-4ba7-a170-23efbdc67501","AA328A2B29A14E278ACF8AFDAD6CD03C-2024-11-24-19-25-10","","null","","images/semantic_sequence/physical_activity_semantic/physical_activity_semantic_5.png","null","",""
"","","","","","image-button-response","71","424409","0.0-12.0-1.0-2.4","AA328A2B29A14E278ACF8AFDAD6CD03C","AA328A2B29A14E278ACF8AFDAD6CD03C","362fa7b8-9c89-4957-bab4-ed738b831216","a0a8f18c-a66e-4ba7-a170-23efbdc67501","{""participantId"":""AA328A2B29A14E278ACF8AFDAD6CD03C"",""assignmentId"":""362fa7b8-9c89-4957-bab4-ed738b831216"",""projectId"":""a0a8f18c-a66e-4ba7-a170-23efbdc67501""}","https://test12345.live/?participantId=AA328A2B29A14E278ACF8AFDAD6CD03C&assignmentId=362fa7b8-9c89-4957-bab4-ed738b831216&projectId=a0a8f18c-a66e-4ba7-a170-23efbdc67501","AA328A2B29A14E278ACF8AFDAD6CD03C-2024-11-24-19-25-10","","null","","[]","null","",""
"","","","","","image-button-response","72","428929","0.0-12.0-1.0-0.5","AA328A2B29A14E278ACF8AFDAD6CD03C","AA328A2B29A14E278ACF8AFDAD6CD03C","362fa7b8-9c89-4957-bab4-ed738b831216","a0a8f18c-a66e-4ba7-a170-23efbdc67501","{""participantId"":""AA328A2B29A14E278ACF8AFDAD6CD03C"",""assignmentId"":""362fa7b8-9c89-4957-bab4-ed738b831216"",""projectId"":""a0a8f18c-a66e-4ba7-a170-23efbdc67501""}","https://test12345.live/?participantId=AA328A2B29A14E278ACF8AFDAD6CD03C&assignmentId=362fa7b8-9c89-4957-bab4-ed738b831216&projectId=a0a8f18c-a66e-4ba7-a170-23efbdc67501","AA328A2B29A14E278ACF8AFDAD6CD03C-2024-11-24-19-25-10","","null","","images/semantic_sequence/physical_activity_semantic/physical_activity_semantic_6.png","null","",""
"","","","","","image-button-response","73","430385","0.0-12.0-1.0-1.5","AA328A2B29A14E278ACF8AFDAD6CD03C","AA328A2B29A14E278ACF8AFDAD6CD03C","362fa7b8-9c89-4957-bab4-ed738b831216","a0a8f18c-a66e-4ba7-a170-23efbdc67501","{""participantId"":""AA328A2B29A14E278ACF8AFDAD6CD03C"",""assignmentId"":""362fa7b8-9c89-4957-bab4-ed738b831216"",""projectId"":""a0a8f18c-a66e-4ba7-a170-23efbdc67501""}","https://test12345.live/?participantId=AA328A2B29A14E278ACF8AFDAD6CD03C&assignmentId=362fa7b8-9c89-4957-bab4-ed738b831216&projectId=a0a8f18c-a66e-4ba7-a170-23efbdc67501","AA328A2B29A14E278ACF8AFDAD6CD03C-2024-11-24-19-25-10","","1454","","images/semantic_sequence/physical_activity_semantic/physical_activity_semantic_6.png","0","",""
"","","","","","image-button-response","74","432189","0.0-12.0-1.0-2.5","AA328A2B29A14E278ACF8AFDAD6CD03C","AA328A2B29A14E278ACF8AFDAD6CD03C","362fa7b8-9c89-4957-bab4-ed738b831216","a0a8f18c-a66e-4ba7-a170-23efbdc67501","{""participantId"":""AA328A2B29A14E278ACF8AFDAD6CD03C"",""assignmentId"":""362fa7b8-9c89-4957-bab4-ed738b831216"",""projectId"":""a0a8f18c-a66e-4ba7-a170-23efbdc67501""}","https://test12345.live/?participantId=AA328A2B29A14E278ACF8AFDAD6CD03C&assignmentId=362fa7b8-9c89-4957-bab4-ed738b831216&projectId=a0a8f18c-a66e-4ba7-a170-23efbdc67501","AA328A2B29A14E278ACF8AFDAD6CD03C-2024-11-24-19-25-10","","null","","[]","null","",""
"","","","","","image-button-response","75","436699","0.0-12.0-1.0-0.6","AA328A2B29A14E278ACF8AFDAD6CD03C","AA328A2B29A14E278ACF8AFDAD6CD03C","362fa7b8-9c89-4957-bab4-ed738b831216","a0a8f18c-a66e-4ba7-a170-23efbdc67501","{""participantId"":""AA328A2B29A14E278ACF8AFDAD6CD03C"",""assignmentId"":""362fa7b8-9c89-4957-bab4-ed738b831216"",""projectId"":""a0a8f18c-a66e-4ba7-a170-23efbdc67501""}","https://test12345.live/?participantId=AA328A2B29A14E278ACF8AFDAD6CD03C&assignmentId=362fa7b8-9c89-4957-bab4-ed738b831216&projectId=a0a8f18c-a66e-4ba7-a170-23efbdc67501","AA328A2B29A14E278ACF8AFDAD6CD03C-2024-11-24-19-25-10","","null","","images/semantic_sequence/physical_activity_semantic/physical_activity_semantic_7.png","null","",""
"","","","","","image-button-response","76","438539","0.0-12.0-1.0-1.6","AA328A2B29A14E278ACF8AFDAD6CD03C","AA328A2B29A14E278ACF8AFDAD6CD03C","362fa7b8-9c89-4957-bab4-ed738b831216","a0a8f18c-a66e-4ba7-a170-23efbdc67501","{""participantId"":""AA328A2B29A14E278ACF8AFDAD6CD03C"",""assignmentId"":""362fa7b8-9c89-4957-bab4-ed738b831216"",""projectId"":""a0a8f18c-a66e-4ba7-a170-23efbdc67501""}","https://test12345.live/?participantId=AA328A2B29A14E278ACF8AFDAD6CD03C&assignmentId=362fa7b8-9c89-4957-bab4-ed738b831216&projectId=a0a8f18c-a66e-4ba7-a170-23efbdc67501","AA328A2B29A14E278ACF8AFDAD6CD03C-2024-11-24-19-25-10","","1839","","images/semantic_sequence/physical_activity_semantic/physical_activity_semantic_7.png","1","",""
"","","","","","image-button-response","77","440349","0.0-12.0-1.0-2.6","AA328A2B29A14E278ACF8AFDAD6CD03C","AA328A2B29A14E278ACF8AFDAD6CD03C","362fa7b8-9c89-4957-bab4-ed738b831216","a0a8f18c-a66e-4ba7-a170-23efbdc67501","{""participantId"":""AA328A2B29A14E278ACF8AFDAD6CD03C"",""assignmentId"":""362fa7b8-9c89-4957-bab4-ed738b831216"",""projectId"":""a0a8f18c-a66e-4ba7-a170-23efbdc67501""}","https://test12345.live/?participantId=AA328A2B29A14E278ACF8AFDAD6CD03C&assignmentId=362fa7b8-9c89-4957-bab4-ed738b831216&projectId=a0a8f18c-a66e-4ba7-a170-23efbdc67501","AA328A2B29A14E278ACF8AFDAD6CD03C-2024-11-24-19-25-10","","null","","[]","null","",""
"","","","","","image-button-response","78","444869","0.0-12.0-1.0-0.7","AA328A2B29A14E278ACF8AFDAD6CD03C","AA328A2B29A14E278ACF8AFDAD6CD03C","362fa7b8-9c89-4957-bab4-ed738b831216","a0a8f18c-a66e-4ba7-a170-23efbdc67501","{""participantId"":""AA328A2B29A14E278ACF8AFDAD6CD03C"",""assignmentId"":""362fa7b8-9c89-4957-bab4-ed738b831216"",""projectId"":""a0a8f18c-a66e-4ba7-a170-23efbdc67501""}","https://test12345.live/?participantId=AA328A2B29A14E278ACF8AFDAD6CD03C&assignmentId=362fa7b8-9c89-4957-bab4-ed738b831216&projectId=a0a8f18c-a66e-4ba7-a170-23efbdc67501","AA328A2B29A14E278ACF8AFDAD6CD03C-2024-11-24-19-25-10","","null","","images/semantic_sequence/physical_activity_semantic/physical_activity_semantic_8.png","null","",""
"","","","","","image-button-response","79","448726","0.0-12.0-1.0-1.7","AA328A2B29A14E278ACF8AFDAD6CD03C","AA328A2B29A14E278ACF8AFDAD6CD03C","362fa7b8-9c89-4957-bab4-ed738b831216","a0a8f18c-a66e-4ba7-a170-23efbdc67501","{""participantId"":""AA328A2B29A14E278ACF8AFDAD6CD03C"",""assignmentId"":""362fa7b8-9c89-4957-bab4-ed738b831216"",""projectId"":""a0a8f18c-a66e-4ba7-a170-23efbdc67501""}","https://test12345.live/?participantId=AA328A2B29A14E278ACF8AFDAD6CD03C&assignmentId=362fa7b8-9c89-4957-bab4-ed738b831216&projectId=a0a8f18c-a66e-4ba7-a170-23efbdc67501","AA328A2B29A14E278ACF8AFDAD6CD03C-2024-11-24-19-25-10","","3855","","images/semantic_sequence/physical_activity_semantic/physical_activity_semantic_8.png","0","",""
"","","","","","image-button-response","80","450539","0.0-12.0-1.0-2.7","AA328A2B29A14E278ACF8AFDAD6CD03C","AA328A2B29A14E278ACF8AFDAD6CD03C","362fa7b8-9c89-4957-bab4-ed738b831216","a0a8f18c-a66e-4ba7-a170-23efbdc67501","{""participantId"":""AA328A2B29A14E278ACF8AFDAD6CD03C"",""assignmentId"":""362fa7b8-9c89-4957-bab4-ed738b831216"",""projectId"":""a0a8f18c-a66e-4ba7-a170-23efbdc67501""}","https://test12345.live/?participantId=AA328A2B29A14E278ACF8AFDAD6CD03C&assignmentId=362fa7b8-9c89-4957-bab4-ed738b831216&projectId=a0a8f18c-a66e-4ba7-a170-23efbdc67501","AA328A2B29A14E278ACF8AFDAD6CD03C-2024-11-24-19-25-10","","null","","[]","null","",""
"","","","","","image-button-response","81","455059","0.0-12.0-1.0-0.8","AA328A2B29A14E278ACF8AFDAD6CD03C","AA328A2B29A14E278ACF8AFDAD6CD03C","362fa7b8-9c89-4957-bab4-ed738b831216","a0a8f18c-a66e-4ba7-a170-23efbdc67501","{""participantId"":""AA328A2B29A14E278ACF8AFDAD6CD03C"",""assignmentId"":""362fa7b8-9c89-4957-bab4-ed738b831216"",""projectId"":""a0a8f18c-a66e-4ba7-a170-23efbdc67501""}","https://test12345.live/?participantId=AA328A2B29A14E278ACF8AFDAD6CD03C&assignmentId=362fa7b8-9c89-4957-bab4-ed738b831216&projectId=a0a8f18c-a66e-4ba7-a170-23efbdc67501","AA328A2B29A14E278ACF8AFDAD6CD03C-2024-11-24-19-25-10","","null","","images/semantic_sequence/physical_activity_semantic/physical_activity_semantic_9.png","null","",""
"","","","","","image-button-response","82","455775","0.0-12.0-1.0-1.8","AA328A2B29A14E278ACF8AFDAD6CD03C","AA328A2B29A14E278ACF8AFDAD6CD03C","362fa7b8-9c89-4957-bab4-ed738b831216","a0a8f18c-a66e-4ba7-a170-23efbdc67501","{""participantId"":""AA328A2B29A14E278ACF8AFDAD6CD03C"",""assignmentId"":""362fa7b8-9c89-4957-bab4-ed738b831216"",""projectId"":""a0a8f18c-a66e-4ba7-a170-23efbdc67501""}","https://test12345.live/?participantId=AA328A2B29A14E278ACF8AFDAD6CD03C&assignmentId=362fa7b8-9c89-4957-bab4-ed738b831216&projectId=a0a8f18c-a66e-4ba7-a170-23efbdc67501","AA328A2B29A14E278ACF8AFDAD6CD03C-2024-11-24-19-25-10","","714","","images/semantic_sequence/physical_activity_semantic/physical_activity_semantic_9.png","0","",""
"","","","","","image-button-response","83","457589","0.0-12.0-1.0-2.8","AA328A2B29A14E278ACF8AFDAD6CD03C","AA328A2B29A14E278ACF8AFDAD6CD03C","362fa7b8-9c89-4957-bab4-ed738b831216","a0a8f18c-a66e-4ba7-a170-23efbdc67501","{""participantId"":""AA328A2B29A14E278ACF8AFDAD6CD03C"",""assignmentId"":""362fa7b8-9c89-4957-bab4-ed738b831216"",""projectId"":""a0a8f18c-a66e-4ba7-a170-23efbdc67501""}","https://test12345.live/?participantId=AA328A2B29A14E278ACF8AFDAD6CD03C&assignmentId=362fa7b8-9c89-4957-bab4-ed738b831216&projectId=a0a8f18c-a66e-4ba7-a170-23efbdc67501","AA328A2B29A14E278ACF8AFDAD6CD03C-2024-11-24-19-25-10","","null","","[]","null","",""
"","","","","","image-button-response","84","462109","0.0-12.0-1.0-0.9","AA328A2B29A14E278ACF8AFDAD6CD03C","AA328A2B29A14E278ACF8AFDAD6CD03C","362fa7b8-9c89-4957-bab4-ed738b831216","a0a8f18c-a66e-4ba7-a170-23efbdc67501","{""participantId"":""AA328A2B29A14E278ACF8AFDAD6CD03C"",""assignmentId"":""362fa7b8-9c89-4957-bab4-ed738b831216"",""projectId"":""a0a8f18c-a66e-4ba7-a170-23efbdc67501""}","https://test12345.live/?participantId=AA328A2B29A14E278ACF8AFDAD6CD03C&assignmentId=362fa7b8-9c89-4957-bab4-ed738b831216&projectId=a0a8f18c-a66e-4ba7-a170-23efbdc67501","AA328A2B29A14E278ACF8AFDAD6CD03C-2024-11-24-19-25-10","","null","","images/semantic_sequence/physical_activity_semantic/physical_activity_semantic_ten.png","null","",""
"","","","","","image-button-response","85","464070","0.0-12.0-1.0-1.9","AA328A2B29A14E278ACF8AFDAD6CD03C","AA328A2B29A14E278ACF8AFDAD6CD03C","362fa7b8-9c89-4957-bab4-ed738b831216","a0a8f18c-a66e-4ba7-a170-23efbdc67501","{""participantId"":""AA328A2B29A14E278ACF8AFDAD6CD03C"",""assignmentId"":""362fa7b8-9c89-4957-bab4-ed738b831216"",""projectId"":""a0a8f18c-a66e-4ba7-a170-23efbdc67501""}","https://test12345.live/?participantId=AA328A2B29A14E278ACF8AFDAD6CD03C&assignmentId=362fa7b8-9c89-4957-bab4-ed738b831216&projectId=a0a8f18c-a66e-4ba7-a170-23efbdc67501","AA328A2B29A14E278ACF8AFDAD6CD03C-2024-11-24-19-25-10","","1960","","images/semantic_sequence/physical_activity_semantic/physical_activity_semantic_ten.png","0","",""
"","","","","","image-button-response","86","465879","0.0-12.0-1.0-2.9","AA328A2B29A14E278ACF8AFDAD6CD03C","AA328A2B29A14E278ACF8AFDAD6CD03C","362fa7b8-9c89-4957-bab4-ed738b831216","a0a8f18c-a66e-4ba7-a170-23efbdc67501","{""participantId"":""AA328A2B29A14E278ACF8AFDAD6CD03C"",""assignmentId"":""362fa7b8-9c89-4957-bab4-ed738b831216"",""projectId"":""a0a8f18c-a66e-4ba7-a170-23efbdc67501""}","https://test12345.live/?participantId=AA328A2B29A14E278ACF8AFDAD6CD03C&assignmentId=362fa7b8-9c89-4957-bab4-ed738b831216&projectId=a0a8f18c-a66e-4ba7-a170-23efbdc67501","AA328A2B29A14E278ACF8AFDAD6CD03C-2024-11-24-19-25-10","","null","","[]","null","",""
"","","","","","html-audio-response","87","474590","0.0-13.0","AA328A2B29A14E278ACF8AFDAD6CD03C","AA328A2B29A14E278ACF8AFDAD6CD03C","362fa7b8-9c89-4957-bab4-ed738b831216","a0a8f18c-a66e-4ba7-a170-23efbdc67501","{""participantId"":""AA328A2B29A14E278ACF8AFDAD6CD03C"",""assignmentId"":""362fa7b8-9c89-4957-bab4-ed738b831216"",""projectId"":""a0a8f18c-a66e-4ba7-a170-23efbdc67501""}","https://test12345.live/?participantId=AA328A2B29A14E278ACF8AFDAD6CD03C&assignmentId=362fa7b8-9c89-4957-bab4-ed738b831216&projectId=a0a8f18c-a66e-4ba7-a170-23efbdc67501","AA328A2B29A14E278ACF8AFDAD6CD03C-2024-11-24-19-25-10","","1713","","[""<span style=\""color: red; font-size: 24px\""> NOW RECORDING</span><p>Please say out loud all the images you saw, as many as you can remember. The images can be said in any order.</p>""]","","2","physical_activity_semantic"
"","","","","","image-button-response","88","480595","0.0-14.0-0.0","AA328A2B29A14E278ACF8AFDAD6CD03C","AA328A2B29A14E278ACF8AFDAD6CD03C","362fa7b8-9c89-4957-bab4-ed738b831216","a0a8f18c-a66e-4ba7-a170-23efbdc67501","{""participantId"":""AA328A2B29A14E278ACF8AFDAD6CD03C"",""assignmentId"":""362fa7b8-9c89-4957-bab4-ed738b831216"",""projectId"":""a0a8f18c-a66e-4ba7-a170-23efbdc67501""}","https://test12345.live/?participantId=AA328A2B29A14E278ACF8AFDAD6CD03C&assignmentId=362fa7b8-9c89-4957-bab4-ed738b831216&projectId=a0a8f18c-a66e-4ba7-a170-23efbdc67501","AA328A2B29A14E278ACF8AFDAD6CD03C-2024-11-24-19-25-10","","null","","images/causal_sequence/dog_causal/dog_causal_0.png","null","",""
"","","","","","image-button-response","89","485109","0.0-14.0-1.0-0.0","AA328A2B29A14E278ACF8AFDAD6CD03C","AA328A2B29A14E278ACF8AFDAD6CD03C","362fa7b8-9c89-4957-bab4-ed738b831216","a0a8f18c-a66e-4ba7-a170-23efbdc67501","{""participantId"":""AA328A2B29A14E278ACF8AFDAD6CD03C"",""assignmentId"":""362fa7b8-9c89-4957-bab4-ed738b831216"",""projectId"":""a0a8f18c-a66e-4ba7-a170-23efbdc67501""}","https://test12345.live/?participantId=AA328A2B29A14E278ACF8AFDAD6CD03C&assignmentId=362fa7b8-9c89-4957-bab4-ed738b831216&projectId=a0a8f18c-a66e-4ba7-a170-23efbdc67501","AA328A2B29A14E278ACF8AFDAD6CD03C-2024-11-24-19-25-10","","null","","images/causal_sequence/dog_causal/dog_causal_1.png","null","",""
"","","","","","image-button-response","90","486538","0.0-14.0-1.0-1.0","AA328A2B29A14E278ACF8AFDAD6CD03C","AA328A2B29A14E278ACF8AFDAD6CD03C","362fa7b8-9c89-4957-bab4-ed738b831216","a0a8f18c-a66e-4ba7-a170-23efbdc67501","{""participantId"":""AA328A2B29A14E278ACF8AFDAD6CD03C"",""assignmentId"":""362fa7b8-9c89-4957-bab4-ed738b831216"",""projectId"":""a0a8f18c-a66e-4ba7-a170-23efbdc67501""}","https://test12345.live/?participantId=AA328A2B29A14E278ACF8AFDAD6CD03C&assignmentId=362fa7b8-9c89-4957-bab4-ed738b831216&projectId=a0a8f18c-a66e-4ba7-a170-23efbdc67501","AA328A2B29A14E278ACF8AFDAD6CD03C-2024-11-24-19-25-10","","1428","","images/causal_sequence/dog_causal/dog_causal_1.png","0","",""
"","","","","","image-button-response","91","488359","0.0-14.0-1.0-2.0","AA328A2B29A14E278ACF8AFDAD6CD03C","AA328A2B29A14E278ACF8AFDAD6CD03C","362fa7b8-9c89-4957-bab4-ed738b831216","a0a8f18c-a66e-4ba7-a170-23efbdc67501","{""participantId"":""AA328A2B29A14E278ACF8AFDAD6CD03C"",""assignmentId"":""362fa7b8-9c89-4957-bab4-ed738b831216"",""projectId"":""a0a8f18c-a66e-4ba7-a170-23efbdc67501""}","https://test12345.live/?participantId=AA328A2B29A14E278ACF8AFDAD6CD03C&assignmentId=362fa7b8-9c89-4957-bab4-ed738b831216&projectId=a0a8f18c-a66e-4ba7-a170-23efbdc67501","AA328A2B29A14E278ACF8AFDAD6CD03C-2024-11-24-19-25-10","","null","","[]","null","",""
"","","","","","image-button-response","92","492879","0.0-14.0-1.0-0.1","AA328A2B29A14E278ACF8AFDAD6CD03C","AA328A2B29A14E278ACF8AFDAD6CD03C","362fa7b8-9c89-4957-bab4-ed738b831216","a0a8f18c-a66e-4ba7-a170-23efbdc67501","{""participantId"":""AA328A2B29A14E278ACF8AFDAD6CD03C"",""assignmentId"":""362fa7b8-9c89-4957-bab4-ed738b831216"",""projectId"":""a0a8f18c-a66e-4ba7-a170-23efbdc67501""}","https://test12345.live/?participantId=AA328A2B29A14E278ACF8AFDAD6CD03C&assignmentId=362fa7b8-9c89-4957-bab4-ed738b831216&projectId=a0a8f18c-a66e-4ba7-a170-23efbdc67501","AA328A2B29A14E278ACF8AFDAD6CD03C-2024-11-24-19-25-10","","null","","images/causal_sequence/dog_causal/dog_causal_2.png","null","",""
"","","","","","image-button-response","93","494464","0.0-14.0-1.0-1.1","AA328A2B29A14E278ACF8AFDAD6CD03C","AA328A2B29A14E278ACF8AFDAD6CD03C","362fa7b8-9c89-4957-bab4-ed738b831216","a0a8f18c-a66e-4ba7-a170-23efbdc67501","{""participantId"":""AA328A2B29A14E278ACF8AFDAD6CD03C"",""assignmentId"":""362fa7b8-9c89-4957-bab4-ed738b831216"",""projectId"":""a0a8f18c-a66e-4ba7-a170-23efbdc67501""}","https://test12345.live/?participantId=AA328A2B29A14E278ACF8AFDAD6CD03C&assignmentId=362fa7b8-9c89-4957-bab4-ed738b831216&projectId=a0a8f18c-a66e-4ba7-a170-23efbdc67501","AA328A2B29A14E278ACF8AFDAD6CD03C-2024-11-24-19-25-10","","1583","","images/causal_sequence/dog_causal/dog_causal_2.png","0","",""
"","","","","","image-button-response","94","496269","0.0-14.0-1.0-2.1","AA328A2B29A14E278ACF8AFDAD6CD03C","AA328A2B29A14E278ACF8AFDAD6CD03C","362fa7b8-9c89-4957-bab4-ed738b831216","a0a8f18c-a66e-4ba7-a170-23efbdc67501","{""participantId"":""AA328A2B29A14E278ACF8AFDAD6CD03C"",""assignmentId"":""362fa7b8-9c89-4957-bab4-ed738b831216"",""projectId"":""a0a8f18c-a66e-4ba7-a170-23efbdc67501""}","https://test12345.live/?participantId=AA328A2B29A14E278ACF8AFDAD6CD03C&assignmentId=362fa7b8-9c89-4957-bab4-ed738b831216&projectId=a0a8f18c-a66e-4ba7-a170-23efbdc67501","AA328A2B29A14E278ACF8AFDAD6CD03C-2024-11-24-19-25-10","","null","","[]","null","",""
"","","","","","image-button-response","95","500789","0.0-14.0-1.0-0.2","AA328A2B29A14E278ACF8AFDAD6CD03C","AA328A2B29A14E278ACF8AFDAD6CD03C","362fa7b8-9c89-4957-bab4-ed738b831216","a0a8f18c-a66e-4ba7-a170-23efbdc67501","{""participantId"":""AA328A2B29A14E278ACF8AFDAD6CD03C"",""assignmentId"":""362fa7b8-9c89-4957-bab4-ed738b831216"",""projectId"":""a0a8f18c-a66e-4ba7-a170-23efbdc67501""}","https://test12345.live/?participantId=AA328A2B29A14E278ACF8AFDAD6CD03C&assignmentId=362fa7b8-9c89-4957-bab4-ed738b831216&projectId=a0a8f18c-a66e-4ba7-a170-23efbdc67501","AA328A2B29A14E278ACF8AFDAD6CD03C-2024-11-24-19-25-10","","null","","images/causal_sequence/dog_causal/dog_causal_3.png","null","",""
"","","","","","image-button-response","96","502972","0.0-14.0-1.0-1.2","AA328A2B29A14E278ACF8AFDAD6CD03C","AA328A2B29A14E278ACF8AFDAD6CD03C","362fa7b8-9c89-4957-bab4-ed738b831216","a0a8f18c-a66e-4ba7-a170-23efbdc67501","{""participantId"":""AA328A2B29A14E278ACF8AFDAD6CD03C"",""assignmentId"":""362fa7b8-9c89-4957-bab4-ed738b831216"",""projectId"":""a0a8f18c-a66e-4ba7-a170-23efbdc67501""}","https://test12345.live/?participantId=AA328A2B29A14E278ACF8AFDAD6CD03C&assignmentId=362fa7b8-9c89-4957-bab4-ed738b831216&projectId=a0a8f18c-a66e-4ba7-a170-23efbdc67501","AA328A2B29A14E278ACF8AFDAD6CD03C-2024-11-24-19-25-10","","2181","","images/causal_sequence/dog_causal/dog_causal_3.png","0","",""
"","","","","","image-button-response","97","504781","0.0-14.0-1.0-2.2","AA328A2B29A14E278ACF8AFDAD6CD03C","AA328A2B29A14E278ACF8AFDAD6CD03C","362fa7b8-9c89-4957-bab4-ed738b831216","a0a8f18c-a66e-4ba7-a170-23efbdc67501","{""participantId"":""AA328A2B29A14E278ACF8AFDAD6CD03C"",""assignmentId"":""362fa7b8-9c89-4957-bab4-ed738b831216"",""projectId"":""a0a8f18c-a66e-4ba7-a170-23efbdc67501""}","https://test12345.live/?participantId=AA328A2B29A14E278ACF8AFDAD6CD03C&assignmentId=362fa7b8-9c89-4957-bab4-ed738b831216&projectId=a0a8f18c-a66e-4ba7-a170-23efbdc67501","AA328A2B29A14E278ACF8AFDAD6CD03C-2024-11-24-19-25-10","","null","","[]","null","",""
"","","","","","image-button-response","98","509299","0.0-14.0-1.0-0.3","AA328A2B29A14E278ACF8AFDAD6CD03C","AA328A2B29A14E278ACF8AFDAD6CD03C","362fa7b8-9c89-4957-bab4-ed738b831216","a0a8f18c-a66e-4ba7-a170-23efbdc67501","{""participantId"":""AA328A2B29A14E278ACF8AFDAD6CD03C"",""assignmentId"":""362fa7b8-9c89-4957-bab4-ed738b831216"",""projectId"":""a0a8f18c-a66e-4ba7-a170-23efbdc67501""}","https://test12345.live/?participantId=AA328A2B29A14E278ACF8AFDAD6CD03C&assignmentId=362fa7b8-9c89-4957-bab4-ed738b831216&projectId=a0a8f18c-a66e-4ba7-a170-23efbdc67501","AA328A2B29A14E278ACF8AFDAD6CD03C-2024-11-24-19-25-10","","null","","images/causal_sequence/dog_causal/dog_causal_4.png","null","",""
"","","","","","image-button-response","99","510212","0.0-14.0-1.0-1.3","AA328A2B29A14E278ACF8AFDAD6CD03C","AA328A2B29A14E278ACF8AFDAD6CD03C","362fa7b8-9c89-4957-bab4-ed738b831216","a0a8f18c-a66e-4ba7-a170-23efbdc67501","{""participantId"":""AA328A2B29A14E278ACF8AFDAD6CD03C"",""assignmentId"":""362fa7b8-9c89-4957-bab4-ed738b831216"",""projectId"":""a0a8f18c-a66e-4ba7-a170-23efbdc67501""}","https://test12345.live/?participantId=AA328A2B29A14E278ACF8AFDAD6CD03C&assignmentId=362fa7b8-9c89-4957-bab4-ed738b831216&projectId=a0a8f18c-a66e-4ba7-a170-23efbdc67501","AA328A2B29A14E278ACF8AFDAD6CD03C-2024-11-24-19-25-10","","911","","images/causal_sequence/dog_causal/dog_causal_4.png","0","",""
"","","","","","image-button-response","100","512024","0.0-14.0-1.0-2.3","AA328A2B29A14E278ACF8AFDAD6CD03C","AA328A2B29A14E278ACF8AFDAD6CD03C","362fa7b8-9c89-4957-bab4-ed738b831216","a0a8f18c-a66e-4ba7-a170-23efbdc67501","{""participantId"":""AA328A2B29A14E278ACF8AFDAD6CD03C"",""assignmentId"":""362fa7b8-9c89-4957-bab4-ed738b831216"",""projectId"":""a0a8f18c-a66e-4ba7-a170-23efbdc67501""}","https://test12345.live/?participantId=AA328A2B29A14E278ACF8AFDAD6CD03C&assignmentId=362fa7b8-9c89-4957-bab4-ed738b831216&projectId=a0a8f18c-a66e-4ba7-a170-23efbdc67501","AA328A2B29A14E278ACF8AFDAD6CD03C-2024-11-24-19-25-10","","null","","[]","null","",""
"","","","","","image-button-response","101","516539","0.0-14.0-1.0-0.4","AA328A2B29A14E278ACF8AFDAD6CD03C","AA328A2B29A14E278ACF8AFDAD6CD03C","362fa7b8-9c89-4957-bab4-ed738b831216","a0a8f18c-a66e-4ba7-a170-23efbdc67501","{""participantId"":""AA328A2B29A14E278ACF8AFDAD6CD03C"",""assignmentId"":""362fa7b8-9c89-4957-bab4-ed738b831216"",""projectId"":""a0a8f18c-a66e-4ba7-a170-23efbdc67501""}","https://test12345.live/?participantId=AA328A2B29A14E278ACF8AFDAD6CD03C&assignmentId=362fa7b8-9c89-4957-bab4-ed738b831216&projectId=a0a8f18c-a66e-4ba7-a170-23efbdc67501","AA328A2B29A14E278ACF8AFDAD6CD03C-2024-11-24-19-25-10","","null","","images/causal_sequence/dog_causal/dog_causal_5.png","null","",""
"","","","","","image-button-response","102","517467","0.0-14.0-1.0-1.4","AA328A2B29A14E278ACF8AFDAD6CD03C","AA328A2B29A14E278ACF8AFDAD6CD03C","362fa7b8-9c89-4957-bab4-ed738b831216","a0a8f18c-a66e-4ba7-a170-23efbdc67501","{""participantId"":""AA328A2B29A14E278ACF8AFDAD6CD03C"",""assignmentId"":""362fa7b8-9c89-4957-bab4-ed738b831216"",""projectId"":""a0a8f18c-a66e-4ba7-a170-23efbdc67501""}","https://test12345.live/?participantId=AA328A2B29A14E278ACF8AFDAD6CD03C&assignmentId=362fa7b8-9c89-4957-bab4-ed738b831216&projectId=a0a8f18c-a66e-4ba7-a170-23efbdc67501","AA328A2B29A14E278ACF8AFDAD6CD03C-2024-11-24-19-25-10","","927","","images/causal_sequence/dog_causal/dog_causal_5.png","0","",""
"","","","","","image-button-response","103","519279","0.0-14.0-1.0-2.4","AA328A2B29A14E278ACF8AFDAD6CD03C","AA328A2B29A14E278ACF8AFDAD6CD03C","362fa7b8-9c89-4957-bab4-ed738b831216","a0a8f18c-a66e-4ba7-a170-23efbdc67501","{""participantId"":""AA328A2B29A14E278ACF8AFDAD6CD03C"",""assignmentId"":""362fa7b8-9c89-4957-bab4-ed738b831216"",""projectId"":""a0a8f18c-a66e-4ba7-a170-23efbdc67501""}","https://test12345.live/?participantId=AA328A2B29A14E278ACF8AFDAD6CD03C&assignmentId=362fa7b8-9c89-4957-bab4-ed738b831216&projectId=a0a8f18c-a66e-4ba7-a170-23efbdc67501","AA328A2B29A14E278ACF8AFDAD6CD03C-2024-11-24-19-25-10","","null","","[]","null","",""
"","","","","","image-button-response","104","523789","0.0-14.0-1.0-0.5","AA328A2B29A14E278ACF8AFDAD6CD03C","AA328A2B29A14E278ACF8AFDAD6CD03C","362fa7b8-9c89-4957-bab4-ed738b831216","a0a8f18c-a66e-4ba7-a170-23efbdc67501","{""participantId"":""AA328A2B29A14E278ACF8AFDAD6CD03C"",""assignmentId"":""362fa7b8-9c89-4957-bab4-ed738b831216"",""projectId"":""a0a8f18c-a66e-4ba7-a170-23efbdc67501""}","https://test12345.live/?participantId=AA328A2B29A14E278ACF8AFDAD6CD03C&assignmentId=362fa7b8-9c89-4957-bab4-ed738b831216&projectId=a0a8f18c-a66e-4ba7-a170-23efbdc67501","AA328A2B29A14E278ACF8AFDAD6CD03C-2024-11-24-19-25-10","","null","","images/causal_sequence/dog_causal/dog_causal_6.png","null","",""
"","","","","","image-button-response","105","524677","0.0-14.0-1.0-1.5","AA328A2B29A14E278ACF8AFDAD6CD03C","AA328A2B29A14E278ACF8AFDAD6CD03C","362fa7b8-9c89-4957-bab4-ed738b831216","a0a8f18c-a66e-4ba7-a170-23efbdc67501","{""participantId"":""AA328A2B29A14E278ACF8AFDAD6CD03C"",""assignmentId"":""362fa7b8-9c89-4957-bab4-ed738b831216"",""projectId"":""a0a8f18c-a66e-4ba7-a170-23efbdc67501""}","https://test12345.live/?participantId=AA328A2B29A14E278ACF8AFDAD6CD03C&assignmentId=362fa7b8-9c89-4957-bab4-ed738b831216&projectId=a0a8f18c-a66e-4ba7-a170-23efbdc67501","AA328A2B29A14E278ACF8AFDAD6CD03C-2024-11-24-19-25-10","","885","","images/causal_sequence/dog_causal/dog_causal_6.png","0","",""
"","","","","","image-button-response","106","526479","0.0-14.0-1.0-2.5","AA328A2B29A14E278ACF8AFDAD6CD03C","AA328A2B29A14E278ACF8AFDAD6CD03C","362fa7b8-9c89-4957-bab4-ed738b831216","a0a8f18c-a66e-4ba7-a170-23efbdc67501","{""participantId"":""AA328A2B29A14E278ACF8AFDAD6CD03C"",""assignmentId"":""362fa7b8-9c89-4957-bab4-ed738b831216"",""projectId"":""a0a8f18c-a66e-4ba7-a170-23efbdc67501""}","https://test12345.live/?participantId=AA328A2B29A14E278ACF8AFDAD6CD03C&assignmentId=362fa7b8-9c89-4957-bab4-ed738b831216&projectId=a0a8f18c-a66e-4ba7-a170-23efbdc67501","AA328A2B29A14E278ACF8AFDAD6CD03C-2024-11-24-19-25-10","","null","","[]","null","",""
"","","","","","image-button-response","107","530999","0.0-14.0-1.0-0.6","AA328A2B29A14E278ACF8AFDAD6CD03C","AA328A2B29A14E278ACF8AFDAD6CD03C","362fa7b8-9c89-4957-bab4-ed738b831216","a0a8f18c-a66e-4ba7-a170-23efbdc67501","{""participantId"":""AA328A2B29A14E278ACF8AFDAD6CD03C"",""assignmentId"":""362fa7b8-9c89-4957-bab4-ed738b831216"",""projectId"":""a0a8f18c-a66e-4ba7-a170-23efbdc67501""}","https://test12345.live/?participantId=AA328A2B29A14E278ACF8AFDAD6CD03C&assignmentId=362fa7b8-9c89-4957-bab4-ed738b831216&projectId=a0a8f18c-a66e-4ba7-a170-23efbdc67501","AA328A2B29A14E278ACF8AFDAD6CD03C-2024-11-24-19-25-10","","null","","images/causal_sequence/dog_causal/dog_causal_7.png","null","",""
"","","","","","image-button-response","108","532731","0.0-14.0-1.0-1.6","AA328A2B29A14E278ACF8AFDAD6CD03C","AA328A2B29A14E278ACF8AFDAD6CD03C","362fa7b8-9c89-4957-bab4-ed738b831216","a0a8f18c-a66e-4ba7-a170-23efbdc67501","{""participantId"":""AA328A2B29A14E278ACF8AFDAD6CD03C"",""assignmentId"":""362fa7b8-9c89-4957-bab4-ed738b831216"",""projectId"":""a0a8f18c-a66e-4ba7-a170-23efbdc67501""}","https://test12345.live/?participantId=AA328A2B29A14E278ACF8AFDAD6CD03C&assignmentId=362fa7b8-9c89-4957-bab4-ed738b831216&projectId=a0a8f18c-a66e-4ba7-a170-23efbdc67501","AA328A2B29A14E278ACF8AFDAD6CD03C-2024-11-24-19-25-10","","1730","","images/causal_sequence/dog_causal/dog_causal_7.png","0","",""
"","","","","","image-button-response","109","534539","0.0-14.0-1.0-2.6","AA328A2B29A14E278ACF8AFDAD6CD03C","AA328A2B29A14E278ACF8AFDAD6CD03C","362fa7b8-9c89-4957-bab4-ed738b831216","a0a8f18c-a66e-4ba7-a170-23efbdc67501","{""participantId"":""AA328A2B29A14E278ACF8AFDAD6CD03C"",""assignmentId"":""362fa7b8-9c89-4957-bab4-ed738b831216"",""projectId"":""a0a8f18c-a66e-4ba7-a170-23efbdc67501""}","https://test12345.live/?participantId=AA328A2B29A14E278ACF8AFDAD6CD03C&assignmentId=362fa7b8-9c89-4957-bab4-ed738b831216&projectId=a0a8f18c-a66e-4ba7-a170-23efbdc67501","AA328A2B29A14E278ACF8AFDAD6CD03C-2024-11-24-19-25-10","","null","","[]","null","",""
"","","","","","image-button-response","110","539059","0.0-14.0-1.0-0.7","AA328A2B29A14E278ACF8AFDAD6CD03C","AA328A2B29A14E278ACF8AFDAD6CD03C","362fa7b8-9c89-4957-bab4-ed738b831216","a0a8f18c-a66e-4ba7-a170-23efbdc67501","{""participantId"":""AA328A2B29A14E278ACF8AFDAD6CD03C"",""assignmentId"":""362fa7b8-9c89-4957-bab4-ed738b831216"",""projectId"":""a0a8f18c-a66e-4ba7-a170-23efbdc67501""}","https://test12345.live/?participantId=AA328A2B29A14E278ACF8AFDAD6CD03C&assignmentId=362fa7b8-9c89-4957-bab4-ed738b831216&projectId=a0a8f18c-a66e-4ba7-a170-23efbdc67501","AA328A2B29A14E278ACF8AFDAD6CD03C-2024-11-24-19-25-10","","null","","images/causal_sequence/dog_causal/dog_causal_8.png","null","",""
"","","","","","image-button-response","111","540679","0.0-14.0-1.0-1.7","AA328A2B29A14E278ACF8AFDAD6CD03C","AA328A2B29A14E278ACF8AFDAD6CD03C","362fa7b8-9c89-4957-bab4-ed738b831216","a0a8f18c-a66e-4ba7-a170-23efbdc67501","{""participantId"":""AA328A2B29A14E278ACF8AFDAD6CD03C"",""assignmentId"":""362fa7b8-9c89-4957-bab4-ed738b831216"",""projectId"":""a0a8f18c-a66e-4ba7-a170-23efbdc67501""}","https://test12345.live/?participantId=AA328A2B29A14E278ACF8AFDAD6CD03C&assignmentId=362fa7b8-9c89-4957-bab4-ed738b831216&projectId=a0a8f18c-a66e-4ba7-a170-23efbdc67501","AA328A2B29A14E278ACF8AFDAD6CD03C-2024-11-24-19-25-10","","1618","","images/causal_sequence/dog_causal/dog_causal_8.png","0","",""
"","","","","","image-button-response","112","542489","0.0-14.0-1.0-2.7","AA328A2B29A14E278ACF8AFDAD6CD03C","AA328A2B29A14E278ACF8AFDAD6CD03C","362fa7b8-9c89-4957-bab4-ed738b831216","a0a8f18c-a66e-4ba7-a170-23efbdc67501","{""participantId"":""AA328A2B29A14E278ACF8AFDAD6CD03C"",""assignmentId"":""362fa7b8-9c89-4957-bab4-ed738b831216"",""projectId"":""a0a8f18c-a66e-4ba7-a170-23efbdc67501""}","https://test12345.live/?participantId=AA328A2B29A14E278ACF8AFDAD6CD03C&assignmentId=362fa7b8-9c89-4957-bab4-ed738b831216&projectId=a0a8f18c-a66e-4ba7-a170-23efbdc67501","AA328A2B29A14E278ACF8AFDAD6CD03C-2024-11-24-19-25-10","","null","","[]","null","",""
"","","","","","image-button-response","113","546999","0.0-14.0-1.0-0.8","AA328A2B29A14E278ACF8AFDAD6CD03C","AA328A2B29A14E278ACF8AFDAD6CD03C","362fa7b8-9c89-4957-bab4-ed738b831216","a0a8f18c-a66e-4ba7-a170-23efbdc67501","{""participantId"":""AA328A2B29A14E278ACF8AFDAD6CD03C"",""assignmentId"":""362fa7b8-9c89-4957-bab4-ed738b831216"",""projectId"":""a0a8f18c-a66e-4ba7-a170-23efbdc67501""}","https://test12345.live/?participantId=AA328A2B29A14E278ACF8AFDAD6CD03C&assignmentId=362fa7b8-9c89-4957-bab4-ed738b831216&projectId=a0a8f18c-a66e-4ba7-a170-23efbdc67501","AA328A2B29A14E278ACF8AFDAD6CD03C-2024-11-24-19-25-10","","null","","images/causal_sequence/dog_causal/dog_causal_9.png","null","",""
"","","","","","image-button-response","114","547643","0.0-14.0-1.0-1.8","AA328A2B29A14E278ACF8AFDAD6CD03C","AA328A2B29A14E278ACF8AFDAD6CD03C","362fa7b8-9c89-4957-bab4-ed738b831216","a0a8f18c-a66e-4ba7-a170-23efbdc67501","{""participantId"":""AA328A2B29A14E278ACF8AFDAD6CD03C"",""assignmentId"":""362fa7b8-9c89-4957-bab4-ed738b831216"",""projectId"":""a0a8f18c-a66e-4ba7-a170-23efbdc67501""}","https://test12345.live/?participantId=AA328A2B29A14E278ACF8AFDAD6CD03C&assignmentId=362fa7b8-9c89-4957-bab4-ed738b831216&projectId=a0a8f18c-a66e-4ba7-a170-23efbdc67501","AA328A2B29A14E278ACF8AFDAD6CD03C-2024-11-24-19-25-10","","642","","images/causal_sequence/dog_causal/dog_causal_9.png","0","",""
"","","","","","image-button-response","115","549449","0.0-14.0-1.0-2.8","AA328A2B29A14E278ACF8AFDAD6CD03C","AA328A2B29A14E278ACF8AFDAD6CD03C","362fa7b8-9c89-4957-bab4-ed738b831216","a0a8f18c-a66e-4ba7-a170-23efbdc67501","{""participantId"":""AA328A2B29A14E278ACF8AFDAD6CD03C"",""assignmentId"":""362fa7b8-9c89-4957-bab4-ed738b831216"",""projectId"":""a0a8f18c-a66e-4ba7-a170-23efbdc67501""}","https://test12345.live/?participantId=AA328A2B29A14E278ACF8AFDAD6CD03C&assignmentId=362fa7b8-9c89-4957-bab4-ed738b831216&projectId=a0a8f18c-a66e-4ba7-a170-23efbdc67501","AA328A2B29A14E278ACF8AFDAD6CD03C-2024-11-24-19-25-10","","null","","[]","null","",""
"","","","","","image-button-response","116","553969","0.0-14.0-1.0-0.9","AA328A2B29A14E278ACF8AFDAD6CD03C","AA328A2B29A14E278ACF8AFDAD6CD03C","362fa7b8-9c89-4957-bab4-ed738b831216","a0a8f18c-a66e-4ba7-a170-23efbdc67501","{""participantId"":""AA328A2B29A14E278ACF8AFDAD6CD03C"",""assignmentId"":""362fa7b8-9c89-4957-bab4-ed738b831216"",""projectId"":""a0a8f18c-a66e-4ba7-a170-23efbdc67501""}","https://test12345.live/?participantId=AA328A2B29A14E278ACF8AFDAD6CD03C&assignmentId=362fa7b8-9c89-4957-bab4-ed738b831216&projectId=a0a8f18c-a66e-4ba7-a170-23efbdc67501","AA328A2B29A14E278ACF8AFDAD6CD03C-2024-11-24-19-25-10","","null","","images/causal_sequence/dog_causal/dog_causal_ten.png","null","",""
"","","","","","image-button-response","117","554781","0.0-14.0-1.0-1.9","AA328A2B29A14E278ACF8AFDAD6CD03C","AA328A2B29A14E278ACF8AFDAD6CD03C","362fa7b8-9c89-4957-bab4-ed738b831216","a0a8f18c-a66e-4ba7-a170-23efbdc67501","{""participantId"":""AA328A2B29A14E278ACF8AFDAD6CD03C"",""assignmentId"":""362fa7b8-9c89-4957-bab4-ed738b831216"",""projectId"":""a0a8f18c-a66e-4ba7-a170-23efbdc67501""}","https://test12345.live/?participantId=AA328A2B29A14E278ACF8AFDAD6CD03C&assignmentId=362fa7b8-9c89-4957-bab4-ed738b831216&projectId=a0a8f18c-a66e-4ba7-a170-23efbdc67501","AA328A2B29A14E278ACF8AFDAD6CD03C-2024-11-24-19-25-10","","811","","images/causal_sequence/dog_causal/dog_causal_ten.png","0","",""
"","","","","","image-button-response","118","556599","0.0-14.0-1.0-2.9","AA328A2B29A14E278ACF8AFDAD6CD03C","AA328A2B29A14E278ACF8AFDAD6CD03C","362fa7b8-9c89-4957-bab4-ed738b831216","a0a8f18c-a66e-4ba7-a170-23efbdc67501","{""participantId"":""AA328A2B29A14E278ACF8AFDAD6CD03C"",""assignmentId"":""362fa7b8-9c89-4957-bab4-ed738b831216"",""projectId"":""a0a8f18c-a66e-4ba7-a170-23efbdc67501""}","https://test12345.live/?participantId=AA328A2B29A14E278ACF8AFDAD6CD03C&assignmentId=362fa7b8-9c89-4957-bab4-ed738b831216&projectId=a0a8f18c-a66e-4ba7-a170-23efbdc67501","AA328A2B29A14E278ACF8AFDAD6CD03C-2024-11-24-19-25-10","","null","","[]","null","",""
"","","","","","html-audio-response","119","569101","0.0-15.0","AA328A2B29A14E278ACF8AFDAD6CD03C","AA328A2B29A14E278ACF8AFDAD6CD03C","362fa7b8-9c89-4957-bab4-ed738b831216","a0a8f18c-a66e-4ba7-a170-23efbdc67501","{""participantId"":""AA328A2B29A14E278ACF8AFDAD6CD03C"",""assignmentId"":""362fa7b8-9c89-4957-bab4-ed738b831216"",""projectId"":""a0a8f18c-a66e-4ba7-a170-23efbdc67501""}","https://test12345.live/?participantId=AA328A2B29A14E278ACF8AFDAD6CD03C&assignmentId=362fa7b8-9c89-4957-bab4-ed738b831216&projectId=a0a8f18c-a66e-4ba7-a170-23efbdc67501","AA328A2B29A14E278ACF8AFDAD6CD03C-2024-11-24-19-25-10","","1888","","[""<span style=\""color: red; font-size: 24px\""> NOW RECORDING</span><p>Please say out loud all the images you saw, as many as you can remember. The images can be said in any order.</p>""]","","2","dog_causal"
"","","","","","image-button-response","120","575109","0.0-16.0-0.0","AA328A2B29A14E278ACF8AFDAD6CD03C","AA328A2B29A14E278ACF8AFDAD6CD03C","362fa7b8-9c89-4957-bab4-ed738b831216","a0a8f18c-a66e-4ba7-a170-23efbdc67501","{""participantId"":""AA328A2B29A14E278ACF8AFDAD6CD03C"",""assignmentId"":""362fa7b8-9c89-4957-bab4-ed738b831216"",""projectId"":""a0a8f18c-a66e-4ba7-a170-23efbdc67501""}","https://test12345.live/?participantId=AA328A2B29A14E278ACF8AFDAD6CD03C&assignmentId=362fa7b8-9c89-4957-bab4-ed738b831216&projectId=a0a8f18c-a66e-4ba7-a170-23efbdc67501","AA328A2B29A14E278ACF8AFDAD6CD03C-2024-11-24-19-25-10","","null","","images/schematic_sequence/flight_scheme/flight_scheme_0.png","null","",""
"","","","","","image-button-response","121","579619","0.0-16.0-1.0-0.0","AA328A2B29A14E278ACF8AFDAD6CD03C","AA328A2B29A14E278ACF8AFDAD6CD03C","362fa7b8-9c89-4957-bab4-ed738b831216","a0a8f18c-a66e-4ba7-a170-23efbdc67501","{""participantId"":""AA328A2B29A14E278ACF8AFDAD6CD03C"",""assignmentId"":""362fa7b8-9c89-4957-bab4-ed738b831216"",""projectId"":""a0a8f18c-a66e-4ba7-a170-23efbdc67501""}","https://test12345.live/?participantId=AA328A2B29A14E278ACF8AFDAD6CD03C&assignmentId=362fa7b8-9c89-4957-bab4-ed738b831216&projectId=a0a8f18c-a66e-4ba7-a170-23efbdc67501","AA328A2B29A14E278ACF8AFDAD6CD03C-2024-11-24-19-25-10","","null","","images/schematic_sequence/flight_scheme/flight_scheme_2.png","null","",""
"","","","","","image-button-response","122","581672","0.0-16.0-1.0-1.0","AA328A2B29A14E278ACF8AFDAD6CD03C","AA328A2B29A14E278ACF8AFDAD6CD03C","362fa7b8-9c89-4957-bab4-ed738b831216","a0a8f18c-a66e-4ba7-a170-23efbdc67501","{""participantId"":""AA328A2B29A14E278ACF8AFDAD6CD03C"",""assignmentId"":""362fa7b8-9c89-4957-bab4-ed738b831216"",""projectId"":""a0a8f18c-a66e-4ba7-a170-23efbdc67501""}","https://test12345.live/?participantId=AA328A2B29A14E278ACF8AFDAD6CD03C&assignmentId=362fa7b8-9c89-4957-bab4-ed738b831216&projectId=a0a8f18c-a66e-4ba7-a170-23efbdc67501","AA328A2B29A14E278ACF8AFDAD6CD03C-2024-11-24-19-25-10","","2051","","images/schematic_sequence/flight_scheme/flight_scheme_2.png","1","",""
"","","","","","image-button-response","123","583479","0.0-16.0-1.0-2.0","AA328A2B29A14E278ACF8AFDAD6CD03C","AA328A2B29A14E278ACF8AFDAD6CD03C","362fa7b8-9c89-4957-bab4-ed738b831216","a0a8f18c-a66e-4ba7-a170-23efbdc67501","{""participantId"":""AA328A2B29A14E278ACF8AFDAD6CD03C"",""assignmentId"":""362fa7b8-9c89-4957-bab4-ed738b831216"",""projectId"":""a0a8f18c-a66e-4ba7-a170-23efbdc67501""}","https://test12345.live/?participantId=AA328A2B29A14E278ACF8AFDAD6CD03C&assignmentId=362fa7b8-9c89-4957-bab4-ed738b831216&projectId=a0a8f18c-a66e-4ba7-a170-23efbdc67501","AA328A2B29A14E278ACF8AFDAD6CD03C-2024-11-24-19-25-10","","null","","[]","null","",""
"","","","","","image-button-response","124","587989","0.0-16.0-1.0-0.1","AA328A2B29A14E278ACF8AFDAD6CD03C","AA328A2B29A14E278ACF8AFDAD6CD03C","362fa7b8-9c89-4957-bab4-ed738b831216","a0a8f18c-a66e-4ba7-a170-23efbdc67501","{""participantId"":""AA328A2B29A14E278ACF8AFDAD6CD03C"",""assignmentId"":""362fa7b8-9c89-4957-bab4-ed738b831216"",""projectId"":""a0a8f18c-a66e-4ba7-a170-23efbdc67501""}","https://test12345.live/?participantId=AA328A2B29A14E278ACF8AFDAD6CD03C&assignmentId=362fa7b8-9c89-4957-bab4-ed738b831216&projectId=a0a8f18c-a66e-4ba7-a170-23efbdc67501","AA328A2B29A14E278ACF8AFDAD6CD03C-2024-11-24-19-25-10","","null","","images/schematic_sequence/flight_scheme/flight_scheme_ten.png","null","",""
"","","","","","image-button-response","125","588719","0.0-16.0-1.0-1.1","AA328A2B29A14E278ACF8AFDAD6CD03C","AA328A2B29A14E278ACF8AFDAD6CD03C","362fa7b8-9c89-4957-bab4-ed738b831216","a0a8f18c-a66e-4ba7-a170-23efbdc67501","{""participantId"":""AA328A2B29A14E278ACF8AFDAD6CD03C"",""assignmentId"":""362fa7b8-9c89-4957-bab4-ed738b831216"",""projectId"":""a0a8f18c-a66e-4ba7-a170-23efbdc67501""}","https://test12345.live/?participantId=AA328A2B29A14E278ACF8AFDAD6CD03C&assignmentId=362fa7b8-9c89-4957-bab4-ed738b831216&projectId=a0a8f18c-a66e-4ba7-a170-23efbdc67501","AA328A2B29A14E278ACF8AFDAD6CD03C-2024-11-24-19-25-10","","729","","images/schematic_sequence/flight_scheme/flight_scheme_ten.png","0","",""
"","","","","","image-button-response","126","590529","0.0-16.0-1.0-2.1","AA328A2B29A14E278ACF8AFDAD6CD03C","AA328A2B29A14E278ACF8AFDAD6CD03C","362fa7b8-9c89-4957-bab4-ed738b831216","a0a8f18c-a66e-4ba7-a170-23efbdc67501","{""participantId"":""AA328A2B29A14E278ACF8AFDAD6CD03C"",""assignmentId"":""362fa7b8-9c89-4957-bab4-ed738b831216"",""projectId"":""a0a8f18c-a66e-4ba7-a170-23efbdc67501""}","https://test12345.live/?participantId=AA328A2B29A14E278ACF8AFDAD6CD03C&assignmentId=362fa7b8-9c89-4957-bab4-ed738b831216&projectId=a0a8f18c-a66e-4ba7-a170-23efbdc67501","AA328A2B29A14E278ACF8AFDAD6CD03C-2024-11-24-19-25-10","","null","","[]","null","",""
"","","","","","image-button-response","127","595049","0.0-16.0-1.0-0.2","AA328A2B29A14E278ACF8AFDAD6CD03C","AA328A2B29A14E278ACF8AFDAD6CD03C","362fa7b8-9c89-4957-bab4-ed738b831216","a0a8f18c-a66e-4ba7-a170-23efbdc67501","{""participantId"":""AA328A2B29A14E278ACF8AFDAD6CD03C"",""assignmentId"":""362fa7b8-9c89-4957-bab4-ed738b831216"",""projectId"":""a0a8f18c-a66e-4ba7-a170-23efbdc67501""}","https://test12345.live/?participantId=AA328A2B29A14E278ACF8AFDAD6CD03C&assignmentId=362fa7b8-9c89-4957-bab4-ed738b831216&projectId=a0a8f18c-a66e-4ba7-a170-23efbdc67501","AA328A2B29A14E278ACF8AFDAD6CD03C-2024-11-24-19-25-10","","null","","images/schematic_sequence/flight_scheme/flight_scheme_3.png","null","",""
"","","","","","image-button-response","128","595741","0.0-16.0-1.0-1.2","AA328A2B29A14E278ACF8AFDAD6CD03C","AA328A2B29A14E278ACF8AFDAD6CD03C","362fa7b8-9c89-4957-bab4-ed738b831216","a0a8f18c-a66e-4ba7-a170-23efbdc67501","{""participantId"":""AA328A2B29A14E278ACF8AFDAD6CD03C"",""assignmentId"":""362fa7b8-9c89-4957-bab4-ed738b831216"",""projectId"":""a0a8f18c-a66e-4ba7-a170-23efbdc67501""}","https://test12345.live/?participantId=AA328A2B29A14E278ACF8AFDAD6CD03C&assignmentId=362fa7b8-9c89-4957-bab4-ed738b831216&projectId=a0a8f18c-a66e-4ba7-a170-23efbdc67501","AA328A2B29A14E278ACF8AFDAD6CD03C-2024-11-24-19-25-10","","690","","images/schematic_sequence/flight_scheme/flight_scheme_3.png","0","",""
"","","","","","image-button-response","129","597559","0.0-16.0-1.0-2.2","AA328A2B29A14E278ACF8AFDAD6CD03C","AA328A2B29A14E278ACF8AFDAD6CD03C","362fa7b8-9c89-4957-bab4-ed738b831216","a0a8f18c-a66e-4ba7-a170-23efbdc67501","{""participantId"":""AA328A2B29A14E278ACF8AFDAD6CD03C"",""assignmentId"":""362fa7b8-9c89-4957-bab4-ed738b831216"",""projectId"":""a0a8f18c-a66e-4ba7-a170-23efbdc67501""}","https://test12345.live/?participantId=AA328A2B29A14E278ACF8AFDAD6CD03C&assignmentId=362fa7b8-9c89-4957-bab4-ed738b831216&projectId=a0a8f18c-a66e-4ba7-a170-23efbdc67501","AA328A2B29A14E278ACF8AFDAD6CD03C-2024-11-24-19-25-10","","null","","[]","null","",""
"","","","","","image-button-response","130","602069","0.0-16.0-1.0-0.3","AA328A2B29A14E278ACF8AFDAD6CD03C","AA328A2B29A14E278ACF8AFDAD6CD03C","362fa7b8-9c89-4957-bab4-ed738b831216","a0a8f18c-a66e-4ba7-a170-23efbdc67501","{""participantId"":""AA328A2B29A14E278ACF8AFDAD6CD03C"",""assignmentId"":""362fa7b8-9c89-4957-bab4-ed738b831216"",""projectId"":""a0a8f18c-a66e-4ba7-a170-23efbdc67501""}","https://test12345.live/?participantId=AA328A2B29A14E278ACF8AFDAD6CD03C&assignmentId=362fa7b8-9c89-4957-bab4-ed738b831216&projectId=a0a8f18c-a66e-4ba7-a170-23efbdc67501","AA328A2B29A14E278ACF8AFDAD6CD03C-2024-11-24-19-25-10","","null","","images/schematic_sequence/flight_scheme/flight_scheme_8.png","null","",""
"","","","","","image-button-response","131","602940","0.0-16.0-1.0-1.3","AA328A2B29A14E278ACF8AFDAD6CD03C","AA328A2B29A14E278ACF8AFDAD6CD03C","362fa7b8-9c89-4957-bab4-ed738b831216","a0a8f18c-a66e-4ba7-a170-23efbdc67501","{""participantId"":""AA328A2B29A14E278ACF8AFDAD6CD03C"",""assignmentId"":""362fa7b8-9c89-4957-bab4-ed738b831216"",""projectId"":""a0a8f18c-a66e-4ba7-a170-23efbdc67501""}","https://test12345.live/?participantId=AA328A2B29A14E278ACF8AFDAD6CD03C&assignmentId=362fa7b8-9c89-4957-bab4-ed738b831216&projectId=a0a8f18c-a66e-4ba7-a170-23efbdc67501","AA328A2B29A14E278ACF8AFDAD6CD03C-2024-11-24-19-25-10","","859","","images/schematic_sequence/flight_scheme/flight_scheme_8.png","1","",""
"","","","","","image-button-response","132","604749","0.0-16.0-1.0-2.3","AA328A2B29A14E278ACF8AFDAD6CD03C","AA328A2B29A14E278ACF8AFDAD6CD03C","362fa7b8-9c89-4957-bab4-ed738b831216","a0a8f18c-a66e-4ba7-a170-23efbdc67501","{""participantId"":""AA328A2B29A14E278ACF8AFDAD6CD03C"",""assignmentId"":""362fa7b8-9c89-4957-bab4-ed738b831216"",""projectId"":""a0a8f18c-a66e-4ba7-a170-23efbdc67501""}","https://test12345.live/?participantId=AA328A2B29A14E278ACF8AFDAD6CD03C&assignmentId=362fa7b8-9c89-4957-bab4-ed738b831216&projectId=a0a8f18c-a66e-4ba7-a170-23efbdc67501","AA328A2B29A14E278ACF8AFDAD6CD03C-2024-11-24-19-25-10","","null","","[]","null","",""
"","","","","","image-button-response","133","609269","0.0-16.0-1.0-0.4","AA328A2B29A14E278ACF8AFDAD6CD03C","AA328A2B29A14E278ACF8AFDAD6CD03C","362fa7b8-9c89-4957-bab4-ed738b831216","a0a8f18c-a66e-4ba7-a170-23efbdc67501","{""participantId"":""AA328A2B29A14E278ACF8AFDAD6CD03C"",""assignmentId"":""362fa7b8-9c89-4957-bab4-ed738b831216"",""projectId"":""a0a8f18c-a66e-4ba7-a170-23efbdc67501""}","https://test12345.live/?participantId=AA328A2B29A14E278ACF8AFDAD6CD03C&assignmentId=362fa7b8-9c89-4957-bab4-ed738b831216&projectId=a0a8f18c-a66e-4ba7-a170-23efbdc67501","AA328A2B29A14E278ACF8AFDAD6CD03C-2024-11-24-19-25-10","","null","","images/schematic_sequence/flight_scheme/flight_scheme_6.png","null","",""
"","","","","","image-button-response","134","610623","0.0-16.0-1.0-1.4","AA328A2B29A14E278ACF8AFDAD6CD03C","AA328A2B29A14E278ACF8AFDAD6CD03C","362fa7b8-9c89-4957-bab4-ed738b831216","a0a8f18c-a66e-4ba7-a170-23efbdc67501","{""participantId"":""AA328A2B29A14E278ACF8AFDAD6CD03C"",""assignmentId"":""362fa7b8-9c89-4957-bab4-ed738b831216"",""projectId"":""a0a8f18c-a66e-4ba7-a170-23efbdc67501""}","https://test12345.live/?participantId=AA328A2B29A14E278ACF8AFDAD6CD03C&assignmentId=362fa7b8-9c89-4957-bab4-ed738b831216&projectId=a0a8f18c-a66e-4ba7-a170-23efbdc67501","AA328A2B29A14E278ACF8AFDAD6CD03C-2024-11-24-19-25-10","","1353","","images/schematic_sequence/flight_scheme/flight_scheme_6.png","1","",""
"","","","","","image-button-response","135","612439","0.0-16.0-1.0-2.4","AA328A2B29A14E278ACF8AFDAD6CD03C","AA328A2B29A14E278ACF8AFDAD6CD03C","362fa7b8-9c89-4957-bab4-ed738b831216","a0a8f18c-a66e-4ba7-a170-23efbdc67501","{""participantId"":""AA328A2B29A14E278ACF8AFDAD6CD03C"",""assignmentId"":""362fa7b8-9c89-4957-bab4-ed738b831216"",""projectId"":""a0a8f18c-a66e-4ba7-a170-23efbdc67501""}","https://test12345.live/?participantId=AA328A2B29A14E278ACF8AFDAD6CD03C&assignmentId=362fa7b8-9c89-4957-bab4-ed738b831216&projectId=a0a8f18c-a66e-4ba7-a170-23efbdc67501","AA328A2B29A14E278ACF8AFDAD6CD03C-2024-11-24-19-25-10","","null","","[]","null","",""
"","","","","","image-button-response","136","616959","0.0-16.0-1.0-0.5","AA328A2B29A14E278ACF8AFDAD6CD03C","AA328A2B29A14E278ACF8AFDAD6CD03C","362fa7b8-9c89-4957-bab4-ed738b831216","a0a8f18c-a66e-4ba7-a170-23efbdc67501","{""participantId"":""AA328A2B29A14E278ACF8AFDAD6CD03C"",""assignmentId"":""362fa7b8-9c89-4957-bab4-ed738b831216"",""projectId"":""a0a8f18c-a66e-4ba7-a170-23efbdc67501""}","https://test12345.live/?participantId=AA328A2B29A14E278ACF8AFDAD6CD03C&assignmentId=362fa7b8-9c89-4957-bab4-ed738b831216&projectId=a0a8f18c-a66e-4ba7-a170-23efbdc67501","AA328A2B29A14E278ACF8AFDAD6CD03C-2024-11-24-19-25-10","","null","","images/schematic_sequence/flight_scheme/flight_scheme_9.png","null","",""
"","","","","","image-button-response","137","617830","0.0-16.0-1.0-1.5","AA328A2B29A14E278ACF8AFDAD6CD03C","AA328A2B29A14E278ACF8AFDAD6CD03C","362fa7b8-9c89-4957-bab4-ed738b831216","a0a8f18c-a66e-4ba7-a170-23efbdc67501","{""participantId"":""AA328A2B29A14E278ACF8AFDAD6CD03C"",""assignmentId"":""362fa7b8-9c89-4957-bab4-ed738b831216"",""projectId"":""a0a8f18c-a66e-4ba7-a170-23efbdc67501""}","https://test12345.live/?participantId=AA328A2B29A14E278ACF8AFDAD6CD03C&assignmentId=362fa7b8-9c89-4957-bab4-ed738b831216&projectId=a0a8f18c-a66e-4ba7-a170-23efbdc67501","AA328A2B29A14E278ACF8AFDAD6CD03C-2024-11-24-19-25-10","","869","","images/schematic_sequence/flight_scheme/flight_scheme_9.png","0","",""
"","","","","","image-button-response","138","619649","0.0-16.0-1.0-2.5","AA328A2B29A14E278ACF8AFDAD6CD03C","AA328A2B29A14E278ACF8AFDAD6CD03C","362fa7b8-9c89-4957-bab4-ed738b831216","a0a8f18c-a66e-4ba7-a170-23efbdc67501","{""participantId"":""AA328A2B29A14E278ACF8AFDAD6CD03C"",""assignmentId"":""362fa7b8-9c89-4957-bab4-ed738b831216"",""projectId"":""a0a8f18c-a66e-4ba7-a170-23efbdc67501""}","https://test12345.live/?participantId=AA328A2B29A14E278ACF8AFDAD6CD03C&assignmentId=362fa7b8-9c89-4957-bab4-ed738b831216&projectId=a0a8f18c-a66e-4ba7-a170-23efbdc67501","AA328A2B29A14E278ACF8AFDAD6CD03C-2024-11-24-19-25-10","","null","","[]","null","",""
"","","","","","image-button-response","139","624159","0.0-16.0-1.0-0.6","AA328A2B29A14E278ACF8AFDAD6CD03C","AA328A2B29A14E278ACF8AFDAD6CD03C","362fa7b8-9c89-4957-bab4-ed738b831216","a0a8f18c-a66e-4ba7-a170-23efbdc67501","{""participantId"":""AA328A2B29A14E278ACF8AFDAD6CD03C"",""assignmentId"":""362fa7b8-9c89-4957-bab4-ed738b831216"",""projectId"":""a0a8f18c-a66e-4ba7-a170-23efbdc67501""}","https://test12345.live/?participantId=AA328A2B29A14E278ACF8AFDAD6CD03C&assignmentId=362fa7b8-9c89-4957-bab4-ed738b831216&projectId=a0a8f18c-a66e-4ba7-a170-23efbdc67501","AA328A2B29A14E278ACF8AFDAD6CD03C-2024-11-24-19-25-10","","null","","images/schematic_sequence/flight_scheme/flight_scheme_5.png","null","",""
"","","","","","image-button-response","140","625815","0.0-16.0-1.0-1.6","AA328A2B29A14E278ACF8AFDAD6CD03C","AA328A2B29A14E278ACF8AFDAD6CD03C","362fa7b8-9c89-4957-bab4-ed738b831216","a0a8f18c-a66e-4ba7-a170-23efbdc67501","{""participantId"":""AA328A2B29A14E278ACF8AFDAD6CD03C"",""assignmentId"":""362fa7b8-9c89-4957-bab4-ed738b831216"",""projectId"":""a0a8f18c-a66e-4ba7-a170-23efbdc67501""}","https://test12345.live/?participantId=AA328A2B29A14E278ACF8AFDAD6CD03C&assignmentId=362fa7b8-9c89-4957-bab4-ed738b831216&projectId=a0a8f18c-a66e-4ba7-a170-23efbdc67501","AA328A2B29A14E278ACF8AFDAD6CD03C-2024-11-24-19-25-10","","1655","","images/schematic_sequence/flight_scheme/flight_scheme_5.png","0","",""
"","","","","","image-button-response","141","627619","0.0-16.0-1.0-2.6","AA328A2B29A14E278ACF8AFDAD6CD03C","AA328A2B29A14E278ACF8AFDAD6CD03C","362fa7b8-9c89-4957-bab4-ed738b831216","a0a8f18c-a66e-4ba7-a170-23efbdc67501","{""participantId"":""AA328A2B29A14E278ACF8AFDAD6CD03C"",""assignmentId"":""362fa7b8-9c89-4957-bab4-ed738b831216"",""projectId"":""a0a8f18c-a66e-4ba7-a170-23efbdc67501""}","https://test12345.live/?participantId=AA328A2B29A14E278ACF8AFDAD6CD03C&assignmentId=362fa7b8-9c89-4957-bab4-ed738b831216&projectId=a0a8f18c-a66e-4ba7-a170-23efbdc67501","AA328A2B29A14E278ACF8AFDAD6CD03C-2024-11-24-19-25-10","","null","","[]","null","",""
"","","","","","image-button-response","142","632129","0.0-16.0-1.0-0.7","AA328A2B29A14E278ACF8AFDAD6CD03C","AA328A2B29A14E278ACF8AFDAD6CD03C","362fa7b8-9c89-4957-bab4-ed738b831216","a0a8f18c-a66e-4ba7-a170-23efbdc67501","{""participantId"":""AA328A2B29A14E278ACF8AFDAD6CD03C"",""assignmentId"":""362fa7b8-9c89-4957-bab4-ed738b831216"",""projectId"":""a0a8f18c-a66e-4ba7-a170-23efbdc67501""}","https://test12345.live/?participantId=AA328A2B29A14E278ACF8AFDAD6CD03C&assignmentId=362fa7b8-9c89-4957-bab4-ed738b831216&projectId=a0a8f18c-a66e-4ba7-a170-23efbdc67501","AA328A2B29A14E278ACF8AFDAD6CD03C-2024-11-24-19-25-10","","null","","images/schematic_sequence/flight_scheme/flight_scheme_4.png","null","",""
