"success","timeout","failed_images","failed_audio","failed_video","trial_type","trial_index","time_elapsed","internal_node_id","subject","subject_id","study_id","session_id","urlvar","current_url","audio_id","view_history","rt","device_id","stimulus","response","estimated_stimulus_onset","seq_name"
"true","false","[]","[]","[]","preload","0","3151","0.0-0.0","ACCA0E385C3E4AB0B0AB3D04C94529F2","ACCA0E385C3E4AB0B0AB3D04C94529F2","9a584632-9d2f-4880-a8c3-a8342106e884","ba640c14-69c5-453e-80b2-29051492c0e0","{""num_scrambled_semantic"":""8"",""num_scrambled_causal"":""4"",""num_scrambled_schematic"":""4"",""participantId"":""ACCA0E385C3E4AB0B0AB3D04C94529F2"",""assignmentId"":""9a584632-9d2f-4880-a8c3-a8342106e884"",""projectId"":""ba640c14-69c5-453e-80b2-29051492c0e0""}","https://test12345.live/?num_scrambled_semantic=8&num_scrambled_causal=4&num_scrambled_schematic=4&participantId=ACCA0E385C3E4AB0B0AB3D04C94529F2&assignmentId=9a584632-9d2f-4880-a8c3-a8342106e884&projectId=ba640c14-69c5-453e-80b2-29051492c0e0","ACCA0E385C3E4AB0B0AB3D04C94529F2-2025-05-14-21-07-22","","","","","","",""
"","","","","","instructions","1","18651","0.0-1.0","ACCA0E385C3E4AB0B0AB3D04C94529F2","ACCA0E385C3E4AB0B0AB3D04C94529F2","9a584632-9d2f-4880-a8c3-a8342106e884","ba640c14-69c5-453e-80b2-29051492c0e0","{""num_scrambled_semantic"":""8"",""num_scrambled_causal"":""4"",""num_scrambled_schematic"":""4"",""participantId"":""ACCA0E385C3E4AB0B0AB3D04C94529F2"",""assignmentId"":""9a584632-9d2f-4880-a8c3-a8342106e884"",""projectId"":""ba640c14-69c5-453e-80b2-29051492c0e0""}","https://test12345.live/?num_scrambled_semantic=8&num_scrambled_causal=4&num_scrambled_schematic=4&participantId=ACCA0E385C3E4AB0B0AB3D04C94529F2&assignmentId=9a584632-9d2f-4880-a8c3-a8342106e884&projectId=ba640c14-69c5-453e-80b2-29051492c0e0","ACCA0E385C3E4AB0B0AB3D04C94529F2-2025-05-14-21-07-22","[{""page_index"":0,""viewing_time"":15499}]","15500","","","","",""
"","","","","","instructions","2","21984","0.0-2.0","ACCA0E385C3E4AB0B0AB3D04C94529F2","ACCA0E385C3E4AB0B0AB3D04C94529F2","9a584632-9d2f-4880-a8c3-a8342106e884","ba640c14-69c5-453e-80b2-29051492c0e0","{""num_scrambled_semantic"":""8"",""num_scrambled_causal"":""4"",""num_scrambled_schematic"":""4"",""participantId"":""ACCA0E385C3E4AB0B0AB3D04C94529F2"",""assignmentId"":""9a584632-9d2f-4880-a8c3-a8342106e884"",""projectId"":""ba640c14-69c5-453e-80b2-29051492c0e0""}","https://test12345.live/?num_scrambled_semantic=8&num_scrambled_causal=4&num_scrambled_schematic=4&participantId=ACCA0E385C3E4AB0B0AB3D04C94529F2&assignmentId=9a584632-9d2f-4880-a8c3-a8342106e884&projectId=ba640c14-69c5-453e-80b2-29051492c0e0","ACCA0E385C3E4AB0B0AB3D04C94529F2-2025-05-14-21-07-22","[{""page_index"":0,""viewing_time"":3332}]","3333","","","","",""
"true","","","","","fullscreen","3","24738","0.0-3.0","ACCA0E385C3E4AB0B0AB3D04C94529F2","ACCA0E385C3E4AB0B0AB3D04C94529F2","9a584632-9d2f-4880-a8c3-a8342106e884","ba640c14-69c5-453e-80b2-29051492c0e0","{""num_scrambled_semantic"":""8"",""num_scrambled_causal"":""4"",""num_scrambled_schematic"":""4"",""participantId"":""ACCA0E385C3E4AB0B0AB3D04C94529F2"",""assignmentId"":""9a584632-9d2f-4880-a8c3-a8342106e884"",""projectId"":""ba640c14-69c5-453e-80b2-29051492c0e0""}","https://test12345.live/?num_scrambled_semantic=8&num_scrambled_causal=4&num_scrambled_schematic=4&participantId=ACCA0E385C3E4AB0B0AB3D04C94529F2&assignmentId=9a584632-9d2f-4880-a8c3-a8342106e884&projectId=ba640c14-69c5-453e-80b2-29051492c0e0","ACCA0E385C3E4AB0B0AB3D04C94529F2-2025-05-14-21-07-22","","1751","","","","",""
"","","","","","initialize-microphone","4","30522","0.0-4.0-0.0","ACCA0E385C3E4AB0B0AB3D04C94529F2","ACCA0E385C3E4AB0B0AB3D04C94529F2","9a584632-9d2f-4880-a8c3-a8342106e884","ba640c14-69c5-453e-80b2-29051492c0e0","{""num_scrambled_semantic"":""8"",""num_scrambled_causal"":""4"",""num_scrambled_schematic"":""4"",""participantId"":""ACCA0E385C3E4AB0B0AB3D04C94529F2"",""assignmentId"":""9a584632-9d2f-4880-a8c3-a8342106e884"",""projectId"":""ba640c14-69c5-453e-80b2-29051492c0e0""}","https://test12345.live/?num_scrambled_semantic=8&num_scrambled_causal=4&num_scrambled_schematic=4&participantId=ACCA0E385C3E4AB0B0AB3D04C94529F2&assignmentId=9a584632-9d2f-4880-a8c3-a8342106e884&projectId=ba640c14-69c5-453e-80b2-29051492c0e0","ACCA0E385C3E4AB0B0AB3D04C94529F2-2025-05-14-21-07-22","","","32737a2a726ebd0638c6f9a1de12ab19d809ec45cdcd9b836efc78bd6c27ca40","","","",""
"","","","","","html-audio-response","5","40952","0.0-4.0-1.0","ACCA0E385C3E4AB0B0AB3D04C94529F2","ACCA0E385C3E4AB0B0AB3D04C94529F2","9a584632-9d2f-4880-a8c3-a8342106e884","ba640c14-69c5-453e-80b2-29051492c0e0","{""num_scrambled_semantic"":""8"",""num_scrambled_causal"":""4"",""num_scrambled_schematic"":""4"",""participantId"":""ACCA0E385C3E4AB0B0AB3D04C94529F2"",""assignmentId"":""9a584632-9d2f-4880-a8c3-a8342106e884"",""projectId"":""ba640c14-69c5-453e-80b2-29051492c0e0""}","https://test12345.live/?num_scrambled_semantic=8&num_scrambled_causal=4&num_scrambled_schematic=4&participantId=ACCA0E385C3E4AB0B0AB3D04C94529F2&assignmentId=9a584632-9d2f-4880-a8c3-a8342106e884&projectId=ba640c14-69c5-453e-80b2-29051492c0e0","ACCA0E385C3E4AB0B0AB3D04C94529F2-2025-05-14-21-07-22","","4040","","<span style=""color: red; font-size: 24px""> NOW RECORDING</span>
        <p>Please test Microphone</p>","","2",""
"","","","","","html-button-response","6","43037","0.0-4.0-2.0","ACCA0E385C3E4AB0B0AB3D04C94529F2","ACCA0E385C3E4AB0B0AB3D04C94529F2","9a584632-9d2f-4880-a8c3-a8342106e884","ba640c14-69c5-453e-80b2-29051492c0e0","{""num_scrambled_semantic"":""8"",""num_scrambled_causal"":""4"",""num_scrambled_schematic"":""4"",""participantId"":""ACCA0E385C3E4AB0B0AB3D04C94529F2"",""assignmentId"":""9a584632-9d2f-4880-a8c3-a8342106e884"",""projectId"":""ba640c14-69c5-453e-80b2-29051492c0e0""}","https://test12345.live/?num_scrambled_semantic=8&num_scrambled_causal=4&num_scrambled_schematic=4&participantId=ACCA0E385C3E4AB0B0AB3D04C94529F2&assignmentId=9a584632-9d2f-4880-a8c3-a8342106e884&projectId=ba640c14-69c5-453e-80b2-29051492c0e0","ACCA0E385C3E4AB0B0AB3D04C94529F2-2025-05-14-21-07-22","","2082","","<p style=""font-size:48px; color:red;"">Is Microphone OK?</p>","1","",""
"","","","","","instructions","7","55667","0.0-5.0","ACCA0E385C3E4AB0B0AB3D04C94529F2","ACCA0E385C3E4AB0B0AB3D04C94529F2","9a584632-9d2f-4880-a8c3-a8342106e884","ba640c14-69c5-453e-80b2-29051492c0e0","{""num_scrambled_semantic"":""8"",""num_scrambled_causal"":""4"",""num_scrambled_schematic"":""4"",""participantId"":""ACCA0E385C3E4AB0B0AB3D04C94529F2"",""assignmentId"":""9a584632-9d2f-4880-a8c3-a8342106e884"",""projectId"":""ba640c14-69c5-453e-80b2-29051492c0e0""}","https://test12345.live/?num_scrambled_semantic=8&num_scrambled_causal=4&num_scrambled_schematic=4&participantId=ACCA0E385C3E4AB0B0AB3D04C94529F2&assignmentId=9a584632-9d2f-4880-a8c3-a8342106e884&projectId=ba640c14-69c5-453e-80b2-29051492c0e0","ACCA0E385C3E4AB0B0AB3D04C94529F2-2025-05-14-21-07-22","[{""page_index"":0,""viewing_time"":4734},{""page_index"":1,""viewing_time"":7895}]","12629","","","","",""
"","","","","","image-button-response","8","61677","0.0-6.0-0.0","ACCA0E385C3E4AB0B0AB3D04C94529F2","ACCA0E385C3E4AB0B0AB3D04C94529F2","9a584632-9d2f-4880-a8c3-a8342106e884","ba640c14-69c5-453e-80b2-29051492c0e0","{""num_scrambled_semantic"":""8"",""num_scrambled_causal"":""4"",""num_scrambled_schematic"":""4"",""participantId"":""ACCA0E385C3E4AB0B0AB3D04C94529F2"",""assignmentId"":""9a584632-9d2f-4880-a8c3-a8342106e884"",""projectId"":""ba640c14-69c5-453e-80b2-29051492c0e0""}","https://test12345.live/?num_scrambled_semantic=8&num_scrambled_causal=4&num_scrambled_schematic=4&participantId=ACCA0E385C3E4AB0B0AB3D04C94529F2&assignmentId=9a584632-9d2f-4880-a8c3-a8342106e884&projectId=ba640c14-69c5-453e-80b2-29051492c0e0","ACCA0E385C3E4AB0B0AB3D04C94529F2-2025-05-14-21-07-22","","null","","images/instructions/movie_0.png","null","",""
"","","","","","image-button-response","9","66184","0.0-6.0-1.0-0.0","ACCA0E385C3E4AB0B0AB3D04C94529F2","ACCA0E385C3E4AB0B0AB3D04C94529F2","9a584632-9d2f-4880-a8c3-a8342106e884","ba640c14-69c5-453e-80b2-29051492c0e0","{""num_scrambled_semantic"":""8"",""num_scrambled_causal"":""4"",""num_scrambled_schematic"":""4"",""participantId"":""ACCA0E385C3E4AB0B0AB3D04C94529F2"",""assignmentId"":""9a584632-9d2f-4880-a8c3-a8342106e884"",""projectId"":""ba640c14-69c5-453e-80b2-29051492c0e0""}","https://test12345.live/?num_scrambled_semantic=8&num_scrambled_causal=4&num_scrambled_schematic=4&participantId=ACCA0E385C3E4AB0B0AB3D04C94529F2&assignmentId=9a584632-9d2f-4880-a8c3-a8342106e884&projectId=ba640c14-69c5-453e-80b2-29051492c0e0","ACCA0E385C3E4AB0B0AB3D04C94529F2-2025-05-14-21-07-22","","null","","images/instructions/movie_1.png","null","",""
"","","","","","image-button-response","10","68570","0.0-6.0-1.0-1.0","ACCA0E385C3E4AB0B0AB3D04C94529F2","ACCA0E385C3E4AB0B0AB3D04C94529F2","9a584632-9d2f-4880-a8c3-a8342106e884","ba640c14-69c5-453e-80b2-29051492c0e0","{""num_scrambled_semantic"":""8"",""num_scrambled_causal"":""4"",""num_scrambled_schematic"":""4"",""participantId"":""ACCA0E385C3E4AB0B0AB3D04C94529F2"",""assignmentId"":""9a584632-9d2f-4880-a8c3-a8342106e884"",""projectId"":""ba640c14-69c5-453e-80b2-29051492c0e0""}","https://test12345.live/?num_scrambled_semantic=8&num_scrambled_causal=4&num_scrambled_schematic=4&participantId=ACCA0E385C3E4AB0B0AB3D04C94529F2&assignmentId=9a584632-9d2f-4880-a8c3-a8342106e884&projectId=ba640c14-69c5-453e-80b2-29051492c0e0","ACCA0E385C3E4AB0B0AB3D04C94529F2-2025-05-14-21-07-22","","2384","","images/instructions/movie_1.png","0","",""
"","","","","","image-button-response","11","70377","0.0-6.0-1.0-2.0","ACCA0E385C3E4AB0B0AB3D04C94529F2","ACCA0E385C3E4AB0B0AB3D04C94529F2","9a584632-9d2f-4880-a8c3-a8342106e884","ba640c14-69c5-453e-80b2-29051492c0e0","{""num_scrambled_semantic"":""8"",""num_scrambled_causal"":""4"",""num_scrambled_schematic"":""4"",""participantId"":""ACCA0E385C3E4AB0B0AB3D04C94529F2"",""assignmentId"":""9a584632-9d2f-4880-a8c3-a8342106e884"",""projectId"":""ba640c14-69c5-453e-80b2-29051492c0e0""}","https://test12345.live/?num_scrambled_semantic=8&num_scrambled_causal=4&num_scrambled_schematic=4&participantId=ACCA0E385C3E4AB0B0AB3D04C94529F2&assignmentId=9a584632-9d2f-4880-a8c3-a8342106e884&projectId=ba640c14-69c5-453e-80b2-29051492c0e0","ACCA0E385C3E4AB0B0AB3D04C94529F2-2025-05-14-21-07-22","","null","","[]","null","",""
"","","","","","image-button-response","12","74886","0.0-6.0-1.0-0.1","ACCA0E385C3E4AB0B0AB3D04C94529F2","ACCA0E385C3E4AB0B0AB3D04C94529F2","9a584632-9d2f-4880-a8c3-a8342106e884","ba640c14-69c5-453e-80b2-29051492c0e0","{""num_scrambled_semantic"":""8"",""num_scrambled_causal"":""4"",""num_scrambled_schematic"":""4"",""participantId"":""ACCA0E385C3E4AB0B0AB3D04C94529F2"",""assignmentId"":""9a584632-9d2f-4880-a8c3-a8342106e884"",""projectId"":""ba640c14-69c5-453e-80b2-29051492c0e0""}","https://test12345.live/?num_scrambled_semantic=8&num_scrambled_causal=4&num_scrambled_schematic=4&participantId=ACCA0E385C3E4AB0B0AB3D04C94529F2&assignmentId=9a584632-9d2f-4880-a8c3-a8342106e884&projectId=ba640c14-69c5-453e-80b2-29051492c0e0","ACCA0E385C3E4AB0B0AB3D04C94529F2-2025-05-14-21-07-22","","null","","images/instructions/movie_2.png","null","",""
"","","","","","image-button-response","13","76121","0.0-6.0-1.0-1.1","ACCA0E385C3E4AB0B0AB3D04C94529F2","ACCA0E385C3E4AB0B0AB3D04C94529F2","9a584632-9d2f-4880-a8c3-a8342106e884","ba640c14-69c5-453e-80b2-29051492c0e0","{""num_scrambled_semantic"":""8"",""num_scrambled_causal"":""4"",""num_scrambled_schematic"":""4"",""participantId"":""ACCA0E385C3E4AB0B0AB3D04C94529F2"",""assignmentId"":""9a584632-9d2f-4880-a8c3-a8342106e884"",""projectId"":""ba640c14-69c5-453e-80b2-29051492c0e0""}","https://test12345.live/?num_scrambled_semantic=8&num_scrambled_causal=4&num_scrambled_schematic=4&participantId=ACCA0E385C3E4AB0B0AB3D04C94529F2&assignmentId=9a584632-9d2f-4880-a8c3-a8342106e884&projectId=ba640c14-69c5-453e-80b2-29051492c0e0","ACCA0E385C3E4AB0B0AB3D04C94529F2-2025-05-14-21-07-22","","1233","","images/instructions/movie_2.png","0","",""
"","","","","","image-button-response","14","77925","0.0-6.0-1.0-2.1","ACCA0E385C3E4AB0B0AB3D04C94529F2","ACCA0E385C3E4AB0B0AB3D04C94529F2","9a584632-9d2f-4880-a8c3-a8342106e884","ba640c14-69c5-453e-80b2-29051492c0e0","{""num_scrambled_semantic"":""8"",""num_scrambled_causal"":""4"",""num_scrambled_schematic"":""4"",""participantId"":""ACCA0E385C3E4AB0B0AB3D04C94529F2"",""assignmentId"":""9a584632-9d2f-4880-a8c3-a8342106e884"",""projectId"":""ba640c14-69c5-453e-80b2-29051492c0e0""}","https://test12345.live/?num_scrambled_semantic=8&num_scrambled_causal=4&num_scrambled_schematic=4&participantId=ACCA0E385C3E4AB0B0AB3D04C94529F2&assignmentId=9a584632-9d2f-4880-a8c3-a8342106e884&projectId=ba640c14-69c5-453e-80b2-29051492c0e0","ACCA0E385C3E4AB0B0AB3D04C94529F2-2025-05-14-21-07-22","","null","","[]","null","",""
"","","","","","image-button-response","15","82432","0.0-6.0-1.0-0.2","ACCA0E385C3E4AB0B0AB3D04C94529F2","ACCA0E385C3E4AB0B0AB3D04C94529F2","9a584632-9d2f-4880-a8c3-a8342106e884","ba640c14-69c5-453e-80b2-29051492c0e0","{""num_scrambled_semantic"":""8"",""num_scrambled_causal"":""4"",""num_scrambled_schematic"":""4"",""participantId"":""ACCA0E385C3E4AB0B0AB3D04C94529F2"",""assignmentId"":""9a584632-9d2f-4880-a8c3-a8342106e884"",""projectId"":""ba640c14-69c5-453e-80b2-29051492c0e0""}","https://test12345.live/?num_scrambled_semantic=8&num_scrambled_causal=4&num_scrambled_schematic=4&participantId=ACCA0E385C3E4AB0B0AB3D04C94529F2&assignmentId=9a584632-9d2f-4880-a8c3-a8342106e884&projectId=ba640c14-69c5-453e-80b2-29051492c0e0","ACCA0E385C3E4AB0B0AB3D04C94529F2-2025-05-14-21-07-22","","null","","images/instructions/movie_3.png","null","",""
"","","","","","image-button-response","16","83268","0.0-6.0-1.0-1.2","ACCA0E385C3E4AB0B0AB3D04C94529F2","ACCA0E385C3E4AB0B0AB3D04C94529F2","9a584632-9d2f-4880-a8c3-a8342106e884","ba640c14-69c5-453e-80b2-29051492c0e0","{""num_scrambled_semantic"":""8"",""num_scrambled_causal"":""4"",""num_scrambled_schematic"":""4"",""participantId"":""ACCA0E385C3E4AB0B0AB3D04C94529F2"",""assignmentId"":""9a584632-9d2f-4880-a8c3-a8342106e884"",""projectId"":""ba640c14-69c5-453e-80b2-29051492c0e0""}","https://test12345.live/?num_scrambled_semantic=8&num_scrambled_causal=4&num_scrambled_schematic=4&participantId=ACCA0E385C3E4AB0B0AB3D04C94529F2&assignmentId=9a584632-9d2f-4880-a8c3-a8342106e884&projectId=ba640c14-69c5-453e-80b2-29051492c0e0","ACCA0E385C3E4AB0B0AB3D04C94529F2-2025-05-14-21-07-22","","833","","images/instructions/movie_3.png","0","",""
"","","","","","image-button-response","17","85070","0.0-6.0-1.0-2.2","ACCA0E385C3E4AB0B0AB3D04C94529F2","ACCA0E385C3E4AB0B0AB3D04C94529F2","9a584632-9d2f-4880-a8c3-a8342106e884","ba640c14-69c5-453e-80b2-29051492c0e0","{""num_scrambled_semantic"":""8"",""num_scrambled_causal"":""4"",""num_scrambled_schematic"":""4"",""participantId"":""ACCA0E385C3E4AB0B0AB3D04C94529F2"",""assignmentId"":""9a584632-9d2f-4880-a8c3-a8342106e884"",""projectId"":""ba640c14-69c5-453e-80b2-29051492c0e0""}","https://test12345.live/?num_scrambled_semantic=8&num_scrambled_causal=4&num_scrambled_schematic=4&participantId=ACCA0E385C3E4AB0B0AB3D04C94529F2&assignmentId=9a584632-9d2f-4880-a8c3-a8342106e884&projectId=ba640c14-69c5-453e-80b2-29051492c0e0","ACCA0E385C3E4AB0B0AB3D04C94529F2-2025-05-14-21-07-22","","null","","[]","null","",""
"","","","","","image-button-response","18","89573","0.0-6.0-1.0-0.3","ACCA0E385C3E4AB0B0AB3D04C94529F2","ACCA0E385C3E4AB0B0AB3D04C94529F2","9a584632-9d2f-4880-a8c3-a8342106e884","ba640c14-69c5-453e-80b2-29051492c0e0","{""num_scrambled_semantic"":""8"",""num_scrambled_causal"":""4"",""num_scrambled_schematic"":""4"",""participantId"":""ACCA0E385C3E4AB0B0AB3D04C94529F2"",""assignmentId"":""9a584632-9d2f-4880-a8c3-a8342106e884"",""projectId"":""ba640c14-69c5-453e-80b2-29051492c0e0""}","https://test12345.live/?num_scrambled_semantic=8&num_scrambled_causal=4&num_scrambled_schematic=4&participantId=ACCA0E385C3E4AB0B0AB3D04C94529F2&assignmentId=9a584632-9d2f-4880-a8c3-a8342106e884&projectId=ba640c14-69c5-453e-80b2-29051492c0e0","ACCA0E385C3E4AB0B0AB3D04C94529F2-2025-05-14-21-07-22","","null","","images/instructions/movie_4.png","null","",""
"","","","","","image-button-response","19","90618","0.0-6.0-1.0-1.3","ACCA0E385C3E4AB0B0AB3D04C94529F2","ACCA0E385C3E4AB0B0AB3D04C94529F2","9a584632-9d2f-4880-a8c3-a8342106e884","ba640c14-69c5-453e-80b2-29051492c0e0","{""num_scrambled_semantic"":""8"",""num_scrambled_causal"":""4"",""num_scrambled_schematic"":""4"",""participantId"":""ACCA0E385C3E4AB0B0AB3D04C94529F2"",""assignmentId"":""9a584632-9d2f-4880-a8c3-a8342106e884"",""projectId"":""ba640c14-69c5-453e-80b2-29051492c0e0""}","https://test12345.live/?num_scrambled_semantic=8&num_scrambled_causal=4&num_scrambled_schematic=4&participantId=ACCA0E385C3E4AB0B0AB3D04C94529F2&assignmentId=9a584632-9d2f-4880-a8c3-a8342106e884&projectId=ba640c14-69c5-453e-80b2-29051492c0e0","ACCA0E385C3E4AB0B0AB3D04C94529F2-2025-05-14-21-07-22","","1042","","images/instructions/movie_4.png","0","",""
"","","","","","image-button-response","20","92425","0.0-6.0-1.0-2.3","ACCA0E385C3E4AB0B0AB3D04C94529F2","ACCA0E385C3E4AB0B0AB3D04C94529F2","9a584632-9d2f-4880-a8c3-a8342106e884","ba640c14-69c5-453e-80b2-29051492c0e0","{""num_scrambled_semantic"":""8"",""num_scrambled_causal"":""4"",""num_scrambled_schematic"":""4"",""participantId"":""ACCA0E385C3E4AB0B0AB3D04C94529F2"",""assignmentId"":""9a584632-9d2f-4880-a8c3-a8342106e884"",""projectId"":""ba640c14-69c5-453e-80b2-29051492c0e0""}","https://test12345.live/?num_scrambled_semantic=8&num_scrambled_causal=4&num_scrambled_schematic=4&participantId=ACCA0E385C3E4AB0B0AB3D04C94529F2&assignmentId=9a584632-9d2f-4880-a8c3-a8342106e884&projectId=ba640c14-69c5-453e-80b2-29051492c0e0","ACCA0E385C3E4AB0B0AB3D04C94529F2-2025-05-14-21-07-22","","null","","[]","null","",""
"","","","","","instructions","21","98301","0.0-7.0","ACCA0E385C3E4AB0B0AB3D04C94529F2","ACCA0E385C3E4AB0B0AB3D04C94529F2","9a584632-9d2f-4880-a8c3-a8342106e884","ba640c14-69c5-453e-80b2-29051492c0e0","{""num_scrambled_semantic"":""8"",""num_scrambled_causal"":""4"",""num_scrambled_schematic"":""4"",""participantId"":""ACCA0E385C3E4AB0B0AB3D04C94529F2"",""assignmentId"":""9a584632-9d2f-4880-a8c3-a8342106e884"",""projectId"":""ba640c14-69c5-453e-80b2-29051492c0e0""}","https://test12345.live/?num_scrambled_semantic=8&num_scrambled_causal=4&num_scrambled_schematic=4&participantId=ACCA0E385C3E4AB0B0AB3D04C94529F2&assignmentId=9a584632-9d2f-4880-a8c3-a8342106e884&projectId=ba640c14-69c5-453e-80b2-29051492c0e0","ACCA0E385C3E4AB0B0AB3D04C94529F2-2025-05-14-21-07-22","[{""page_index"":0,""viewing_time"":4862},{""page_index"":1,""viewing_time"":1013}]","5876","","","","",""
"","","","","","html-audio-response","22","136739","0.0-8.0","ACCA0E385C3E4AB0B0AB3D04C94529F2","ACCA0E385C3E4AB0B0AB3D04C94529F2","9a584632-9d2f-4880-a8c3-a8342106e884","ba640c14-69c5-453e-80b2-29051492c0e0","{""num_scrambled_semantic"":""8"",""num_scrambled_causal"":""4"",""num_scrambled_schematic"":""4"",""participantId"":""ACCA0E385C3E4AB0B0AB3D04C94529F2"",""assignmentId"":""9a584632-9d2f-4880-a8c3-a8342106e884"",""projectId"":""ba640c14-69c5-453e-80b2-29051492c0e0""}","https://test12345.live/?num_scrambled_semantic=8&num_scrambled_causal=4&num_scrambled_schematic=4&participantId=ACCA0E385C3E4AB0B0AB3D04C94529F2&assignmentId=9a584632-9d2f-4880-a8c3-a8342106e884&projectId=ba640c14-69c5-453e-80b2-29051492c0e0","ACCA0E385C3E4AB0B0AB3D04C94529F2-2025-05-14-21-07-22","","13765","","[""<span style=\""color: red; font-size: 24px\""> NOW RECORDING</span><p>Please say out loud all the images you saw, as many as you can remember. The images can be said in any order.</p>""]","","11",""
"","","","","","instructions","23","137935","0.0-9.0","ACCA0E385C3E4AB0B0AB3D04C94529F2","ACCA0E385C3E4AB0B0AB3D04C94529F2","9a584632-9d2f-4880-a8c3-a8342106e884","ba640c14-69c5-453e-80b2-29051492c0e0","{""num_scrambled_semantic"":""8"",""num_scrambled_causal"":""4"",""num_scrambled_schematic"":""4"",""participantId"":""ACCA0E385C3E4AB0B0AB3D04C94529F2"",""assignmentId"":""9a584632-9d2f-4880-a8c3-a8342106e884"",""projectId"":""ba640c14-69c5-453e-80b2-29051492c0e0""}","https://test12345.live/?num_scrambled_semantic=8&num_scrambled_causal=4&num_scrambled_schematic=4&participantId=ACCA0E385C3E4AB0B0AB3D04C94529F2&assignmentId=9a584632-9d2f-4880-a8c3-a8342106e884&projectId=ba640c14-69c5-453e-80b2-29051492c0e0","ACCA0E385C3E4AB0B0AB3D04C94529F2-2025-05-14-21-07-22","[{""page_index"":0,""viewing_time"":1191}]","1192","","","","",""
"","","","","","image-button-response","24","143942","0.0-10.0-0.0","ACCA0E385C3E4AB0B0AB3D04C94529F2","ACCA0E385C3E4AB0B0AB3D04C94529F2","9a584632-9d2f-4880-a8c3-a8342106e884","ba640c14-69c5-453e-80b2-29051492c0e0","{""num_scrambled_semantic"":""8"",""num_scrambled_causal"":""4"",""num_scrambled_schematic"":""4"",""participantId"":""ACCA0E385C3E4AB0B0AB3D04C94529F2"",""assignmentId"":""9a584632-9d2f-4880-a8c3-a8342106e884"",""projectId"":""ba640c14-69c5-453e-80b2-29051492c0e0""}","https://test12345.live/?num_scrambled_semantic=8&num_scrambled_causal=4&num_scrambled_schematic=4&participantId=ACCA0E385C3E4AB0B0AB3D04C94529F2&assignmentId=9a584632-9d2f-4880-a8c3-a8342106e884&projectId=ba640c14-69c5-453e-80b2-29051492c0e0","ACCA0E385C3E4AB0B0AB3D04C94529F2-2025-05-14-21-07-22","","null","","images/causal_sequence/package_causal/package_causal_0.png","null","",""
"","","","","","image-button-response","25","148448","0.0-10.0-1.0-0.0","ACCA0E385C3E4AB0B0AB3D04C94529F2","ACCA0E385C3E4AB0B0AB3D04C94529F2","9a584632-9d2f-4880-a8c3-a8342106e884","ba640c14-69c5-453e-80b2-29051492c0e0","{""num_scrambled_semantic"":""8"",""num_scrambled_causal"":""4"",""num_scrambled_schematic"":""4"",""participantId"":""ACCA0E385C3E4AB0B0AB3D04C94529F2"",""assignmentId"":""9a584632-9d2f-4880-a8c3-a8342106e884"",""projectId"":""ba640c14-69c5-453e-80b2-29051492c0e0""}","https://test12345.live/?num_scrambled_semantic=8&num_scrambled_causal=4&num_scrambled_schematic=4&participantId=ACCA0E385C3E4AB0B0AB3D04C94529F2&assignmentId=9a584632-9d2f-4880-a8c3-a8342106e884&projectId=ba640c14-69c5-453e-80b2-29051492c0e0","ACCA0E385C3E4AB0B0AB3D04C94529F2-2025-05-14-21-07-22","","null","","images/causal_sequence/package_causal/package_causal_1.png","null","",""
"","","","","","image-button-response","26","149819","0.0-10.0-1.0-1.0","ACCA0E385C3E4AB0B0AB3D04C94529F2","ACCA0E385C3E4AB0B0AB3D04C94529F2","9a584632-9d2f-4880-a8c3-a8342106e884","ba640c14-69c5-453e-80b2-29051492c0e0","{""num_scrambled_semantic"":""8"",""num_scrambled_causal"":""4"",""num_scrambled_schematic"":""4"",""participantId"":""ACCA0E385C3E4AB0B0AB3D04C94529F2"",""assignmentId"":""9a584632-9d2f-4880-a8c3-a8342106e884"",""projectId"":""ba640c14-69c5-453e-80b2-29051492c0e0""}","https://test12345.live/?num_scrambled_semantic=8&num_scrambled_causal=4&num_scrambled_schematic=4&participantId=ACCA0E385C3E4AB0B0AB3D04C94529F2&assignmentId=9a584632-9d2f-4880-a8c3-a8342106e884&projectId=ba640c14-69c5-453e-80b2-29051492c0e0","ACCA0E385C3E4AB0B0AB3D04C94529F2-2025-05-14-21-07-22","","1368","","images/causal_sequence/package_causal/package_causal_1.png","0","",""
"","","","","","image-button-response","27","151625","0.0-10.0-1.0-2.0","ACCA0E385C3E4AB0B0AB3D04C94529F2","ACCA0E385C3E4AB0B0AB3D04C94529F2","9a584632-9d2f-4880-a8c3-a8342106e884","ba640c14-69c5-453e-80b2-29051492c0e0","{""num_scrambled_semantic"":""8"",""num_scrambled_causal"":""4"",""num_scrambled_schematic"":""4"",""participantId"":""ACCA0E385C3E4AB0B0AB3D04C94529F2"",""assignmentId"":""9a584632-9d2f-4880-a8c3-a8342106e884"",""projectId"":""ba640c14-69c5-453e-80b2-29051492c0e0""}","https://test12345.live/?num_scrambled_semantic=8&num_scrambled_causal=4&num_scrambled_schematic=4&participantId=ACCA0E385C3E4AB0B0AB3D04C94529F2&assignmentId=9a584632-9d2f-4880-a8c3-a8342106e884&projectId=ba640c14-69c5-453e-80b2-29051492c0e0","ACCA0E385C3E4AB0B0AB3D04C94529F2-2025-05-14-21-07-22","","null","","[]","null","",""
"","","","","","image-button-response","28","156129","0.0-10.0-1.0-0.1","ACCA0E385C3E4AB0B0AB3D04C94529F2","ACCA0E385C3E4AB0B0AB3D04C94529F2","9a584632-9d2f-4880-a8c3-a8342106e884","ba640c14-69c5-453e-80b2-29051492c0e0","{""num_scrambled_semantic"":""8"",""num_scrambled_causal"":""4"",""num_scrambled_schematic"":""4"",""participantId"":""ACCA0E385C3E4AB0B0AB3D04C94529F2"",""assignmentId"":""9a584632-9d2f-4880-a8c3-a8342106e884"",""projectId"":""ba640c14-69c5-453e-80b2-29051492c0e0""}","https://test12345.live/?num_scrambled_semantic=8&num_scrambled_causal=4&num_scrambled_schematic=4&participantId=ACCA0E385C3E4AB0B0AB3D04C94529F2&assignmentId=9a584632-9d2f-4880-a8c3-a8342106e884&projectId=ba640c14-69c5-453e-80b2-29051492c0e0","ACCA0E385C3E4AB0B0AB3D04C94529F2-2025-05-14-21-07-22","","null","","images/causal_sequence/package_causal/package_causal_2.png","null","",""
"","","","","","image-button-response","29","157035","0.0-10.0-1.0-1.1","ACCA0E385C3E4AB0B0AB3D04C94529F2","ACCA0E385C3E4AB0B0AB3D04C94529F2","9a584632-9d2f-4880-a8c3-a8342106e884","ba640c14-69c5-453e-80b2-29051492c0e0","{""num_scrambled_semantic"":""8"",""num_scrambled_causal"":""4"",""num_scrambled_schematic"":""4"",""participantId"":""ACCA0E385C3E4AB0B0AB3D04C94529F2"",""assignmentId"":""9a584632-9d2f-4880-a8c3-a8342106e884"",""projectId"":""ba640c14-69c5-453e-80b2-29051492c0e0""}","https://test12345.live/?num_scrambled_semantic=8&num_scrambled_causal=4&num_scrambled_schematic=4&participantId=ACCA0E385C3E4AB0B0AB3D04C94529F2&assignmentId=9a584632-9d2f-4880-a8c3-a8342106e884&projectId=ba640c14-69c5-453e-80b2-29051492c0e0","ACCA0E385C3E4AB0B0AB3D04C94529F2-2025-05-14-21-07-22","","904","","images/causal_sequence/package_causal/package_causal_2.png","1","",""
"","","","","","image-button-response","30","158841","0.0-10.0-1.0-2.1","ACCA0E385C3E4AB0B0AB3D04C94529F2","ACCA0E385C3E4AB0B0AB3D04C94529F2","9a584632-9d2f-4880-a8c3-a8342106e884","ba640c14-69c5-453e-80b2-29051492c0e0","{""num_scrambled_semantic"":""8"",""num_scrambled_causal"":""4"",""num_scrambled_schematic"":""4"",""participantId"":""ACCA0E385C3E4AB0B0AB3D04C94529F2"",""assignmentId"":""9a584632-9d2f-4880-a8c3-a8342106e884"",""projectId"":""ba640c14-69c5-453e-80b2-29051492c0e0""}","https://test12345.live/?num_scrambled_semantic=8&num_scrambled_causal=4&num_scrambled_schematic=4&participantId=ACCA0E385C3E4AB0B0AB3D04C94529F2&assignmentId=9a584632-9d2f-4880-a8c3-a8342106e884&projectId=ba640c14-69c5-453e-80b2-29051492c0e0","ACCA0E385C3E4AB0B0AB3D04C94529F2-2025-05-14-21-07-22","","null","","[]","null","",""
"","","","","","image-button-response","31","163345","0.0-10.0-1.0-0.2","ACCA0E385C3E4AB0B0AB3D04C94529F2","ACCA0E385C3E4AB0B0AB3D04C94529F2","9a584632-9d2f-4880-a8c3-a8342106e884","ba640c14-69c5-453e-80b2-29051492c0e0","{""num_scrambled_semantic"":""8"",""num_scrambled_causal"":""4"",""num_scrambled_schematic"":""4"",""participantId"":""ACCA0E385C3E4AB0B0AB3D04C94529F2"",""assignmentId"":""9a584632-9d2f-4880-a8c3-a8342106e884"",""projectId"":""ba640c14-69c5-453e-80b2-29051492c0e0""}","https://test12345.live/?num_scrambled_semantic=8&num_scrambled_causal=4&num_scrambled_schematic=4&participantId=ACCA0E385C3E4AB0B0AB3D04C94529F2&assignmentId=9a584632-9d2f-4880-a8c3-a8342106e884&projectId=ba640c14-69c5-453e-80b2-29051492c0e0","ACCA0E385C3E4AB0B0AB3D04C94529F2-2025-05-14-21-07-22","","null","","images/causal_sequence/package_causal/package_causal_3.png","null","",""
"","","","","","image-button-response","32","164252","0.0-10.0-1.0-1.2","ACCA0E385C3E4AB0B0AB3D04C94529F2","ACCA0E385C3E4AB0B0AB3D04C94529F2","9a584632-9d2f-4880-a8c3-a8342106e884","ba640c14-69c5-453e-80b2-29051492c0e0","{""num_scrambled_semantic"":""8"",""num_scrambled_causal"":""4"",""num_scrambled_schematic"":""4"",""participantId"":""ACCA0E385C3E4AB0B0AB3D04C94529F2"",""assignmentId"":""9a584632-9d2f-4880-a8c3-a8342106e884"",""projectId"":""ba640c14-69c5-453e-80b2-29051492c0e0""}","https://test12345.live/?num_scrambled_semantic=8&num_scrambled_causal=4&num_scrambled_schematic=4&participantId=ACCA0E385C3E4AB0B0AB3D04C94529F2&assignmentId=9a584632-9d2f-4880-a8c3-a8342106e884&projectId=ba640c14-69c5-453e-80b2-29051492c0e0","ACCA0E385C3E4AB0B0AB3D04C94529F2-2025-05-14-21-07-22","","905","","images/causal_sequence/package_causal/package_causal_3.png","0","",""
"","","","","","image-button-response","33","166059","0.0-10.0-1.0-2.2","ACCA0E385C3E4AB0B0AB3D04C94529F2","ACCA0E385C3E4AB0B0AB3D04C94529F2","9a584632-9d2f-4880-a8c3-a8342106e884","ba640c14-69c5-453e-80b2-29051492c0e0","{""num_scrambled_semantic"":""8"",""num_scrambled_causal"":""4"",""num_scrambled_schematic"":""4"",""participantId"":""ACCA0E385C3E4AB0B0AB3D04C94529F2"",""assignmentId"":""9a584632-9d2f-4880-a8c3-a8342106e884"",""projectId"":""ba640c14-69c5-453e-80b2-29051492c0e0""}","https://test12345.live/?num_scrambled_semantic=8&num_scrambled_causal=4&num_scrambled_schematic=4&participantId=ACCA0E385C3E4AB0B0AB3D04C94529F2&assignmentId=9a584632-9d2f-4880-a8c3-a8342106e884&projectId=ba640c14-69c5-453e-80b2-29051492c0e0","ACCA0E385C3E4AB0B0AB3D04C94529F2-2025-05-14-21-07-22","","null","","[]","null","",""
"","","","","","image-button-response","34","170561","0.0-10.0-1.0-0.3","ACCA0E385C3E4AB0B0AB3D04C94529F2","ACCA0E385C3E4AB0B0AB3D04C94529F2","9a584632-9d2f-4880-a8c3-a8342106e884","ba640c14-69c5-453e-80b2-29051492c0e0","{""num_scrambled_semantic"":""8"",""num_scrambled_causal"":""4"",""num_scrambled_schematic"":""4"",""participantId"":""ACCA0E385C3E4AB0B0AB3D04C94529F2"",""assignmentId"":""9a584632-9d2f-4880-a8c3-a8342106e884"",""projectId"":""ba640c14-69c5-453e-80b2-29051492c0e0""}","https://test12345.live/?num_scrambled_semantic=8&num_scrambled_causal=4&num_scrambled_schematic=4&participantId=ACCA0E385C3E4AB0B0AB3D04C94529F2&assignmentId=9a584632-9d2f-4880-a8c3-a8342106e884&projectId=ba640c14-69c5-453e-80b2-29051492c0e0","ACCA0E385C3E4AB0B0AB3D04C94529F2-2025-05-14-21-07-22","","null","","images/causal_sequence/package_causal/package_causal_4.png","null","",""
"","","","","","image-button-response","35","171904","0.0-10.0-1.0-1.3","ACCA0E385C3E4AB0B0AB3D04C94529F2","ACCA0E385C3E4AB0B0AB3D04C94529F2","9a584632-9d2f-4880-a8c3-a8342106e884","ba640c14-69c5-453e-80b2-29051492c0e0","{""num_scrambled_semantic"":""8"",""num_scrambled_causal"":""4"",""num_scrambled_schematic"":""4"",""participantId"":""ACCA0E385C3E4AB0B0AB3D04C94529F2"",""assignmentId"":""9a584632-9d2f-4880-a8c3-a8342106e884"",""projectId"":""ba640c14-69c5-453e-80b2-29051492c0e0""}","https://test12345.live/?num_scrambled_semantic=8&num_scrambled_causal=4&num_scrambled_schematic=4&participantId=ACCA0E385C3E4AB0B0AB3D04C94529F2&assignmentId=9a584632-9d2f-4880-a8c3-a8342106e884&projectId=ba640c14-69c5-453e-80b2-29051492c0e0","ACCA0E385C3E4AB0B0AB3D04C94529F2-2025-05-14-21-07-22","","1341","","images/causal_sequence/package_causal/package_causal_4.png","1","",""
"","","","","","image-button-response","36","173711","0.0-10.0-1.0-2.3","ACCA0E385C3E4AB0B0AB3D04C94529F2","ACCA0E385C3E4AB0B0AB3D04C94529F2","9a584632-9d2f-4880-a8c3-a8342106e884","ba640c14-69c5-453e-80b2-29051492c0e0","{""num_scrambled_semantic"":""8"",""num_scrambled_causal"":""4"",""num_scrambled_schematic"":""4"",""participantId"":""ACCA0E385C3E4AB0B0AB3D04C94529F2"",""assignmentId"":""9a584632-9d2f-4880-a8c3-a8342106e884"",""projectId"":""ba640c14-69c5-453e-80b2-29051492c0e0""}","https://test12345.live/?num_scrambled_semantic=8&num_scrambled_causal=4&num_scrambled_schematic=4&participantId=ACCA0E385C3E4AB0B0AB3D04C94529F2&assignmentId=9a584632-9d2f-4880-a8c3-a8342106e884&projectId=ba640c14-69c5-453e-80b2-29051492c0e0","ACCA0E385C3E4AB0B0AB3D04C94529F2-2025-05-14-21-07-22","","null","","[]","null","",""
"","","","","","image-button-response","37","178218","0.0-10.0-1.0-0.4","ACCA0E385C3E4AB0B0AB3D04C94529F2","ACCA0E385C3E4AB0B0AB3D04C94529F2","9a584632-9d2f-4880-a8c3-a8342106e884","ba640c14-69c5-453e-80b2-29051492c0e0","{""num_scrambled_semantic"":""8"",""num_scrambled_causal"":""4"",""num_scrambled_schematic"":""4"",""participantId"":""ACCA0E385C3E4AB0B0AB3D04C94529F2"",""assignmentId"":""9a584632-9d2f-4880-a8c3-a8342106e884"",""projectId"":""ba640c14-69c5-453e-80b2-29051492c0e0""}","https://test12345.live/?num_scrambled_semantic=8&num_scrambled_causal=4&num_scrambled_schematic=4&participantId=ACCA0E385C3E4AB0B0AB3D04C94529F2&assignmentId=9a584632-9d2f-4880-a8c3-a8342106e884&projectId=ba640c14-69c5-453e-80b2-29051492c0e0","ACCA0E385C3E4AB0B0AB3D04C94529F2-2025-05-14-21-07-22","","null","","images/causal_sequence/package_causal/package_causal_5.png","null","",""
"","","","","","image-button-response","38","179285","0.0-10.0-1.0-1.4","ACCA0E385C3E4AB0B0AB3D04C94529F2","ACCA0E385C3E4AB0B0AB3D04C94529F2","9a584632-9d2f-4880-a8c3-a8342106e884","ba640c14-69c5-453e-80b2-29051492c0e0","{""num_scrambled_semantic"":""8"",""num_scrambled_causal"":""4"",""num_scrambled_schematic"":""4"",""participantId"":""ACCA0E385C3E4AB0B0AB3D04C94529F2"",""assignmentId"":""9a584632-9d2f-4880-a8c3-a8342106e884"",""projectId"":""ba640c14-69c5-453e-80b2-29051492c0e0""}","https://test12345.live/?num_scrambled_semantic=8&num_scrambled_causal=4&num_scrambled_schematic=4&participantId=ACCA0E385C3E4AB0B0AB3D04C94529F2&assignmentId=9a584632-9d2f-4880-a8c3-a8342106e884&projectId=ba640c14-69c5-453e-80b2-29051492c0e0","ACCA0E385C3E4AB0B0AB3D04C94529F2-2025-05-14-21-07-22","","1065","","images/causal_sequence/package_causal/package_causal_5.png","0","",""
"","","","","","image-button-response","39","181093","0.0-10.0-1.0-2.4","ACCA0E385C3E4AB0B0AB3D04C94529F2","ACCA0E385C3E4AB0B0AB3D04C94529F2","9a584632-9d2f-4880-a8c3-a8342106e884","ba640c14-69c5-453e-80b2-29051492c0e0","{""num_scrambled_semantic"":""8"",""num_scrambled_causal"":""4"",""num_scrambled_schematic"":""4"",""participantId"":""ACCA0E385C3E4AB0B0AB3D04C94529F2"",""assignmentId"":""9a584632-9d2f-4880-a8c3-a8342106e884"",""projectId"":""ba640c14-69c5-453e-80b2-29051492c0e0""}","https://test12345.live/?num_scrambled_semantic=8&num_scrambled_causal=4&num_scrambled_schematic=4&participantId=ACCA0E385C3E4AB0B0AB3D04C94529F2&assignmentId=9a584632-9d2f-4880-a8c3-a8342106e884&projectId=ba640c14-69c5-453e-80b2-29051492c0e0","ACCA0E385C3E4AB0B0AB3D04C94529F2-2025-05-14-21-07-22","","null","","[]","null","",""
"","","","","","image-button-response","40","185598","0.0-10.0-1.0-0.5","ACCA0E385C3E4AB0B0AB3D04C94529F2","ACCA0E385C3E4AB0B0AB3D04C94529F2","9a584632-9d2f-4880-a8c3-a8342106e884","ba640c14-69c5-453e-80b2-29051492c0e0","{""num_scrambled_semantic"":""8"",""num_scrambled_causal"":""4"",""num_scrambled_schematic"":""4"",""participantId"":""ACCA0E385C3E4AB0B0AB3D04C94529F2"",""assignmentId"":""9a584632-9d2f-4880-a8c3-a8342106e884"",""projectId"":""ba640c14-69c5-453e-80b2-29051492c0e0""}","https://test12345.live/?num_scrambled_semantic=8&num_scrambled_causal=4&num_scrambled_schematic=4&participantId=ACCA0E385C3E4AB0B0AB3D04C94529F2&assignmentId=9a584632-9d2f-4880-a8c3-a8342106e884&projectId=ba640c14-69c5-453e-80b2-29051492c0e0","ACCA0E385C3E4AB0B0AB3D04C94529F2-2025-05-14-21-07-22","","null","","images/causal_sequence/package_causal/package_causal_6.png","null","",""
"","","","","","image-button-response","41","186919","0.0-10.0-1.0-1.5","ACCA0E385C3E4AB0B0AB3D04C94529F2","ACCA0E385C3E4AB0B0AB3D04C94529F2","9a584632-9d2f-4880-a8c3-a8342106e884","ba640c14-69c5-453e-80b2-29051492c0e0","{""num_scrambled_semantic"":""8"",""num_scrambled_causal"":""4"",""num_scrambled_schematic"":""4"",""participantId"":""ACCA0E385C3E4AB0B0AB3D04C94529F2"",""assignmentId"":""9a584632-9d2f-4880-a8c3-a8342106e884"",""projectId"":""ba640c14-69c5-453e-80b2-29051492c0e0""}","https://test12345.live/?num_scrambled_semantic=8&num_scrambled_causal=4&num_scrambled_schematic=4&participantId=ACCA0E385C3E4AB0B0AB3D04C94529F2&assignmentId=9a584632-9d2f-4880-a8c3-a8342106e884&projectId=ba640c14-69c5-453e-80b2-29051492c0e0","ACCA0E385C3E4AB0B0AB3D04C94529F2-2025-05-14-21-07-22","","1318","","images/causal_sequence/package_causal/package_causal_6.png","0","",""
"","","","","","image-button-response","42","188725","0.0-10.0-1.0-2.5","ACCA0E385C3E4AB0B0AB3D04C94529F2","ACCA0E385C3E4AB0B0AB3D04C94529F2","9a584632-9d2f-4880-a8c3-a8342106e884","ba640c14-69c5-453e-80b2-29051492c0e0","{""num_scrambled_semantic"":""8"",""num_scrambled_causal"":""4"",""num_scrambled_schematic"":""4"",""participantId"":""ACCA0E385C3E4AB0B0AB3D04C94529F2"",""assignmentId"":""9a584632-9d2f-4880-a8c3-a8342106e884"",""projectId"":""ba640c14-69c5-453e-80b2-29051492c0e0""}","https://test12345.live/?num_scrambled_semantic=8&num_scrambled_causal=4&num_scrambled_schematic=4&participantId=ACCA0E385C3E4AB0B0AB3D04C94529F2&assignmentId=9a584632-9d2f-4880-a8c3-a8342106e884&projectId=ba640c14-69c5-453e-80b2-29051492c0e0","ACCA0E385C3E4AB0B0AB3D04C94529F2-2025-05-14-21-07-22","","null","","[]","null","",""
"","","","","","image-button-response","43","193232","0.0-10.0-1.0-0.6","ACCA0E385C3E4AB0B0AB3D04C94529F2","ACCA0E385C3E4AB0B0AB3D04C94529F2","9a584632-9d2f-4880-a8c3-a8342106e884","ba640c14-69c5-453e-80b2-29051492c0e0","{""num_scrambled_semantic"":""8"",""num_scrambled_causal"":""4"",""num_scrambled_schematic"":""4"",""participantId"":""ACCA0E385C3E4AB0B0AB3D04C94529F2"",""assignmentId"":""9a584632-9d2f-4880-a8c3-a8342106e884"",""projectId"":""ba640c14-69c5-453e-80b2-29051492c0e0""}","https://test12345.live/?num_scrambled_semantic=8&num_scrambled_causal=4&num_scrambled_schematic=4&participantId=ACCA0E385C3E4AB0B0AB3D04C94529F2&assignmentId=9a584632-9d2f-4880-a8c3-a8342106e884&projectId=ba640c14-69c5-453e-80b2-29051492c0e0","ACCA0E385C3E4AB0B0AB3D04C94529F2-2025-05-14-21-07-22","","null","","images/causal_sequence/package_causal/package_causal_7.png","null","",""
"","","","","","image-button-response","44","194519","0.0-10.0-1.0-1.6","ACCA0E385C3E4AB0B0AB3D04C94529F2","ACCA0E385C3E4AB0B0AB3D04C94529F2","9a584632-9d2f-4880-a8c3-a8342106e884","ba640c14-69c5-453e-80b2-29051492c0e0","{""num_scrambled_semantic"":""8"",""num_scrambled_causal"":""4"",""num_scrambled_schematic"":""4"",""participantId"":""ACCA0E385C3E4AB0B0AB3D04C94529F2"",""assignmentId"":""9a584632-9d2f-4880-a8c3-a8342106e884"",""projectId"":""ba640c14-69c5-453e-80b2-29051492c0e0""}","https://test12345.live/?num_scrambled_semantic=8&num_scrambled_causal=4&num_scrambled_schematic=4&participantId=ACCA0E385C3E4AB0B0AB3D04C94529F2&assignmentId=9a584632-9d2f-4880-a8c3-a8342106e884&projectId=ba640c14-69c5-453e-80b2-29051492c0e0","ACCA0E385C3E4AB0B0AB3D04C94529F2-2025-05-14-21-07-22","","1285","","images/causal_sequence/package_causal/package_causal_7.png","0","",""
"","","","","","image-button-response","45","196321","0.0-10.0-1.0-2.6","ACCA0E385C3E4AB0B0AB3D04C94529F2","ACCA0E385C3E4AB0B0AB3D04C94529F2","9a584632-9d2f-4880-a8c3-a8342106e884","ba640c14-69c5-453e-80b2-29051492c0e0","{""num_scrambled_semantic"":""8"",""num_scrambled_causal"":""4"",""num_scrambled_schematic"":""4"",""participantId"":""ACCA0E385C3E4AB0B0AB3D04C94529F2"",""assignmentId"":""9a584632-9d2f-4880-a8c3-a8342106e884"",""projectId"":""ba640c14-69c5-453e-80b2-29051492c0e0""}","https://test12345.live/?num_scrambled_semantic=8&num_scrambled_causal=4&num_scrambled_schematic=4&participantId=ACCA0E385C3E4AB0B0AB3D04C94529F2&assignmentId=9a584632-9d2f-4880-a8c3-a8342106e884&projectId=ba640c14-69c5-453e-80b2-29051492c0e0","ACCA0E385C3E4AB0B0AB3D04C94529F2-2025-05-14-21-07-22","","null","","[]","null","",""
"","","","","","image-button-response","46","200828","0.0-10.0-1.0-0.7","ACCA0E385C3E4AB0B0AB3D04C94529F2","ACCA0E385C3E4AB0B0AB3D04C94529F2","9a584632-9d2f-4880-a8c3-a8342106e884","ba640c14-69c5-453e-80b2-29051492c0e0","{""num_scrambled_semantic"":""8"",""num_scrambled_causal"":""4"",""num_scrambled_schematic"":""4"",""participantId"":""ACCA0E385C3E4AB0B0AB3D04C94529F2"",""assignmentId"":""9a584632-9d2f-4880-a8c3-a8342106e884"",""projectId"":""ba640c14-69c5-453e-80b2-29051492c0e0""}","https://test12345.live/?num_scrambled_semantic=8&num_scrambled_causal=4&num_scrambled_schematic=4&participantId=ACCA0E385C3E4AB0B0AB3D04C94529F2&assignmentId=9a584632-9d2f-4880-a8c3-a8342106e884&projectId=ba640c14-69c5-453e-80b2-29051492c0e0","ACCA0E385C3E4AB0B0AB3D04C94529F2-2025-05-14-21-07-22","","null","","images/causal_sequence/package_causal/package_causal_8.png","null","",""
"","","","","","image-button-response","47","201719","0.0-10.0-1.0-1.7","ACCA0E385C3E4AB0B0AB3D04C94529F2","ACCA0E385C3E4AB0B0AB3D04C94529F2","9a584632-9d2f-4880-a8c3-a8342106e884","ba640c14-69c5-453e-80b2-29051492c0e0","{""num_scrambled_semantic"":""8"",""num_scrambled_causal"":""4"",""num_scrambled_schematic"":""4"",""participantId"":""ACCA0E385C3E4AB0B0AB3D04C94529F2"",""assignmentId"":""9a584632-9d2f-4880-a8c3-a8342106e884"",""projectId"":""ba640c14-69c5-453e-80b2-29051492c0e0""}","https://test12345.live/?num_scrambled_semantic=8&num_scrambled_causal=4&num_scrambled_schematic=4&participantId=ACCA0E385C3E4AB0B0AB3D04C94529F2&assignmentId=9a584632-9d2f-4880-a8c3-a8342106e884&projectId=ba640c14-69c5-453e-80b2-29051492c0e0","ACCA0E385C3E4AB0B0AB3D04C94529F2-2025-05-14-21-07-22","","889","","images/causal_sequence/package_causal/package_causal_8.png","0","",""
"","","","","","image-button-response","48","203526","0.0-10.0-1.0-2.7","ACCA0E385C3E4AB0B0AB3D04C94529F2","ACCA0E385C3E4AB0B0AB3D04C94529F2","9a584632-9d2f-4880-a8c3-a8342106e884","ba640c14-69c5-453e-80b2-29051492c0e0","{""num_scrambled_semantic"":""8"",""num_scrambled_causal"":""4"",""num_scrambled_schematic"":""4"",""participantId"":""ACCA0E385C3E4AB0B0AB3D04C94529F2"",""assignmentId"":""9a584632-9d2f-4880-a8c3-a8342106e884"",""projectId"":""ba640c14-69c5-453e-80b2-29051492c0e0""}","https://test12345.live/?num_scrambled_semantic=8&num_scrambled_causal=4&num_scrambled_schematic=4&participantId=ACCA0E385C3E4AB0B0AB3D04C94529F2&assignmentId=9a584632-9d2f-4880-a8c3-a8342106e884&projectId=ba640c14-69c5-453e-80b2-29051492c0e0","ACCA0E385C3E4AB0B0AB3D04C94529F2-2025-05-14-21-07-22","","null","","[]","null","",""
"","","","","","image-button-response","49","208031","0.0-10.0-1.0-0.8","ACCA0E385C3E4AB0B0AB3D04C94529F2","ACCA0E385C3E4AB0B0AB3D04C94529F2","9a584632-9d2f-4880-a8c3-a8342106e884","ba640c14-69c5-453e-80b2-29051492c0e0","{""num_scrambled_semantic"":""8"",""num_scrambled_causal"":""4"",""num_scrambled_schematic"":""4"",""participantId"":""ACCA0E385C3E4AB0B0AB3D04C94529F2"",""assignmentId"":""9a584632-9d2f-4880-a8c3-a8342106e884"",""projectId"":""ba640c14-69c5-453e-80b2-29051492c0e0""}","https://test12345.live/?num_scrambled_semantic=8&num_scrambled_causal=4&num_scrambled_schematic=4&participantId=ACCA0E385C3E4AB0B0AB3D04C94529F2&assignmentId=9a584632-9d2f-4880-a8c3-a8342106e884&projectId=ba640c14-69c5-453e-80b2-29051492c0e0","ACCA0E385C3E4AB0B0AB3D04C94529F2-2025-05-14-21-07-22","","null","","images/causal_sequence/package_causal/package_causal_9.png","null","",""
"","","","","","image-button-response","50","208889","0.0-10.0-1.0-1.8","ACCA0E385C3E4AB0B0AB3D04C94529F2","ACCA0E385C3E4AB0B0AB3D04C94529F2","9a584632-9d2f-4880-a8c3-a8342106e884","ba640c14-69c5-453e-80b2-29051492c0e0","{""num_scrambled_semantic"":""8"",""num_scrambled_causal"":""4"",""num_scrambled_schematic"":""4"",""participantId"":""ACCA0E385C3E4AB0B0AB3D04C94529F2"",""assignmentId"":""9a584632-9d2f-4880-a8c3-a8342106e884"",""projectId"":""ba640c14-69c5-453e-80b2-29051492c0e0""}","https://test12345.live/?num_scrambled_semantic=8&num_scrambled_causal=4&num_scrambled_schematic=4&participantId=ACCA0E385C3E4AB0B0AB3D04C94529F2&assignmentId=9a584632-9d2f-4880-a8c3-a8342106e884&projectId=ba640c14-69c5-453e-80b2-29051492c0e0","ACCA0E385C3E4AB0B0AB3D04C94529F2-2025-05-14-21-07-22","","856","","images/causal_sequence/package_causal/package_causal_9.png","0","",""
"","","","","","image-button-response","51","210695","0.0-10.0-1.0-2.8","ACCA0E385C3E4AB0B0AB3D04C94529F2","ACCA0E385C3E4AB0B0AB3D04C94529F2","9a584632-9d2f-4880-a8c3-a8342106e884","ba640c14-69c5-453e-80b2-29051492c0e0","{""num_scrambled_semantic"":""8"",""num_scrambled_causal"":""4"",""num_scrambled_schematic"":""4"",""participantId"":""ACCA0E385C3E4AB0B0AB3D04C94529F2"",""assignmentId"":""9a584632-9d2f-4880-a8c3-a8342106e884"",""projectId"":""ba640c14-69c5-453e-80b2-29051492c0e0""}","https://test12345.live/?num_scrambled_semantic=8&num_scrambled_causal=4&num_scrambled_schematic=4&participantId=ACCA0E385C3E4AB0B0AB3D04C94529F2&assignmentId=9a584632-9d2f-4880-a8c3-a8342106e884&projectId=ba640c14-69c5-453e-80b2-29051492c0e0","ACCA0E385C3E4AB0B0AB3D04C94529F2-2025-05-14-21-07-22","","null","","[]","null","",""
"","","","","","image-button-response","52","215201","0.0-10.0-1.0-0.9","ACCA0E385C3E4AB0B0AB3D04C94529F2","ACCA0E385C3E4AB0B0AB3D04C94529F2","9a584632-9d2f-4880-a8c3-a8342106e884","ba640c14-69c5-453e-80b2-29051492c0e0","{""num_scrambled_semantic"":""8"",""num_scrambled_causal"":""4"",""num_scrambled_schematic"":""4"",""participantId"":""ACCA0E385C3E4AB0B0AB3D04C94529F2"",""assignmentId"":""9a584632-9d2f-4880-a8c3-a8342106e884"",""projectId"":""ba640c14-69c5-453e-80b2-29051492c0e0""}","https://test12345.live/?num_scrambled_semantic=8&num_scrambled_causal=4&num_scrambled_schematic=4&participantId=ACCA0E385C3E4AB0B0AB3D04C94529F2&assignmentId=9a584632-9d2f-4880-a8c3-a8342106e884&projectId=ba640c14-69c5-453e-80b2-29051492c0e0","ACCA0E385C3E4AB0B0AB3D04C94529F2-2025-05-14-21-07-22","","null","","images/causal_sequence/package_causal/package_causal_ten.png","null","",""
"","","","","","image-button-response","53","216188","0.0-10.0-1.0-1.9","ACCA0E385C3E4AB0B0AB3D04C94529F2","ACCA0E385C3E4AB0B0AB3D04C94529F2","9a584632-9d2f-4880-a8c3-a8342106e884","ba640c14-69c5-453e-80b2-29051492c0e0","{""num_scrambled_semantic"":""8"",""num_scrambled_causal"":""4"",""num_scrambled_schematic"":""4"",""participantId"":""ACCA0E385C3E4AB0B0AB3D04C94529F2"",""assignmentId"":""9a584632-9d2f-4880-a8c3-a8342106e884"",""projectId"":""ba640c14-69c5-453e-80b2-29051492c0e0""}","https://test12345.live/?num_scrambled_semantic=8&num_scrambled_causal=4&num_scrambled_schematic=4&participantId=ACCA0E385C3E4AB0B0AB3D04C94529F2&assignmentId=9a584632-9d2f-4880-a8c3-a8342106e884&projectId=ba640c14-69c5-453e-80b2-29051492c0e0","ACCA0E385C3E4AB0B0AB3D04C94529F2-2025-05-14-21-07-22","","985","","images/causal_sequence/package_causal/package_causal_ten.png","0","",""
"","","","","","image-button-response","54","217992","0.0-10.0-1.0-2.9","ACCA0E385C3E4AB0B0AB3D04C94529F2","ACCA0E385C3E4AB0B0AB3D04C94529F2","9a584632-9d2f-4880-a8c3-a8342106e884","ba640c14-69c5-453e-80b2-29051492c0e0","{""num_scrambled_semantic"":""8"",""num_scrambled_causal"":""4"",""num_scrambled_schematic"":""4"",""participantId"":""ACCA0E385C3E4AB0B0AB3D04C94529F2"",""assignmentId"":""9a584632-9d2f-4880-a8c3-a8342106e884"",""projectId"":""ba640c14-69c5-453e-80b2-29051492c0e0""}","https://test12345.live/?num_scrambled_semantic=8&num_scrambled_causal=4&num_scrambled_schematic=4&participantId=ACCA0E385C3E4AB0B0AB3D04C94529F2&assignmentId=9a584632-9d2f-4880-a8c3-a8342106e884&projectId=ba640c14-69c5-453e-80b2-29051492c0e0","ACCA0E385C3E4AB0B0AB3D04C94529F2-2025-05-14-21-07-22","","null","","[]","null","",""
"","","","","","html-audio-response","55","238136","0.0-11.0","ACCA0E385C3E4AB0B0AB3D04C94529F2","ACCA0E385C3E4AB0B0AB3D04C94529F2","9a584632-9d2f-4880-a8c3-a8342106e884","ba640c14-69c5-453e-80b2-29051492c0e0","{""num_scrambled_semantic"":""8"",""num_scrambled_causal"":""4"",""num_scrambled_schematic"":""4"",""participantId"":""ACCA0E385C3E4AB0B0AB3D04C94529F2"",""assignmentId"":""9a584632-9d2f-4880-a8c3-a8342106e884"",""projectId"":""ba640c14-69c5-453e-80b2-29051492c0e0""}","https://test12345.live/?num_scrambled_semantic=8&num_scrambled_causal=4&num_scrambled_schematic=4&participantId=ACCA0E385C3E4AB0B0AB3D04C94529F2&assignmentId=9a584632-9d2f-4880-a8c3-a8342106e884&projectId=ba640c14-69c5-453e-80b2-29051492c0e0","ACCA0E385C3E4AB0B0AB3D04C94529F2-2025-05-14-21-07-22","","14209","","[""<span style=\""color: red; font-size: 24px\""> NOW RECORDING</span><p>Please say out loud all the images you saw, as many as you can remember. The images can be said in any order.</p>""]","","3","package_causal"
"","","","","","image-button-response","56","244145","0.0-12.0-0.0","ACCA0E385C3E4AB0B0AB3D04C94529F2","ACCA0E385C3E4AB0B0AB3D04C94529F2","9a584632-9d2f-4880-a8c3-a8342106e884","ba640c14-69c5-453e-80b2-29051492c0e0","{""num_scrambled_semantic"":""8"",""num_scrambled_causal"":""4"",""num_scrambled_schematic"":""4"",""participantId"":""ACCA0E385C3E4AB0B0AB3D04C94529F2"",""assignmentId"":""9a584632-9d2f-4880-a8c3-a8342106e884"",""projectId"":""ba640c14-69c5-453e-80b2-29051492c0e0""}","https://test12345.live/?num_scrambled_semantic=8&num_scrambled_causal=4&num_scrambled_schematic=4&participantId=ACCA0E385C3E4AB0B0AB3D04C94529F2&assignmentId=9a584632-9d2f-4880-a8c3-a8342106e884&projectId=ba640c14-69c5-453e-80b2-29051492c0e0","ACCA0E385C3E4AB0B0AB3D04C94529F2-2025-05-14-21-07-22","","null","","images/semantic_sequence/cat_care_semantic/cat_care_semantic_0.png","null","",""
"","","","","","image-button-response","57","248647","0.0-12.0-1.0-0.0","ACCA0E385C3E4AB0B0AB3D04C94529F2","ACCA0E385C3E4AB0B0AB3D04C94529F2","9a584632-9d2f-4880-a8c3-a8342106e884","ba640c14-69c5-453e-80b2-29051492c0e0","{""num_scrambled_semantic"":""8"",""num_scrambled_causal"":""4"",""num_scrambled_schematic"":""4"",""participantId"":""ACCA0E385C3E4AB0B0AB3D04C94529F2"",""assignmentId"":""9a584632-9d2f-4880-a8c3-a8342106e884"",""projectId"":""ba640c14-69c5-453e-80b2-29051492c0e0""}","https://test12345.live/?num_scrambled_semantic=8&num_scrambled_causal=4&num_scrambled_schematic=4&participantId=ACCA0E385C3E4AB0B0AB3D04C94529F2&assignmentId=9a584632-9d2f-4880-a8c3-a8342106e884&projectId=ba640c14-69c5-453e-80b2-29051492c0e0","ACCA0E385C3E4AB0B0AB3D04C94529F2-2025-05-14-21-07-22","","null","","images/semantic_sequence/cat_care_semantic/cat_care_semantic_5.png","null","",""
"","","","","","image-button-response","58","249572","0.0-12.0-1.0-1.0","ACCA0E385C3E4AB0B0AB3D04C94529F2","ACCA0E385C3E4AB0B0AB3D04C94529F2","9a584632-9d2f-4880-a8c3-a8342106e884","ba640c14-69c5-453e-80b2-29051492c0e0","{""num_scrambled_semantic"":""8"",""num_scrambled_causal"":""4"",""num_scrambled_schematic"":""4"",""participantId"":""ACCA0E385C3E4AB0B0AB3D04C94529F2"",""assignmentId"":""9a584632-9d2f-4880-a8c3-a8342106e884"",""projectId"":""ba640c14-69c5-453e-80b2-29051492c0e0""}","https://test12345.live/?num_scrambled_semantic=8&num_scrambled_causal=4&num_scrambled_schematic=4&participantId=ACCA0E385C3E4AB0B0AB3D04C94529F2&assignmentId=9a584632-9d2f-4880-a8c3-a8342106e884&projectId=ba640c14-69c5-453e-80b2-29051492c0e0","ACCA0E385C3E4AB0B0AB3D04C94529F2-2025-05-14-21-07-22","","924","","images/semantic_sequence/cat_care_semantic/cat_care_semantic_5.png","0","",""
"","","","","","image-button-response","59","251379","0.0-12.0-1.0-2.0","ACCA0E385C3E4AB0B0AB3D04C94529F2","ACCA0E385C3E4AB0B0AB3D04C94529F2","9a584632-9d2f-4880-a8c3-a8342106e884","ba640c14-69c5-453e-80b2-29051492c0e0","{""num_scrambled_semantic"":""8"",""num_scrambled_causal"":""4"",""num_scrambled_schematic"":""4"",""participantId"":""ACCA0E385C3E4AB0B0AB3D04C94529F2"",""assignmentId"":""9a584632-9d2f-4880-a8c3-a8342106e884"",""projectId"":""ba640c14-69c5-453e-80b2-29051492c0e0""}","https://test12345.live/?num_scrambled_semantic=8&num_scrambled_causal=4&num_scrambled_schematic=4&participantId=ACCA0E385C3E4AB0B0AB3D04C94529F2&assignmentId=9a584632-9d2f-4880-a8c3-a8342106e884&projectId=ba640c14-69c5-453e-80b2-29051492c0e0","ACCA0E385C3E4AB0B0AB3D04C94529F2-2025-05-14-21-07-22","","null","","[]","null","",""
"","","","","","image-button-response","60","255884","0.0-12.0-1.0-0.1","ACCA0E385C3E4AB0B0AB3D04C94529F2","ACCA0E385C3E4AB0B0AB3D04C94529F2","9a584632-9d2f-4880-a8c3-a8342106e884","ba640c14-69c5-453e-80b2-29051492c0e0","{""num_scrambled_semantic"":""8"",""num_scrambled_causal"":""4"",""num_scrambled_schematic"":""4"",""participantId"":""ACCA0E385C3E4AB0B0AB3D04C94529F2"",""assignmentId"":""9a584632-9d2f-4880-a8c3-a8342106e884"",""projectId"":""ba640c14-69c5-453e-80b2-29051492c0e0""}","https://test12345.live/?num_scrambled_semantic=8&num_scrambled_causal=4&num_scrambled_schematic=4&participantId=ACCA0E385C3E4AB0B0AB3D04C94529F2&assignmentId=9a584632-9d2f-4880-a8c3-a8342106e884&projectId=ba640c14-69c5-453e-80b2-29051492c0e0","ACCA0E385C3E4AB0B0AB3D04C94529F2-2025-05-14-21-07-22","","null","","images/semantic_sequence/cat_care_semantic/cat_care_semantic_3.png","null","",""
"","","","","","image-button-response","61","256820","0.0-12.0-1.0-1.1","ACCA0E385C3E4AB0B0AB3D04C94529F2","ACCA0E385C3E4AB0B0AB3D04C94529F2","9a584632-9d2f-4880-a8c3-a8342106e884","ba640c14-69c5-453e-80b2-29051492c0e0","{""num_scrambled_semantic"":""8"",""num_scrambled_causal"":""4"",""num_scrambled_schematic"":""4"",""participantId"":""ACCA0E385C3E4AB0B0AB3D04C94529F2"",""assignmentId"":""9a584632-9d2f-4880-a8c3-a8342106e884"",""projectId"":""ba640c14-69c5-453e-80b2-29051492c0e0""}","https://test12345.live/?num_scrambled_semantic=8&num_scrambled_causal=4&num_scrambled_schematic=4&participantId=ACCA0E385C3E4AB0B0AB3D04C94529F2&assignmentId=9a584632-9d2f-4880-a8c3-a8342106e884&projectId=ba640c14-69c5-453e-80b2-29051492c0e0","ACCA0E385C3E4AB0B0AB3D04C94529F2-2025-05-14-21-07-22","","934","","images/semantic_sequence/cat_care_semantic/cat_care_semantic_3.png","0","",""
"","","","","","image-button-response","62","258626","0.0-12.0-1.0-2.1","ACCA0E385C3E4AB0B0AB3D04C94529F2","ACCA0E385C3E4AB0B0AB3D04C94529F2","9a584632-9d2f-4880-a8c3-a8342106e884","ba640c14-69c5-453e-80b2-29051492c0e0","{""num_scrambled_semantic"":""8"",""num_scrambled_causal"":""4"",""num_scrambled_schematic"":""4"",""participantId"":""ACCA0E385C3E4AB0B0AB3D04C94529F2"",""assignmentId"":""9a584632-9d2f-4880-a8c3-a8342106e884"",""projectId"":""ba640c14-69c5-453e-80b2-29051492c0e0""}","https://test12345.live/?num_scrambled_semantic=8&num_scrambled_causal=4&num_scrambled_schematic=4&participantId=ACCA0E385C3E4AB0B0AB3D04C94529F2&assignmentId=9a584632-9d2f-4880-a8c3-a8342106e884&projectId=ba640c14-69c5-453e-80b2-29051492c0e0","ACCA0E385C3E4AB0B0AB3D04C94529F2-2025-05-14-21-07-22","","null","","[]","null","",""
"","","","","","image-button-response","63","263134","0.0-12.0-1.0-0.2","ACCA0E385C3E4AB0B0AB3D04C94529F2","ACCA0E385C3E4AB0B0AB3D04C94529F2","9a584632-9d2f-4880-a8c3-a8342106e884","ba640c14-69c5-453e-80b2-29051492c0e0","{""num_scrambled_semantic"":""8"",""num_scrambled_causal"":""4"",""num_scrambled_schematic"":""4"",""participantId"":""ACCA0E385C3E4AB0B0AB3D04C94529F2"",""assignmentId"":""9a584632-9d2f-4880-a8c3-a8342106e884"",""projectId"":""ba640c14-69c5-453e-80b2-29051492c0e0""}","https://test12345.live/?num_scrambled_semantic=8&num_scrambled_causal=4&num_scrambled_schematic=4&participantId=ACCA0E385C3E4AB0B0AB3D04C94529F2&assignmentId=9a584632-9d2f-4880-a8c3-a8342106e884&projectId=ba640c14-69c5-453e-80b2-29051492c0e0","ACCA0E385C3E4AB0B0AB3D04C94529F2-2025-05-14-21-07-22","","null","","images/semantic_sequence/cat_care_semantic/cat_care_semantic_7.png","null","",""
"","","","","","image-button-response","64","264053","0.0-12.0-1.0-1.2","ACCA0E385C3E4AB0B0AB3D04C94529F2","ACCA0E385C3E4AB0B0AB3D04C94529F2","9a584632-9d2f-4880-a8c3-a8342106e884","ba640c14-69c5-453e-80b2-29051492c0e0","{""num_scrambled_semantic"":""8"",""num_scrambled_causal"":""4"",""num_scrambled_schematic"":""4"",""participantId"":""ACCA0E385C3E4AB0B0AB3D04C94529F2"",""assignmentId"":""9a584632-9d2f-4880-a8c3-a8342106e884"",""projectId"":""ba640c14-69c5-453e-80b2-29051492c0e0""}","https://test12345.live/?num_scrambled_semantic=8&num_scrambled_causal=4&num_scrambled_schematic=4&participantId=ACCA0E385C3E4AB0B0AB3D04C94529F2&assignmentId=9a584632-9d2f-4880-a8c3-a8342106e884&projectId=ba640c14-69c5-453e-80b2-29051492c0e0","ACCA0E385C3E4AB0B0AB3D04C94529F2-2025-05-14-21-07-22","","917","","images/semantic_sequence/cat_care_semantic/cat_care_semantic_7.png","0","",""
"","","","","","image-button-response","65","265859","0.0-12.0-1.0-2.2","ACCA0E385C3E4AB0B0AB3D04C94529F2","ACCA0E385C3E4AB0B0AB3D04C94529F2","9a584632-9d2f-4880-a8c3-a8342106e884","ba640c14-69c5-453e-80b2-29051492c0e0","{""num_scrambled_semantic"":""8"",""num_scrambled_causal"":""4"",""num_scrambled_schematic"":""4"",""participantId"":""ACCA0E385C3E4AB0B0AB3D04C94529F2"",""assignmentId"":""9a584632-9d2f-4880-a8c3-a8342106e884"",""projectId"":""ba640c14-69c5-453e-80b2-29051492c0e0""}","https://test12345.live/?num_scrambled_semantic=8&num_scrambled_causal=4&num_scrambled_schematic=4&participantId=ACCA0E385C3E4AB0B0AB3D04C94529F2&assignmentId=9a584632-9d2f-4880-a8c3-a8342106e884&projectId=ba640c14-69c5-453e-80b2-29051492c0e0","ACCA0E385C3E4AB0B0AB3D04C94529F2-2025-05-14-21-07-22","","null","","[]","null","",""
"","","","","","image-button-response","66","270363","0.0-12.0-1.0-0.3","ACCA0E385C3E4AB0B0AB3D04C94529F2","ACCA0E385C3E4AB0B0AB3D04C94529F2","9a584632-9d2f-4880-a8c3-a8342106e884","ba640c14-69c5-453e-80b2-29051492c0e0","{""num_scrambled_semantic"":""8"",""num_scrambled_causal"":""4"",""num_scrambled_schematic"":""4"",""participantId"":""ACCA0E385C3E4AB0B0AB3D04C94529F2"",""assignmentId"":""9a584632-9d2f-4880-a8c3-a8342106e884"",""projectId"":""ba640c14-69c5-453e-80b2-29051492c0e0""}","https://test12345.live/?num_scrambled_semantic=8&num_scrambled_causal=4&num_scrambled_schematic=4&participantId=ACCA0E385C3E4AB0B0AB3D04C94529F2&assignmentId=9a584632-9d2f-4880-a8c3-a8342106e884&projectId=ba640c14-69c5-453e-80b2-29051492c0e0","ACCA0E385C3E4AB0B0AB3D04C94529F2-2025-05-14-21-07-22","","null","","images/semantic_sequence/cat_care_semantic/cat_care_semantic_6.png","null","",""
"","","","","","image-button-response","67","271436","0.0-12.0-1.0-1.3","ACCA0E385C3E4AB0B0AB3D04C94529F2","ACCA0E385C3E4AB0B0AB3D04C94529F2","9a584632-9d2f-4880-a8c3-a8342106e884","ba640c14-69c5-453e-80b2-29051492c0e0","{""num_scrambled_semantic"":""8"",""num_scrambled_causal"":""4"",""num_scrambled_schematic"":""4"",""participantId"":""ACCA0E385C3E4AB0B0AB3D04C94529F2"",""assignmentId"":""9a584632-9d2f-4880-a8c3-a8342106e884"",""projectId"":""ba640c14-69c5-453e-80b2-29051492c0e0""}","https://test12345.live/?num_scrambled_semantic=8&num_scrambled_causal=4&num_scrambled_schematic=4&participantId=ACCA0E385C3E4AB0B0AB3D04C94529F2&assignmentId=9a584632-9d2f-4880-a8c3-a8342106e884&projectId=ba640c14-69c5-453e-80b2-29051492c0e0","ACCA0E385C3E4AB0B0AB3D04C94529F2-2025-05-14-21-07-22","","1071","","images/semantic_sequence/cat_care_semantic/cat_care_semantic_6.png","0","",""
"","","","","","image-button-response","68","273239","0.0-12.0-1.0-2.3","ACCA0E385C3E4AB0B0AB3D04C94529F2","ACCA0E385C3E4AB0B0AB3D04C94529F2","9a584632-9d2f-4880-a8c3-a8342106e884","ba640c14-69c5-453e-80b2-29051492c0e0","{""num_scrambled_semantic"":""8"",""num_scrambled_causal"":""4"",""num_scrambled_schematic"":""4"",""participantId"":""ACCA0E385C3E4AB0B0AB3D04C94529F2"",""assignmentId"":""9a584632-9d2f-4880-a8c3-a8342106e884"",""projectId"":""ba640c14-69c5-453e-80b2-29051492c0e0""}","https://test12345.live/?num_scrambled_semantic=8&num_scrambled_causal=4&num_scrambled_schematic=4&participantId=ACCA0E385C3E4AB0B0AB3D04C94529F2&assignmentId=9a584632-9d2f-4880-a8c3-a8342106e884&projectId=ba640c14-69c5-453e-80b2-29051492c0e0","ACCA0E385C3E4AB0B0AB3D04C94529F2-2025-05-14-21-07-22","","null","","[]","null","",""
"","","","","","image-button-response","69","277742","0.0-12.0-1.0-0.4","ACCA0E385C3E4AB0B0AB3D04C94529F2","ACCA0E385C3E4AB0B0AB3D04C94529F2","9a584632-9d2f-4880-a8c3-a8342106e884","ba640c14-69c5-453e-80b2-29051492c0e0","{""num_scrambled_semantic"":""8"",""num_scrambled_causal"":""4"",""num_scrambled_schematic"":""4"",""participantId"":""ACCA0E385C3E4AB0B0AB3D04C94529F2"",""assignmentId"":""9a584632-9d2f-4880-a8c3-a8342106e884"",""projectId"":""ba640c14-69c5-453e-80b2-29051492c0e0""}","https://test12345.live/?num_scrambled_semantic=8&num_scrambled_causal=4&num_scrambled_schematic=4&participantId=ACCA0E385C3E4AB0B0AB3D04C94529F2&assignmentId=9a584632-9d2f-4880-a8c3-a8342106e884&projectId=ba640c14-69c5-453e-80b2-29051492c0e0","ACCA0E385C3E4AB0B0AB3D04C94529F2-2025-05-14-21-07-22","","null","","images/semantic_sequence/cat_care_semantic/cat_care_semantic_8.png","null","",""
"","","","","","image-button-response","70","278506","0.0-12.0-1.0-1.4","ACCA0E385C3E4AB0B0AB3D04C94529F2","ACCA0E385C3E4AB0B0AB3D04C94529F2","9a584632-9d2f-4880-a8c3-a8342106e884","ba640c14-69c5-453e-80b2-29051492c0e0","{""num_scrambled_semantic"":""8"",""num_scrambled_causal"":""4"",""num_scrambled_schematic"":""4"",""participantId"":""ACCA0E385C3E4AB0B0AB3D04C94529F2"",""assignmentId"":""9a584632-9d2f-4880-a8c3-a8342106e884"",""projectId"":""ba640c14-69c5-453e-80b2-29051492c0e0""}","https://test12345.live/?num_scrambled_semantic=8&num_scrambled_causal=4&num_scrambled_schematic=4&participantId=ACCA0E385C3E4AB0B0AB3D04C94529F2&assignmentId=9a584632-9d2f-4880-a8c3-a8342106e884&projectId=ba640c14-69c5-453e-80b2-29051492c0e0","ACCA0E385C3E4AB0B0AB3D04C94529F2-2025-05-14-21-07-22","","762","","images/semantic_sequence/cat_care_semantic/cat_care_semantic_8.png","0","",""
"","","","","","image-button-response","71","280309","0.0-12.0-1.0-2.4","ACCA0E385C3E4AB0B0AB3D04C94529F2","ACCA0E385C3E4AB0B0AB3D04C94529F2","9a584632-9d2f-4880-a8c3-a8342106e884","ba640c14-69c5-453e-80b2-29051492c0e0","{""num_scrambled_semantic"":""8"",""num_scrambled_causal"":""4"",""num_scrambled_schematic"":""4"",""participantId"":""ACCA0E385C3E4AB0B0AB3D04C94529F2"",""assignmentId"":""9a584632-9d2f-4880-a8c3-a8342106e884"",""projectId"":""ba640c14-69c5-453e-80b2-29051492c0e0""}","https://test12345.live/?num_scrambled_semantic=8&num_scrambled_causal=4&num_scrambled_schematic=4&participantId=ACCA0E385C3E4AB0B0AB3D04C94529F2&assignmentId=9a584632-9d2f-4880-a8c3-a8342106e884&projectId=ba640c14-69c5-453e-80b2-29051492c0e0","ACCA0E385C3E4AB0B0AB3D04C94529F2-2025-05-14-21-07-22","","null","","[]","null","",""
"","","","","","image-button-response","72","284813","0.0-12.0-1.0-0.5","ACCA0E385C3E4AB0B0AB3D04C94529F2","ACCA0E385C3E4AB0B0AB3D04C94529F2","9a584632-9d2f-4880-a8c3-a8342106e884","ba640c14-69c5-453e-80b2-29051492c0e0","{""num_scrambled_semantic"":""8"",""num_scrambled_causal"":""4"",""num_scrambled_schematic"":""4"",""participantId"":""ACCA0E385C3E4AB0B0AB3D04C94529F2"",""assignmentId"":""9a584632-9d2f-4880-a8c3-a8342106e884"",""projectId"":""ba640c14-69c5-453e-80b2-29051492c0e0""}","https://test12345.live/?num_scrambled_semantic=8&num_scrambled_causal=4&num_scrambled_schematic=4&participantId=ACCA0E385C3E4AB0B0AB3D04C94529F2&assignmentId=9a584632-9d2f-4880-a8c3-a8342106e884&projectId=ba640c14-69c5-453e-80b2-29051492c0e0","ACCA0E385C3E4AB0B0AB3D04C94529F2-2025-05-14-21-07-22","","null","","images/semantic_sequence/cat_care_semantic/cat_care_semantic_ten.png","null","",""
"","","","","","image-button-response","73","285654","0.0-12.0-1.0-1.5","ACCA0E385C3E4AB0B0AB3D04C94529F2","ACCA0E385C3E4AB0B0AB3D04C94529F2","9a584632-9d2f-4880-a8c3-a8342106e884","ba640c14-69c5-453e-80b2-29051492c0e0","{""num_scrambled_semantic"":""8"",""num_scrambled_causal"":""4"",""num_scrambled_schematic"":""4"",""participantId"":""ACCA0E385C3E4AB0B0AB3D04C94529F2"",""assignmentId"":""9a584632-9d2f-4880-a8c3-a8342106e884"",""projectId"":""ba640c14-69c5-453e-80b2-29051492c0e0""}","https://test12345.live/?num_scrambled_semantic=8&num_scrambled_causal=4&num_scrambled_schematic=4&participantId=ACCA0E385C3E4AB0B0AB3D04C94529F2&assignmentId=9a584632-9d2f-4880-a8c3-a8342106e884&projectId=ba640c14-69c5-453e-80b2-29051492c0e0","ACCA0E385C3E4AB0B0AB3D04C94529F2-2025-05-14-21-07-22","","839","","images/semantic_sequence/cat_care_semantic/cat_care_semantic_ten.png","1","",""
"","","","","","image-button-response","74","287460","0.0-12.0-1.0-2.5","ACCA0E385C3E4AB0B0AB3D04C94529F2","ACCA0E385C3E4AB0B0AB3D04C94529F2","9a584632-9d2f-4880-a8c3-a8342106e884","ba640c14-69c5-453e-80b2-29051492c0e0","{""num_scrambled_semantic"":""8"",""num_scrambled_causal"":""4"",""num_scrambled_schematic"":""4"",""participantId"":""ACCA0E385C3E4AB0B0AB3D04C94529F2"",""assignmentId"":""9a584632-9d2f-4880-a8c3-a8342106e884"",""projectId"":""ba640c14-69c5-453e-80b2-29051492c0e0""}","https://test12345.live/?num_scrambled_semantic=8&num_scrambled_causal=4&num_scrambled_schematic=4&participantId=ACCA0E385C3E4AB0B0AB3D04C94529F2&assignmentId=9a584632-9d2f-4880-a8c3-a8342106e884&projectId=ba640c14-69c5-453e-80b2-29051492c0e0","ACCA0E385C3E4AB0B0AB3D04C94529F2-2025-05-14-21-07-22","","null","","[]","null","",""
"","","","","","image-button-response","75","291963","0.0-12.0-1.0-0.6","ACCA0E385C3E4AB0B0AB3D04C94529F2","ACCA0E385C3E4AB0B0AB3D04C94529F2","9a584632-9d2f-4880-a8c3-a8342106e884","ba640c14-69c5-453e-80b2-29051492c0e0","{""num_scrambled_semantic"":""8"",""num_scrambled_causal"":""4"",""num_scrambled_schematic"":""4"",""participantId"":""ACCA0E385C3E4AB0B0AB3D04C94529F2"",""assignmentId"":""9a584632-9d2f-4880-a8c3-a8342106e884"",""projectId"":""ba640c14-69c5-453e-80b2-29051492c0e0""}","https://test12345.live/?num_scrambled_semantic=8&num_scrambled_causal=4&num_scrambled_schematic=4&participantId=ACCA0E385C3E4AB0B0AB3D04C94529F2&assignmentId=9a584632-9d2f-4880-a8c3-a8342106e884&projectId=ba640c14-69c5-453e-80b2-29051492c0e0","ACCA0E385C3E4AB0B0AB3D04C94529F2-2025-05-14-21-07-22","","null","","images/semantic_sequence/cat_care_semantic/cat_care_semantic_2.png","null","",""
"","","","","","image-button-response","76","292836","0.0-12.0-1.0-1.6","ACCA0E385C3E4AB0B0AB3D04C94529F2","ACCA0E385C3E4AB0B0AB3D04C94529F2","9a584632-9d2f-4880-a8c3-a8342106e884","ba640c14-69c5-453e-80b2-29051492c0e0","{""num_scrambled_semantic"":""8"",""num_scrambled_causal"":""4"",""num_scrambled_schematic"":""4"",""participantId"":""ACCA0E385C3E4AB0B0AB3D04C94529F2"",""assignmentId"":""9a584632-9d2f-4880-a8c3-a8342106e884"",""projectId"":""ba640c14-69c5-453e-80b2-29051492c0e0""}","https://test12345.live/?num_scrambled_semantic=8&num_scrambled_causal=4&num_scrambled_schematic=4&participantId=ACCA0E385C3E4AB0B0AB3D04C94529F2&assignmentId=9a584632-9d2f-4880-a8c3-a8342106e884&projectId=ba640c14-69c5-453e-80b2-29051492c0e0","ACCA0E385C3E4AB0B0AB3D04C94529F2-2025-05-14-21-07-22","","871","","images/semantic_sequence/cat_care_semantic/cat_care_semantic_2.png","0","",""
"","","","","","image-button-response","77","294638","0.0-12.0-1.0-2.6","ACCA0E385C3E4AB0B0AB3D04C94529F2","ACCA0E385C3E4AB0B0AB3D04C94529F2","9a584632-9d2f-4880-a8c3-a8342106e884","ba640c14-69c5-453e-80b2-29051492c0e0","{""num_scrambled_semantic"":""8"",""num_scrambled_causal"":""4"",""num_scrambled_schematic"":""4"",""participantId"":""ACCA0E385C3E4AB0B0AB3D04C94529F2"",""assignmentId"":""9a584632-9d2f-4880-a8c3-a8342106e884"",""projectId"":""ba640c14-69c5-453e-80b2-29051492c0e0""}","https://test12345.live/?num_scrambled_semantic=8&num_scrambled_causal=4&num_scrambled_schematic=4&participantId=ACCA0E385C3E4AB0B0AB3D04C94529F2&assignmentId=9a584632-9d2f-4880-a8c3-a8342106e884&projectId=ba640c14-69c5-453e-80b2-29051492c0e0","ACCA0E385C3E4AB0B0AB3D04C94529F2-2025-05-14-21-07-22","","null","","[]","null","",""
"","","","","","image-button-response","78","299142","0.0-12.0-1.0-0.7","ACCA0E385C3E4AB0B0AB3D04C94529F2","ACCA0E385C3E4AB0B0AB3D04C94529F2","9a584632-9d2f-4880-a8c3-a8342106e884","ba640c14-69c5-453e-80b2-29051492c0e0","{""num_scrambled_semantic"":""8"",""num_scrambled_causal"":""4"",""num_scrambled_schematic"":""4"",""participantId"":""ACCA0E385C3E4AB0B0AB3D04C94529F2"",""assignmentId"":""9a584632-9d2f-4880-a8c3-a8342106e884"",""projectId"":""ba640c14-69c5-453e-80b2-29051492c0e0""}","https://test12345.live/?num_scrambled_semantic=8&num_scrambled_causal=4&num_scrambled_schematic=4&participantId=ACCA0E385C3E4AB0B0AB3D04C94529F2&assignmentId=9a584632-9d2f-4880-a8c3-a8342106e884&projectId=ba640c14-69c5-453e-80b2-29051492c0e0","ACCA0E385C3E4AB0B0AB3D04C94529F2-2025-05-14-21-07-22","","null","","images/semantic_sequence/cat_care_semantic/cat_care_semantic_1.png","null","",""
"","","","","","image-button-response","79","300120","0.0-12.0-1.0-1.7","ACCA0E385C3E4AB0B0AB3D04C94529F2","ACCA0E385C3E4AB0B0AB3D04C94529F2","9a584632-9d2f-4880-a8c3-a8342106e884","ba640c14-69c5-453e-80b2-29051492c0e0","{""num_scrambled_semantic"":""8"",""num_scrambled_causal"":""4"",""num_scrambled_schematic"":""4"",""participantId"":""ACCA0E385C3E4AB0B0AB3D04C94529F2"",""assignmentId"":""9a584632-9d2f-4880-a8c3-a8342106e884"",""projectId"":""ba640c14-69c5-453e-80b2-29051492c0e0""}","https://test12345.live/?num_scrambled_semantic=8&num_scrambled_causal=4&num_scrambled_schematic=4&participantId=ACCA0E385C3E4AB0B0AB3D04C94529F2&assignmentId=9a584632-9d2f-4880-a8c3-a8342106e884&projectId=ba640c14-69c5-453e-80b2-29051492c0e0","ACCA0E385C3E4AB0B0AB3D04C94529F2-2025-05-14-21-07-22","","976","","images/semantic_sequence/cat_care_semantic/cat_care_semantic_1.png","0","",""
"","","","","","image-button-response","80","301927","0.0-12.0-1.0-2.7","ACCA0E385C3E4AB0B0AB3D04C94529F2","ACCA0E385C3E4AB0B0AB3D04C94529F2","9a584632-9d2f-4880-a8c3-a8342106e884","ba640c14-69c5-453e-80b2-29051492c0e0","{""num_scrambled_semantic"":""8"",""num_scrambled_causal"":""4"",""num_scrambled_schematic"":""4"",""participantId"":""ACCA0E385C3E4AB0B0AB3D04C94529F2"",""assignmentId"":""9a584632-9d2f-4880-a8c3-a8342106e884"",""projectId"":""ba640c14-69c5-453e-80b2-29051492c0e0""}","https://test12345.live/?num_scrambled_semantic=8&num_scrambled_causal=4&num_scrambled_schematic=4&participantId=ACCA0E385C3E4AB0B0AB3D04C94529F2&assignmentId=9a584632-9d2f-4880-a8c3-a8342106e884&projectId=ba640c14-69c5-453e-80b2-29051492c0e0","ACCA0E385C3E4AB0B0AB3D04C94529F2-2025-05-14-21-07-22","","null","","[]","null","",""
"","","","","","image-button-response","81","306432","0.0-12.0-1.0-0.8","ACCA0E385C3E4AB0B0AB3D04C94529F2","ACCA0E385C3E4AB0B0AB3D04C94529F2","9a584632-9d2f-4880-a8c3-a8342106e884","ba640c14-69c5-453e-80b2-29051492c0e0","{""num_scrambled_semantic"":""8"",""num_scrambled_causal"":""4"",""num_scrambled_schematic"":""4"",""participantId"":""ACCA0E385C3E4AB0B0AB3D04C94529F2"",""assignmentId"":""9a584632-9d2f-4880-a8c3-a8342106e884"",""projectId"":""ba640c14-69c5-453e-80b2-29051492c0e0""}","https://test12345.live/?num_scrambled_semantic=8&num_scrambled_causal=4&num_scrambled_schematic=4&participantId=ACCA0E385C3E4AB0B0AB3D04C94529F2&assignmentId=9a584632-9d2f-4880-a8c3-a8342106e884&projectId=ba640c14-69c5-453e-80b2-29051492c0e0","ACCA0E385C3E4AB0B0AB3D04C94529F2-2025-05-14-21-07-22","","null","","images/semantic_sequence/cat_care_semantic/cat_care_semantic_4.png","null","",""
"","","","","","image-button-response","82","307254","0.0-12.0-1.0-1.8","ACCA0E385C3E4AB0B0AB3D04C94529F2","ACCA0E385C3E4AB0B0AB3D04C94529F2","9a584632-9d2f-4880-a8c3-a8342106e884","ba640c14-69c5-453e-80b2-29051492c0e0","{""num_scrambled_semantic"":""8"",""num_scrambled_causal"":""4"",""num_scrambled_schematic"":""4"",""participantId"":""ACCA0E385C3E4AB0B0AB3D04C94529F2"",""assignmentId"":""9a584632-9d2f-4880-a8c3-a8342106e884"",""projectId"":""ba640c14-69c5-453e-80b2-29051492c0e0""}","https://test12345.live/?num_scrambled_semantic=8&num_scrambled_causal=4&num_scrambled_schematic=4&participantId=ACCA0E385C3E4AB0B0AB3D04C94529F2&assignmentId=9a584632-9d2f-4880-a8c3-a8342106e884&projectId=ba640c14-69c5-453e-80b2-29051492c0e0","ACCA0E385C3E4AB0B0AB3D04C94529F2-2025-05-14-21-07-22","","819","","images/semantic_sequence/cat_care_semantic/cat_care_semantic_4.png","0","",""
"","","","","","image-button-response","83","309060","0.0-12.0-1.0-2.8","ACCA0E385C3E4AB0B0AB3D04C94529F2","ACCA0E385C3E4AB0B0AB3D04C94529F2","9a584632-9d2f-4880-a8c3-a8342106e884","ba640c14-69c5-453e-80b2-29051492c0e0","{""num_scrambled_semantic"":""8"",""num_scrambled_causal"":""4"",""num_scrambled_schematic"":""4"",""participantId"":""ACCA0E385C3E4AB0B0AB3D04C94529F2"",""assignmentId"":""9a584632-9d2f-4880-a8c3-a8342106e884"",""projectId"":""ba640c14-69c5-453e-80b2-29051492c0e0""}","https://test12345.live/?num_scrambled_semantic=8&num_scrambled_causal=4&num_scrambled_schematic=4&participantId=ACCA0E385C3E4AB0B0AB3D04C94529F2&assignmentId=9a584632-9d2f-4880-a8c3-a8342106e884&projectId=ba640c14-69c5-453e-80b2-29051492c0e0","ACCA0E385C3E4AB0B0AB3D04C94529F2-2025-05-14-21-07-22","","null","","[]","null","",""
"","","","","","image-button-response","84","313562","0.0-12.0-1.0-0.9","ACCA0E385C3E4AB0B0AB3D04C94529F2","ACCA0E385C3E4AB0B0AB3D04C94529F2","9a584632-9d2f-4880-a8c3-a8342106e884","ba640c14-69c5-453e-80b2-29051492c0e0","{""num_scrambled_semantic"":""8"",""num_scrambled_causal"":""4"",""num_scrambled_schematic"":""4"",""participantId"":""ACCA0E385C3E4AB0B0AB3D04C94529F2"",""assignmentId"":""9a584632-9d2f-4880-a8c3-a8342106e884"",""projectId"":""ba640c14-69c5-453e-80b2-29051492c0e0""}","https://test12345.live/?num_scrambled_semantic=8&num_scrambled_causal=4&num_scrambled_schematic=4&participantId=ACCA0E385C3E4AB0B0AB3D04C94529F2&assignmentId=9a584632-9d2f-4880-a8c3-a8342106e884&projectId=ba640c14-69c5-453e-80b2-29051492c0e0","ACCA0E385C3E4AB0B0AB3D04C94529F2-2025-05-14-21-07-22","","null","","images/semantic_sequence/cat_care_semantic/cat_care_semantic_9.png","null","",""
"","","","","","image-button-response","85","314420","0.0-12.0-1.0-1.9","ACCA0E385C3E4AB0B0AB3D04C94529F2","ACCA0E385C3E4AB0B0AB3D04C94529F2","9a584632-9d2f-4880-a8c3-a8342106e884","ba640c14-69c5-453e-80b2-29051492c0e0","{""num_scrambled_semantic"":""8"",""num_scrambled_causal"":""4"",""num_scrambled_schematic"":""4"",""participantId"":""ACCA0E385C3E4AB0B0AB3D04C94529F2"",""assignmentId"":""9a584632-9d2f-4880-a8c3-a8342106e884"",""projectId"":""ba640c14-69c5-453e-80b2-29051492c0e0""}","https://test12345.live/?num_scrambled_semantic=8&num_scrambled_causal=4&num_scrambled_schematic=4&participantId=ACCA0E385C3E4AB0B0AB3D04C94529F2&assignmentId=9a584632-9d2f-4880-a8c3-a8342106e884&projectId=ba640c14-69c5-453e-80b2-29051492c0e0","ACCA0E385C3E4AB0B0AB3D04C94529F2-2025-05-14-21-07-22","","855","","images/semantic_sequence/cat_care_semantic/cat_care_semantic_9.png","0","",""
"","","","","","image-button-response","86","316225","0.0-12.0-1.0-2.9","ACCA0E385C3E4AB0B0AB3D04C94529F2","ACCA0E385C3E4AB0B0AB3D04C94529F2","9a584632-9d2f-4880-a8c3-a8342106e884","ba640c14-69c5-453e-80b2-29051492c0e0","{""num_scrambled_semantic"":""8"",""num_scrambled_causal"":""4"",""num_scrambled_schematic"":""4"",""participantId"":""ACCA0E385C3E4AB0B0AB3D04C94529F2"",""assignmentId"":""9a584632-9d2f-4880-a8c3-a8342106e884"",""projectId"":""ba640c14-69c5-453e-80b2-29051492c0e0""}","https://test12345.live/?num_scrambled_semantic=8&num_scrambled_causal=4&num_scrambled_schematic=4&participantId=ACCA0E385C3E4AB0B0AB3D04C94529F2&assignmentId=9a584632-9d2f-4880-a8c3-a8342106e884&projectId=ba640c14-69c5-453e-80b2-29051492c0e0","ACCA0E385C3E4AB0B0AB3D04C94529F2-2025-05-14-21-07-22","","null","","[]","null","",""
"","","","","","html-audio-response","87","326771","0.0-13.0","ACCA0E385C3E4AB0B0AB3D04C94529F2","ACCA0E385C3E4AB0B0AB3D04C94529F2","9a584632-9d2f-4880-a8c3-a8342106e884","ba640c14-69c5-453e-80b2-29051492c0e0","{""num_scrambled_semantic"":""8"",""num_scrambled_causal"":""4"",""num_scrambled_schematic"":""4"",""participantId"":""ACCA0E385C3E4AB0B0AB3D04C94529F2"",""assignmentId"":""9a584632-9d2f-4880-a8c3-a8342106e884"",""projectId"":""ba640c14-69c5-453e-80b2-29051492c0e0""}","https://test12345.live/?num_scrambled_semantic=8&num_scrambled_causal=4&num_scrambled_schematic=4&participantId=ACCA0E385C3E4AB0B0AB3D04C94529F2&assignmentId=9a584632-9d2f-4880-a8c3-a8342106e884&projectId=ba640c14-69c5-453e-80b2-29051492c0e0","ACCA0E385C3E4AB0B0AB3D04C94529F2-2025-05-14-21-07-22","","9551","","[""<span style=\""color: red; font-size: 24px\""> NOW RECORDING</span><p>Please say out loud all the images you saw, as many as you can remember. The images can be said in any order.</p>""]","","3","cat_care_semantic"
"","","","","","image-button-response","88","332775","0.0-14.0-0.0","ACCA0E385C3E4AB0B0AB3D04C94529F2","ACCA0E385C3E4AB0B0AB3D04C94529F2","9a584632-9d2f-4880-a8c3-a8342106e884","ba640c14-69c5-453e-80b2-29051492c0e0","{""num_scrambled_semantic"":""8"",""num_scrambled_causal"":""4"",""num_scrambled_schematic"":""4"",""participantId"":""ACCA0E385C3E4AB0B0AB3D04C94529F2"",""assignmentId"":""9a584632-9d2f-4880-a8c3-a8342106e884"",""projectId"":""ba640c14-69c5-453e-80b2-29051492c0e0""}","https://test12345.live/?num_scrambled_semantic=8&num_scrambled_causal=4&num_scrambled_schematic=4&participantId=ACCA0E385C3E4AB0B0AB3D04C94529F2&assignmentId=9a584632-9d2f-4880-a8c3-a8342106e884&projectId=ba640c14-69c5-453e-80b2-29051492c0e0","ACCA0E385C3E4AB0B0AB3D04C94529F2-2025-05-14-21-07-22","","null","","images/semantic_sequence/housework_semantic/housework_semantic_0.png","null","",""
"","","","","","image-button-response","89","337280","0.0-14.0-1.0-0.0","ACCA0E385C3E4AB0B0AB3D04C94529F2","ACCA0E385C3E4AB0B0AB3D04C94529F2","9a584632-9d2f-4880-a8c3-a8342106e884","ba640c14-69c5-453e-80b2-29051492c0e0","{""num_scrambled_semantic"":""8"",""num_scrambled_causal"":""4"",""num_scrambled_schematic"":""4"",""participantId"":""ACCA0E385C3E4AB0B0AB3D04C94529F2"",""assignmentId"":""9a584632-9d2f-4880-a8c3-a8342106e884"",""projectId"":""ba640c14-69c5-453e-80b2-29051492c0e0""}","https://test12345.live/?num_scrambled_semantic=8&num_scrambled_causal=4&num_scrambled_schematic=4&participantId=ACCA0E385C3E4AB0B0AB3D04C94529F2&assignmentId=9a584632-9d2f-4880-a8c3-a8342106e884&projectId=ba640c14-69c5-453e-80b2-29051492c0e0","ACCA0E385C3E4AB0B0AB3D04C94529F2-2025-05-14-21-07-22","","null","","images/semantic_sequence/housework_semantic/housework_semantic_2.png","null","",""
"","","","","","image-button-response","90","338137","0.0-14.0-1.0-1.0","ACCA0E385C3E4AB0B0AB3D04C94529F2","ACCA0E385C3E4AB0B0AB3D04C94529F2","9a584632-9d2f-4880-a8c3-a8342106e884","ba640c14-69c5-453e-80b2-29051492c0e0","{""num_scrambled_semantic"":""8"",""num_scrambled_causal"":""4"",""num_scrambled_schematic"":""4"",""participantId"":""ACCA0E385C3E4AB0B0AB3D04C94529F2"",""assignmentId"":""9a584632-9d2f-4880-a8c3-a8342106e884"",""projectId"":""ba640c14-69c5-453e-80b2-29051492c0e0""}","https://test12345.live/?num_scrambled_semantic=8&num_scrambled_causal=4&num_scrambled_schematic=4&participantId=ACCA0E385C3E4AB0B0AB3D04C94529F2&assignmentId=9a584632-9d2f-4880-a8c3-a8342106e884&projectId=ba640c14-69c5-453e-80b2-29051492c0e0","ACCA0E385C3E4AB0B0AB3D04C94529F2-2025-05-14-21-07-22","","855","","images/semantic_sequence/housework_semantic/housework_semantic_2.png","0","",""
"","","","","","image-button-response","91","339942","0.0-14.0-1.0-2.0","ACCA0E385C3E4AB0B0AB3D04C94529F2","ACCA0E385C3E4AB0B0AB3D04C94529F2","9a584632-9d2f-4880-a8c3-a8342106e884","ba640c14-69c5-453e-80b2-29051492c0e0","{""num_scrambled_semantic"":""8"",""num_scrambled_causal"":""4"",""num_scrambled_schematic"":""4"",""participantId"":""ACCA0E385C3E4AB0B0AB3D04C94529F2"",""assignmentId"":""9a584632-9d2f-4880-a8c3-a8342106e884"",""projectId"":""ba640c14-69c5-453e-80b2-29051492c0e0""}","https://test12345.live/?num_scrambled_semantic=8&num_scrambled_causal=4&num_scrambled_schematic=4&participantId=ACCA0E385C3E4AB0B0AB3D04C94529F2&assignmentId=9a584632-9d2f-4880-a8c3-a8342106e884&projectId=ba640c14-69c5-453e-80b2-29051492c0e0","ACCA0E385C3E4AB0B0AB3D04C94529F2-2025-05-14-21-07-22","","null","","[]","null","",""
"","","","","","image-button-response","92","344444","0.0-14.0-1.0-0.1","ACCA0E385C3E4AB0B0AB3D04C94529F2","ACCA0E385C3E4AB0B0AB3D04C94529F2","9a584632-9d2f-4880-a8c3-a8342106e884","ba640c14-69c5-453e-80b2-29051492c0e0","{""num_scrambled_semantic"":""8"",""num_scrambled_causal"":""4"",""num_scrambled_schematic"":""4"",""participantId"":""ACCA0E385C3E4AB0B0AB3D04C94529F2"",""assignmentId"":""9a584632-9d2f-4880-a8c3-a8342106e884"",""projectId"":""ba640c14-69c5-453e-80b2-29051492c0e0""}","https://test12345.live/?num_scrambled_semantic=8&num_scrambled_causal=4&num_scrambled_schematic=4&participantId=ACCA0E385C3E4AB0B0AB3D04C94529F2&assignmentId=9a584632-9d2f-4880-a8c3-a8342106e884&projectId=ba640c14-69c5-453e-80b2-29051492c0e0","ACCA0E385C3E4AB0B0AB3D04C94529F2-2025-05-14-21-07-22","","null","","images/semantic_sequence/housework_semantic/housework_semantic_ten.png","null","",""
"","","","","","image-button-response","93","345269","0.0-14.0-1.0-1.1","ACCA0E385C3E4AB0B0AB3D04C94529F2","ACCA0E385C3E4AB0B0AB3D04C94529F2","9a584632-9d2f-4880-a8c3-a8342106e884","ba640c14-69c5-453e-80b2-29051492c0e0","{""num_scrambled_semantic"":""8"",""num_scrambled_causal"":""4"",""num_scrambled_schematic"":""4"",""participantId"":""ACCA0E385C3E4AB0B0AB3D04C94529F2"",""assignmentId"":""9a584632-9d2f-4880-a8c3-a8342106e884"",""projectId"":""ba640c14-69c5-453e-80b2-29051492c0e0""}","https://test12345.live/?num_scrambled_semantic=8&num_scrambled_causal=4&num_scrambled_schematic=4&participantId=ACCA0E385C3E4AB0B0AB3D04C94529F2&assignmentId=9a584632-9d2f-4880-a8c3-a8342106e884&projectId=ba640c14-69c5-453e-80b2-29051492c0e0","ACCA0E385C3E4AB0B0AB3D04C94529F2-2025-05-14-21-07-22","","823","","images/semantic_sequence/housework_semantic/housework_semantic_ten.png","0","",""
"","","","","","image-button-response","94","347072","0.0-14.0-1.0-2.1","ACCA0E385C3E4AB0B0AB3D04C94529F2","ACCA0E385C3E4AB0B0AB3D04C94529F2","9a584632-9d2f-4880-a8c3-a8342106e884","ba640c14-69c5-453e-80b2-29051492c0e0","{""num_scrambled_semantic"":""8"",""num_scrambled_causal"":""4"",""num_scrambled_schematic"":""4"",""participantId"":""ACCA0E385C3E4AB0B0AB3D04C94529F2"",""assignmentId"":""9a584632-9d2f-4880-a8c3-a8342106e884"",""projectId"":""ba640c14-69c5-453e-80b2-29051492c0e0""}","https://test12345.live/?num_scrambled_semantic=8&num_scrambled_causal=4&num_scrambled_schematic=4&participantId=ACCA0E385C3E4AB0B0AB3D04C94529F2&assignmentId=9a584632-9d2f-4880-a8c3-a8342106e884&projectId=ba640c14-69c5-453e-80b2-29051492c0e0","ACCA0E385C3E4AB0B0AB3D04C94529F2-2025-05-14-21-07-22","","null","","[]","null","",""
"","","","","","image-button-response","95","351579","0.0-14.0-1.0-0.2","ACCA0E385C3E4AB0B0AB3D04C94529F2","ACCA0E385C3E4AB0B0AB3D04C94529F2","9a584632-9d2f-4880-a8c3-a8342106e884","ba640c14-69c5-453e-80b2-29051492c0e0","{""num_scrambled_semantic"":""8"",""num_scrambled_causal"":""4"",""num_scrambled_schematic"":""4"",""participantId"":""ACCA0E385C3E4AB0B0AB3D04C94529F2"",""assignmentId"":""9a584632-9d2f-4880-a8c3-a8342106e884"",""projectId"":""ba640c14-69c5-453e-80b2-29051492c0e0""}","https://test12345.live/?num_scrambled_semantic=8&num_scrambled_causal=4&num_scrambled_schematic=4&participantId=ACCA0E385C3E4AB0B0AB3D04C94529F2&assignmentId=9a584632-9d2f-4880-a8c3-a8342106e884&projectId=ba640c14-69c5-453e-80b2-29051492c0e0","ACCA0E385C3E4AB0B0AB3D04C94529F2-2025-05-14-21-07-22","","null","","images/semantic_sequence/housework_semantic/housework_semantic_7.png","null","",""
"","","","","","image-button-response","96","352337","0.0-14.0-1.0-1.2","ACCA0E385C3E4AB0B0AB3D04C94529F2","ACCA0E385C3E4AB0B0AB3D04C94529F2","9a584632-9d2f-4880-a8c3-a8342106e884","ba640c14-69c5-453e-80b2-29051492c0e0","{""num_scrambled_semantic"":""8"",""num_scrambled_causal"":""4"",""num_scrambled_schematic"":""4"",""participantId"":""ACCA0E385C3E4AB0B0AB3D04C94529F2"",""assignmentId"":""9a584632-9d2f-4880-a8c3-a8342106e884"",""projectId"":""ba640c14-69c5-453e-80b2-29051492c0e0""}","https://test12345.live/?num_scrambled_semantic=8&num_scrambled_causal=4&num_scrambled_schematic=4&participantId=ACCA0E385C3E4AB0B0AB3D04C94529F2&assignmentId=9a584632-9d2f-4880-a8c3-a8342106e884&projectId=ba640c14-69c5-453e-80b2-29051492c0e0","ACCA0E385C3E4AB0B0AB3D04C94529F2-2025-05-14-21-07-22","","755","","images/semantic_sequence/housework_semantic/housework_semantic_7.png","0","",""
"","","","","","image-button-response","97","354143","0.0-14.0-1.0-2.2","ACCA0E385C3E4AB0B0AB3D04C94529F2","ACCA0E385C3E4AB0B0AB3D04C94529F2","9a584632-9d2f-4880-a8c3-a8342106e884","ba640c14-69c5-453e-80b2-29051492c0e0","{""num_scrambled_semantic"":""8"",""num_scrambled_causal"":""4"",""num_scrambled_schematic"":""4"",""participantId"":""ACCA0E385C3E4AB0B0AB3D04C94529F2"",""assignmentId"":""9a584632-9d2f-4880-a8c3-a8342106e884"",""projectId"":""ba640c14-69c5-453e-80b2-29051492c0e0""}","https://test12345.live/?num_scrambled_semantic=8&num_scrambled_causal=4&num_scrambled_schematic=4&participantId=ACCA0E385C3E4AB0B0AB3D04C94529F2&assignmentId=9a584632-9d2f-4880-a8c3-a8342106e884&projectId=ba640c14-69c5-453e-80b2-29051492c0e0","ACCA0E385C3E4AB0B0AB3D04C94529F2-2025-05-14-21-07-22","","null","","[]","null","",""
"","","","","","image-button-response","98","358646","0.0-14.0-1.0-0.3","ACCA0E385C3E4AB0B0AB3D04C94529F2","ACCA0E385C3E4AB0B0AB3D04C94529F2","9a584632-9d2f-4880-a8c3-a8342106e884","ba640c14-69c5-453e-80b2-29051492c0e0","{""num_scrambled_semantic"":""8"",""num_scrambled_causal"":""4"",""num_scrambled_schematic"":""4"",""participantId"":""ACCA0E385C3E4AB0B0AB3D04C94529F2"",""assignmentId"":""9a584632-9d2f-4880-a8c3-a8342106e884"",""projectId"":""ba640c14-69c5-453e-80b2-29051492c0e0""}","https://test12345.live/?num_scrambled_semantic=8&num_scrambled_causal=4&num_scrambled_schematic=4&participantId=ACCA0E385C3E4AB0B0AB3D04C94529F2&assignmentId=9a584632-9d2f-4880-a8c3-a8342106e884&projectId=ba640c14-69c5-453e-80b2-29051492c0e0","ACCA0E385C3E4AB0B0AB3D04C94529F2-2025-05-14-21-07-22","","null","","images/semantic_sequence/housework_semantic/housework_semantic_4.png","null","",""
"","","","","","image-button-response","99","359421","0.0-14.0-1.0-1.3","ACCA0E385C3E4AB0B0AB3D04C94529F2","ACCA0E385C3E4AB0B0AB3D04C94529F2","9a584632-9d2f-4880-a8c3-a8342106e884","ba640c14-69c5-453e-80b2-29051492c0e0","{""num_scrambled_semantic"":""8"",""num_scrambled_causal"":""4"",""num_scrambled_schematic"":""4"",""participantId"":""ACCA0E385C3E4AB0B0AB3D04C94529F2"",""assignmentId"":""9a584632-9d2f-4880-a8c3-a8342106e884"",""projectId"":""ba640c14-69c5-453e-80b2-29051492c0e0""}","https://test12345.live/?num_scrambled_semantic=8&num_scrambled_causal=4&num_scrambled_schematic=4&participantId=ACCA0E385C3E4AB0B0AB3D04C94529F2&assignmentId=9a584632-9d2f-4880-a8c3-a8342106e884&projectId=ba640c14-69c5-453e-80b2-29051492c0e0","ACCA0E385C3E4AB0B0AB3D04C94529F2-2025-05-14-21-07-22","","774","","images/semantic_sequence/housework_semantic/housework_semantic_4.png","0","",""
"","","","","","image-button-response","100","361227","0.0-14.0-1.0-2.3","ACCA0E385C3E4AB0B0AB3D04C94529F2","ACCA0E385C3E4AB0B0AB3D04C94529F2","9a584632-9d2f-4880-a8c3-a8342106e884","ba640c14-69c5-453e-80b2-29051492c0e0","{""num_scrambled_semantic"":""8"",""num_scrambled_causal"":""4"",""num_scrambled_schematic"":""4"",""participantId"":""ACCA0E385C3E4AB0B0AB3D04C94529F2"",""assignmentId"":""9a584632-9d2f-4880-a8c3-a8342106e884"",""projectId"":""ba640c14-69c5-453e-80b2-29051492c0e0""}","https://test12345.live/?num_scrambled_semantic=8&num_scrambled_causal=4&num_scrambled_schematic=4&participantId=ACCA0E385C3E4AB0B0AB3D04C94529F2&assignmentId=9a584632-9d2f-4880-a8c3-a8342106e884&projectId=ba640c14-69c5-453e-80b2-29051492c0e0","ACCA0E385C3E4AB0B0AB3D04C94529F2-2025-05-14-21-07-22","","null","","[]","null","",""
"","","","","","image-button-response","101","365734","0.0-14.0-1.0-0.4","ACCA0E385C3E4AB0B0AB3D04C94529F2","ACCA0E385C3E4AB0B0AB3D04C94529F2","9a584632-9d2f-4880-a8c3-a8342106e884","ba640c14-69c5-453e-80b2-29051492c0e0","{""num_scrambled_semantic"":""8"",""num_scrambled_causal"":""4"",""num_scrambled_schematic"":""4"",""participantId"":""ACCA0E385C3E4AB0B0AB3D04C94529F2"",""assignmentId"":""9a584632-9d2f-4880-a8c3-a8342106e884"",""projectId"":""ba640c14-69c5-453e-80b2-29051492c0e0""}","https://test12345.live/?num_scrambled_semantic=8&num_scrambled_causal=4&num_scrambled_schematic=4&participantId=ACCA0E385C3E4AB0B0AB3D04C94529F2&assignmentId=9a584632-9d2f-4880-a8c3-a8342106e884&projectId=ba640c14-69c5-453e-80b2-29051492c0e0","ACCA0E385C3E4AB0B0AB3D04C94529F2-2025-05-14-21-07-22","","null","","images/semantic_sequence/housework_semantic/housework_semantic_9.png","null","",""
"","","","","","image-button-response","102","366457","0.0-14.0-1.0-1.4","ACCA0E385C3E4AB0B0AB3D04C94529F2","ACCA0E385C3E4AB0B0AB3D04C94529F2","9a584632-9d2f-4880-a8c3-a8342106e884","ba640c14-69c5-453e-80b2-29051492c0e0","{""num_scrambled_semantic"":""8"",""num_scrambled_causal"":""4"",""num_scrambled_schematic"":""4"",""participantId"":""ACCA0E385C3E4AB0B0AB3D04C94529F2"",""assignmentId"":""9a584632-9d2f-4880-a8c3-a8342106e884"",""projectId"":""ba640c14-69c5-453e-80b2-29051492c0e0""}","https://test12345.live/?num_scrambled_semantic=8&num_scrambled_causal=4&num_scrambled_schematic=4&participantId=ACCA0E385C3E4AB0B0AB3D04C94529F2&assignmentId=9a584632-9d2f-4880-a8c3-a8342106e884&projectId=ba640c14-69c5-453e-80b2-29051492c0e0","ACCA0E385C3E4AB0B0AB3D04C94529F2-2025-05-14-21-07-22","","719","","images/semantic_sequence/housework_semantic/housework_semantic_9.png","0","",""
"","","","","","image-button-response","103","368264","0.0-14.0-1.0-2.4","ACCA0E385C3E4AB0B0AB3D04C94529F2","ACCA0E385C3E4AB0B0AB3D04C94529F2","9a584632-9d2f-4880-a8c3-a8342106e884","ba640c14-69c5-453e-80b2-29051492c0e0","{""num_scrambled_semantic"":""8"",""num_scrambled_causal"":""4"",""num_scrambled_schematic"":""4"",""participantId"":""ACCA0E385C3E4AB0B0AB3D04C94529F2"",""assignmentId"":""9a584632-9d2f-4880-a8c3-a8342106e884"",""projectId"":""ba640c14-69c5-453e-80b2-29051492c0e0""}","https://test12345.live/?num_scrambled_semantic=8&num_scrambled_causal=4&num_scrambled_schematic=4&participantId=ACCA0E385C3E4AB0B0AB3D04C94529F2&assignmentId=9a584632-9d2f-4880-a8c3-a8342106e884&projectId=ba640c14-69c5-453e-80b2-29051492c0e0","ACCA0E385C3E4AB0B0AB3D04C94529F2-2025-05-14-21-07-22","","null","","[]","null","",""
"","","","","","image-button-response","104","372767","0.0-14.0-1.0-0.5","ACCA0E385C3E4AB0B0AB3D04C94529F2","ACCA0E385C3E4AB0B0AB3D04C94529F2","9a584632-9d2f-4880-a8c3-a8342106e884","ba640c14-69c5-453e-80b2-29051492c0e0","{""num_scrambled_semantic"":""8"",""num_scrambled_causal"":""4"",""num_scrambled_schematic"":""4"",""participantId"":""ACCA0E385C3E4AB0B0AB3D04C94529F2"",""assignmentId"":""9a584632-9d2f-4880-a8c3-a8342106e884"",""projectId"":""ba640c14-69c5-453e-80b2-29051492c0e0""}","https://test12345.live/?num_scrambled_semantic=8&num_scrambled_causal=4&num_scrambled_schematic=4&participantId=ACCA0E385C3E4AB0B0AB3D04C94529F2&assignmentId=9a584632-9d2f-4880-a8c3-a8342106e884&projectId=ba640c14-69c5-453e-80b2-29051492c0e0","ACCA0E385C3E4AB0B0AB3D04C94529F2-2025-05-14-21-07-22","","null","","images/semantic_sequence/housework_semantic/housework_semantic_6.png","null","",""
"","","","","","image-button-response","105","373454","0.0-14.0-1.0-1.5","ACCA0E385C3E4AB0B0AB3D04C94529F2","ACCA0E385C3E4AB0B0AB3D04C94529F2","9a584632-9d2f-4880-a8c3-a8342106e884","ba640c14-69c5-453e-80b2-29051492c0e0","{""num_scrambled_semantic"":""8"",""num_scrambled_causal"":""4"",""num_scrambled_schematic"":""4"",""participantId"":""ACCA0E385C3E4AB0B0AB3D04C94529F2"",""assignmentId"":""9a584632-9d2f-4880-a8c3-a8342106e884"",""projectId"":""ba640c14-69c5-453e-80b2-29051492c0e0""}","https://test12345.live/?num_scrambled_semantic=8&num_scrambled_causal=4&num_scrambled_schematic=4&participantId=ACCA0E385C3E4AB0B0AB3D04C94529F2&assignmentId=9a584632-9d2f-4880-a8c3-a8342106e884&projectId=ba640c14-69c5-453e-80b2-29051492c0e0","ACCA0E385C3E4AB0B0AB3D04C94529F2-2025-05-14-21-07-22","","686","","images/semantic_sequence/housework_semantic/housework_semantic_6.png","0","",""
"","","","","","image-button-response","106","375258","0.0-14.0-1.0-2.5","ACCA0E385C3E4AB0B0AB3D04C94529F2","ACCA0E385C3E4AB0B0AB3D04C94529F2","9a584632-9d2f-4880-a8c3-a8342106e884","ba640c14-69c5-453e-80b2-29051492c0e0","{""num_scrambled_semantic"":""8"",""num_scrambled_causal"":""4"",""num_scrambled_schematic"":""4"",""participantId"":""ACCA0E385C3E4AB0B0AB3D04C94529F2"",""assignmentId"":""9a584632-9d2f-4880-a8c3-a8342106e884"",""projectId"":""ba640c14-69c5-453e-80b2-29051492c0e0""}","https://test12345.live/?num_scrambled_semantic=8&num_scrambled_causal=4&num_scrambled_schematic=4&participantId=ACCA0E385C3E4AB0B0AB3D04C94529F2&assignmentId=9a584632-9d2f-4880-a8c3-a8342106e884&projectId=ba640c14-69c5-453e-80b2-29051492c0e0","ACCA0E385C3E4AB0B0AB3D04C94529F2-2025-05-14-21-07-22","","null","","[]","null","",""
"","","","","","image-button-response","107","379761","0.0-14.0-1.0-0.6","ACCA0E385C3E4AB0B0AB3D04C94529F2","ACCA0E385C3E4AB0B0AB3D04C94529F2","9a584632-9d2f-4880-a8c3-a8342106e884","ba640c14-69c5-453e-80b2-29051492c0e0","{""num_scrambled_semantic"":""8"",""num_scrambled_causal"":""4"",""num_scrambled_schematic"":""4"",""participantId"":""ACCA0E385C3E4AB0B0AB3D04C94529F2"",""assignmentId"":""9a584632-9d2f-4880-a8c3-a8342106e884"",""projectId"":""ba640c14-69c5-453e-80b2-29051492c0e0""}","https://test12345.live/?num_scrambled_semantic=8&num_scrambled_causal=4&num_scrambled_schematic=4&participantId=ACCA0E385C3E4AB0B0AB3D04C94529F2&assignmentId=9a584632-9d2f-4880-a8c3-a8342106e884&projectId=ba640c14-69c5-453e-80b2-29051492c0e0","ACCA0E385C3E4AB0B0AB3D04C94529F2-2025-05-14-21-07-22","","null","","images/semantic_sequence/housework_semantic/housework_semantic_5.png","null","",""
"","","","","","image-button-response","108","380558","0.0-14.0-1.0-1.6","ACCA0E385C3E4AB0B0AB3D04C94529F2","ACCA0E385C3E4AB0B0AB3D04C94529F2","9a584632-9d2f-4880-a8c3-a8342106e884","ba640c14-69c5-453e-80b2-29051492c0e0","{""num_scrambled_semantic"":""8"",""num_scrambled_causal"":""4"",""num_scrambled_schematic"":""4"",""participantId"":""ACCA0E385C3E4AB0B0AB3D04C94529F2"",""assignmentId"":""9a584632-9d2f-4880-a8c3-a8342106e884"",""projectId"":""ba640c14-69c5-453e-80b2-29051492c0e0""}","https://test12345.live/?num_scrambled_semantic=8&num_scrambled_causal=4&num_scrambled_schematic=4&participantId=ACCA0E385C3E4AB0B0AB3D04C94529F2&assignmentId=9a584632-9d2f-4880-a8c3-a8342106e884&projectId=ba640c14-69c5-453e-80b2-29051492c0e0","ACCA0E385C3E4AB0B0AB3D04C94529F2-2025-05-14-21-07-22","","794","","images/semantic_sequence/housework_semantic/housework_semantic_5.png","0","",""
"","","","","","image-button-response","109","382360","0.0-14.0-1.0-2.6","ACCA0E385C3E4AB0B0AB3D04C94529F2","ACCA0E385C3E4AB0B0AB3D04C94529F2","9a584632-9d2f-4880-a8c3-a8342106e884","ba640c14-69c5-453e-80b2-29051492c0e0","{""num_scrambled_semantic"":""8"",""num_scrambled_causal"":""4"",""num_scrambled_schematic"":""4"",""participantId"":""ACCA0E385C3E4AB0B0AB3D04C94529F2"",""assignmentId"":""9a584632-9d2f-4880-a8c3-a8342106e884"",""projectId"":""ba640c14-69c5-453e-80b2-29051492c0e0""}","https://test12345.live/?num_scrambled_semantic=8&num_scrambled_causal=4&num_scrambled_schematic=4&participantId=ACCA0E385C3E4AB0B0AB3D04C94529F2&assignmentId=9a584632-9d2f-4880-a8c3-a8342106e884&projectId=ba640c14-69c5-453e-80b2-29051492c0e0","ACCA0E385C3E4AB0B0AB3D04C94529F2-2025-05-14-21-07-22","","null","","[]","null","",""
"","","","","","image-button-response","110","386865","0.0-14.0-1.0-0.7","ACCA0E385C3E4AB0B0AB3D04C94529F2","ACCA0E385C3E4AB0B0AB3D04C94529F2","9a584632-9d2f-4880-a8c3-a8342106e884","ba640c14-69c5-453e-80b2-29051492c0e0","{""num_scrambled_semantic"":""8"",""num_scrambled_causal"":""4"",""num_scrambled_schematic"":""4"",""participantId"":""ACCA0E385C3E4AB0B0AB3D04C94529F2"",""assignmentId"":""9a584632-9d2f-4880-a8c3-a8342106e884"",""projectId"":""ba640c14-69c5-453e-80b2-29051492c0e0""}","https://test12345.live/?num_scrambled_semantic=8&num_scrambled_causal=4&num_scrambled_schematic=4&participantId=ACCA0E385C3E4AB0B0AB3D04C94529F2&assignmentId=9a584632-9d2f-4880-a8c3-a8342106e884&projectId=ba640c14-69c5-453e-80b2-29051492c0e0","ACCA0E385C3E4AB0B0AB3D04C94529F2-2025-05-14-21-07-22","","null","","images/semantic_sequence/housework_semantic/housework_semantic_1.png","null","",""
"","","","","","image-button-response","111","387691","0.0-14.0-1.0-1.7","ACCA0E385C3E4AB0B0AB3D04C94529F2","ACCA0E385C3E4AB0B0AB3D04C94529F2","9a584632-9d2f-4880-a8c3-a8342106e884","ba640c14-69c5-453e-80b2-29051492c0e0","{""num_scrambled_semantic"":""8"",""num_scrambled_causal"":""4"",""num_scrambled_schematic"":""4"",""participantId"":""ACCA0E385C3E4AB0B0AB3D04C94529F2"",""assignmentId"":""9a584632-9d2f-4880-a8c3-a8342106e884"",""projectId"":""ba640c14-69c5-453e-80b2-29051492c0e0""}","https://test12345.live/?num_scrambled_semantic=8&num_scrambled_causal=4&num_scrambled_schematic=4&participantId=ACCA0E385C3E4AB0B0AB3D04C94529F2&assignmentId=9a584632-9d2f-4880-a8c3-a8342106e884&projectId=ba640c14-69c5-453e-80b2-29051492c0e0","ACCA0E385C3E4AB0B0AB3D04C94529F2-2025-05-14-21-07-22","","823","","images/semantic_sequence/housework_semantic/housework_semantic_1.png","0","",""
"","","","","","image-button-response","112","389497","0.0-14.0-1.0-2.7","ACCA0E385C3E4AB0B0AB3D04C94529F2","ACCA0E385C3E4AB0B0AB3D04C94529F2","9a584632-9d2f-4880-a8c3-a8342106e884","ba640c14-69c5-453e-80b2-29051492c0e0","{""num_scrambled_semantic"":""8"",""num_scrambled_causal"":""4"",""num_scrambled_schematic"":""4"",""participantId"":""ACCA0E385C3E4AB0B0AB3D04C94529F2"",""assignmentId"":""9a584632-9d2f-4880-a8c3-a8342106e884"",""projectId"":""ba640c14-69c5-453e-80b2-29051492c0e0""}","https://test12345.live/?num_scrambled_semantic=8&num_scrambled_causal=4&num_scrambled_schematic=4&participantId=ACCA0E385C3E4AB0B0AB3D04C94529F2&assignmentId=9a584632-9d2f-4880-a8c3-a8342106e884&projectId=ba640c14-69c5-453e-80b2-29051492c0e0","ACCA0E385C3E4AB0B0AB3D04C94529F2-2025-05-14-21-07-22","","null","","[]","null","",""
"","","","","","image-button-response","113","394001","0.0-14.0-1.0-0.8","ACCA0E385C3E4AB0B0AB3D04C94529F2","ACCA0E385C3E4AB0B0AB3D04C94529F2","9a584632-9d2f-4880-a8c3-a8342106e884","ba640c14-69c5-453e-80b2-29051492c0e0","{""num_scrambled_semantic"":""8"",""num_scrambled_causal"":""4"",""num_scrambled_schematic"":""4"",""participantId"":""ACCA0E385C3E4AB0B0AB3D04C94529F2"",""assignmentId"":""9a584632-9d2f-4880-a8c3-a8342106e884"",""projectId"":""ba640c14-69c5-453e-80b2-29051492c0e0""}","https://test12345.live/?num_scrambled_semantic=8&num_scrambled_causal=4&num_scrambled_schematic=4&participantId=ACCA0E385C3E4AB0B0AB3D04C94529F2&assignmentId=9a584632-9d2f-4880-a8c3-a8342106e884&projectId=ba640c14-69c5-453e-80b2-29051492c0e0","ACCA0E385C3E4AB0B0AB3D04C94529F2-2025-05-14-21-07-22","","null","","images/semantic_sequence/housework_semantic/housework_semantic_8.png","null","",""
"","","","","","image-button-response","114","394891","0.0-14.0-1.0-1.8","ACCA0E385C3E4AB0B0AB3D04C94529F2","ACCA0E385C3E4AB0B0AB3D04C94529F2","9a584632-9d2f-4880-a8c3-a8342106e884","ba640c14-69c5-453e-80b2-29051492c0e0","{""num_scrambled_semantic"":""8"",""num_scrambled_causal"":""4"",""num_scrambled_schematic"":""4"",""participantId"":""ACCA0E385C3E4AB0B0AB3D04C94529F2"",""assignmentId"":""9a584632-9d2f-4880-a8c3-a8342106e884"",""projectId"":""ba640c14-69c5-453e-80b2-29051492c0e0""}","https://test12345.live/?num_scrambled_semantic=8&num_scrambled_causal=4&num_scrambled_schematic=4&participantId=ACCA0E385C3E4AB0B0AB3D04C94529F2&assignmentId=9a584632-9d2f-4880-a8c3-a8342106e884&projectId=ba640c14-69c5-453e-80b2-29051492c0e0","ACCA0E385C3E4AB0B0AB3D04C94529F2-2025-05-14-21-07-22","","888","","images/semantic_sequence/housework_semantic/housework_semantic_8.png","0","",""
