"success","timeout","failed_images","failed_audio","failed_video","trial_type","trial_index","time_elapsed","internal_node_id","subject","subject_id","study_id","session_id","urlvar","current_url","audio_id","view_history","rt","device_id","stimulus","response","estimated_stimulus_onset","seq_name"
"true","false","[]","[]","[]","preload","0","18155","0.0-0.0","ACE2AB98744A4CC38C0AC6401D16E272","ACE2AB98744A4CC38C0AC6401D16E272","cfbcac5a-fcc8-496d-b34e-0a7d3c80aebd","a9f3d40c-5730-405c-b25e-1034c4c56f3f","{""num_scrambled_semantic"":""8"",""num_scrambled_causal"":""4"",""num_scrambled_schematic"":""4"",""participantId"":""ACE2AB98744A4CC38C0AC6401D16E272"",""assignmentId"":""cfbcac5a-fcc8-496d-b34e-0a7d3c80aebd"",""projectId"":""a9f3d40c-5730-405c-b25e-1034c4c56f3f""}","https://test12345.live/?num_scrambled_semantic=8&num_scrambled_causal=4&num_scrambled_schematic=4&participantId=ACE2AB98744A4CC38C0AC6401D16E272&assignmentId=cfbcac5a-fcc8-496d-b34e-0a7d3c80aebd&projectId=a9f3d40c-5730-405c-b25e-1034c4c56f3f","ACE2AB98744A4CC38C0AC6401D16E272-2025-08-07-19-02-57","","","","","","",""
"","","","","","instructions","1","68826","0.0-1.0","ACE2AB98744A4CC38C0AC6401D16E272","ACE2AB98744A4CC38C0AC6401D16E272","cfbcac5a-fcc8-496d-b34e-0a7d3c80aebd","a9f3d40c-5730-405c-b25e-1034c4c56f3f","{""num_scrambled_semantic"":""8"",""num_scrambled_causal"":""4"",""num_scrambled_schematic"":""4"",""participantId"":""ACE2AB98744A4CC38C0AC6401D16E272"",""assignmentId"":""cfbcac5a-fcc8-496d-b34e-0a7d3c80aebd"",""projectId"":""a9f3d40c-5730-405c-b25e-1034c4c56f3f""}","https://test12345.live/?num_scrambled_semantic=8&num_scrambled_causal=4&num_scrambled_schematic=4&participantId=ACE2AB98744A4CC38C0AC6401D16E272&assignmentId=cfbcac5a-fcc8-496d-b34e-0a7d3c80aebd&projectId=a9f3d40c-5730-405c-b25e-1034c4c56f3f","ACE2AB98744A4CC38C0AC6401D16E272-2025-08-07-19-02-57","[{""page_index"":0,""viewing_time"":50669}]","50670","","","","",""
"","","","","","instructions","2","98882","0.0-2.0","ACE2AB98744A4CC38C0AC6401D16E272","ACE2AB98744A4CC38C0AC6401D16E272","cfbcac5a-fcc8-496d-b34e-0a7d3c80aebd","a9f3d40c-5730-405c-b25e-1034c4c56f3f","{""num_scrambled_semantic"":""8"",""num_scrambled_causal"":""4"",""num_scrambled_schematic"":""4"",""participantId"":""ACE2AB98744A4CC38C0AC6401D16E272"",""assignmentId"":""cfbcac5a-fcc8-496d-b34e-0a7d3c80aebd"",""projectId"":""a9f3d40c-5730-405c-b25e-1034c4c56f3f""}","https://test12345.live/?num_scrambled_semantic=8&num_scrambled_causal=4&num_scrambled_schematic=4&participantId=ACE2AB98744A4CC38C0AC6401D16E272&assignmentId=cfbcac5a-fcc8-496d-b34e-0a7d3c80aebd&projectId=a9f3d40c-5730-405c-b25e-1034c4c56f3f","ACE2AB98744A4CC38C0AC6401D16E272-2025-08-07-19-02-57","[{""page_index"":0,""viewing_time"":30056}]","30056","","","","",""
"true","","","","","fullscreen","3","104349","0.0-3.0","ACE2AB98744A4CC38C0AC6401D16E272","ACE2AB98744A4CC38C0AC6401D16E272","cfbcac5a-fcc8-496d-b34e-0a7d3c80aebd","a9f3d40c-5730-405c-b25e-1034c4c56f3f","{""num_scrambled_semantic"":""8"",""num_scrambled_causal"":""4"",""num_scrambled_schematic"":""4"",""participantId"":""ACE2AB98744A4CC38C0AC6401D16E272"",""assignmentId"":""cfbcac5a-fcc8-496d-b34e-0a7d3c80aebd"",""projectId"":""a9f3d40c-5730-405c-b25e-1034c4c56f3f""}","https://test12345.live/?num_scrambled_semantic=8&num_scrambled_causal=4&num_scrambled_schematic=4&participantId=ACE2AB98744A4CC38C0AC6401D16E272&assignmentId=cfbcac5a-fcc8-496d-b34e-0a7d3c80aebd&projectId=a9f3d40c-5730-405c-b25e-1034c4c56f3f","ACE2AB98744A4CC38C0AC6401D16E272-2025-08-07-19-02-57","","4461","","","","",""
"","","","","","initialize-microphone","4","167527","0.0-4.0-0.0","ACE2AB98744A4CC38C0AC6401D16E272","ACE2AB98744A4CC38C0AC6401D16E272","cfbcac5a-fcc8-496d-b34e-0a7d3c80aebd","a9f3d40c-5730-405c-b25e-1034c4c56f3f","{""num_scrambled_semantic"":""8"",""num_scrambled_causal"":""4"",""num_scrambled_schematic"":""4"",""participantId"":""ACE2AB98744A4CC38C0AC6401D16E272"",""assignmentId"":""cfbcac5a-fcc8-496d-b34e-0a7d3c80aebd"",""projectId"":""a9f3d40c-5730-405c-b25e-1034c4c56f3f""}","https://test12345.live/?num_scrambled_semantic=8&num_scrambled_causal=4&num_scrambled_schematic=4&participantId=ACE2AB98744A4CC38C0AC6401D16E272&assignmentId=cfbcac5a-fcc8-496d-b34e-0a7d3c80aebd&projectId=a9f3d40c-5730-405c-b25e-1034c4c56f3f","ACE2AB98744A4CC38C0AC6401D16E272-2025-08-07-19-02-57","","","4e2f47d9eb97e2e934d0689a509a225c12554c1ce99a599008d8d8151661873e","","","",""
"","","","","","html-audio-response","5","194285","0.0-4.0-1.0","ACE2AB98744A4CC38C0AC6401D16E272","ACE2AB98744A4CC38C0AC6401D16E272","cfbcac5a-fcc8-496d-b34e-0a7d3c80aebd","a9f3d40c-5730-405c-b25e-1034c4c56f3f","{""num_scrambled_semantic"":""8"",""num_scrambled_causal"":""4"",""num_scrambled_schematic"":""4"",""participantId"":""ACE2AB98744A4CC38C0AC6401D16E272"",""assignmentId"":""cfbcac5a-fcc8-496d-b34e-0a7d3c80aebd"",""projectId"":""a9f3d40c-5730-405c-b25e-1034c4c56f3f""}","https://test12345.live/?num_scrambled_semantic=8&num_scrambled_causal=4&num_scrambled_schematic=4&participantId=ACE2AB98744A4CC38C0AC6401D16E272&assignmentId=cfbcac5a-fcc8-496d-b34e-0a7d3c80aebd&projectId=a9f3d40c-5730-405c-b25e-1034c4c56f3f","ACE2AB98744A4CC38C0AC6401D16E272-2025-08-07-19-02-57","","2731","","<span style=""color: red; font-size: 24px""> NOW RECORDING</span>
        <p>Please test Microphone</p>","","2",""
"","","","","","html-button-response","6","195844","0.0-4.0-2.0","ACE2AB98744A4CC38C0AC6401D16E272","ACE2AB98744A4CC38C0AC6401D16E272","cfbcac5a-fcc8-496d-b34e-0a7d3c80aebd","a9f3d40c-5730-405c-b25e-1034c4c56f3f","{""num_scrambled_semantic"":""8"",""num_scrambled_causal"":""4"",""num_scrambled_schematic"":""4"",""participantId"":""ACE2AB98744A4CC38C0AC6401D16E272"",""assignmentId"":""cfbcac5a-fcc8-496d-b34e-0a7d3c80aebd"",""projectId"":""a9f3d40c-5730-405c-b25e-1034c4c56f3f""}","https://test12345.live/?num_scrambled_semantic=8&num_scrambled_causal=4&num_scrambled_schematic=4&participantId=ACE2AB98744A4CC38C0AC6401D16E272&assignmentId=cfbcac5a-fcc8-496d-b34e-0a7d3c80aebd&projectId=a9f3d40c-5730-405c-b25e-1034c4c56f3f","ACE2AB98744A4CC38C0AC6401D16E272-2025-08-07-19-02-57","","1557","","<p style=""font-size:48px; color:red;"">Is Microphone OK?</p>","1","",""
"","","","","","instructions","7","247884","0.0-5.0","ACE2AB98744A4CC38C0AC6401D16E272","ACE2AB98744A4CC38C0AC6401D16E272","cfbcac5a-fcc8-496d-b34e-0a7d3c80aebd","a9f3d40c-5730-405c-b25e-1034c4c56f3f","{""num_scrambled_semantic"":""8"",""num_scrambled_causal"":""4"",""num_scrambled_schematic"":""4"",""participantId"":""ACE2AB98744A4CC38C0AC6401D16E272"",""assignmentId"":""cfbcac5a-fcc8-496d-b34e-0a7d3c80aebd"",""projectId"":""a9f3d40c-5730-405c-b25e-1034c4c56f3f""}","https://test12345.live/?num_scrambled_semantic=8&num_scrambled_causal=4&num_scrambled_schematic=4&participantId=ACE2AB98744A4CC38C0AC6401D16E272&assignmentId=cfbcac5a-fcc8-496d-b34e-0a7d3c80aebd&projectId=a9f3d40c-5730-405c-b25e-1034c4c56f3f","ACE2AB98744A4CC38C0AC6401D16E272-2025-08-07-19-02-57","[{""page_index"":0,""viewing_time"":17934},{""page_index"":1,""viewing_time"":34104}]","52038","","","","",""
"","","","","","image-button-response","8","253888","0.0-6.0-0.0","ACE2AB98744A4CC38C0AC6401D16E272","ACE2AB98744A4CC38C0AC6401D16E272","cfbcac5a-fcc8-496d-b34e-0a7d3c80aebd","a9f3d40c-5730-405c-b25e-1034c4c56f3f","{""num_scrambled_semantic"":""8"",""num_scrambled_causal"":""4"",""num_scrambled_schematic"":""4"",""participantId"":""ACE2AB98744A4CC38C0AC6401D16E272"",""assignmentId"":""cfbcac5a-fcc8-496d-b34e-0a7d3c80aebd"",""projectId"":""a9f3d40c-5730-405c-b25e-1034c4c56f3f""}","https://test12345.live/?num_scrambled_semantic=8&num_scrambled_causal=4&num_scrambled_schematic=4&participantId=ACE2AB98744A4CC38C0AC6401D16E272&assignmentId=cfbcac5a-fcc8-496d-b34e-0a7d3c80aebd&projectId=a9f3d40c-5730-405c-b25e-1034c4c56f3f","ACE2AB98744A4CC38C0AC6401D16E272-2025-08-07-19-02-57","","null","","images/instructions/movie_0.png","null","",""
"","","","","","image-button-response","9","258411","0.0-6.0-1.0-0.0","ACE2AB98744A4CC38C0AC6401D16E272","ACE2AB98744A4CC38C0AC6401D16E272","cfbcac5a-fcc8-496d-b34e-0a7d3c80aebd","a9f3d40c-5730-405c-b25e-1034c4c56f3f","{""num_scrambled_semantic"":""8"",""num_scrambled_causal"":""4"",""num_scrambled_schematic"":""4"",""participantId"":""ACE2AB98744A4CC38C0AC6401D16E272"",""assignmentId"":""cfbcac5a-fcc8-496d-b34e-0a7d3c80aebd"",""projectId"":""a9f3d40c-5730-405c-b25e-1034c4c56f3f""}","https://test12345.live/?num_scrambled_semantic=8&num_scrambled_causal=4&num_scrambled_schematic=4&participantId=ACE2AB98744A4CC38C0AC6401D16E272&assignmentId=cfbcac5a-fcc8-496d-b34e-0a7d3c80aebd&projectId=a9f3d40c-5730-405c-b25e-1034c4c56f3f","ACE2AB98744A4CC38C0AC6401D16E272-2025-08-07-19-02-57","","null","","images/instructions/movie_1.png","null","",""
"","","","","","image-button-response","10","260542","0.0-6.0-1.0-1.0","ACE2AB98744A4CC38C0AC6401D16E272","ACE2AB98744A4CC38C0AC6401D16E272","cfbcac5a-fcc8-496d-b34e-0a7d3c80aebd","a9f3d40c-5730-405c-b25e-1034c4c56f3f","{""num_scrambled_semantic"":""8"",""num_scrambled_causal"":""4"",""num_scrambled_schematic"":""4"",""participantId"":""ACE2AB98744A4CC38C0AC6401D16E272"",""assignmentId"":""cfbcac5a-fcc8-496d-b34e-0a7d3c80aebd"",""projectId"":""a9f3d40c-5730-405c-b25e-1034c4c56f3f""}","https://test12345.live/?num_scrambled_semantic=8&num_scrambled_causal=4&num_scrambled_schematic=4&participantId=ACE2AB98744A4CC38C0AC6401D16E272&assignmentId=cfbcac5a-fcc8-496d-b34e-0a7d3c80aebd&projectId=a9f3d40c-5730-405c-b25e-1034c4c56f3f","ACE2AB98744A4CC38C0AC6401D16E272-2025-08-07-19-02-57","","2129","","images/instructions/movie_1.png","0","",""
"","","","","","image-button-response","11","262350","0.0-6.0-1.0-2.0","ACE2AB98744A4CC38C0AC6401D16E272","ACE2AB98744A4CC38C0AC6401D16E272","cfbcac5a-fcc8-496d-b34e-0a7d3c80aebd","a9f3d40c-5730-405c-b25e-1034c4c56f3f","{""num_scrambled_semantic"":""8"",""num_scrambled_causal"":""4"",""num_scrambled_schematic"":""4"",""participantId"":""ACE2AB98744A4CC38C0AC6401D16E272"",""assignmentId"":""cfbcac5a-fcc8-496d-b34e-0a7d3c80aebd"",""projectId"":""a9f3d40c-5730-405c-b25e-1034c4c56f3f""}","https://test12345.live/?num_scrambled_semantic=8&num_scrambled_causal=4&num_scrambled_schematic=4&participantId=ACE2AB98744A4CC38C0AC6401D16E272&assignmentId=cfbcac5a-fcc8-496d-b34e-0a7d3c80aebd&projectId=a9f3d40c-5730-405c-b25e-1034c4c56f3f","ACE2AB98744A4CC38C0AC6401D16E272-2025-08-07-19-02-57","","null","","[]","null","",""
"","","","","","image-button-response","12","266854","0.0-6.0-1.0-0.1","ACE2AB98744A4CC38C0AC6401D16E272","ACE2AB98744A4CC38C0AC6401D16E272","cfbcac5a-fcc8-496d-b34e-0a7d3c80aebd","a9f3d40c-5730-405c-b25e-1034c4c56f3f","{""num_scrambled_semantic"":""8"",""num_scrambled_causal"":""4"",""num_scrambled_schematic"":""4"",""participantId"":""ACE2AB98744A4CC38C0AC6401D16E272"",""assignmentId"":""cfbcac5a-fcc8-496d-b34e-0a7d3c80aebd"",""projectId"":""a9f3d40c-5730-405c-b25e-1034c4c56f3f""}","https://test12345.live/?num_scrambled_semantic=8&num_scrambled_causal=4&num_scrambled_schematic=4&participantId=ACE2AB98744A4CC38C0AC6401D16E272&assignmentId=cfbcac5a-fcc8-496d-b34e-0a7d3c80aebd&projectId=a9f3d40c-5730-405c-b25e-1034c4c56f3f","ACE2AB98744A4CC38C0AC6401D16E272-2025-08-07-19-02-57","","null","","images/instructions/movie_2.png","null","",""
"","","","","","image-button-response","13","268169","0.0-6.0-1.0-1.1","ACE2AB98744A4CC38C0AC6401D16E272","ACE2AB98744A4CC38C0AC6401D16E272","cfbcac5a-fcc8-496d-b34e-0a7d3c80aebd","a9f3d40c-5730-405c-b25e-1034c4c56f3f","{""num_scrambled_semantic"":""8"",""num_scrambled_causal"":""4"",""num_scrambled_schematic"":""4"",""participantId"":""ACE2AB98744A4CC38C0AC6401D16E272"",""assignmentId"":""cfbcac5a-fcc8-496d-b34e-0a7d3c80aebd"",""projectId"":""a9f3d40c-5730-405c-b25e-1034c4c56f3f""}","https://test12345.live/?num_scrambled_semantic=8&num_scrambled_causal=4&num_scrambled_schematic=4&participantId=ACE2AB98744A4CC38C0AC6401D16E272&assignmentId=cfbcac5a-fcc8-496d-b34e-0a7d3c80aebd&projectId=a9f3d40c-5730-405c-b25e-1034c4c56f3f","ACE2AB98744A4CC38C0AC6401D16E272-2025-08-07-19-02-57","","1314","","images/instructions/movie_2.png","0","",""
"","","","","","image-button-response","14","269983","0.0-6.0-1.0-2.1","ACE2AB98744A4CC38C0AC6401D16E272","ACE2AB98744A4CC38C0AC6401D16E272","cfbcac5a-fcc8-496d-b34e-0a7d3c80aebd","a9f3d40c-5730-405c-b25e-1034c4c56f3f","{""num_scrambled_semantic"":""8"",""num_scrambled_causal"":""4"",""num_scrambled_schematic"":""4"",""participantId"":""ACE2AB98744A4CC38C0AC6401D16E272"",""assignmentId"":""cfbcac5a-fcc8-496d-b34e-0a7d3c80aebd"",""projectId"":""a9f3d40c-5730-405c-b25e-1034c4c56f3f""}","https://test12345.live/?num_scrambled_semantic=8&num_scrambled_causal=4&num_scrambled_schematic=4&participantId=ACE2AB98744A4CC38C0AC6401D16E272&assignmentId=cfbcac5a-fcc8-496d-b34e-0a7d3c80aebd&projectId=a9f3d40c-5730-405c-b25e-1034c4c56f3f","ACE2AB98744A4CC38C0AC6401D16E272-2025-08-07-19-02-57","","null","","[]","null","",""
"","","","","","image-button-response","15","274501","0.0-6.0-1.0-0.2","ACE2AB98744A4CC38C0AC6401D16E272","ACE2AB98744A4CC38C0AC6401D16E272","cfbcac5a-fcc8-496d-b34e-0a7d3c80aebd","a9f3d40c-5730-405c-b25e-1034c4c56f3f","{""num_scrambled_semantic"":""8"",""num_scrambled_causal"":""4"",""num_scrambled_schematic"":""4"",""participantId"":""ACE2AB98744A4CC38C0AC6401D16E272"",""assignmentId"":""cfbcac5a-fcc8-496d-b34e-0a7d3c80aebd"",""projectId"":""a9f3d40c-5730-405c-b25e-1034c4c56f3f""}","https://test12345.live/?num_scrambled_semantic=8&num_scrambled_causal=4&num_scrambled_schematic=4&participantId=ACE2AB98744A4CC38C0AC6401D16E272&assignmentId=cfbcac5a-fcc8-496d-b34e-0a7d3c80aebd&projectId=a9f3d40c-5730-405c-b25e-1034c4c56f3f","ACE2AB98744A4CC38C0AC6401D16E272-2025-08-07-19-02-57","","null","","images/instructions/movie_3.png","null","",""
"","","","","","image-button-response","16","275558","0.0-6.0-1.0-1.2","ACE2AB98744A4CC38C0AC6401D16E272","ACE2AB98744A4CC38C0AC6401D16E272","cfbcac5a-fcc8-496d-b34e-0a7d3c80aebd","a9f3d40c-5730-405c-b25e-1034c4c56f3f","{""num_scrambled_semantic"":""8"",""num_scrambled_causal"":""4"",""num_scrambled_schematic"":""4"",""participantId"":""ACE2AB98744A4CC38C0AC6401D16E272"",""assignmentId"":""cfbcac5a-fcc8-496d-b34e-0a7d3c80aebd"",""projectId"":""a9f3d40c-5730-405c-b25e-1034c4c56f3f""}","https://test12345.live/?num_scrambled_semantic=8&num_scrambled_causal=4&num_scrambled_schematic=4&participantId=ACE2AB98744A4CC38C0AC6401D16E272&assignmentId=cfbcac5a-fcc8-496d-b34e-0a7d3c80aebd&projectId=a9f3d40c-5730-405c-b25e-1034c4c56f3f","ACE2AB98744A4CC38C0AC6401D16E272-2025-08-07-19-02-57","","1055","","images/instructions/movie_3.png","0","",""
"","","","","","image-button-response","17","277378","0.0-6.0-1.0-2.2","ACE2AB98744A4CC38C0AC6401D16E272","ACE2AB98744A4CC38C0AC6401D16E272","cfbcac5a-fcc8-496d-b34e-0a7d3c80aebd","a9f3d40c-5730-405c-b25e-1034c4c56f3f","{""num_scrambled_semantic"":""8"",""num_scrambled_causal"":""4"",""num_scrambled_schematic"":""4"",""participantId"":""ACE2AB98744A4CC38C0AC6401D16E272"",""assignmentId"":""cfbcac5a-fcc8-496d-b34e-0a7d3c80aebd"",""projectId"":""a9f3d40c-5730-405c-b25e-1034c4c56f3f""}","https://test12345.live/?num_scrambled_semantic=8&num_scrambled_causal=4&num_scrambled_schematic=4&participantId=ACE2AB98744A4CC38C0AC6401D16E272&assignmentId=cfbcac5a-fcc8-496d-b34e-0a7d3c80aebd&projectId=a9f3d40c-5730-405c-b25e-1034c4c56f3f","ACE2AB98744A4CC38C0AC6401D16E272-2025-08-07-19-02-57","","null","","[]","null","",""
"","","","","","image-button-response","18","281898","0.0-6.0-1.0-0.3","ACE2AB98744A4CC38C0AC6401D16E272","ACE2AB98744A4CC38C0AC6401D16E272","cfbcac5a-fcc8-496d-b34e-0a7d3c80aebd","a9f3d40c-5730-405c-b25e-1034c4c56f3f","{""num_scrambled_semantic"":""8"",""num_scrambled_causal"":""4"",""num_scrambled_schematic"":""4"",""participantId"":""ACE2AB98744A4CC38C0AC6401D16E272"",""assignmentId"":""cfbcac5a-fcc8-496d-b34e-0a7d3c80aebd"",""projectId"":""a9f3d40c-5730-405c-b25e-1034c4c56f3f""}","https://test12345.live/?num_scrambled_semantic=8&num_scrambled_causal=4&num_scrambled_schematic=4&participantId=ACE2AB98744A4CC38C0AC6401D16E272&assignmentId=cfbcac5a-fcc8-496d-b34e-0a7d3c80aebd&projectId=a9f3d40c-5730-405c-b25e-1034c4c56f3f","ACE2AB98744A4CC38C0AC6401D16E272-2025-08-07-19-02-57","","null","","images/instructions/movie_4.png","null","",""
"","","","","","image-button-response","19","283570","0.0-6.0-1.0-1.3","ACE2AB98744A4CC38C0AC6401D16E272","ACE2AB98744A4CC38C0AC6401D16E272","cfbcac5a-fcc8-496d-b34e-0a7d3c80aebd","a9f3d40c-5730-405c-b25e-1034c4c56f3f","{""num_scrambled_semantic"":""8"",""num_scrambled_causal"":""4"",""num_scrambled_schematic"":""4"",""participantId"":""ACE2AB98744A4CC38C0AC6401D16E272"",""assignmentId"":""cfbcac5a-fcc8-496d-b34e-0a7d3c80aebd"",""projectId"":""a9f3d40c-5730-405c-b25e-1034c4c56f3f""}","https://test12345.live/?num_scrambled_semantic=8&num_scrambled_causal=4&num_scrambled_schematic=4&participantId=ACE2AB98744A4CC38C0AC6401D16E272&assignmentId=cfbcac5a-fcc8-496d-b34e-0a7d3c80aebd&projectId=a9f3d40c-5730-405c-b25e-1034c4c56f3f","ACE2AB98744A4CC38C0AC6401D16E272-2025-08-07-19-02-57","","1670","","images/instructions/movie_4.png","0","",""
"","","","","","image-button-response","20","285377","0.0-6.0-1.0-2.3","ACE2AB98744A4CC38C0AC6401D16E272","ACE2AB98744A4CC38C0AC6401D16E272","cfbcac5a-fcc8-496d-b34e-0a7d3c80aebd","a9f3d40c-5730-405c-b25e-1034c4c56f3f","{""num_scrambled_semantic"":""8"",""num_scrambled_causal"":""4"",""num_scrambled_schematic"":""4"",""participantId"":""ACE2AB98744A4CC38C0AC6401D16E272"",""assignmentId"":""cfbcac5a-fcc8-496d-b34e-0a7d3c80aebd"",""projectId"":""a9f3d40c-5730-405c-b25e-1034c4c56f3f""}","https://test12345.live/?num_scrambled_semantic=8&num_scrambled_causal=4&num_scrambled_schematic=4&participantId=ACE2AB98744A4CC38C0AC6401D16E272&assignmentId=cfbcac5a-fcc8-496d-b34e-0a7d3c80aebd&projectId=a9f3d40c-5730-405c-b25e-1034c4c56f3f","ACE2AB98744A4CC38C0AC6401D16E272-2025-08-07-19-02-57","","null","","[]","null","",""
"","","","","","instructions","21","297139","0.0-7.0","ACE2AB98744A4CC38C0AC6401D16E272","ACE2AB98744A4CC38C0AC6401D16E272","cfbcac5a-fcc8-496d-b34e-0a7d3c80aebd","a9f3d40c-5730-405c-b25e-1034c4c56f3f","{""num_scrambled_semantic"":""8"",""num_scrambled_causal"":""4"",""num_scrambled_schematic"":""4"",""participantId"":""ACE2AB98744A4CC38C0AC6401D16E272"",""assignmentId"":""cfbcac5a-fcc8-496d-b34e-0a7d3c80aebd"",""projectId"":""a9f3d40c-5730-405c-b25e-1034c4c56f3f""}","https://test12345.live/?num_scrambled_semantic=8&num_scrambled_causal=4&num_scrambled_schematic=4&participantId=ACE2AB98744A4CC38C0AC6401D16E272&assignmentId=cfbcac5a-fcc8-496d-b34e-0a7d3c80aebd&projectId=a9f3d40c-5730-405c-b25e-1034c4c56f3f","ACE2AB98744A4CC38C0AC6401D16E272-2025-08-07-19-02-57","[{""page_index"":0,""viewing_time"":10554},{""page_index"":1,""viewing_time"":1207}]","11762","","","","",""
"","","","","","html-audio-response","22","322008","0.0-8.0","ACE2AB98744A4CC38C0AC6401D16E272","ACE2AB98744A4CC38C0AC6401D16E272","cfbcac5a-fcc8-496d-b34e-0a7d3c80aebd","a9f3d40c-5730-405c-b25e-1034c4c56f3f","{""num_scrambled_semantic"":""8"",""num_scrambled_causal"":""4"",""num_scrambled_schematic"":""4"",""participantId"":""ACE2AB98744A4CC38C0AC6401D16E272"",""assignmentId"":""cfbcac5a-fcc8-496d-b34e-0a7d3c80aebd"",""projectId"":""a9f3d40c-5730-405c-b25e-1034c4c56f3f""}","https://test12345.live/?num_scrambled_semantic=8&num_scrambled_causal=4&num_scrambled_schematic=4&participantId=ACE2AB98744A4CC38C0AC6401D16E272&assignmentId=cfbcac5a-fcc8-496d-b34e-0a7d3c80aebd&projectId=a9f3d40c-5730-405c-b25e-1034c4c56f3f","ACE2AB98744A4CC38C0AC6401D16E272-2025-08-07-19-02-57","","23511","","[""<span style=\""color: red; font-size: 24px\""> NOW RECORDING</span><p>Please say out loud all the images you saw, as many as you can remember. The images can be said in any order.</p>""]","","1",""
"","","","","","instructions","23","324350","0.0-9.0","ACE2AB98744A4CC38C0AC6401D16E272","ACE2AB98744A4CC38C0AC6401D16E272","cfbcac5a-fcc8-496d-b34e-0a7d3c80aebd","a9f3d40c-5730-405c-b25e-1034c4c56f3f","{""num_scrambled_semantic"":""8"",""num_scrambled_causal"":""4"",""num_scrambled_schematic"":""4"",""participantId"":""ACE2AB98744A4CC38C0AC6401D16E272"",""assignmentId"":""cfbcac5a-fcc8-496d-b34e-0a7d3c80aebd"",""projectId"":""a9f3d40c-5730-405c-b25e-1034c4c56f3f""}","https://test12345.live/?num_scrambled_semantic=8&num_scrambled_causal=4&num_scrambled_schematic=4&participantId=ACE2AB98744A4CC38C0AC6401D16E272&assignmentId=cfbcac5a-fcc8-496d-b34e-0a7d3c80aebd&projectId=a9f3d40c-5730-405c-b25e-1034c4c56f3f","ACE2AB98744A4CC38C0AC6401D16E272-2025-08-07-19-02-57","[{""page_index"":0,""viewing_time"":2339}]","2339","","","","",""
"","","","","","image-button-response","24","330358","0.0-10.0-0.0","ACE2AB98744A4CC38C0AC6401D16E272","ACE2AB98744A4CC38C0AC6401D16E272","cfbcac5a-fcc8-496d-b34e-0a7d3c80aebd","a9f3d40c-5730-405c-b25e-1034c4c56f3f","{""num_scrambled_semantic"":""8"",""num_scrambled_causal"":""4"",""num_scrambled_schematic"":""4"",""participantId"":""ACE2AB98744A4CC38C0AC6401D16E272"",""assignmentId"":""cfbcac5a-fcc8-496d-b34e-0a7d3c80aebd"",""projectId"":""a9f3d40c-5730-405c-b25e-1034c4c56f3f""}","https://test12345.live/?num_scrambled_semantic=8&num_scrambled_causal=4&num_scrambled_schematic=4&participantId=ACE2AB98744A4CC38C0AC6401D16E272&assignmentId=cfbcac5a-fcc8-496d-b34e-0a7d3c80aebd&projectId=a9f3d40c-5730-405c-b25e-1034c4c56f3f","ACE2AB98744A4CC38C0AC6401D16E272-2025-08-07-19-02-57","","null","","images/semantic_sequence/using_technology_semantic/using_technology_semantic_0.png","null","",""
"","","","","","image-button-response","25","334867","0.0-10.0-1.0-0.0","ACE2AB98744A4CC38C0AC6401D16E272","ACE2AB98744A4CC38C0AC6401D16E272","cfbcac5a-fcc8-496d-b34e-0a7d3c80aebd","a9f3d40c-5730-405c-b25e-1034c4c56f3f","{""num_scrambled_semantic"":""8"",""num_scrambled_causal"":""4"",""num_scrambled_schematic"":""4"",""participantId"":""ACE2AB98744A4CC38C0AC6401D16E272"",""assignmentId"":""cfbcac5a-fcc8-496d-b34e-0a7d3c80aebd"",""projectId"":""a9f3d40c-5730-405c-b25e-1034c4c56f3f""}","https://test12345.live/?num_scrambled_semantic=8&num_scrambled_causal=4&num_scrambled_schematic=4&participantId=ACE2AB98744A4CC38C0AC6401D16E272&assignmentId=cfbcac5a-fcc8-496d-b34e-0a7d3c80aebd&projectId=a9f3d40c-5730-405c-b25e-1034c4c56f3f","ACE2AB98744A4CC38C0AC6401D16E272-2025-08-07-19-02-57","","null","","images/semantic_sequence/using_technology_semantic/using_technology_semantic_3.png","null","",""
"","","","","","image-button-response","26","336361","0.0-10.0-1.0-1.0","ACE2AB98744A4CC38C0AC6401D16E272","ACE2AB98744A4CC38C0AC6401D16E272","cfbcac5a-fcc8-496d-b34e-0a7d3c80aebd","a9f3d40c-5730-405c-b25e-1034c4c56f3f","{""num_scrambled_semantic"":""8"",""num_scrambled_causal"":""4"",""num_scrambled_schematic"":""4"",""participantId"":""ACE2AB98744A4CC38C0AC6401D16E272"",""assignmentId"":""cfbcac5a-fcc8-496d-b34e-0a7d3c80aebd"",""projectId"":""a9f3d40c-5730-405c-b25e-1034c4c56f3f""}","https://test12345.live/?num_scrambled_semantic=8&num_scrambled_causal=4&num_scrambled_schematic=4&participantId=ACE2AB98744A4CC38C0AC6401D16E272&assignmentId=cfbcac5a-fcc8-496d-b34e-0a7d3c80aebd&projectId=a9f3d40c-5730-405c-b25e-1034c4c56f3f","ACE2AB98744A4CC38C0AC6401D16E272-2025-08-07-19-02-57","","1493","","images/semantic_sequence/using_technology_semantic/using_technology_semantic_3.png","0","",""
"","","","","","image-button-response","27","338181","0.0-10.0-1.0-2.0","ACE2AB98744A4CC38C0AC6401D16E272","ACE2AB98744A4CC38C0AC6401D16E272","cfbcac5a-fcc8-496d-b34e-0a7d3c80aebd","a9f3d40c-5730-405c-b25e-1034c4c56f3f","{""num_scrambled_semantic"":""8"",""num_scrambled_causal"":""4"",""num_scrambled_schematic"":""4"",""participantId"":""ACE2AB98744A4CC38C0AC6401D16E272"",""assignmentId"":""cfbcac5a-fcc8-496d-b34e-0a7d3c80aebd"",""projectId"":""a9f3d40c-5730-405c-b25e-1034c4c56f3f""}","https://test12345.live/?num_scrambled_semantic=8&num_scrambled_causal=4&num_scrambled_schematic=4&participantId=ACE2AB98744A4CC38C0AC6401D16E272&assignmentId=cfbcac5a-fcc8-496d-b34e-0a7d3c80aebd&projectId=a9f3d40c-5730-405c-b25e-1034c4c56f3f","ACE2AB98744A4CC38C0AC6401D16E272-2025-08-07-19-02-57","","null","","[]","null","",""
"","","","","","image-button-response","28","342696","0.0-10.0-1.0-0.1","ACE2AB98744A4CC38C0AC6401D16E272","ACE2AB98744A4CC38C0AC6401D16E272","cfbcac5a-fcc8-496d-b34e-0a7d3c80aebd","a9f3d40c-5730-405c-b25e-1034c4c56f3f","{""num_scrambled_semantic"":""8"",""num_scrambled_causal"":""4"",""num_scrambled_schematic"":""4"",""participantId"":""ACE2AB98744A4CC38C0AC6401D16E272"",""assignmentId"":""cfbcac5a-fcc8-496d-b34e-0a7d3c80aebd"",""projectId"":""a9f3d40c-5730-405c-b25e-1034c4c56f3f""}","https://test12345.live/?num_scrambled_semantic=8&num_scrambled_causal=4&num_scrambled_schematic=4&participantId=ACE2AB98744A4CC38C0AC6401D16E272&assignmentId=cfbcac5a-fcc8-496d-b34e-0a7d3c80aebd&projectId=a9f3d40c-5730-405c-b25e-1034c4c56f3f","ACE2AB98744A4CC38C0AC6401D16E272-2025-08-07-19-02-57","","null","","images/semantic_sequence/using_technology_semantic/using_technology_semantic_ten.png","null","",""
"","","","","","image-button-response","29","344005","0.0-10.0-1.0-1.1","ACE2AB98744A4CC38C0AC6401D16E272","ACE2AB98744A4CC38C0AC6401D16E272","cfbcac5a-fcc8-496d-b34e-0a7d3c80aebd","a9f3d40c-5730-405c-b25e-1034c4c56f3f","{""num_scrambled_semantic"":""8"",""num_scrambled_causal"":""4"",""num_scrambled_schematic"":""4"",""participantId"":""ACE2AB98744A4CC38C0AC6401D16E272"",""assignmentId"":""cfbcac5a-fcc8-496d-b34e-0a7d3c80aebd"",""projectId"":""a9f3d40c-5730-405c-b25e-1034c4c56f3f""}","https://test12345.live/?num_scrambled_semantic=8&num_scrambled_causal=4&num_scrambled_schematic=4&participantId=ACE2AB98744A4CC38C0AC6401D16E272&assignmentId=cfbcac5a-fcc8-496d-b34e-0a7d3c80aebd&projectId=a9f3d40c-5730-405c-b25e-1034c4c56f3f","ACE2AB98744A4CC38C0AC6401D16E272-2025-08-07-19-02-57","","1307","","images/semantic_sequence/using_technology_semantic/using_technology_semantic_ten.png","0","",""
"","","","","","image-button-response","30","345815","0.0-10.0-1.0-2.1","ACE2AB98744A4CC38C0AC6401D16E272","ACE2AB98744A4CC38C0AC6401D16E272","cfbcac5a-fcc8-496d-b34e-0a7d3c80aebd","a9f3d40c-5730-405c-b25e-1034c4c56f3f","{""num_scrambled_semantic"":""8"",""num_scrambled_causal"":""4"",""num_scrambled_schematic"":""4"",""participantId"":""ACE2AB98744A4CC38C0AC6401D16E272"",""assignmentId"":""cfbcac5a-fcc8-496d-b34e-0a7d3c80aebd"",""projectId"":""a9f3d40c-5730-405c-b25e-1034c4c56f3f""}","https://test12345.live/?num_scrambled_semantic=8&num_scrambled_causal=4&num_scrambled_schematic=4&participantId=ACE2AB98744A4CC38C0AC6401D16E272&assignmentId=cfbcac5a-fcc8-496d-b34e-0a7d3c80aebd&projectId=a9f3d40c-5730-405c-b25e-1034c4c56f3f","ACE2AB98744A4CC38C0AC6401D16E272-2025-08-07-19-02-57","","null","","[]","null","",""
"","","","","","image-button-response","31","350322","0.0-10.0-1.0-0.2","ACE2AB98744A4CC38C0AC6401D16E272","ACE2AB98744A4CC38C0AC6401D16E272","cfbcac5a-fcc8-496d-b34e-0a7d3c80aebd","a9f3d40c-5730-405c-b25e-1034c4c56f3f","{""num_scrambled_semantic"":""8"",""num_scrambled_causal"":""4"",""num_scrambled_schematic"":""4"",""participantId"":""ACE2AB98744A4CC38C0AC6401D16E272"",""assignmentId"":""cfbcac5a-fcc8-496d-b34e-0a7d3c80aebd"",""projectId"":""a9f3d40c-5730-405c-b25e-1034c4c56f3f""}","https://test12345.live/?num_scrambled_semantic=8&num_scrambled_causal=4&num_scrambled_schematic=4&participantId=ACE2AB98744A4CC38C0AC6401D16E272&assignmentId=cfbcac5a-fcc8-496d-b34e-0a7d3c80aebd&projectId=a9f3d40c-5730-405c-b25e-1034c4c56f3f","ACE2AB98744A4CC38C0AC6401D16E272-2025-08-07-19-02-57","","null","","images/semantic_sequence/using_technology_semantic/using_technology_semantic_4.png","null","",""
"","","","","","image-button-response","32","350922","0.0-10.0-1.0-1.2","ACE2AB98744A4CC38C0AC6401D16E272","ACE2AB98744A4CC38C0AC6401D16E272","cfbcac5a-fcc8-496d-b34e-0a7d3c80aebd","a9f3d40c-5730-405c-b25e-1034c4c56f3f","{""num_scrambled_semantic"":""8"",""num_scrambled_causal"":""4"",""num_scrambled_schematic"":""4"",""participantId"":""ACE2AB98744A4CC38C0AC6401D16E272"",""assignmentId"":""cfbcac5a-fcc8-496d-b34e-0a7d3c80aebd"",""projectId"":""a9f3d40c-5730-405c-b25e-1034c4c56f3f""}","https://test12345.live/?num_scrambled_semantic=8&num_scrambled_causal=4&num_scrambled_schematic=4&participantId=ACE2AB98744A4CC38C0AC6401D16E272&assignmentId=cfbcac5a-fcc8-496d-b34e-0a7d3c80aebd&projectId=a9f3d40c-5730-405c-b25e-1034c4c56f3f","ACE2AB98744A4CC38C0AC6401D16E272-2025-08-07-19-02-57","","598","","images/semantic_sequence/using_technology_semantic/using_technology_semantic_4.png","0","",""
"","","","","","image-button-response","33","352732","0.0-10.0-1.0-2.2","ACE2AB98744A4CC38C0AC6401D16E272","ACE2AB98744A4CC38C0AC6401D16E272","cfbcac5a-fcc8-496d-b34e-0a7d3c80aebd","a9f3d40c-5730-405c-b25e-1034c4c56f3f","{""num_scrambled_semantic"":""8"",""num_scrambled_causal"":""4"",""num_scrambled_schematic"":""4"",""participantId"":""ACE2AB98744A4CC38C0AC6401D16E272"",""assignmentId"":""cfbcac5a-fcc8-496d-b34e-0a7d3c80aebd"",""projectId"":""a9f3d40c-5730-405c-b25e-1034c4c56f3f""}","https://test12345.live/?num_scrambled_semantic=8&num_scrambled_causal=4&num_scrambled_schematic=4&participantId=ACE2AB98744A4CC38C0AC6401D16E272&assignmentId=cfbcac5a-fcc8-496d-b34e-0a7d3c80aebd&projectId=a9f3d40c-5730-405c-b25e-1034c4c56f3f","ACE2AB98744A4CC38C0AC6401D16E272-2025-08-07-19-02-57","","null","","[]","null","",""
"","","","","","image-button-response","34","357251","0.0-10.0-1.0-0.3","ACE2AB98744A4CC38C0AC6401D16E272","ACE2AB98744A4CC38C0AC6401D16E272","cfbcac5a-fcc8-496d-b34e-0a7d3c80aebd","a9f3d40c-5730-405c-b25e-1034c4c56f3f","{""num_scrambled_semantic"":""8"",""num_scrambled_causal"":""4"",""num_scrambled_schematic"":""4"",""participantId"":""ACE2AB98744A4CC38C0AC6401D16E272"",""assignmentId"":""cfbcac5a-fcc8-496d-b34e-0a7d3c80aebd"",""projectId"":""a9f3d40c-5730-405c-b25e-1034c4c56f3f""}","https://test12345.live/?num_scrambled_semantic=8&num_scrambled_causal=4&num_scrambled_schematic=4&participantId=ACE2AB98744A4CC38C0AC6401D16E272&assignmentId=cfbcac5a-fcc8-496d-b34e-0a7d3c80aebd&projectId=a9f3d40c-5730-405c-b25e-1034c4c56f3f","ACE2AB98744A4CC38C0AC6401D16E272-2025-08-07-19-02-57","","null","","images/semantic_sequence/using_technology_semantic/using_technology_semantic_9.png","null","",""
"","","","","","image-button-response","35","357903","0.0-10.0-1.0-1.3","ACE2AB98744A4CC38C0AC6401D16E272","ACE2AB98744A4CC38C0AC6401D16E272","cfbcac5a-fcc8-496d-b34e-0a7d3c80aebd","a9f3d40c-5730-405c-b25e-1034c4c56f3f","{""num_scrambled_semantic"":""8"",""num_scrambled_causal"":""4"",""num_scrambled_schematic"":""4"",""participantId"":""ACE2AB98744A4CC38C0AC6401D16E272"",""assignmentId"":""cfbcac5a-fcc8-496d-b34e-0a7d3c80aebd"",""projectId"":""a9f3d40c-5730-405c-b25e-1034c4c56f3f""}","https://test12345.live/?num_scrambled_semantic=8&num_scrambled_causal=4&num_scrambled_schematic=4&participantId=ACE2AB98744A4CC38C0AC6401D16E272&assignmentId=cfbcac5a-fcc8-496d-b34e-0a7d3c80aebd&projectId=a9f3d40c-5730-405c-b25e-1034c4c56f3f","ACE2AB98744A4CC38C0AC6401D16E272-2025-08-07-19-02-57","","651","","images/semantic_sequence/using_technology_semantic/using_technology_semantic_9.png","0","",""
"","","","","","image-button-response","36","359716","0.0-10.0-1.0-2.3","ACE2AB98744A4CC38C0AC6401D16E272","ACE2AB98744A4CC38C0AC6401D16E272","cfbcac5a-fcc8-496d-b34e-0a7d3c80aebd","a9f3d40c-5730-405c-b25e-1034c4c56f3f","{""num_scrambled_semantic"":""8"",""num_scrambled_causal"":""4"",""num_scrambled_schematic"":""4"",""participantId"":""ACE2AB98744A4CC38C0AC6401D16E272"",""assignmentId"":""cfbcac5a-fcc8-496d-b34e-0a7d3c80aebd"",""projectId"":""a9f3d40c-5730-405c-b25e-1034c4c56f3f""}","https://test12345.live/?num_scrambled_semantic=8&num_scrambled_causal=4&num_scrambled_schematic=4&participantId=ACE2AB98744A4CC38C0AC6401D16E272&assignmentId=cfbcac5a-fcc8-496d-b34e-0a7d3c80aebd&projectId=a9f3d40c-5730-405c-b25e-1034c4c56f3f","ACE2AB98744A4CC38C0AC6401D16E272-2025-08-07-19-02-57","","null","","[]","null","",""
"","","","","","image-button-response","37","364228","0.0-10.0-1.0-0.4","ACE2AB98744A4CC38C0AC6401D16E272","ACE2AB98744A4CC38C0AC6401D16E272","cfbcac5a-fcc8-496d-b34e-0a7d3c80aebd","a9f3d40c-5730-405c-b25e-1034c4c56f3f","{""num_scrambled_semantic"":""8"",""num_scrambled_causal"":""4"",""num_scrambled_schematic"":""4"",""participantId"":""ACE2AB98744A4CC38C0AC6401D16E272"",""assignmentId"":""cfbcac5a-fcc8-496d-b34e-0a7d3c80aebd"",""projectId"":""a9f3d40c-5730-405c-b25e-1034c4c56f3f""}","https://test12345.live/?num_scrambled_semantic=8&num_scrambled_causal=4&num_scrambled_schematic=4&participantId=ACE2AB98744A4CC38C0AC6401D16E272&assignmentId=cfbcac5a-fcc8-496d-b34e-0a7d3c80aebd&projectId=a9f3d40c-5730-405c-b25e-1034c4c56f3f","ACE2AB98744A4CC38C0AC6401D16E272-2025-08-07-19-02-57","","null","","images/semantic_sequence/using_technology_semantic/using_technology_semantic_2.png","null","",""
"","","","","","image-button-response","38","364828","0.0-10.0-1.0-1.4","ACE2AB98744A4CC38C0AC6401D16E272","ACE2AB98744A4CC38C0AC6401D16E272","cfbcac5a-fcc8-496d-b34e-0a7d3c80aebd","a9f3d40c-5730-405c-b25e-1034c4c56f3f","{""num_scrambled_semantic"":""8"",""num_scrambled_causal"":""4"",""num_scrambled_schematic"":""4"",""participantId"":""ACE2AB98744A4CC38C0AC6401D16E272"",""assignmentId"":""cfbcac5a-fcc8-496d-b34e-0a7d3c80aebd"",""projectId"":""a9f3d40c-5730-405c-b25e-1034c4c56f3f""}","https://test12345.live/?num_scrambled_semantic=8&num_scrambled_causal=4&num_scrambled_schematic=4&participantId=ACE2AB98744A4CC38C0AC6401D16E272&assignmentId=cfbcac5a-fcc8-496d-b34e-0a7d3c80aebd&projectId=a9f3d40c-5730-405c-b25e-1034c4c56f3f","ACE2AB98744A4CC38C0AC6401D16E272-2025-08-07-19-02-57","","598","","images/semantic_sequence/using_technology_semantic/using_technology_semantic_2.png","0","",""
"","","","","","image-button-response","39","366633","0.0-10.0-1.0-2.4","ACE2AB98744A4CC38C0AC6401D16E272","ACE2AB98744A4CC38C0AC6401D16E272","cfbcac5a-fcc8-496d-b34e-0a7d3c80aebd","a9f3d40c-5730-405c-b25e-1034c4c56f3f","{""num_scrambled_semantic"":""8"",""num_scrambled_causal"":""4"",""num_scrambled_schematic"":""4"",""participantId"":""ACE2AB98744A4CC38C0AC6401D16E272"",""assignmentId"":""cfbcac5a-fcc8-496d-b34e-0a7d3c80aebd"",""projectId"":""a9f3d40c-5730-405c-b25e-1034c4c56f3f""}","https://test12345.live/?num_scrambled_semantic=8&num_scrambled_causal=4&num_scrambled_schematic=4&participantId=ACE2AB98744A4CC38C0AC6401D16E272&assignmentId=cfbcac5a-fcc8-496d-b34e-0a7d3c80aebd&projectId=a9f3d40c-5730-405c-b25e-1034c4c56f3f","ACE2AB98744A4CC38C0AC6401D16E272-2025-08-07-19-02-57","","null","","[]","null","",""
"","","","","","image-button-response","40","371156","0.0-10.0-1.0-0.5","ACE2AB98744A4CC38C0AC6401D16E272","ACE2AB98744A4CC38C0AC6401D16E272","cfbcac5a-fcc8-496d-b34e-0a7d3c80aebd","a9f3d40c-5730-405c-b25e-1034c4c56f3f","{""num_scrambled_semantic"":""8"",""num_scrambled_causal"":""4"",""num_scrambled_schematic"":""4"",""participantId"":""ACE2AB98744A4CC38C0AC6401D16E272"",""assignmentId"":""cfbcac5a-fcc8-496d-b34e-0a7d3c80aebd"",""projectId"":""a9f3d40c-5730-405c-b25e-1034c4c56f3f""}","https://test12345.live/?num_scrambled_semantic=8&num_scrambled_causal=4&num_scrambled_schematic=4&participantId=ACE2AB98744A4CC38C0AC6401D16E272&assignmentId=cfbcac5a-fcc8-496d-b34e-0a7d3c80aebd&projectId=a9f3d40c-5730-405c-b25e-1034c4c56f3f","ACE2AB98744A4CC38C0AC6401D16E272-2025-08-07-19-02-57","","null","","images/semantic_sequence/using_technology_semantic/using_technology_semantic_5.png","null","",""
"","","","","","image-button-response","41","371880","0.0-10.0-1.0-1.5","ACE2AB98744A4CC38C0AC6401D16E272","ACE2AB98744A4CC38C0AC6401D16E272","cfbcac5a-fcc8-496d-b34e-0a7d3c80aebd","a9f3d40c-5730-405c-b25e-1034c4c56f3f","{""num_scrambled_semantic"":""8"",""num_scrambled_causal"":""4"",""num_scrambled_schematic"":""4"",""participantId"":""ACE2AB98744A4CC38C0AC6401D16E272"",""assignmentId"":""cfbcac5a-fcc8-496d-b34e-0a7d3c80aebd"",""projectId"":""a9f3d40c-5730-405c-b25e-1034c4c56f3f""}","https://test12345.live/?num_scrambled_semantic=8&num_scrambled_causal=4&num_scrambled_schematic=4&participantId=ACE2AB98744A4CC38C0AC6401D16E272&assignmentId=cfbcac5a-fcc8-496d-b34e-0a7d3c80aebd&projectId=a9f3d40c-5730-405c-b25e-1034c4c56f3f","ACE2AB98744A4CC38C0AC6401D16E272-2025-08-07-19-02-57","","723","","images/semantic_sequence/using_technology_semantic/using_technology_semantic_5.png","0","",""
"","","","","","image-button-response","42","373699","0.0-10.0-1.0-2.5","ACE2AB98744A4CC38C0AC6401D16E272","ACE2AB98744A4CC38C0AC6401D16E272","cfbcac5a-fcc8-496d-b34e-0a7d3c80aebd","a9f3d40c-5730-405c-b25e-1034c4c56f3f","{""num_scrambled_semantic"":""8"",""num_scrambled_causal"":""4"",""num_scrambled_schematic"":""4"",""participantId"":""ACE2AB98744A4CC38C0AC6401D16E272"",""assignmentId"":""cfbcac5a-fcc8-496d-b34e-0a7d3c80aebd"",""projectId"":""a9f3d40c-5730-405c-b25e-1034c4c56f3f""}","https://test12345.live/?num_scrambled_semantic=8&num_scrambled_causal=4&num_scrambled_schematic=4&participantId=ACE2AB98744A4CC38C0AC6401D16E272&assignmentId=cfbcac5a-fcc8-496d-b34e-0a7d3c80aebd&projectId=a9f3d40c-5730-405c-b25e-1034c4c56f3f","ACE2AB98744A4CC38C0AC6401D16E272-2025-08-07-19-02-57","","null","","[]","null","",""
"","","","","","image-button-response","43","378219","0.0-10.0-1.0-0.6","ACE2AB98744A4CC38C0AC6401D16E272","ACE2AB98744A4CC38C0AC6401D16E272","cfbcac5a-fcc8-496d-b34e-0a7d3c80aebd","a9f3d40c-5730-405c-b25e-1034c4c56f3f","{""num_scrambled_semantic"":""8"",""num_scrambled_causal"":""4"",""num_scrambled_schematic"":""4"",""participantId"":""ACE2AB98744A4CC38C0AC6401D16E272"",""assignmentId"":""cfbcac5a-fcc8-496d-b34e-0a7d3c80aebd"",""projectId"":""a9f3d40c-5730-405c-b25e-1034c4c56f3f""}","https://test12345.live/?num_scrambled_semantic=8&num_scrambled_causal=4&num_scrambled_schematic=4&participantId=ACE2AB98744A4CC38C0AC6401D16E272&assignmentId=cfbcac5a-fcc8-496d-b34e-0a7d3c80aebd&projectId=a9f3d40c-5730-405c-b25e-1034c4c56f3f","ACE2AB98744A4CC38C0AC6401D16E272-2025-08-07-19-02-57","","null","","images/semantic_sequence/using_technology_semantic/using_technology_semantic_6.png","null","",""
"","","","","","image-button-response","44","379205","0.0-10.0-1.0-1.6","ACE2AB98744A4CC38C0AC6401D16E272","ACE2AB98744A4CC38C0AC6401D16E272","cfbcac5a-fcc8-496d-b34e-0a7d3c80aebd","a9f3d40c-5730-405c-b25e-1034c4c56f3f","{""num_scrambled_semantic"":""8"",""num_scrambled_causal"":""4"",""num_scrambled_schematic"":""4"",""participantId"":""ACE2AB98744A4CC38C0AC6401D16E272"",""assignmentId"":""cfbcac5a-fcc8-496d-b34e-0a7d3c80aebd"",""projectId"":""a9f3d40c-5730-405c-b25e-1034c4c56f3f""}","https://test12345.live/?num_scrambled_semantic=8&num_scrambled_causal=4&num_scrambled_schematic=4&participantId=ACE2AB98744A4CC38C0AC6401D16E272&assignmentId=cfbcac5a-fcc8-496d-b34e-0a7d3c80aebd&projectId=a9f3d40c-5730-405c-b25e-1034c4c56f3f","ACE2AB98744A4CC38C0AC6401D16E272-2025-08-07-19-02-57","","985","","images/semantic_sequence/using_technology_semantic/using_technology_semantic_6.png","0","",""
"","","","","","image-button-response","45","381017","0.0-10.0-1.0-2.6","ACE2AB98744A4CC38C0AC6401D16E272","ACE2AB98744A4CC38C0AC6401D16E272","cfbcac5a-fcc8-496d-b34e-0a7d3c80aebd","a9f3d40c-5730-405c-b25e-1034c4c56f3f","{""num_scrambled_semantic"":""8"",""num_scrambled_causal"":""4"",""num_scrambled_schematic"":""4"",""participantId"":""ACE2AB98744A4CC38C0AC6401D16E272"",""assignmentId"":""cfbcac5a-fcc8-496d-b34e-0a7d3c80aebd"",""projectId"":""a9f3d40c-5730-405c-b25e-1034c4c56f3f""}","https://test12345.live/?num_scrambled_semantic=8&num_scrambled_causal=4&num_scrambled_schematic=4&participantId=ACE2AB98744A4CC38C0AC6401D16E272&assignmentId=cfbcac5a-fcc8-496d-b34e-0a7d3c80aebd&projectId=a9f3d40c-5730-405c-b25e-1034c4c56f3f","ACE2AB98744A4CC38C0AC6401D16E272-2025-08-07-19-02-57","","null","","[]","null","",""
"","","","","","image-button-response","46","385529","0.0-10.0-1.0-0.7","ACE2AB98744A4CC38C0AC6401D16E272","ACE2AB98744A4CC38C0AC6401D16E272","cfbcac5a-fcc8-496d-b34e-0a7d3c80aebd","a9f3d40c-5730-405c-b25e-1034c4c56f3f","{""num_scrambled_semantic"":""8"",""num_scrambled_causal"":""4"",""num_scrambled_schematic"":""4"",""participantId"":""ACE2AB98744A4CC38C0AC6401D16E272"",""assignmentId"":""cfbcac5a-fcc8-496d-b34e-0a7d3c80aebd"",""projectId"":""a9f3d40c-5730-405c-b25e-1034c4c56f3f""}","https://test12345.live/?num_scrambled_semantic=8&num_scrambled_causal=4&num_scrambled_schematic=4&participantId=ACE2AB98744A4CC38C0AC6401D16E272&assignmentId=cfbcac5a-fcc8-496d-b34e-0a7d3c80aebd&projectId=a9f3d40c-5730-405c-b25e-1034c4c56f3f","ACE2AB98744A4CC38C0AC6401D16E272-2025-08-07-19-02-57","","null","","images/semantic_sequence/using_technology_semantic/using_technology_semantic_7.png","null","",""
"","","","","","image-button-response","47","385946","0.0-10.0-1.0-1.7","ACE2AB98744A4CC38C0AC6401D16E272","ACE2AB98744A4CC38C0AC6401D16E272","cfbcac5a-fcc8-496d-b34e-0a7d3c80aebd","a9f3d40c-5730-405c-b25e-1034c4c56f3f","{""num_scrambled_semantic"":""8"",""num_scrambled_causal"":""4"",""num_scrambled_schematic"":""4"",""participantId"":""ACE2AB98744A4CC38C0AC6401D16E272"",""assignmentId"":""cfbcac5a-fcc8-496d-b34e-0a7d3c80aebd"",""projectId"":""a9f3d40c-5730-405c-b25e-1034c4c56f3f""}","https://test12345.live/?num_scrambled_semantic=8&num_scrambled_causal=4&num_scrambled_schematic=4&participantId=ACE2AB98744A4CC38C0AC6401D16E272&assignmentId=cfbcac5a-fcc8-496d-b34e-0a7d3c80aebd&projectId=a9f3d40c-5730-405c-b25e-1034c4c56f3f","ACE2AB98744A4CC38C0AC6401D16E272-2025-08-07-19-02-57","","415","","images/semantic_sequence/using_technology_semantic/using_technology_semantic_7.png","0","",""
"","","","","","image-button-response","48","387752","0.0-10.0-1.0-2.7","ACE2AB98744A4CC38C0AC6401D16E272","ACE2AB98744A4CC38C0AC6401D16E272","cfbcac5a-fcc8-496d-b34e-0a7d3c80aebd","a9f3d40c-5730-405c-b25e-1034c4c56f3f","{""num_scrambled_semantic"":""8"",""num_scrambled_causal"":""4"",""num_scrambled_schematic"":""4"",""participantId"":""ACE2AB98744A4CC38C0AC6401D16E272"",""assignmentId"":""cfbcac5a-fcc8-496d-b34e-0a7d3c80aebd"",""projectId"":""a9f3d40c-5730-405c-b25e-1034c4c56f3f""}","https://test12345.live/?num_scrambled_semantic=8&num_scrambled_causal=4&num_scrambled_schematic=4&participantId=ACE2AB98744A4CC38C0AC6401D16E272&assignmentId=cfbcac5a-fcc8-496d-b34e-0a7d3c80aebd&projectId=a9f3d40c-5730-405c-b25e-1034c4c56f3f","ACE2AB98744A4CC38C0AC6401D16E272-2025-08-07-19-02-57","","null","","[]","null","",""
"","","","","","image-button-response","49","392256","0.0-10.0-1.0-0.8","ACE2AB98744A4CC38C0AC6401D16E272","ACE2AB98744A4CC38C0AC6401D16E272","cfbcac5a-fcc8-496d-b34e-0a7d3c80aebd","a9f3d40c-5730-405c-b25e-1034c4c56f3f","{""num_scrambled_semantic"":""8"",""num_scrambled_causal"":""4"",""num_scrambled_schematic"":""4"",""participantId"":""ACE2AB98744A4CC38C0AC6401D16E272"",""assignmentId"":""cfbcac5a-fcc8-496d-b34e-0a7d3c80aebd"",""projectId"":""a9f3d40c-5730-405c-b25e-1034c4c56f3f""}","https://test12345.live/?num_scrambled_semantic=8&num_scrambled_causal=4&num_scrambled_schematic=4&participantId=ACE2AB98744A4CC38C0AC6401D16E272&assignmentId=cfbcac5a-fcc8-496d-b34e-0a7d3c80aebd&projectId=a9f3d40c-5730-405c-b25e-1034c4c56f3f","ACE2AB98744A4CC38C0AC6401D16E272-2025-08-07-19-02-57","","null","","images/semantic_sequence/using_technology_semantic/using_technology_semantic_1.png","null","",""
"","","","","","image-button-response","50","392687","0.0-10.0-1.0-1.8","ACE2AB98744A4CC38C0AC6401D16E272","ACE2AB98744A4CC38C0AC6401D16E272","cfbcac5a-fcc8-496d-b34e-0a7d3c80aebd","a9f3d40c-5730-405c-b25e-1034c4c56f3f","{""num_scrambled_semantic"":""8"",""num_scrambled_causal"":""4"",""num_scrambled_schematic"":""4"",""participantId"":""ACE2AB98744A4CC38C0AC6401D16E272"",""assignmentId"":""cfbcac5a-fcc8-496d-b34e-0a7d3c80aebd"",""projectId"":""a9f3d40c-5730-405c-b25e-1034c4c56f3f""}","https://test12345.live/?num_scrambled_semantic=8&num_scrambled_causal=4&num_scrambled_schematic=4&participantId=ACE2AB98744A4CC38C0AC6401D16E272&assignmentId=cfbcac5a-fcc8-496d-b34e-0a7d3c80aebd&projectId=a9f3d40c-5730-405c-b25e-1034c4c56f3f","ACE2AB98744A4CC38C0AC6401D16E272-2025-08-07-19-02-57","","429","","images/semantic_sequence/using_technology_semantic/using_technology_semantic_1.png","0","",""
"","","","","","image-button-response","51","394501","0.0-10.0-1.0-2.8","ACE2AB98744A4CC38C0AC6401D16E272","ACE2AB98744A4CC38C0AC6401D16E272","cfbcac5a-fcc8-496d-b34e-0a7d3c80aebd","a9f3d40c-5730-405c-b25e-1034c4c56f3f","{""num_scrambled_semantic"":""8"",""num_scrambled_causal"":""4"",""num_scrambled_schematic"":""4"",""participantId"":""ACE2AB98744A4CC38C0AC6401D16E272"",""assignmentId"":""cfbcac5a-fcc8-496d-b34e-0a7d3c80aebd"",""projectId"":""a9f3d40c-5730-405c-b25e-1034c4c56f3f""}","https://test12345.live/?num_scrambled_semantic=8&num_scrambled_causal=4&num_scrambled_schematic=4&participantId=ACE2AB98744A4CC38C0AC6401D16E272&assignmentId=cfbcac5a-fcc8-496d-b34e-0a7d3c80aebd&projectId=a9f3d40c-5730-405c-b25e-1034c4c56f3f","ACE2AB98744A4CC38C0AC6401D16E272-2025-08-07-19-02-57","","null","","[]","null","",""
"","","","","","image-button-response","52","399006","0.0-10.0-1.0-0.9","ACE2AB98744A4CC38C0AC6401D16E272","ACE2AB98744A4CC38C0AC6401D16E272","cfbcac5a-fcc8-496d-b34e-0a7d3c80aebd","a9f3d40c-5730-405c-b25e-1034c4c56f3f","{""num_scrambled_semantic"":""8"",""num_scrambled_causal"":""4"",""num_scrambled_schematic"":""4"",""participantId"":""ACE2AB98744A4CC38C0AC6401D16E272"",""assignmentId"":""cfbcac5a-fcc8-496d-b34e-0a7d3c80aebd"",""projectId"":""a9f3d40c-5730-405c-b25e-1034c4c56f3f""}","https://test12345.live/?num_scrambled_semantic=8&num_scrambled_causal=4&num_scrambled_schematic=4&participantId=ACE2AB98744A4CC38C0AC6401D16E272&assignmentId=cfbcac5a-fcc8-496d-b34e-0a7d3c80aebd&projectId=a9f3d40c-5730-405c-b25e-1034c4c56f3f","ACE2AB98744A4CC38C0AC6401D16E272-2025-08-07-19-02-57","","null","","images/semantic_sequence/using_technology_semantic/using_technology_semantic_8.png","null","",""
"","","","","","image-button-response","53","399778","0.0-10.0-1.0-1.9","ACE2AB98744A4CC38C0AC6401D16E272","ACE2AB98744A4CC38C0AC6401D16E272","cfbcac5a-fcc8-496d-b34e-0a7d3c80aebd","a9f3d40c-5730-405c-b25e-1034c4c56f3f","{""num_scrambled_semantic"":""8"",""num_scrambled_causal"":""4"",""num_scrambled_schematic"":""4"",""participantId"":""ACE2AB98744A4CC38C0AC6401D16E272"",""assignmentId"":""cfbcac5a-fcc8-496d-b34e-0a7d3c80aebd"",""projectId"":""a9f3d40c-5730-405c-b25e-1034c4c56f3f""}","https://test12345.live/?num_scrambled_semantic=8&num_scrambled_causal=4&num_scrambled_schematic=4&participantId=ACE2AB98744A4CC38C0AC6401D16E272&assignmentId=cfbcac5a-fcc8-496d-b34e-0a7d3c80aebd&projectId=a9f3d40c-5730-405c-b25e-1034c4c56f3f","ACE2AB98744A4CC38C0AC6401D16E272-2025-08-07-19-02-57","","770","","images/semantic_sequence/using_technology_semantic/using_technology_semantic_8.png","0","",""
"","","","","","image-button-response","54","401592","0.0-10.0-1.0-2.9","ACE2AB98744A4CC38C0AC6401D16E272","ACE2AB98744A4CC38C0AC6401D16E272","cfbcac5a-fcc8-496d-b34e-0a7d3c80aebd","a9f3d40c-5730-405c-b25e-1034c4c56f3f","{""num_scrambled_semantic"":""8"",""num_scrambled_causal"":""4"",""num_scrambled_schematic"":""4"",""participantId"":""ACE2AB98744A4CC38C0AC6401D16E272"",""assignmentId"":""cfbcac5a-fcc8-496d-b34e-0a7d3c80aebd"",""projectId"":""a9f3d40c-5730-405c-b25e-1034c4c56f3f""}","https://test12345.live/?num_scrambled_semantic=8&num_scrambled_causal=4&num_scrambled_schematic=4&participantId=ACE2AB98744A4CC38C0AC6401D16E272&assignmentId=cfbcac5a-fcc8-496d-b34e-0a7d3c80aebd&projectId=a9f3d40c-5730-405c-b25e-1034c4c56f3f","ACE2AB98744A4CC38C0AC6401D16E272-2025-08-07-19-02-57","","null","","[]","null","",""
"","","","","","html-audio-response","55","449291","0.0-11.0","ACE2AB98744A4CC38C0AC6401D16E272","ACE2AB98744A4CC38C0AC6401D16E272","cfbcac5a-fcc8-496d-b34e-0a7d3c80aebd","a9f3d40c-5730-405c-b25e-1034c4c56f3f","{""num_scrambled_semantic"":""8"",""num_scrambled_causal"":""4"",""num_scrambled_schematic"":""4"",""participantId"":""ACE2AB98744A4CC38C0AC6401D16E272"",""assignmentId"":""cfbcac5a-fcc8-496d-b34e-0a7d3c80aebd"",""projectId"":""a9f3d40c-5730-405c-b25e-1034c4c56f3f""}","https://test12345.live/?num_scrambled_semantic=8&num_scrambled_causal=4&num_scrambled_schematic=4&participantId=ACE2AB98744A4CC38C0AC6401D16E272&assignmentId=cfbcac5a-fcc8-496d-b34e-0a7d3c80aebd&projectId=a9f3d40c-5730-405c-b25e-1034c4c56f3f","ACE2AB98744A4CC38C0AC6401D16E272-2025-08-07-19-02-57","","40849","","[""<span style=\""color: red; font-size: 24px\""> NOW RECORDING</span><p>Please say out loud all the images you saw, as many as you can remember. The images can be said in any order.</p>""]","","1","using_technology_semantic"
"","","","","","image-button-response","56","455316","0.0-12.0-0.0","ACE2AB98744A4CC38C0AC6401D16E272","ACE2AB98744A4CC38C0AC6401D16E272","cfbcac5a-fcc8-496d-b34e-0a7d3c80aebd","a9f3d40c-5730-405c-b25e-1034c4c56f3f","{""num_scrambled_semantic"":""8"",""num_scrambled_causal"":""4"",""num_scrambled_schematic"":""4"",""participantId"":""ACE2AB98744A4CC38C0AC6401D16E272"",""assignmentId"":""cfbcac5a-fcc8-496d-b34e-0a7d3c80aebd"",""projectId"":""a9f3d40c-5730-405c-b25e-1034c4c56f3f""}","https://test12345.live/?num_scrambled_semantic=8&num_scrambled_causal=4&num_scrambled_schematic=4&participantId=ACE2AB98744A4CC38C0AC6401D16E272&assignmentId=cfbcac5a-fcc8-496d-b34e-0a7d3c80aebd&projectId=a9f3d40c-5730-405c-b25e-1034c4c56f3f","ACE2AB98744A4CC38C0AC6401D16E272-2025-08-07-19-02-57","","null","","images/semantic_sequence/housework_semantic/housework_semantic_0.png","null","",""
"","","","","","image-button-response","57","459827","0.0-12.0-1.0-0.0","ACE2AB98744A4CC38C0AC6401D16E272","ACE2AB98744A4CC38C0AC6401D16E272","cfbcac5a-fcc8-496d-b34e-0a7d3c80aebd","a9f3d40c-5730-405c-b25e-1034c4c56f3f","{""num_scrambled_semantic"":""8"",""num_scrambled_causal"":""4"",""num_scrambled_schematic"":""4"",""participantId"":""ACE2AB98744A4CC38C0AC6401D16E272"",""assignmentId"":""cfbcac5a-fcc8-496d-b34e-0a7d3c80aebd"",""projectId"":""a9f3d40c-5730-405c-b25e-1034c4c56f3f""}","https://test12345.live/?num_scrambled_semantic=8&num_scrambled_causal=4&num_scrambled_schematic=4&participantId=ACE2AB98744A4CC38C0AC6401D16E272&assignmentId=cfbcac5a-fcc8-496d-b34e-0a7d3c80aebd&projectId=a9f3d40c-5730-405c-b25e-1034c4c56f3f","ACE2AB98744A4CC38C0AC6401D16E272-2025-08-07-19-02-57","","null","","images/semantic_sequence/housework_semantic/housework_semantic_9.png","null","",""
"","","","","","image-button-response","58","461869","0.0-12.0-1.0-1.0","ACE2AB98744A4CC38C0AC6401D16E272","ACE2AB98744A4CC38C0AC6401D16E272","cfbcac5a-fcc8-496d-b34e-0a7d3c80aebd","a9f3d40c-5730-405c-b25e-1034c4c56f3f","{""num_scrambled_semantic"":""8"",""num_scrambled_causal"":""4"",""num_scrambled_schematic"":""4"",""participantId"":""ACE2AB98744A4CC38C0AC6401D16E272"",""assignmentId"":""cfbcac5a-fcc8-496d-b34e-0a7d3c80aebd"",""projectId"":""a9f3d40c-5730-405c-b25e-1034c4c56f3f""}","https://test12345.live/?num_scrambled_semantic=8&num_scrambled_causal=4&num_scrambled_schematic=4&participantId=ACE2AB98744A4CC38C0AC6401D16E272&assignmentId=cfbcac5a-fcc8-496d-b34e-0a7d3c80aebd&projectId=a9f3d40c-5730-405c-b25e-1034c4c56f3f","ACE2AB98744A4CC38C0AC6401D16E272-2025-08-07-19-02-57","","2041","","images/semantic_sequence/housework_semantic/housework_semantic_9.png","0","",""
"","","","","","image-button-response","59","463688","0.0-12.0-1.0-2.0","ACE2AB98744A4CC38C0AC6401D16E272","ACE2AB98744A4CC38C0AC6401D16E272","cfbcac5a-fcc8-496d-b34e-0a7d3c80aebd","a9f3d40c-5730-405c-b25e-1034c4c56f3f","{""num_scrambled_semantic"":""8"",""num_scrambled_causal"":""4"",""num_scrambled_schematic"":""4"",""participantId"":""ACE2AB98744A4CC38C0AC6401D16E272"",""assignmentId"":""cfbcac5a-fcc8-496d-b34e-0a7d3c80aebd"",""projectId"":""a9f3d40c-5730-405c-b25e-1034c4c56f3f""}","https://test12345.live/?num_scrambled_semantic=8&num_scrambled_causal=4&num_scrambled_schematic=4&participantId=ACE2AB98744A4CC38C0AC6401D16E272&assignmentId=cfbcac5a-fcc8-496d-b34e-0a7d3c80aebd&projectId=a9f3d40c-5730-405c-b25e-1034c4c56f3f","ACE2AB98744A4CC38C0AC6401D16E272-2025-08-07-19-02-57","","null","","[]","null","",""
"","","","","","image-button-response","60","468210","0.0-12.0-1.0-0.1","ACE2AB98744A4CC38C0AC6401D16E272","ACE2AB98744A4CC38C0AC6401D16E272","cfbcac5a-fcc8-496d-b34e-0a7d3c80aebd","a9f3d40c-5730-405c-b25e-1034c4c56f3f","{""num_scrambled_semantic"":""8"",""num_scrambled_causal"":""4"",""num_scrambled_schematic"":""4"",""participantId"":""ACE2AB98744A4CC38C0AC6401D16E272"",""assignmentId"":""cfbcac5a-fcc8-496d-b34e-0a7d3c80aebd"",""projectId"":""a9f3d40c-5730-405c-b25e-1034c4c56f3f""}","https://test12345.live/?num_scrambled_semantic=8&num_scrambled_causal=4&num_scrambled_schematic=4&participantId=ACE2AB98744A4CC38C0AC6401D16E272&assignmentId=cfbcac5a-fcc8-496d-b34e-0a7d3c80aebd&projectId=a9f3d40c-5730-405c-b25e-1034c4c56f3f","ACE2AB98744A4CC38C0AC6401D16E272-2025-08-07-19-02-57","","null","","images/semantic_sequence/housework_semantic/housework_semantic_ten.png","null","",""
"","","","","","image-button-response","61","470968","0.0-12.0-1.0-1.1","ACE2AB98744A4CC38C0AC6401D16E272","ACE2AB98744A4CC38C0AC6401D16E272","cfbcac5a-fcc8-496d-b34e-0a7d3c80aebd","a9f3d40c-5730-405c-b25e-1034c4c56f3f","{""num_scrambled_semantic"":""8"",""num_scrambled_causal"":""4"",""num_scrambled_schematic"":""4"",""participantId"":""ACE2AB98744A4CC38C0AC6401D16E272"",""assignmentId"":""cfbcac5a-fcc8-496d-b34e-0a7d3c80aebd"",""projectId"":""a9f3d40c-5730-405c-b25e-1034c4c56f3f""}","https://test12345.live/?num_scrambled_semantic=8&num_scrambled_causal=4&num_scrambled_schematic=4&participantId=ACE2AB98744A4CC38C0AC6401D16E272&assignmentId=cfbcac5a-fcc8-496d-b34e-0a7d3c80aebd&projectId=a9f3d40c-5730-405c-b25e-1034c4c56f3f","ACE2AB98744A4CC38C0AC6401D16E272-2025-08-07-19-02-57","","2757","","images/semantic_sequence/housework_semantic/housework_semantic_ten.png","0","",""
"","","","","","image-button-response","62","472778","0.0-12.0-1.0-2.1","ACE2AB98744A4CC38C0AC6401D16E272","ACE2AB98744A4CC38C0AC6401D16E272","cfbcac5a-fcc8-496d-b34e-0a7d3c80aebd","a9f3d40c-5730-405c-b25e-1034c4c56f3f","{""num_scrambled_semantic"":""8"",""num_scrambled_causal"":""4"",""num_scrambled_schematic"":""4"",""participantId"":""ACE2AB98744A4CC38C0AC6401D16E272"",""assignmentId"":""cfbcac5a-fcc8-496d-b34e-0a7d3c80aebd"",""projectId"":""a9f3d40c-5730-405c-b25e-1034c4c56f3f""}","https://test12345.live/?num_scrambled_semantic=8&num_scrambled_causal=4&num_scrambled_schematic=4&participantId=ACE2AB98744A4CC38C0AC6401D16E272&assignmentId=cfbcac5a-fcc8-496d-b34e-0a7d3c80aebd&projectId=a9f3d40c-5730-405c-b25e-1034c4c56f3f","ACE2AB98744A4CC38C0AC6401D16E272-2025-08-07-19-02-57","","null","","[]","null","",""
"","","","","","image-button-response","63","477294","0.0-12.0-1.0-0.2","ACE2AB98744A4CC38C0AC6401D16E272","ACE2AB98744A4CC38C0AC6401D16E272","cfbcac5a-fcc8-496d-b34e-0a7d3c80aebd","a9f3d40c-5730-405c-b25e-1034c4c56f3f","{""num_scrambled_semantic"":""8"",""num_scrambled_causal"":""4"",""num_scrambled_schematic"":""4"",""participantId"":""ACE2AB98744A4CC38C0AC6401D16E272"",""assignmentId"":""cfbcac5a-fcc8-496d-b34e-0a7d3c80aebd"",""projectId"":""a9f3d40c-5730-405c-b25e-1034c4c56f3f""}","https://test12345.live/?num_scrambled_semantic=8&num_scrambled_causal=4&num_scrambled_schematic=4&participantId=ACE2AB98744A4CC38C0AC6401D16E272&assignmentId=cfbcac5a-fcc8-496d-b34e-0a7d3c80aebd&projectId=a9f3d40c-5730-405c-b25e-1034c4c56f3f","ACE2AB98744A4CC38C0AC6401D16E272-2025-08-07-19-02-57","","null","","images/semantic_sequence/housework_semantic/housework_semantic_6.png","null","",""
"","","","","","image-button-response","64","481306","0.0-12.0-1.0-1.2","ACE2AB98744A4CC38C0AC6401D16E272","ACE2AB98744A4CC38C0AC6401D16E272","cfbcac5a-fcc8-496d-b34e-0a7d3c80aebd","a9f3d40c-5730-405c-b25e-1034c4c56f3f","{""num_scrambled_semantic"":""8"",""num_scrambled_causal"":""4"",""num_scrambled_schematic"":""4"",""participantId"":""ACE2AB98744A4CC38C0AC6401D16E272"",""assignmentId"":""cfbcac5a-fcc8-496d-b34e-0a7d3c80aebd"",""projectId"":""a9f3d40c-5730-405c-b25e-1034c4c56f3f""}","https://test12345.live/?num_scrambled_semantic=8&num_scrambled_causal=4&num_scrambled_schematic=4&participantId=ACE2AB98744A4CC38C0AC6401D16E272&assignmentId=cfbcac5a-fcc8-496d-b34e-0a7d3c80aebd&projectId=a9f3d40c-5730-405c-b25e-1034c4c56f3f","ACE2AB98744A4CC38C0AC6401D16E272-2025-08-07-19-02-57","","null","","images/semantic_sequence/housework_semantic/housework_semantic_6.png","null","",""
"","","","","","image-button-response","65","483124","0.0-12.0-1.0-2.2","ACE2AB98744A4CC38C0AC6401D16E272","ACE2AB98744A4CC38C0AC6401D16E272","cfbcac5a-fcc8-496d-b34e-0a7d3c80aebd","a9f3d40c-5730-405c-b25e-1034c4c56f3f","{""num_scrambled_semantic"":""8"",""num_scrambled_causal"":""4"",""num_scrambled_schematic"":""4"",""participantId"":""ACE2AB98744A4CC38C0AC6401D16E272"",""assignmentId"":""cfbcac5a-fcc8-496d-b34e-0a7d3c80aebd"",""projectId"":""a9f3d40c-5730-405c-b25e-1034c4c56f3f""}","https://test12345.live/?num_scrambled_semantic=8&num_scrambled_causal=4&num_scrambled_schematic=4&participantId=ACE2AB98744A4CC38C0AC6401D16E272&assignmentId=cfbcac5a-fcc8-496d-b34e-0a7d3c80aebd&projectId=a9f3d40c-5730-405c-b25e-1034c4c56f3f","ACE2AB98744A4CC38C0AC6401D16E272-2025-08-07-19-02-57","","null","","[]","null","",""
"","","","","","image-button-response","66","487629","0.0-12.0-1.0-0.3","ACE2AB98744A4CC38C0AC6401D16E272","ACE2AB98744A4CC38C0AC6401D16E272","cfbcac5a-fcc8-496d-b34e-0a7d3c80aebd","a9f3d40c-5730-405c-b25e-1034c4c56f3f","{""num_scrambled_semantic"":""8"",""num_scrambled_causal"":""4"",""num_scrambled_schematic"":""4"",""participantId"":""ACE2AB98744A4CC38C0AC6401D16E272"",""assignmentId"":""cfbcac5a-fcc8-496d-b34e-0a7d3c80aebd"",""projectId"":""a9f3d40c-5730-405c-b25e-1034c4c56f3f""}","https://test12345.live/?num_scrambled_semantic=8&num_scrambled_causal=4&num_scrambled_schematic=4&participantId=ACE2AB98744A4CC38C0AC6401D16E272&assignmentId=cfbcac5a-fcc8-496d-b34e-0a7d3c80aebd&projectId=a9f3d40c-5730-405c-b25e-1034c4c56f3f","ACE2AB98744A4CC38C0AC6401D16E272-2025-08-07-19-02-57","","null","","images/semantic_sequence/housework_semantic/housework_semantic_1.png","null","",""
"","","","","","image-button-response","67","491637","0.0-12.0-1.0-1.3","ACE2AB98744A4CC38C0AC6401D16E272","ACE2AB98744A4CC38C0AC6401D16E272","cfbcac5a-fcc8-496d-b34e-0a7d3c80aebd","a9f3d40c-5730-405c-b25e-1034c4c56f3f","{""num_scrambled_semantic"":""8"",""num_scrambled_causal"":""4"",""num_scrambled_schematic"":""4"",""participantId"":""ACE2AB98744A4CC38C0AC6401D16E272"",""assignmentId"":""cfbcac5a-fcc8-496d-b34e-0a7d3c80aebd"",""projectId"":""a9f3d40c-5730-405c-b25e-1034c4c56f3f""}","https://test12345.live/?num_scrambled_semantic=8&num_scrambled_causal=4&num_scrambled_schematic=4&participantId=ACE2AB98744A4CC38C0AC6401D16E272&assignmentId=cfbcac5a-fcc8-496d-b34e-0a7d3c80aebd&projectId=a9f3d40c-5730-405c-b25e-1034c4c56f3f","ACE2AB98744A4CC38C0AC6401D16E272-2025-08-07-19-02-57","","null","","images/semantic_sequence/housework_semantic/housework_semantic_1.png","null","",""
"","","","","","image-button-response","68","493454","0.0-12.0-1.0-2.3","ACE2AB98744A4CC38C0AC6401D16E272","ACE2AB98744A4CC38C0AC6401D16E272","cfbcac5a-fcc8-496d-b34e-0a7d3c80aebd","a9f3d40c-5730-405c-b25e-1034c4c56f3f","{""num_scrambled_semantic"":""8"",""num_scrambled_causal"":""4"",""num_scrambled_schematic"":""4"",""participantId"":""ACE2AB98744A4CC38C0AC6401D16E272"",""assignmentId"":""cfbcac5a-fcc8-496d-b34e-0a7d3c80aebd"",""projectId"":""a9f3d40c-5730-405c-b25e-1034c4c56f3f""}","https://test12345.live/?num_scrambled_semantic=8&num_scrambled_causal=4&num_scrambled_schematic=4&participantId=ACE2AB98744A4CC38C0AC6401D16E272&assignmentId=cfbcac5a-fcc8-496d-b34e-0a7d3c80aebd&projectId=a9f3d40c-5730-405c-b25e-1034c4c56f3f","ACE2AB98744A4CC38C0AC6401D16E272-2025-08-07-19-02-57","","null","","[]","null","",""
"","","","","","image-button-response","69","497961","0.0-12.0-1.0-0.4","ACE2AB98744A4CC38C0AC6401D16E272","ACE2AB98744A4CC38C0AC6401D16E272","cfbcac5a-fcc8-496d-b34e-0a7d3c80aebd","a9f3d40c-5730-405c-b25e-1034c4c56f3f","{""num_scrambled_semantic"":""8"",""num_scrambled_causal"":""4"",""num_scrambled_schematic"":""4"",""participantId"":""ACE2AB98744A4CC38C0AC6401D16E272"",""assignmentId"":""cfbcac5a-fcc8-496d-b34e-0a7d3c80aebd"",""projectId"":""a9f3d40c-5730-405c-b25e-1034c4c56f3f""}","https://test12345.live/?num_scrambled_semantic=8&num_scrambled_causal=4&num_scrambled_schematic=4&participantId=ACE2AB98744A4CC38C0AC6401D16E272&assignmentId=cfbcac5a-fcc8-496d-b34e-0a7d3c80aebd&projectId=a9f3d40c-5730-405c-b25e-1034c4c56f3f","ACE2AB98744A4CC38C0AC6401D16E272-2025-08-07-19-02-57","","null","","images/semantic_sequence/housework_semantic/housework_semantic_4.png","null","",""
"","","","","","image-button-response","70","499731","0.0-12.0-1.0-1.4","ACE2AB98744A4CC38C0AC6401D16E272","ACE2AB98744A4CC38C0AC6401D16E272","cfbcac5a-fcc8-496d-b34e-0a7d3c80aebd","a9f3d40c-5730-405c-b25e-1034c4c56f3f","{""num_scrambled_semantic"":""8"",""num_scrambled_causal"":""4"",""num_scrambled_schematic"":""4"",""participantId"":""ACE2AB98744A4CC38C0AC6401D16E272"",""assignmentId"":""cfbcac5a-fcc8-496d-b34e-0a7d3c80aebd"",""projectId"":""a9f3d40c-5730-405c-b25e-1034c4c56f3f""}","https://test12345.live/?num_scrambled_semantic=8&num_scrambled_causal=4&num_scrambled_schematic=4&participantId=ACE2AB98744A4CC38C0AC6401D16E272&assignmentId=cfbcac5a-fcc8-496d-b34e-0a7d3c80aebd&projectId=a9f3d40c-5730-405c-b25e-1034c4c56f3f","ACE2AB98744A4CC38C0AC6401D16E272-2025-08-07-19-02-57","","1769","","images/semantic_sequence/housework_semantic/housework_semantic_4.png","0","",""
"","","","","","image-button-response","71","501538","0.0-12.0-1.0-2.4","ACE2AB98744A4CC38C0AC6401D16E272","ACE2AB98744A4CC38C0AC6401D16E272","cfbcac5a-fcc8-496d-b34e-0a7d3c80aebd","a9f3d40c-5730-405c-b25e-1034c4c56f3f","{""num_scrambled_semantic"":""8"",""num_scrambled_causal"":""4"",""num_scrambled_schematic"":""4"",""participantId"":""ACE2AB98744A4CC38C0AC6401D16E272"",""assignmentId"":""cfbcac5a-fcc8-496d-b34e-0a7d3c80aebd"",""projectId"":""a9f3d40c-5730-405c-b25e-1034c4c56f3f""}","https://test12345.live/?num_scrambled_semantic=8&num_scrambled_causal=4&num_scrambled_schematic=4&participantId=ACE2AB98744A4CC38C0AC6401D16E272&assignmentId=cfbcac5a-fcc8-496d-b34e-0a7d3c80aebd&projectId=a9f3d40c-5730-405c-b25e-1034c4c56f3f","ACE2AB98744A4CC38C0AC6401D16E272-2025-08-07-19-02-57","","null","","[]","null","",""
"","","","","","image-button-response","72","506060","0.0-12.0-1.0-0.5","ACE2AB98744A4CC38C0AC6401D16E272","ACE2AB98744A4CC38C0AC6401D16E272","cfbcac5a-fcc8-496d-b34e-0a7d3c80aebd","a9f3d40c-5730-405c-b25e-1034c4c56f3f","{""num_scrambled_semantic"":""8"",""num_scrambled_causal"":""4"",""num_scrambled_schematic"":""4"",""participantId"":""ACE2AB98744A4CC38C0AC6401D16E272"",""assignmentId"":""cfbcac5a-fcc8-496d-b34e-0a7d3c80aebd"",""projectId"":""a9f3d40c-5730-405c-b25e-1034c4c56f3f""}","https://test12345.live/?num_scrambled_semantic=8&num_scrambled_causal=4&num_scrambled_schematic=4&participantId=ACE2AB98744A4CC38C0AC6401D16E272&assignmentId=cfbcac5a-fcc8-496d-b34e-0a7d3c80aebd&projectId=a9f3d40c-5730-405c-b25e-1034c4c56f3f","ACE2AB98744A4CC38C0AC6401D16E272-2025-08-07-19-02-57","","null","","images/semantic_sequence/housework_semantic/housework_semantic_2.png","null","",""
"","","","","","image-button-response","73","508103","0.0-12.0-1.0-1.5","ACE2AB98744A4CC38C0AC6401D16E272","ACE2AB98744A4CC38C0AC6401D16E272","cfbcac5a-fcc8-496d-b34e-0a7d3c80aebd","a9f3d40c-5730-405c-b25e-1034c4c56f3f","{""num_scrambled_semantic"":""8"",""num_scrambled_causal"":""4"",""num_scrambled_schematic"":""4"",""participantId"":""ACE2AB98744A4CC38C0AC6401D16E272"",""assignmentId"":""cfbcac5a-fcc8-496d-b34e-0a7d3c80aebd"",""projectId"":""a9f3d40c-5730-405c-b25e-1034c4c56f3f""}","https://test12345.live/?num_scrambled_semantic=8&num_scrambled_causal=4&num_scrambled_schematic=4&participantId=ACE2AB98744A4CC38C0AC6401D16E272&assignmentId=cfbcac5a-fcc8-496d-b34e-0a7d3c80aebd&projectId=a9f3d40c-5730-405c-b25e-1034c4c56f3f","ACE2AB98744A4CC38C0AC6401D16E272-2025-08-07-19-02-57","","2041","","images/semantic_sequence/housework_semantic/housework_semantic_2.png","0","",""
"","","","","","image-button-response","74","509924","0.0-12.0-1.0-2.5","ACE2AB98744A4CC38C0AC6401D16E272","ACE2AB98744A4CC38C0AC6401D16E272","cfbcac5a-fcc8-496d-b34e-0a7d3c80aebd","a9f3d40c-5730-405c-b25e-1034c4c56f3f","{""num_scrambled_semantic"":""8"",""num_scrambled_causal"":""4"",""num_scrambled_schematic"":""4"",""participantId"":""ACE2AB98744A4CC38C0AC6401D16E272"",""assignmentId"":""cfbcac5a-fcc8-496d-b34e-0a7d3c80aebd"",""projectId"":""a9f3d40c-5730-405c-b25e-1034c4c56f3f""}","https://test12345.live/?num_scrambled_semantic=8&num_scrambled_causal=4&num_scrambled_schematic=4&participantId=ACE2AB98744A4CC38C0AC6401D16E272&assignmentId=cfbcac5a-fcc8-496d-b34e-0a7d3c80aebd&projectId=a9f3d40c-5730-405c-b25e-1034c4c56f3f","ACE2AB98744A4CC38C0AC6401D16E272-2025-08-07-19-02-57","","null","","[]","null","",""
"","","","","","image-button-response","75","514444","0.0-12.0-1.0-0.6","ACE2AB98744A4CC38C0AC6401D16E272","ACE2AB98744A4CC38C0AC6401D16E272","cfbcac5a-fcc8-496d-b34e-0a7d3c80aebd","a9f3d40c-5730-405c-b25e-1034c4c56f3f","{""num_scrambled_semantic"":""8"",""num_scrambled_causal"":""4"",""num_scrambled_schematic"":""4"",""participantId"":""ACE2AB98744A4CC38C0AC6401D16E272"",""assignmentId"":""cfbcac5a-fcc8-496d-b34e-0a7d3c80aebd"",""projectId"":""a9f3d40c-5730-405c-b25e-1034c4c56f3f""}","https://test12345.live/?num_scrambled_semantic=8&num_scrambled_causal=4&num_scrambled_schematic=4&participantId=ACE2AB98744A4CC38C0AC6401D16E272&assignmentId=cfbcac5a-fcc8-496d-b34e-0a7d3c80aebd&projectId=a9f3d40c-5730-405c-b25e-1034c4c56f3f","ACE2AB98744A4CC38C0AC6401D16E272-2025-08-07-19-02-57","","null","","images/semantic_sequence/housework_semantic/housework_semantic_5.png","null","",""
"","","","","","image-button-response","76","514980","0.0-12.0-1.0-1.6","ACE2AB98744A4CC38C0AC6401D16E272","ACE2AB98744A4CC38C0AC6401D16E272","cfbcac5a-fcc8-496d-b34e-0a7d3c80aebd","a9f3d40c-5730-405c-b25e-1034c4c56f3f","{""num_scrambled_semantic"":""8"",""num_scrambled_causal"":""4"",""num_scrambled_schematic"":""4"",""participantId"":""ACE2AB98744A4CC38C0AC6401D16E272"",""assignmentId"":""cfbcac5a-fcc8-496d-b34e-0a7d3c80aebd"",""projectId"":""a9f3d40c-5730-405c-b25e-1034c4c56f3f""}","https://test12345.live/?num_scrambled_semantic=8&num_scrambled_causal=4&num_scrambled_schematic=4&participantId=ACE2AB98744A4CC38C0AC6401D16E272&assignmentId=cfbcac5a-fcc8-496d-b34e-0a7d3c80aebd&projectId=a9f3d40c-5730-405c-b25e-1034c4c56f3f","ACE2AB98744A4CC38C0AC6401D16E272-2025-08-07-19-02-57","","534","","images/semantic_sequence/housework_semantic/housework_semantic_5.png","0","",""
"","","","","","image-button-response","77","516791","0.0-12.0-1.0-2.6","ACE2AB98744A4CC38C0AC6401D16E272","ACE2AB98744A4CC38C0AC6401D16E272","cfbcac5a-fcc8-496d-b34e-0a7d3c80aebd","a9f3d40c-5730-405c-b25e-1034c4c56f3f","{""num_scrambled_semantic"":""8"",""num_scrambled_causal"":""4"",""num_scrambled_schematic"":""4"",""participantId"":""ACE2AB98744A4CC38C0AC6401D16E272"",""assignmentId"":""cfbcac5a-fcc8-496d-b34e-0a7d3c80aebd"",""projectId"":""a9f3d40c-5730-405c-b25e-1034c4c56f3f""}","https://test12345.live/?num_scrambled_semantic=8&num_scrambled_causal=4&num_scrambled_schematic=4&participantId=ACE2AB98744A4CC38C0AC6401D16E272&assignmentId=cfbcac5a-fcc8-496d-b34e-0a7d3c80aebd&projectId=a9f3d40c-5730-405c-b25e-1034c4c56f3f","ACE2AB98744A4CC38C0AC6401D16E272-2025-08-07-19-02-57","","null","","[]","null","",""
"","","","","","image-button-response","78","521296","0.0-12.0-1.0-0.7","ACE2AB98744A4CC38C0AC6401D16E272","ACE2AB98744A4CC38C0AC6401D16E272","cfbcac5a-fcc8-496d-b34e-0a7d3c80aebd","a9f3d40c-5730-405c-b25e-1034c4c56f3f","{""num_scrambled_semantic"":""8"",""num_scrambled_causal"":""4"",""num_scrambled_schematic"":""4"",""participantId"":""ACE2AB98744A4CC38C0AC6401D16E272"",""assignmentId"":""cfbcac5a-fcc8-496d-b34e-0a7d3c80aebd"",""projectId"":""a9f3d40c-5730-405c-b25e-1034c4c56f3f""}","https://test12345.live/?num_scrambled_semantic=8&num_scrambled_causal=4&num_scrambled_schematic=4&participantId=ACE2AB98744A4CC38C0AC6401D16E272&assignmentId=cfbcac5a-fcc8-496d-b34e-0a7d3c80aebd&projectId=a9f3d40c-5730-405c-b25e-1034c4c56f3f","ACE2AB98744A4CC38C0AC6401D16E272-2025-08-07-19-02-57","","null","","images/semantic_sequence/housework_semantic/housework_semantic_3.png","null","",""
"","","","","","image-button-response","79","521697","0.0-12.0-1.0-1.7","ACE2AB98744A4CC38C0AC6401D16E272","ACE2AB98744A4CC38C0AC6401D16E272","cfbcac5a-fcc8-496d-b34e-0a7d3c80aebd","a9f3d40c-5730-405c-b25e-1034c4c56f3f","{""num_scrambled_semantic"":""8"",""num_scrambled_causal"":""4"",""num_scrambled_schematic"":""4"",""participantId"":""ACE2AB98744A4CC38C0AC6401D16E272"",""assignmentId"":""cfbcac5a-fcc8-496d-b34e-0a7d3c80aebd"",""projectId"":""a9f3d40c-5730-405c-b25e-1034c4c56f3f""}","https://test12345.live/?num_scrambled_semantic=8&num_scrambled_causal=4&num_scrambled_schematic=4&participantId=ACE2AB98744A4CC38C0AC6401D16E272&assignmentId=cfbcac5a-fcc8-496d-b34e-0a7d3c80aebd&projectId=a9f3d40c-5730-405c-b25e-1034c4c56f3f","ACE2AB98744A4CC38C0AC6401D16E272-2025-08-07-19-02-57","","400","","images/semantic_sequence/housework_semantic/housework_semantic_3.png","0","",""
"","","","","","image-button-response","80","523508","0.0-12.0-1.0-2.7","ACE2AB98744A4CC38C0AC6401D16E272","ACE2AB98744A4CC38C0AC6401D16E272","cfbcac5a-fcc8-496d-b34e-0a7d3c80aebd","a9f3d40c-5730-405c-b25e-1034c4c56f3f","{""num_scrambled_semantic"":""8"",""num_scrambled_causal"":""4"",""num_scrambled_schematic"":""4"",""participantId"":""ACE2AB98744A4CC38C0AC6401D16E272"",""assignmentId"":""cfbcac5a-fcc8-496d-b34e-0a7d3c80aebd"",""projectId"":""a9f3d40c-5730-405c-b25e-1034c4c56f3f""}","https://test12345.live/?num_scrambled_semantic=8&num_scrambled_causal=4&num_scrambled_schematic=4&participantId=ACE2AB98744A4CC38C0AC6401D16E272&assignmentId=cfbcac5a-fcc8-496d-b34e-0a7d3c80aebd&projectId=a9f3d40c-5730-405c-b25e-1034c4c56f3f","ACE2AB98744A4CC38C0AC6401D16E272-2025-08-07-19-02-57","","null","","[]","null","",""
"","","","","","image-button-response","81","528017","0.0-12.0-1.0-0.8","ACE2AB98744A4CC38C0AC6401D16E272","ACE2AB98744A4CC38C0AC6401D16E272","cfbcac5a-fcc8-496d-b34e-0a7d3c80aebd","a9f3d40c-5730-405c-b25e-1034c4c56f3f","{""num_scrambled_semantic"":""8"",""num_scrambled_causal"":""4"",""num_scrambled_schematic"":""4"",""participantId"":""ACE2AB98744A4CC38C0AC6401D16E272"",""assignmentId"":""cfbcac5a-fcc8-496d-b34e-0a7d3c80aebd"",""projectId"":""a9f3d40c-5730-405c-b25e-1034c4c56f3f""}","https://test12345.live/?num_scrambled_semantic=8&num_scrambled_causal=4&num_scrambled_schematic=4&participantId=ACE2AB98744A4CC38C0AC6401D16E272&assignmentId=cfbcac5a-fcc8-496d-b34e-0a7d3c80aebd&projectId=a9f3d40c-5730-405c-b25e-1034c4c56f3f","ACE2AB98744A4CC38C0AC6401D16E272-2025-08-07-19-02-57","","null","","images/semantic_sequence/housework_semantic/housework_semantic_7.png","null","",""
"","","","","","image-button-response","82","528772","0.0-12.0-1.0-1.8","ACE2AB98744A4CC38C0AC6401D16E272","ACE2AB98744A4CC38C0AC6401D16E272","cfbcac5a-fcc8-496d-b34e-0a7d3c80aebd","a9f3d40c-5730-405c-b25e-1034c4c56f3f","{""num_scrambled_semantic"":""8"",""num_scrambled_causal"":""4"",""num_scrambled_schematic"":""4"",""participantId"":""ACE2AB98744A4CC38C0AC6401D16E272"",""assignmentId"":""cfbcac5a-fcc8-496d-b34e-0a7d3c80aebd"",""projectId"":""a9f3d40c-5730-405c-b25e-1034c4c56f3f""}","https://test12345.live/?num_scrambled_semantic=8&num_scrambled_causal=4&num_scrambled_schematic=4&participantId=ACE2AB98744A4CC38C0AC6401D16E272&assignmentId=cfbcac5a-fcc8-496d-b34e-0a7d3c80aebd&projectId=a9f3d40c-5730-405c-b25e-1034c4c56f3f","ACE2AB98744A4CC38C0AC6401D16E272-2025-08-07-19-02-57","","754","","images/semantic_sequence/housework_semantic/housework_semantic_7.png","0","",""
"","","","","","image-button-response","83","530588","0.0-12.0-1.0-2.8","ACE2AB98744A4CC38C0AC6401D16E272","ACE2AB98744A4CC38C0AC6401D16E272","cfbcac5a-fcc8-496d-b34e-0a7d3c80aebd","a9f3d40c-5730-405c-b25e-1034c4c56f3f","{""num_scrambled_semantic"":""8"",""num_scrambled_causal"":""4"",""num_scrambled_schematic"":""4"",""participantId"":""ACE2AB98744A4CC38C0AC6401D16E272"",""assignmentId"":""cfbcac5a-fcc8-496d-b34e-0a7d3c80aebd"",""projectId"":""a9f3d40c-5730-405c-b25e-1034c4c56f3f""}","https://test12345.live/?num_scrambled_semantic=8&num_scrambled_causal=4&num_scrambled_schematic=4&participantId=ACE2AB98744A4CC38C0AC6401D16E272&assignmentId=cfbcac5a-fcc8-496d-b34e-0a7d3c80aebd&projectId=a9f3d40c-5730-405c-b25e-1034c4c56f3f","ACE2AB98744A4CC38C0AC6401D16E272-2025-08-07-19-02-57","","null","","[]","null","",""
"","","","","","image-button-response","84","535096","0.0-12.0-1.0-0.9","ACE2AB98744A4CC38C0AC6401D16E272","ACE2AB98744A4CC38C0AC6401D16E272","cfbcac5a-fcc8-496d-b34e-0a7d3c80aebd","a9f3d40c-5730-405c-b25e-1034c4c56f3f","{""num_scrambled_semantic"":""8"",""num_scrambled_causal"":""4"",""num_scrambled_schematic"":""4"",""participantId"":""ACE2AB98744A4CC38C0AC6401D16E272"",""assignmentId"":""cfbcac5a-fcc8-496d-b34e-0a7d3c80aebd"",""projectId"":""a9f3d40c-5730-405c-b25e-1034c4c56f3f""}","https://test12345.live/?num_scrambled_semantic=8&num_scrambled_causal=4&num_scrambled_schematic=4&participantId=ACE2AB98744A4CC38C0AC6401D16E272&assignmentId=cfbcac5a-fcc8-496d-b34e-0a7d3c80aebd&projectId=a9f3d40c-5730-405c-b25e-1034c4c56f3f","ACE2AB98744A4CC38C0AC6401D16E272-2025-08-07-19-02-57","","null","","images/semantic_sequence/housework_semantic/housework_semantic_8.png","null","",""
"","","","","","image-button-response","85","537082","0.0-12.0-1.0-1.9","ACE2AB98744A4CC38C0AC6401D16E272","ACE2AB98744A4CC38C0AC6401D16E272","cfbcac5a-fcc8-496d-b34e-0a7d3c80aebd","a9f3d40c-5730-405c-b25e-1034c4c56f3f","{""num_scrambled_semantic"":""8"",""num_scrambled_causal"":""4"",""num_scrambled_schematic"":""4"",""participantId"":""ACE2AB98744A4CC38C0AC6401D16E272"",""assignmentId"":""cfbcac5a-fcc8-496d-b34e-0a7d3c80aebd"",""projectId"":""a9f3d40c-5730-405c-b25e-1034c4c56f3f""}","https://test12345.live/?num_scrambled_semantic=8&num_scrambled_causal=4&num_scrambled_schematic=4&participantId=ACE2AB98744A4CC38C0AC6401D16E272&assignmentId=cfbcac5a-fcc8-496d-b34e-0a7d3c80aebd&projectId=a9f3d40c-5730-405c-b25e-1034c4c56f3f","ACE2AB98744A4CC38C0AC6401D16E272-2025-08-07-19-02-57","","1984","","images/semantic_sequence/housework_semantic/housework_semantic_8.png","0","",""
"","","","","","image-button-response","86","538886","0.0-12.0-1.0-2.9","ACE2AB98744A4CC38C0AC6401D16E272","ACE2AB98744A4CC38C0AC6401D16E272","cfbcac5a-fcc8-496d-b34e-0a7d3c80aebd","a9f3d40c-5730-405c-b25e-1034c4c56f3f","{""num_scrambled_semantic"":""8"",""num_scrambled_causal"":""4"",""num_scrambled_schematic"":""4"",""participantId"":""ACE2AB98744A4CC38C0AC6401D16E272"",""assignmentId"":""cfbcac5a-fcc8-496d-b34e-0a7d3c80aebd"",""projectId"":""a9f3d40c-5730-405c-b25e-1034c4c56f3f""}","https://test12345.live/?num_scrambled_semantic=8&num_scrambled_causal=4&num_scrambled_schematic=4&participantId=ACE2AB98744A4CC38C0AC6401D16E272&assignmentId=cfbcac5a-fcc8-496d-b34e-0a7d3c80aebd&projectId=a9f3d40c-5730-405c-b25e-1034c4c56f3f","ACE2AB98744A4CC38C0AC6401D16E272-2025-08-07-19-02-57","","null","","[]","null","",""
"","","","","","html-audio-response","87","577582","0.0-13.0","ACE2AB98744A4CC38C0AC6401D16E272","ACE2AB98744A4CC38C0AC6401D16E272","cfbcac5a-fcc8-496d-b34e-0a7d3c80aebd","a9f3d40c-5730-405c-b25e-1034c4c56f3f","{""num_scrambled_semantic"":""8"",""num_scrambled_causal"":""4"",""num_scrambled_schematic"":""4"",""participantId"":""ACE2AB98744A4CC38C0AC6401D16E272"",""assignmentId"":""cfbcac5a-fcc8-496d-b34e-0a7d3c80aebd"",""projectId"":""a9f3d40c-5730-405c-b25e-1034c4c56f3f""}","https://test12345.live/?num_scrambled_semantic=8&num_scrambled_causal=4&num_scrambled_schematic=4&participantId=ACE2AB98744A4CC38C0AC6401D16E272&assignmentId=cfbcac5a-fcc8-496d-b34e-0a7d3c80aebd&projectId=a9f3d40c-5730-405c-b25e-1034c4c56f3f","ACE2AB98744A4CC38C0AC6401D16E272-2025-08-07-19-02-57","","36453","","[""<span style=\""color: red; font-size: 24px\""> NOW RECORDING</span><p>Please say out loud all the images you saw, as many as you can remember. The images can be said in any order.</p>""]","","1","housework_semantic"
"","","","","","image-button-response","88","583599","0.0-14.0-0.0","ACE2AB98744A4CC38C0AC6401D16E272","ACE2AB98744A4CC38C0AC6401D16E272","cfbcac5a-fcc8-496d-b34e-0a7d3c80aebd","a9f3d40c-5730-405c-b25e-1034c4c56f3f","{""num_scrambled_semantic"":""8"",""num_scrambled_causal"":""4"",""num_scrambled_schematic"":""4"",""participantId"":""ACE2AB98744A4CC38C0AC6401D16E272"",""assignmentId"":""cfbcac5a-fcc8-496d-b34e-0a7d3c80aebd"",""projectId"":""a9f3d40c-5730-405c-b25e-1034c4c56f3f""}","https://test12345.live/?num_scrambled_semantic=8&num_scrambled_causal=4&num_scrambled_schematic=4&participantId=ACE2AB98744A4CC38C0AC6401D16E272&assignmentId=cfbcac5a-fcc8-496d-b34e-0a7d3c80aebd&projectId=a9f3d40c-5730-405c-b25e-1034c4c56f3f","ACE2AB98744A4CC38C0AC6401D16E272-2025-08-07-19-02-57","","null","","images/causal_sequence/coin_causal/coin_causal_0.png","null","",""
"","","","","","image-button-response","89","588116","0.0-14.0-1.0-0.0","ACE2AB98744A4CC38C0AC6401D16E272","ACE2AB98744A4CC38C0AC6401D16E272","cfbcac5a-fcc8-496d-b34e-0a7d3c80aebd","a9f3d40c-5730-405c-b25e-1034c4c56f3f","{""num_scrambled_semantic"":""8"",""num_scrambled_causal"":""4"",""num_scrambled_schematic"":""4"",""participantId"":""ACE2AB98744A4CC38C0AC6401D16E272"",""assignmentId"":""cfbcac5a-fcc8-496d-b34e-0a7d3c80aebd"",""projectId"":""a9f3d40c-5730-405c-b25e-1034c4c56f3f""}","https://test12345.live/?num_scrambled_semantic=8&num_scrambled_causal=4&num_scrambled_schematic=4&participantId=ACE2AB98744A4CC38C0AC6401D16E272&assignmentId=cfbcac5a-fcc8-496d-b34e-0a7d3c80aebd&projectId=a9f3d40c-5730-405c-b25e-1034c4c56f3f","ACE2AB98744A4CC38C0AC6401D16E272-2025-08-07-19-02-57","","null","","images/causal_sequence/coin_causal/coin_causal_4.png","null","",""
"","","","","","image-button-response","90","589528","0.0-14.0-1.0-1.0","ACE2AB98744A4CC38C0AC6401D16E272","ACE2AB98744A4CC38C0AC6401D16E272","cfbcac5a-fcc8-496d-b34e-0a7d3c80aebd","a9f3d40c-5730-405c-b25e-1034c4c56f3f","{""num_scrambled_semantic"":""8"",""num_scrambled_causal"":""4"",""num_scrambled_schematic"":""4"",""participantId"":""ACE2AB98744A4CC38C0AC6401D16E272"",""assignmentId"":""cfbcac5a-fcc8-496d-b34e-0a7d3c80aebd"",""projectId"":""a9f3d40c-5730-405c-b25e-1034c4c56f3f""}","https://test12345.live/?num_scrambled_semantic=8&num_scrambled_causal=4&num_scrambled_schematic=4&participantId=ACE2AB98744A4CC38C0AC6401D16E272&assignmentId=cfbcac5a-fcc8-496d-b34e-0a7d3c80aebd&projectId=a9f3d40c-5730-405c-b25e-1034c4c56f3f","ACE2AB98744A4CC38C0AC6401D16E272-2025-08-07-19-02-57","","1411","","images/causal_sequence/coin_causal/coin_causal_4.png","0","",""
"","","","","","image-button-response","91","591339","0.0-14.0-1.0-2.0","ACE2AB98744A4CC38C0AC6401D16E272","ACE2AB98744A4CC38C0AC6401D16E272","cfbcac5a-fcc8-496d-b34e-0a7d3c80aebd","a9f3d40c-5730-405c-b25e-1034c4c56f3f","{""num_scrambled_semantic"":""8"",""num_scrambled_causal"":""4"",""num_scrambled_schematic"":""4"",""participantId"":""ACE2AB98744A4CC38C0AC6401D16E272"",""assignmentId"":""cfbcac5a-fcc8-496d-b34e-0a7d3c80aebd"",""projectId"":""a9f3d40c-5730-405c-b25e-1034c4c56f3f""}","https://test12345.live/?num_scrambled_semantic=8&num_scrambled_causal=4&num_scrambled_schematic=4&participantId=ACE2AB98744A4CC38C0AC6401D16E272&assignmentId=cfbcac5a-fcc8-496d-b34e-0a7d3c80aebd&projectId=a9f3d40c-5730-405c-b25e-1034c4c56f3f","ACE2AB98744A4CC38C0AC6401D16E272-2025-08-07-19-02-57","","null","","[]","null","",""
"","","","","","image-button-response","92","595854","0.0-14.0-1.0-0.1","ACE2AB98744A4CC38C0AC6401D16E272","ACE2AB98744A4CC38C0AC6401D16E272","cfbcac5a-fcc8-496d-b34e-0a7d3c80aebd","a9f3d40c-5730-405c-b25e-1034c4c56f3f","{""num_scrambled_semantic"":""8"",""num_scrambled_causal"":""4"",""num_scrambled_schematic"":""4"",""participantId"":""ACE2AB98744A4CC38C0AC6401D16E272"",""assignmentId"":""cfbcac5a-fcc8-496d-b34e-0a7d3c80aebd"",""projectId"":""a9f3d40c-5730-405c-b25e-1034c4c56f3f""}","https://test12345.live/?num_scrambled_semantic=8&num_scrambled_causal=4&num_scrambled_schematic=4&participantId=ACE2AB98744A4CC38C0AC6401D16E272&assignmentId=cfbcac5a-fcc8-496d-b34e-0a7d3c80aebd&projectId=a9f3d40c-5730-405c-b25e-1034c4c56f3f","ACE2AB98744A4CC38C0AC6401D16E272-2025-08-07-19-02-57","","null","","images/causal_sequence/coin_causal/coin_causal_9.png","null","",""
"","","","","","image-button-response","93","597333","0.0-14.0-1.0-1.1","ACE2AB98744A4CC38C0AC6401D16E272","ACE2AB98744A4CC38C0AC6401D16E272","cfbcac5a-fcc8-496d-b34e-0a7d3c80aebd","a9f3d40c-5730-405c-b25e-1034c4c56f3f","{""num_scrambled_semantic"":""8"",""num_scrambled_causal"":""4"",""num_scrambled_schematic"":""4"",""participantId"":""ACE2AB98744A4CC38C0AC6401D16E272"",""assignmentId"":""cfbcac5a-fcc8-496d-b34e-0a7d3c80aebd"",""projectId"":""a9f3d40c-5730-405c-b25e-1034c4c56f3f""}","https://test12345.live/?num_scrambled_semantic=8&num_scrambled_causal=4&num_scrambled_schematic=4&participantId=ACE2AB98744A4CC38C0AC6401D16E272&assignmentId=cfbcac5a-fcc8-496d-b34e-0a7d3c80aebd&projectId=a9f3d40c-5730-405c-b25e-1034c4c56f3f","ACE2AB98744A4CC38C0AC6401D16E272-2025-08-07-19-02-57","","1478","","images/causal_sequence/coin_causal/coin_causal_9.png","0","",""
"","","","","","image-button-response","94","599148","0.0-14.0-1.0-2.1","ACE2AB98744A4CC38C0AC6401D16E272","ACE2AB98744A4CC38C0AC6401D16E272","cfbcac5a-fcc8-496d-b34e-0a7d3c80aebd","a9f3d40c-5730-405c-b25e-1034c4c56f3f","{""num_scrambled_semantic"":""8"",""num_scrambled_causal"":""4"",""num_scrambled_schematic"":""4"",""participantId"":""ACE2AB98744A4CC38C0AC6401D16E272"",""assignmentId"":""cfbcac5a-fcc8-496d-b34e-0a7d3c80aebd"",""projectId"":""a9f3d40c-5730-405c-b25e-1034c4c56f3f""}","https://test12345.live/?num_scrambled_semantic=8&num_scrambled_causal=4&num_scrambled_schematic=4&participantId=ACE2AB98744A4CC38C0AC6401D16E272&assignmentId=cfbcac5a-fcc8-496d-b34e-0a7d3c80aebd&projectId=a9f3d40c-5730-405c-b25e-1034c4c56f3f","ACE2AB98744A4CC38C0AC6401D16E272-2025-08-07-19-02-57","","null","","[]","null","",""
"","","","","","image-button-response","95","603668","0.0-14.0-1.0-0.2","ACE2AB98744A4CC38C0AC6401D16E272","ACE2AB98744A4CC38C0AC6401D16E272","cfbcac5a-fcc8-496d-b34e-0a7d3c80aebd","a9f3d40c-5730-405c-b25e-1034c4c56f3f","{""num_scrambled_semantic"":""8"",""num_scrambled_causal"":""4"",""num_scrambled_schematic"":""4"",""participantId"":""ACE2AB98744A4CC38C0AC6401D16E272"",""assignmentId"":""cfbcac5a-fcc8-496d-b34e-0a7d3c80aebd"",""projectId"":""a9f3d40c-5730-405c-b25e-1034c4c56f3f""}","https://test12345.live/?num_scrambled_semantic=8&num_scrambled_causal=4&num_scrambled_schematic=4&participantId=ACE2AB98744A4CC38C0AC6401D16E272&assignmentId=cfbcac5a-fcc8-496d-b34e-0a7d3c80aebd&projectId=a9f3d40c-5730-405c-b25e-1034c4c56f3f","ACE2AB98744A4CC38C0AC6401D16E272-2025-08-07-19-02-57","","null","","images/causal_sequence/coin_causal/coin_causal_7.png","null","",""
"","","","","","image-button-response","96","605209","0.0-14.0-1.0-1.2","ACE2AB98744A4CC38C0AC6401D16E272","ACE2AB98744A4CC38C0AC6401D16E272","cfbcac5a-fcc8-496d-b34e-0a7d3c80aebd","a9f3d40c-5730-405c-b25e-1034c4c56f3f","{""num_scrambled_semantic"":""8"",""num_scrambled_causal"":""4"",""num_scrambled_schematic"":""4"",""participantId"":""ACE2AB98744A4CC38C0AC6401D16E272"",""assignmentId"":""cfbcac5a-fcc8-496d-b34e-0a7d3c80aebd"",""projectId"":""a9f3d40c-5730-405c-b25e-1034c4c56f3f""}","https://test12345.live/?num_scrambled_semantic=8&num_scrambled_causal=4&num_scrambled_schematic=4&participantId=ACE2AB98744A4CC38C0AC6401D16E272&assignmentId=cfbcac5a-fcc8-496d-b34e-0a7d3c80aebd&projectId=a9f3d40c-5730-405c-b25e-1034c4c56f3f","ACE2AB98744A4CC38C0AC6401D16E272-2025-08-07-19-02-57","","1540","","images/causal_sequence/coin_causal/coin_causal_7.png","1","",""
"","","","","","image-button-response","97","607028","0.0-14.0-1.0-2.2","ACE2AB98744A4CC38C0AC6401D16E272","ACE2AB98744A4CC38C0AC6401D16E272","cfbcac5a-fcc8-496d-b34e-0a7d3c80aebd","a9f3d40c-5730-405c-b25e-1034c4c56f3f","{""num_scrambled_semantic"":""8"",""num_scrambled_causal"":""4"",""num_scrambled_schematic"":""4"",""participantId"":""ACE2AB98744A4CC38C0AC6401D16E272"",""assignmentId"":""cfbcac5a-fcc8-496d-b34e-0a7d3c80aebd"",""projectId"":""a9f3d40c-5730-405c-b25e-1034c4c56f3f""}","https://test12345.live/?num_scrambled_semantic=8&num_scrambled_causal=4&num_scrambled_schematic=4&participantId=ACE2AB98744A4CC38C0AC6401D16E272&assignmentId=cfbcac5a-fcc8-496d-b34e-0a7d3c80aebd&projectId=a9f3d40c-5730-405c-b25e-1034c4c56f3f","ACE2AB98744A4CC38C0AC6401D16E272-2025-08-07-19-02-57","","null","","[]","null","",""
"","","","","","image-button-response","98","611544","0.0-14.0-1.0-0.3","ACE2AB98744A4CC38C0AC6401D16E272","ACE2AB98744A4CC38C0AC6401D16E272","cfbcac5a-fcc8-496d-b34e-0a7d3c80aebd","a9f3d40c-5730-405c-b25e-1034c4c56f3f","{""num_scrambled_semantic"":""8"",""num_scrambled_causal"":""4"",""num_scrambled_schematic"":""4"",""participantId"":""ACE2AB98744A4CC38C0AC6401D16E272"",""assignmentId"":""cfbcac5a-fcc8-496d-b34e-0a7d3c80aebd"",""projectId"":""a9f3d40c-5730-405c-b25e-1034c4c56f3f""}","https://test12345.live/?num_scrambled_semantic=8&num_scrambled_causal=4&num_scrambled_schematic=4&participantId=ACE2AB98744A4CC38C0AC6401D16E272&assignmentId=cfbcac5a-fcc8-496d-b34e-0a7d3c80aebd&projectId=a9f3d40c-5730-405c-b25e-1034c4c56f3f","ACE2AB98744A4CC38C0AC6401D16E272-2025-08-07-19-02-57","","null","","images/causal_sequence/coin_causal/coin_causal_5.png","null","",""
"","","","","","image-button-response","99","615011","0.0-14.0-1.0-1.3","ACE2AB98744A4CC38C0AC6401D16E272","ACE2AB98744A4CC38C0AC6401D16E272","cfbcac5a-fcc8-496d-b34e-0a7d3c80aebd","a9f3d40c-5730-405c-b25e-1034c4c56f3f","{""num_scrambled_semantic"":""8"",""num_scrambled_causal"":""4"",""num_scrambled_schematic"":""4"",""participantId"":""ACE2AB98744A4CC38C0AC6401D16E272"",""assignmentId"":""cfbcac5a-fcc8-496d-b34e-0a7d3c80aebd"",""projectId"":""a9f3d40c-5730-405c-b25e-1034c4c56f3f""}","https://test12345.live/?num_scrambled_semantic=8&num_scrambled_causal=4&num_scrambled_schematic=4&participantId=ACE2AB98744A4CC38C0AC6401D16E272&assignmentId=cfbcac5a-fcc8-496d-b34e-0a7d3c80aebd&projectId=a9f3d40c-5730-405c-b25e-1034c4c56f3f","ACE2AB98744A4CC38C0AC6401D16E272-2025-08-07-19-02-57","","3466","","images/causal_sequence/coin_causal/coin_causal_5.png","0","",""
"","","","","","image-button-response","100","616828","0.0-14.0-1.0-2.3","ACE2AB98744A4CC38C0AC6401D16E272","ACE2AB98744A4CC38C0AC6401D16E272","cfbcac5a-fcc8-496d-b34e-0a7d3c80aebd","a9f3d40c-5730-405c-b25e-1034c4c56f3f","{""num_scrambled_semantic"":""8"",""num_scrambled_causal"":""4"",""num_scrambled_schematic"":""4"",""participantId"":""ACE2AB98744A4CC38C0AC6401D16E272"",""assignmentId"":""cfbcac5a-fcc8-496d-b34e-0a7d3c80aebd"",""projectId"":""a9f3d40c-5730-405c-b25e-1034c4c56f3f""}","https://test12345.live/?num_scrambled_semantic=8&num_scrambled_causal=4&num_scrambled_schematic=4&participantId=ACE2AB98744A4CC38C0AC6401D16E272&assignmentId=cfbcac5a-fcc8-496d-b34e-0a7d3c80aebd&projectId=a9f3d40c-5730-405c-b25e-1034c4c56f3f","ACE2AB98744A4CC38C0AC6401D16E272-2025-08-07-19-02-57","","null","","[]","null","",""
"","","","","","image-button-response","101","621335","0.0-14.0-1.0-0.4","ACE2AB98744A4CC38C0AC6401D16E272","ACE2AB98744A4CC38C0AC6401D16E272","cfbcac5a-fcc8-496d-b34e-0a7d3c80aebd","a9f3d40c-5730-405c-b25e-1034c4c56f3f","{""num_scrambled_semantic"":""8"",""num_scrambled_causal"":""4"",""num_scrambled_schematic"":""4"",""participantId"":""ACE2AB98744A4CC38C0AC6401D16E272"",""assignmentId"":""cfbcac5a-fcc8-496d-b34e-0a7d3c80aebd"",""projectId"":""a9f3d40c-5730-405c-b25e-1034c4c56f3f""}","https://test12345.live/?num_scrambled_semantic=8&num_scrambled_causal=4&num_scrambled_schematic=4&participantId=ACE2AB98744A4CC38C0AC6401D16E272&assignmentId=cfbcac5a-fcc8-496d-b34e-0a7d3c80aebd&projectId=a9f3d40c-5730-405c-b25e-1034c4c56f3f","ACE2AB98744A4CC38C0AC6401D16E272-2025-08-07-19-02-57","","null","","images/causal_sequence/coin_causal/coin_causal_6.png","null","",""
"","","","","","image-button-response","102","621929","0.0-14.0-1.0-1.4","ACE2AB98744A4CC38C0AC6401D16E272","ACE2AB98744A4CC38C0AC6401D16E272","cfbcac5a-fcc8-496d-b34e-0a7d3c80aebd","a9f3d40c-5730-405c-b25e-1034c4c56f3f","{""num_scrambled_semantic"":""8"",""num_scrambled_causal"":""4"",""num_scrambled_schematic"":""4"",""participantId"":""ACE2AB98744A4CC38C0AC6401D16E272"",""assignmentId"":""cfbcac5a-fcc8-496d-b34e-0a7d3c80aebd"",""projectId"":""a9f3d40c-5730-405c-b25e-1034c4c56f3f""}","https://test12345.live/?num_scrambled_semantic=8&num_scrambled_causal=4&num_scrambled_schematic=4&participantId=ACE2AB98744A4CC38C0AC6401D16E272&assignmentId=cfbcac5a-fcc8-496d-b34e-0a7d3c80aebd&projectId=a9f3d40c-5730-405c-b25e-1034c4c56f3f","ACE2AB98744A4CC38C0AC6401D16E272-2025-08-07-19-02-57","","592","","images/causal_sequence/coin_causal/coin_causal_6.png","0","",""
"","","","","","image-button-response","103","623743","0.0-14.0-1.0-2.4","ACE2AB98744A4CC38C0AC6401D16E272","ACE2AB98744A4CC38C0AC6401D16E272","cfbcac5a-fcc8-496d-b34e-0a7d3c80aebd","a9f3d40c-5730-405c-b25e-1034c4c56f3f","{""num_scrambled_semantic"":""8"",""num_scrambled_causal"":""4"",""num_scrambled_schematic"":""4"",""participantId"":""ACE2AB98744A4CC38C0AC6401D16E272"",""assignmentId"":""cfbcac5a-fcc8-496d-b34e-0a7d3c80aebd"",""projectId"":""a9f3d40c-5730-405c-b25e-1034c4c56f3f""}","https://test12345.live/?num_scrambled_semantic=8&num_scrambled_causal=4&num_scrambled_schematic=4&participantId=ACE2AB98744A4CC38C0AC6401D16E272&assignmentId=cfbcac5a-fcc8-496d-b34e-0a7d3c80aebd&projectId=a9f3d40c-5730-405c-b25e-1034c4c56f3f","ACE2AB98744A4CC38C0AC6401D16E272-2025-08-07-19-02-57","","null","","[]","null","",""
"","","","","","image-button-response","104","628252","0.0-14.0-1.0-0.5","ACE2AB98744A4CC38C0AC6401D16E272","ACE2AB98744A4CC38C0AC6401D16E272","cfbcac5a-fcc8-496d-b34e-0a7d3c80aebd","a9f3d40c-5730-405c-b25e-1034c4c56f3f","{""num_scrambled_semantic"":""8"",""num_scrambled_causal"":""4"",""num_scrambled_schematic"":""4"",""participantId"":""ACE2AB98744A4CC38C0AC6401D16E272"",""assignmentId"":""cfbcac5a-fcc8-496d-b34e-0a7d3c80aebd"",""projectId"":""a9f3d40c-5730-405c-b25e-1034c4c56f3f""}","https://test12345.live/?num_scrambled_semantic=8&num_scrambled_causal=4&num_scrambled_schematic=4&participantId=ACE2AB98744A4CC38C0AC6401D16E272&assignmentId=cfbcac5a-fcc8-496d-b34e-0a7d3c80aebd&projectId=a9f3d40c-5730-405c-b25e-1034c4c56f3f","ACE2AB98744A4CC38C0AC6401D16E272-2025-08-07-19-02-57","","null","","images/causal_sequence/coin_causal/coin_causal_3.png","null","",""
"","","","","","image-button-response","105","628733","0.0-14.0-1.0-1.5","ACE2AB98744A4CC38C0AC6401D16E272","ACE2AB98744A4CC38C0AC6401D16E272","cfbcac5a-fcc8-496d-b34e-0a7d3c80aebd","a9f3d40c-5730-405c-b25e-1034c4c56f3f","{""num_scrambled_semantic"":""8"",""num_scrambled_causal"":""4"",""num_scrambled_schematic"":""4"",""participantId"":""ACE2AB98744A4CC38C0AC6401D16E272"",""assignmentId"":""cfbcac5a-fcc8-496d-b34e-0a7d3c80aebd"",""projectId"":""a9f3d40c-5730-405c-b25e-1034c4c56f3f""}","https://test12345.live/?num_scrambled_semantic=8&num_scrambled_causal=4&num_scrambled_schematic=4&participantId=ACE2AB98744A4CC38C0AC6401D16E272&assignmentId=cfbcac5a-fcc8-496d-b34e-0a7d3c80aebd&projectId=a9f3d40c-5730-405c-b25e-1034c4c56f3f","ACE2AB98744A4CC38C0AC6401D16E272-2025-08-07-19-02-57","","480","","images/causal_sequence/coin_causal/coin_causal_3.png","0","",""
"","","","","","image-button-response","106","630547","0.0-14.0-1.0-2.5","ACE2AB98744A4CC38C0AC6401D16E272","ACE2AB98744A4CC38C0AC6401D16E272","cfbcac5a-fcc8-496d-b34e-0a7d3c80aebd","a9f3d40c-5730-405c-b25e-1034c4c56f3f","{""num_scrambled_semantic"":""8"",""num_scrambled_causal"":""4"",""num_scrambled_schematic"":""4"",""participantId"":""ACE2AB98744A4CC38C0AC6401D16E272"",""assignmentId"":""cfbcac5a-fcc8-496d-b34e-0a7d3c80aebd"",""projectId"":""a9f3d40c-5730-405c-b25e-1034c4c56f3f""}","https://test12345.live/?num_scrambled_semantic=8&num_scrambled_causal=4&num_scrambled_schematic=4&participantId=ACE2AB98744A4CC38C0AC6401D16E272&assignmentId=cfbcac5a-fcc8-496d-b34e-0a7d3c80aebd&projectId=a9f3d40c-5730-405c-b25e-1034c4c56f3f","ACE2AB98744A4CC38C0AC6401D16E272-2025-08-07-19-02-57","","null","","[]","null","",""
"","","","","","image-button-response","107","635053","0.0-14.0-1.0-0.6","ACE2AB98744A4CC38C0AC6401D16E272","ACE2AB98744A4CC38C0AC6401D16E272","cfbcac5a-fcc8-496d-b34e-0a7d3c80aebd","a9f3d40c-5730-405c-b25e-1034c4c56f3f","{""num_scrambled_semantic"":""8"",""num_scrambled_causal"":""4"",""num_scrambled_schematic"":""4"",""participantId"":""ACE2AB98744A4CC38C0AC6401D16E272"",""assignmentId"":""cfbcac5a-fcc8-496d-b34e-0a7d3c80aebd"",""projectId"":""a9f3d40c-5730-405c-b25e-1034c4c56f3f""}","https://test12345.live/?num_scrambled_semantic=8&num_scrambled_causal=4&num_scrambled_schematic=4&participantId=ACE2AB98744A4CC38C0AC6401D16E272&assignmentId=cfbcac5a-fcc8-496d-b34e-0a7d3c80aebd&projectId=a9f3d40c-5730-405c-b25e-1034c4c56f3f","ACE2AB98744A4CC38C0AC6401D16E272-2025-08-07-19-02-57","","null","","images/causal_sequence/coin_causal/coin_causal_8.png","null","",""
"","","","","","image-button-response","108","635866","0.0-14.0-1.0-1.6","ACE2AB98744A4CC38C0AC6401D16E272","ACE2AB98744A4CC38C0AC6401D16E272","cfbcac5a-fcc8-496d-b34e-0a7d3c80aebd","a9f3d40c-5730-405c-b25e-1034c4c56f3f","{""num_scrambled_semantic"":""8"",""num_scrambled_causal"":""4"",""num_scrambled_schematic"":""4"",""participantId"":""ACE2AB98744A4CC38C0AC6401D16E272"",""assignmentId"":""cfbcac5a-fcc8-496d-b34e-0a7d3c80aebd"",""projectId"":""a9f3d40c-5730-405c-b25e-1034c4c56f3f""}","https://test12345.live/?num_scrambled_semantic=8&num_scrambled_causal=4&num_scrambled_schematic=4&participantId=ACE2AB98744A4CC38C0AC6401D16E272&assignmentId=cfbcac5a-fcc8-496d-b34e-0a7d3c80aebd&projectId=a9f3d40c-5730-405c-b25e-1034c4c56f3f","ACE2AB98744A4CC38C0AC6401D16E272-2025-08-07-19-02-57","","811","","images/causal_sequence/coin_causal/coin_causal_8.png","0","",""
"","","","","","image-button-response","109","637681","0.0-14.0-1.0-2.6","ACE2AB98744A4CC38C0AC6401D16E272","ACE2AB98744A4CC38C0AC6401D16E272","cfbcac5a-fcc8-496d-b34e-0a7d3c80aebd","a9f3d40c-5730-405c-b25e-1034c4c56f3f","{""num_scrambled_semantic"":""8"",""num_scrambled_causal"":""4"",""num_scrambled_schematic"":""4"",""participantId"":""ACE2AB98744A4CC38C0AC6401D16E272"",""assignmentId"":""cfbcac5a-fcc8-496d-b34e-0a7d3c80aebd"",""projectId"":""a9f3d40c-5730-405c-b25e-1034c4c56f3f""}","https://test12345.live/?num_scrambled_semantic=8&num_scrambled_causal=4&num_scrambled_schematic=4&participantId=ACE2AB98744A4CC38C0AC6401D16E272&assignmentId=cfbcac5a-fcc8-496d-b34e-0a7d3c80aebd&projectId=a9f3d40c-5730-405c-b25e-1034c4c56f3f","ACE2AB98744A4CC38C0AC6401D16E272-2025-08-07-19-02-57","","null","","[]","null","",""
"","","","","","image-button-response","110","642203","0.0-14.0-1.0-0.7","ACE2AB98744A4CC38C0AC6401D16E272","ACE2AB98744A4CC38C0AC6401D16E272","cfbcac5a-fcc8-496d-b34e-0a7d3c80aebd","a9f3d40c-5730-405c-b25e-1034c4c56f3f","{""num_scrambled_semantic"":""8"",""num_scrambled_causal"":""4"",""num_scrambled_schematic"":""4"",""participantId"":""ACE2AB98744A4CC38C0AC6401D16E272"",""assignmentId"":""cfbcac5a-fcc8-496d-b34e-0a7d3c80aebd"",""projectId"":""a9f3d40c-5730-405c-b25e-1034c4c56f3f""}","https://test12345.live/?num_scrambled_semantic=8&num_scrambled_causal=4&num_scrambled_schematic=4&participantId=ACE2AB98744A4CC38C0AC6401D16E272&assignmentId=cfbcac5a-fcc8-496d-b34e-0a7d3c80aebd&projectId=a9f3d40c-5730-405c-b25e-1034c4c56f3f","ACE2AB98744A4CC38C0AC6401D16E272-2025-08-07-19-02-57","","null","","images/causal_sequence/coin_causal/coin_causal_2.png","null","",""
"","","","","","image-button-response","111","643038","0.0-14.0-1.0-1.7","ACE2AB98744A4CC38C0AC6401D16E272","ACE2AB98744A4CC38C0AC6401D16E272","cfbcac5a-fcc8-496d-b34e-0a7d3c80aebd","a9f3d40c-5730-405c-b25e-1034c4c56f3f","{""num_scrambled_semantic"":""8"",""num_scrambled_causal"":""4"",""num_scrambled_schematic"":""4"",""participantId"":""ACE2AB98744A4CC38C0AC6401D16E272"",""assignmentId"":""cfbcac5a-fcc8-496d-b34e-0a7d3c80aebd"",""projectId"":""a9f3d40c-5730-405c-b25e-1034c4c56f3f""}","https://test12345.live/?num_scrambled_semantic=8&num_scrambled_causal=4&num_scrambled_schematic=4&participantId=ACE2AB98744A4CC38C0AC6401D16E272&assignmentId=cfbcac5a-fcc8-496d-b34e-0a7d3c80aebd&projectId=a9f3d40c-5730-405c-b25e-1034c4c56f3f","ACE2AB98744A4CC38C0AC6401D16E272-2025-08-07-19-02-57","","834","","images/causal_sequence/coin_causal/coin_causal_2.png","0","",""
"","","","","","image-button-response","112","644847","0.0-14.0-1.0-2.7","ACE2AB98744A4CC38C0AC6401D16E272","ACE2AB98744A4CC38C0AC6401D16E272","cfbcac5a-fcc8-496d-b34e-0a7d3c80aebd","a9f3d40c-5730-405c-b25e-1034c4c56f3f","{""num_scrambled_semantic"":""8"",""num_scrambled_causal"":""4"",""num_scrambled_schematic"":""4"",""participantId"":""ACE2AB98744A4CC38C0AC6401D16E272"",""assignmentId"":""cfbcac5a-fcc8-496d-b34e-0a7d3c80aebd"",""projectId"":""a9f3d40c-5730-405c-b25e-1034c4c56f3f""}","https://test12345.live/?num_scrambled_semantic=8&num_scrambled_causal=4&num_scrambled_schematic=4&participantId=ACE2AB98744A4CC38C0AC6401D16E272&assignmentId=cfbcac5a-fcc8-496d-b34e-0a7d3c80aebd&projectId=a9f3d40c-5730-405c-b25e-1034c4c56f3f","ACE2AB98744A4CC38C0AC6401D16E272-2025-08-07-19-02-57","","null","","[]","null","",""
"","","","","","image-button-response","113","649363","0.0-14.0-1.0-0.8","ACE2AB98744A4CC38C0AC6401D16E272","ACE2AB98744A4CC38C0AC6401D16E272","cfbcac5a-fcc8-496d-b34e-0a7d3c80aebd","a9f3d40c-5730-405c-b25e-1034c4c56f3f","{""num_scrambled_semantic"":""8"",""num_scrambled_causal"":""4"",""num_scrambled_schematic"":""4"",""participantId"":""ACE2AB98744A4CC38C0AC6401D16E272"",""assignmentId"":""cfbcac5a-fcc8-496d-b34e-0a7d3c80aebd"",""projectId"":""a9f3d40c-5730-405c-b25e-1034c4c56f3f""}","https://test12345.live/?num_scrambled_semantic=8&num_scrambled_causal=4&num_scrambled_schematic=4&participantId=ACE2AB98744A4CC38C0AC6401D16E272&assignmentId=cfbcac5a-fcc8-496d-b34e-0a7d3c80aebd&projectId=a9f3d40c-5730-405c-b25e-1034c4c56f3f","ACE2AB98744A4CC38C0AC6401D16E272-2025-08-07-19-02-57","","null","","images/causal_sequence/coin_causal/coin_causal_ten.png","null","",""
"","","","","","image-button-response","114","650011","0.0-14.0-1.0-1.8","ACE2AB98744A4CC38C0AC6401D16E272","ACE2AB98744A4CC38C0AC6401D16E272","cfbcac5a-fcc8-496d-b34e-0a7d3c80aebd","a9f3d40c-5730-405c-b25e-1034c4c56f3f","{""num_scrambled_semantic"":""8"",""num_scrambled_causal"":""4"",""num_scrambled_schematic"":""4"",""participantId"":""ACE2AB98744A4CC38C0AC6401D16E272"",""assignmentId"":""cfbcac5a-fcc8-496d-b34e-0a7d3c80aebd"",""projectId"":""a9f3d40c-5730-405c-b25e-1034c4c56f3f""}","https://test12345.live/?num_scrambled_semantic=8&num_scrambled_causal=4&num_scrambled_schematic=4&participantId=ACE2AB98744A4CC38C0AC6401D16E272&assignmentId=cfbcac5a-fcc8-496d-b34e-0a7d3c80aebd&projectId=a9f3d40c-5730-405c-b25e-1034c4c56f3f","ACE2AB98744A4CC38C0AC6401D16E272-2025-08-07-19-02-57","","647","","images/causal_sequence/coin_causal/coin_causal_ten.png","0","",""
