"success","timeout","failed_images","failed_audio","failed_video","trial_type","trial_index","time_elapsed","internal_node_id","subject","subject_id","study_id","session_id","urlvar","current_url","audio_id","view_history","rt","device_id","stimulus","response","estimated_stimulus_onset","seq_name"
"true","false","[]","[]","[]","preload","0","78961","0.0-0.0","AD0BA86A52324FC4B7A61CC9394BB56B","AD0BA86A52324FC4B7A61CC9394BB56B","0198be24-2f6c-7c63-895a-b104b345bd8f","0198be1d-574a-752e-ae53-1d263a30e856","{""num_scrambled_semantic"":""8"",""num_scrambled_causal"":""4"",""num_scrambled_schematic"":""4"",""participantId"":""AD0BA86A52324FC4B7A61CC9394BB56B"",""assignmentId"":""0198be24-2f6c-7c63-895a-b104b345bd8f"",""projectId"":""0198be1d-574a-752e-ae53-1d263a30e856""}","https://test12345.live/?num_scrambled_semantic=8&num_scrambled_causal=4&num_scrambled_schematic=4&participantId=AD0BA86A52324FC4B7A61CC9394BB56B&assignmentId=0198be24-2f6c-7c63-895a-b104b345bd8f&projectId=0198be1d-574a-752e-ae53-1d263a30e856","AD0BA86A52324FC4B7A61CC9394BB56B-2025-08-18-17-51-11","","","","","","",""
"","","","","","instructions","1","139057","0.0-1.0","AD0BA86A52324FC4B7A61CC9394BB56B","AD0BA86A52324FC4B7A61CC9394BB56B","0198be24-2f6c-7c63-895a-b104b345bd8f","0198be1d-574a-752e-ae53-1d263a30e856","{""num_scrambled_semantic"":""8"",""num_scrambled_causal"":""4"",""num_scrambled_schematic"":""4"",""participantId"":""AD0BA86A52324FC4B7A61CC9394BB56B"",""assignmentId"":""0198be24-2f6c-7c63-895a-b104b345bd8f"",""projectId"":""0198be1d-574a-752e-ae53-1d263a30e856""}","https://test12345.live/?num_scrambled_semantic=8&num_scrambled_causal=4&num_scrambled_schematic=4&participantId=AD0BA86A52324FC4B7A61CC9394BB56B&assignmentId=0198be24-2f6c-7c63-895a-b104b345bd8f&projectId=0198be1d-574a-752e-ae53-1d263a30e856","AD0BA86A52324FC4B7A61CC9394BB56B-2025-08-18-17-51-11","[{""page_index"":0,""viewing_time"":60092}]","60094","","","","",""
"","","","","","instructions","2","151675","0.0-2.0","AD0BA86A52324FC4B7A61CC9394BB56B","AD0BA86A52324FC4B7A61CC9394BB56B","0198be24-2f6c-7c63-895a-b104b345bd8f","0198be1d-574a-752e-ae53-1d263a30e856","{""num_scrambled_semantic"":""8"",""num_scrambled_causal"":""4"",""num_scrambled_schematic"":""4"",""participantId"":""AD0BA86A52324FC4B7A61CC9394BB56B"",""assignmentId"":""0198be24-2f6c-7c63-895a-b104b345bd8f"",""projectId"":""0198be1d-574a-752e-ae53-1d263a30e856""}","https://test12345.live/?num_scrambled_semantic=8&num_scrambled_causal=4&num_scrambled_schematic=4&participantId=AD0BA86A52324FC4B7A61CC9394BB56B&assignmentId=0198be24-2f6c-7c63-895a-b104b345bd8f&projectId=0198be1d-574a-752e-ae53-1d263a30e856","AD0BA86A52324FC4B7A61CC9394BB56B-2025-08-18-17-51-11","[{""page_index"":0,""viewing_time"":12616}]","12617","","","","",""
"true","","","","","fullscreen","3","155575","0.0-3.0","AD0BA86A52324FC4B7A61CC9394BB56B","AD0BA86A52324FC4B7A61CC9394BB56B","0198be24-2f6c-7c63-895a-b104b345bd8f","0198be1d-574a-752e-ae53-1d263a30e856","{""num_scrambled_semantic"":""8"",""num_scrambled_causal"":""4"",""num_scrambled_schematic"":""4"",""participantId"":""AD0BA86A52324FC4B7A61CC9394BB56B"",""assignmentId"":""0198be24-2f6c-7c63-895a-b104b345bd8f"",""projectId"":""0198be1d-574a-752e-ae53-1d263a30e856""}","https://test12345.live/?num_scrambled_semantic=8&num_scrambled_causal=4&num_scrambled_schematic=4&participantId=AD0BA86A52324FC4B7A61CC9394BB56B&assignmentId=0198be24-2f6c-7c63-895a-b104b345bd8f&projectId=0198be1d-574a-752e-ae53-1d263a30e856","AD0BA86A52324FC4B7A61CC9394BB56B-2025-08-18-17-51-11","","2873","","","","",""
"","","","","","initialize-microphone","4","164092","0.0-4.0-0.0","AD0BA86A52324FC4B7A61CC9394BB56B","AD0BA86A52324FC4B7A61CC9394BB56B","0198be24-2f6c-7c63-895a-b104b345bd8f","0198be1d-574a-752e-ae53-1d263a30e856","{""num_scrambled_semantic"":""8"",""num_scrambled_causal"":""4"",""num_scrambled_schematic"":""4"",""participantId"":""AD0BA86A52324FC4B7A61CC9394BB56B"",""assignmentId"":""0198be24-2f6c-7c63-895a-b104b345bd8f"",""projectId"":""0198be1d-574a-752e-ae53-1d263a30e856""}","https://test12345.live/?num_scrambled_semantic=8&num_scrambled_causal=4&num_scrambled_schematic=4&participantId=AD0BA86A52324FC4B7A61CC9394BB56B&assignmentId=0198be24-2f6c-7c63-895a-b104b345bd8f&projectId=0198be1d-574a-752e-ae53-1d263a30e856","AD0BA86A52324FC4B7A61CC9394BB56B-2025-08-18-17-51-11","","","31de6e4e25856c87a318e196fdf5155fa47ea2d30a55c9da9a5a52958489f9e5","","","",""
"","","","","","html-audio-response","5","209802","0.0-4.0-1.0","AD0BA86A52324FC4B7A61CC9394BB56B","AD0BA86A52324FC4B7A61CC9394BB56B","0198be24-2f6c-7c63-895a-b104b345bd8f","0198be1d-574a-752e-ae53-1d263a30e856","{""num_scrambled_semantic"":""8"",""num_scrambled_causal"":""4"",""num_scrambled_schematic"":""4"",""participantId"":""AD0BA86A52324FC4B7A61CC9394BB56B"",""assignmentId"":""0198be24-2f6c-7c63-895a-b104b345bd8f"",""projectId"":""0198be1d-574a-752e-ae53-1d263a30e856""}","https://test12345.live/?num_scrambled_semantic=8&num_scrambled_causal=4&num_scrambled_schematic=4&participantId=AD0BA86A52324FC4B7A61CC9394BB56B&assignmentId=0198be24-2f6c-7c63-895a-b104b345bd8f&projectId=0198be1d-574a-752e-ae53-1d263a30e856","AD0BA86A52324FC4B7A61CC9394BB56B-2025-08-18-17-51-11","","4270","","<span style=""color: red; font-size: 24px""> NOW RECORDING</span>
        <p>Please test Microphone</p>","","2",""
"","","","","","html-button-response","6","211603","0.0-4.0-2.0","AD0BA86A52324FC4B7A61CC9394BB56B","AD0BA86A52324FC4B7A61CC9394BB56B","0198be24-2f6c-7c63-895a-b104b345bd8f","0198be1d-574a-752e-ae53-1d263a30e856","{""num_scrambled_semantic"":""8"",""num_scrambled_causal"":""4"",""num_scrambled_schematic"":""4"",""participantId"":""AD0BA86A52324FC4B7A61CC9394BB56B"",""assignmentId"":""0198be24-2f6c-7c63-895a-b104b345bd8f"",""projectId"":""0198be1d-574a-752e-ae53-1d263a30e856""}","https://test12345.live/?num_scrambled_semantic=8&num_scrambled_causal=4&num_scrambled_schematic=4&participantId=AD0BA86A52324FC4B7A61CC9394BB56B&assignmentId=0198be24-2f6c-7c63-895a-b104b345bd8f&projectId=0198be1d-574a-752e-ae53-1d263a30e856","AD0BA86A52324FC4B7A61CC9394BB56B-2025-08-18-17-51-11","","1798","","<p style=""font-size:48px; color:red;"">Is Microphone OK?</p>","1","",""
"","","","","","instructions","7","247178","0.0-5.0","AD0BA86A52324FC4B7A61CC9394BB56B","AD0BA86A52324FC4B7A61CC9394BB56B","0198be24-2f6c-7c63-895a-b104b345bd8f","0198be1d-574a-752e-ae53-1d263a30e856","{""num_scrambled_semantic"":""8"",""num_scrambled_causal"":""4"",""num_scrambled_schematic"":""4"",""participantId"":""AD0BA86A52324FC4B7A61CC9394BB56B"",""assignmentId"":""0198be24-2f6c-7c63-895a-b104b345bd8f"",""projectId"":""0198be1d-574a-752e-ae53-1d263a30e856""}","https://test12345.live/?num_scrambled_semantic=8&num_scrambled_causal=4&num_scrambled_schematic=4&participantId=AD0BA86A52324FC4B7A61CC9394BB56B&assignmentId=0198be24-2f6c-7c63-895a-b104b345bd8f&projectId=0198be1d-574a-752e-ae53-1d263a30e856","AD0BA86A52324FC4B7A61CC9394BB56B-2025-08-18-17-51-11","[{""page_index"":0,""viewing_time"":3126},{""page_index"":1,""viewing_time"":32446}]","35573","","","","",""
"","","","","","image-button-response","8","253187","0.0-6.0-0.0","AD0BA86A52324FC4B7A61CC9394BB56B","AD0BA86A52324FC4B7A61CC9394BB56B","0198be24-2f6c-7c63-895a-b104b345bd8f","0198be1d-574a-752e-ae53-1d263a30e856","{""num_scrambled_semantic"":""8"",""num_scrambled_causal"":""4"",""num_scrambled_schematic"":""4"",""participantId"":""AD0BA86A52324FC4B7A61CC9394BB56B"",""assignmentId"":""0198be24-2f6c-7c63-895a-b104b345bd8f"",""projectId"":""0198be1d-574a-752e-ae53-1d263a30e856""}","https://test12345.live/?num_scrambled_semantic=8&num_scrambled_causal=4&num_scrambled_schematic=4&participantId=AD0BA86A52324FC4B7A61CC9394BB56B&assignmentId=0198be24-2f6c-7c63-895a-b104b345bd8f&projectId=0198be1d-574a-752e-ae53-1d263a30e856","AD0BA86A52324FC4B7A61CC9394BB56B-2025-08-18-17-51-11","","null","","images/instructions/movie_0.png","null","",""
"","","","","","image-button-response","9","257691","0.0-6.0-1.0-0.0","AD0BA86A52324FC4B7A61CC9394BB56B","AD0BA86A52324FC4B7A61CC9394BB56B","0198be24-2f6c-7c63-895a-b104b345bd8f","0198be1d-574a-752e-ae53-1d263a30e856","{""num_scrambled_semantic"":""8"",""num_scrambled_causal"":""4"",""num_scrambled_schematic"":""4"",""participantId"":""AD0BA86A52324FC4B7A61CC9394BB56B"",""assignmentId"":""0198be24-2f6c-7c63-895a-b104b345bd8f"",""projectId"":""0198be1d-574a-752e-ae53-1d263a30e856""}","https://test12345.live/?num_scrambled_semantic=8&num_scrambled_causal=4&num_scrambled_schematic=4&participantId=AD0BA86A52324FC4B7A61CC9394BB56B&assignmentId=0198be24-2f6c-7c63-895a-b104b345bd8f&projectId=0198be1d-574a-752e-ae53-1d263a30e856","AD0BA86A52324FC4B7A61CC9394BB56B-2025-08-18-17-51-11","","null","","images/instructions/movie_1.png","null","",""
"","","","","","image-button-response","10","261393","0.0-6.0-1.0-1.0","AD0BA86A52324FC4B7A61CC9394BB56B","AD0BA86A52324FC4B7A61CC9394BB56B","0198be24-2f6c-7c63-895a-b104b345bd8f","0198be1d-574a-752e-ae53-1d263a30e856","{""num_scrambled_semantic"":""8"",""num_scrambled_causal"":""4"",""num_scrambled_schematic"":""4"",""participantId"":""AD0BA86A52324FC4B7A61CC9394BB56B"",""assignmentId"":""0198be24-2f6c-7c63-895a-b104b345bd8f"",""projectId"":""0198be1d-574a-752e-ae53-1d263a30e856""}","https://test12345.live/?num_scrambled_semantic=8&num_scrambled_causal=4&num_scrambled_schematic=4&participantId=AD0BA86A52324FC4B7A61CC9394BB56B&assignmentId=0198be24-2f6c-7c63-895a-b104b345bd8f&projectId=0198be1d-574a-752e-ae53-1d263a30e856","AD0BA86A52324FC4B7A61CC9394BB56B-2025-08-18-17-51-11","","3700","","images/instructions/movie_1.png","0","",""
"","","","","","image-button-response","11","272202","0.0-6.0-1.0-2.0","AD0BA86A52324FC4B7A61CC9394BB56B","AD0BA86A52324FC4B7A61CC9394BB56B","0198be24-2f6c-7c63-895a-b104b345bd8f","0198be1d-574a-752e-ae53-1d263a30e856","{""num_scrambled_semantic"":""8"",""num_scrambled_causal"":""4"",""num_scrambled_schematic"":""4"",""participantId"":""AD0BA86A52324FC4B7A61CC9394BB56B"",""assignmentId"":""0198be24-2f6c-7c63-895a-b104b345bd8f"",""projectId"":""0198be1d-574a-752e-ae53-1d263a30e856""}","https://test12345.live/?num_scrambled_semantic=8&num_scrambled_causal=4&num_scrambled_schematic=4&participantId=AD0BA86A52324FC4B7A61CC9394BB56B&assignmentId=0198be24-2f6c-7c63-895a-b104b345bd8f&projectId=0198be1d-574a-752e-ae53-1d263a30e856","AD0BA86A52324FC4B7A61CC9394BB56B-2025-08-18-17-51-11","","null","","[]","null","",""
"","","","","","image-button-response","12","276720","0.0-6.0-1.0-0.1","AD0BA86A52324FC4B7A61CC9394BB56B","AD0BA86A52324FC4B7A61CC9394BB56B","0198be24-2f6c-7c63-895a-b104b345bd8f","0198be1d-574a-752e-ae53-1d263a30e856","{""num_scrambled_semantic"":""8"",""num_scrambled_causal"":""4"",""num_scrambled_schematic"":""4"",""participantId"":""AD0BA86A52324FC4B7A61CC9394BB56B"",""assignmentId"":""0198be24-2f6c-7c63-895a-b104b345bd8f"",""projectId"":""0198be1d-574a-752e-ae53-1d263a30e856""}","https://test12345.live/?num_scrambled_semantic=8&num_scrambled_causal=4&num_scrambled_schematic=4&participantId=AD0BA86A52324FC4B7A61CC9394BB56B&assignmentId=0198be24-2f6c-7c63-895a-b104b345bd8f&projectId=0198be1d-574a-752e-ae53-1d263a30e856","AD0BA86A52324FC4B7A61CC9394BB56B-2025-08-18-17-51-11","","null","","images/instructions/movie_2.png","null","",""
"","","","","","image-button-response","13","278391","0.0-6.0-1.0-1.1","AD0BA86A52324FC4B7A61CC9394BB56B","AD0BA86A52324FC4B7A61CC9394BB56B","0198be24-2f6c-7c63-895a-b104b345bd8f","0198be1d-574a-752e-ae53-1d263a30e856","{""num_scrambled_semantic"":""8"",""num_scrambled_causal"":""4"",""num_scrambled_schematic"":""4"",""participantId"":""AD0BA86A52324FC4B7A61CC9394BB56B"",""assignmentId"":""0198be24-2f6c-7c63-895a-b104b345bd8f"",""projectId"":""0198be1d-574a-752e-ae53-1d263a30e856""}","https://test12345.live/?num_scrambled_semantic=8&num_scrambled_causal=4&num_scrambled_schematic=4&participantId=AD0BA86A52324FC4B7A61CC9394BB56B&assignmentId=0198be24-2f6c-7c63-895a-b104b345bd8f&projectId=0198be1d-574a-752e-ae53-1d263a30e856","AD0BA86A52324FC4B7A61CC9394BB56B-2025-08-18-17-51-11","","1670","","images/instructions/movie_2.png","1","",""
"","","","","","image-button-response","14","289193","0.0-6.0-1.0-2.1","AD0BA86A52324FC4B7A61CC9394BB56B","AD0BA86A52324FC4B7A61CC9394BB56B","0198be24-2f6c-7c63-895a-b104b345bd8f","0198be1d-574a-752e-ae53-1d263a30e856","{""num_scrambled_semantic"":""8"",""num_scrambled_causal"":""4"",""num_scrambled_schematic"":""4"",""participantId"":""AD0BA86A52324FC4B7A61CC9394BB56B"",""assignmentId"":""0198be24-2f6c-7c63-895a-b104b345bd8f"",""projectId"":""0198be1d-574a-752e-ae53-1d263a30e856""}","https://test12345.live/?num_scrambled_semantic=8&num_scrambled_causal=4&num_scrambled_schematic=4&participantId=AD0BA86A52324FC4B7A61CC9394BB56B&assignmentId=0198be24-2f6c-7c63-895a-b104b345bd8f&projectId=0198be1d-574a-752e-ae53-1d263a30e856","AD0BA86A52324FC4B7A61CC9394BB56B-2025-08-18-17-51-11","","null","","[]","null","",""
"","","","","","image-button-response","15","293700","0.0-6.0-1.0-0.2","AD0BA86A52324FC4B7A61CC9394BB56B","AD0BA86A52324FC4B7A61CC9394BB56B","0198be24-2f6c-7c63-895a-b104b345bd8f","0198be1d-574a-752e-ae53-1d263a30e856","{""num_scrambled_semantic"":""8"",""num_scrambled_causal"":""4"",""num_scrambled_schematic"":""4"",""participantId"":""AD0BA86A52324FC4B7A61CC9394BB56B"",""assignmentId"":""0198be24-2f6c-7c63-895a-b104b345bd8f"",""projectId"":""0198be1d-574a-752e-ae53-1d263a30e856""}","https://test12345.live/?num_scrambled_semantic=8&num_scrambled_causal=4&num_scrambled_schematic=4&participantId=AD0BA86A52324FC4B7A61CC9394BB56B&assignmentId=0198be24-2f6c-7c63-895a-b104b345bd8f&projectId=0198be1d-574a-752e-ae53-1d263a30e856","AD0BA86A52324FC4B7A61CC9394BB56B-2025-08-18-17-51-11","","null","","images/instructions/movie_3.png","null","",""
"","","","","","image-button-response","16","295155","0.0-6.0-1.0-1.2","AD0BA86A52324FC4B7A61CC9394BB56B","AD0BA86A52324FC4B7A61CC9394BB56B","0198be24-2f6c-7c63-895a-b104b345bd8f","0198be1d-574a-752e-ae53-1d263a30e856","{""num_scrambled_semantic"":""8"",""num_scrambled_causal"":""4"",""num_scrambled_schematic"":""4"",""participantId"":""AD0BA86A52324FC4B7A61CC9394BB56B"",""assignmentId"":""0198be24-2f6c-7c63-895a-b104b345bd8f"",""projectId"":""0198be1d-574a-752e-ae53-1d263a30e856""}","https://test12345.live/?num_scrambled_semantic=8&num_scrambled_causal=4&num_scrambled_schematic=4&participantId=AD0BA86A52324FC4B7A61CC9394BB56B&assignmentId=0198be24-2f6c-7c63-895a-b104b345bd8f&projectId=0198be1d-574a-752e-ae53-1d263a30e856","AD0BA86A52324FC4B7A61CC9394BB56B-2025-08-18-17-51-11","","1454","","images/instructions/movie_3.png","0","",""
"","","","","","image-button-response","17","305971","0.0-6.0-1.0-2.2","AD0BA86A52324FC4B7A61CC9394BB56B","AD0BA86A52324FC4B7A61CC9394BB56B","0198be24-2f6c-7c63-895a-b104b345bd8f","0198be1d-574a-752e-ae53-1d263a30e856","{""num_scrambled_semantic"":""8"",""num_scrambled_causal"":""4"",""num_scrambled_schematic"":""4"",""participantId"":""AD0BA86A52324FC4B7A61CC9394BB56B"",""assignmentId"":""0198be24-2f6c-7c63-895a-b104b345bd8f"",""projectId"":""0198be1d-574a-752e-ae53-1d263a30e856""}","https://test12345.live/?num_scrambled_semantic=8&num_scrambled_causal=4&num_scrambled_schematic=4&participantId=AD0BA86A52324FC4B7A61CC9394BB56B&assignmentId=0198be24-2f6c-7c63-895a-b104b345bd8f&projectId=0198be1d-574a-752e-ae53-1d263a30e856","AD0BA86A52324FC4B7A61CC9394BB56B-2025-08-18-17-51-11","","null","","[]","null","",""
"","","","","","image-button-response","18","310480","0.0-6.0-1.0-0.3","AD0BA86A52324FC4B7A61CC9394BB56B","AD0BA86A52324FC4B7A61CC9394BB56B","0198be24-2f6c-7c63-895a-b104b345bd8f","0198be1d-574a-752e-ae53-1d263a30e856","{""num_scrambled_semantic"":""8"",""num_scrambled_causal"":""4"",""num_scrambled_schematic"":""4"",""participantId"":""AD0BA86A52324FC4B7A61CC9394BB56B"",""assignmentId"":""0198be24-2f6c-7c63-895a-b104b345bd8f"",""projectId"":""0198be1d-574a-752e-ae53-1d263a30e856""}","https://test12345.live/?num_scrambled_semantic=8&num_scrambled_causal=4&num_scrambled_schematic=4&participantId=AD0BA86A52324FC4B7A61CC9394BB56B&assignmentId=0198be24-2f6c-7c63-895a-b104b345bd8f&projectId=0198be1d-574a-752e-ae53-1d263a30e856","AD0BA86A52324FC4B7A61CC9394BB56B-2025-08-18-17-51-11","","null","","images/instructions/movie_4.png","null","",""
"","","","","","image-button-response","19","311454","0.0-6.0-1.0-1.3","AD0BA86A52324FC4B7A61CC9394BB56B","AD0BA86A52324FC4B7A61CC9394BB56B","0198be24-2f6c-7c63-895a-b104b345bd8f","0198be1d-574a-752e-ae53-1d263a30e856","{""num_scrambled_semantic"":""8"",""num_scrambled_causal"":""4"",""num_scrambled_schematic"":""4"",""participantId"":""AD0BA86A52324FC4B7A61CC9394BB56B"",""assignmentId"":""0198be24-2f6c-7c63-895a-b104b345bd8f"",""projectId"":""0198be1d-574a-752e-ae53-1d263a30e856""}","https://test12345.live/?num_scrambled_semantic=8&num_scrambled_causal=4&num_scrambled_schematic=4&participantId=AD0BA86A52324FC4B7A61CC9394BB56B&assignmentId=0198be24-2f6c-7c63-895a-b104b345bd8f&projectId=0198be1d-574a-752e-ae53-1d263a30e856","AD0BA86A52324FC4B7A61CC9394BB56B-2025-08-18-17-51-11","","973","","images/instructions/movie_4.png","0","",""
"","","","","","image-button-response","20","322263","0.0-6.0-1.0-2.3","AD0BA86A52324FC4B7A61CC9394BB56B","AD0BA86A52324FC4B7A61CC9394BB56B","0198be24-2f6c-7c63-895a-b104b345bd8f","0198be1d-574a-752e-ae53-1d263a30e856","{""num_scrambled_semantic"":""8"",""num_scrambled_causal"":""4"",""num_scrambled_schematic"":""4"",""participantId"":""AD0BA86A52324FC4B7A61CC9394BB56B"",""assignmentId"":""0198be24-2f6c-7c63-895a-b104b345bd8f"",""projectId"":""0198be1d-574a-752e-ae53-1d263a30e856""}","https://test12345.live/?num_scrambled_semantic=8&num_scrambled_causal=4&num_scrambled_schematic=4&participantId=AD0BA86A52324FC4B7A61CC9394BB56B&assignmentId=0198be24-2f6c-7c63-895a-b104b345bd8f&projectId=0198be1d-574a-752e-ae53-1d263a30e856","AD0BA86A52324FC4B7A61CC9394BB56B-2025-08-18-17-51-11","","null","","[]","null","",""
"","","","","","instructions","21","334227","0.0-7.0","AD0BA86A52324FC4B7A61CC9394BB56B","AD0BA86A52324FC4B7A61CC9394BB56B","0198be24-2f6c-7c63-895a-b104b345bd8f","0198be1d-574a-752e-ae53-1d263a30e856","{""num_scrambled_semantic"":""8"",""num_scrambled_causal"":""4"",""num_scrambled_schematic"":""4"",""participantId"":""AD0BA86A52324FC4B7A61CC9394BB56B"",""assignmentId"":""0198be24-2f6c-7c63-895a-b104b345bd8f"",""projectId"":""0198be1d-574a-752e-ae53-1d263a30e856""}","https://test12345.live/?num_scrambled_semantic=8&num_scrambled_causal=4&num_scrambled_schematic=4&participantId=AD0BA86A52324FC4B7A61CC9394BB56B&assignmentId=0198be24-2f6c-7c63-895a-b104b345bd8f&projectId=0198be1d-574a-752e-ae53-1d263a30e856","AD0BA86A52324FC4B7A61CC9394BB56B-2025-08-18-17-51-11","[{""page_index"":0,""viewing_time"":10626},{""page_index"":1,""viewing_time"":1337}]","11963","","","","",""
"","","","","","html-audio-response","22","456870","0.0-8.0","AD0BA86A52324FC4B7A61CC9394BB56B","AD0BA86A52324FC4B7A61CC9394BB56B","0198be24-2f6c-7c63-895a-b104b345bd8f","0198be1d-574a-752e-ae53-1d263a30e856","{""num_scrambled_semantic"":""8"",""num_scrambled_causal"":""4"",""num_scrambled_schematic"":""4"",""participantId"":""AD0BA86A52324FC4B7A61CC9394BB56B"",""assignmentId"":""0198be24-2f6c-7c63-895a-b104b345bd8f"",""projectId"":""0198be1d-574a-752e-ae53-1d263a30e856""}","https://test12345.live/?num_scrambled_semantic=8&num_scrambled_causal=4&num_scrambled_schematic=4&participantId=AD0BA86A52324FC4B7A61CC9394BB56B&assignmentId=0198be24-2f6c-7c63-895a-b104b345bd8f&projectId=0198be1d-574a-752e-ae53-1d263a30e856","AD0BA86A52324FC4B7A61CC9394BB56B-2025-08-18-17-51-11","","21265","","[""<span style=\""color: red; font-size: 24px\""> NOW RECORDING</span><p>Please say out loud all the images you saw in the exact order you saw them. Try to recall as many images as you can, but remember: getting the order right is more important than the number of images you recall.</p>""]","","13",""
"","","","","","instructions","23","499076","0.0-9.0","AD0BA86A52324FC4B7A61CC9394BB56B","AD0BA86A52324FC4B7A61CC9394BB56B","0198be24-2f6c-7c63-895a-b104b345bd8f","0198be1d-574a-752e-ae53-1d263a30e856","{""num_scrambled_semantic"":""8"",""num_scrambled_causal"":""4"",""num_scrambled_schematic"":""4"",""participantId"":""AD0BA86A52324FC4B7A61CC9394BB56B"",""assignmentId"":""0198be24-2f6c-7c63-895a-b104b345bd8f"",""projectId"":""0198be1d-574a-752e-ae53-1d263a30e856""}","https://test12345.live/?num_scrambled_semantic=8&num_scrambled_causal=4&num_scrambled_schematic=4&participantId=AD0BA86A52324FC4B7A61CC9394BB56B&assignmentId=0198be24-2f6c-7c63-895a-b104b345bd8f&projectId=0198be1d-574a-752e-ae53-1d263a30e856","AD0BA86A52324FC4B7A61CC9394BB56B-2025-08-18-17-51-11","[{""page_index"":0,""viewing_time"":42199}]","42200","","","","",""
"","","","","","image-button-response","24","505080","0.0-10.0-0.0","AD0BA86A52324FC4B7A61CC9394BB56B","AD0BA86A52324FC4B7A61CC9394BB56B","0198be24-2f6c-7c63-895a-b104b345bd8f","0198be1d-574a-752e-ae53-1d263a30e856","{""num_scrambled_semantic"":""8"",""num_scrambled_causal"":""4"",""num_scrambled_schematic"":""4"",""participantId"":""AD0BA86A52324FC4B7A61CC9394BB56B"",""assignmentId"":""0198be24-2f6c-7c63-895a-b104b345bd8f"",""projectId"":""0198be1d-574a-752e-ae53-1d263a30e856""}","https://test12345.live/?num_scrambled_semantic=8&num_scrambled_causal=4&num_scrambled_schematic=4&participantId=AD0BA86A52324FC4B7A61CC9394BB56B&assignmentId=0198be24-2f6c-7c63-895a-b104b345bd8f&projectId=0198be1d-574a-752e-ae53-1d263a30e856","AD0BA86A52324FC4B7A61CC9394BB56B-2025-08-18-17-51-11","","null","","images/causal_sequence/coin_causal/coin_causal_0.png","null","",""
"","","","","","image-button-response","25","509590","0.0-10.0-1.0-0.0","AD0BA86A52324FC4B7A61CC9394BB56B","AD0BA86A52324FC4B7A61CC9394BB56B","0198be24-2f6c-7c63-895a-b104b345bd8f","0198be1d-574a-752e-ae53-1d263a30e856","{""num_scrambled_semantic"":""8"",""num_scrambled_causal"":""4"",""num_scrambled_schematic"":""4"",""participantId"":""AD0BA86A52324FC4B7A61CC9394BB56B"",""assignmentId"":""0198be24-2f6c-7c63-895a-b104b345bd8f"",""projectId"":""0198be1d-574a-752e-ae53-1d263a30e856""}","https://test12345.live/?num_scrambled_semantic=8&num_scrambled_causal=4&num_scrambled_schematic=4&participantId=AD0BA86A52324FC4B7A61CC9394BB56B&assignmentId=0198be24-2f6c-7c63-895a-b104b345bd8f&projectId=0198be1d-574a-752e-ae53-1d263a30e856","AD0BA86A52324FC4B7A61CC9394BB56B-2025-08-18-17-51-11","","null","","images/causal_sequence/coin_causal/coin_causal_8.png","null","",""
"","","","","","image-button-response","26","511528","0.0-10.0-1.0-1.0","AD0BA86A52324FC4B7A61CC9394BB56B","AD0BA86A52324FC4B7A61CC9394BB56B","0198be24-2f6c-7c63-895a-b104b345bd8f","0198be1d-574a-752e-ae53-1d263a30e856","{""num_scrambled_semantic"":""8"",""num_scrambled_causal"":""4"",""num_scrambled_schematic"":""4"",""participantId"":""AD0BA86A52324FC4B7A61CC9394BB56B"",""assignmentId"":""0198be24-2f6c-7c63-895a-b104b345bd8f"",""projectId"":""0198be1d-574a-752e-ae53-1d263a30e856""}","https://test12345.live/?num_scrambled_semantic=8&num_scrambled_causal=4&num_scrambled_schematic=4&participantId=AD0BA86A52324FC4B7A61CC9394BB56B&assignmentId=0198be24-2f6c-7c63-895a-b104b345bd8f&projectId=0198be1d-574a-752e-ae53-1d263a30e856","AD0BA86A52324FC4B7A61CC9394BB56B-2025-08-18-17-51-11","","1937","","images/causal_sequence/coin_causal/coin_causal_8.png","0","",""
"","","","","","image-button-response","27","522334","0.0-10.0-1.0-2.0","AD0BA86A52324FC4B7A61CC9394BB56B","AD0BA86A52324FC4B7A61CC9394BB56B","0198be24-2f6c-7c63-895a-b104b345bd8f","0198be1d-574a-752e-ae53-1d263a30e856","{""num_scrambled_semantic"":""8"",""num_scrambled_causal"":""4"",""num_scrambled_schematic"":""4"",""participantId"":""AD0BA86A52324FC4B7A61CC9394BB56B"",""assignmentId"":""0198be24-2f6c-7c63-895a-b104b345bd8f"",""projectId"":""0198be1d-574a-752e-ae53-1d263a30e856""}","https://test12345.live/?num_scrambled_semantic=8&num_scrambled_causal=4&num_scrambled_schematic=4&participantId=AD0BA86A52324FC4B7A61CC9394BB56B&assignmentId=0198be24-2f6c-7c63-895a-b104b345bd8f&projectId=0198be1d-574a-752e-ae53-1d263a30e856","AD0BA86A52324FC4B7A61CC9394BB56B-2025-08-18-17-51-11","","null","","[]","null","",""
"","","","","","image-button-response","28","526836","0.0-10.0-1.0-0.1","AD0BA86A52324FC4B7A61CC9394BB56B","AD0BA86A52324FC4B7A61CC9394BB56B","0198be24-2f6c-7c63-895a-b104b345bd8f","0198be1d-574a-752e-ae53-1d263a30e856","{""num_scrambled_semantic"":""8"",""num_scrambled_causal"":""4"",""num_scrambled_schematic"":""4"",""participantId"":""AD0BA86A52324FC4B7A61CC9394BB56B"",""assignmentId"":""0198be24-2f6c-7c63-895a-b104b345bd8f"",""projectId"":""0198be1d-574a-752e-ae53-1d263a30e856""}","https://test12345.live/?num_scrambled_semantic=8&num_scrambled_causal=4&num_scrambled_schematic=4&participantId=AD0BA86A52324FC4B7A61CC9394BB56B&assignmentId=0198be24-2f6c-7c63-895a-b104b345bd8f&projectId=0198be1d-574a-752e-ae53-1d263a30e856","AD0BA86A52324FC4B7A61CC9394BB56B-2025-08-18-17-51-11","","null","","images/causal_sequence/coin_causal/coin_causal_2.png","null","",""
"","","","","","image-button-response","29","530073","0.0-10.0-1.0-1.1","AD0BA86A52324FC4B7A61CC9394BB56B","AD0BA86A52324FC4B7A61CC9394BB56B","0198be24-2f6c-7c63-895a-b104b345bd8f","0198be1d-574a-752e-ae53-1d263a30e856","{""num_scrambled_semantic"":""8"",""num_scrambled_causal"":""4"",""num_scrambled_schematic"":""4"",""participantId"":""AD0BA86A52324FC4B7A61CC9394BB56B"",""assignmentId"":""0198be24-2f6c-7c63-895a-b104b345bd8f"",""projectId"":""0198be1d-574a-752e-ae53-1d263a30e856""}","https://test12345.live/?num_scrambled_semantic=8&num_scrambled_causal=4&num_scrambled_schematic=4&participantId=AD0BA86A52324FC4B7A61CC9394BB56B&assignmentId=0198be24-2f6c-7c63-895a-b104b345bd8f&projectId=0198be1d-574a-752e-ae53-1d263a30e856","AD0BA86A52324FC4B7A61CC9394BB56B-2025-08-18-17-51-11","","3237","","images/causal_sequence/coin_causal/coin_causal_2.png","0","",""
"","","","","","image-button-response","30","540878","0.0-10.0-1.0-2.1","AD0BA86A52324FC4B7A61CC9394BB56B","AD0BA86A52324FC4B7A61CC9394BB56B","0198be24-2f6c-7c63-895a-b104b345bd8f","0198be1d-574a-752e-ae53-1d263a30e856","{""num_scrambled_semantic"":""8"",""num_scrambled_causal"":""4"",""num_scrambled_schematic"":""4"",""participantId"":""AD0BA86A52324FC4B7A61CC9394BB56B"",""assignmentId"":""0198be24-2f6c-7c63-895a-b104b345bd8f"",""projectId"":""0198be1d-574a-752e-ae53-1d263a30e856""}","https://test12345.live/?num_scrambled_semantic=8&num_scrambled_causal=4&num_scrambled_schematic=4&participantId=AD0BA86A52324FC4B7A61CC9394BB56B&assignmentId=0198be24-2f6c-7c63-895a-b104b345bd8f&projectId=0198be1d-574a-752e-ae53-1d263a30e856","AD0BA86A52324FC4B7A61CC9394BB56B-2025-08-18-17-51-11","","null","","[]","null","",""
"","","","","","image-button-response","31","545386","0.0-10.0-1.0-0.2","AD0BA86A52324FC4B7A61CC9394BB56B","AD0BA86A52324FC4B7A61CC9394BB56B","0198be24-2f6c-7c63-895a-b104b345bd8f","0198be1d-574a-752e-ae53-1d263a30e856","{""num_scrambled_semantic"":""8"",""num_scrambled_causal"":""4"",""num_scrambled_schematic"":""4"",""participantId"":""AD0BA86A52324FC4B7A61CC9394BB56B"",""assignmentId"":""0198be24-2f6c-7c63-895a-b104b345bd8f"",""projectId"":""0198be1d-574a-752e-ae53-1d263a30e856""}","https://test12345.live/?num_scrambled_semantic=8&num_scrambled_causal=4&num_scrambled_schematic=4&participantId=AD0BA86A52324FC4B7A61CC9394BB56B&assignmentId=0198be24-2f6c-7c63-895a-b104b345bd8f&projectId=0198be1d-574a-752e-ae53-1d263a30e856","AD0BA86A52324FC4B7A61CC9394BB56B-2025-08-18-17-51-11","","null","","images/causal_sequence/coin_causal/coin_causal_7.png","null","",""
"","","","","","image-button-response","32","548604","0.0-10.0-1.0-1.2","AD0BA86A52324FC4B7A61CC9394BB56B","AD0BA86A52324FC4B7A61CC9394BB56B","0198be24-2f6c-7c63-895a-b104b345bd8f","0198be1d-574a-752e-ae53-1d263a30e856","{""num_scrambled_semantic"":""8"",""num_scrambled_causal"":""4"",""num_scrambled_schematic"":""4"",""participantId"":""AD0BA86A52324FC4B7A61CC9394BB56B"",""assignmentId"":""0198be24-2f6c-7c63-895a-b104b345bd8f"",""projectId"":""0198be1d-574a-752e-ae53-1d263a30e856""}","https://test12345.live/?num_scrambled_semantic=8&num_scrambled_causal=4&num_scrambled_schematic=4&participantId=AD0BA86A52324FC4B7A61CC9394BB56B&assignmentId=0198be24-2f6c-7c63-895a-b104b345bd8f&projectId=0198be1d-574a-752e-ae53-1d263a30e856","AD0BA86A52324FC4B7A61CC9394BB56B-2025-08-18-17-51-11","","3217","","images/causal_sequence/coin_causal/coin_causal_7.png","1","",""
"","","","","","image-button-response","33","559417","0.0-10.0-1.0-2.2","AD0BA86A52324FC4B7A61CC9394BB56B","AD0BA86A52324FC4B7A61CC9394BB56B","0198be24-2f6c-7c63-895a-b104b345bd8f","0198be1d-574a-752e-ae53-1d263a30e856","{""num_scrambled_semantic"":""8"",""num_scrambled_causal"":""4"",""num_scrambled_schematic"":""4"",""participantId"":""AD0BA86A52324FC4B7A61CC9394BB56B"",""assignmentId"":""0198be24-2f6c-7c63-895a-b104b345bd8f"",""projectId"":""0198be1d-574a-752e-ae53-1d263a30e856""}","https://test12345.live/?num_scrambled_semantic=8&num_scrambled_causal=4&num_scrambled_schematic=4&participantId=AD0BA86A52324FC4B7A61CC9394BB56B&assignmentId=0198be24-2f6c-7c63-895a-b104b345bd8f&projectId=0198be1d-574a-752e-ae53-1d263a30e856","AD0BA86A52324FC4B7A61CC9394BB56B-2025-08-18-17-51-11","","null","","[]","null","",""
"","","","","","image-button-response","34","563920","0.0-10.0-1.0-0.3","AD0BA86A52324FC4B7A61CC9394BB56B","AD0BA86A52324FC4B7A61CC9394BB56B","0198be24-2f6c-7c63-895a-b104b345bd8f","0198be1d-574a-752e-ae53-1d263a30e856","{""num_scrambled_semantic"":""8"",""num_scrambled_causal"":""4"",""num_scrambled_schematic"":""4"",""participantId"":""AD0BA86A52324FC4B7A61CC9394BB56B"",""assignmentId"":""0198be24-2f6c-7c63-895a-b104b345bd8f"",""projectId"":""0198be1d-574a-752e-ae53-1d263a30e856""}","https://test12345.live/?num_scrambled_semantic=8&num_scrambled_causal=4&num_scrambled_schematic=4&participantId=AD0BA86A52324FC4B7A61CC9394BB56B&assignmentId=0198be24-2f6c-7c63-895a-b104b345bd8f&projectId=0198be1d-574a-752e-ae53-1d263a30e856","AD0BA86A52324FC4B7A61CC9394BB56B-2025-08-18-17-51-11","","null","","images/causal_sequence/coin_causal/coin_causal_ten.png","null","",""
"","","","","","image-button-response","35","565083","0.0-10.0-1.0-1.3","AD0BA86A52324FC4B7A61CC9394BB56B","AD0BA86A52324FC4B7A61CC9394BB56B","0198be24-2f6c-7c63-895a-b104b345bd8f","0198be1d-574a-752e-ae53-1d263a30e856","{""num_scrambled_semantic"":""8"",""num_scrambled_causal"":""4"",""num_scrambled_schematic"":""4"",""participantId"":""AD0BA86A52324FC4B7A61CC9394BB56B"",""assignmentId"":""0198be24-2f6c-7c63-895a-b104b345bd8f"",""projectId"":""0198be1d-574a-752e-ae53-1d263a30e856""}","https://test12345.live/?num_scrambled_semantic=8&num_scrambled_causal=4&num_scrambled_schematic=4&participantId=AD0BA86A52324FC4B7A61CC9394BB56B&assignmentId=0198be24-2f6c-7c63-895a-b104b345bd8f&projectId=0198be1d-574a-752e-ae53-1d263a30e856","AD0BA86A52324FC4B7A61CC9394BB56B-2025-08-18-17-51-11","","1162","","images/causal_sequence/coin_causal/coin_causal_ten.png","0","",""
"","","","","","image-button-response","36","575890","0.0-10.0-1.0-2.3","AD0BA86A52324FC4B7A61CC9394BB56B","AD0BA86A52324FC4B7A61CC9394BB56B","0198be24-2f6c-7c63-895a-b104b345bd8f","0198be1d-574a-752e-ae53-1d263a30e856","{""num_scrambled_semantic"":""8"",""num_scrambled_causal"":""4"",""num_scrambled_schematic"":""4"",""participantId"":""AD0BA86A52324FC4B7A61CC9394BB56B"",""assignmentId"":""0198be24-2f6c-7c63-895a-b104b345bd8f"",""projectId"":""0198be1d-574a-752e-ae53-1d263a30e856""}","https://test12345.live/?num_scrambled_semantic=8&num_scrambled_causal=4&num_scrambled_schematic=4&participantId=AD0BA86A52324FC4B7A61CC9394BB56B&assignmentId=0198be24-2f6c-7c63-895a-b104b345bd8f&projectId=0198be1d-574a-752e-ae53-1d263a30e856","AD0BA86A52324FC4B7A61CC9394BB56B-2025-08-18-17-51-11","","null","","[]","null","",""
"","","","","","image-button-response","37","580405","0.0-10.0-1.0-0.4","AD0BA86A52324FC4B7A61CC9394BB56B","AD0BA86A52324FC4B7A61CC9394BB56B","0198be24-2f6c-7c63-895a-b104b345bd8f","0198be1d-574a-752e-ae53-1d263a30e856","{""num_scrambled_semantic"":""8"",""num_scrambled_causal"":""4"",""num_scrambled_schematic"":""4"",""participantId"":""AD0BA86A52324FC4B7A61CC9394BB56B"",""assignmentId"":""0198be24-2f6c-7c63-895a-b104b345bd8f"",""projectId"":""0198be1d-574a-752e-ae53-1d263a30e856""}","https://test12345.live/?num_scrambled_semantic=8&num_scrambled_causal=4&num_scrambled_schematic=4&participantId=AD0BA86A52324FC4B7A61CC9394BB56B&assignmentId=0198be24-2f6c-7c63-895a-b104b345bd8f&projectId=0198be1d-574a-752e-ae53-1d263a30e856","AD0BA86A52324FC4B7A61CC9394BB56B-2025-08-18-17-51-11","","null","","images/causal_sequence/coin_causal/coin_causal_3.png","null","",""
"","","","","","image-button-response","38","583234","0.0-10.0-1.0-1.4","AD0BA86A52324FC4B7A61CC9394BB56B","AD0BA86A52324FC4B7A61CC9394BB56B","0198be24-2f6c-7c63-895a-b104b345bd8f","0198be1d-574a-752e-ae53-1d263a30e856","{""num_scrambled_semantic"":""8"",""num_scrambled_causal"":""4"",""num_scrambled_schematic"":""4"",""participantId"":""AD0BA86A52324FC4B7A61CC9394BB56B"",""assignmentId"":""0198be24-2f6c-7c63-895a-b104b345bd8f"",""projectId"":""0198be1d-574a-752e-ae53-1d263a30e856""}","https://test12345.live/?num_scrambled_semantic=8&num_scrambled_causal=4&num_scrambled_schematic=4&participantId=AD0BA86A52324FC4B7A61CC9394BB56B&assignmentId=0198be24-2f6c-7c63-895a-b104b345bd8f&projectId=0198be1d-574a-752e-ae53-1d263a30e856","AD0BA86A52324FC4B7A61CC9394BB56B-2025-08-18-17-51-11","","2828","","images/causal_sequence/coin_causal/coin_causal_3.png","0","",""
"","","","","","image-button-response","39","594035","0.0-10.0-1.0-2.4","AD0BA86A52324FC4B7A61CC9394BB56B","AD0BA86A52324FC4B7A61CC9394BB56B","0198be24-2f6c-7c63-895a-b104b345bd8f","0198be1d-574a-752e-ae53-1d263a30e856","{""num_scrambled_semantic"":""8"",""num_scrambled_causal"":""4"",""num_scrambled_schematic"":""4"",""participantId"":""AD0BA86A52324FC4B7A61CC9394BB56B"",""assignmentId"":""0198be24-2f6c-7c63-895a-b104b345bd8f"",""projectId"":""0198be1d-574a-752e-ae53-1d263a30e856""}","https://test12345.live/?num_scrambled_semantic=8&num_scrambled_causal=4&num_scrambled_schematic=4&participantId=AD0BA86A52324FC4B7A61CC9394BB56B&assignmentId=0198be24-2f6c-7c63-895a-b104b345bd8f&projectId=0198be1d-574a-752e-ae53-1d263a30e856","AD0BA86A52324FC4B7A61CC9394BB56B-2025-08-18-17-51-11","","null","","[]","null","",""
"","","","","","image-button-response","40","598540","0.0-10.0-1.0-0.5","AD0BA86A52324FC4B7A61CC9394BB56B","AD0BA86A52324FC4B7A61CC9394BB56B","0198be24-2f6c-7c63-895a-b104b345bd8f","0198be1d-574a-752e-ae53-1d263a30e856","{""num_scrambled_semantic"":""8"",""num_scrambled_causal"":""4"",""num_scrambled_schematic"":""4"",""participantId"":""AD0BA86A52324FC4B7A61CC9394BB56B"",""assignmentId"":""0198be24-2f6c-7c63-895a-b104b345bd8f"",""projectId"":""0198be1d-574a-752e-ae53-1d263a30e856""}","https://test12345.live/?num_scrambled_semantic=8&num_scrambled_causal=4&num_scrambled_schematic=4&participantId=AD0BA86A52324FC4B7A61CC9394BB56B&assignmentId=0198be24-2f6c-7c63-895a-b104b345bd8f&projectId=0198be1d-574a-752e-ae53-1d263a30e856","AD0BA86A52324FC4B7A61CC9394BB56B-2025-08-18-17-51-11","","null","","images/causal_sequence/coin_causal/coin_causal_9.png","null","",""
"","","","","","image-button-response","41","599768","0.0-10.0-1.0-1.5","AD0BA86A52324FC4B7A61CC9394BB56B","AD0BA86A52324FC4B7A61CC9394BB56B","0198be24-2f6c-7c63-895a-b104b345bd8f","0198be1d-574a-752e-ae53-1d263a30e856","{""num_scrambled_semantic"":""8"",""num_scrambled_causal"":""4"",""num_scrambled_schematic"":""4"",""participantId"":""AD0BA86A52324FC4B7A61CC9394BB56B"",""assignmentId"":""0198be24-2f6c-7c63-895a-b104b345bd8f"",""projectId"":""0198be1d-574a-752e-ae53-1d263a30e856""}","https://test12345.live/?num_scrambled_semantic=8&num_scrambled_causal=4&num_scrambled_schematic=4&participantId=AD0BA86A52324FC4B7A61CC9394BB56B&assignmentId=0198be24-2f6c-7c63-895a-b104b345bd8f&projectId=0198be1d-574a-752e-ae53-1d263a30e856","AD0BA86A52324FC4B7A61CC9394BB56B-2025-08-18-17-51-11","","1227","","images/causal_sequence/coin_causal/coin_causal_9.png","0","",""
"","","","","","image-button-response","42","610574","0.0-10.0-1.0-2.5","AD0BA86A52324FC4B7A61CC9394BB56B","AD0BA86A52324FC4B7A61CC9394BB56B","0198be24-2f6c-7c63-895a-b104b345bd8f","0198be1d-574a-752e-ae53-1d263a30e856","{""num_scrambled_semantic"":""8"",""num_scrambled_causal"":""4"",""num_scrambled_schematic"":""4"",""participantId"":""AD0BA86A52324FC4B7A61CC9394BB56B"",""assignmentId"":""0198be24-2f6c-7c63-895a-b104b345bd8f"",""projectId"":""0198be1d-574a-752e-ae53-1d263a30e856""}","https://test12345.live/?num_scrambled_semantic=8&num_scrambled_causal=4&num_scrambled_schematic=4&participantId=AD0BA86A52324FC4B7A61CC9394BB56B&assignmentId=0198be24-2f6c-7c63-895a-b104b345bd8f&projectId=0198be1d-574a-752e-ae53-1d263a30e856","AD0BA86A52324FC4B7A61CC9394BB56B-2025-08-18-17-51-11","","null","","[]","null","",""
"","","","","","image-button-response","43","615087","0.0-10.0-1.0-0.6","AD0BA86A52324FC4B7A61CC9394BB56B","AD0BA86A52324FC4B7A61CC9394BB56B","0198be24-2f6c-7c63-895a-b104b345bd8f","0198be1d-574a-752e-ae53-1d263a30e856","{""num_scrambled_semantic"":""8"",""num_scrambled_causal"":""4"",""num_scrambled_schematic"":""4"",""participantId"":""AD0BA86A52324FC4B7A61CC9394BB56B"",""assignmentId"":""0198be24-2f6c-7c63-895a-b104b345bd8f"",""projectId"":""0198be1d-574a-752e-ae53-1d263a30e856""}","https://test12345.live/?num_scrambled_semantic=8&num_scrambled_causal=4&num_scrambled_schematic=4&participantId=AD0BA86A52324FC4B7A61CC9394BB56B&assignmentId=0198be24-2f6c-7c63-895a-b104b345bd8f&projectId=0198be1d-574a-752e-ae53-1d263a30e856","AD0BA86A52324FC4B7A61CC9394BB56B-2025-08-18-17-51-11","","null","","images/causal_sequence/coin_causal/coin_causal_5.png","null","",""
"","","","","","image-button-response","44","617579","0.0-10.0-1.0-1.6","AD0BA86A52324FC4B7A61CC9394BB56B","AD0BA86A52324FC4B7A61CC9394BB56B","0198be24-2f6c-7c63-895a-b104b345bd8f","0198be1d-574a-752e-ae53-1d263a30e856","{""num_scrambled_semantic"":""8"",""num_scrambled_causal"":""4"",""num_scrambled_schematic"":""4"",""participantId"":""AD0BA86A52324FC4B7A61CC9394BB56B"",""assignmentId"":""0198be24-2f6c-7c63-895a-b104b345bd8f"",""projectId"":""0198be1d-574a-752e-ae53-1d263a30e856""}","https://test12345.live/?num_scrambled_semantic=8&num_scrambled_causal=4&num_scrambled_schematic=4&participantId=AD0BA86A52324FC4B7A61CC9394BB56B&assignmentId=0198be24-2f6c-7c63-895a-b104b345bd8f&projectId=0198be1d-574a-752e-ae53-1d263a30e856","AD0BA86A52324FC4B7A61CC9394BB56B-2025-08-18-17-51-11","","2490","","images/causal_sequence/coin_causal/coin_causal_5.png","0","",""
"","","","","","image-button-response","45","628387","0.0-10.0-1.0-2.6","AD0BA86A52324FC4B7A61CC9394BB56B","AD0BA86A52324FC4B7A61CC9394BB56B","0198be24-2f6c-7c63-895a-b104b345bd8f","0198be1d-574a-752e-ae53-1d263a30e856","{""num_scrambled_semantic"":""8"",""num_scrambled_causal"":""4"",""num_scrambled_schematic"":""4"",""participantId"":""AD0BA86A52324FC4B7A61CC9394BB56B"",""assignmentId"":""0198be24-2f6c-7c63-895a-b104b345bd8f"",""projectId"":""0198be1d-574a-752e-ae53-1d263a30e856""}","https://test12345.live/?num_scrambled_semantic=8&num_scrambled_causal=4&num_scrambled_schematic=4&participantId=AD0BA86A52324FC4B7A61CC9394BB56B&assignmentId=0198be24-2f6c-7c63-895a-b104b345bd8f&projectId=0198be1d-574a-752e-ae53-1d263a30e856","AD0BA86A52324FC4B7A61CC9394BB56B-2025-08-18-17-51-11","","null","","[]","null","",""
"","","","","","image-button-response","46","632898","0.0-10.0-1.0-0.7","AD0BA86A52324FC4B7A61CC9394BB56B","AD0BA86A52324FC4B7A61CC9394BB56B","0198be24-2f6c-7c63-895a-b104b345bd8f","0198be1d-574a-752e-ae53-1d263a30e856","{""num_scrambled_semantic"":""8"",""num_scrambled_causal"":""4"",""num_scrambled_schematic"":""4"",""participantId"":""AD0BA86A52324FC4B7A61CC9394BB56B"",""assignmentId"":""0198be24-2f6c-7c63-895a-b104b345bd8f"",""projectId"":""0198be1d-574a-752e-ae53-1d263a30e856""}","https://test12345.live/?num_scrambled_semantic=8&num_scrambled_causal=4&num_scrambled_schematic=4&participantId=AD0BA86A52324FC4B7A61CC9394BB56B&assignmentId=0198be24-2f6c-7c63-895a-b104b345bd8f&projectId=0198be1d-574a-752e-ae53-1d263a30e856","AD0BA86A52324FC4B7A61CC9394BB56B-2025-08-18-17-51-11","","null","","images/causal_sequence/coin_causal/coin_causal_4.png","null","",""
"","","","","","image-button-response","47","635466","0.0-10.0-1.0-1.7","AD0BA86A52324FC4B7A61CC9394BB56B","AD0BA86A52324FC4B7A61CC9394BB56B","0198be24-2f6c-7c63-895a-b104b345bd8f","0198be1d-574a-752e-ae53-1d263a30e856","{""num_scrambled_semantic"":""8"",""num_scrambled_causal"":""4"",""num_scrambled_schematic"":""4"",""participantId"":""AD0BA86A52324FC4B7A61CC9394BB56B"",""assignmentId"":""0198be24-2f6c-7c63-895a-b104b345bd8f"",""projectId"":""0198be1d-574a-752e-ae53-1d263a30e856""}","https://test12345.live/?num_scrambled_semantic=8&num_scrambled_causal=4&num_scrambled_schematic=4&participantId=AD0BA86A52324FC4B7A61CC9394BB56B&assignmentId=0198be24-2f6c-7c63-895a-b104b345bd8f&projectId=0198be1d-574a-752e-ae53-1d263a30e856","AD0BA86A52324FC4B7A61CC9394BB56B-2025-08-18-17-51-11","","2567","","images/causal_sequence/coin_causal/coin_causal_4.png","0","",""
"","","","","","image-button-response","48","646279","0.0-10.0-1.0-2.7","AD0BA86A52324FC4B7A61CC9394BB56B","AD0BA86A52324FC4B7A61CC9394BB56B","0198be24-2f6c-7c63-895a-b104b345bd8f","0198be1d-574a-752e-ae53-1d263a30e856","{""num_scrambled_semantic"":""8"",""num_scrambled_causal"":""4"",""num_scrambled_schematic"":""4"",""participantId"":""AD0BA86A52324FC4B7A61CC9394BB56B"",""assignmentId"":""0198be24-2f6c-7c63-895a-b104b345bd8f"",""projectId"":""0198be1d-574a-752e-ae53-1d263a30e856""}","https://test12345.live/?num_scrambled_semantic=8&num_scrambled_causal=4&num_scrambled_schematic=4&participantId=AD0BA86A52324FC4B7A61CC9394BB56B&assignmentId=0198be24-2f6c-7c63-895a-b104b345bd8f&projectId=0198be1d-574a-752e-ae53-1d263a30e856","AD0BA86A52324FC4B7A61CC9394BB56B-2025-08-18-17-51-11","","null","","[]","null","",""
"","","","","","image-button-response","49","650780","0.0-10.0-1.0-0.8","AD0BA86A52324FC4B7A61CC9394BB56B","AD0BA86A52324FC4B7A61CC9394BB56B","0198be24-2f6c-7c63-895a-b104b345bd8f","0198be1d-574a-752e-ae53-1d263a30e856","{""num_scrambled_semantic"":""8"",""num_scrambled_causal"":""4"",""num_scrambled_schematic"":""4"",""participantId"":""AD0BA86A52324FC4B7A61CC9394BB56B"",""assignmentId"":""0198be24-2f6c-7c63-895a-b104b345bd8f"",""projectId"":""0198be1d-574a-752e-ae53-1d263a30e856""}","https://test12345.live/?num_scrambled_semantic=8&num_scrambled_causal=4&num_scrambled_schematic=4&participantId=AD0BA86A52324FC4B7A61CC9394BB56B&assignmentId=0198be24-2f6c-7c63-895a-b104b345bd8f&projectId=0198be1d-574a-752e-ae53-1d263a30e856","AD0BA86A52324FC4B7A61CC9394BB56B-2025-08-18-17-51-11","","null","","images/causal_sequence/coin_causal/coin_causal_1.png","null","",""
"","","","","","image-button-response","50","652772","0.0-10.0-1.0-1.8","AD0BA86A52324FC4B7A61CC9394BB56B","AD0BA86A52324FC4B7A61CC9394BB56B","0198be24-2f6c-7c63-895a-b104b345bd8f","0198be1d-574a-752e-ae53-1d263a30e856","{""num_scrambled_semantic"":""8"",""num_scrambled_causal"":""4"",""num_scrambled_schematic"":""4"",""participantId"":""AD0BA86A52324FC4B7A61CC9394BB56B"",""assignmentId"":""0198be24-2f6c-7c63-895a-b104b345bd8f"",""projectId"":""0198be1d-574a-752e-ae53-1d263a30e856""}","https://test12345.live/?num_scrambled_semantic=8&num_scrambled_causal=4&num_scrambled_schematic=4&participantId=AD0BA86A52324FC4B7A61CC9394BB56B&assignmentId=0198be24-2f6c-7c63-895a-b104b345bd8f&projectId=0198be1d-574a-752e-ae53-1d263a30e856","AD0BA86A52324FC4B7A61CC9394BB56B-2025-08-18-17-51-11","","1991","","images/causal_sequence/coin_causal/coin_causal_1.png","0","",""
"","","","","","image-button-response","51","663582","0.0-10.0-1.0-2.8","AD0BA86A52324FC4B7A61CC9394BB56B","AD0BA86A52324FC4B7A61CC9394BB56B","0198be24-2f6c-7c63-895a-b104b345bd8f","0198be1d-574a-752e-ae53-1d263a30e856","{""num_scrambled_semantic"":""8"",""num_scrambled_causal"":""4"",""num_scrambled_schematic"":""4"",""participantId"":""AD0BA86A52324FC4B7A61CC9394BB56B"",""assignmentId"":""0198be24-2f6c-7c63-895a-b104b345bd8f"",""projectId"":""0198be1d-574a-752e-ae53-1d263a30e856""}","https://test12345.live/?num_scrambled_semantic=8&num_scrambled_causal=4&num_scrambled_schematic=4&participantId=AD0BA86A52324FC4B7A61CC9394BB56B&assignmentId=0198be24-2f6c-7c63-895a-b104b345bd8f&projectId=0198be1d-574a-752e-ae53-1d263a30e856","AD0BA86A52324FC4B7A61CC9394BB56B-2025-08-18-17-51-11","","null","","[]","null","",""
"","","","","","image-button-response","52","668086","0.0-10.0-1.0-0.9","AD0BA86A52324FC4B7A61CC9394BB56B","AD0BA86A52324FC4B7A61CC9394BB56B","0198be24-2f6c-7c63-895a-b104b345bd8f","0198be1d-574a-752e-ae53-1d263a30e856","{""num_scrambled_semantic"":""8"",""num_scrambled_causal"":""4"",""num_scrambled_schematic"":""4"",""participantId"":""AD0BA86A52324FC4B7A61CC9394BB56B"",""assignmentId"":""0198be24-2f6c-7c63-895a-b104b345bd8f"",""projectId"":""0198be1d-574a-752e-ae53-1d263a30e856""}","https://test12345.live/?num_scrambled_semantic=8&num_scrambled_causal=4&num_scrambled_schematic=4&participantId=AD0BA86A52324FC4B7A61CC9394BB56B&assignmentId=0198be24-2f6c-7c63-895a-b104b345bd8f&projectId=0198be1d-574a-752e-ae53-1d263a30e856","AD0BA86A52324FC4B7A61CC9394BB56B-2025-08-18-17-51-11","","null","","images/causal_sequence/coin_causal/coin_causal_6.png","null","",""
"","","","","","image-button-response","53","672103","0.0-10.0-1.0-1.9","AD0BA86A52324FC4B7A61CC9394BB56B","AD0BA86A52324FC4B7A61CC9394BB56B","0198be24-2f6c-7c63-895a-b104b345bd8f","0198be1d-574a-752e-ae53-1d263a30e856","{""num_scrambled_semantic"":""8"",""num_scrambled_causal"":""4"",""num_scrambled_schematic"":""4"",""participantId"":""AD0BA86A52324FC4B7A61CC9394BB56B"",""assignmentId"":""0198be24-2f6c-7c63-895a-b104b345bd8f"",""projectId"":""0198be1d-574a-752e-ae53-1d263a30e856""}","https://test12345.live/?num_scrambled_semantic=8&num_scrambled_causal=4&num_scrambled_schematic=4&participantId=AD0BA86A52324FC4B7A61CC9394BB56B&assignmentId=0198be24-2f6c-7c63-895a-b104b345bd8f&projectId=0198be1d-574a-752e-ae53-1d263a30e856","AD0BA86A52324FC4B7A61CC9394BB56B-2025-08-18-17-51-11","","null","","images/causal_sequence/coin_causal/coin_causal_6.png","null","",""
"","","","","","image-button-response","54","682916","0.0-10.0-1.0-2.9","AD0BA86A52324FC4B7A61CC9394BB56B","AD0BA86A52324FC4B7A61CC9394BB56B","0198be24-2f6c-7c63-895a-b104b345bd8f","0198be1d-574a-752e-ae53-1d263a30e856","{""num_scrambled_semantic"":""8"",""num_scrambled_causal"":""4"",""num_scrambled_schematic"":""4"",""participantId"":""AD0BA86A52324FC4B7A61CC9394BB56B"",""assignmentId"":""0198be24-2f6c-7c63-895a-b104b345bd8f"",""projectId"":""0198be1d-574a-752e-ae53-1d263a30e856""}","https://test12345.live/?num_scrambled_semantic=8&num_scrambled_causal=4&num_scrambled_schematic=4&participantId=AD0BA86A52324FC4B7A61CC9394BB56B&assignmentId=0198be24-2f6c-7c63-895a-b104b345bd8f&projectId=0198be1d-574a-752e-ae53-1d263a30e856","AD0BA86A52324FC4B7A61CC9394BB56B-2025-08-18-17-51-11","","null","","[]","null","",""
"","","","","","html-audio-response","55","751558","0.0-11.0","AD0BA86A52324FC4B7A61CC9394BB56B","AD0BA86A52324FC4B7A61CC9394BB56B","0198be24-2f6c-7c63-895a-b104b345bd8f","0198be1d-574a-752e-ae53-1d263a30e856","{""num_scrambled_semantic"":""8"",""num_scrambled_causal"":""4"",""num_scrambled_schematic"":""4"",""participantId"":""AD0BA86A52324FC4B7A61CC9394BB56B"",""assignmentId"":""0198be24-2f6c-7c63-895a-b104b345bd8f"",""projectId"":""0198be1d-574a-752e-ae53-1d263a30e856""}","https://test12345.live/?num_scrambled_semantic=8&num_scrambled_causal=4&num_scrambled_schematic=4&participantId=AD0BA86A52324FC4B7A61CC9394BB56B&assignmentId=0198be24-2f6c-7c63-895a-b104b345bd8f&projectId=0198be1d-574a-752e-ae53-1d263a30e856","AD0BA86A52324FC4B7A61CC9394BB56B-2025-08-18-17-51-11","","47475","","[""<span style=\""color: red; font-size: 24px\""> NOW RECORDING</span><p>Please say out loud all the images you saw, in the exact order you saw them. Try to recall as many images as you can, but remember: getting the order right is more important than the number of images you recall.</p>""]","","2","coin_causal"
"","","","","","image-button-response","56","757570","0.0-12.0-0.0","AD0BA86A52324FC4B7A61CC9394BB56B","AD0BA86A52324FC4B7A61CC9394BB56B","0198be24-2f6c-7c63-895a-b104b345bd8f","0198be1d-574a-752e-ae53-1d263a30e856","{""num_scrambled_semantic"":""8"",""num_scrambled_causal"":""4"",""num_scrambled_schematic"":""4"",""participantId"":""AD0BA86A52324FC4B7A61CC9394BB56B"",""assignmentId"":""0198be24-2f6c-7c63-895a-b104b345bd8f"",""projectId"":""0198be1d-574a-752e-ae53-1d263a30e856""}","https://test12345.live/?num_scrambled_semantic=8&num_scrambled_causal=4&num_scrambled_schematic=4&participantId=AD0BA86A52324FC4B7A61CC9394BB56B&assignmentId=0198be24-2f6c-7c63-895a-b104b345bd8f&projectId=0198be1d-574a-752e-ae53-1d263a30e856","AD0BA86A52324FC4B7A61CC9394BB56B-2025-08-18-17-51-11","","null","","images/causal_sequence/package_causal/package_causal_0.png","null","",""
"","","","","","image-button-response","57","762086","0.0-12.0-1.0-0.0","AD0BA86A52324FC4B7A61CC9394BB56B","AD0BA86A52324FC4B7A61CC9394BB56B","0198be24-2f6c-7c63-895a-b104b345bd8f","0198be1d-574a-752e-ae53-1d263a30e856","{""num_scrambled_semantic"":""8"",""num_scrambled_causal"":""4"",""num_scrambled_schematic"":""4"",""participantId"":""AD0BA86A52324FC4B7A61CC9394BB56B"",""assignmentId"":""0198be24-2f6c-7c63-895a-b104b345bd8f"",""projectId"":""0198be1d-574a-752e-ae53-1d263a30e856""}","https://test12345.live/?num_scrambled_semantic=8&num_scrambled_causal=4&num_scrambled_schematic=4&participantId=AD0BA86A52324FC4B7A61CC9394BB56B&assignmentId=0198be24-2f6c-7c63-895a-b104b345bd8f&projectId=0198be1d-574a-752e-ae53-1d263a30e856","AD0BA86A52324FC4B7A61CC9394BB56B-2025-08-18-17-51-11","","null","","images/causal_sequence/package_causal/package_causal_4.png","null","",""
"","","","","","image-button-response","58","764750","0.0-12.0-1.0-1.0","AD0BA86A52324FC4B7A61CC9394BB56B","AD0BA86A52324FC4B7A61CC9394BB56B","0198be24-2f6c-7c63-895a-b104b345bd8f","0198be1d-574a-752e-ae53-1d263a30e856","{""num_scrambled_semantic"":""8"",""num_scrambled_causal"":""4"",""num_scrambled_schematic"":""4"",""participantId"":""AD0BA86A52324FC4B7A61CC9394BB56B"",""assignmentId"":""0198be24-2f6c-7c63-895a-b104b345bd8f"",""projectId"":""0198be1d-574a-752e-ae53-1d263a30e856""}","https://test12345.live/?num_scrambled_semantic=8&num_scrambled_causal=4&num_scrambled_schematic=4&participantId=AD0BA86A52324FC4B7A61CC9394BB56B&assignmentId=0198be24-2f6c-7c63-895a-b104b345bd8f&projectId=0198be1d-574a-752e-ae53-1d263a30e856","AD0BA86A52324FC4B7A61CC9394BB56B-2025-08-18-17-51-11","","2660","","images/causal_sequence/package_causal/package_causal_4.png","1","",""
"","","","","","image-button-response","59","775558","0.0-12.0-1.0-2.0","AD0BA86A52324FC4B7A61CC9394BB56B","AD0BA86A52324FC4B7A61CC9394BB56B","0198be24-2f6c-7c63-895a-b104b345bd8f","0198be1d-574a-752e-ae53-1d263a30e856","{""num_scrambled_semantic"":""8"",""num_scrambled_causal"":""4"",""num_scrambled_schematic"":""4"",""participantId"":""AD0BA86A52324FC4B7A61CC9394BB56B"",""assignmentId"":""0198be24-2f6c-7c63-895a-b104b345bd8f"",""projectId"":""0198be1d-574a-752e-ae53-1d263a30e856""}","https://test12345.live/?num_scrambled_semantic=8&num_scrambled_causal=4&num_scrambled_schematic=4&participantId=AD0BA86A52324FC4B7A61CC9394BB56B&assignmentId=0198be24-2f6c-7c63-895a-b104b345bd8f&projectId=0198be1d-574a-752e-ae53-1d263a30e856","AD0BA86A52324FC4B7A61CC9394BB56B-2025-08-18-17-51-11","","null","","[]","null","",""
"","","","","","image-button-response","60","780070","0.0-12.0-1.0-0.1","AD0BA86A52324FC4B7A61CC9394BB56B","AD0BA86A52324FC4B7A61CC9394BB56B","0198be24-2f6c-7c63-895a-b104b345bd8f","0198be1d-574a-752e-ae53-1d263a30e856","{""num_scrambled_semantic"":""8"",""num_scrambled_causal"":""4"",""num_scrambled_schematic"":""4"",""participantId"":""AD0BA86A52324FC4B7A61CC9394BB56B"",""assignmentId"":""0198be24-2f6c-7c63-895a-b104b345bd8f"",""projectId"":""0198be1d-574a-752e-ae53-1d263a30e856""}","https://test12345.live/?num_scrambled_semantic=8&num_scrambled_causal=4&num_scrambled_schematic=4&participantId=AD0BA86A52324FC4B7A61CC9394BB56B&assignmentId=0198be24-2f6c-7c63-895a-b104b345bd8f&projectId=0198be1d-574a-752e-ae53-1d263a30e856","AD0BA86A52324FC4B7A61CC9394BB56B-2025-08-18-17-51-11","","null","","images/causal_sequence/package_causal/package_causal_8.png","null","",""
"","","","","","image-button-response","61","781167","0.0-12.0-1.0-1.1","AD0BA86A52324FC4B7A61CC9394BB56B","AD0BA86A52324FC4B7A61CC9394BB56B","0198be24-2f6c-7c63-895a-b104b345bd8f","0198be1d-574a-752e-ae53-1d263a30e856","{""num_scrambled_semantic"":""8"",""num_scrambled_causal"":""4"",""num_scrambled_schematic"":""4"",""participantId"":""AD0BA86A52324FC4B7A61CC9394BB56B"",""assignmentId"":""0198be24-2f6c-7c63-895a-b104b345bd8f"",""projectId"":""0198be1d-574a-752e-ae53-1d263a30e856""}","https://test12345.live/?num_scrambled_semantic=8&num_scrambled_causal=4&num_scrambled_schematic=4&participantId=AD0BA86A52324FC4B7A61CC9394BB56B&assignmentId=0198be24-2f6c-7c63-895a-b104b345bd8f&projectId=0198be1d-574a-752e-ae53-1d263a30e856","AD0BA86A52324FC4B7A61CC9394BB56B-2025-08-18-17-51-11","","1095","","images/causal_sequence/package_causal/package_causal_8.png","0","",""
"","","","","","image-button-response","62","791975","0.0-12.0-1.0-2.1","AD0BA86A52324FC4B7A61CC9394BB56B","AD0BA86A52324FC4B7A61CC9394BB56B","0198be24-2f6c-7c63-895a-b104b345bd8f","0198be1d-574a-752e-ae53-1d263a30e856","{""num_scrambled_semantic"":""8"",""num_scrambled_causal"":""4"",""num_scrambled_schematic"":""4"",""participantId"":""AD0BA86A52324FC4B7A61CC9394BB56B"",""assignmentId"":""0198be24-2f6c-7c63-895a-b104b345bd8f"",""projectId"":""0198be1d-574a-752e-ae53-1d263a30e856""}","https://test12345.live/?num_scrambled_semantic=8&num_scrambled_causal=4&num_scrambled_schematic=4&participantId=AD0BA86A52324FC4B7A61CC9394BB56B&assignmentId=0198be24-2f6c-7c63-895a-b104b345bd8f&projectId=0198be1d-574a-752e-ae53-1d263a30e856","AD0BA86A52324FC4B7A61CC9394BB56B-2025-08-18-17-51-11","","null","","[]","null","",""
"","","","","","image-button-response","63","796477","0.0-12.0-1.0-0.2","AD0BA86A52324FC4B7A61CC9394BB56B","AD0BA86A52324FC4B7A61CC9394BB56B","0198be24-2f6c-7c63-895a-b104b345bd8f","0198be1d-574a-752e-ae53-1d263a30e856","{""num_scrambled_semantic"":""8"",""num_scrambled_causal"":""4"",""num_scrambled_schematic"":""4"",""participantId"":""AD0BA86A52324FC4B7A61CC9394BB56B"",""assignmentId"":""0198be24-2f6c-7c63-895a-b104b345bd8f"",""projectId"":""0198be1d-574a-752e-ae53-1d263a30e856""}","https://test12345.live/?num_scrambled_semantic=8&num_scrambled_causal=4&num_scrambled_schematic=4&participantId=AD0BA86A52324FC4B7A61CC9394BB56B&assignmentId=0198be24-2f6c-7c63-895a-b104b345bd8f&projectId=0198be1d-574a-752e-ae53-1d263a30e856","AD0BA86A52324FC4B7A61CC9394BB56B-2025-08-18-17-51-11","","null","","images/causal_sequence/package_causal/package_causal_5.png","null","",""
"","","","","","image-button-response","64","797317","0.0-12.0-1.0-1.2","AD0BA86A52324FC4B7A61CC9394BB56B","AD0BA86A52324FC4B7A61CC9394BB56B","0198be24-2f6c-7c63-895a-b104b345bd8f","0198be1d-574a-752e-ae53-1d263a30e856","{""num_scrambled_semantic"":""8"",""num_scrambled_causal"":""4"",""num_scrambled_schematic"":""4"",""participantId"":""AD0BA86A52324FC4B7A61CC9394BB56B"",""assignmentId"":""0198be24-2f6c-7c63-895a-b104b345bd8f"",""projectId"":""0198be1d-574a-752e-ae53-1d263a30e856""}","https://test12345.live/?num_scrambled_semantic=8&num_scrambled_causal=4&num_scrambled_schematic=4&participantId=AD0BA86A52324FC4B7A61CC9394BB56B&assignmentId=0198be24-2f6c-7c63-895a-b104b345bd8f&projectId=0198be1d-574a-752e-ae53-1d263a30e856","AD0BA86A52324FC4B7A61CC9394BB56B-2025-08-18-17-51-11","","839","","images/causal_sequence/package_causal/package_causal_5.png","0","",""
"","","","","","image-button-response","65","808133","0.0-12.0-1.0-2.2","AD0BA86A52324FC4B7A61CC9394BB56B","AD0BA86A52324FC4B7A61CC9394BB56B","0198be24-2f6c-7c63-895a-b104b345bd8f","0198be1d-574a-752e-ae53-1d263a30e856","{""num_scrambled_semantic"":""8"",""num_scrambled_causal"":""4"",""num_scrambled_schematic"":""4"",""participantId"":""AD0BA86A52324FC4B7A61CC9394BB56B"",""assignmentId"":""0198be24-2f6c-7c63-895a-b104b345bd8f"",""projectId"":""0198be1d-574a-752e-ae53-1d263a30e856""}","https://test12345.live/?num_scrambled_semantic=8&num_scrambled_causal=4&num_scrambled_schematic=4&participantId=AD0BA86A52324FC4B7A61CC9394BB56B&assignmentId=0198be24-2f6c-7c63-895a-b104b345bd8f&projectId=0198be1d-574a-752e-ae53-1d263a30e856","AD0BA86A52324FC4B7A61CC9394BB56B-2025-08-18-17-51-11","","null","","[]","null","",""
"","","","","","image-button-response","66","812644","0.0-12.0-1.0-0.3","AD0BA86A52324FC4B7A61CC9394BB56B","AD0BA86A52324FC4B7A61CC9394BB56B","0198be24-2f6c-7c63-895a-b104b345bd8f","0198be1d-574a-752e-ae53-1d263a30e856","{""num_scrambled_semantic"":""8"",""num_scrambled_causal"":""4"",""num_scrambled_schematic"":""4"",""participantId"":""AD0BA86A52324FC4B7A61CC9394BB56B"",""assignmentId"":""0198be24-2f6c-7c63-895a-b104b345bd8f"",""projectId"":""0198be1d-574a-752e-ae53-1d263a30e856""}","https://test12345.live/?num_scrambled_semantic=8&num_scrambled_causal=4&num_scrambled_schematic=4&participantId=AD0BA86A52324FC4B7A61CC9394BB56B&assignmentId=0198be24-2f6c-7c63-895a-b104b345bd8f&projectId=0198be1d-574a-752e-ae53-1d263a30e856","AD0BA86A52324FC4B7A61CC9394BB56B-2025-08-18-17-51-11","","null","","images/causal_sequence/package_causal/package_causal_6.png","null","",""
"","","","","","image-button-response","67","813578","0.0-12.0-1.0-1.3","AD0BA86A52324FC4B7A61CC9394BB56B","AD0BA86A52324FC4B7A61CC9394BB56B","0198be24-2f6c-7c63-895a-b104b345bd8f","0198be1d-574a-752e-ae53-1d263a30e856","{""num_scrambled_semantic"":""8"",""num_scrambled_causal"":""4"",""num_scrambled_schematic"":""4"",""participantId"":""AD0BA86A52324FC4B7A61CC9394BB56B"",""assignmentId"":""0198be24-2f6c-7c63-895a-b104b345bd8f"",""projectId"":""0198be1d-574a-752e-ae53-1d263a30e856""}","https://test12345.live/?num_scrambled_semantic=8&num_scrambled_causal=4&num_scrambled_schematic=4&participantId=AD0BA86A52324FC4B7A61CC9394BB56B&assignmentId=0198be24-2f6c-7c63-895a-b104b345bd8f&projectId=0198be1d-574a-752e-ae53-1d263a30e856","AD0BA86A52324FC4B7A61CC9394BB56B-2025-08-18-17-51-11","","934","","images/causal_sequence/package_causal/package_causal_6.png","0","",""
"","","","","","image-button-response","68","824389","0.0-12.0-1.0-2.3","AD0BA86A52324FC4B7A61CC9394BB56B","AD0BA86A52324FC4B7A61CC9394BB56B","0198be24-2f6c-7c63-895a-b104b345bd8f","0198be1d-574a-752e-ae53-1d263a30e856","{""num_scrambled_semantic"":""8"",""num_scrambled_causal"":""4"",""num_scrambled_schematic"":""4"",""participantId"":""AD0BA86A52324FC4B7A61CC9394BB56B"",""assignmentId"":""0198be24-2f6c-7c63-895a-b104b345bd8f"",""projectId"":""0198be1d-574a-752e-ae53-1d263a30e856""}","https://test12345.live/?num_scrambled_semantic=8&num_scrambled_causal=4&num_scrambled_schematic=4&participantId=AD0BA86A52324FC4B7A61CC9394BB56B&assignmentId=0198be24-2f6c-7c63-895a-b104b345bd8f&projectId=0198be1d-574a-752e-ae53-1d263a30e856","AD0BA86A52324FC4B7A61CC9394BB56B-2025-08-18-17-51-11","","null","","[]","null","",""
"","","","","","image-button-response","69","828895","0.0-12.0-1.0-0.4","AD0BA86A52324FC4B7A61CC9394BB56B","AD0BA86A52324FC4B7A61CC9394BB56B","0198be24-2f6c-7c63-895a-b104b345bd8f","0198be1d-574a-752e-ae53-1d263a30e856","{""num_scrambled_semantic"":""8"",""num_scrambled_causal"":""4"",""num_scrambled_schematic"":""4"",""participantId"":""AD0BA86A52324FC4B7A61CC9394BB56B"",""assignmentId"":""0198be24-2f6c-7c63-895a-b104b345bd8f"",""projectId"":""0198be1d-574a-752e-ae53-1d263a30e856""}","https://test12345.live/?num_scrambled_semantic=8&num_scrambled_causal=4&num_scrambled_schematic=4&participantId=AD0BA86A52324FC4B7A61CC9394BB56B&assignmentId=0198be24-2f6c-7c63-895a-b104b345bd8f&projectId=0198be1d-574a-752e-ae53-1d263a30e856","AD0BA86A52324FC4B7A61CC9394BB56B-2025-08-18-17-51-11","","null","","images/causal_sequence/package_causal/package_causal_1.png","null","",""
"","","","","","image-button-response","70","829763","0.0-12.0-1.0-1.4","AD0BA86A52324FC4B7A61CC9394BB56B","AD0BA86A52324FC4B7A61CC9394BB56B","0198be24-2f6c-7c63-895a-b104b345bd8f","0198be1d-574a-752e-ae53-1d263a30e856","{""num_scrambled_semantic"":""8"",""num_scrambled_causal"":""4"",""num_scrambled_schematic"":""4"",""participantId"":""AD0BA86A52324FC4B7A61CC9394BB56B"",""assignmentId"":""0198be24-2f6c-7c63-895a-b104b345bd8f"",""projectId"":""0198be1d-574a-752e-ae53-1d263a30e856""}","https://test12345.live/?num_scrambled_semantic=8&num_scrambled_causal=4&num_scrambled_schematic=4&participantId=AD0BA86A52324FC4B7A61CC9394BB56B&assignmentId=0198be24-2f6c-7c63-895a-b104b345bd8f&projectId=0198be1d-574a-752e-ae53-1d263a30e856","AD0BA86A52324FC4B7A61CC9394BB56B-2025-08-18-17-51-11","","867","","images/causal_sequence/package_causal/package_causal_1.png","0","",""
"","","","","","image-button-response","71","840567","0.0-12.0-1.0-2.4","AD0BA86A52324FC4B7A61CC9394BB56B","AD0BA86A52324FC4B7A61CC9394BB56B","0198be24-2f6c-7c63-895a-b104b345bd8f","0198be1d-574a-752e-ae53-1d263a30e856","{""num_scrambled_semantic"":""8"",""num_scrambled_causal"":""4"",""num_scrambled_schematic"":""4"",""participantId"":""AD0BA86A52324FC4B7A61CC9394BB56B"",""assignmentId"":""0198be24-2f6c-7c63-895a-b104b345bd8f"",""projectId"":""0198be1d-574a-752e-ae53-1d263a30e856""}","https://test12345.live/?num_scrambled_semantic=8&num_scrambled_causal=4&num_scrambled_schematic=4&participantId=AD0BA86A52324FC4B7A61CC9394BB56B&assignmentId=0198be24-2f6c-7c63-895a-b104b345bd8f&projectId=0198be1d-574a-752e-ae53-1d263a30e856","AD0BA86A52324FC4B7A61CC9394BB56B-2025-08-18-17-51-11","","null","","[]","null","",""
"","","","","","image-button-response","72","845070","0.0-12.0-1.0-0.5","AD0BA86A52324FC4B7A61CC9394BB56B","AD0BA86A52324FC4B7A61CC9394BB56B","0198be24-2f6c-7c63-895a-b104b345bd8f","0198be1d-574a-752e-ae53-1d263a30e856","{""num_scrambled_semantic"":""8"",""num_scrambled_causal"":""4"",""num_scrambled_schematic"":""4"",""participantId"":""AD0BA86A52324FC4B7A61CC9394BB56B"",""assignmentId"":""0198be24-2f6c-7c63-895a-b104b345bd8f"",""projectId"":""0198be1d-574a-752e-ae53-1d263a30e856""}","https://test12345.live/?num_scrambled_semantic=8&num_scrambled_causal=4&num_scrambled_schematic=4&participantId=AD0BA86A52324FC4B7A61CC9394BB56B&assignmentId=0198be24-2f6c-7c63-895a-b104b345bd8f&projectId=0198be1d-574a-752e-ae53-1d263a30e856","AD0BA86A52324FC4B7A61CC9394BB56B-2025-08-18-17-51-11","","null","","images/causal_sequence/package_causal/package_causal_7.png","null","",""
"","","","","","image-button-response","73","845998","0.0-12.0-1.0-1.5","AD0BA86A52324FC4B7A61CC9394BB56B","AD0BA86A52324FC4B7A61CC9394BB56B","0198be24-2f6c-7c63-895a-b104b345bd8f","0198be1d-574a-752e-ae53-1d263a30e856","{""num_scrambled_semantic"":""8"",""num_scrambled_causal"":""4"",""num_scrambled_schematic"":""4"",""participantId"":""AD0BA86A52324FC4B7A61CC9394BB56B"",""assignmentId"":""0198be24-2f6c-7c63-895a-b104b345bd8f"",""projectId"":""0198be1d-574a-752e-ae53-1d263a30e856""}","https://test12345.live/?num_scrambled_semantic=8&num_scrambled_causal=4&num_scrambled_schematic=4&participantId=AD0BA86A52324FC4B7A61CC9394BB56B&assignmentId=0198be24-2f6c-7c63-895a-b104b345bd8f&projectId=0198be1d-574a-752e-ae53-1d263a30e856","AD0BA86A52324FC4B7A61CC9394BB56B-2025-08-18-17-51-11","","926","","images/causal_sequence/package_causal/package_causal_7.png","0","",""
"","","","","","image-button-response","74","856806","0.0-12.0-1.0-2.5","AD0BA86A52324FC4B7A61CC9394BB56B","AD0BA86A52324FC4B7A61CC9394BB56B","0198be24-2f6c-7c63-895a-b104b345bd8f","0198be1d-574a-752e-ae53-1d263a30e856","{""num_scrambled_semantic"":""8"",""num_scrambled_causal"":""4"",""num_scrambled_schematic"":""4"",""participantId"":""AD0BA86A52324FC4B7A61CC9394BB56B"",""assignmentId"":""0198be24-2f6c-7c63-895a-b104b345bd8f"",""projectId"":""0198be1d-574a-752e-ae53-1d263a30e856""}","https://test12345.live/?num_scrambled_semantic=8&num_scrambled_causal=4&num_scrambled_schematic=4&participantId=AD0BA86A52324FC4B7A61CC9394BB56B&assignmentId=0198be24-2f6c-7c63-895a-b104b345bd8f&projectId=0198be1d-574a-752e-ae53-1d263a30e856","AD0BA86A52324FC4B7A61CC9394BB56B-2025-08-18-17-51-11","","null","","[]","null","",""
"","","","","","image-button-response","75","861319","0.0-12.0-1.0-0.6","AD0BA86A52324FC4B7A61CC9394BB56B","AD0BA86A52324FC4B7A61CC9394BB56B","0198be24-2f6c-7c63-895a-b104b345bd8f","0198be1d-574a-752e-ae53-1d263a30e856","{""num_scrambled_semantic"":""8"",""num_scrambled_causal"":""4"",""num_scrambled_schematic"":""4"",""participantId"":""AD0BA86A52324FC4B7A61CC9394BB56B"",""assignmentId"":""0198be24-2f6c-7c63-895a-b104b345bd8f"",""projectId"":""0198be1d-574a-752e-ae53-1d263a30e856""}","https://test12345.live/?num_scrambled_semantic=8&num_scrambled_causal=4&num_scrambled_schematic=4&participantId=AD0BA86A52324FC4B7A61CC9394BB56B&assignmentId=0198be24-2f6c-7c63-895a-b104b345bd8f&projectId=0198be1d-574a-752e-ae53-1d263a30e856","AD0BA86A52324FC4B7A61CC9394BB56B-2025-08-18-17-51-11","","null","","images/causal_sequence/package_causal/package_causal_9.png","null","",""
"","","","","","image-button-response","76","862148","0.0-12.0-1.0-1.6","AD0BA86A52324FC4B7A61CC9394BB56B","AD0BA86A52324FC4B7A61CC9394BB56B","0198be24-2f6c-7c63-895a-b104b345bd8f","0198be1d-574a-752e-ae53-1d263a30e856","{""num_scrambled_semantic"":""8"",""num_scrambled_causal"":""4"",""num_scrambled_schematic"":""4"",""participantId"":""AD0BA86A52324FC4B7A61CC9394BB56B"",""assignmentId"":""0198be24-2f6c-7c63-895a-b104b345bd8f"",""projectId"":""0198be1d-574a-752e-ae53-1d263a30e856""}","https://test12345.live/?num_scrambled_semantic=8&num_scrambled_causal=4&num_scrambled_schematic=4&participantId=AD0BA86A52324FC4B7A61CC9394BB56B&assignmentId=0198be24-2f6c-7c63-895a-b104b345bd8f&projectId=0198be1d-574a-752e-ae53-1d263a30e856","AD0BA86A52324FC4B7A61CC9394BB56B-2025-08-18-17-51-11","","827","","images/causal_sequence/package_causal/package_causal_9.png","0","",""
"","","","","","image-button-response","77","872949","0.0-12.0-1.0-2.6","AD0BA86A52324FC4B7A61CC9394BB56B","AD0BA86A52324FC4B7A61CC9394BB56B","0198be24-2f6c-7c63-895a-b104b345bd8f","0198be1d-574a-752e-ae53-1d263a30e856","{""num_scrambled_semantic"":""8"",""num_scrambled_causal"":""4"",""num_scrambled_schematic"":""4"",""participantId"":""AD0BA86A52324FC4B7A61CC9394BB56B"",""assignmentId"":""0198be24-2f6c-7c63-895a-b104b345bd8f"",""projectId"":""0198be1d-574a-752e-ae53-1d263a30e856""}","https://test12345.live/?num_scrambled_semantic=8&num_scrambled_causal=4&num_scrambled_schematic=4&participantId=AD0BA86A52324FC4B7A61CC9394BB56B&assignmentId=0198be24-2f6c-7c63-895a-b104b345bd8f&projectId=0198be1d-574a-752e-ae53-1d263a30e856","AD0BA86A52324FC4B7A61CC9394BB56B-2025-08-18-17-51-11","","null","","[]","null","",""
"","","","","","image-button-response","78","877457","0.0-12.0-1.0-0.7","AD0BA86A52324FC4B7A61CC9394BB56B","AD0BA86A52324FC4B7A61CC9394BB56B","0198be24-2f6c-7c63-895a-b104b345bd8f","0198be1d-574a-752e-ae53-1d263a30e856","{""num_scrambled_semantic"":""8"",""num_scrambled_causal"":""4"",""num_scrambled_schematic"":""4"",""participantId"":""AD0BA86A52324FC4B7A61CC9394BB56B"",""assignmentId"":""0198be24-2f6c-7c63-895a-b104b345bd8f"",""projectId"":""0198be1d-574a-752e-ae53-1d263a30e856""}","https://test12345.live/?num_scrambled_semantic=8&num_scrambled_causal=4&num_scrambled_schematic=4&participantId=AD0BA86A52324FC4B7A61CC9394BB56B&assignmentId=0198be24-2f6c-7c63-895a-b104b345bd8f&projectId=0198be1d-574a-752e-ae53-1d263a30e856","AD0BA86A52324FC4B7A61CC9394BB56B-2025-08-18-17-51-11","","null","","images/causal_sequence/package_causal/package_causal_2.png","null","",""
"","","","","","image-button-response","79","880410","0.0-12.0-1.0-1.7","AD0BA86A52324FC4B7A61CC9394BB56B","AD0BA86A52324FC4B7A61CC9394BB56B","0198be24-2f6c-7c63-895a-b104b345bd8f","0198be1d-574a-752e-ae53-1d263a30e856","{""num_scrambled_semantic"":""8"",""num_scrambled_causal"":""4"",""num_scrambled_schematic"":""4"",""participantId"":""AD0BA86A52324FC4B7A61CC9394BB56B"",""assignmentId"":""0198be24-2f6c-7c63-895a-b104b345bd8f"",""projectId"":""0198be1d-574a-752e-ae53-1d263a30e856""}","https://test12345.live/?num_scrambled_semantic=8&num_scrambled_causal=4&num_scrambled_schematic=4&participantId=AD0BA86A52324FC4B7A61CC9394BB56B&assignmentId=0198be24-2f6c-7c63-895a-b104b345bd8f&projectId=0198be1d-574a-752e-ae53-1d263a30e856","AD0BA86A52324FC4B7A61CC9394BB56B-2025-08-18-17-51-11","","2951","","images/causal_sequence/package_causal/package_causal_2.png","0","",""
"","","","","","image-button-response","80","891214","0.0-12.0-1.0-2.7","AD0BA86A52324FC4B7A61CC9394BB56B","AD0BA86A52324FC4B7A61CC9394BB56B","0198be24-2f6c-7c63-895a-b104b345bd8f","0198be1d-574a-752e-ae53-1d263a30e856","{""num_scrambled_semantic"":""8"",""num_scrambled_causal"":""4"",""num_scrambled_schematic"":""4"",""participantId"":""AD0BA86A52324FC4B7A61CC9394BB56B"",""assignmentId"":""0198be24-2f6c-7c63-895a-b104b345bd8f"",""projectId"":""0198be1d-574a-752e-ae53-1d263a30e856""}","https://test12345.live/?num_scrambled_semantic=8&num_scrambled_causal=4&num_scrambled_schematic=4&participantId=AD0BA86A52324FC4B7A61CC9394BB56B&assignmentId=0198be24-2f6c-7c63-895a-b104b345bd8f&projectId=0198be1d-574a-752e-ae53-1d263a30e856","AD0BA86A52324FC4B7A61CC9394BB56B-2025-08-18-17-51-11","","null","","[]","null","",""
"","","","","","image-button-response","81","895726","0.0-12.0-1.0-0.8","AD0BA86A52324FC4B7A61CC9394BB56B","AD0BA86A52324FC4B7A61CC9394BB56B","0198be24-2f6c-7c63-895a-b104b345bd8f","0198be1d-574a-752e-ae53-1d263a30e856","{""num_scrambled_semantic"":""8"",""num_scrambled_causal"":""4"",""num_scrambled_schematic"":""4"",""participantId"":""AD0BA86A52324FC4B7A61CC9394BB56B"",""assignmentId"":""0198be24-2f6c-7c63-895a-b104b345bd8f"",""projectId"":""0198be1d-574a-752e-ae53-1d263a30e856""}","https://test12345.live/?num_scrambled_semantic=8&num_scrambled_causal=4&num_scrambled_schematic=4&participantId=AD0BA86A52324FC4B7A61CC9394BB56B&assignmentId=0198be24-2f6c-7c63-895a-b104b345bd8f&projectId=0198be1d-574a-752e-ae53-1d263a30e856","AD0BA86A52324FC4B7A61CC9394BB56B-2025-08-18-17-51-11","","null","","images/causal_sequence/package_causal/package_causal_3.png","null","",""
"","","","","","image-button-response","82","896456","0.0-12.0-1.0-1.8","AD0BA86A52324FC4B7A61CC9394BB56B","AD0BA86A52324FC4B7A61CC9394BB56B","0198be24-2f6c-7c63-895a-b104b345bd8f","0198be1d-574a-752e-ae53-1d263a30e856","{""num_scrambled_semantic"":""8"",""num_scrambled_causal"":""4"",""num_scrambled_schematic"":""4"",""participantId"":""AD0BA86A52324FC4B7A61CC9394BB56B"",""assignmentId"":""0198be24-2f6c-7c63-895a-b104b345bd8f"",""projectId"":""0198be1d-574a-752e-ae53-1d263a30e856""}","https://test12345.live/?num_scrambled_semantic=8&num_scrambled_causal=4&num_scrambled_schematic=4&participantId=AD0BA86A52324FC4B7A61CC9394BB56B&assignmentId=0198be24-2f6c-7c63-895a-b104b345bd8f&projectId=0198be1d-574a-752e-ae53-1d263a30e856","AD0BA86A52324FC4B7A61CC9394BB56B-2025-08-18-17-51-11","","729","","images/causal_sequence/package_causal/package_causal_3.png","0","",""
"","","","","","image-button-response","83","907261","0.0-12.0-1.0-2.8","AD0BA86A52324FC4B7A61CC9394BB56B","AD0BA86A52324FC4B7A61CC9394BB56B","0198be24-2f6c-7c63-895a-b104b345bd8f","0198be1d-574a-752e-ae53-1d263a30e856","{""num_scrambled_semantic"":""8"",""num_scrambled_causal"":""4"",""num_scrambled_schematic"":""4"",""participantId"":""AD0BA86A52324FC4B7A61CC9394BB56B"",""assignmentId"":""0198be24-2f6c-7c63-895a-b104b345bd8f"",""projectId"":""0198be1d-574a-752e-ae53-1d263a30e856""}","https://test12345.live/?num_scrambled_semantic=8&num_scrambled_causal=4&num_scrambled_schematic=4&participantId=AD0BA86A52324FC4B7A61CC9394BB56B&assignmentId=0198be24-2f6c-7c63-895a-b104b345bd8f&projectId=0198be1d-574a-752e-ae53-1d263a30e856","AD0BA86A52324FC4B7A61CC9394BB56B-2025-08-18-17-51-11","","null","","[]","null","",""
"","","","","","image-button-response","84","911762","0.0-12.0-1.0-0.9","AD0BA86A52324FC4B7A61CC9394BB56B","AD0BA86A52324FC4B7A61CC9394BB56B","0198be24-2f6c-7c63-895a-b104b345bd8f","0198be1d-574a-752e-ae53-1d263a30e856","{""num_scrambled_semantic"":""8"",""num_scrambled_causal"":""4"",""num_scrambled_schematic"":""4"",""participantId"":""AD0BA86A52324FC4B7A61CC9394BB56B"",""assignmentId"":""0198be24-2f6c-7c63-895a-b104b345bd8f"",""projectId"":""0198be1d-574a-752e-ae53-1d263a30e856""}","https://test12345.live/?num_scrambled_semantic=8&num_scrambled_causal=4&num_scrambled_schematic=4&participantId=AD0BA86A52324FC4B7A61CC9394BB56B&assignmentId=0198be24-2f6c-7c63-895a-b104b345bd8f&projectId=0198be1d-574a-752e-ae53-1d263a30e856","AD0BA86A52324FC4B7A61CC9394BB56B-2025-08-18-17-51-11","","null","","images/causal_sequence/package_causal/package_causal_ten.png","null","",""
"","","","","","image-button-response","85","912918","0.0-12.0-1.0-1.9","AD0BA86A52324FC4B7A61CC9394BB56B","AD0BA86A52324FC4B7A61CC9394BB56B","0198be24-2f6c-7c63-895a-b104b345bd8f","0198be1d-574a-752e-ae53-1d263a30e856","{""num_scrambled_semantic"":""8"",""num_scrambled_causal"":""4"",""num_scrambled_schematic"":""4"",""participantId"":""AD0BA86A52324FC4B7A61CC9394BB56B"",""assignmentId"":""0198be24-2f6c-7c63-895a-b104b345bd8f"",""projectId"":""0198be1d-574a-752e-ae53-1d263a30e856""}","https://test12345.live/?num_scrambled_semantic=8&num_scrambled_causal=4&num_scrambled_schematic=4&participantId=AD0BA86A52324FC4B7A61CC9394BB56B&assignmentId=0198be24-2f6c-7c63-895a-b104b345bd8f&projectId=0198be1d-574a-752e-ae53-1d263a30e856","AD0BA86A52324FC4B7A61CC9394BB56B-2025-08-18-17-51-11","","1155","","images/causal_sequence/package_causal/package_causal_ten.png","0","",""
"","","","","","image-button-response","86","923730","0.0-12.0-1.0-2.9","AD0BA86A52324FC4B7A61CC9394BB56B","AD0BA86A52324FC4B7A61CC9394BB56B","0198be24-2f6c-7c63-895a-b104b345bd8f","0198be1d-574a-752e-ae53-1d263a30e856","{""num_scrambled_semantic"":""8"",""num_scrambled_causal"":""4"",""num_scrambled_schematic"":""4"",""participantId"":""AD0BA86A52324FC4B7A61CC9394BB56B"",""assignmentId"":""0198be24-2f6c-7c63-895a-b104b345bd8f"",""projectId"":""0198be1d-574a-752e-ae53-1d263a30e856""}","https://test12345.live/?num_scrambled_semantic=8&num_scrambled_causal=4&num_scrambled_schematic=4&participantId=AD0BA86A52324FC4B7A61CC9394BB56B&assignmentId=0198be24-2f6c-7c63-895a-b104b345bd8f&projectId=0198be1d-574a-752e-ae53-1d263a30e856","AD0BA86A52324FC4B7A61CC9394BB56B-2025-08-18-17-51-11","","null","","[]","null","",""
"","","","","","html-audio-response","87","1039927","0.0-13.0","AD0BA86A52324FC4B7A61CC9394BB56B","AD0BA86A52324FC4B7A61CC9394BB56B","0198be24-2f6c-7c63-895a-b104b345bd8f","0198be1d-574a-752e-ae53-1d263a30e856","{""num_scrambled_semantic"":""8"",""num_scrambled_causal"":""4"",""num_scrambled_schematic"":""4"",""participantId"":""AD0BA86A52324FC4B7A61CC9394BB56B"",""assignmentId"":""0198be24-2f6c-7c63-895a-b104b345bd8f"",""projectId"":""0198be1d-574a-752e-ae53-1d263a30e856""}","https://test12345.live/?num_scrambled_semantic=8&num_scrambled_causal=4&num_scrambled_schematic=4&participantId=AD0BA86A52324FC4B7A61CC9394BB56B&assignmentId=0198be24-2f6c-7c63-895a-b104b345bd8f&projectId=0198be1d-574a-752e-ae53-1d263a30e856","AD0BA86A52324FC4B7A61CC9394BB56B-2025-08-18-17-51-11","","null","","[""<span style=\""color: red; font-size: 24px\""> NOW RECORDING</span><p>Please say out loud all the images you saw, in the exact order you saw them. Try to recall as many images as you can, but remember: getting the order right is more important than the number of images you recall.</p>""]","","1","package_causal"
"","","","","","image-button-response","88","1045939","0.0-14.0-0.0","AD0BA86A52324FC4B7A61CC9394BB56B","AD0BA86A52324FC4B7A61CC9394BB56B","0198be24-2f6c-7c63-895a-b104b345bd8f","0198be1d-574a-752e-ae53-1d263a30e856","{""num_scrambled_semantic"":""8"",""num_scrambled_causal"":""4"",""num_scrambled_schematic"":""4"",""participantId"":""AD0BA86A52324FC4B7A61CC9394BB56B"",""assignmentId"":""0198be24-2f6c-7c63-895a-b104b345bd8f"",""projectId"":""0198be1d-574a-752e-ae53-1d263a30e856""}","https://test12345.live/?num_scrambled_semantic=8&num_scrambled_causal=4&num_scrambled_schematic=4&participantId=AD0BA86A52324FC4B7A61CC9394BB56B&assignmentId=0198be24-2f6c-7c63-895a-b104b345bd8f&projectId=0198be1d-574a-752e-ae53-1d263a30e856","AD0BA86A52324FC4B7A61CC9394BB56B-2025-08-18-17-51-11","","null","","images/semantic_sequence/cat_care_semantic/cat_care_semantic_0.png","null","",""
"","","","","","image-button-response","89","1050451","0.0-14.0-1.0-0.0","AD0BA86A52324FC4B7A61CC9394BB56B","AD0BA86A52324FC4B7A61CC9394BB56B","0198be24-2f6c-7c63-895a-b104b345bd8f","0198be1d-574a-752e-ae53-1d263a30e856","{""num_scrambled_semantic"":""8"",""num_scrambled_causal"":""4"",""num_scrambled_schematic"":""4"",""participantId"":""AD0BA86A52324FC4B7A61CC9394BB56B"",""assignmentId"":""0198be24-2f6c-7c63-895a-b104b345bd8f"",""projectId"":""0198be1d-574a-752e-ae53-1d263a30e856""}","https://test12345.live/?num_scrambled_semantic=8&num_scrambled_causal=4&num_scrambled_schematic=4&participantId=AD0BA86A52324FC4B7A61CC9394BB56B&assignmentId=0198be24-2f6c-7c63-895a-b104b345bd8f&projectId=0198be1d-574a-752e-ae53-1d263a30e856","AD0BA86A52324FC4B7A61CC9394BB56B-2025-08-18-17-51-11","","null","","images/semantic_sequence/cat_care_semantic/cat_care_semantic_6.png","null","",""
"","","","","","image-button-response","90","1054459","0.0-14.0-1.0-1.0","AD0BA86A52324FC4B7A61CC9394BB56B","AD0BA86A52324FC4B7A61CC9394BB56B","0198be24-2f6c-7c63-895a-b104b345bd8f","0198be1d-574a-752e-ae53-1d263a30e856","{""num_scrambled_semantic"":""8"",""num_scrambled_causal"":""4"",""num_scrambled_schematic"":""4"",""participantId"":""AD0BA86A52324FC4B7A61CC9394BB56B"",""assignmentId"":""0198be24-2f6c-7c63-895a-b104b345bd8f"",""projectId"":""0198be1d-574a-752e-ae53-1d263a30e856""}","https://test12345.live/?num_scrambled_semantic=8&num_scrambled_causal=4&num_scrambled_schematic=4&participantId=AD0BA86A52324FC4B7A61CC9394BB56B&assignmentId=0198be24-2f6c-7c63-895a-b104b345bd8f&projectId=0198be1d-574a-752e-ae53-1d263a30e856","AD0BA86A52324FC4B7A61CC9394BB56B-2025-08-18-17-51-11","","null","","images/semantic_sequence/cat_care_semantic/cat_care_semantic_6.png","null","",""
"","","","","","image-button-response","91","1065267","0.0-14.0-1.0-2.0","AD0BA86A52324FC4B7A61CC9394BB56B","AD0BA86A52324FC4B7A61CC9394BB56B","0198be24-2f6c-7c63-895a-b104b345bd8f","0198be1d-574a-752e-ae53-1d263a30e856","{""num_scrambled_semantic"":""8"",""num_scrambled_causal"":""4"",""num_scrambled_schematic"":""4"",""participantId"":""AD0BA86A52324FC4B7A61CC9394BB56B"",""assignmentId"":""0198be24-2f6c-7c63-895a-b104b345bd8f"",""projectId"":""0198be1d-574a-752e-ae53-1d263a30e856""}","https://test12345.live/?num_scrambled_semantic=8&num_scrambled_causal=4&num_scrambled_schematic=4&participantId=AD0BA86A52324FC4B7A61CC9394BB56B&assignmentId=0198be24-2f6c-7c63-895a-b104b345bd8f&projectId=0198be1d-574a-752e-ae53-1d263a30e856","AD0BA86A52324FC4B7A61CC9394BB56B-2025-08-18-17-51-11","","null","","[]","null","",""
"","","","","","image-button-response","92","1069768","0.0-14.0-1.0-0.1","AD0BA86A52324FC4B7A61CC9394BB56B","AD0BA86A52324FC4B7A61CC9394BB56B","0198be24-2f6c-7c63-895a-b104b345bd8f","0198be1d-574a-752e-ae53-1d263a30e856","{""num_scrambled_semantic"":""8"",""num_scrambled_causal"":""4"",""num_scrambled_schematic"":""4"",""participantId"":""AD0BA86A52324FC4B7A61CC9394BB56B"",""assignmentId"":""0198be24-2f6c-7c63-895a-b104b345bd8f"",""projectId"":""0198be1d-574a-752e-ae53-1d263a30e856""}","https://test12345.live/?num_scrambled_semantic=8&num_scrambled_causal=4&num_scrambled_schematic=4&participantId=AD0BA86A52324FC4B7A61CC9394BB56B&assignmentId=0198be24-2f6c-7c63-895a-b104b345bd8f&projectId=0198be1d-574a-752e-ae53-1d263a30e856","AD0BA86A52324FC4B7A61CC9394BB56B-2025-08-18-17-51-11","","null","","images/semantic_sequence/cat_care_semantic/cat_care_semantic_3.png","null","",""
"","","","","","image-button-response","93","1070878","0.0-14.0-1.0-1.1","AD0BA86A52324FC4B7A61CC9394BB56B","AD0BA86A52324FC4B7A61CC9394BB56B","0198be24-2f6c-7c63-895a-b104b345bd8f","0198be1d-574a-752e-ae53-1d263a30e856","{""num_scrambled_semantic"":""8"",""num_scrambled_causal"":""4"",""num_scrambled_schematic"":""4"",""participantId"":""AD0BA86A52324FC4B7A61CC9394BB56B"",""assignmentId"":""0198be24-2f6c-7c63-895a-b104b345bd8f"",""projectId"":""0198be1d-574a-752e-ae53-1d263a30e856""}","https://test12345.live/?num_scrambled_semantic=8&num_scrambled_causal=4&num_scrambled_schematic=4&participantId=AD0BA86A52324FC4B7A61CC9394BB56B&assignmentId=0198be24-2f6c-7c63-895a-b104b345bd8f&projectId=0198be1d-574a-752e-ae53-1d263a30e856","AD0BA86A52324FC4B7A61CC9394BB56B-2025-08-18-17-51-11","","1109","","images/semantic_sequence/cat_care_semantic/cat_care_semantic_3.png","0","",""
"","","","","","image-button-response","94","1081689","0.0-14.0-1.0-2.1","AD0BA86A52324FC4B7A61CC9394BB56B","AD0BA86A52324FC4B7A61CC9394BB56B","0198be24-2f6c-7c63-895a-b104b345bd8f","0198be1d-574a-752e-ae53-1d263a30e856","{""num_scrambled_semantic"":""8"",""num_scrambled_causal"":""4"",""num_scrambled_schematic"":""4"",""participantId"":""AD0BA86A52324FC4B7A61CC9394BB56B"",""assignmentId"":""0198be24-2f6c-7c63-895a-b104b345bd8f"",""projectId"":""0198be1d-574a-752e-ae53-1d263a30e856""}","https://test12345.live/?num_scrambled_semantic=8&num_scrambled_causal=4&num_scrambled_schematic=4&participantId=AD0BA86A52324FC4B7A61CC9394BB56B&assignmentId=0198be24-2f6c-7c63-895a-b104b345bd8f&projectId=0198be1d-574a-752e-ae53-1d263a30e856","AD0BA86A52324FC4B7A61CC9394BB56B-2025-08-18-17-51-11","","null","","[]","null","",""
"","","","","","image-button-response","95","1086199","0.0-14.0-1.0-0.2","AD0BA86A52324FC4B7A61CC9394BB56B","AD0BA86A52324FC4B7A61CC9394BB56B","0198be24-2f6c-7c63-895a-b104b345bd8f","0198be1d-574a-752e-ae53-1d263a30e856","{""num_scrambled_semantic"":""8"",""num_scrambled_causal"":""4"",""num_scrambled_schematic"":""4"",""participantId"":""AD0BA86A52324FC4B7A61CC9394BB56B"",""assignmentId"":""0198be24-2f6c-7c63-895a-b104b345bd8f"",""projectId"":""0198be1d-574a-752e-ae53-1d263a30e856""}","https://test12345.live/?num_scrambled_semantic=8&num_scrambled_causal=4&num_scrambled_schematic=4&participantId=AD0BA86A52324FC4B7A61CC9394BB56B&assignmentId=0198be24-2f6c-7c63-895a-b104b345bd8f&projectId=0198be1d-574a-752e-ae53-1d263a30e856","AD0BA86A52324FC4B7A61CC9394BB56B-2025-08-18-17-51-11","","null","","images/semantic_sequence/cat_care_semantic/cat_care_semantic_ten.png","null","",""
"","","","","","image-button-response","96","1087076","0.0-14.0-1.0-1.2","AD0BA86A52324FC4B7A61CC9394BB56B","AD0BA86A52324FC4B7A61CC9394BB56B","0198be24-2f6c-7c63-895a-b104b345bd8f","0198be1d-574a-752e-ae53-1d263a30e856","{""num_scrambled_semantic"":""8"",""num_scrambled_causal"":""4"",""num_scrambled_schematic"":""4"",""participantId"":""AD0BA86A52324FC4B7A61CC9394BB56B"",""assignmentId"":""0198be24-2f6c-7c63-895a-b104b345bd8f"",""projectId"":""0198be1d-574a-752e-ae53-1d263a30e856""}","https://test12345.live/?num_scrambled_semantic=8&num_scrambled_causal=4&num_scrambled_schematic=4&participantId=AD0BA86A52324FC4B7A61CC9394BB56B&assignmentId=0198be24-2f6c-7c63-895a-b104b345bd8f&projectId=0198be1d-574a-752e-ae53-1d263a30e856","AD0BA86A52324FC4B7A61CC9394BB56B-2025-08-18-17-51-11","","876","","images/semantic_sequence/cat_care_semantic/cat_care_semantic_ten.png","1","",""
"","","","","","image-button-response","97","1097887","0.0-14.0-1.0-2.2","AD0BA86A52324FC4B7A61CC9394BB56B","AD0BA86A52324FC4B7A61CC9394BB56B","0198be24-2f6c-7c63-895a-b104b345bd8f","0198be1d-574a-752e-ae53-1d263a30e856","{""num_scrambled_semantic"":""8"",""num_scrambled_causal"":""4"",""num_scrambled_schematic"":""4"",""participantId"":""AD0BA86A52324FC4B7A61CC9394BB56B"",""assignmentId"":""0198be24-2f6c-7c63-895a-b104b345bd8f"",""projectId"":""0198be1d-574a-752e-ae53-1d263a30e856""}","https://test12345.live/?num_scrambled_semantic=8&num_scrambled_causal=4&num_scrambled_schematic=4&participantId=AD0BA86A52324FC4B7A61CC9394BB56B&assignmentId=0198be24-2f6c-7c63-895a-b104b345bd8f&projectId=0198be1d-574a-752e-ae53-1d263a30e856","AD0BA86A52324FC4B7A61CC9394BB56B-2025-08-18-17-51-11","","null","","[]","null","",""
"","","","","","image-button-response","98","1102395","0.0-14.0-1.0-0.3","AD0BA86A52324FC4B7A61CC9394BB56B","AD0BA86A52324FC4B7A61CC9394BB56B","0198be24-2f6c-7c63-895a-b104b345bd8f","0198be1d-574a-752e-ae53-1d263a30e856","{""num_scrambled_semantic"":""8"",""num_scrambled_causal"":""4"",""num_scrambled_schematic"":""4"",""participantId"":""AD0BA86A52324FC4B7A61CC9394BB56B"",""assignmentId"":""0198be24-2f6c-7c63-895a-b104b345bd8f"",""projectId"":""0198be1d-574a-752e-ae53-1d263a30e856""}","https://test12345.live/?num_scrambled_semantic=8&num_scrambled_causal=4&num_scrambled_schematic=4&participantId=AD0BA86A52324FC4B7A61CC9394BB56B&assignmentId=0198be24-2f6c-7c63-895a-b104b345bd8f&projectId=0198be1d-574a-752e-ae53-1d263a30e856","AD0BA86A52324FC4B7A61CC9394BB56B-2025-08-18-17-51-11","","null","","images/semantic_sequence/cat_care_semantic/cat_care_semantic_1.png","null","",""
"","","","","","image-button-response","99","1103021","0.0-14.0-1.0-1.3","AD0BA86A52324FC4B7A61CC9394BB56B","AD0BA86A52324FC4B7A61CC9394BB56B","0198be24-2f6c-7c63-895a-b104b345bd8f","0198be1d-574a-752e-ae53-1d263a30e856","{""num_scrambled_semantic"":""8"",""num_scrambled_causal"":""4"",""num_scrambled_schematic"":""4"",""participantId"":""AD0BA86A52324FC4B7A61CC9394BB56B"",""assignmentId"":""0198be24-2f6c-7c63-895a-b104b345bd8f"",""projectId"":""0198be1d-574a-752e-ae53-1d263a30e856""}","https://test12345.live/?num_scrambled_semantic=8&num_scrambled_causal=4&num_scrambled_schematic=4&participantId=AD0BA86A52324FC4B7A61CC9394BB56B&assignmentId=0198be24-2f6c-7c63-895a-b104b345bd8f&projectId=0198be1d-574a-752e-ae53-1d263a30e856","AD0BA86A52324FC4B7A61CC9394BB56B-2025-08-18-17-51-11","","625","","images/semantic_sequence/cat_care_semantic/cat_care_semantic_1.png","0","",""
"","","","","","image-button-response","100","1113833","0.0-14.0-1.0-2.3","AD0BA86A52324FC4B7A61CC9394BB56B","AD0BA86A52324FC4B7A61CC9394BB56B","0198be24-2f6c-7c63-895a-b104b345bd8f","0198be1d-574a-752e-ae53-1d263a30e856","{""num_scrambled_semantic"":""8"",""num_scrambled_causal"":""4"",""num_scrambled_schematic"":""4"",""participantId"":""AD0BA86A52324FC4B7A61CC9394BB56B"",""assignmentId"":""0198be24-2f6c-7c63-895a-b104b345bd8f"",""projectId"":""0198be1d-574a-752e-ae53-1d263a30e856""}","https://test12345.live/?num_scrambled_semantic=8&num_scrambled_causal=4&num_scrambled_schematic=4&participantId=AD0BA86A52324FC4B7A61CC9394BB56B&assignmentId=0198be24-2f6c-7c63-895a-b104b345bd8f&projectId=0198be1d-574a-752e-ae53-1d263a30e856","AD0BA86A52324FC4B7A61CC9394BB56B-2025-08-18-17-51-11","","null","","[]","null","",""
"","","","","","image-button-response","101","1118346","0.0-14.0-1.0-0.4","AD0BA86A52324FC4B7A61CC9394BB56B","AD0BA86A52324FC4B7A61CC9394BB56B","0198be24-2f6c-7c63-895a-b104b345bd8f","0198be1d-574a-752e-ae53-1d263a30e856","{""num_scrambled_semantic"":""8"",""num_scrambled_causal"":""4"",""num_scrambled_schematic"":""4"",""participantId"":""AD0BA86A52324FC4B7A61CC9394BB56B"",""assignmentId"":""0198be24-2f6c-7c63-895a-b104b345bd8f"",""projectId"":""0198be1d-574a-752e-ae53-1d263a30e856""}","https://test12345.live/?num_scrambled_semantic=8&num_scrambled_causal=4&num_scrambled_schematic=4&participantId=AD0BA86A52324FC4B7A61CC9394BB56B&assignmentId=0198be24-2f6c-7c63-895a-b104b345bd8f&projectId=0198be1d-574a-752e-ae53-1d263a30e856","AD0BA86A52324FC4B7A61CC9394BB56B-2025-08-18-17-51-11","","null","","images/semantic_sequence/cat_care_semantic/cat_care_semantic_7.png","null","",""
"","","","","","image-button-response","102","1119219","0.0-14.0-1.0-1.4","AD0BA86A52324FC4B7A61CC9394BB56B","AD0BA86A52324FC4B7A61CC9394BB56B","0198be24-2f6c-7c63-895a-b104b345bd8f","0198be1d-574a-752e-ae53-1d263a30e856","{""num_scrambled_semantic"":""8"",""num_scrambled_causal"":""4"",""num_scrambled_schematic"":""4"",""participantId"":""AD0BA86A52324FC4B7A61CC9394BB56B"",""assignmentId"":""0198be24-2f6c-7c63-895a-b104b345bd8f"",""projectId"":""0198be1d-574a-752e-ae53-1d263a30e856""}","https://test12345.live/?num_scrambled_semantic=8&num_scrambled_causal=4&num_scrambled_schematic=4&participantId=AD0BA86A52324FC4B7A61CC9394BB56B&assignmentId=0198be24-2f6c-7c63-895a-b104b345bd8f&projectId=0198be1d-574a-752e-ae53-1d263a30e856","AD0BA86A52324FC4B7A61CC9394BB56B-2025-08-18-17-51-11","","871","","images/semantic_sequence/cat_care_semantic/cat_care_semantic_7.png","0","",""
"","","","","","image-button-response","103","1130021","0.0-14.0-1.0-2.4","AD0BA86A52324FC4B7A61CC9394BB56B","AD0BA86A52324FC4B7A61CC9394BB56B","0198be24-2f6c-7c63-895a-b104b345bd8f","0198be1d-574a-752e-ae53-1d263a30e856","{""num_scrambled_semantic"":""8"",""num_scrambled_causal"":""4"",""num_scrambled_schematic"":""4"",""participantId"":""AD0BA86A52324FC4B7A61CC9394BB56B"",""assignmentId"":""0198be24-2f6c-7c63-895a-b104b345bd8f"",""projectId"":""0198be1d-574a-752e-ae53-1d263a30e856""}","https://test12345.live/?num_scrambled_semantic=8&num_scrambled_causal=4&num_scrambled_schematic=4&participantId=AD0BA86A52324FC4B7A61CC9394BB56B&assignmentId=0198be24-2f6c-7c63-895a-b104b345bd8f&projectId=0198be1d-574a-752e-ae53-1d263a30e856","AD0BA86A52324FC4B7A61CC9394BB56B-2025-08-18-17-51-11","","null","","[]","null","",""
"","","","","","image-button-response","104","1134523","0.0-14.0-1.0-0.5","AD0BA86A52324FC4B7A61CC9394BB56B","AD0BA86A52324FC4B7A61CC9394BB56B","0198be24-2f6c-7c63-895a-b104b345bd8f","0198be1d-574a-752e-ae53-1d263a30e856","{""num_scrambled_semantic"":""8"",""num_scrambled_causal"":""4"",""num_scrambled_schematic"":""4"",""participantId"":""AD0BA86A52324FC4B7A61CC9394BB56B"",""assignmentId"":""0198be24-2f6c-7c63-895a-b104b345bd8f"",""projectId"":""0198be1d-574a-752e-ae53-1d263a30e856""}","https://test12345.live/?num_scrambled_semantic=8&num_scrambled_causal=4&num_scrambled_schematic=4&participantId=AD0BA86A52324FC4B7A61CC9394BB56B&assignmentId=0198be24-2f6c-7c63-895a-b104b345bd8f&projectId=0198be1d-574a-752e-ae53-1d263a30e856","AD0BA86A52324FC4B7A61CC9394BB56B-2025-08-18-17-51-11","","null","","images/semantic_sequence/cat_care_semantic/cat_care_semantic_9.png","null","",""
"","","","","","image-button-response","105","1135739","0.0-14.0-1.0-1.5","AD0BA86A52324FC4B7A61CC9394BB56B","AD0BA86A52324FC4B7A61CC9394BB56B","0198be24-2f6c-7c63-895a-b104b345bd8f","0198be1d-574a-752e-ae53-1d263a30e856","{""num_scrambled_semantic"":""8"",""num_scrambled_causal"":""4"",""num_scrambled_schematic"":""4"",""participantId"":""AD0BA86A52324FC4B7A61CC9394BB56B"",""assignmentId"":""0198be24-2f6c-7c63-895a-b104b345bd8f"",""projectId"":""0198be1d-574a-752e-ae53-1d263a30e856""}","https://test12345.live/?num_scrambled_semantic=8&num_scrambled_causal=4&num_scrambled_schematic=4&participantId=AD0BA86A52324FC4B7A61CC9394BB56B&assignmentId=0198be24-2f6c-7c63-895a-b104b345bd8f&projectId=0198be1d-574a-752e-ae53-1d263a30e856","AD0BA86A52324FC4B7A61CC9394BB56B-2025-08-18-17-51-11","","1216","","images/semantic_sequence/cat_care_semantic/cat_care_semantic_9.png","0","",""
"","","","","","image-button-response","106","1146557","0.0-14.0-1.0-2.5","AD0BA86A52324FC4B7A61CC9394BB56B","AD0BA86A52324FC4B7A61CC9394BB56B","0198be24-2f6c-7c63-895a-b104b345bd8f","0198be1d-574a-752e-ae53-1d263a30e856","{""num_scrambled_semantic"":""8"",""num_scrambled_causal"":""4"",""num_scrambled_schematic"":""4"",""participantId"":""AD0BA86A52324FC4B7A61CC9394BB56B"",""assignmentId"":""0198be24-2f6c-7c63-895a-b104b345bd8f"",""projectId"":""0198be1d-574a-752e-ae53-1d263a30e856""}","https://test12345.live/?num_scrambled_semantic=8&num_scrambled_causal=4&num_scrambled_schematic=4&participantId=AD0BA86A52324FC4B7A61CC9394BB56B&assignmentId=0198be24-2f6c-7c63-895a-b104b345bd8f&projectId=0198be1d-574a-752e-ae53-1d263a30e856","AD0BA86A52324FC4B7A61CC9394BB56B-2025-08-18-17-51-11","","null","","[]","null","",""
"","","","","","image-button-response","107","1151069","0.0-14.0-1.0-0.6","AD0BA86A52324FC4B7A61CC9394BB56B","AD0BA86A52324FC4B7A61CC9394BB56B","0198be24-2f6c-7c63-895a-b104b345bd8f","0198be1d-574a-752e-ae53-1d263a30e856","{""num_scrambled_semantic"":""8"",""num_scrambled_causal"":""4"",""num_scrambled_schematic"":""4"",""participantId"":""AD0BA86A52324FC4B7A61CC9394BB56B"",""assignmentId"":""0198be24-2f6c-7c63-895a-b104b345bd8f"",""projectId"":""0198be1d-574a-752e-ae53-1d263a30e856""}","https://test12345.live/?num_scrambled_semantic=8&num_scrambled_causal=4&num_scrambled_schematic=4&participantId=AD0BA86A52324FC4B7A61CC9394BB56B&assignmentId=0198be24-2f6c-7c63-895a-b104b345bd8f&projectId=0198be1d-574a-752e-ae53-1d263a30e856","AD0BA86A52324FC4B7A61CC9394BB56B-2025-08-18-17-51-11","","null","","images/semantic_sequence/cat_care_semantic/cat_care_semantic_8.png","null","",""
"","","","","","image-button-response","108","1152142","0.0-14.0-1.0-1.6","AD0BA86A52324FC4B7A61CC9394BB56B","AD0BA86A52324FC4B7A61CC9394BB56B","0198be24-2f6c-7c63-895a-b104b345bd8f","0198be1d-574a-752e-ae53-1d263a30e856","{""num_scrambled_semantic"":""8"",""num_scrambled_causal"":""4"",""num_scrambled_schematic"":""4"",""participantId"":""AD0BA86A52324FC4B7A61CC9394BB56B"",""assignmentId"":""0198be24-2f6c-7c63-895a-b104b345bd8f"",""projectId"":""0198be1d-574a-752e-ae53-1d263a30e856""}","https://test12345.live/?num_scrambled_semantic=8&num_scrambled_causal=4&num_scrambled_schematic=4&participantId=AD0BA86A52324FC4B7A61CC9394BB56B&assignmentId=0198be24-2f6c-7c63-895a-b104b345bd8f&projectId=0198be1d-574a-752e-ae53-1d263a30e856","AD0BA86A52324FC4B7A61CC9394BB56B-2025-08-18-17-51-11","","1071","","images/semantic_sequence/cat_care_semantic/cat_care_semantic_8.png","0","",""
"","","","","","image-button-response","109","1162948","0.0-14.0-1.0-2.6","AD0BA86A52324FC4B7A61CC9394BB56B","AD0BA86A52324FC4B7A61CC9394BB56B","0198be24-2f6c-7c63-895a-b104b345bd8f","0198be1d-574a-752e-ae53-1d263a30e856","{""num_scrambled_semantic"":""8"",""num_scrambled_causal"":""4"",""num_scrambled_schematic"":""4"",""participantId"":""AD0BA86A52324FC4B7A61CC9394BB56B"",""assignmentId"":""0198be24-2f6c-7c63-895a-b104b345bd8f"",""projectId"":""0198be1d-574a-752e-ae53-1d263a30e856""}","https://test12345.live/?num_scrambled_semantic=8&num_scrambled_causal=4&num_scrambled_schematic=4&participantId=AD0BA86A52324FC4B7A61CC9394BB56B&assignmentId=0198be24-2f6c-7c63-895a-b104b345bd8f&projectId=0198be1d-574a-752e-ae53-1d263a30e856","AD0BA86A52324FC4B7A61CC9394BB56B-2025-08-18-17-51-11","","null","","[]","null","",""
"","","","","","image-button-response","110","1167460","0.0-14.0-1.0-0.7","AD0BA86A52324FC4B7A61CC9394BB56B","AD0BA86A52324FC4B7A61CC9394BB56B","0198be24-2f6c-7c63-895a-b104b345bd8f","0198be1d-574a-752e-ae53-1d263a30e856","{""num_scrambled_semantic"":""8"",""num_scrambled_causal"":""4"",""num_scrambled_schematic"":""4"",""participantId"":""AD0BA86A52324FC4B7A61CC9394BB56B"",""assignmentId"":""0198be24-2f6c-7c63-895a-b104b345bd8f"",""projectId"":""0198be1d-574a-752e-ae53-1d263a30e856""}","https://test12345.live/?num_scrambled_semantic=8&num_scrambled_causal=4&num_scrambled_schematic=4&participantId=AD0BA86A52324FC4B7A61CC9394BB56B&assignmentId=0198be24-2f6c-7c63-895a-b104b345bd8f&projectId=0198be1d-574a-752e-ae53-1d263a30e856","AD0BA86A52324FC4B7A61CC9394BB56B-2025-08-18-17-51-11","","null","","images/semantic_sequence/cat_care_semantic/cat_care_semantic_5.png","null","",""
"","","","","","image-button-response","111","1168934","0.0-14.0-1.0-1.7","AD0BA86A52324FC4B7A61CC9394BB56B","AD0BA86A52324FC4B7A61CC9394BB56B","0198be24-2f6c-7c63-895a-b104b345bd8f","0198be1d-574a-752e-ae53-1d263a30e856","{""num_scrambled_semantic"":""8"",""num_scrambled_causal"":""4"",""num_scrambled_schematic"":""4"",""participantId"":""AD0BA86A52324FC4B7A61CC9394BB56B"",""assignmentId"":""0198be24-2f6c-7c63-895a-b104b345bd8f"",""projectId"":""0198be1d-574a-752e-ae53-1d263a30e856""}","https://test12345.live/?num_scrambled_semantic=8&num_scrambled_causal=4&num_scrambled_schematic=4&participantId=AD0BA86A52324FC4B7A61CC9394BB56B&assignmentId=0198be24-2f6c-7c63-895a-b104b345bd8f&projectId=0198be1d-574a-752e-ae53-1d263a30e856","AD0BA86A52324FC4B7A61CC9394BB56B-2025-08-18-17-51-11","","1473","","images/semantic_sequence/cat_care_semantic/cat_care_semantic_5.png","0","",""
"","","","","","image-button-response","112","1179739","0.0-14.0-1.0-2.7","AD0BA86A52324FC4B7A61CC9394BB56B","AD0BA86A52324FC4B7A61CC9394BB56B","0198be24-2f6c-7c63-895a-b104b345bd8f","0198be1d-574a-752e-ae53-1d263a30e856","{""num_scrambled_semantic"":""8"",""num_scrambled_causal"":""4"",""num_scrambled_schematic"":""4"",""participantId"":""AD0BA86A52324FC4B7A61CC9394BB56B"",""assignmentId"":""0198be24-2f6c-7c63-895a-b104b345bd8f"",""projectId"":""0198be1d-574a-752e-ae53-1d263a30e856""}","https://test12345.live/?num_scrambled_semantic=8&num_scrambled_causal=4&num_scrambled_schematic=4&participantId=AD0BA86A52324FC4B7A61CC9394BB56B&assignmentId=0198be24-2f6c-7c63-895a-b104b345bd8f&projectId=0198be1d-574a-752e-ae53-1d263a30e856","AD0BA86A52324FC4B7A61CC9394BB56B-2025-08-18-17-51-11","","null","","[]","null","",""
"","","","","","image-button-response","113","1184243","0.0-14.0-1.0-0.8","AD0BA86A52324FC4B7A61CC9394BB56B","AD0BA86A52324FC4B7A61CC9394BB56B","0198be24-2f6c-7c63-895a-b104b345bd8f","0198be1d-574a-752e-ae53-1d263a30e856","{""num_scrambled_semantic"":""8"",""num_scrambled_causal"":""4"",""num_scrambled_schematic"":""4"",""participantId"":""AD0BA86A52324FC4B7A61CC9394BB56B"",""assignmentId"":""0198be24-2f6c-7c63-895a-b104b345bd8f"",""projectId"":""0198be1d-574a-752e-ae53-1d263a30e856""}","https://test12345.live/?num_scrambled_semantic=8&num_scrambled_causal=4&num_scrambled_schematic=4&participantId=AD0BA86A52324FC4B7A61CC9394BB56B&assignmentId=0198be24-2f6c-7c63-895a-b104b345bd8f&projectId=0198be1d-574a-752e-ae53-1d263a30e856","AD0BA86A52324FC4B7A61CC9394BB56B-2025-08-18-17-51-11","","null","","images/semantic_sequence/cat_care_semantic/cat_care_semantic_2.png","null","",""
"","","","","","image-button-response","114","1185143","0.0-14.0-1.0-1.8","AD0BA86A52324FC4B7A61CC9394BB56B","AD0BA86A52324FC4B7A61CC9394BB56B","0198be24-2f6c-7c63-895a-b104b345bd8f","0198be1d-574a-752e-ae53-1d263a30e856","{""num_scrambled_semantic"":""8"",""num_scrambled_causal"":""4"",""num_scrambled_schematic"":""4"",""participantId"":""AD0BA86A52324FC4B7A61CC9394BB56B"",""assignmentId"":""0198be24-2f6c-7c63-895a-b104b345bd8f"",""projectId"":""0198be1d-574a-752e-ae53-1d263a30e856""}","https://test12345.live/?num_scrambled_semantic=8&num_scrambled_causal=4&num_scrambled_schematic=4&participantId=AD0BA86A52324FC4B7A61CC9394BB56B&assignmentId=0198be24-2f6c-7c63-895a-b104b345bd8f&projectId=0198be1d-574a-752e-ae53-1d263a30e856","AD0BA86A52324FC4B7A61CC9394BB56B-2025-08-18-17-51-11","","899","","images/semantic_sequence/cat_care_semantic/cat_care_semantic_2.png","0","",""
