"success","timeout","failed_images","failed_audio","failed_video","trial_type","trial_index","time_elapsed","internal_node_id","subject","subject_id","study_id","session_id","urlvar","current_url","audio_id","view_history","rt","device_id","stimulus","response","estimated_stimulus_onset","seq_name"
"true","false","[]","[]","[]","preload","0","138688","0.0-0.0","ADE33812DFEE4679855302BB37ABFF84","ADE33812DFEE4679855302BB37ABFF84","0198ed2a-6fd3-7c91-b6a0-3555c47bbe09","0198ed26-a6a7-793d-982a-8940a71ab262","{""num_scrambled_semantic"":""8"",""num_scrambled_causal"":""4"",""num_scrambled_schematic"":""4"",""participantId"":""ADE33812DFEE4679855302BB37ABFF84"",""assignmentId"":""0198ed2a-6fd3-7c91-b6a0-3555c47bbe09"",""projectId"":""0198ed26-a6a7-793d-982a-8940a71ab262""}","https://test12345.live/?num_scrambled_semantic=8&num_scrambled_causal=4&num_scrambled_schematic=4&participantId=ADE33812DFEE4679855302BB37ABFF84&assignmentId=0198ed2a-6fd3-7c91-b6a0-3555c47bbe09&projectId=0198ed26-a6a7-793d-982a-8940a71ab262","ADE33812DFEE4679855302BB37ABFF84-2025-08-27-21-43-24","","","","","","",""
"","","","","","instructions","1","1529960","0.0-1.0","ADE33812DFEE4679855302BB37ABFF84","ADE33812DFEE4679855302BB37ABFF84","0198ed2a-6fd3-7c91-b6a0-3555c47bbe09","0198ed26-a6a7-793d-982a-8940a71ab262","{""num_scrambled_semantic"":""8"",""num_scrambled_causal"":""4"",""num_scrambled_schematic"":""4"",""participantId"":""ADE33812DFEE4679855302BB37ABFF84"",""assignmentId"":""0198ed2a-6fd3-7c91-b6a0-3555c47bbe09"",""projectId"":""0198ed26-a6a7-793d-982a-8940a71ab262""}","https://test12345.live/?num_scrambled_semantic=8&num_scrambled_causal=4&num_scrambled_schematic=4&participantId=ADE33812DFEE4679855302BB37ABFF84&assignmentId=0198ed2a-6fd3-7c91-b6a0-3555c47bbe09&projectId=0198ed26-a6a7-793d-982a-8940a71ab262","ADE33812DFEE4679855302BB37ABFF84-2025-08-27-21-43-24","[{""page_index"":0,""viewing_time"":1391267}]","1391269","","","","",""
"","","","","","instructions","2","1531589","0.0-2.0","ADE33812DFEE4679855302BB37ABFF84","ADE33812DFEE4679855302BB37ABFF84","0198ed2a-6fd3-7c91-b6a0-3555c47bbe09","0198ed26-a6a7-793d-982a-8940a71ab262","{""num_scrambled_semantic"":""8"",""num_scrambled_causal"":""4"",""num_scrambled_schematic"":""4"",""participantId"":""ADE33812DFEE4679855302BB37ABFF84"",""assignmentId"":""0198ed2a-6fd3-7c91-b6a0-3555c47bbe09"",""projectId"":""0198ed26-a6a7-793d-982a-8940a71ab262""}","https://test12345.live/?num_scrambled_semantic=8&num_scrambled_causal=4&num_scrambled_schematic=4&participantId=ADE33812DFEE4679855302BB37ABFF84&assignmentId=0198ed2a-6fd3-7c91-b6a0-3555c47bbe09&projectId=0198ed26-a6a7-793d-982a-8940a71ab262","ADE33812DFEE4679855302BB37ABFF84-2025-08-27-21-43-24","[{""page_index"":0,""viewing_time"":1628}]","1628","","","","",""
"true","","","","","fullscreen","3","1533731","0.0-3.0","ADE33812DFEE4679855302BB37ABFF84","ADE33812DFEE4679855302BB37ABFF84","0198ed2a-6fd3-7c91-b6a0-3555c47bbe09","0198ed26-a6a7-793d-982a-8940a71ab262","{""num_scrambled_semantic"":""8"",""num_scrambled_causal"":""4"",""num_scrambled_schematic"":""4"",""participantId"":""ADE33812DFEE4679855302BB37ABFF84"",""assignmentId"":""0198ed2a-6fd3-7c91-b6a0-3555c47bbe09"",""projectId"":""0198ed26-a6a7-793d-982a-8940a71ab262""}","https://test12345.live/?num_scrambled_semantic=8&num_scrambled_causal=4&num_scrambled_schematic=4&participantId=ADE33812DFEE4679855302BB37ABFF84&assignmentId=0198ed2a-6fd3-7c91-b6a0-3555c47bbe09&projectId=0198ed26-a6a7-793d-982a-8940a71ab262","ADE33812DFEE4679855302BB37ABFF84-2025-08-27-21-43-24","","1138","","","","",""
"","","","","","initialize-microphone","4","1709260","0.0-4.0-0.0","ADE33812DFEE4679855302BB37ABFF84","ADE33812DFEE4679855302BB37ABFF84","0198ed2a-6fd3-7c91-b6a0-3555c47bbe09","0198ed26-a6a7-793d-982a-8940a71ab262","{""num_scrambled_semantic"":""8"",""num_scrambled_causal"":""4"",""num_scrambled_schematic"":""4"",""participantId"":""ADE33812DFEE4679855302BB37ABFF84"",""assignmentId"":""0198ed2a-6fd3-7c91-b6a0-3555c47bbe09"",""projectId"":""0198ed26-a6a7-793d-982a-8940a71ab262""}","https://test12345.live/?num_scrambled_semantic=8&num_scrambled_causal=4&num_scrambled_schematic=4&participantId=ADE33812DFEE4679855302BB37ABFF84&assignmentId=0198ed2a-6fd3-7c91-b6a0-3555c47bbe09&projectId=0198ed26-a6a7-793d-982a-8940a71ab262","ADE33812DFEE4679855302BB37ABFF84-2025-08-27-21-43-24","","","f8d961f810e81f7061592104d927c559beb97ad682e5e49e27cc4fb9b66a7def","","","",""
"","","","","","html-audio-response","5","1735248","0.0-4.0-1.0","ADE33812DFEE4679855302BB37ABFF84","ADE33812DFEE4679855302BB37ABFF84","0198ed2a-6fd3-7c91-b6a0-3555c47bbe09","0198ed26-a6a7-793d-982a-8940a71ab262","{""num_scrambled_semantic"":""8"",""num_scrambled_causal"":""4"",""num_scrambled_schematic"":""4"",""participantId"":""ADE33812DFEE4679855302BB37ABFF84"",""assignmentId"":""0198ed2a-6fd3-7c91-b6a0-3555c47bbe09"",""projectId"":""0198ed26-a6a7-793d-982a-8940a71ab262""}","https://test12345.live/?num_scrambled_semantic=8&num_scrambled_causal=4&num_scrambled_schematic=4&participantId=ADE33812DFEE4679855302BB37ABFF84&assignmentId=0198ed2a-6fd3-7c91-b6a0-3555c47bbe09&projectId=0198ed26-a6a7-793d-982a-8940a71ab262","ADE33812DFEE4679855302BB37ABFF84-2025-08-27-21-43-24","","4951","","<span style=""color: red; font-size: 24px""> NOW RECORDING</span>
        <p>Please test Microphone</p>","","5",""
"","","","","","html-button-response","6","1737015","0.0-4.0-2.0","ADE33812DFEE4679855302BB37ABFF84","ADE33812DFEE4679855302BB37ABFF84","0198ed2a-6fd3-7c91-b6a0-3555c47bbe09","0198ed26-a6a7-793d-982a-8940a71ab262","{""num_scrambled_semantic"":""8"",""num_scrambled_causal"":""4"",""num_scrambled_schematic"":""4"",""participantId"":""ADE33812DFEE4679855302BB37ABFF84"",""assignmentId"":""0198ed2a-6fd3-7c91-b6a0-3555c47bbe09"",""projectId"":""0198ed26-a6a7-793d-982a-8940a71ab262""}","https://test12345.live/?num_scrambled_semantic=8&num_scrambled_causal=4&num_scrambled_schematic=4&participantId=ADE33812DFEE4679855302BB37ABFF84&assignmentId=0198ed2a-6fd3-7c91-b6a0-3555c47bbe09&projectId=0198ed26-a6a7-793d-982a-8940a71ab262","ADE33812DFEE4679855302BB37ABFF84-2025-08-27-21-43-24","","1765","","<p style=""font-size:48px; color:red;"">Is Microphone OK?</p>","1","",""
"","","","","","instructions","7","1753038","0.0-5.0","ADE33812DFEE4679855302BB37ABFF84","ADE33812DFEE4679855302BB37ABFF84","0198ed2a-6fd3-7c91-b6a0-3555c47bbe09","0198ed26-a6a7-793d-982a-8940a71ab262","{""num_scrambled_semantic"":""8"",""num_scrambled_causal"":""4"",""num_scrambled_schematic"":""4"",""participantId"":""ADE33812DFEE4679855302BB37ABFF84"",""assignmentId"":""0198ed2a-6fd3-7c91-b6a0-3555c47bbe09"",""projectId"":""0198ed26-a6a7-793d-982a-8940a71ab262""}","https://test12345.live/?num_scrambled_semantic=8&num_scrambled_causal=4&num_scrambled_schematic=4&participantId=ADE33812DFEE4679855302BB37ABFF84&assignmentId=0198ed2a-6fd3-7c91-b6a0-3555c47bbe09&projectId=0198ed26-a6a7-793d-982a-8940a71ab262","ADE33812DFEE4679855302BB37ABFF84-2025-08-27-21-43-24","[{""page_index"":0,""viewing_time"":3664},{""page_index"":1,""viewing_time"":12358}]","16022","","","","",""
"","","","","","image-button-response","8","1759054","0.0-6.0-0.0","ADE33812DFEE4679855302BB37ABFF84","ADE33812DFEE4679855302BB37ABFF84","0198ed2a-6fd3-7c91-b6a0-3555c47bbe09","0198ed26-a6a7-793d-982a-8940a71ab262","{""num_scrambled_semantic"":""8"",""num_scrambled_causal"":""4"",""num_scrambled_schematic"":""4"",""participantId"":""ADE33812DFEE4679855302BB37ABFF84"",""assignmentId"":""0198ed2a-6fd3-7c91-b6a0-3555c47bbe09"",""projectId"":""0198ed26-a6a7-793d-982a-8940a71ab262""}","https://test12345.live/?num_scrambled_semantic=8&num_scrambled_causal=4&num_scrambled_schematic=4&participantId=ADE33812DFEE4679855302BB37ABFF84&assignmentId=0198ed2a-6fd3-7c91-b6a0-3555c47bbe09&projectId=0198ed26-a6a7-793d-982a-8940a71ab262","ADE33812DFEE4679855302BB37ABFF84-2025-08-27-21-43-24","","null","","images/instructions/movie_0.png","null","",""
"","","","","","image-button-response","9","1763557","0.0-6.0-1.0-0.0","ADE33812DFEE4679855302BB37ABFF84","ADE33812DFEE4679855302BB37ABFF84","0198ed2a-6fd3-7c91-b6a0-3555c47bbe09","0198ed26-a6a7-793d-982a-8940a71ab262","{""num_scrambled_semantic"":""8"",""num_scrambled_causal"":""4"",""num_scrambled_schematic"":""4"",""participantId"":""ADE33812DFEE4679855302BB37ABFF84"",""assignmentId"":""0198ed2a-6fd3-7c91-b6a0-3555c47bbe09"",""projectId"":""0198ed26-a6a7-793d-982a-8940a71ab262""}","https://test12345.live/?num_scrambled_semantic=8&num_scrambled_causal=4&num_scrambled_schematic=4&participantId=ADE33812DFEE4679855302BB37ABFF84&assignmentId=0198ed2a-6fd3-7c91-b6a0-3555c47bbe09&projectId=0198ed26-a6a7-793d-982a-8940a71ab262","ADE33812DFEE4679855302BB37ABFF84-2025-08-27-21-43-24","","null","","images/instructions/movie_1.png","null","",""
"","","","","","image-button-response","10","1767565","0.0-6.0-1.0-1.0","ADE33812DFEE4679855302BB37ABFF84","ADE33812DFEE4679855302BB37ABFF84","0198ed2a-6fd3-7c91-b6a0-3555c47bbe09","0198ed26-a6a7-793d-982a-8940a71ab262","{""num_scrambled_semantic"":""8"",""num_scrambled_causal"":""4"",""num_scrambled_schematic"":""4"",""participantId"":""ADE33812DFEE4679855302BB37ABFF84"",""assignmentId"":""0198ed2a-6fd3-7c91-b6a0-3555c47bbe09"",""projectId"":""0198ed26-a6a7-793d-982a-8940a71ab262""}","https://test12345.live/?num_scrambled_semantic=8&num_scrambled_causal=4&num_scrambled_schematic=4&participantId=ADE33812DFEE4679855302BB37ABFF84&assignmentId=0198ed2a-6fd3-7c91-b6a0-3555c47bbe09&projectId=0198ed26-a6a7-793d-982a-8940a71ab262","ADE33812DFEE4679855302BB37ABFF84-2025-08-27-21-43-24","","null","","images/instructions/movie_1.png","null","",""
"","","","","","image-button-response","11","1769369","0.0-6.0-1.0-2.0","ADE33812DFEE4679855302BB37ABFF84","ADE33812DFEE4679855302BB37ABFF84","0198ed2a-6fd3-7c91-b6a0-3555c47bbe09","0198ed26-a6a7-793d-982a-8940a71ab262","{""num_scrambled_semantic"":""8"",""num_scrambled_causal"":""4"",""num_scrambled_schematic"":""4"",""participantId"":""ADE33812DFEE4679855302BB37ABFF84"",""assignmentId"":""0198ed2a-6fd3-7c91-b6a0-3555c47bbe09"",""projectId"":""0198ed26-a6a7-793d-982a-8940a71ab262""}","https://test12345.live/?num_scrambled_semantic=8&num_scrambled_causal=4&num_scrambled_schematic=4&participantId=ADE33812DFEE4679855302BB37ABFF84&assignmentId=0198ed2a-6fd3-7c91-b6a0-3555c47bbe09&projectId=0198ed26-a6a7-793d-982a-8940a71ab262","ADE33812DFEE4679855302BB37ABFF84-2025-08-27-21-43-24","","null","","[]","null","",""
"","","","","","image-button-response","12","1773878","0.0-6.0-1.0-0.1","ADE33812DFEE4679855302BB37ABFF84","ADE33812DFEE4679855302BB37ABFF84","0198ed2a-6fd3-7c91-b6a0-3555c47bbe09","0198ed26-a6a7-793d-982a-8940a71ab262","{""num_scrambled_semantic"":""8"",""num_scrambled_causal"":""4"",""num_scrambled_schematic"":""4"",""participantId"":""ADE33812DFEE4679855302BB37ABFF84"",""assignmentId"":""0198ed2a-6fd3-7c91-b6a0-3555c47bbe09"",""projectId"":""0198ed26-a6a7-793d-982a-8940a71ab262""}","https://test12345.live/?num_scrambled_semantic=8&num_scrambled_causal=4&num_scrambled_schematic=4&participantId=ADE33812DFEE4679855302BB37ABFF84&assignmentId=0198ed2a-6fd3-7c91-b6a0-3555c47bbe09&projectId=0198ed26-a6a7-793d-982a-8940a71ab262","ADE33812DFEE4679855302BB37ABFF84-2025-08-27-21-43-24","","null","","images/instructions/movie_2.png","null","",""
"","","","","","image-button-response","13","1777445","0.0-6.0-1.0-1.1","ADE33812DFEE4679855302BB37ABFF84","ADE33812DFEE4679855302BB37ABFF84","0198ed2a-6fd3-7c91-b6a0-3555c47bbe09","0198ed26-a6a7-793d-982a-8940a71ab262","{""num_scrambled_semantic"":""8"",""num_scrambled_causal"":""4"",""num_scrambled_schematic"":""4"",""participantId"":""ADE33812DFEE4679855302BB37ABFF84"",""assignmentId"":""0198ed2a-6fd3-7c91-b6a0-3555c47bbe09"",""projectId"":""0198ed26-a6a7-793d-982a-8940a71ab262""}","https://test12345.live/?num_scrambled_semantic=8&num_scrambled_causal=4&num_scrambled_schematic=4&participantId=ADE33812DFEE4679855302BB37ABFF84&assignmentId=0198ed2a-6fd3-7c91-b6a0-3555c47bbe09&projectId=0198ed26-a6a7-793d-982a-8940a71ab262","ADE33812DFEE4679855302BB37ABFF84-2025-08-27-21-43-24","","3566","","images/instructions/movie_2.png","1","",""
"","","","","","image-button-response","14","1779263","0.0-6.0-1.0-2.1","ADE33812DFEE4679855302BB37ABFF84","ADE33812DFEE4679855302BB37ABFF84","0198ed2a-6fd3-7c91-b6a0-3555c47bbe09","0198ed26-a6a7-793d-982a-8940a71ab262","{""num_scrambled_semantic"":""8"",""num_scrambled_causal"":""4"",""num_scrambled_schematic"":""4"",""participantId"":""ADE33812DFEE4679855302BB37ABFF84"",""assignmentId"":""0198ed2a-6fd3-7c91-b6a0-3555c47bbe09"",""projectId"":""0198ed26-a6a7-793d-982a-8940a71ab262""}","https://test12345.live/?num_scrambled_semantic=8&num_scrambled_causal=4&num_scrambled_schematic=4&participantId=ADE33812DFEE4679855302BB37ABFF84&assignmentId=0198ed2a-6fd3-7c91-b6a0-3555c47bbe09&projectId=0198ed26-a6a7-793d-982a-8940a71ab262","ADE33812DFEE4679855302BB37ABFF84-2025-08-27-21-43-24","","null","","[]","null","",""
"","","","","","image-button-response","15","1783772","0.0-6.0-1.0-0.2","ADE33812DFEE4679855302BB37ABFF84","ADE33812DFEE4679855302BB37ABFF84","0198ed2a-6fd3-7c91-b6a0-3555c47bbe09","0198ed26-a6a7-793d-982a-8940a71ab262","{""num_scrambled_semantic"":""8"",""num_scrambled_causal"":""4"",""num_scrambled_schematic"":""4"",""participantId"":""ADE33812DFEE4679855302BB37ABFF84"",""assignmentId"":""0198ed2a-6fd3-7c91-b6a0-3555c47bbe09"",""projectId"":""0198ed26-a6a7-793d-982a-8940a71ab262""}","https://test12345.live/?num_scrambled_semantic=8&num_scrambled_causal=4&num_scrambled_schematic=4&participantId=ADE33812DFEE4679855302BB37ABFF84&assignmentId=0198ed2a-6fd3-7c91-b6a0-3555c47bbe09&projectId=0198ed26-a6a7-793d-982a-8940a71ab262","ADE33812DFEE4679855302BB37ABFF84-2025-08-27-21-43-24","","null","","images/instructions/movie_3.png","null","",""
"","","","","","image-button-response","16","1785130","0.0-6.0-1.0-1.2","ADE33812DFEE4679855302BB37ABFF84","ADE33812DFEE4679855302BB37ABFF84","0198ed2a-6fd3-7c91-b6a0-3555c47bbe09","0198ed26-a6a7-793d-982a-8940a71ab262","{""num_scrambled_semantic"":""8"",""num_scrambled_causal"":""4"",""num_scrambled_schematic"":""4"",""participantId"":""ADE33812DFEE4679855302BB37ABFF84"",""assignmentId"":""0198ed2a-6fd3-7c91-b6a0-3555c47bbe09"",""projectId"":""0198ed26-a6a7-793d-982a-8940a71ab262""}","https://test12345.live/?num_scrambled_semantic=8&num_scrambled_causal=4&num_scrambled_schematic=4&participantId=ADE33812DFEE4679855302BB37ABFF84&assignmentId=0198ed2a-6fd3-7c91-b6a0-3555c47bbe09&projectId=0198ed26-a6a7-793d-982a-8940a71ab262","ADE33812DFEE4679855302BB37ABFF84-2025-08-27-21-43-24","","1357","","images/instructions/movie_3.png","0","",""
"","","","","","image-button-response","17","1786936","0.0-6.0-1.0-2.2","ADE33812DFEE4679855302BB37ABFF84","ADE33812DFEE4679855302BB37ABFF84","0198ed2a-6fd3-7c91-b6a0-3555c47bbe09","0198ed26-a6a7-793d-982a-8940a71ab262","{""num_scrambled_semantic"":""8"",""num_scrambled_causal"":""4"",""num_scrambled_schematic"":""4"",""participantId"":""ADE33812DFEE4679855302BB37ABFF84"",""assignmentId"":""0198ed2a-6fd3-7c91-b6a0-3555c47bbe09"",""projectId"":""0198ed26-a6a7-793d-982a-8940a71ab262""}","https://test12345.live/?num_scrambled_semantic=8&num_scrambled_causal=4&num_scrambled_schematic=4&participantId=ADE33812DFEE4679855302BB37ABFF84&assignmentId=0198ed2a-6fd3-7c91-b6a0-3555c47bbe09&projectId=0198ed26-a6a7-793d-982a-8940a71ab262","ADE33812DFEE4679855302BB37ABFF84-2025-08-27-21-43-24","","null","","[]","null","",""
"","","","","","image-button-response","18","1791444","0.0-6.0-1.0-0.3","ADE33812DFEE4679855302BB37ABFF84","ADE33812DFEE4679855302BB37ABFF84","0198ed2a-6fd3-7c91-b6a0-3555c47bbe09","0198ed26-a6a7-793d-982a-8940a71ab262","{""num_scrambled_semantic"":""8"",""num_scrambled_causal"":""4"",""num_scrambled_schematic"":""4"",""participantId"":""ADE33812DFEE4679855302BB37ABFF84"",""assignmentId"":""0198ed2a-6fd3-7c91-b6a0-3555c47bbe09"",""projectId"":""0198ed26-a6a7-793d-982a-8940a71ab262""}","https://test12345.live/?num_scrambled_semantic=8&num_scrambled_causal=4&num_scrambled_schematic=4&participantId=ADE33812DFEE4679855302BB37ABFF84&assignmentId=0198ed2a-6fd3-7c91-b6a0-3555c47bbe09&projectId=0198ed26-a6a7-793d-982a-8940a71ab262","ADE33812DFEE4679855302BB37ABFF84-2025-08-27-21-43-24","","null","","images/instructions/movie_4.png","null","",""
"","","","","","image-button-response","19","1792788","0.0-6.0-1.0-1.3","ADE33812DFEE4679855302BB37ABFF84","ADE33812DFEE4679855302BB37ABFF84","0198ed2a-6fd3-7c91-b6a0-3555c47bbe09","0198ed26-a6a7-793d-982a-8940a71ab262","{""num_scrambled_semantic"":""8"",""num_scrambled_causal"":""4"",""num_scrambled_schematic"":""4"",""participantId"":""ADE33812DFEE4679855302BB37ABFF84"",""assignmentId"":""0198ed2a-6fd3-7c91-b6a0-3555c47bbe09"",""projectId"":""0198ed26-a6a7-793d-982a-8940a71ab262""}","https://test12345.live/?num_scrambled_semantic=8&num_scrambled_causal=4&num_scrambled_schematic=4&participantId=ADE33812DFEE4679855302BB37ABFF84&assignmentId=0198ed2a-6fd3-7c91-b6a0-3555c47bbe09&projectId=0198ed26-a6a7-793d-982a-8940a71ab262","ADE33812DFEE4679855302BB37ABFF84-2025-08-27-21-43-24","","1343","","images/instructions/movie_4.png","0","",""
"","","","","","image-button-response","20","1794604","0.0-6.0-1.0-2.3","ADE33812DFEE4679855302BB37ABFF84","ADE33812DFEE4679855302BB37ABFF84","0198ed2a-6fd3-7c91-b6a0-3555c47bbe09","0198ed26-a6a7-793d-982a-8940a71ab262","{""num_scrambled_semantic"":""8"",""num_scrambled_causal"":""4"",""num_scrambled_schematic"":""4"",""participantId"":""ADE33812DFEE4679855302BB37ABFF84"",""assignmentId"":""0198ed2a-6fd3-7c91-b6a0-3555c47bbe09"",""projectId"":""0198ed26-a6a7-793d-982a-8940a71ab262""}","https://test12345.live/?num_scrambled_semantic=8&num_scrambled_causal=4&num_scrambled_schematic=4&participantId=ADE33812DFEE4679855302BB37ABFF84&assignmentId=0198ed2a-6fd3-7c91-b6a0-3555c47bbe09&projectId=0198ed26-a6a7-793d-982a-8940a71ab262","ADE33812DFEE4679855302BB37ABFF84-2025-08-27-21-43-24","","null","","[]","null","",""
"","","","","","instructions","21","1802678","0.0-7.0","ADE33812DFEE4679855302BB37ABFF84","ADE33812DFEE4679855302BB37ABFF84","0198ed2a-6fd3-7c91-b6a0-3555c47bbe09","0198ed26-a6a7-793d-982a-8940a71ab262","{""num_scrambled_semantic"":""8"",""num_scrambled_causal"":""4"",""num_scrambled_schematic"":""4"",""participantId"":""ADE33812DFEE4679855302BB37ABFF84"",""assignmentId"":""0198ed2a-6fd3-7c91-b6a0-3555c47bbe09"",""projectId"":""0198ed26-a6a7-793d-982a-8940a71ab262""}","https://test12345.live/?num_scrambled_semantic=8&num_scrambled_causal=4&num_scrambled_schematic=4&participantId=ADE33812DFEE4679855302BB37ABFF84&assignmentId=0198ed2a-6fd3-7c91-b6a0-3555c47bbe09&projectId=0198ed26-a6a7-793d-982a-8940a71ab262","ADE33812DFEE4679855302BB37ABFF84-2025-08-27-21-43-24","[{""page_index"":0,""viewing_time"":8073}]","8074","","","","",""
"","","","","","html-audio-response","22","1851208","0.0-8.0","ADE33812DFEE4679855302BB37ABFF84","ADE33812DFEE4679855302BB37ABFF84","0198ed2a-6fd3-7c91-b6a0-3555c47bbe09","0198ed26-a6a7-793d-982a-8940a71ab262","{""num_scrambled_semantic"":""8"",""num_scrambled_causal"":""4"",""num_scrambled_schematic"":""4"",""participantId"":""ADE33812DFEE4679855302BB37ABFF84"",""assignmentId"":""0198ed2a-6fd3-7c91-b6a0-3555c47bbe09"",""projectId"":""0198ed26-a6a7-793d-982a-8940a71ab262""}","https://test12345.live/?num_scrambled_semantic=8&num_scrambled_causal=4&num_scrambled_schematic=4&participantId=ADE33812DFEE4679855302BB37ABFF84&assignmentId=0198ed2a-6fd3-7c91-b6a0-3555c47bbe09&projectId=0198ed26-a6a7-793d-982a-8940a71ab262","ADE33812DFEE4679855302BB37ABFF84-2025-08-27-21-43-24","","21678","","[""<span style=\""color: red; font-size: 24px\""> NOW RECORDING</span><p>Please say out loud all the images you saw, in the order of the story they create. Try to recall the sequence of events as they appeared in the story, not necessarily the order they were presented on the screen.</p>""]","","1",""
"","","","","","instructions","23","1852600","0.0-9.0","ADE33812DFEE4679855302BB37ABFF84","ADE33812DFEE4679855302BB37ABFF84","0198ed2a-6fd3-7c91-b6a0-3555c47bbe09","0198ed26-a6a7-793d-982a-8940a71ab262","{""num_scrambled_semantic"":""8"",""num_scrambled_causal"":""4"",""num_scrambled_schematic"":""4"",""participantId"":""ADE33812DFEE4679855302BB37ABFF84"",""assignmentId"":""0198ed2a-6fd3-7c91-b6a0-3555c47bbe09"",""projectId"":""0198ed26-a6a7-793d-982a-8940a71ab262""}","https://test12345.live/?num_scrambled_semantic=8&num_scrambled_causal=4&num_scrambled_schematic=4&participantId=ADE33812DFEE4679855302BB37ABFF84&assignmentId=0198ed2a-6fd3-7c91-b6a0-3555c47bbe09&projectId=0198ed26-a6a7-793d-982a-8940a71ab262","ADE33812DFEE4679855302BB37ABFF84-2025-08-27-21-43-24","[{""page_index"":0,""viewing_time"":1383}]","1383","","","","",""
"","","","","","image-button-response","24","1858605","0.0-10.0-0.0","ADE33812DFEE4679855302BB37ABFF84","ADE33812DFEE4679855302BB37ABFF84","0198ed2a-6fd3-7c91-b6a0-3555c47bbe09","0198ed26-a6a7-793d-982a-8940a71ab262","{""num_scrambled_semantic"":""8"",""num_scrambled_causal"":""4"",""num_scrambled_schematic"":""4"",""participantId"":""ADE33812DFEE4679855302BB37ABFF84"",""assignmentId"":""0198ed2a-6fd3-7c91-b6a0-3555c47bbe09"",""projectId"":""0198ed26-a6a7-793d-982a-8940a71ab262""}","https://test12345.live/?num_scrambled_semantic=8&num_scrambled_causal=4&num_scrambled_schematic=4&participantId=ADE33812DFEE4679855302BB37ABFF84&assignmentId=0198ed2a-6fd3-7c91-b6a0-3555c47bbe09&projectId=0198ed26-a6a7-793d-982a-8940a71ab262","ADE33812DFEE4679855302BB37ABFF84-2025-08-27-21-43-24","","null","","images/schematic_sequence/supermarket_scheme/supermarket_scheme_0.png","null","",""
"","","","","","image-button-response","25","1863121","0.0-10.0-1.0-0.0","ADE33812DFEE4679855302BB37ABFF84","ADE33812DFEE4679855302BB37ABFF84","0198ed2a-6fd3-7c91-b6a0-3555c47bbe09","0198ed26-a6a7-793d-982a-8940a71ab262","{""num_scrambled_semantic"":""8"",""num_scrambled_causal"":""4"",""num_scrambled_schematic"":""4"",""participantId"":""ADE33812DFEE4679855302BB37ABFF84"",""assignmentId"":""0198ed2a-6fd3-7c91-b6a0-3555c47bbe09"",""projectId"":""0198ed26-a6a7-793d-982a-8940a71ab262""}","https://test12345.live/?num_scrambled_semantic=8&num_scrambled_causal=4&num_scrambled_schematic=4&participantId=ADE33812DFEE4679855302BB37ABFF84&assignmentId=0198ed2a-6fd3-7c91-b6a0-3555c47bbe09&projectId=0198ed26-a6a7-793d-982a-8940a71ab262","ADE33812DFEE4679855302BB37ABFF84-2025-08-27-21-43-24","","null","","images/schematic_sequence/supermarket_scheme/supermarket_scheme_6.png","null","",""
"","","","","","image-button-response","26","1864367","0.0-10.0-1.0-1.0","ADE33812DFEE4679855302BB37ABFF84","ADE33812DFEE4679855302BB37ABFF84","0198ed2a-6fd3-7c91-b6a0-3555c47bbe09","0198ed26-a6a7-793d-982a-8940a71ab262","{""num_scrambled_semantic"":""8"",""num_scrambled_causal"":""4"",""num_scrambled_schematic"":""4"",""participantId"":""ADE33812DFEE4679855302BB37ABFF84"",""assignmentId"":""0198ed2a-6fd3-7c91-b6a0-3555c47bbe09"",""projectId"":""0198ed26-a6a7-793d-982a-8940a71ab262""}","https://test12345.live/?num_scrambled_semantic=8&num_scrambled_causal=4&num_scrambled_schematic=4&participantId=ADE33812DFEE4679855302BB37ABFF84&assignmentId=0198ed2a-6fd3-7c91-b6a0-3555c47bbe09&projectId=0198ed26-a6a7-793d-982a-8940a71ab262","ADE33812DFEE4679855302BB37ABFF84-2025-08-27-21-43-24","","1245","","images/schematic_sequence/supermarket_scheme/supermarket_scheme_6.png","0","",""
"","","","","","image-button-response","27","1866172","0.0-10.0-1.0-2.0","ADE33812DFEE4679855302BB37ABFF84","ADE33812DFEE4679855302BB37ABFF84","0198ed2a-6fd3-7c91-b6a0-3555c47bbe09","0198ed26-a6a7-793d-982a-8940a71ab262","{""num_scrambled_semantic"":""8"",""num_scrambled_causal"":""4"",""num_scrambled_schematic"":""4"",""participantId"":""ADE33812DFEE4679855302BB37ABFF84"",""assignmentId"":""0198ed2a-6fd3-7c91-b6a0-3555c47bbe09"",""projectId"":""0198ed26-a6a7-793d-982a-8940a71ab262""}","https://test12345.live/?num_scrambled_semantic=8&num_scrambled_causal=4&num_scrambled_schematic=4&participantId=ADE33812DFEE4679855302BB37ABFF84&assignmentId=0198ed2a-6fd3-7c91-b6a0-3555c47bbe09&projectId=0198ed26-a6a7-793d-982a-8940a71ab262","ADE33812DFEE4679855302BB37ABFF84-2025-08-27-21-43-24","","null","","[]","null","",""
"","","","","","image-button-response","28","1870680","0.0-10.0-1.0-0.1","ADE33812DFEE4679855302BB37ABFF84","ADE33812DFEE4679855302BB37ABFF84","0198ed2a-6fd3-7c91-b6a0-3555c47bbe09","0198ed26-a6a7-793d-982a-8940a71ab262","{""num_scrambled_semantic"":""8"",""num_scrambled_causal"":""4"",""num_scrambled_schematic"":""4"",""participantId"":""ADE33812DFEE4679855302BB37ABFF84"",""assignmentId"":""0198ed2a-6fd3-7c91-b6a0-3555c47bbe09"",""projectId"":""0198ed26-a6a7-793d-982a-8940a71ab262""}","https://test12345.live/?num_scrambled_semantic=8&num_scrambled_causal=4&num_scrambled_schematic=4&participantId=ADE33812DFEE4679855302BB37ABFF84&assignmentId=0198ed2a-6fd3-7c91-b6a0-3555c47bbe09&projectId=0198ed26-a6a7-793d-982a-8940a71ab262","ADE33812DFEE4679855302BB37ABFF84-2025-08-27-21-43-24","","null","","images/schematic_sequence/supermarket_scheme/supermarket_scheme_1.png","null","",""
"","","","","","image-button-response","29","1872478","0.0-10.0-1.0-1.1","ADE33812DFEE4679855302BB37ABFF84","ADE33812DFEE4679855302BB37ABFF84","0198ed2a-6fd3-7c91-b6a0-3555c47bbe09","0198ed26-a6a7-793d-982a-8940a71ab262","{""num_scrambled_semantic"":""8"",""num_scrambled_causal"":""4"",""num_scrambled_schematic"":""4"",""participantId"":""ADE33812DFEE4679855302BB37ABFF84"",""assignmentId"":""0198ed2a-6fd3-7c91-b6a0-3555c47bbe09"",""projectId"":""0198ed26-a6a7-793d-982a-8940a71ab262""}","https://test12345.live/?num_scrambled_semantic=8&num_scrambled_causal=4&num_scrambled_schematic=4&participantId=ADE33812DFEE4679855302BB37ABFF84&assignmentId=0198ed2a-6fd3-7c91-b6a0-3555c47bbe09&projectId=0198ed26-a6a7-793d-982a-8940a71ab262","ADE33812DFEE4679855302BB37ABFF84-2025-08-27-21-43-24","","1797","","images/schematic_sequence/supermarket_scheme/supermarket_scheme_1.png","1","",""
"","","","","","image-button-response","30","1874294","0.0-10.0-1.0-2.1","ADE33812DFEE4679855302BB37ABFF84","ADE33812DFEE4679855302BB37ABFF84","0198ed2a-6fd3-7c91-b6a0-3555c47bbe09","0198ed26-a6a7-793d-982a-8940a71ab262","{""num_scrambled_semantic"":""8"",""num_scrambled_causal"":""4"",""num_scrambled_schematic"":""4"",""participantId"":""ADE33812DFEE4679855302BB37ABFF84"",""assignmentId"":""0198ed2a-6fd3-7c91-b6a0-3555c47bbe09"",""projectId"":""0198ed26-a6a7-793d-982a-8940a71ab262""}","https://test12345.live/?num_scrambled_semantic=8&num_scrambled_causal=4&num_scrambled_schematic=4&participantId=ADE33812DFEE4679855302BB37ABFF84&assignmentId=0198ed2a-6fd3-7c91-b6a0-3555c47bbe09&projectId=0198ed26-a6a7-793d-982a-8940a71ab262","ADE33812DFEE4679855302BB37ABFF84-2025-08-27-21-43-24","","null","","[]","null","",""
"","","","","","image-button-response","31","1878800","0.0-10.0-1.0-0.2","ADE33812DFEE4679855302BB37ABFF84","ADE33812DFEE4679855302BB37ABFF84","0198ed2a-6fd3-7c91-b6a0-3555c47bbe09","0198ed26-a6a7-793d-982a-8940a71ab262","{""num_scrambled_semantic"":""8"",""num_scrambled_causal"":""4"",""num_scrambled_schematic"":""4"",""participantId"":""ADE33812DFEE4679855302BB37ABFF84"",""assignmentId"":""0198ed2a-6fd3-7c91-b6a0-3555c47bbe09"",""projectId"":""0198ed26-a6a7-793d-982a-8940a71ab262""}","https://test12345.live/?num_scrambled_semantic=8&num_scrambled_causal=4&num_scrambled_schematic=4&participantId=ADE33812DFEE4679855302BB37ABFF84&assignmentId=0198ed2a-6fd3-7c91-b6a0-3555c47bbe09&projectId=0198ed26-a6a7-793d-982a-8940a71ab262","ADE33812DFEE4679855302BB37ABFF84-2025-08-27-21-43-24","","null","","images/schematic_sequence/supermarket_scheme/supermarket_scheme_5.png","null","",""
"","","","","","image-button-response","32","1879828","0.0-10.0-1.0-1.2","ADE33812DFEE4679855302BB37ABFF84","ADE33812DFEE4679855302BB37ABFF84","0198ed2a-6fd3-7c91-b6a0-3555c47bbe09","0198ed26-a6a7-793d-982a-8940a71ab262","{""num_scrambled_semantic"":""8"",""num_scrambled_causal"":""4"",""num_scrambled_schematic"":""4"",""participantId"":""ADE33812DFEE4679855302BB37ABFF84"",""assignmentId"":""0198ed2a-6fd3-7c91-b6a0-3555c47bbe09"",""projectId"":""0198ed26-a6a7-793d-982a-8940a71ab262""}","https://test12345.live/?num_scrambled_semantic=8&num_scrambled_causal=4&num_scrambled_schematic=4&participantId=ADE33812DFEE4679855302BB37ABFF84&assignmentId=0198ed2a-6fd3-7c91-b6a0-3555c47bbe09&projectId=0198ed26-a6a7-793d-982a-8940a71ab262","ADE33812DFEE4679855302BB37ABFF84-2025-08-27-21-43-24","","1027","","images/schematic_sequence/supermarket_scheme/supermarket_scheme_5.png","1","",""
"","","","","","image-button-response","33","1881644","0.0-10.0-1.0-2.2","ADE33812DFEE4679855302BB37ABFF84","ADE33812DFEE4679855302BB37ABFF84","0198ed2a-6fd3-7c91-b6a0-3555c47bbe09","0198ed26-a6a7-793d-982a-8940a71ab262","{""num_scrambled_semantic"":""8"",""num_scrambled_causal"":""4"",""num_scrambled_schematic"":""4"",""participantId"":""ADE33812DFEE4679855302BB37ABFF84"",""assignmentId"":""0198ed2a-6fd3-7c91-b6a0-3555c47bbe09"",""projectId"":""0198ed26-a6a7-793d-982a-8940a71ab262""}","https://test12345.live/?num_scrambled_semantic=8&num_scrambled_causal=4&num_scrambled_schematic=4&participantId=ADE33812DFEE4679855302BB37ABFF84&assignmentId=0198ed2a-6fd3-7c91-b6a0-3555c47bbe09&projectId=0198ed26-a6a7-793d-982a-8940a71ab262","ADE33812DFEE4679855302BB37ABFF84-2025-08-27-21-43-24","","null","","[]","null","",""
"","","","","","image-button-response","34","1886153","0.0-10.0-1.0-0.3","ADE33812DFEE4679855302BB37ABFF84","ADE33812DFEE4679855302BB37ABFF84","0198ed2a-6fd3-7c91-b6a0-3555c47bbe09","0198ed26-a6a7-793d-982a-8940a71ab262","{""num_scrambled_semantic"":""8"",""num_scrambled_causal"":""4"",""num_scrambled_schematic"":""4"",""participantId"":""ADE33812DFEE4679855302BB37ABFF84"",""assignmentId"":""0198ed2a-6fd3-7c91-b6a0-3555c47bbe09"",""projectId"":""0198ed26-a6a7-793d-982a-8940a71ab262""}","https://test12345.live/?num_scrambled_semantic=8&num_scrambled_causal=4&num_scrambled_schematic=4&participantId=ADE33812DFEE4679855302BB37ABFF84&assignmentId=0198ed2a-6fd3-7c91-b6a0-3555c47bbe09&projectId=0198ed26-a6a7-793d-982a-8940a71ab262","ADE33812DFEE4679855302BB37ABFF84-2025-08-27-21-43-24","","null","","images/schematic_sequence/supermarket_scheme/supermarket_scheme_ten.png","null","",""
"","","","","","image-button-response","35","1888071","0.0-10.0-1.0-1.3","ADE33812DFEE4679855302BB37ABFF84","ADE33812DFEE4679855302BB37ABFF84","0198ed2a-6fd3-7c91-b6a0-3555c47bbe09","0198ed26-a6a7-793d-982a-8940a71ab262","{""num_scrambled_semantic"":""8"",""num_scrambled_causal"":""4"",""num_scrambled_schematic"":""4"",""participantId"":""ADE33812DFEE4679855302BB37ABFF84"",""assignmentId"":""0198ed2a-6fd3-7c91-b6a0-3555c47bbe09"",""projectId"":""0198ed26-a6a7-793d-982a-8940a71ab262""}","https://test12345.live/?num_scrambled_semantic=8&num_scrambled_causal=4&num_scrambled_schematic=4&participantId=ADE33812DFEE4679855302BB37ABFF84&assignmentId=0198ed2a-6fd3-7c91-b6a0-3555c47bbe09&projectId=0198ed26-a6a7-793d-982a-8940a71ab262","ADE33812DFEE4679855302BB37ABFF84-2025-08-27-21-43-24","","1917","","images/schematic_sequence/supermarket_scheme/supermarket_scheme_ten.png","1","",""
"","","","","","image-button-response","36","1889875","0.0-10.0-1.0-2.3","ADE33812DFEE4679855302BB37ABFF84","ADE33812DFEE4679855302BB37ABFF84","0198ed2a-6fd3-7c91-b6a0-3555c47bbe09","0198ed26-a6a7-793d-982a-8940a71ab262","{""num_scrambled_semantic"":""8"",""num_scrambled_causal"":""4"",""num_scrambled_schematic"":""4"",""participantId"":""ADE33812DFEE4679855302BB37ABFF84"",""assignmentId"":""0198ed2a-6fd3-7c91-b6a0-3555c47bbe09"",""projectId"":""0198ed26-a6a7-793d-982a-8940a71ab262""}","https://test12345.live/?num_scrambled_semantic=8&num_scrambled_causal=4&num_scrambled_schematic=4&participantId=ADE33812DFEE4679855302BB37ABFF84&assignmentId=0198ed2a-6fd3-7c91-b6a0-3555c47bbe09&projectId=0198ed26-a6a7-793d-982a-8940a71ab262","ADE33812DFEE4679855302BB37ABFF84-2025-08-27-21-43-24","","null","","[]","null","",""
"","","","","","image-button-response","37","1894377","0.0-10.0-1.0-0.4","ADE33812DFEE4679855302BB37ABFF84","ADE33812DFEE4679855302BB37ABFF84","0198ed2a-6fd3-7c91-b6a0-3555c47bbe09","0198ed26-a6a7-793d-982a-8940a71ab262","{""num_scrambled_semantic"":""8"",""num_scrambled_causal"":""4"",""num_scrambled_schematic"":""4"",""participantId"":""ADE33812DFEE4679855302BB37ABFF84"",""assignmentId"":""0198ed2a-6fd3-7c91-b6a0-3555c47bbe09"",""projectId"":""0198ed26-a6a7-793d-982a-8940a71ab262""}","https://test12345.live/?num_scrambled_semantic=8&num_scrambled_causal=4&num_scrambled_schematic=4&participantId=ADE33812DFEE4679855302BB37ABFF84&assignmentId=0198ed2a-6fd3-7c91-b6a0-3555c47bbe09&projectId=0198ed26-a6a7-793d-982a-8940a71ab262","ADE33812DFEE4679855302BB37ABFF84-2025-08-27-21-43-24","","null","","images/schematic_sequence/supermarket_scheme/supermarket_scheme_4.png","null","",""
"","","","","","image-button-response","38","1895430","0.0-10.0-1.0-1.4","ADE33812DFEE4679855302BB37ABFF84","ADE33812DFEE4679855302BB37ABFF84","0198ed2a-6fd3-7c91-b6a0-3555c47bbe09","0198ed26-a6a7-793d-982a-8940a71ab262","{""num_scrambled_semantic"":""8"",""num_scrambled_causal"":""4"",""num_scrambled_schematic"":""4"",""participantId"":""ADE33812DFEE4679855302BB37ABFF84"",""assignmentId"":""0198ed2a-6fd3-7c91-b6a0-3555c47bbe09"",""projectId"":""0198ed26-a6a7-793d-982a-8940a71ab262""}","https://test12345.live/?num_scrambled_semantic=8&num_scrambled_causal=4&num_scrambled_schematic=4&participantId=ADE33812DFEE4679855302BB37ABFF84&assignmentId=0198ed2a-6fd3-7c91-b6a0-3555c47bbe09&projectId=0198ed26-a6a7-793d-982a-8940a71ab262","ADE33812DFEE4679855302BB37ABFF84-2025-08-27-21-43-24","","1051","","images/schematic_sequence/supermarket_scheme/supermarket_scheme_4.png","0","",""
"","","","","","image-button-response","39","1897246","0.0-10.0-1.0-2.4","ADE33812DFEE4679855302BB37ABFF84","ADE33812DFEE4679855302BB37ABFF84","0198ed2a-6fd3-7c91-b6a0-3555c47bbe09","0198ed26-a6a7-793d-982a-8940a71ab262","{""num_scrambled_semantic"":""8"",""num_scrambled_causal"":""4"",""num_scrambled_schematic"":""4"",""participantId"":""ADE33812DFEE4679855302BB37ABFF84"",""assignmentId"":""0198ed2a-6fd3-7c91-b6a0-3555c47bbe09"",""projectId"":""0198ed26-a6a7-793d-982a-8940a71ab262""}","https://test12345.live/?num_scrambled_semantic=8&num_scrambled_causal=4&num_scrambled_schematic=4&participantId=ADE33812DFEE4679855302BB37ABFF84&assignmentId=0198ed2a-6fd3-7c91-b6a0-3555c47bbe09&projectId=0198ed26-a6a7-793d-982a-8940a71ab262","ADE33812DFEE4679855302BB37ABFF84-2025-08-27-21-43-24","","null","","[]","null","",""
"","","","","","image-button-response","40","1901748","0.0-10.0-1.0-0.5","ADE33812DFEE4679855302BB37ABFF84","ADE33812DFEE4679855302BB37ABFF84","0198ed2a-6fd3-7c91-b6a0-3555c47bbe09","0198ed26-a6a7-793d-982a-8940a71ab262","{""num_scrambled_semantic"":""8"",""num_scrambled_causal"":""4"",""num_scrambled_schematic"":""4"",""participantId"":""ADE33812DFEE4679855302BB37ABFF84"",""assignmentId"":""0198ed2a-6fd3-7c91-b6a0-3555c47bbe09"",""projectId"":""0198ed26-a6a7-793d-982a-8940a71ab262""}","https://test12345.live/?num_scrambled_semantic=8&num_scrambled_causal=4&num_scrambled_schematic=4&participantId=ADE33812DFEE4679855302BB37ABFF84&assignmentId=0198ed2a-6fd3-7c91-b6a0-3555c47bbe09&projectId=0198ed26-a6a7-793d-982a-8940a71ab262","ADE33812DFEE4679855302BB37ABFF84-2025-08-27-21-43-24","","null","","images/schematic_sequence/supermarket_scheme/supermarket_scheme_9.png","null","",""
"","","","","","image-button-response","41","1902800","0.0-10.0-1.0-1.5","ADE33812DFEE4679855302BB37ABFF84","ADE33812DFEE4679855302BB37ABFF84","0198ed2a-6fd3-7c91-b6a0-3555c47bbe09","0198ed26-a6a7-793d-982a-8940a71ab262","{""num_scrambled_semantic"":""8"",""num_scrambled_causal"":""4"",""num_scrambled_schematic"":""4"",""participantId"":""ADE33812DFEE4679855302BB37ABFF84"",""assignmentId"":""0198ed2a-6fd3-7c91-b6a0-3555c47bbe09"",""projectId"":""0198ed26-a6a7-793d-982a-8940a71ab262""}","https://test12345.live/?num_scrambled_semantic=8&num_scrambled_causal=4&num_scrambled_schematic=4&participantId=ADE33812DFEE4679855302BB37ABFF84&assignmentId=0198ed2a-6fd3-7c91-b6a0-3555c47bbe09&projectId=0198ed26-a6a7-793d-982a-8940a71ab262","ADE33812DFEE4679855302BB37ABFF84-2025-08-27-21-43-24","","1051","","images/schematic_sequence/supermarket_scheme/supermarket_scheme_9.png","0","",""
"","","","","","image-button-response","42","1904617","0.0-10.0-1.0-2.5","ADE33812DFEE4679855302BB37ABFF84","ADE33812DFEE4679855302BB37ABFF84","0198ed2a-6fd3-7c91-b6a0-3555c47bbe09","0198ed26-a6a7-793d-982a-8940a71ab262","{""num_scrambled_semantic"":""8"",""num_scrambled_causal"":""4"",""num_scrambled_schematic"":""4"",""participantId"":""ADE33812DFEE4679855302BB37ABFF84"",""assignmentId"":""0198ed2a-6fd3-7c91-b6a0-3555c47bbe09"",""projectId"":""0198ed26-a6a7-793d-982a-8940a71ab262""}","https://test12345.live/?num_scrambled_semantic=8&num_scrambled_causal=4&num_scrambled_schematic=4&participantId=ADE33812DFEE4679855302BB37ABFF84&assignmentId=0198ed2a-6fd3-7c91-b6a0-3555c47bbe09&projectId=0198ed26-a6a7-793d-982a-8940a71ab262","ADE33812DFEE4679855302BB37ABFF84-2025-08-27-21-43-24","","null","","[]","null","",""
"","","","","","image-button-response","43","1909122","0.0-10.0-1.0-0.6","ADE33812DFEE4679855302BB37ABFF84","ADE33812DFEE4679855302BB37ABFF84","0198ed2a-6fd3-7c91-b6a0-3555c47bbe09","0198ed26-a6a7-793d-982a-8940a71ab262","{""num_scrambled_semantic"":""8"",""num_scrambled_causal"":""4"",""num_scrambled_schematic"":""4"",""participantId"":""ADE33812DFEE4679855302BB37ABFF84"",""assignmentId"":""0198ed2a-6fd3-7c91-b6a0-3555c47bbe09"",""projectId"":""0198ed26-a6a7-793d-982a-8940a71ab262""}","https://test12345.live/?num_scrambled_semantic=8&num_scrambled_causal=4&num_scrambled_schematic=4&participantId=ADE33812DFEE4679855302BB37ABFF84&assignmentId=0198ed2a-6fd3-7c91-b6a0-3555c47bbe09&projectId=0198ed26-a6a7-793d-982a-8940a71ab262","ADE33812DFEE4679855302BB37ABFF84-2025-08-27-21-43-24","","null","","images/schematic_sequence/supermarket_scheme/supermarket_scheme_2.png","null","",""
"","","","","","image-button-response","44","1912045","0.0-10.0-1.0-1.6","ADE33812DFEE4679855302BB37ABFF84","ADE33812DFEE4679855302BB37ABFF84","0198ed2a-6fd3-7c91-b6a0-3555c47bbe09","0198ed26-a6a7-793d-982a-8940a71ab262","{""num_scrambled_semantic"":""8"",""num_scrambled_causal"":""4"",""num_scrambled_schematic"":""4"",""participantId"":""ADE33812DFEE4679855302BB37ABFF84"",""assignmentId"":""0198ed2a-6fd3-7c91-b6a0-3555c47bbe09"",""projectId"":""0198ed26-a6a7-793d-982a-8940a71ab262""}","https://test12345.live/?num_scrambled_semantic=8&num_scrambled_causal=4&num_scrambled_schematic=4&participantId=ADE33812DFEE4679855302BB37ABFF84&assignmentId=0198ed2a-6fd3-7c91-b6a0-3555c47bbe09&projectId=0198ed26-a6a7-793d-982a-8940a71ab262","ADE33812DFEE4679855302BB37ABFF84-2025-08-27-21-43-24","","2921","","images/schematic_sequence/supermarket_scheme/supermarket_scheme_2.png","1","",""
"","","","","","image-button-response","45","1913854","0.0-10.0-1.0-2.6","ADE33812DFEE4679855302BB37ABFF84","ADE33812DFEE4679855302BB37ABFF84","0198ed2a-6fd3-7c91-b6a0-3555c47bbe09","0198ed26-a6a7-793d-982a-8940a71ab262","{""num_scrambled_semantic"":""8"",""num_scrambled_causal"":""4"",""num_scrambled_schematic"":""4"",""participantId"":""ADE33812DFEE4679855302BB37ABFF84"",""assignmentId"":""0198ed2a-6fd3-7c91-b6a0-3555c47bbe09"",""projectId"":""0198ed26-a6a7-793d-982a-8940a71ab262""}","https://test12345.live/?num_scrambled_semantic=8&num_scrambled_causal=4&num_scrambled_schematic=4&participantId=ADE33812DFEE4679855302BB37ABFF84&assignmentId=0198ed2a-6fd3-7c91-b6a0-3555c47bbe09&projectId=0198ed26-a6a7-793d-982a-8940a71ab262","ADE33812DFEE4679855302BB37ABFF84-2025-08-27-21-43-24","","null","","[]","null","",""
"","","","","","image-button-response","46","1918364","0.0-10.0-1.0-0.7","ADE33812DFEE4679855302BB37ABFF84","ADE33812DFEE4679855302BB37ABFF84","0198ed2a-6fd3-7c91-b6a0-3555c47bbe09","0198ed26-a6a7-793d-982a-8940a71ab262","{""num_scrambled_semantic"":""8"",""num_scrambled_causal"":""4"",""num_scrambled_schematic"":""4"",""participantId"":""ADE33812DFEE4679855302BB37ABFF84"",""assignmentId"":""0198ed2a-6fd3-7c91-b6a0-3555c47bbe09"",""projectId"":""0198ed26-a6a7-793d-982a-8940a71ab262""}","https://test12345.live/?num_scrambled_semantic=8&num_scrambled_causal=4&num_scrambled_schematic=4&participantId=ADE33812DFEE4679855302BB37ABFF84&assignmentId=0198ed2a-6fd3-7c91-b6a0-3555c47bbe09&projectId=0198ed26-a6a7-793d-982a-8940a71ab262","ADE33812DFEE4679855302BB37ABFF84-2025-08-27-21-43-24","","null","","images/schematic_sequence/supermarket_scheme/supermarket_scheme_7.png","null","",""
"","","","","","image-button-response","47","1919795","0.0-10.0-1.0-1.7","ADE33812DFEE4679855302BB37ABFF84","ADE33812DFEE4679855302BB37ABFF84","0198ed2a-6fd3-7c91-b6a0-3555c47bbe09","0198ed26-a6a7-793d-982a-8940a71ab262","{""num_scrambled_semantic"":""8"",""num_scrambled_causal"":""4"",""num_scrambled_schematic"":""4"",""participantId"":""ADE33812DFEE4679855302BB37ABFF84"",""assignmentId"":""0198ed2a-6fd3-7c91-b6a0-3555c47bbe09"",""projectId"":""0198ed26-a6a7-793d-982a-8940a71ab262""}","https://test12345.live/?num_scrambled_semantic=8&num_scrambled_causal=4&num_scrambled_schematic=4&participantId=ADE33812DFEE4679855302BB37ABFF84&assignmentId=0198ed2a-6fd3-7c91-b6a0-3555c47bbe09&projectId=0198ed26-a6a7-793d-982a-8940a71ab262","ADE33812DFEE4679855302BB37ABFF84-2025-08-27-21-43-24","","1431","","images/schematic_sequence/supermarket_scheme/supermarket_scheme_7.png","0","",""
"","","","","","image-button-response","48","1921609","0.0-10.0-1.0-2.7","ADE33812DFEE4679855302BB37ABFF84","ADE33812DFEE4679855302BB37ABFF84","0198ed2a-6fd3-7c91-b6a0-3555c47bbe09","0198ed26-a6a7-793d-982a-8940a71ab262","{""num_scrambled_semantic"":""8"",""num_scrambled_causal"":""4"",""num_scrambled_schematic"":""4"",""participantId"":""ADE33812DFEE4679855302BB37ABFF84"",""assignmentId"":""0198ed2a-6fd3-7c91-b6a0-3555c47bbe09"",""projectId"":""0198ed26-a6a7-793d-982a-8940a71ab262""}","https://test12345.live/?num_scrambled_semantic=8&num_scrambled_causal=4&num_scrambled_schematic=4&participantId=ADE33812DFEE4679855302BB37ABFF84&assignmentId=0198ed2a-6fd3-7c91-b6a0-3555c47bbe09&projectId=0198ed26-a6a7-793d-982a-8940a71ab262","ADE33812DFEE4679855302BB37ABFF84-2025-08-27-21-43-24","","null","","[]","null","",""
"","","","","","image-button-response","49","1926113","0.0-10.0-1.0-0.8","ADE33812DFEE4679855302BB37ABFF84","ADE33812DFEE4679855302BB37ABFF84","0198ed2a-6fd3-7c91-b6a0-3555c47bbe09","0198ed26-a6a7-793d-982a-8940a71ab262","{""num_scrambled_semantic"":""8"",""num_scrambled_causal"":""4"",""num_scrambled_schematic"":""4"",""participantId"":""ADE33812DFEE4679855302BB37ABFF84"",""assignmentId"":""0198ed2a-6fd3-7c91-b6a0-3555c47bbe09"",""projectId"":""0198ed26-a6a7-793d-982a-8940a71ab262""}","https://test12345.live/?num_scrambled_semantic=8&num_scrambled_causal=4&num_scrambled_schematic=4&participantId=ADE33812DFEE4679855302BB37ABFF84&assignmentId=0198ed2a-6fd3-7c91-b6a0-3555c47bbe09&projectId=0198ed26-a6a7-793d-982a-8940a71ab262","ADE33812DFEE4679855302BB37ABFF84-2025-08-27-21-43-24","","null","","images/schematic_sequence/supermarket_scheme/supermarket_scheme_3.png","null","",""
"","","","","","image-button-response","50","1927948","0.0-10.0-1.0-1.8","ADE33812DFEE4679855302BB37ABFF84","ADE33812DFEE4679855302BB37ABFF84","0198ed2a-6fd3-7c91-b6a0-3555c47bbe09","0198ed26-a6a7-793d-982a-8940a71ab262","{""num_scrambled_semantic"":""8"",""num_scrambled_causal"":""4"",""num_scrambled_schematic"":""4"",""participantId"":""ADE33812DFEE4679855302BB37ABFF84"",""assignmentId"":""0198ed2a-6fd3-7c91-b6a0-3555c47bbe09"",""projectId"":""0198ed26-a6a7-793d-982a-8940a71ab262""}","https://test12345.live/?num_scrambled_semantic=8&num_scrambled_causal=4&num_scrambled_schematic=4&participantId=ADE33812DFEE4679855302BB37ABFF84&assignmentId=0198ed2a-6fd3-7c91-b6a0-3555c47bbe09&projectId=0198ed26-a6a7-793d-982a-8940a71ab262","ADE33812DFEE4679855302BB37ABFF84-2025-08-27-21-43-24","","1834","","images/schematic_sequence/supermarket_scheme/supermarket_scheme_3.png","0","",""
"","","","","","image-button-response","51","1929749","0.0-10.0-1.0-2.8","ADE33812DFEE4679855302BB37ABFF84","ADE33812DFEE4679855302BB37ABFF84","0198ed2a-6fd3-7c91-b6a0-3555c47bbe09","0198ed26-a6a7-793d-982a-8940a71ab262","{""num_scrambled_semantic"":""8"",""num_scrambled_causal"":""4"",""num_scrambled_schematic"":""4"",""participantId"":""ADE33812DFEE4679855302BB37ABFF84"",""assignmentId"":""0198ed2a-6fd3-7c91-b6a0-3555c47bbe09"",""projectId"":""0198ed26-a6a7-793d-982a-8940a71ab262""}","https://test12345.live/?num_scrambled_semantic=8&num_scrambled_causal=4&num_scrambled_schematic=4&participantId=ADE33812DFEE4679855302BB37ABFF84&assignmentId=0198ed2a-6fd3-7c91-b6a0-3555c47bbe09&projectId=0198ed26-a6a7-793d-982a-8940a71ab262","ADE33812DFEE4679855302BB37ABFF84-2025-08-27-21-43-24","","null","","[]","null","",""
"","","","","","image-button-response","52","1934265","0.0-10.0-1.0-0.9","ADE33812DFEE4679855302BB37ABFF84","ADE33812DFEE4679855302BB37ABFF84","0198ed2a-6fd3-7c91-b6a0-3555c47bbe09","0198ed26-a6a7-793d-982a-8940a71ab262","{""num_scrambled_semantic"":""8"",""num_scrambled_causal"":""4"",""num_scrambled_schematic"":""4"",""participantId"":""ADE33812DFEE4679855302BB37ABFF84"",""assignmentId"":""0198ed2a-6fd3-7c91-b6a0-3555c47bbe09"",""projectId"":""0198ed26-a6a7-793d-982a-8940a71ab262""}","https://test12345.live/?num_scrambled_semantic=8&num_scrambled_causal=4&num_scrambled_schematic=4&participantId=ADE33812DFEE4679855302BB37ABFF84&assignmentId=0198ed2a-6fd3-7c91-b6a0-3555c47bbe09&projectId=0198ed26-a6a7-793d-982a-8940a71ab262","ADE33812DFEE4679855302BB37ABFF84-2025-08-27-21-43-24","","null","","images/schematic_sequence/supermarket_scheme/supermarket_scheme_8.png","null","",""
"","","","","","image-button-response","53","1935136","0.0-10.0-1.0-1.9","ADE33812DFEE4679855302BB37ABFF84","ADE33812DFEE4679855302BB37ABFF84","0198ed2a-6fd3-7c91-b6a0-3555c47bbe09","0198ed26-a6a7-793d-982a-8940a71ab262","{""num_scrambled_semantic"":""8"",""num_scrambled_causal"":""4"",""num_scrambled_schematic"":""4"",""participantId"":""ADE33812DFEE4679855302BB37ABFF84"",""assignmentId"":""0198ed2a-6fd3-7c91-b6a0-3555c47bbe09"",""projectId"":""0198ed26-a6a7-793d-982a-8940a71ab262""}","https://test12345.live/?num_scrambled_semantic=8&num_scrambled_causal=4&num_scrambled_schematic=4&participantId=ADE33812DFEE4679855302BB37ABFF84&assignmentId=0198ed2a-6fd3-7c91-b6a0-3555c47bbe09&projectId=0198ed26-a6a7-793d-982a-8940a71ab262","ADE33812DFEE4679855302BB37ABFF84-2025-08-27-21-43-24","","870","","images/schematic_sequence/supermarket_scheme/supermarket_scheme_8.png","0","",""
"","","","","","image-button-response","54","1936951","0.0-10.0-1.0-2.9","ADE33812DFEE4679855302BB37ABFF84","ADE33812DFEE4679855302BB37ABFF84","0198ed2a-6fd3-7c91-b6a0-3555c47bbe09","0198ed26-a6a7-793d-982a-8940a71ab262","{""num_scrambled_semantic"":""8"",""num_scrambled_causal"":""4"",""num_scrambled_schematic"":""4"",""participantId"":""ADE33812DFEE4679855302BB37ABFF84"",""assignmentId"":""0198ed2a-6fd3-7c91-b6a0-3555c47bbe09"",""projectId"":""0198ed26-a6a7-793d-982a-8940a71ab262""}","https://test12345.live/?num_scrambled_semantic=8&num_scrambled_causal=4&num_scrambled_schematic=4&participantId=ADE33812DFEE4679855302BB37ABFF84&assignmentId=0198ed2a-6fd3-7c91-b6a0-3555c47bbe09&projectId=0198ed26-a6a7-793d-982a-8940a71ab262","ADE33812DFEE4679855302BB37ABFF84-2025-08-27-21-43-24","","null","","[]","null","",""
"","","","","","html-audio-response","55","2000853","0.0-11.0","ADE33812DFEE4679855302BB37ABFF84","ADE33812DFEE4679855302BB37ABFF84","0198ed2a-6fd3-7c91-b6a0-3555c47bbe09","0198ed26-a6a7-793d-982a-8940a71ab262","{""num_scrambled_semantic"":""8"",""num_scrambled_causal"":""4"",""num_scrambled_schematic"":""4"",""participantId"":""ADE33812DFEE4679855302BB37ABFF84"",""assignmentId"":""0198ed2a-6fd3-7c91-b6a0-3555c47bbe09"",""projectId"":""0198ed26-a6a7-793d-982a-8940a71ab262""}","https://test12345.live/?num_scrambled_semantic=8&num_scrambled_causal=4&num_scrambled_schematic=4&participantId=ADE33812DFEE4679855302BB37ABFF84&assignmentId=0198ed2a-6fd3-7c91-b6a0-3555c47bbe09&projectId=0198ed26-a6a7-793d-982a-8940a71ab262","ADE33812DFEE4679855302BB37ABFF84-2025-08-27-21-43-24","","40634","","[""<span style=\""color: red; font-size: 24px\""> NOW RECORDING</span><p>Please say out loud all the images you saw, in the order of the story they create. Try to recall the sequence of events as they appeared in the story, not necessarily the order they were presented on the screen.</p>""]","","1","supermarket_scheme"
"","","","","","image-button-response","56","2006876","0.0-12.0-0.0","ADE33812DFEE4679855302BB37ABFF84","ADE33812DFEE4679855302BB37ABFF84","0198ed2a-6fd3-7c91-b6a0-3555c47bbe09","0198ed26-a6a7-793d-982a-8940a71ab262","{""num_scrambled_semantic"":""8"",""num_scrambled_causal"":""4"",""num_scrambled_schematic"":""4"",""participantId"":""ADE33812DFEE4679855302BB37ABFF84"",""assignmentId"":""0198ed2a-6fd3-7c91-b6a0-3555c47bbe09"",""projectId"":""0198ed26-a6a7-793d-982a-8940a71ab262""}","https://test12345.live/?num_scrambled_semantic=8&num_scrambled_causal=4&num_scrambled_schematic=4&participantId=ADE33812DFEE4679855302BB37ABFF84&assignmentId=0198ed2a-6fd3-7c91-b6a0-3555c47bbe09&projectId=0198ed26-a6a7-793d-982a-8940a71ab262","ADE33812DFEE4679855302BB37ABFF84-2025-08-27-21-43-24","","null","","images/schematic_sequence/hotel_scheme/hotel_scheme_0.png","null","",""
"","","","","","image-button-response","57","2011378","0.0-12.0-1.0-0.0","ADE33812DFEE4679855302BB37ABFF84","ADE33812DFEE4679855302BB37ABFF84","0198ed2a-6fd3-7c91-b6a0-3555c47bbe09","0198ed26-a6a7-793d-982a-8940a71ab262","{""num_scrambled_semantic"":""8"",""num_scrambled_causal"":""4"",""num_scrambled_schematic"":""4"",""participantId"":""ADE33812DFEE4679855302BB37ABFF84"",""assignmentId"":""0198ed2a-6fd3-7c91-b6a0-3555c47bbe09"",""projectId"":""0198ed26-a6a7-793d-982a-8940a71ab262""}","https://test12345.live/?num_scrambled_semantic=8&num_scrambled_causal=4&num_scrambled_schematic=4&participantId=ADE33812DFEE4679855302BB37ABFF84&assignmentId=0198ed2a-6fd3-7c91-b6a0-3555c47bbe09&projectId=0198ed26-a6a7-793d-982a-8940a71ab262","ADE33812DFEE4679855302BB37ABFF84-2025-08-27-21-43-24","","null","","images/schematic_sequence/hotel_scheme/hotel_scheme_1.png","null","",""
"","","","","","image-button-response","58","2012692","0.0-12.0-1.0-1.0","ADE33812DFEE4679855302BB37ABFF84","ADE33812DFEE4679855302BB37ABFF84","0198ed2a-6fd3-7c91-b6a0-3555c47bbe09","0198ed26-a6a7-793d-982a-8940a71ab262","{""num_scrambled_semantic"":""8"",""num_scrambled_causal"":""4"",""num_scrambled_schematic"":""4"",""participantId"":""ADE33812DFEE4679855302BB37ABFF84"",""assignmentId"":""0198ed2a-6fd3-7c91-b6a0-3555c47bbe09"",""projectId"":""0198ed26-a6a7-793d-982a-8940a71ab262""}","https://test12345.live/?num_scrambled_semantic=8&num_scrambled_causal=4&num_scrambled_schematic=4&participantId=ADE33812DFEE4679855302BB37ABFF84&assignmentId=0198ed2a-6fd3-7c91-b6a0-3555c47bbe09&projectId=0198ed26-a6a7-793d-982a-8940a71ab262","ADE33812DFEE4679855302BB37ABFF84-2025-08-27-21-43-24","","1314","","images/schematic_sequence/hotel_scheme/hotel_scheme_1.png","1","",""
"","","","","","image-button-response","59","2014496","0.0-12.0-1.0-2.0","ADE33812DFEE4679855302BB37ABFF84","ADE33812DFEE4679855302BB37ABFF84","0198ed2a-6fd3-7c91-b6a0-3555c47bbe09","0198ed26-a6a7-793d-982a-8940a71ab262","{""num_scrambled_semantic"":""8"",""num_scrambled_causal"":""4"",""num_scrambled_schematic"":""4"",""participantId"":""ADE33812DFEE4679855302BB37ABFF84"",""assignmentId"":""0198ed2a-6fd3-7c91-b6a0-3555c47bbe09"",""projectId"":""0198ed26-a6a7-793d-982a-8940a71ab262""}","https://test12345.live/?num_scrambled_semantic=8&num_scrambled_causal=4&num_scrambled_schematic=4&participantId=ADE33812DFEE4679855302BB37ABFF84&assignmentId=0198ed2a-6fd3-7c91-b6a0-3555c47bbe09&projectId=0198ed26-a6a7-793d-982a-8940a71ab262","ADE33812DFEE4679855302BB37ABFF84-2025-08-27-21-43-24","","null","","[]","null","",""
"","","","","","image-button-response","60","2018998","0.0-12.0-1.0-0.1","ADE33812DFEE4679855302BB37ABFF84","ADE33812DFEE4679855302BB37ABFF84","0198ed2a-6fd3-7c91-b6a0-3555c47bbe09","0198ed26-a6a7-793d-982a-8940a71ab262","{""num_scrambled_semantic"":""8"",""num_scrambled_causal"":""4"",""num_scrambled_schematic"":""4"",""participantId"":""ADE33812DFEE4679855302BB37ABFF84"",""assignmentId"":""0198ed2a-6fd3-7c91-b6a0-3555c47bbe09"",""projectId"":""0198ed26-a6a7-793d-982a-8940a71ab262""}","https://test12345.live/?num_scrambled_semantic=8&num_scrambled_causal=4&num_scrambled_schematic=4&participantId=ADE33812DFEE4679855302BB37ABFF84&assignmentId=0198ed2a-6fd3-7c91-b6a0-3555c47bbe09&projectId=0198ed26-a6a7-793d-982a-8940a71ab262","ADE33812DFEE4679855302BB37ABFF84-2025-08-27-21-43-24","","null","","images/schematic_sequence/hotel_scheme/hotel_scheme_2.png","null","",""
"","","","","","image-button-response","61","2020536","0.0-12.0-1.0-1.1","ADE33812DFEE4679855302BB37ABFF84","ADE33812DFEE4679855302BB37ABFF84","0198ed2a-6fd3-7c91-b6a0-3555c47bbe09","0198ed26-a6a7-793d-982a-8940a71ab262","{""num_scrambled_semantic"":""8"",""num_scrambled_causal"":""4"",""num_scrambled_schematic"":""4"",""participantId"":""ADE33812DFEE4679855302BB37ABFF84"",""assignmentId"":""0198ed2a-6fd3-7c91-b6a0-3555c47bbe09"",""projectId"":""0198ed26-a6a7-793d-982a-8940a71ab262""}","https://test12345.live/?num_scrambled_semantic=8&num_scrambled_causal=4&num_scrambled_schematic=4&participantId=ADE33812DFEE4679855302BB37ABFF84&assignmentId=0198ed2a-6fd3-7c91-b6a0-3555c47bbe09&projectId=0198ed26-a6a7-793d-982a-8940a71ab262","ADE33812DFEE4679855302BB37ABFF84-2025-08-27-21-43-24","","1536","","images/schematic_sequence/hotel_scheme/hotel_scheme_2.png","0","",""
"","","","","","image-button-response","62","2022351","0.0-12.0-1.0-2.1","ADE33812DFEE4679855302BB37ABFF84","ADE33812DFEE4679855302BB37ABFF84","0198ed2a-6fd3-7c91-b6a0-3555c47bbe09","0198ed26-a6a7-793d-982a-8940a71ab262","{""num_scrambled_semantic"":""8"",""num_scrambled_causal"":""4"",""num_scrambled_schematic"":""4"",""participantId"":""ADE33812DFEE4679855302BB37ABFF84"",""assignmentId"":""0198ed2a-6fd3-7c91-b6a0-3555c47bbe09"",""projectId"":""0198ed26-a6a7-793d-982a-8940a71ab262""}","https://test12345.live/?num_scrambled_semantic=8&num_scrambled_causal=4&num_scrambled_schematic=4&participantId=ADE33812DFEE4679855302BB37ABFF84&assignmentId=0198ed2a-6fd3-7c91-b6a0-3555c47bbe09&projectId=0198ed26-a6a7-793d-982a-8940a71ab262","ADE33812DFEE4679855302BB37ABFF84-2025-08-27-21-43-24","","null","","[]","null","",""
"","","","","","image-button-response","63","2026856","0.0-12.0-1.0-0.2","ADE33812DFEE4679855302BB37ABFF84","ADE33812DFEE4679855302BB37ABFF84","0198ed2a-6fd3-7c91-b6a0-3555c47bbe09","0198ed26-a6a7-793d-982a-8940a71ab262","{""num_scrambled_semantic"":""8"",""num_scrambled_causal"":""4"",""num_scrambled_schematic"":""4"",""participantId"":""ADE33812DFEE4679855302BB37ABFF84"",""assignmentId"":""0198ed2a-6fd3-7c91-b6a0-3555c47bbe09"",""projectId"":""0198ed26-a6a7-793d-982a-8940a71ab262""}","https://test12345.live/?num_scrambled_semantic=8&num_scrambled_causal=4&num_scrambled_schematic=4&participantId=ADE33812DFEE4679855302BB37ABFF84&assignmentId=0198ed2a-6fd3-7c91-b6a0-3555c47bbe09&projectId=0198ed26-a6a7-793d-982a-8940a71ab262","ADE33812DFEE4679855302BB37ABFF84-2025-08-27-21-43-24","","null","","images/schematic_sequence/hotel_scheme/hotel_scheme_3.png","null","",""
"","","","","","image-button-response","64","2028158","0.0-12.0-1.0-1.2","ADE33812DFEE4679855302BB37ABFF84","ADE33812DFEE4679855302BB37ABFF84","0198ed2a-6fd3-7c91-b6a0-3555c47bbe09","0198ed26-a6a7-793d-982a-8940a71ab262","{""num_scrambled_semantic"":""8"",""num_scrambled_causal"":""4"",""num_scrambled_schematic"":""4"",""participantId"":""ADE33812DFEE4679855302BB37ABFF84"",""assignmentId"":""0198ed2a-6fd3-7c91-b6a0-3555c47bbe09"",""projectId"":""0198ed26-a6a7-793d-982a-8940a71ab262""}","https://test12345.live/?num_scrambled_semantic=8&num_scrambled_causal=4&num_scrambled_schematic=4&participantId=ADE33812DFEE4679855302BB37ABFF84&assignmentId=0198ed2a-6fd3-7c91-b6a0-3555c47bbe09&projectId=0198ed26-a6a7-793d-982a-8940a71ab262","ADE33812DFEE4679855302BB37ABFF84-2025-08-27-21-43-24","","1301","","images/schematic_sequence/hotel_scheme/hotel_scheme_3.png","0","",""
"","","","","","image-button-response","65","2029967","0.0-12.0-1.0-2.2","ADE33812DFEE4679855302BB37ABFF84","ADE33812DFEE4679855302BB37ABFF84","0198ed2a-6fd3-7c91-b6a0-3555c47bbe09","0198ed26-a6a7-793d-982a-8940a71ab262","{""num_scrambled_semantic"":""8"",""num_scrambled_causal"":""4"",""num_scrambled_schematic"":""4"",""participantId"":""ADE33812DFEE4679855302BB37ABFF84"",""assignmentId"":""0198ed2a-6fd3-7c91-b6a0-3555c47bbe09"",""projectId"":""0198ed26-a6a7-793d-982a-8940a71ab262""}","https://test12345.live/?num_scrambled_semantic=8&num_scrambled_causal=4&num_scrambled_schematic=4&participantId=ADE33812DFEE4679855302BB37ABFF84&assignmentId=0198ed2a-6fd3-7c91-b6a0-3555c47bbe09&projectId=0198ed26-a6a7-793d-982a-8940a71ab262","ADE33812DFEE4679855302BB37ABFF84-2025-08-27-21-43-24","","null","","[]","null","",""
"","","","","","image-button-response","66","2034480","0.0-12.0-1.0-0.3","ADE33812DFEE4679855302BB37ABFF84","ADE33812DFEE4679855302BB37ABFF84","0198ed2a-6fd3-7c91-b6a0-3555c47bbe09","0198ed26-a6a7-793d-982a-8940a71ab262","{""num_scrambled_semantic"":""8"",""num_scrambled_causal"":""4"",""num_scrambled_schematic"":""4"",""participantId"":""ADE33812DFEE4679855302BB37ABFF84"",""assignmentId"":""0198ed2a-6fd3-7c91-b6a0-3555c47bbe09"",""projectId"":""0198ed26-a6a7-793d-982a-8940a71ab262""}","https://test12345.live/?num_scrambled_semantic=8&num_scrambled_causal=4&num_scrambled_schematic=4&participantId=ADE33812DFEE4679855302BB37ABFF84&assignmentId=0198ed2a-6fd3-7c91-b6a0-3555c47bbe09&projectId=0198ed26-a6a7-793d-982a-8940a71ab262","ADE33812DFEE4679855302BB37ABFF84-2025-08-27-21-43-24","","null","","images/schematic_sequence/hotel_scheme/hotel_scheme_4.png","null","",""
"","","","","","image-button-response","67","2034894","0.0-12.0-1.0-1.3","ADE33812DFEE4679855302BB37ABFF84","ADE33812DFEE4679855302BB37ABFF84","0198ed2a-6fd3-7c91-b6a0-3555c47bbe09","0198ed26-a6a7-793d-982a-8940a71ab262","{""num_scrambled_semantic"":""8"",""num_scrambled_causal"":""4"",""num_scrambled_schematic"":""4"",""participantId"":""ADE33812DFEE4679855302BB37ABFF84"",""assignmentId"":""0198ed2a-6fd3-7c91-b6a0-3555c47bbe09"",""projectId"":""0198ed26-a6a7-793d-982a-8940a71ab262""}","https://test12345.live/?num_scrambled_semantic=8&num_scrambled_causal=4&num_scrambled_schematic=4&participantId=ADE33812DFEE4679855302BB37ABFF84&assignmentId=0198ed2a-6fd3-7c91-b6a0-3555c47bbe09&projectId=0198ed26-a6a7-793d-982a-8940a71ab262","ADE33812DFEE4679855302BB37ABFF84-2025-08-27-21-43-24","","413","","images/schematic_sequence/hotel_scheme/hotel_scheme_4.png","0","",""
"","","","","","image-button-response","68","2036704","0.0-12.0-1.0-2.3","ADE33812DFEE4679855302BB37ABFF84","ADE33812DFEE4679855302BB37ABFF84","0198ed2a-6fd3-7c91-b6a0-3555c47bbe09","0198ed26-a6a7-793d-982a-8940a71ab262","{""num_scrambled_semantic"":""8"",""num_scrambled_causal"":""4"",""num_scrambled_schematic"":""4"",""participantId"":""ADE33812DFEE4679855302BB37ABFF84"",""assignmentId"":""0198ed2a-6fd3-7c91-b6a0-3555c47bbe09"",""projectId"":""0198ed26-a6a7-793d-982a-8940a71ab262""}","https://test12345.live/?num_scrambled_semantic=8&num_scrambled_causal=4&num_scrambled_schematic=4&participantId=ADE33812DFEE4679855302BB37ABFF84&assignmentId=0198ed2a-6fd3-7c91-b6a0-3555c47bbe09&projectId=0198ed26-a6a7-793d-982a-8940a71ab262","ADE33812DFEE4679855302BB37ABFF84-2025-08-27-21-43-24","","null","","[]","null","",""
"","","","","","image-button-response","69","2041214","0.0-12.0-1.0-0.4","ADE33812DFEE4679855302BB37ABFF84","ADE33812DFEE4679855302BB37ABFF84","0198ed2a-6fd3-7c91-b6a0-3555c47bbe09","0198ed26-a6a7-793d-982a-8940a71ab262","{""num_scrambled_semantic"":""8"",""num_scrambled_causal"":""4"",""num_scrambled_schematic"":""4"",""participantId"":""ADE33812DFEE4679855302BB37ABFF84"",""assignmentId"":""0198ed2a-6fd3-7c91-b6a0-3555c47bbe09"",""projectId"":""0198ed26-a6a7-793d-982a-8940a71ab262""}","https://test12345.live/?num_scrambled_semantic=8&num_scrambled_causal=4&num_scrambled_schematic=4&participantId=ADE33812DFEE4679855302BB37ABFF84&assignmentId=0198ed2a-6fd3-7c91-b6a0-3555c47bbe09&projectId=0198ed26-a6a7-793d-982a-8940a71ab262","ADE33812DFEE4679855302BB37ABFF84-2025-08-27-21-43-24","","null","","images/schematic_sequence/hotel_scheme/hotel_scheme_5.png","null","",""
"","","","","","image-button-response","70","2044733","0.0-12.0-1.0-1.4","ADE33812DFEE4679855302BB37ABFF84","ADE33812DFEE4679855302BB37ABFF84","0198ed2a-6fd3-7c91-b6a0-3555c47bbe09","0198ed26-a6a7-793d-982a-8940a71ab262","{""num_scrambled_semantic"":""8"",""num_scrambled_causal"":""4"",""num_scrambled_schematic"":""4"",""participantId"":""ADE33812DFEE4679855302BB37ABFF84"",""assignmentId"":""0198ed2a-6fd3-7c91-b6a0-3555c47bbe09"",""projectId"":""0198ed26-a6a7-793d-982a-8940a71ab262""}","https://test12345.live/?num_scrambled_semantic=8&num_scrambled_causal=4&num_scrambled_schematic=4&participantId=ADE33812DFEE4679855302BB37ABFF84&assignmentId=0198ed2a-6fd3-7c91-b6a0-3555c47bbe09&projectId=0198ed26-a6a7-793d-982a-8940a71ab262","ADE33812DFEE4679855302BB37ABFF84-2025-08-27-21-43-24","","3518","","images/schematic_sequence/hotel_scheme/hotel_scheme_5.png","0","",""
"","","","","","image-button-response","71","2046550","0.0-12.0-1.0-2.4","ADE33812DFEE4679855302BB37ABFF84","ADE33812DFEE4679855302BB37ABFF84","0198ed2a-6fd3-7c91-b6a0-3555c47bbe09","0198ed26-a6a7-793d-982a-8940a71ab262","{""num_scrambled_semantic"":""8"",""num_scrambled_causal"":""4"",""num_scrambled_schematic"":""4"",""participantId"":""ADE33812DFEE4679855302BB37ABFF84"",""assignmentId"":""0198ed2a-6fd3-7c91-b6a0-3555c47bbe09"",""projectId"":""0198ed26-a6a7-793d-982a-8940a71ab262""}","https://test12345.live/?num_scrambled_semantic=8&num_scrambled_causal=4&num_scrambled_schematic=4&participantId=ADE33812DFEE4679855302BB37ABFF84&assignmentId=0198ed2a-6fd3-7c91-b6a0-3555c47bbe09&projectId=0198ed26-a6a7-793d-982a-8940a71ab262","ADE33812DFEE4679855302BB37ABFF84-2025-08-27-21-43-24","","null","","[]","null","",""
"","","","","","image-button-response","72","2051057","0.0-12.0-1.0-0.5","ADE33812DFEE4679855302BB37ABFF84","ADE33812DFEE4679855302BB37ABFF84","0198ed2a-6fd3-7c91-b6a0-3555c47bbe09","0198ed26-a6a7-793d-982a-8940a71ab262","{""num_scrambled_semantic"":""8"",""num_scrambled_causal"":""4"",""num_scrambled_schematic"":""4"",""participantId"":""ADE33812DFEE4679855302BB37ABFF84"",""assignmentId"":""0198ed2a-6fd3-7c91-b6a0-3555c47bbe09"",""projectId"":""0198ed26-a6a7-793d-982a-8940a71ab262""}","https://test12345.live/?num_scrambled_semantic=8&num_scrambled_causal=4&num_scrambled_schematic=4&participantId=ADE33812DFEE4679855302BB37ABFF84&assignmentId=0198ed2a-6fd3-7c91-b6a0-3555c47bbe09&projectId=0198ed26-a6a7-793d-982a-8940a71ab262","ADE33812DFEE4679855302BB37ABFF84-2025-08-27-21-43-24","","null","","images/schematic_sequence/hotel_scheme/hotel_scheme_6.png","null","",""
"","","","","","image-button-response","73","2055074","0.0-12.0-1.0-1.5","ADE33812DFEE4679855302BB37ABFF84","ADE33812DFEE4679855302BB37ABFF84","0198ed2a-6fd3-7c91-b6a0-3555c47bbe09","0198ed26-a6a7-793d-982a-8940a71ab262","{""num_scrambled_semantic"":""8"",""num_scrambled_causal"":""4"",""num_scrambled_schematic"":""4"",""participantId"":""ADE33812DFEE4679855302BB37ABFF84"",""assignmentId"":""0198ed2a-6fd3-7c91-b6a0-3555c47bbe09"",""projectId"":""0198ed26-a6a7-793d-982a-8940a71ab262""}","https://test12345.live/?num_scrambled_semantic=8&num_scrambled_causal=4&num_scrambled_schematic=4&participantId=ADE33812DFEE4679855302BB37ABFF84&assignmentId=0198ed2a-6fd3-7c91-b6a0-3555c47bbe09&projectId=0198ed26-a6a7-793d-982a-8940a71ab262","ADE33812DFEE4679855302BB37ABFF84-2025-08-27-21-43-24","","null","","images/schematic_sequence/hotel_scheme/hotel_scheme_6.png","null","",""
"","","","","","image-button-response","74","2056884","0.0-12.0-1.0-2.5","ADE33812DFEE4679855302BB37ABFF84","ADE33812DFEE4679855302BB37ABFF84","0198ed2a-6fd3-7c91-b6a0-3555c47bbe09","0198ed26-a6a7-793d-982a-8940a71ab262","{""num_scrambled_semantic"":""8"",""num_scrambled_causal"":""4"",""num_scrambled_schematic"":""4"",""participantId"":""ADE33812DFEE4679855302BB37ABFF84"",""assignmentId"":""0198ed2a-6fd3-7c91-b6a0-3555c47bbe09"",""projectId"":""0198ed26-a6a7-793d-982a-8940a71ab262""}","https://test12345.live/?num_scrambled_semantic=8&num_scrambled_causal=4&num_scrambled_schematic=4&participantId=ADE33812DFEE4679855302BB37ABFF84&assignmentId=0198ed2a-6fd3-7c91-b6a0-3555c47bbe09&projectId=0198ed26-a6a7-793d-982a-8940a71ab262","ADE33812DFEE4679855302BB37ABFF84-2025-08-27-21-43-24","","null","","[]","null","",""
"","","","","","image-button-response","75","2061390","0.0-12.0-1.0-0.6","ADE33812DFEE4679855302BB37ABFF84","ADE33812DFEE4679855302BB37ABFF84","0198ed2a-6fd3-7c91-b6a0-3555c47bbe09","0198ed26-a6a7-793d-982a-8940a71ab262","{""num_scrambled_semantic"":""8"",""num_scrambled_causal"":""4"",""num_scrambled_schematic"":""4"",""participantId"":""ADE33812DFEE4679855302BB37ABFF84"",""assignmentId"":""0198ed2a-6fd3-7c91-b6a0-3555c47bbe09"",""projectId"":""0198ed26-a6a7-793d-982a-8940a71ab262""}","https://test12345.live/?num_scrambled_semantic=8&num_scrambled_causal=4&num_scrambled_schematic=4&participantId=ADE33812DFEE4679855302BB37ABFF84&assignmentId=0198ed2a-6fd3-7c91-b6a0-3555c47bbe09&projectId=0198ed26-a6a7-793d-982a-8940a71ab262","ADE33812DFEE4679855302BB37ABFF84-2025-08-27-21-43-24","","null","","images/schematic_sequence/hotel_scheme/hotel_scheme_7.png","null","",""
"","","","","","image-button-response","76","2064550","0.0-12.0-1.0-1.6","ADE33812DFEE4679855302BB37ABFF84","ADE33812DFEE4679855302BB37ABFF84","0198ed2a-6fd3-7c91-b6a0-3555c47bbe09","0198ed26-a6a7-793d-982a-8940a71ab262","{""num_scrambled_semantic"":""8"",""num_scrambled_causal"":""4"",""num_scrambled_schematic"":""4"",""participantId"":""ADE33812DFEE4679855302BB37ABFF84"",""assignmentId"":""0198ed2a-6fd3-7c91-b6a0-3555c47bbe09"",""projectId"":""0198ed26-a6a7-793d-982a-8940a71ab262""}","https://test12345.live/?num_scrambled_semantic=8&num_scrambled_causal=4&num_scrambled_schematic=4&participantId=ADE33812DFEE4679855302BB37ABFF84&assignmentId=0198ed2a-6fd3-7c91-b6a0-3555c47bbe09&projectId=0198ed26-a6a7-793d-982a-8940a71ab262","ADE33812DFEE4679855302BB37ABFF84-2025-08-27-21-43-24","","3159","","images/schematic_sequence/hotel_scheme/hotel_scheme_7.png","0","",""
"","","","","","image-button-response","77","2066356","0.0-12.0-1.0-2.6","ADE33812DFEE4679855302BB37ABFF84","ADE33812DFEE4679855302BB37ABFF84","0198ed2a-6fd3-7c91-b6a0-3555c47bbe09","0198ed26-a6a7-793d-982a-8940a71ab262","{""num_scrambled_semantic"":""8"",""num_scrambled_causal"":""4"",""num_scrambled_schematic"":""4"",""participantId"":""ADE33812DFEE4679855302BB37ABFF84"",""assignmentId"":""0198ed2a-6fd3-7c91-b6a0-3555c47bbe09"",""projectId"":""0198ed26-a6a7-793d-982a-8940a71ab262""}","https://test12345.live/?num_scrambled_semantic=8&num_scrambled_causal=4&num_scrambled_schematic=4&participantId=ADE33812DFEE4679855302BB37ABFF84&assignmentId=0198ed2a-6fd3-7c91-b6a0-3555c47bbe09&projectId=0198ed26-a6a7-793d-982a-8940a71ab262","ADE33812DFEE4679855302BB37ABFF84-2025-08-27-21-43-24","","null","","[]","null","",""
"","","","","","image-button-response","78","2070869","0.0-12.0-1.0-0.7","ADE33812DFEE4679855302BB37ABFF84","ADE33812DFEE4679855302BB37ABFF84","0198ed2a-6fd3-7c91-b6a0-3555c47bbe09","0198ed26-a6a7-793d-982a-8940a71ab262","{""num_scrambled_semantic"":""8"",""num_scrambled_causal"":""4"",""num_scrambled_schematic"":""4"",""participantId"":""ADE33812DFEE4679855302BB37ABFF84"",""assignmentId"":""0198ed2a-6fd3-7c91-b6a0-3555c47bbe09"",""projectId"":""0198ed26-a6a7-793d-982a-8940a71ab262""}","https://test12345.live/?num_scrambled_semantic=8&num_scrambled_causal=4&num_scrambled_schematic=4&participantId=ADE33812DFEE4679855302BB37ABFF84&assignmentId=0198ed2a-6fd3-7c91-b6a0-3555c47bbe09&projectId=0198ed26-a6a7-793d-982a-8940a71ab262","ADE33812DFEE4679855302BB37ABFF84-2025-08-27-21-43-24","","null","","images/schematic_sequence/hotel_scheme/hotel_scheme_8.png","null","",""
"","","","","","image-button-response","79","2071674","0.0-12.0-1.0-1.7","ADE33812DFEE4679855302BB37ABFF84","ADE33812DFEE4679855302BB37ABFF84","0198ed2a-6fd3-7c91-b6a0-3555c47bbe09","0198ed26-a6a7-793d-982a-8940a71ab262","{""num_scrambled_semantic"":""8"",""num_scrambled_causal"":""4"",""num_scrambled_schematic"":""4"",""participantId"":""ADE33812DFEE4679855302BB37ABFF84"",""assignmentId"":""0198ed2a-6fd3-7c91-b6a0-3555c47bbe09"",""projectId"":""0198ed26-a6a7-793d-982a-8940a71ab262""}","https://test12345.live/?num_scrambled_semantic=8&num_scrambled_causal=4&num_scrambled_schematic=4&participantId=ADE33812DFEE4679855302BB37ABFF84&assignmentId=0198ed2a-6fd3-7c91-b6a0-3555c47bbe09&projectId=0198ed26-a6a7-793d-982a-8940a71ab262","ADE33812DFEE4679855302BB37ABFF84-2025-08-27-21-43-24","","803","","images/schematic_sequence/hotel_scheme/hotel_scheme_8.png","0","",""
"","","","","","image-button-response","80","2073486","0.0-12.0-1.0-2.7","ADE33812DFEE4679855302BB37ABFF84","ADE33812DFEE4679855302BB37ABFF84","0198ed2a-6fd3-7c91-b6a0-3555c47bbe09","0198ed26-a6a7-793d-982a-8940a71ab262","{""num_scrambled_semantic"":""8"",""num_scrambled_causal"":""4"",""num_scrambled_schematic"":""4"",""participantId"":""ADE33812DFEE4679855302BB37ABFF84"",""assignmentId"":""0198ed2a-6fd3-7c91-b6a0-3555c47bbe09"",""projectId"":""0198ed26-a6a7-793d-982a-8940a71ab262""}","https://test12345.live/?num_scrambled_semantic=8&num_scrambled_causal=4&num_scrambled_schematic=4&participantId=ADE33812DFEE4679855302BB37ABFF84&assignmentId=0198ed2a-6fd3-7c91-b6a0-3555c47bbe09&projectId=0198ed26-a6a7-793d-982a-8940a71ab262","ADE33812DFEE4679855302BB37ABFF84-2025-08-27-21-43-24","","null","","[]","null","",""
"","","","","","image-button-response","81","2077999","0.0-12.0-1.0-0.8","ADE33812DFEE4679855302BB37ABFF84","ADE33812DFEE4679855302BB37ABFF84","0198ed2a-6fd3-7c91-b6a0-3555c47bbe09","0198ed26-a6a7-793d-982a-8940a71ab262","{""num_scrambled_semantic"":""8"",""num_scrambled_causal"":""4"",""num_scrambled_schematic"":""4"",""participantId"":""ADE33812DFEE4679855302BB37ABFF84"",""assignmentId"":""0198ed2a-6fd3-7c91-b6a0-3555c47bbe09"",""projectId"":""0198ed26-a6a7-793d-982a-8940a71ab262""}","https://test12345.live/?num_scrambled_semantic=8&num_scrambled_causal=4&num_scrambled_schematic=4&participantId=ADE33812DFEE4679855302BB37ABFF84&assignmentId=0198ed2a-6fd3-7c91-b6a0-3555c47bbe09&projectId=0198ed26-a6a7-793d-982a-8940a71ab262","ADE33812DFEE4679855302BB37ABFF84-2025-08-27-21-43-24","","null","","images/schematic_sequence/hotel_scheme/hotel_scheme_9.png","null","",""
"","","","","","image-button-response","82","2079175","0.0-12.0-1.0-1.8","ADE33812DFEE4679855302BB37ABFF84","ADE33812DFEE4679855302BB37ABFF84","0198ed2a-6fd3-7c91-b6a0-3555c47bbe09","0198ed26-a6a7-793d-982a-8940a71ab262","{""num_scrambled_semantic"":""8"",""num_scrambled_causal"":""4"",""num_scrambled_schematic"":""4"",""participantId"":""ADE33812DFEE4679855302BB37ABFF84"",""assignmentId"":""0198ed2a-6fd3-7c91-b6a0-3555c47bbe09"",""projectId"":""0198ed26-a6a7-793d-982a-8940a71ab262""}","https://test12345.live/?num_scrambled_semantic=8&num_scrambled_causal=4&num_scrambled_schematic=4&participantId=ADE33812DFEE4679855302BB37ABFF84&assignmentId=0198ed2a-6fd3-7c91-b6a0-3555c47bbe09&projectId=0198ed26-a6a7-793d-982a-8940a71ab262","ADE33812DFEE4679855302BB37ABFF84-2025-08-27-21-43-24","","1175","","images/schematic_sequence/hotel_scheme/hotel_scheme_9.png","0","",""
"","","","","","image-button-response","83","2080987","0.0-12.0-1.0-2.8","ADE33812DFEE4679855302BB37ABFF84","ADE33812DFEE4679855302BB37ABFF84","0198ed2a-6fd3-7c91-b6a0-3555c47bbe09","0198ed26-a6a7-793d-982a-8940a71ab262","{""num_scrambled_semantic"":""8"",""num_scrambled_causal"":""4"",""num_scrambled_schematic"":""4"",""participantId"":""ADE33812DFEE4679855302BB37ABFF84"",""assignmentId"":""0198ed2a-6fd3-7c91-b6a0-3555c47bbe09"",""projectId"":""0198ed26-a6a7-793d-982a-8940a71ab262""}","https://test12345.live/?num_scrambled_semantic=8&num_scrambled_causal=4&num_scrambled_schematic=4&participantId=ADE33812DFEE4679855302BB37ABFF84&assignmentId=0198ed2a-6fd3-7c91-b6a0-3555c47bbe09&projectId=0198ed26-a6a7-793d-982a-8940a71ab262","ADE33812DFEE4679855302BB37ABFF84-2025-08-27-21-43-24","","null","","[]","null","",""
"","","","","","image-button-response","84","2085499","0.0-12.0-1.0-0.9","ADE33812DFEE4679855302BB37ABFF84","ADE33812DFEE4679855302BB37ABFF84","0198ed2a-6fd3-7c91-b6a0-3555c47bbe09","0198ed26-a6a7-793d-982a-8940a71ab262","{""num_scrambled_semantic"":""8"",""num_scrambled_causal"":""4"",""num_scrambled_schematic"":""4"",""participantId"":""ADE33812DFEE4679855302BB37ABFF84"",""assignmentId"":""0198ed2a-6fd3-7c91-b6a0-3555c47bbe09"",""projectId"":""0198ed26-a6a7-793d-982a-8940a71ab262""}","https://test12345.live/?num_scrambled_semantic=8&num_scrambled_causal=4&num_scrambled_schematic=4&participantId=ADE33812DFEE4679855302BB37ABFF84&assignmentId=0198ed2a-6fd3-7c91-b6a0-3555c47bbe09&projectId=0198ed26-a6a7-793d-982a-8940a71ab262","ADE33812DFEE4679855302BB37ABFF84-2025-08-27-21-43-24","","null","","images/schematic_sequence/hotel_scheme/hotel_scheme_ten.png","null","",""
"","","","","","image-button-response","85","2086506","0.0-12.0-1.0-1.9","ADE33812DFEE4679855302BB37ABFF84","ADE33812DFEE4679855302BB37ABFF84","0198ed2a-6fd3-7c91-b6a0-3555c47bbe09","0198ed26-a6a7-793d-982a-8940a71ab262","{""num_scrambled_semantic"":""8"",""num_scrambled_causal"":""4"",""num_scrambled_schematic"":""4"",""participantId"":""ADE33812DFEE4679855302BB37ABFF84"",""assignmentId"":""0198ed2a-6fd3-7c91-b6a0-3555c47bbe09"",""projectId"":""0198ed26-a6a7-793d-982a-8940a71ab262""}","https://test12345.live/?num_scrambled_semantic=8&num_scrambled_causal=4&num_scrambled_schematic=4&participantId=ADE33812DFEE4679855302BB37ABFF84&assignmentId=0198ed2a-6fd3-7c91-b6a0-3555c47bbe09&projectId=0198ed26-a6a7-793d-982a-8940a71ab262","ADE33812DFEE4679855302BB37ABFF84-2025-08-27-21-43-24","","1006","","images/schematic_sequence/hotel_scheme/hotel_scheme_ten.png","0","",""
"","","","","","image-button-response","86","2088325","0.0-12.0-1.0-2.9","ADE33812DFEE4679855302BB37ABFF84","ADE33812DFEE4679855302BB37ABFF84","0198ed2a-6fd3-7c91-b6a0-3555c47bbe09","0198ed26-a6a7-793d-982a-8940a71ab262","{""num_scrambled_semantic"":""8"",""num_scrambled_causal"":""4"",""num_scrambled_schematic"":""4"",""participantId"":""ADE33812DFEE4679855302BB37ABFF84"",""assignmentId"":""0198ed2a-6fd3-7c91-b6a0-3555c47bbe09"",""projectId"":""0198ed26-a6a7-793d-982a-8940a71ab262""}","https://test12345.live/?num_scrambled_semantic=8&num_scrambled_causal=4&num_scrambled_schematic=4&participantId=ADE33812DFEE4679855302BB37ABFF84&assignmentId=0198ed2a-6fd3-7c91-b6a0-3555c47bbe09&projectId=0198ed26-a6a7-793d-982a-8940a71ab262","ADE33812DFEE4679855302BB37ABFF84-2025-08-27-21-43-24","","null","","[]","null","",""
"","","","","","html-audio-response","87","2140706","0.0-13.0","ADE33812DFEE4679855302BB37ABFF84","ADE33812DFEE4679855302BB37ABFF84","0198ed2a-6fd3-7c91-b6a0-3555c47bbe09","0198ed26-a6a7-793d-982a-8940a71ab262","{""num_scrambled_semantic"":""8"",""num_scrambled_causal"":""4"",""num_scrambled_schematic"":""4"",""participantId"":""ADE33812DFEE4679855302BB37ABFF84"",""assignmentId"":""0198ed2a-6fd3-7c91-b6a0-3555c47bbe09"",""projectId"":""0198ed26-a6a7-793d-982a-8940a71ab262""}","https://test12345.live/?num_scrambled_semantic=8&num_scrambled_causal=4&num_scrambled_schematic=4&participantId=ADE33812DFEE4679855302BB37ABFF84&assignmentId=0198ed2a-6fd3-7c91-b6a0-3555c47bbe09&projectId=0198ed26-a6a7-793d-982a-8940a71ab262","ADE33812DFEE4679855302BB37ABFF84-2025-08-27-21-43-24","","32530","","[""<span style=\""color: red; font-size: 24px\""> NOW RECORDING</span><p>Please say out loud all the images you saw, in the order of the story they create. Try to recall the sequence of events as they appeared in the story, not necessarily the order they were presented on the screen.</p>""]","","1","hotel_scheme"
"","","","","","image-button-response","88","2146721","0.0-14.0-0.0","ADE33812DFEE4679855302BB37ABFF84","ADE33812DFEE4679855302BB37ABFF84","0198ed2a-6fd3-7c91-b6a0-3555c47bbe09","0198ed26-a6a7-793d-982a-8940a71ab262","{""num_scrambled_semantic"":""8"",""num_scrambled_causal"":""4"",""num_scrambled_schematic"":""4"",""participantId"":""ADE33812DFEE4679855302BB37ABFF84"",""assignmentId"":""0198ed2a-6fd3-7c91-b6a0-3555c47bbe09"",""projectId"":""0198ed26-a6a7-793d-982a-8940a71ab262""}","https://test12345.live/?num_scrambled_semantic=8&num_scrambled_causal=4&num_scrambled_schematic=4&participantId=ADE33812DFEE4679855302BB37ABFF84&assignmentId=0198ed2a-6fd3-7c91-b6a0-3555c47bbe09&projectId=0198ed26-a6a7-793d-982a-8940a71ab262","ADE33812DFEE4679855302BB37ABFF84-2025-08-27-21-43-24","","null","","images/causal_sequence/museum_causal/museum_causal_0.png","null","",""
"","","","","","image-button-response","89","2151228","0.0-14.0-1.0-0.0","ADE33812DFEE4679855302BB37ABFF84","ADE33812DFEE4679855302BB37ABFF84","0198ed2a-6fd3-7c91-b6a0-3555c47bbe09","0198ed26-a6a7-793d-982a-8940a71ab262","{""num_scrambled_semantic"":""8"",""num_scrambled_causal"":""4"",""num_scrambled_schematic"":""4"",""participantId"":""ADE33812DFEE4679855302BB37ABFF84"",""assignmentId"":""0198ed2a-6fd3-7c91-b6a0-3555c47bbe09"",""projectId"":""0198ed26-a6a7-793d-982a-8940a71ab262""}","https://test12345.live/?num_scrambled_semantic=8&num_scrambled_causal=4&num_scrambled_schematic=4&participantId=ADE33812DFEE4679855302BB37ABFF84&assignmentId=0198ed2a-6fd3-7c91-b6a0-3555c47bbe09&projectId=0198ed26-a6a7-793d-982a-8940a71ab262","ADE33812DFEE4679855302BB37ABFF84-2025-08-27-21-43-24","","null","","images/causal_sequence/museum_causal/museum_causal_1.png","null","",""
"","","","","","image-button-response","90","2153770","0.0-14.0-1.0-1.0","ADE33812DFEE4679855302BB37ABFF84","ADE33812DFEE4679855302BB37ABFF84","0198ed2a-6fd3-7c91-b6a0-3555c47bbe09","0198ed26-a6a7-793d-982a-8940a71ab262","{""num_scrambled_semantic"":""8"",""num_scrambled_causal"":""4"",""num_scrambled_schematic"":""4"",""participantId"":""ADE33812DFEE4679855302BB37ABFF84"",""assignmentId"":""0198ed2a-6fd3-7c91-b6a0-3555c47bbe09"",""projectId"":""0198ed26-a6a7-793d-982a-8940a71ab262""}","https://test12345.live/?num_scrambled_semantic=8&num_scrambled_causal=4&num_scrambled_schematic=4&participantId=ADE33812DFEE4679855302BB37ABFF84&assignmentId=0198ed2a-6fd3-7c91-b6a0-3555c47bbe09&projectId=0198ed26-a6a7-793d-982a-8940a71ab262","ADE33812DFEE4679855302BB37ABFF84-2025-08-27-21-43-24","","2541","","images/causal_sequence/museum_causal/museum_causal_1.png","0","",""
"","","","","","image-button-response","91","2155581","0.0-14.0-1.0-2.0","ADE33812DFEE4679855302BB37ABFF84","ADE33812DFEE4679855302BB37ABFF84","0198ed2a-6fd3-7c91-b6a0-3555c47bbe09","0198ed26-a6a7-793d-982a-8940a71ab262","{""num_scrambled_semantic"":""8"",""num_scrambled_causal"":""4"",""num_scrambled_schematic"":""4"",""participantId"":""ADE33812DFEE4679855302BB37ABFF84"",""assignmentId"":""0198ed2a-6fd3-7c91-b6a0-3555c47bbe09"",""projectId"":""0198ed26-a6a7-793d-982a-8940a71ab262""}","https://test12345.live/?num_scrambled_semantic=8&num_scrambled_causal=4&num_scrambled_schematic=4&participantId=ADE33812DFEE4679855302BB37ABFF84&assignmentId=0198ed2a-6fd3-7c91-b6a0-3555c47bbe09&projectId=0198ed26-a6a7-793d-982a-8940a71ab262","ADE33812DFEE4679855302BB37ABFF84-2025-08-27-21-43-24","","null","","[]","null","",""
"","","","","","image-button-response","92","2160096","0.0-14.0-1.0-0.1","ADE33812DFEE4679855302BB37ABFF84","ADE33812DFEE4679855302BB37ABFF84","0198ed2a-6fd3-7c91-b6a0-3555c47bbe09","0198ed26-a6a7-793d-982a-8940a71ab262","{""num_scrambled_semantic"":""8"",""num_scrambled_causal"":""4"",""num_scrambled_schematic"":""4"",""participantId"":""ADE33812DFEE4679855302BB37ABFF84"",""assignmentId"":""0198ed2a-6fd3-7c91-b6a0-3555c47bbe09"",""projectId"":""0198ed26-a6a7-793d-982a-8940a71ab262""}","https://test12345.live/?num_scrambled_semantic=8&num_scrambled_causal=4&num_scrambled_schematic=4&participantId=ADE33812DFEE4679855302BB37ABFF84&assignmentId=0198ed2a-6fd3-7c91-b6a0-3555c47bbe09&projectId=0198ed26-a6a7-793d-982a-8940a71ab262","ADE33812DFEE4679855302BB37ABFF84-2025-08-27-21-43-24","","null","","images/causal_sequence/museum_causal/museum_causal_2.png","null","",""
"","","","","","image-button-response","93","2162059","0.0-14.0-1.0-1.1","ADE33812DFEE4679855302BB37ABFF84","ADE33812DFEE4679855302BB37ABFF84","0198ed2a-6fd3-7c91-b6a0-3555c47bbe09","0198ed26-a6a7-793d-982a-8940a71ab262","{""num_scrambled_semantic"":""8"",""num_scrambled_causal"":""4"",""num_scrambled_schematic"":""4"",""participantId"":""ADE33812DFEE4679855302BB37ABFF84"",""assignmentId"":""0198ed2a-6fd3-7c91-b6a0-3555c47bbe09"",""projectId"":""0198ed26-a6a7-793d-982a-8940a71ab262""}","https://test12345.live/?num_scrambled_semantic=8&num_scrambled_causal=4&num_scrambled_schematic=4&participantId=ADE33812DFEE4679855302BB37ABFF84&assignmentId=0198ed2a-6fd3-7c91-b6a0-3555c47bbe09&projectId=0198ed26-a6a7-793d-982a-8940a71ab262","ADE33812DFEE4679855302BB37ABFF84-2025-08-27-21-43-24","","1962","","images/causal_sequence/museum_causal/museum_causal_2.png","0","",""
"","","","","","image-button-response","94","2163862","0.0-14.0-1.0-2.1","ADE33812DFEE4679855302BB37ABFF84","ADE33812DFEE4679855302BB37ABFF84","0198ed2a-6fd3-7c91-b6a0-3555c47bbe09","0198ed26-a6a7-793d-982a-8940a71ab262","{""num_scrambled_semantic"":""8"",""num_scrambled_causal"":""4"",""num_scrambled_schematic"":""4"",""participantId"":""ADE33812DFEE4679855302BB37ABFF84"",""assignmentId"":""0198ed2a-6fd3-7c91-b6a0-3555c47bbe09"",""projectId"":""0198ed26-a6a7-793d-982a-8940a71ab262""}","https://test12345.live/?num_scrambled_semantic=8&num_scrambled_causal=4&num_scrambled_schematic=4&participantId=ADE33812DFEE4679855302BB37ABFF84&assignmentId=0198ed2a-6fd3-7c91-b6a0-3555c47bbe09&projectId=0198ed26-a6a7-793d-982a-8940a71ab262","ADE33812DFEE4679855302BB37ABFF84-2025-08-27-21-43-24","","null","","[]","null","",""
"","","","","","image-button-response","95","2168370","0.0-14.0-1.0-0.2","ADE33812DFEE4679855302BB37ABFF84","ADE33812DFEE4679855302BB37ABFF84","0198ed2a-6fd3-7c91-b6a0-3555c47bbe09","0198ed26-a6a7-793d-982a-8940a71ab262","{""num_scrambled_semantic"":""8"",""num_scrambled_causal"":""4"",""num_scrambled_schematic"":""4"",""participantId"":""ADE33812DFEE4679855302BB37ABFF84"",""assignmentId"":""0198ed2a-6fd3-7c91-b6a0-3555c47bbe09"",""projectId"":""0198ed26-a6a7-793d-982a-8940a71ab262""}","https://test12345.live/?num_scrambled_semantic=8&num_scrambled_causal=4&num_scrambled_schematic=4&participantId=ADE33812DFEE4679855302BB37ABFF84&assignmentId=0198ed2a-6fd3-7c91-b6a0-3555c47bbe09&projectId=0198ed26-a6a7-793d-982a-8940a71ab262","ADE33812DFEE4679855302BB37ABFF84-2025-08-27-21-43-24","","null","","images/causal_sequence/museum_causal/museum_causal_3.png","null","",""
"","","","","","image-button-response","96","2170613","0.0-14.0-1.0-1.2","ADE33812DFEE4679855302BB37ABFF84","ADE33812DFEE4679855302BB37ABFF84","0198ed2a-6fd3-7c91-b6a0-3555c47bbe09","0198ed26-a6a7-793d-982a-8940a71ab262","{""num_scrambled_semantic"":""8"",""num_scrambled_causal"":""4"",""num_scrambled_schematic"":""4"",""participantId"":""ADE33812DFEE4679855302BB37ABFF84"",""assignmentId"":""0198ed2a-6fd3-7c91-b6a0-3555c47bbe09"",""projectId"":""0198ed26-a6a7-793d-982a-8940a71ab262""}","https://test12345.live/?num_scrambled_semantic=8&num_scrambled_causal=4&num_scrambled_schematic=4&participantId=ADE33812DFEE4679855302BB37ABFF84&assignmentId=0198ed2a-6fd3-7c91-b6a0-3555c47bbe09&projectId=0198ed26-a6a7-793d-982a-8940a71ab262","ADE33812DFEE4679855302BB37ABFF84-2025-08-27-21-43-24","","2242","","images/causal_sequence/museum_causal/museum_causal_3.png","0","",""
"","","","","","image-button-response","97","2172422","0.0-14.0-1.0-2.2","ADE33812DFEE4679855302BB37ABFF84","ADE33812DFEE4679855302BB37ABFF84","0198ed2a-6fd3-7c91-b6a0-3555c47bbe09","0198ed26-a6a7-793d-982a-8940a71ab262","{""num_scrambled_semantic"":""8"",""num_scrambled_causal"":""4"",""num_scrambled_schematic"":""4"",""participantId"":""ADE33812DFEE4679855302BB37ABFF84"",""assignmentId"":""0198ed2a-6fd3-7c91-b6a0-3555c47bbe09"",""projectId"":""0198ed26-a6a7-793d-982a-8940a71ab262""}","https://test12345.live/?num_scrambled_semantic=8&num_scrambled_causal=4&num_scrambled_schematic=4&participantId=ADE33812DFEE4679855302BB37ABFF84&assignmentId=0198ed2a-6fd3-7c91-b6a0-3555c47bbe09&projectId=0198ed26-a6a7-793d-982a-8940a71ab262","ADE33812DFEE4679855302BB37ABFF84-2025-08-27-21-43-24","","null","","[]","null","",""
"","","","","","image-button-response","98","2176925","0.0-14.0-1.0-0.3","ADE33812DFEE4679855302BB37ABFF84","ADE33812DFEE4679855302BB37ABFF84","0198ed2a-6fd3-7c91-b6a0-3555c47bbe09","0198ed26-a6a7-793d-982a-8940a71ab262","{""num_scrambled_semantic"":""8"",""num_scrambled_causal"":""4"",""num_scrambled_schematic"":""4"",""participantId"":""ADE33812DFEE4679855302BB37ABFF84"",""assignmentId"":""0198ed2a-6fd3-7c91-b6a0-3555c47bbe09"",""projectId"":""0198ed26-a6a7-793d-982a-8940a71ab262""}","https://test12345.live/?num_scrambled_semantic=8&num_scrambled_causal=4&num_scrambled_schematic=4&participantId=ADE33812DFEE4679855302BB37ABFF84&assignmentId=0198ed2a-6fd3-7c91-b6a0-3555c47bbe09&projectId=0198ed26-a6a7-793d-982a-8940a71ab262","ADE33812DFEE4679855302BB37ABFF84-2025-08-27-21-43-24","","null","","images/causal_sequence/museum_causal/museum_causal_4.png","null","",""
"","","","","","image-button-response","99","2180001","0.0-14.0-1.0-1.3","ADE33812DFEE4679855302BB37ABFF84","ADE33812DFEE4679855302BB37ABFF84","0198ed2a-6fd3-7c91-b6a0-3555c47bbe09","0198ed26-a6a7-793d-982a-8940a71ab262","{""num_scrambled_semantic"":""8"",""num_scrambled_causal"":""4"",""num_scrambled_schematic"":""4"",""participantId"":""ADE33812DFEE4679855302BB37ABFF84"",""assignmentId"":""0198ed2a-6fd3-7c91-b6a0-3555c47bbe09"",""projectId"":""0198ed26-a6a7-793d-982a-8940a71ab262""}","https://test12345.live/?num_scrambled_semantic=8&num_scrambled_causal=4&num_scrambled_schematic=4&participantId=ADE33812DFEE4679855302BB37ABFF84&assignmentId=0198ed2a-6fd3-7c91-b6a0-3555c47bbe09&projectId=0198ed26-a6a7-793d-982a-8940a71ab262","ADE33812DFEE4679855302BB37ABFF84-2025-08-27-21-43-24","","3075","","images/causal_sequence/museum_causal/museum_causal_4.png","1","",""
"","","","","","image-button-response","100","2181808","0.0-14.0-1.0-2.3","ADE33812DFEE4679855302BB37ABFF84","ADE33812DFEE4679855302BB37ABFF84","0198ed2a-6fd3-7c91-b6a0-3555c47bbe09","0198ed26-a6a7-793d-982a-8940a71ab262","{""num_scrambled_semantic"":""8"",""num_scrambled_causal"":""4"",""num_scrambled_schematic"":""4"",""participantId"":""ADE33812DFEE4679855302BB37ABFF84"",""assignmentId"":""0198ed2a-6fd3-7c91-b6a0-3555c47bbe09"",""projectId"":""0198ed26-a6a7-793d-982a-8940a71ab262""}","https://test12345.live/?num_scrambled_semantic=8&num_scrambled_causal=4&num_scrambled_schematic=4&participantId=ADE33812DFEE4679855302BB37ABFF84&assignmentId=0198ed2a-6fd3-7c91-b6a0-3555c47bbe09&projectId=0198ed26-a6a7-793d-982a-8940a71ab262","ADE33812DFEE4679855302BB37ABFF84-2025-08-27-21-43-24","","null","","[]","null","",""
"","","","","","image-button-response","101","2186311","0.0-14.0-1.0-0.4","ADE33812DFEE4679855302BB37ABFF84","ADE33812DFEE4679855302BB37ABFF84","0198ed2a-6fd3-7c91-b6a0-3555c47bbe09","0198ed26-a6a7-793d-982a-8940a71ab262","{""num_scrambled_semantic"":""8"",""num_scrambled_causal"":""4"",""num_scrambled_schematic"":""4"",""participantId"":""ADE33812DFEE4679855302BB37ABFF84"",""assignmentId"":""0198ed2a-6fd3-7c91-b6a0-3555c47bbe09"",""projectId"":""0198ed26-a6a7-793d-982a-8940a71ab262""}","https://test12345.live/?num_scrambled_semantic=8&num_scrambled_causal=4&num_scrambled_schematic=4&participantId=ADE33812DFEE4679855302BB37ABFF84&assignmentId=0198ed2a-6fd3-7c91-b6a0-3555c47bbe09&projectId=0198ed26-a6a7-793d-982a-8940a71ab262","ADE33812DFEE4679855302BB37ABFF84-2025-08-27-21-43-24","","null","","images/causal_sequence/museum_causal/museum_causal_5.png","null","",""
"","","","","","image-button-response","102","2187750","0.0-14.0-1.0-1.4","ADE33812DFEE4679855302BB37ABFF84","ADE33812DFEE4679855302BB37ABFF84","0198ed2a-6fd3-7c91-b6a0-3555c47bbe09","0198ed26-a6a7-793d-982a-8940a71ab262","{""num_scrambled_semantic"":""8"",""num_scrambled_causal"":""4"",""num_scrambled_schematic"":""4"",""participantId"":""ADE33812DFEE4679855302BB37ABFF84"",""assignmentId"":""0198ed2a-6fd3-7c91-b6a0-3555c47bbe09"",""projectId"":""0198ed26-a6a7-793d-982a-8940a71ab262""}","https://test12345.live/?num_scrambled_semantic=8&num_scrambled_causal=4&num_scrambled_schematic=4&participantId=ADE33812DFEE4679855302BB37ABFF84&assignmentId=0198ed2a-6fd3-7c91-b6a0-3555c47bbe09&projectId=0198ed26-a6a7-793d-982a-8940a71ab262","ADE33812DFEE4679855302BB37ABFF84-2025-08-27-21-43-24","","1438","","images/causal_sequence/museum_causal/museum_causal_5.png","0","",""
"","","","","","image-button-response","103","2189558","0.0-14.0-1.0-2.4","ADE33812DFEE4679855302BB37ABFF84","ADE33812DFEE4679855302BB37ABFF84","0198ed2a-6fd3-7c91-b6a0-3555c47bbe09","0198ed26-a6a7-793d-982a-8940a71ab262","{""num_scrambled_semantic"":""8"",""num_scrambled_causal"":""4"",""num_scrambled_schematic"":""4"",""participantId"":""ADE33812DFEE4679855302BB37ABFF84"",""assignmentId"":""0198ed2a-6fd3-7c91-b6a0-3555c47bbe09"",""projectId"":""0198ed26-a6a7-793d-982a-8940a71ab262""}","https://test12345.live/?num_scrambled_semantic=8&num_scrambled_causal=4&num_scrambled_schematic=4&participantId=ADE33812DFEE4679855302BB37ABFF84&assignmentId=0198ed2a-6fd3-7c91-b6a0-3555c47bbe09&projectId=0198ed26-a6a7-793d-982a-8940a71ab262","ADE33812DFEE4679855302BB37ABFF84-2025-08-27-21-43-24","","null","","[]","null","",""
"","","","","","image-button-response","104","2194073","0.0-14.0-1.0-0.5","ADE33812DFEE4679855302BB37ABFF84","ADE33812DFEE4679855302BB37ABFF84","0198ed2a-6fd3-7c91-b6a0-3555c47bbe09","0198ed26-a6a7-793d-982a-8940a71ab262","{""num_scrambled_semantic"":""8"",""num_scrambled_causal"":""4"",""num_scrambled_schematic"":""4"",""participantId"":""ADE33812DFEE4679855302BB37ABFF84"",""assignmentId"":""0198ed2a-6fd3-7c91-b6a0-3555c47bbe09"",""projectId"":""0198ed26-a6a7-793d-982a-8940a71ab262""}","https://test12345.live/?num_scrambled_semantic=8&num_scrambled_causal=4&num_scrambled_schematic=4&participantId=ADE33812DFEE4679855302BB37ABFF84&assignmentId=0198ed2a-6fd3-7c91-b6a0-3555c47bbe09&projectId=0198ed26-a6a7-793d-982a-8940a71ab262","ADE33812DFEE4679855302BB37ABFF84-2025-08-27-21-43-24","","null","","images/causal_sequence/museum_causal/museum_causal_6.png","null","",""
"","","","","","image-button-response","105","2196123","0.0-14.0-1.0-1.5","ADE33812DFEE4679855302BB37ABFF84","ADE33812DFEE4679855302BB37ABFF84","0198ed2a-6fd3-7c91-b6a0-3555c47bbe09","0198ed26-a6a7-793d-982a-8940a71ab262","{""num_scrambled_semantic"":""8"",""num_scrambled_causal"":""4"",""num_scrambled_schematic"":""4"",""participantId"":""ADE33812DFEE4679855302BB37ABFF84"",""assignmentId"":""0198ed2a-6fd3-7c91-b6a0-3555c47bbe09"",""projectId"":""0198ed26-a6a7-793d-982a-8940a71ab262""}","https://test12345.live/?num_scrambled_semantic=8&num_scrambled_causal=4&num_scrambled_schematic=4&participantId=ADE33812DFEE4679855302BB37ABFF84&assignmentId=0198ed2a-6fd3-7c91-b6a0-3555c47bbe09&projectId=0198ed26-a6a7-793d-982a-8940a71ab262","ADE33812DFEE4679855302BB37ABFF84-2025-08-27-21-43-24","","2049","","images/causal_sequence/museum_causal/museum_causal_6.png","0","",""
"","","","","","image-button-response","106","2197932","0.0-14.0-1.0-2.5","ADE33812DFEE4679855302BB37ABFF84","ADE33812DFEE4679855302BB37ABFF84","0198ed2a-6fd3-7c91-b6a0-3555c47bbe09","0198ed26-a6a7-793d-982a-8940a71ab262","{""num_scrambled_semantic"":""8"",""num_scrambled_causal"":""4"",""num_scrambled_schematic"":""4"",""participantId"":""ADE33812DFEE4679855302BB37ABFF84"",""assignmentId"":""0198ed2a-6fd3-7c91-b6a0-3555c47bbe09"",""projectId"":""0198ed26-a6a7-793d-982a-8940a71ab262""}","https://test12345.live/?num_scrambled_semantic=8&num_scrambled_causal=4&num_scrambled_schematic=4&participantId=ADE33812DFEE4679855302BB37ABFF84&assignmentId=0198ed2a-6fd3-7c91-b6a0-3555c47bbe09&projectId=0198ed26-a6a7-793d-982a-8940a71ab262","ADE33812DFEE4679855302BB37ABFF84-2025-08-27-21-43-24","","null","","[]","null","",""
"","","","","","image-button-response","107","2202438","0.0-14.0-1.0-0.6","ADE33812DFEE4679855302BB37ABFF84","ADE33812DFEE4679855302BB37ABFF84","0198ed2a-6fd3-7c91-b6a0-3555c47bbe09","0198ed26-a6a7-793d-982a-8940a71ab262","{""num_scrambled_semantic"":""8"",""num_scrambled_causal"":""4"",""num_scrambled_schematic"":""4"",""participantId"":""ADE33812DFEE4679855302BB37ABFF84"",""assignmentId"":""0198ed2a-6fd3-7c91-b6a0-3555c47bbe09"",""projectId"":""0198ed26-a6a7-793d-982a-8940a71ab262""}","https://test12345.live/?num_scrambled_semantic=8&num_scrambled_causal=4&num_scrambled_schematic=4&participantId=ADE33812DFEE4679855302BB37ABFF84&assignmentId=0198ed2a-6fd3-7c91-b6a0-3555c47bbe09&projectId=0198ed26-a6a7-793d-982a-8940a71ab262","ADE33812DFEE4679855302BB37ABFF84-2025-08-27-21-43-24","","null","","images/causal_sequence/museum_causal/museum_causal_7.png","null","",""
"","","","","","image-button-response","108","2204297","0.0-14.0-1.0-1.6","ADE33812DFEE4679855302BB37ABFF84","ADE33812DFEE4679855302BB37ABFF84","0198ed2a-6fd3-7c91-b6a0-3555c47bbe09","0198ed26-a6a7-793d-982a-8940a71ab262","{""num_scrambled_semantic"":""8"",""num_scrambled_causal"":""4"",""num_scrambled_schematic"":""4"",""participantId"":""ADE33812DFEE4679855302BB37ABFF84"",""assignmentId"":""0198ed2a-6fd3-7c91-b6a0-3555c47bbe09"",""projectId"":""0198ed26-a6a7-793d-982a-8940a71ab262""}","https://test12345.live/?num_scrambled_semantic=8&num_scrambled_causal=4&num_scrambled_schematic=4&participantId=ADE33812DFEE4679855302BB37ABFF84&assignmentId=0198ed2a-6fd3-7c91-b6a0-3555c47bbe09&projectId=0198ed26-a6a7-793d-982a-8940a71ab262","ADE33812DFEE4679855302BB37ABFF84-2025-08-27-21-43-24","","1857","","images/causal_sequence/museum_causal/museum_causal_7.png","1","",""
"","","","","","image-button-response","109","2206112","0.0-14.0-1.0-2.6","ADE33812DFEE4679855302BB37ABFF84","ADE33812DFEE4679855302BB37ABFF84","0198ed2a-6fd3-7c91-b6a0-3555c47bbe09","0198ed26-a6a7-793d-982a-8940a71ab262","{""num_scrambled_semantic"":""8"",""num_scrambled_causal"":""4"",""num_scrambled_schematic"":""4"",""participantId"":""ADE33812DFEE4679855302BB37ABFF84"",""assignmentId"":""0198ed2a-6fd3-7c91-b6a0-3555c47bbe09"",""projectId"":""0198ed26-a6a7-793d-982a-8940a71ab262""}","https://test12345.live/?num_scrambled_semantic=8&num_scrambled_causal=4&num_scrambled_schematic=4&participantId=ADE33812DFEE4679855302BB37ABFF84&assignmentId=0198ed2a-6fd3-7c91-b6a0-3555c47bbe09&projectId=0198ed26-a6a7-793d-982a-8940a71ab262","ADE33812DFEE4679855302BB37ABFF84-2025-08-27-21-43-24","","null","","[]","null","",""
"","","","","","image-button-response","110","2210619","0.0-14.0-1.0-0.7","ADE33812DFEE4679855302BB37ABFF84","ADE33812DFEE4679855302BB37ABFF84","0198ed2a-6fd3-7c91-b6a0-3555c47bbe09","0198ed26-a6a7-793d-982a-8940a71ab262","{""num_scrambled_semantic"":""8"",""num_scrambled_causal"":""4"",""num_scrambled_schematic"":""4"",""participantId"":""ADE33812DFEE4679855302BB37ABFF84"",""assignmentId"":""0198ed2a-6fd3-7c91-b6a0-3555c47bbe09"",""projectId"":""0198ed26-a6a7-793d-982a-8940a71ab262""}","https://test12345.live/?num_scrambled_semantic=8&num_scrambled_causal=4&num_scrambled_schematic=4&participantId=ADE33812DFEE4679855302BB37ABFF84&assignmentId=0198ed2a-6fd3-7c91-b6a0-3555c47bbe09&projectId=0198ed26-a6a7-793d-982a-8940a71ab262","ADE33812DFEE4679855302BB37ABFF84-2025-08-27-21-43-24","","null","","images/causal_sequence/museum_causal/museum_causal_8.png","null","",""
"","","","","","image-button-response","111","2213705","0.0-14.0-1.0-1.7","ADE33812DFEE4679855302BB37ABFF84","ADE33812DFEE4679855302BB37ABFF84","0198ed2a-6fd3-7c91-b6a0-3555c47bbe09","0198ed26-a6a7-793d-982a-8940a71ab262","{""num_scrambled_semantic"":""8"",""num_scrambled_causal"":""4"",""num_scrambled_schematic"":""4"",""participantId"":""ADE33812DFEE4679855302BB37ABFF84"",""assignmentId"":""0198ed2a-6fd3-7c91-b6a0-3555c47bbe09"",""projectId"":""0198ed26-a6a7-793d-982a-8940a71ab262""}","https://test12345.live/?num_scrambled_semantic=8&num_scrambled_causal=4&num_scrambled_schematic=4&participantId=ADE33812DFEE4679855302BB37ABFF84&assignmentId=0198ed2a-6fd3-7c91-b6a0-3555c47bbe09&projectId=0198ed26-a6a7-793d-982a-8940a71ab262","ADE33812DFEE4679855302BB37ABFF84-2025-08-27-21-43-24","","3085","","images/causal_sequence/museum_causal/museum_causal_8.png","0","",""
"","","","","","image-button-response","112","2215515","0.0-14.0-1.0-2.7","ADE33812DFEE4679855302BB37ABFF84","ADE33812DFEE4679855302BB37ABFF84","0198ed2a-6fd3-7c91-b6a0-3555c47bbe09","0198ed26-a6a7-793d-982a-8940a71ab262","{""num_scrambled_semantic"":""8"",""num_scrambled_causal"":""4"",""num_scrambled_schematic"":""4"",""participantId"":""ADE33812DFEE4679855302BB37ABFF84"",""assignmentId"":""0198ed2a-6fd3-7c91-b6a0-3555c47bbe09"",""projectId"":""0198ed26-a6a7-793d-982a-8940a71ab262""}","https://test12345.live/?num_scrambled_semantic=8&num_scrambled_causal=4&num_scrambled_schematic=4&participantId=ADE33812DFEE4679855302BB37ABFF84&assignmentId=0198ed2a-6fd3-7c91-b6a0-3555c47bbe09&projectId=0198ed26-a6a7-793d-982a-8940a71ab262","ADE33812DFEE4679855302BB37ABFF84-2025-08-27-21-43-24","","null","","[]","null","",""
"","","","","","image-button-response","113","2220029","0.0-14.0-1.0-0.8","ADE33812DFEE4679855302BB37ABFF84","ADE33812DFEE4679855302BB37ABFF84","0198ed2a-6fd3-7c91-b6a0-3555c47bbe09","0198ed26-a6a7-793d-982a-8940a71ab262","{""num_scrambled_semantic"":""8"",""num_scrambled_causal"":""4"",""num_scrambled_schematic"":""4"",""participantId"":""ADE33812DFEE4679855302BB37ABFF84"",""assignmentId"":""0198ed2a-6fd3-7c91-b6a0-3555c47bbe09"",""projectId"":""0198ed26-a6a7-793d-982a-8940a71ab262""}","https://test12345.live/?num_scrambled_semantic=8&num_scrambled_causal=4&num_scrambled_schematic=4&participantId=ADE33812DFEE4679855302BB37ABFF84&assignmentId=0198ed2a-6fd3-7c91-b6a0-3555c47bbe09&projectId=0198ed26-a6a7-793d-982a-8940a71ab262","ADE33812DFEE4679855302BB37ABFF84-2025-08-27-21-43-24","","null","","images/causal_sequence/museum_causal/museum_causal_9.png","null","",""
"","","","","","image-button-response","114","2221911","0.0-14.0-1.0-1.8","ADE33812DFEE4679855302BB37ABFF84","ADE33812DFEE4679855302BB37ABFF84","0198ed2a-6fd3-7c91-b6a0-3555c47bbe09","0198ed26-a6a7-793d-982a-8940a71ab262","{""num_scrambled_semantic"":""8"",""num_scrambled_causal"":""4"",""num_scrambled_schematic"":""4"",""participantId"":""ADE33812DFEE4679855302BB37ABFF84"",""assignmentId"":""0198ed2a-6fd3-7c91-b6a0-3555c47bbe09"",""projectId"":""0198ed26-a6a7-793d-982a-8940a71ab262""}","https://test12345.live/?num_scrambled_semantic=8&num_scrambled_causal=4&num_scrambled_schematic=4&participantId=ADE33812DFEE4679855302BB37ABFF84&assignmentId=0198ed2a-6fd3-7c91-b6a0-3555c47bbe09&projectId=0198ed26-a6a7-793d-982a-8940a71ab262","ADE33812DFEE4679855302BB37ABFF84-2025-08-27-21-43-24","","1880","","images/causal_sequence/museum_causal/museum_causal_9.png","1","",""
