"success","timeout","failed_images","failed_audio","failed_video","trial_type","trial_index","time_elapsed","internal_node_id","subject","subject_id","study_id","session_id","urlvar","current_url","audio_id","view_history","rt","device_id","stimulus","response","estimated_stimulus_onset","seq_name"
"true","false","[]","[]","[]","preload","0","23809","0.0-0.0","B0901473905B445F8409B786C97E73FD","B0901473905B445F8409B786C97E73FD","8d21da60-8b61-495d-9fb8-8b151aca2cfb","a0a8f18c-a66e-4ba7-a170-23efbdc67501","{""participantId"":""B0901473905B445F8409B786C97E73FD"",""assignmentId"":""8d21da60-8b61-495d-9fb8-8b151aca2cfb"",""projectId"":""a0a8f18c-a66e-4ba7-a170-23efbdc67501""}","https://test12345.live/?participantId=B0901473905B445F8409B786C97E73FD&assignmentId=8d21da60-8b61-495d-9fb8-8b151aca2cfb&projectId=a0a8f18c-a66e-4ba7-a170-23efbdc67501","B0901473905B445F8409B786C97E73FD-2024-11-24-19-11-59","","","","","","",""
"","","","","","instructions","1","38239","0.0-1.0","B0901473905B445F8409B786C97E73FD","B0901473905B445F8409B786C97E73FD","8d21da60-8b61-495d-9fb8-8b151aca2cfb","a0a8f18c-a66e-4ba7-a170-23efbdc67501","{""participantId"":""B0901473905B445F8409B786C97E73FD"",""assignmentId"":""8d21da60-8b61-495d-9fb8-8b151aca2cfb"",""projectId"":""a0a8f18c-a66e-4ba7-a170-23efbdc67501""}","https://test12345.live/?participantId=B0901473905B445F8409B786C97E73FD&assignmentId=8d21da60-8b61-495d-9fb8-8b151aca2cfb&projectId=a0a8f18c-a66e-4ba7-a170-23efbdc67501","B0901473905B445F8409B786C97E73FD-2024-11-24-19-11-59","[{""page_index"":0,""viewing_time"":14427}]","14427","","","","",""
"","","","","","instructions","2","48899","0.0-2.0","B0901473905B445F8409B786C97E73FD","B0901473905B445F8409B786C97E73FD","8d21da60-8b61-495d-9fb8-8b151aca2cfb","a0a8f18c-a66e-4ba7-a170-23efbdc67501","{""participantId"":""B0901473905B445F8409B786C97E73FD"",""assignmentId"":""8d21da60-8b61-495d-9fb8-8b151aca2cfb"",""projectId"":""a0a8f18c-a66e-4ba7-a170-23efbdc67501""}","https://test12345.live/?participantId=B0901473905B445F8409B786C97E73FD&assignmentId=8d21da60-8b61-495d-9fb8-8b151aca2cfb&projectId=a0a8f18c-a66e-4ba7-a170-23efbdc67501","B0901473905B445F8409B786C97E73FD-2024-11-24-19-11-59","[{""page_index"":0,""viewing_time"":10658}]","10659","","","","",""
"true","","","","","fullscreen","3","60223","0.0-3.0","B0901473905B445F8409B786C97E73FD","B0901473905B445F8409B786C97E73FD","8d21da60-8b61-495d-9fb8-8b151aca2cfb","a0a8f18c-a66e-4ba7-a170-23efbdc67501","{""participantId"":""B0901473905B445F8409B786C97E73FD"",""assignmentId"":""8d21da60-8b61-495d-9fb8-8b151aca2cfb"",""projectId"":""a0a8f18c-a66e-4ba7-a170-23efbdc67501""}","https://test12345.live/?participantId=B0901473905B445F8409B786C97E73FD&assignmentId=8d21da60-8b61-495d-9fb8-8b151aca2cfb&projectId=a0a8f18c-a66e-4ba7-a170-23efbdc67501","B0901473905B445F8409B786C97E73FD-2024-11-24-19-11-59","","10313","","","","",""
"","","","","","initialize-microphone","4","68763","0.0-4.0-0.0","B0901473905B445F8409B786C97E73FD","B0901473905B445F8409B786C97E73FD","8d21da60-8b61-495d-9fb8-8b151aca2cfb","a0a8f18c-a66e-4ba7-a170-23efbdc67501","{""participantId"":""B0901473905B445F8409B786C97E73FD"",""assignmentId"":""8d21da60-8b61-495d-9fb8-8b151aca2cfb"",""projectId"":""a0a8f18c-a66e-4ba7-a170-23efbdc67501""}","https://test12345.live/?participantId=B0901473905B445F8409B786C97E73FD&assignmentId=8d21da60-8b61-495d-9fb8-8b151aca2cfb&projectId=a0a8f18c-a66e-4ba7-a170-23efbdc67501","B0901473905B445F8409B786C97E73FD-2024-11-24-19-11-59","","","8b842c381bba9c2101dafcce21caa26839c08bf1f8a9d36fa0c23bf340b45588","","","",""
"","","","","","html-audio-response","5","78035","0.0-4.0-1.0","B0901473905B445F8409B786C97E73FD","B0901473905B445F8409B786C97E73FD","8d21da60-8b61-495d-9fb8-8b151aca2cfb","a0a8f18c-a66e-4ba7-a170-23efbdc67501","{""participantId"":""B0901473905B445F8409B786C97E73FD"",""assignmentId"":""8d21da60-8b61-495d-9fb8-8b151aca2cfb"",""projectId"":""a0a8f18c-a66e-4ba7-a170-23efbdc67501""}","https://test12345.live/?participantId=B0901473905B445F8409B786C97E73FD&assignmentId=8d21da60-8b61-495d-9fb8-8b151aca2cfb&projectId=a0a8f18c-a66e-4ba7-a170-23efbdc67501","B0901473905B445F8409B786C97E73FD-2024-11-24-19-11-59","","1595","","<span style=""color: red; font-size: 24px""> NOW RECORDING</span>
        <p>Please test Microphone</p>","","3",""
"","","","","","html-button-response","6","79295","0.0-4.0-2.0","B0901473905B445F8409B786C97E73FD","B0901473905B445F8409B786C97E73FD","8d21da60-8b61-495d-9fb8-8b151aca2cfb","a0a8f18c-a66e-4ba7-a170-23efbdc67501","{""participantId"":""B0901473905B445F8409B786C97E73FD"",""assignmentId"":""8d21da60-8b61-495d-9fb8-8b151aca2cfb"",""projectId"":""a0a8f18c-a66e-4ba7-a170-23efbdc67501""}","https://test12345.live/?participantId=B0901473905B445F8409B786C97E73FD&assignmentId=8d21da60-8b61-495d-9fb8-8b151aca2cfb&projectId=a0a8f18c-a66e-4ba7-a170-23efbdc67501","B0901473905B445F8409B786C97E73FD-2024-11-24-19-11-59","","1256","","<p style=""font-size:48px; color:red;"">Is Microphone OK?</p>","1","",""
"","","","","","instructions","7","91181","0.0-5.0","B0901473905B445F8409B786C97E73FD","B0901473905B445F8409B786C97E73FD","8d21da60-8b61-495d-9fb8-8b151aca2cfb","a0a8f18c-a66e-4ba7-a170-23efbdc67501","{""participantId"":""B0901473905B445F8409B786C97E73FD"",""assignmentId"":""8d21da60-8b61-495d-9fb8-8b151aca2cfb"",""projectId"":""a0a8f18c-a66e-4ba7-a170-23efbdc67501""}","https://test12345.live/?participantId=B0901473905B445F8409B786C97E73FD&assignmentId=8d21da60-8b61-495d-9fb8-8b151aca2cfb&projectId=a0a8f18c-a66e-4ba7-a170-23efbdc67501","B0901473905B445F8409B786C97E73FD-2024-11-24-19-11-59","[{""page_index"":0,""viewing_time"":5144},{""page_index"":1,""viewing_time"":6741}]","11885","","","","",""
"","","","","","image-button-response","8","97197","0.0-6.0-0.0","B0901473905B445F8409B786C97E73FD","B0901473905B445F8409B786C97E73FD","8d21da60-8b61-495d-9fb8-8b151aca2cfb","a0a8f18c-a66e-4ba7-a170-23efbdc67501","{""participantId"":""B0901473905B445F8409B786C97E73FD"",""assignmentId"":""8d21da60-8b61-495d-9fb8-8b151aca2cfb"",""projectId"":""a0a8f18c-a66e-4ba7-a170-23efbdc67501""}","https://test12345.live/?participantId=B0901473905B445F8409B786C97E73FD&assignmentId=8d21da60-8b61-495d-9fb8-8b151aca2cfb&projectId=a0a8f18c-a66e-4ba7-a170-23efbdc67501","B0901473905B445F8409B786C97E73FD-2024-11-24-19-11-59","","null","","images/instructions/movie_0.png","null","",""
"","","","","","image-button-response","9","101713","0.0-6.0-1.0-0.0","B0901473905B445F8409B786C97E73FD","B0901473905B445F8409B786C97E73FD","8d21da60-8b61-495d-9fb8-8b151aca2cfb","a0a8f18c-a66e-4ba7-a170-23efbdc67501","{""participantId"":""B0901473905B445F8409B786C97E73FD"",""assignmentId"":""8d21da60-8b61-495d-9fb8-8b151aca2cfb"",""projectId"":""a0a8f18c-a66e-4ba7-a170-23efbdc67501""}","https://test12345.live/?participantId=B0901473905B445F8409B786C97E73FD&assignmentId=8d21da60-8b61-495d-9fb8-8b151aca2cfb&projectId=a0a8f18c-a66e-4ba7-a170-23efbdc67501","B0901473905B445F8409B786C97E73FD-2024-11-24-19-11-59","","null","","images/instructions/movie_1.png","null","",""
"","","","","","image-button-response","10","105721","0.0-6.0-1.0-1.0","B0901473905B445F8409B786C97E73FD","B0901473905B445F8409B786C97E73FD","8d21da60-8b61-495d-9fb8-8b151aca2cfb","a0a8f18c-a66e-4ba7-a170-23efbdc67501","{""participantId"":""B0901473905B445F8409B786C97E73FD"",""assignmentId"":""8d21da60-8b61-495d-9fb8-8b151aca2cfb"",""projectId"":""a0a8f18c-a66e-4ba7-a170-23efbdc67501""}","https://test12345.live/?participantId=B0901473905B445F8409B786C97E73FD&assignmentId=8d21da60-8b61-495d-9fb8-8b151aca2cfb&projectId=a0a8f18c-a66e-4ba7-a170-23efbdc67501","B0901473905B445F8409B786C97E73FD-2024-11-24-19-11-59","","null","","images/instructions/movie_1.png","null","",""
"","","","","","image-button-response","11","107522","0.0-6.0-1.0-2.0","B0901473905B445F8409B786C97E73FD","B0901473905B445F8409B786C97E73FD","8d21da60-8b61-495d-9fb8-8b151aca2cfb","a0a8f18c-a66e-4ba7-a170-23efbdc67501","{""participantId"":""B0901473905B445F8409B786C97E73FD"",""assignmentId"":""8d21da60-8b61-495d-9fb8-8b151aca2cfb"",""projectId"":""a0a8f18c-a66e-4ba7-a170-23efbdc67501""}","https://test12345.live/?participantId=B0901473905B445F8409B786C97E73FD&assignmentId=8d21da60-8b61-495d-9fb8-8b151aca2cfb&projectId=a0a8f18c-a66e-4ba7-a170-23efbdc67501","B0901473905B445F8409B786C97E73FD-2024-11-24-19-11-59","","null","","[]","null","",""
"","","","","","image-button-response","12","112033","0.0-6.0-1.0-0.1","B0901473905B445F8409B786C97E73FD","B0901473905B445F8409B786C97E73FD","8d21da60-8b61-495d-9fb8-8b151aca2cfb","a0a8f18c-a66e-4ba7-a170-23efbdc67501","{""participantId"":""B0901473905B445F8409B786C97E73FD"",""assignmentId"":""8d21da60-8b61-495d-9fb8-8b151aca2cfb"",""projectId"":""a0a8f18c-a66e-4ba7-a170-23efbdc67501""}","https://test12345.live/?participantId=B0901473905B445F8409B786C97E73FD&assignmentId=8d21da60-8b61-495d-9fb8-8b151aca2cfb&projectId=a0a8f18c-a66e-4ba7-a170-23efbdc67501","B0901473905B445F8409B786C97E73FD-2024-11-24-19-11-59","","null","","images/instructions/movie_2.png","null","",""
"","","","","","image-button-response","13","114010","0.0-6.0-1.0-1.1","B0901473905B445F8409B786C97E73FD","B0901473905B445F8409B786C97E73FD","8d21da60-8b61-495d-9fb8-8b151aca2cfb","a0a8f18c-a66e-4ba7-a170-23efbdc67501","{""participantId"":""B0901473905B445F8409B786C97E73FD"",""assignmentId"":""8d21da60-8b61-495d-9fb8-8b151aca2cfb"",""projectId"":""a0a8f18c-a66e-4ba7-a170-23efbdc67501""}","https://test12345.live/?participantId=B0901473905B445F8409B786C97E73FD&assignmentId=8d21da60-8b61-495d-9fb8-8b151aca2cfb&projectId=a0a8f18c-a66e-4ba7-a170-23efbdc67501","B0901473905B445F8409B786C97E73FD-2024-11-24-19-11-59","","1973","","images/instructions/movie_2.png","1","",""
"","","","","","image-button-response","14","115815","0.0-6.0-1.0-2.1","B0901473905B445F8409B786C97E73FD","B0901473905B445F8409B786C97E73FD","8d21da60-8b61-495d-9fb8-8b151aca2cfb","a0a8f18c-a66e-4ba7-a170-23efbdc67501","{""participantId"":""B0901473905B445F8409B786C97E73FD"",""assignmentId"":""8d21da60-8b61-495d-9fb8-8b151aca2cfb"",""projectId"":""a0a8f18c-a66e-4ba7-a170-23efbdc67501""}","https://test12345.live/?participantId=B0901473905B445F8409B786C97E73FD&assignmentId=8d21da60-8b61-495d-9fb8-8b151aca2cfb&projectId=a0a8f18c-a66e-4ba7-a170-23efbdc67501","B0901473905B445F8409B786C97E73FD-2024-11-24-19-11-59","","null","","[]","null","",""
"","","","","","image-button-response","15","120319","0.0-6.0-1.0-0.2","B0901473905B445F8409B786C97E73FD","B0901473905B445F8409B786C97E73FD","8d21da60-8b61-495d-9fb8-8b151aca2cfb","a0a8f18c-a66e-4ba7-a170-23efbdc67501","{""participantId"":""B0901473905B445F8409B786C97E73FD"",""assignmentId"":""8d21da60-8b61-495d-9fb8-8b151aca2cfb"",""projectId"":""a0a8f18c-a66e-4ba7-a170-23efbdc67501""}","https://test12345.live/?participantId=B0901473905B445F8409B786C97E73FD&assignmentId=8d21da60-8b61-495d-9fb8-8b151aca2cfb&projectId=a0a8f18c-a66e-4ba7-a170-23efbdc67501","B0901473905B445F8409B786C97E73FD-2024-11-24-19-11-59","","null","","images/instructions/movie_3.png","null","",""
"","","","","","image-button-response","16","121706","0.0-6.0-1.0-1.2","B0901473905B445F8409B786C97E73FD","B0901473905B445F8409B786C97E73FD","8d21da60-8b61-495d-9fb8-8b151aca2cfb","a0a8f18c-a66e-4ba7-a170-23efbdc67501","{""participantId"":""B0901473905B445F8409B786C97E73FD"",""assignmentId"":""8d21da60-8b61-495d-9fb8-8b151aca2cfb"",""projectId"":""a0a8f18c-a66e-4ba7-a170-23efbdc67501""}","https://test12345.live/?participantId=B0901473905B445F8409B786C97E73FD&assignmentId=8d21da60-8b61-495d-9fb8-8b151aca2cfb&projectId=a0a8f18c-a66e-4ba7-a170-23efbdc67501","B0901473905B445F8409B786C97E73FD-2024-11-24-19-11-59","","1386","","images/instructions/movie_3.png","0","",""
"","","","","","image-button-response","17","123516","0.0-6.0-1.0-2.2","B0901473905B445F8409B786C97E73FD","B0901473905B445F8409B786C97E73FD","8d21da60-8b61-495d-9fb8-8b151aca2cfb","a0a8f18c-a66e-4ba7-a170-23efbdc67501","{""participantId"":""B0901473905B445F8409B786C97E73FD"",""assignmentId"":""8d21da60-8b61-495d-9fb8-8b151aca2cfb"",""projectId"":""a0a8f18c-a66e-4ba7-a170-23efbdc67501""}","https://test12345.live/?participantId=B0901473905B445F8409B786C97E73FD&assignmentId=8d21da60-8b61-495d-9fb8-8b151aca2cfb&projectId=a0a8f18c-a66e-4ba7-a170-23efbdc67501","B0901473905B445F8409B786C97E73FD-2024-11-24-19-11-59","","null","","[]","null","",""
"","","","","","image-button-response","18","128032","0.0-6.0-1.0-0.3","B0901473905B445F8409B786C97E73FD","B0901473905B445F8409B786C97E73FD","8d21da60-8b61-495d-9fb8-8b151aca2cfb","a0a8f18c-a66e-4ba7-a170-23efbdc67501","{""participantId"":""B0901473905B445F8409B786C97E73FD"",""assignmentId"":""8d21da60-8b61-495d-9fb8-8b151aca2cfb"",""projectId"":""a0a8f18c-a66e-4ba7-a170-23efbdc67501""}","https://test12345.live/?participantId=B0901473905B445F8409B786C97E73FD&assignmentId=8d21da60-8b61-495d-9fb8-8b151aca2cfb&projectId=a0a8f18c-a66e-4ba7-a170-23efbdc67501","B0901473905B445F8409B786C97E73FD-2024-11-24-19-11-59","","null","","images/instructions/movie_4.png","null","",""
"","","","","","image-button-response","19","129529","0.0-6.0-1.0-1.3","B0901473905B445F8409B786C97E73FD","B0901473905B445F8409B786C97E73FD","8d21da60-8b61-495d-9fb8-8b151aca2cfb","a0a8f18c-a66e-4ba7-a170-23efbdc67501","{""participantId"":""B0901473905B445F8409B786C97E73FD"",""assignmentId"":""8d21da60-8b61-495d-9fb8-8b151aca2cfb"",""projectId"":""a0a8f18c-a66e-4ba7-a170-23efbdc67501""}","https://test12345.live/?participantId=B0901473905B445F8409B786C97E73FD&assignmentId=8d21da60-8b61-495d-9fb8-8b151aca2cfb&projectId=a0a8f18c-a66e-4ba7-a170-23efbdc67501","B0901473905B445F8409B786C97E73FD-2024-11-24-19-11-59","","1495","","images/instructions/movie_4.png","0","",""
"","","","","","image-button-response","20","131332","0.0-6.0-1.0-2.3","B0901473905B445F8409B786C97E73FD","B0901473905B445F8409B786C97E73FD","8d21da60-8b61-495d-9fb8-8b151aca2cfb","a0a8f18c-a66e-4ba7-a170-23efbdc67501","{""participantId"":""B0901473905B445F8409B786C97E73FD"",""assignmentId"":""8d21da60-8b61-495d-9fb8-8b151aca2cfb"",""projectId"":""a0a8f18c-a66e-4ba7-a170-23efbdc67501""}","https://test12345.live/?participantId=B0901473905B445F8409B786C97E73FD&assignmentId=8d21da60-8b61-495d-9fb8-8b151aca2cfb&projectId=a0a8f18c-a66e-4ba7-a170-23efbdc67501","B0901473905B445F8409B786C97E73FD-2024-11-24-19-11-59","","null","","[]","null","",""
"","","","","","instructions","21","138277","0.0-7.0","B0901473905B445F8409B786C97E73FD","B0901473905B445F8409B786C97E73FD","8d21da60-8b61-495d-9fb8-8b151aca2cfb","a0a8f18c-a66e-4ba7-a170-23efbdc67501","{""participantId"":""B0901473905B445F8409B786C97E73FD"",""assignmentId"":""8d21da60-8b61-495d-9fb8-8b151aca2cfb"",""projectId"":""a0a8f18c-a66e-4ba7-a170-23efbdc67501""}","https://test12345.live/?participantId=B0901473905B445F8409B786C97E73FD&assignmentId=8d21da60-8b61-495d-9fb8-8b151aca2cfb&projectId=a0a8f18c-a66e-4ba7-a170-23efbdc67501","B0901473905B445F8409B786C97E73FD-2024-11-24-19-11-59","[{""page_index"":0,""viewing_time"":4663},{""page_index"":1,""viewing_time"":2282}]","6945","","","","",""
"","","","","","html-audio-response","22","176141","0.0-8.0","B0901473905B445F8409B786C97E73FD","B0901473905B445F8409B786C97E73FD","8d21da60-8b61-495d-9fb8-8b151aca2cfb","a0a8f18c-a66e-4ba7-a170-23efbdc67501","{""participantId"":""B0901473905B445F8409B786C97E73FD"",""assignmentId"":""8d21da60-8b61-495d-9fb8-8b151aca2cfb"",""projectId"":""a0a8f18c-a66e-4ba7-a170-23efbdc67501""}","https://test12345.live/?participantId=B0901473905B445F8409B786C97E73FD&assignmentId=8d21da60-8b61-495d-9fb8-8b151aca2cfb&projectId=a0a8f18c-a66e-4ba7-a170-23efbdc67501","B0901473905B445F8409B786C97E73FD-2024-11-24-19-11-59","","7418","","[""<span style=\""color: red; font-size: 24px\""> NOW RECORDING</span><p>Please say out loud all the images you saw, as many as you can remember. The images can be said in any order.</p>""]","","16",""
"","","","","","instructions","23","177435","0.0-9.0","B0901473905B445F8409B786C97E73FD","B0901473905B445F8409B786C97E73FD","8d21da60-8b61-495d-9fb8-8b151aca2cfb","a0a8f18c-a66e-4ba7-a170-23efbdc67501","{""participantId"":""B0901473905B445F8409B786C97E73FD"",""assignmentId"":""8d21da60-8b61-495d-9fb8-8b151aca2cfb"",""projectId"":""a0a8f18c-a66e-4ba7-a170-23efbdc67501""}","https://test12345.live/?participantId=B0901473905B445F8409B786C97E73FD&assignmentId=8d21da60-8b61-495d-9fb8-8b151aca2cfb&projectId=a0a8f18c-a66e-4ba7-a170-23efbdc67501","B0901473905B445F8409B786C97E73FD-2024-11-24-19-11-59","[{""page_index"":0,""viewing_time"":1283}]","1284","","","","",""
"","","","","","image-button-response","24","183453","0.0-10.0-0.0","B0901473905B445F8409B786C97E73FD","B0901473905B445F8409B786C97E73FD","8d21da60-8b61-495d-9fb8-8b151aca2cfb","a0a8f18c-a66e-4ba7-a170-23efbdc67501","{""participantId"":""B0901473905B445F8409B786C97E73FD"",""assignmentId"":""8d21da60-8b61-495d-9fb8-8b151aca2cfb"",""projectId"":""a0a8f18c-a66e-4ba7-a170-23efbdc67501""}","https://test12345.live/?participantId=B0901473905B445F8409B786C97E73FD&assignmentId=8d21da60-8b61-495d-9fb8-8b151aca2cfb&projectId=a0a8f18c-a66e-4ba7-a170-23efbdc67501","B0901473905B445F8409B786C97E73FD-2024-11-24-19-11-59","","null","","images/schematic_sequence/restaurant_scheme/restaurant_scheme_0.png","null","",""
"","","","","","image-button-response","25","187958","0.0-10.0-1.0-0.0","B0901473905B445F8409B786C97E73FD","B0901473905B445F8409B786C97E73FD","8d21da60-8b61-495d-9fb8-8b151aca2cfb","a0a8f18c-a66e-4ba7-a170-23efbdc67501","{""participantId"":""B0901473905B445F8409B786C97E73FD"",""assignmentId"":""8d21da60-8b61-495d-9fb8-8b151aca2cfb"",""projectId"":""a0a8f18c-a66e-4ba7-a170-23efbdc67501""}","https://test12345.live/?participantId=B0901473905B445F8409B786C97E73FD&assignmentId=8d21da60-8b61-495d-9fb8-8b151aca2cfb&projectId=a0a8f18c-a66e-4ba7-a170-23efbdc67501","B0901473905B445F8409B786C97E73FD-2024-11-24-19-11-59","","null","","images/schematic_sequence/restaurant_scheme/restaurant_scheme_1.png","null","",""
"","","","","","image-button-response","26","190225","0.0-10.0-1.0-1.0","B0901473905B445F8409B786C97E73FD","B0901473905B445F8409B786C97E73FD","8d21da60-8b61-495d-9fb8-8b151aca2cfb","a0a8f18c-a66e-4ba7-a170-23efbdc67501","{""participantId"":""B0901473905B445F8409B786C97E73FD"",""assignmentId"":""8d21da60-8b61-495d-9fb8-8b151aca2cfb"",""projectId"":""a0a8f18c-a66e-4ba7-a170-23efbdc67501""}","https://test12345.live/?participantId=B0901473905B445F8409B786C97E73FD&assignmentId=8d21da60-8b61-495d-9fb8-8b151aca2cfb&projectId=a0a8f18c-a66e-4ba7-a170-23efbdc67501","B0901473905B445F8409B786C97E73FD-2024-11-24-19-11-59","","2266","","images/schematic_sequence/restaurant_scheme/restaurant_scheme_1.png","0","",""
"","","","","","image-button-response","27","192037","0.0-10.0-1.0-2.0","B0901473905B445F8409B786C97E73FD","B0901473905B445F8409B786C97E73FD","8d21da60-8b61-495d-9fb8-8b151aca2cfb","a0a8f18c-a66e-4ba7-a170-23efbdc67501","{""participantId"":""B0901473905B445F8409B786C97E73FD"",""assignmentId"":""8d21da60-8b61-495d-9fb8-8b151aca2cfb"",""projectId"":""a0a8f18c-a66e-4ba7-a170-23efbdc67501""}","https://test12345.live/?participantId=B0901473905B445F8409B786C97E73FD&assignmentId=8d21da60-8b61-495d-9fb8-8b151aca2cfb&projectId=a0a8f18c-a66e-4ba7-a170-23efbdc67501","B0901473905B445F8409B786C97E73FD-2024-11-24-19-11-59","","null","","[]","null","",""
"","","","","","image-button-response","28","196543","0.0-10.0-1.0-0.1","B0901473905B445F8409B786C97E73FD","B0901473905B445F8409B786C97E73FD","8d21da60-8b61-495d-9fb8-8b151aca2cfb","a0a8f18c-a66e-4ba7-a170-23efbdc67501","{""participantId"":""B0901473905B445F8409B786C97E73FD"",""assignmentId"":""8d21da60-8b61-495d-9fb8-8b151aca2cfb"",""projectId"":""a0a8f18c-a66e-4ba7-a170-23efbdc67501""}","https://test12345.live/?participantId=B0901473905B445F8409B786C97E73FD&assignmentId=8d21da60-8b61-495d-9fb8-8b151aca2cfb&projectId=a0a8f18c-a66e-4ba7-a170-23efbdc67501","B0901473905B445F8409B786C97E73FD-2024-11-24-19-11-59","","null","","images/schematic_sequence/restaurant_scheme/restaurant_scheme_2.png","null","",""
"","","","","","image-button-response","29","198996","0.0-10.0-1.0-1.1","B0901473905B445F8409B786C97E73FD","B0901473905B445F8409B786C97E73FD","8d21da60-8b61-495d-9fb8-8b151aca2cfb","a0a8f18c-a66e-4ba7-a170-23efbdc67501","{""participantId"":""B0901473905B445F8409B786C97E73FD"",""assignmentId"":""8d21da60-8b61-495d-9fb8-8b151aca2cfb"",""projectId"":""a0a8f18c-a66e-4ba7-a170-23efbdc67501""}","https://test12345.live/?participantId=B0901473905B445F8409B786C97E73FD&assignmentId=8d21da60-8b61-495d-9fb8-8b151aca2cfb&projectId=a0a8f18c-a66e-4ba7-a170-23efbdc67501","B0901473905B445F8409B786C97E73FD-2024-11-24-19-11-59","","2448","","images/schematic_sequence/restaurant_scheme/restaurant_scheme_2.png","1","",""
"","","","","","image-button-response","30","200802","0.0-10.0-1.0-2.1","B0901473905B445F8409B786C97E73FD","B0901473905B445F8409B786C97E73FD","8d21da60-8b61-495d-9fb8-8b151aca2cfb","a0a8f18c-a66e-4ba7-a170-23efbdc67501","{""participantId"":""B0901473905B445F8409B786C97E73FD"",""assignmentId"":""8d21da60-8b61-495d-9fb8-8b151aca2cfb"",""projectId"":""a0a8f18c-a66e-4ba7-a170-23efbdc67501""}","https://test12345.live/?participantId=B0901473905B445F8409B786C97E73FD&assignmentId=8d21da60-8b61-495d-9fb8-8b151aca2cfb&projectId=a0a8f18c-a66e-4ba7-a170-23efbdc67501","B0901473905B445F8409B786C97E73FD-2024-11-24-19-11-59","","null","","[]","null","",""
"","","","","","image-button-response","31","205313","0.0-10.0-1.0-0.2","B0901473905B445F8409B786C97E73FD","B0901473905B445F8409B786C97E73FD","8d21da60-8b61-495d-9fb8-8b151aca2cfb","a0a8f18c-a66e-4ba7-a170-23efbdc67501","{""participantId"":""B0901473905B445F8409B786C97E73FD"",""assignmentId"":""8d21da60-8b61-495d-9fb8-8b151aca2cfb"",""projectId"":""a0a8f18c-a66e-4ba7-a170-23efbdc67501""}","https://test12345.live/?participantId=B0901473905B445F8409B786C97E73FD&assignmentId=8d21da60-8b61-495d-9fb8-8b151aca2cfb&projectId=a0a8f18c-a66e-4ba7-a170-23efbdc67501","B0901473905B445F8409B786C97E73FD-2024-11-24-19-11-59","","null","","images/schematic_sequence/restaurant_scheme/restaurant_scheme_3.png","null","",""
"","","","","","image-button-response","32","206758","0.0-10.0-1.0-1.2","B0901473905B445F8409B786C97E73FD","B0901473905B445F8409B786C97E73FD","8d21da60-8b61-495d-9fb8-8b151aca2cfb","a0a8f18c-a66e-4ba7-a170-23efbdc67501","{""participantId"":""B0901473905B445F8409B786C97E73FD"",""assignmentId"":""8d21da60-8b61-495d-9fb8-8b151aca2cfb"",""projectId"":""a0a8f18c-a66e-4ba7-a170-23efbdc67501""}","https://test12345.live/?participantId=B0901473905B445F8409B786C97E73FD&assignmentId=8d21da60-8b61-495d-9fb8-8b151aca2cfb&projectId=a0a8f18c-a66e-4ba7-a170-23efbdc67501","B0901473905B445F8409B786C97E73FD-2024-11-24-19-11-59","","1442","","images/schematic_sequence/restaurant_scheme/restaurant_scheme_3.png","1","",""
"","","","","","image-button-response","33","208564","0.0-10.0-1.0-2.2","B0901473905B445F8409B786C97E73FD","B0901473905B445F8409B786C97E73FD","8d21da60-8b61-495d-9fb8-8b151aca2cfb","a0a8f18c-a66e-4ba7-a170-23efbdc67501","{""participantId"":""B0901473905B445F8409B786C97E73FD"",""assignmentId"":""8d21da60-8b61-495d-9fb8-8b151aca2cfb"",""projectId"":""a0a8f18c-a66e-4ba7-a170-23efbdc67501""}","https://test12345.live/?participantId=B0901473905B445F8409B786C97E73FD&assignmentId=8d21da60-8b61-495d-9fb8-8b151aca2cfb&projectId=a0a8f18c-a66e-4ba7-a170-23efbdc67501","B0901473905B445F8409B786C97E73FD-2024-11-24-19-11-59","","null","","[]","null","",""
"","","","","","image-button-response","34","213075","0.0-10.0-1.0-0.3","B0901473905B445F8409B786C97E73FD","B0901473905B445F8409B786C97E73FD","8d21da60-8b61-495d-9fb8-8b151aca2cfb","a0a8f18c-a66e-4ba7-a170-23efbdc67501","{""participantId"":""B0901473905B445F8409B786C97E73FD"",""assignmentId"":""8d21da60-8b61-495d-9fb8-8b151aca2cfb"",""projectId"":""a0a8f18c-a66e-4ba7-a170-23efbdc67501""}","https://test12345.live/?participantId=B0901473905B445F8409B786C97E73FD&assignmentId=8d21da60-8b61-495d-9fb8-8b151aca2cfb&projectId=a0a8f18c-a66e-4ba7-a170-23efbdc67501","B0901473905B445F8409B786C97E73FD-2024-11-24-19-11-59","","null","","images/schematic_sequence/restaurant_scheme/restaurant_scheme_4.png","null","",""
"","","","","","image-button-response","35","214388","0.0-10.0-1.0-1.3","B0901473905B445F8409B786C97E73FD","B0901473905B445F8409B786C97E73FD","8d21da60-8b61-495d-9fb8-8b151aca2cfb","a0a8f18c-a66e-4ba7-a170-23efbdc67501","{""participantId"":""B0901473905B445F8409B786C97E73FD"",""assignmentId"":""8d21da60-8b61-495d-9fb8-8b151aca2cfb"",""projectId"":""a0a8f18c-a66e-4ba7-a170-23efbdc67501""}","https://test12345.live/?participantId=B0901473905B445F8409B786C97E73FD&assignmentId=8d21da60-8b61-495d-9fb8-8b151aca2cfb&projectId=a0a8f18c-a66e-4ba7-a170-23efbdc67501","B0901473905B445F8409B786C97E73FD-2024-11-24-19-11-59","","1310","","images/schematic_sequence/restaurant_scheme/restaurant_scheme_4.png","0","",""
"","","","","","image-button-response","36","216199","0.0-10.0-1.0-2.3","B0901473905B445F8409B786C97E73FD","B0901473905B445F8409B786C97E73FD","8d21da60-8b61-495d-9fb8-8b151aca2cfb","a0a8f18c-a66e-4ba7-a170-23efbdc67501","{""participantId"":""B0901473905B445F8409B786C97E73FD"",""assignmentId"":""8d21da60-8b61-495d-9fb8-8b151aca2cfb"",""projectId"":""a0a8f18c-a66e-4ba7-a170-23efbdc67501""}","https://test12345.live/?participantId=B0901473905B445F8409B786C97E73FD&assignmentId=8d21da60-8b61-495d-9fb8-8b151aca2cfb&projectId=a0a8f18c-a66e-4ba7-a170-23efbdc67501","B0901473905B445F8409B786C97E73FD-2024-11-24-19-11-59","","null","","[]","null","",""
"","","","","","image-button-response","37","220708","0.0-10.0-1.0-0.4","B0901473905B445F8409B786C97E73FD","B0901473905B445F8409B786C97E73FD","8d21da60-8b61-495d-9fb8-8b151aca2cfb","a0a8f18c-a66e-4ba7-a170-23efbdc67501","{""participantId"":""B0901473905B445F8409B786C97E73FD"",""assignmentId"":""8d21da60-8b61-495d-9fb8-8b151aca2cfb"",""projectId"":""a0a8f18c-a66e-4ba7-a170-23efbdc67501""}","https://test12345.live/?participantId=B0901473905B445F8409B786C97E73FD&assignmentId=8d21da60-8b61-495d-9fb8-8b151aca2cfb&projectId=a0a8f18c-a66e-4ba7-a170-23efbdc67501","B0901473905B445F8409B786C97E73FD-2024-11-24-19-11-59","","null","","images/schematic_sequence/restaurant_scheme/restaurant_scheme_5.png","null","",""
"","","","","","image-button-response","38","222666","0.0-10.0-1.0-1.4","B0901473905B445F8409B786C97E73FD","B0901473905B445F8409B786C97E73FD","8d21da60-8b61-495d-9fb8-8b151aca2cfb","a0a8f18c-a66e-4ba7-a170-23efbdc67501","{""participantId"":""B0901473905B445F8409B786C97E73FD"",""assignmentId"":""8d21da60-8b61-495d-9fb8-8b151aca2cfb"",""projectId"":""a0a8f18c-a66e-4ba7-a170-23efbdc67501""}","https://test12345.live/?participantId=B0901473905B445F8409B786C97E73FD&assignmentId=8d21da60-8b61-495d-9fb8-8b151aca2cfb&projectId=a0a8f18c-a66e-4ba7-a170-23efbdc67501","B0901473905B445F8409B786C97E73FD-2024-11-24-19-11-59","","1957","","images/schematic_sequence/restaurant_scheme/restaurant_scheme_5.png","0","",""
"","","","","","image-button-response","39","224478","0.0-10.0-1.0-2.4","B0901473905B445F8409B786C97E73FD","B0901473905B445F8409B786C97E73FD","8d21da60-8b61-495d-9fb8-8b151aca2cfb","a0a8f18c-a66e-4ba7-a170-23efbdc67501","{""participantId"":""B0901473905B445F8409B786C97E73FD"",""assignmentId"":""8d21da60-8b61-495d-9fb8-8b151aca2cfb"",""projectId"":""a0a8f18c-a66e-4ba7-a170-23efbdc67501""}","https://test12345.live/?participantId=B0901473905B445F8409B786C97E73FD&assignmentId=8d21da60-8b61-495d-9fb8-8b151aca2cfb&projectId=a0a8f18c-a66e-4ba7-a170-23efbdc67501","B0901473905B445F8409B786C97E73FD-2024-11-24-19-11-59","","null","","[]","null","",""
"","","","","","image-button-response","40","228988","0.0-10.0-1.0-0.5","B0901473905B445F8409B786C97E73FD","B0901473905B445F8409B786C97E73FD","8d21da60-8b61-495d-9fb8-8b151aca2cfb","a0a8f18c-a66e-4ba7-a170-23efbdc67501","{""participantId"":""B0901473905B445F8409B786C97E73FD"",""assignmentId"":""8d21da60-8b61-495d-9fb8-8b151aca2cfb"",""projectId"":""a0a8f18c-a66e-4ba7-a170-23efbdc67501""}","https://test12345.live/?participantId=B0901473905B445F8409B786C97E73FD&assignmentId=8d21da60-8b61-495d-9fb8-8b151aca2cfb&projectId=a0a8f18c-a66e-4ba7-a170-23efbdc67501","B0901473905B445F8409B786C97E73FD-2024-11-24-19-11-59","","null","","images/schematic_sequence/restaurant_scheme/restaurant_scheme_6.png","null","",""
"","","","","","image-button-response","41","230495","0.0-10.0-1.0-1.5","B0901473905B445F8409B786C97E73FD","B0901473905B445F8409B786C97E73FD","8d21da60-8b61-495d-9fb8-8b151aca2cfb","a0a8f18c-a66e-4ba7-a170-23efbdc67501","{""participantId"":""B0901473905B445F8409B786C97E73FD"",""assignmentId"":""8d21da60-8b61-495d-9fb8-8b151aca2cfb"",""projectId"":""a0a8f18c-a66e-4ba7-a170-23efbdc67501""}","https://test12345.live/?participantId=B0901473905B445F8409B786C97E73FD&assignmentId=8d21da60-8b61-495d-9fb8-8b151aca2cfb&projectId=a0a8f18c-a66e-4ba7-a170-23efbdc67501","B0901473905B445F8409B786C97E73FD-2024-11-24-19-11-59","","1504","","images/schematic_sequence/restaurant_scheme/restaurant_scheme_6.png","1","",""
"","","","","","image-button-response","42","232301","0.0-10.0-1.0-2.5","B0901473905B445F8409B786C97E73FD","B0901473905B445F8409B786C97E73FD","8d21da60-8b61-495d-9fb8-8b151aca2cfb","a0a8f18c-a66e-4ba7-a170-23efbdc67501","{""participantId"":""B0901473905B445F8409B786C97E73FD"",""assignmentId"":""8d21da60-8b61-495d-9fb8-8b151aca2cfb"",""projectId"":""a0a8f18c-a66e-4ba7-a170-23efbdc67501""}","https://test12345.live/?participantId=B0901473905B445F8409B786C97E73FD&assignmentId=8d21da60-8b61-495d-9fb8-8b151aca2cfb&projectId=a0a8f18c-a66e-4ba7-a170-23efbdc67501","B0901473905B445F8409B786C97E73FD-2024-11-24-19-11-59","","null","","[]","null","",""
"","","","","","image-button-response","43","236811","0.0-10.0-1.0-0.6","B0901473905B445F8409B786C97E73FD","B0901473905B445F8409B786C97E73FD","8d21da60-8b61-495d-9fb8-8b151aca2cfb","a0a8f18c-a66e-4ba7-a170-23efbdc67501","{""participantId"":""B0901473905B445F8409B786C97E73FD"",""assignmentId"":""8d21da60-8b61-495d-9fb8-8b151aca2cfb"",""projectId"":""a0a8f18c-a66e-4ba7-a170-23efbdc67501""}","https://test12345.live/?participantId=B0901473905B445F8409B786C97E73FD&assignmentId=8d21da60-8b61-495d-9fb8-8b151aca2cfb&projectId=a0a8f18c-a66e-4ba7-a170-23efbdc67501","B0901473905B445F8409B786C97E73FD-2024-11-24-19-11-59","","null","","images/schematic_sequence/restaurant_scheme/restaurant_scheme_7.png","null","",""
"","","","","","image-button-response","44","238311","0.0-10.0-1.0-1.6","B0901473905B445F8409B786C97E73FD","B0901473905B445F8409B786C97E73FD","8d21da60-8b61-495d-9fb8-8b151aca2cfb","a0a8f18c-a66e-4ba7-a170-23efbdc67501","{""participantId"":""B0901473905B445F8409B786C97E73FD"",""assignmentId"":""8d21da60-8b61-495d-9fb8-8b151aca2cfb"",""projectId"":""a0a8f18c-a66e-4ba7-a170-23efbdc67501""}","https://test12345.live/?participantId=B0901473905B445F8409B786C97E73FD&assignmentId=8d21da60-8b61-495d-9fb8-8b151aca2cfb&projectId=a0a8f18c-a66e-4ba7-a170-23efbdc67501","B0901473905B445F8409B786C97E73FD-2024-11-24-19-11-59","","1498","","images/schematic_sequence/restaurant_scheme/restaurant_scheme_7.png","1","",""
"","","","","","image-button-response","45","240120","0.0-10.0-1.0-2.6","B0901473905B445F8409B786C97E73FD","B0901473905B445F8409B786C97E73FD","8d21da60-8b61-495d-9fb8-8b151aca2cfb","a0a8f18c-a66e-4ba7-a170-23efbdc67501","{""participantId"":""B0901473905B445F8409B786C97E73FD"",""assignmentId"":""8d21da60-8b61-495d-9fb8-8b151aca2cfb"",""projectId"":""a0a8f18c-a66e-4ba7-a170-23efbdc67501""}","https://test12345.live/?participantId=B0901473905B445F8409B786C97E73FD&assignmentId=8d21da60-8b61-495d-9fb8-8b151aca2cfb&projectId=a0a8f18c-a66e-4ba7-a170-23efbdc67501","B0901473905B445F8409B786C97E73FD-2024-11-24-19-11-59","","null","","[]","null","",""
"","","","","","image-button-response","46","244629","0.0-10.0-1.0-0.7","B0901473905B445F8409B786C97E73FD","B0901473905B445F8409B786C97E73FD","8d21da60-8b61-495d-9fb8-8b151aca2cfb","a0a8f18c-a66e-4ba7-a170-23efbdc67501","{""participantId"":""B0901473905B445F8409B786C97E73FD"",""assignmentId"":""8d21da60-8b61-495d-9fb8-8b151aca2cfb"",""projectId"":""a0a8f18c-a66e-4ba7-a170-23efbdc67501""}","https://test12345.live/?participantId=B0901473905B445F8409B786C97E73FD&assignmentId=8d21da60-8b61-495d-9fb8-8b151aca2cfb&projectId=a0a8f18c-a66e-4ba7-a170-23efbdc67501","B0901473905B445F8409B786C97E73FD-2024-11-24-19-11-59","","null","","images/schematic_sequence/restaurant_scheme/restaurant_scheme_8.png","null","",""
"","","","","","image-button-response","47","245589","0.0-10.0-1.0-1.7","B0901473905B445F8409B786C97E73FD","B0901473905B445F8409B786C97E73FD","8d21da60-8b61-495d-9fb8-8b151aca2cfb","a0a8f18c-a66e-4ba7-a170-23efbdc67501","{""participantId"":""B0901473905B445F8409B786C97E73FD"",""assignmentId"":""8d21da60-8b61-495d-9fb8-8b151aca2cfb"",""projectId"":""a0a8f18c-a66e-4ba7-a170-23efbdc67501""}","https://test12345.live/?participantId=B0901473905B445F8409B786C97E73FD&assignmentId=8d21da60-8b61-495d-9fb8-8b151aca2cfb&projectId=a0a8f18c-a66e-4ba7-a170-23efbdc67501","B0901473905B445F8409B786C97E73FD-2024-11-24-19-11-59","","958","","images/schematic_sequence/restaurant_scheme/restaurant_scheme_8.png","1","",""
"","","","","","image-button-response","48","247402","0.0-10.0-1.0-2.7","B0901473905B445F8409B786C97E73FD","B0901473905B445F8409B786C97E73FD","8d21da60-8b61-495d-9fb8-8b151aca2cfb","a0a8f18c-a66e-4ba7-a170-23efbdc67501","{""participantId"":""B0901473905B445F8409B786C97E73FD"",""assignmentId"":""8d21da60-8b61-495d-9fb8-8b151aca2cfb"",""projectId"":""a0a8f18c-a66e-4ba7-a170-23efbdc67501""}","https://test12345.live/?participantId=B0901473905B445F8409B786C97E73FD&assignmentId=8d21da60-8b61-495d-9fb8-8b151aca2cfb&projectId=a0a8f18c-a66e-4ba7-a170-23efbdc67501","B0901473905B445F8409B786C97E73FD-2024-11-24-19-11-59","","null","","[]","null","",""
"","","","","","image-button-response","49","251909","0.0-10.0-1.0-0.8","B0901473905B445F8409B786C97E73FD","B0901473905B445F8409B786C97E73FD","8d21da60-8b61-495d-9fb8-8b151aca2cfb","a0a8f18c-a66e-4ba7-a170-23efbdc67501","{""participantId"":""B0901473905B445F8409B786C97E73FD"",""assignmentId"":""8d21da60-8b61-495d-9fb8-8b151aca2cfb"",""projectId"":""a0a8f18c-a66e-4ba7-a170-23efbdc67501""}","https://test12345.live/?participantId=B0901473905B445F8409B786C97E73FD&assignmentId=8d21da60-8b61-495d-9fb8-8b151aca2cfb&projectId=a0a8f18c-a66e-4ba7-a170-23efbdc67501","B0901473905B445F8409B786C97E73FD-2024-11-24-19-11-59","","null","","images/schematic_sequence/restaurant_scheme/restaurant_scheme_9.png","null","",""
"","","","","","image-button-response","50","253071","0.0-10.0-1.0-1.8","B0901473905B445F8409B786C97E73FD","B0901473905B445F8409B786C97E73FD","8d21da60-8b61-495d-9fb8-8b151aca2cfb","a0a8f18c-a66e-4ba7-a170-23efbdc67501","{""participantId"":""B0901473905B445F8409B786C97E73FD"",""assignmentId"":""8d21da60-8b61-495d-9fb8-8b151aca2cfb"",""projectId"":""a0a8f18c-a66e-4ba7-a170-23efbdc67501""}","https://test12345.live/?participantId=B0901473905B445F8409B786C97E73FD&assignmentId=8d21da60-8b61-495d-9fb8-8b151aca2cfb&projectId=a0a8f18c-a66e-4ba7-a170-23efbdc67501","B0901473905B445F8409B786C97E73FD-2024-11-24-19-11-59","","1159","","images/schematic_sequence/restaurant_scheme/restaurant_scheme_9.png","0","",""
"","","","","","image-button-response","51","254886","0.0-10.0-1.0-2.8","B0901473905B445F8409B786C97E73FD","B0901473905B445F8409B786C97E73FD","8d21da60-8b61-495d-9fb8-8b151aca2cfb","a0a8f18c-a66e-4ba7-a170-23efbdc67501","{""participantId"":""B0901473905B445F8409B786C97E73FD"",""assignmentId"":""8d21da60-8b61-495d-9fb8-8b151aca2cfb"",""projectId"":""a0a8f18c-a66e-4ba7-a170-23efbdc67501""}","https://test12345.live/?participantId=B0901473905B445F8409B786C97E73FD&assignmentId=8d21da60-8b61-495d-9fb8-8b151aca2cfb&projectId=a0a8f18c-a66e-4ba7-a170-23efbdc67501","B0901473905B445F8409B786C97E73FD-2024-11-24-19-11-59","","null","","[]","null","",""
"","","","","","image-button-response","52","259399","0.0-10.0-1.0-0.9","B0901473905B445F8409B786C97E73FD","B0901473905B445F8409B786C97E73FD","8d21da60-8b61-495d-9fb8-8b151aca2cfb","a0a8f18c-a66e-4ba7-a170-23efbdc67501","{""participantId"":""B0901473905B445F8409B786C97E73FD"",""assignmentId"":""8d21da60-8b61-495d-9fb8-8b151aca2cfb"",""projectId"":""a0a8f18c-a66e-4ba7-a170-23efbdc67501""}","https://test12345.live/?participantId=B0901473905B445F8409B786C97E73FD&assignmentId=8d21da60-8b61-495d-9fb8-8b151aca2cfb&projectId=a0a8f18c-a66e-4ba7-a170-23efbdc67501","B0901473905B445F8409B786C97E73FD-2024-11-24-19-11-59","","null","","images/schematic_sequence/restaurant_scheme/restaurant_scheme_ten.png","null","",""
"","","","","","image-button-response","53","261831","0.0-10.0-1.0-1.9","B0901473905B445F8409B786C97E73FD","B0901473905B445F8409B786C97E73FD","8d21da60-8b61-495d-9fb8-8b151aca2cfb","a0a8f18c-a66e-4ba7-a170-23efbdc67501","{""participantId"":""B0901473905B445F8409B786C97E73FD"",""assignmentId"":""8d21da60-8b61-495d-9fb8-8b151aca2cfb"",""projectId"":""a0a8f18c-a66e-4ba7-a170-23efbdc67501""}","https://test12345.live/?participantId=B0901473905B445F8409B786C97E73FD&assignmentId=8d21da60-8b61-495d-9fb8-8b151aca2cfb&projectId=a0a8f18c-a66e-4ba7-a170-23efbdc67501","B0901473905B445F8409B786C97E73FD-2024-11-24-19-11-59","","2429","","images/schematic_sequence/restaurant_scheme/restaurant_scheme_ten.png","0","",""
"","","","","","image-button-response","54","263643","0.0-10.0-1.0-2.9","B0901473905B445F8409B786C97E73FD","B0901473905B445F8409B786C97E73FD","8d21da60-8b61-495d-9fb8-8b151aca2cfb","a0a8f18c-a66e-4ba7-a170-23efbdc67501","{""participantId"":""B0901473905B445F8409B786C97E73FD"",""assignmentId"":""8d21da60-8b61-495d-9fb8-8b151aca2cfb"",""projectId"":""a0a8f18c-a66e-4ba7-a170-23efbdc67501""}","https://test12345.live/?participantId=B0901473905B445F8409B786C97E73FD&assignmentId=8d21da60-8b61-495d-9fb8-8b151aca2cfb&projectId=a0a8f18c-a66e-4ba7-a170-23efbdc67501","B0901473905B445F8409B786C97E73FD-2024-11-24-19-11-59","","null","","[]","null","",""
"","","","","","html-audio-response","55","370775","0.0-11.0","B0901473905B445F8409B786C97E73FD","B0901473905B445F8409B786C97E73FD","8d21da60-8b61-495d-9fb8-8b151aca2cfb","a0a8f18c-a66e-4ba7-a170-23efbdc67501","{""participantId"":""B0901473905B445F8409B786C97E73FD"",""assignmentId"":""8d21da60-8b61-495d-9fb8-8b151aca2cfb"",""projectId"":""a0a8f18c-a66e-4ba7-a170-23efbdc67501""}","https://test12345.live/?participantId=B0901473905B445F8409B786C97E73FD&assignmentId=8d21da60-8b61-495d-9fb8-8b151aca2cfb&projectId=a0a8f18c-a66e-4ba7-a170-23efbdc67501","B0901473905B445F8409B786C97E73FD-2024-11-24-19-11-59","","15585","","[""<span style=\""color: red; font-size: 24px\""> NOW RECORDING</span><p>Please say out loud all the images you saw, as many as you can remember. The images can be said in any order.</p>""]","","2","restaurant_scheme"
"","","","","","image-button-response","56","376790","0.0-12.0-0.0","B0901473905B445F8409B786C97E73FD","B0901473905B445F8409B786C97E73FD","8d21da60-8b61-495d-9fb8-8b151aca2cfb","a0a8f18c-a66e-4ba7-a170-23efbdc67501","{""participantId"":""B0901473905B445F8409B786C97E73FD"",""assignmentId"":""8d21da60-8b61-495d-9fb8-8b151aca2cfb"",""projectId"":""a0a8f18c-a66e-4ba7-a170-23efbdc67501""}","https://test12345.live/?participantId=B0901473905B445F8409B786C97E73FD&assignmentId=8d21da60-8b61-495d-9fb8-8b151aca2cfb&projectId=a0a8f18c-a66e-4ba7-a170-23efbdc67501","B0901473905B445F8409B786C97E73FD-2024-11-24-19-11-59","","null","","images/causal_sequence/dog_causal/dog_causal_0.png","null","",""
"","","","","","image-button-response","57","381298","0.0-12.0-1.0-0.0","B0901473905B445F8409B786C97E73FD","B0901473905B445F8409B786C97E73FD","8d21da60-8b61-495d-9fb8-8b151aca2cfb","a0a8f18c-a66e-4ba7-a170-23efbdc67501","{""participantId"":""B0901473905B445F8409B786C97E73FD"",""assignmentId"":""8d21da60-8b61-495d-9fb8-8b151aca2cfb"",""projectId"":""a0a8f18c-a66e-4ba7-a170-23efbdc67501""}","https://test12345.live/?participantId=B0901473905B445F8409B786C97E73FD&assignmentId=8d21da60-8b61-495d-9fb8-8b151aca2cfb&projectId=a0a8f18c-a66e-4ba7-a170-23efbdc67501","B0901473905B445F8409B786C97E73FD-2024-11-24-19-11-59","","null","","images/causal_sequence/dog_causal/dog_causal_1.png","null","",""
"","","","","","image-button-response","58","383360","0.0-12.0-1.0-1.0","B0901473905B445F8409B786C97E73FD","B0901473905B445F8409B786C97E73FD","8d21da60-8b61-495d-9fb8-8b151aca2cfb","a0a8f18c-a66e-4ba7-a170-23efbdc67501","{""participantId"":""B0901473905B445F8409B786C97E73FD"",""assignmentId"":""8d21da60-8b61-495d-9fb8-8b151aca2cfb"",""projectId"":""a0a8f18c-a66e-4ba7-a170-23efbdc67501""}","https://test12345.live/?participantId=B0901473905B445F8409B786C97E73FD&assignmentId=8d21da60-8b61-495d-9fb8-8b151aca2cfb&projectId=a0a8f18c-a66e-4ba7-a170-23efbdc67501","B0901473905B445F8409B786C97E73FD-2024-11-24-19-11-59","","2059","","images/causal_sequence/dog_causal/dog_causal_1.png","0","",""
"","","","","","image-button-response","59","385163","0.0-12.0-1.0-2.0","B0901473905B445F8409B786C97E73FD","B0901473905B445F8409B786C97E73FD","8d21da60-8b61-495d-9fb8-8b151aca2cfb","a0a8f18c-a66e-4ba7-a170-23efbdc67501","{""participantId"":""B0901473905B445F8409B786C97E73FD"",""assignmentId"":""8d21da60-8b61-495d-9fb8-8b151aca2cfb"",""projectId"":""a0a8f18c-a66e-4ba7-a170-23efbdc67501""}","https://test12345.live/?participantId=B0901473905B445F8409B786C97E73FD&assignmentId=8d21da60-8b61-495d-9fb8-8b151aca2cfb&projectId=a0a8f18c-a66e-4ba7-a170-23efbdc67501","B0901473905B445F8409B786C97E73FD-2024-11-24-19-11-59","","null","","[]","null","",""
"","","","","","image-button-response","60","389676","0.0-12.0-1.0-0.1","B0901473905B445F8409B786C97E73FD","B0901473905B445F8409B786C97E73FD","8d21da60-8b61-495d-9fb8-8b151aca2cfb","a0a8f18c-a66e-4ba7-a170-23efbdc67501","{""participantId"":""B0901473905B445F8409B786C97E73FD"",""assignmentId"":""8d21da60-8b61-495d-9fb8-8b151aca2cfb"",""projectId"":""a0a8f18c-a66e-4ba7-a170-23efbdc67501""}","https://test12345.live/?participantId=B0901473905B445F8409B786C97E73FD&assignmentId=8d21da60-8b61-495d-9fb8-8b151aca2cfb&projectId=a0a8f18c-a66e-4ba7-a170-23efbdc67501","B0901473905B445F8409B786C97E73FD-2024-11-24-19-11-59","","null","","images/causal_sequence/dog_causal/dog_causal_9.png","null","",""
"","","","","","image-button-response","61","390893","0.0-12.0-1.0-1.1","B0901473905B445F8409B786C97E73FD","B0901473905B445F8409B786C97E73FD","8d21da60-8b61-495d-9fb8-8b151aca2cfb","a0a8f18c-a66e-4ba7-a170-23efbdc67501","{""participantId"":""B0901473905B445F8409B786C97E73FD"",""assignmentId"":""8d21da60-8b61-495d-9fb8-8b151aca2cfb"",""projectId"":""a0a8f18c-a66e-4ba7-a170-23efbdc67501""}","https://test12345.live/?participantId=B0901473905B445F8409B786C97E73FD&assignmentId=8d21da60-8b61-495d-9fb8-8b151aca2cfb&projectId=a0a8f18c-a66e-4ba7-a170-23efbdc67501","B0901473905B445F8409B786C97E73FD-2024-11-24-19-11-59","","1216","","images/causal_sequence/dog_causal/dog_causal_9.png","0","",""
"","","","","","image-button-response","62","392703","0.0-12.0-1.0-2.1","B0901473905B445F8409B786C97E73FD","B0901473905B445F8409B786C97E73FD","8d21da60-8b61-495d-9fb8-8b151aca2cfb","a0a8f18c-a66e-4ba7-a170-23efbdc67501","{""participantId"":""B0901473905B445F8409B786C97E73FD"",""assignmentId"":""8d21da60-8b61-495d-9fb8-8b151aca2cfb"",""projectId"":""a0a8f18c-a66e-4ba7-a170-23efbdc67501""}","https://test12345.live/?participantId=B0901473905B445F8409B786C97E73FD&assignmentId=8d21da60-8b61-495d-9fb8-8b151aca2cfb&projectId=a0a8f18c-a66e-4ba7-a170-23efbdc67501","B0901473905B445F8409B786C97E73FD-2024-11-24-19-11-59","","null","","[]","null","",""
"","","","","","image-button-response","63","397212","0.0-12.0-1.0-0.2","B0901473905B445F8409B786C97E73FD","B0901473905B445F8409B786C97E73FD","8d21da60-8b61-495d-9fb8-8b151aca2cfb","a0a8f18c-a66e-4ba7-a170-23efbdc67501","{""participantId"":""B0901473905B445F8409B786C97E73FD"",""assignmentId"":""8d21da60-8b61-495d-9fb8-8b151aca2cfb"",""projectId"":""a0a8f18c-a66e-4ba7-a170-23efbdc67501""}","https://test12345.live/?participantId=B0901473905B445F8409B786C97E73FD&assignmentId=8d21da60-8b61-495d-9fb8-8b151aca2cfb&projectId=a0a8f18c-a66e-4ba7-a170-23efbdc67501","B0901473905B445F8409B786C97E73FD-2024-11-24-19-11-59","","null","","images/causal_sequence/dog_causal/dog_causal_4.png","null","",""
"","","","","","image-button-response","64","398882","0.0-12.0-1.0-1.2","B0901473905B445F8409B786C97E73FD","B0901473905B445F8409B786C97E73FD","8d21da60-8b61-495d-9fb8-8b151aca2cfb","a0a8f18c-a66e-4ba7-a170-23efbdc67501","{""participantId"":""B0901473905B445F8409B786C97E73FD"",""assignmentId"":""8d21da60-8b61-495d-9fb8-8b151aca2cfb"",""projectId"":""a0a8f18c-a66e-4ba7-a170-23efbdc67501""}","https://test12345.live/?participantId=B0901473905B445F8409B786C97E73FD&assignmentId=8d21da60-8b61-495d-9fb8-8b151aca2cfb&projectId=a0a8f18c-a66e-4ba7-a170-23efbdc67501","B0901473905B445F8409B786C97E73FD-2024-11-24-19-11-59","","1668","","images/causal_sequence/dog_causal/dog_causal_4.png","0","",""
"","","","","","image-button-response","65","400696","0.0-12.0-1.0-2.2","B0901473905B445F8409B786C97E73FD","B0901473905B445F8409B786C97E73FD","8d21da60-8b61-495d-9fb8-8b151aca2cfb","a0a8f18c-a66e-4ba7-a170-23efbdc67501","{""participantId"":""B0901473905B445F8409B786C97E73FD"",""assignmentId"":""8d21da60-8b61-495d-9fb8-8b151aca2cfb"",""projectId"":""a0a8f18c-a66e-4ba7-a170-23efbdc67501""}","https://test12345.live/?participantId=B0901473905B445F8409B786C97E73FD&assignmentId=8d21da60-8b61-495d-9fb8-8b151aca2cfb&projectId=a0a8f18c-a66e-4ba7-a170-23efbdc67501","B0901473905B445F8409B786C97E73FD-2024-11-24-19-11-59","","null","","[]","null","",""
"","","","","","image-button-response","66","405209","0.0-12.0-1.0-0.3","B0901473905B445F8409B786C97E73FD","B0901473905B445F8409B786C97E73FD","8d21da60-8b61-495d-9fb8-8b151aca2cfb","a0a8f18c-a66e-4ba7-a170-23efbdc67501","{""participantId"":""B0901473905B445F8409B786C97E73FD"",""assignmentId"":""8d21da60-8b61-495d-9fb8-8b151aca2cfb"",""projectId"":""a0a8f18c-a66e-4ba7-a170-23efbdc67501""}","https://test12345.live/?participantId=B0901473905B445F8409B786C97E73FD&assignmentId=8d21da60-8b61-495d-9fb8-8b151aca2cfb&projectId=a0a8f18c-a66e-4ba7-a170-23efbdc67501","B0901473905B445F8409B786C97E73FD-2024-11-24-19-11-59","","null","","images/causal_sequence/dog_causal/dog_causal_6.png","null","",""
"","","","","","image-button-response","67","407028","0.0-12.0-1.0-1.3","B0901473905B445F8409B786C97E73FD","B0901473905B445F8409B786C97E73FD","8d21da60-8b61-495d-9fb8-8b151aca2cfb","a0a8f18c-a66e-4ba7-a170-23efbdc67501","{""participantId"":""B0901473905B445F8409B786C97E73FD"",""assignmentId"":""8d21da60-8b61-495d-9fb8-8b151aca2cfb"",""projectId"":""a0a8f18c-a66e-4ba7-a170-23efbdc67501""}","https://test12345.live/?participantId=B0901473905B445F8409B786C97E73FD&assignmentId=8d21da60-8b61-495d-9fb8-8b151aca2cfb&projectId=a0a8f18c-a66e-4ba7-a170-23efbdc67501","B0901473905B445F8409B786C97E73FD-2024-11-24-19-11-59","","1817","","images/causal_sequence/dog_causal/dog_causal_6.png","0","",""
"","","","","","image-button-response","68","408833","0.0-12.0-1.0-2.3","B0901473905B445F8409B786C97E73FD","B0901473905B445F8409B786C97E73FD","8d21da60-8b61-495d-9fb8-8b151aca2cfb","a0a8f18c-a66e-4ba7-a170-23efbdc67501","{""participantId"":""B0901473905B445F8409B786C97E73FD"",""assignmentId"":""8d21da60-8b61-495d-9fb8-8b151aca2cfb"",""projectId"":""a0a8f18c-a66e-4ba7-a170-23efbdc67501""}","https://test12345.live/?participantId=B0901473905B445F8409B786C97E73FD&assignmentId=8d21da60-8b61-495d-9fb8-8b151aca2cfb&projectId=a0a8f18c-a66e-4ba7-a170-23efbdc67501","B0901473905B445F8409B786C97E73FD-2024-11-24-19-11-59","","null","","[]","null","",""
"","","","","","image-button-response","69","413343","0.0-12.0-1.0-0.4","B0901473905B445F8409B786C97E73FD","B0901473905B445F8409B786C97E73FD","8d21da60-8b61-495d-9fb8-8b151aca2cfb","a0a8f18c-a66e-4ba7-a170-23efbdc67501","{""participantId"":""B0901473905B445F8409B786C97E73FD"",""assignmentId"":""8d21da60-8b61-495d-9fb8-8b151aca2cfb"",""projectId"":""a0a8f18c-a66e-4ba7-a170-23efbdc67501""}","https://test12345.live/?participantId=B0901473905B445F8409B786C97E73FD&assignmentId=8d21da60-8b61-495d-9fb8-8b151aca2cfb&projectId=a0a8f18c-a66e-4ba7-a170-23efbdc67501","B0901473905B445F8409B786C97E73FD-2024-11-24-19-11-59","","null","","images/causal_sequence/dog_causal/dog_causal_8.png","null","",""
"","","","","","image-button-response","70","414937","0.0-12.0-1.0-1.4","B0901473905B445F8409B786C97E73FD","B0901473905B445F8409B786C97E73FD","8d21da60-8b61-495d-9fb8-8b151aca2cfb","a0a8f18c-a66e-4ba7-a170-23efbdc67501","{""participantId"":""B0901473905B445F8409B786C97E73FD"",""assignmentId"":""8d21da60-8b61-495d-9fb8-8b151aca2cfb"",""projectId"":""a0a8f18c-a66e-4ba7-a170-23efbdc67501""}","https://test12345.live/?participantId=B0901473905B445F8409B786C97E73FD&assignmentId=8d21da60-8b61-495d-9fb8-8b151aca2cfb&projectId=a0a8f18c-a66e-4ba7-a170-23efbdc67501","B0901473905B445F8409B786C97E73FD-2024-11-24-19-11-59","","1592","","images/causal_sequence/dog_causal/dog_causal_8.png","0","",""
"","","","","","image-button-response","71","416754","0.0-12.0-1.0-2.4","B0901473905B445F8409B786C97E73FD","B0901473905B445F8409B786C97E73FD","8d21da60-8b61-495d-9fb8-8b151aca2cfb","a0a8f18c-a66e-4ba7-a170-23efbdc67501","{""participantId"":""B0901473905B445F8409B786C97E73FD"",""assignmentId"":""8d21da60-8b61-495d-9fb8-8b151aca2cfb"",""projectId"":""a0a8f18c-a66e-4ba7-a170-23efbdc67501""}","https://test12345.live/?participantId=B0901473905B445F8409B786C97E73FD&assignmentId=8d21da60-8b61-495d-9fb8-8b151aca2cfb&projectId=a0a8f18c-a66e-4ba7-a170-23efbdc67501","B0901473905B445F8409B786C97E73FD-2024-11-24-19-11-59","","null","","[]","null","",""
"","","","","","image-button-response","72","421265","0.0-12.0-1.0-0.5","B0901473905B445F8409B786C97E73FD","B0901473905B445F8409B786C97E73FD","8d21da60-8b61-495d-9fb8-8b151aca2cfb","a0a8f18c-a66e-4ba7-a170-23efbdc67501","{""participantId"":""B0901473905B445F8409B786C97E73FD"",""assignmentId"":""8d21da60-8b61-495d-9fb8-8b151aca2cfb"",""projectId"":""a0a8f18c-a66e-4ba7-a170-23efbdc67501""}","https://test12345.live/?participantId=B0901473905B445F8409B786C97E73FD&assignmentId=8d21da60-8b61-495d-9fb8-8b151aca2cfb&projectId=a0a8f18c-a66e-4ba7-a170-23efbdc67501","B0901473905B445F8409B786C97E73FD-2024-11-24-19-11-59","","null","","images/causal_sequence/dog_causal/dog_causal_7.png","null","",""
"","","","","","image-button-response","73","422723","0.0-12.0-1.0-1.5","B0901473905B445F8409B786C97E73FD","B0901473905B445F8409B786C97E73FD","8d21da60-8b61-495d-9fb8-8b151aca2cfb","a0a8f18c-a66e-4ba7-a170-23efbdc67501","{""participantId"":""B0901473905B445F8409B786C97E73FD"",""assignmentId"":""8d21da60-8b61-495d-9fb8-8b151aca2cfb"",""projectId"":""a0a8f18c-a66e-4ba7-a170-23efbdc67501""}","https://test12345.live/?participantId=B0901473905B445F8409B786C97E73FD&assignmentId=8d21da60-8b61-495d-9fb8-8b151aca2cfb&projectId=a0a8f18c-a66e-4ba7-a170-23efbdc67501","B0901473905B445F8409B786C97E73FD-2024-11-24-19-11-59","","1457","","images/causal_sequence/dog_causal/dog_causal_7.png","0","",""
"","","","","","image-button-response","74","424536","0.0-12.0-1.0-2.5","B0901473905B445F8409B786C97E73FD","B0901473905B445F8409B786C97E73FD","8d21da60-8b61-495d-9fb8-8b151aca2cfb","a0a8f18c-a66e-4ba7-a170-23efbdc67501","{""participantId"":""B0901473905B445F8409B786C97E73FD"",""assignmentId"":""8d21da60-8b61-495d-9fb8-8b151aca2cfb"",""projectId"":""a0a8f18c-a66e-4ba7-a170-23efbdc67501""}","https://test12345.live/?participantId=B0901473905B445F8409B786C97E73FD&assignmentId=8d21da60-8b61-495d-9fb8-8b151aca2cfb&projectId=a0a8f18c-a66e-4ba7-a170-23efbdc67501","B0901473905B445F8409B786C97E73FD-2024-11-24-19-11-59","","null","","[]","null","",""
"","","","","","image-button-response","75","429048","0.0-12.0-1.0-0.6","B0901473905B445F8409B786C97E73FD","B0901473905B445F8409B786C97E73FD","8d21da60-8b61-495d-9fb8-8b151aca2cfb","a0a8f18c-a66e-4ba7-a170-23efbdc67501","{""participantId"":""B0901473905B445F8409B786C97E73FD"",""assignmentId"":""8d21da60-8b61-495d-9fb8-8b151aca2cfb"",""projectId"":""a0a8f18c-a66e-4ba7-a170-23efbdc67501""}","https://test12345.live/?participantId=B0901473905B445F8409B786C97E73FD&assignmentId=8d21da60-8b61-495d-9fb8-8b151aca2cfb&projectId=a0a8f18c-a66e-4ba7-a170-23efbdc67501","B0901473905B445F8409B786C97E73FD-2024-11-24-19-11-59","","null","","images/causal_sequence/dog_causal/dog_causal_3.png","null","",""
"","","","","","image-button-response","76","430147","0.0-12.0-1.0-1.6","B0901473905B445F8409B786C97E73FD","B0901473905B445F8409B786C97E73FD","8d21da60-8b61-495d-9fb8-8b151aca2cfb","a0a8f18c-a66e-4ba7-a170-23efbdc67501","{""participantId"":""B0901473905B445F8409B786C97E73FD"",""assignmentId"":""8d21da60-8b61-495d-9fb8-8b151aca2cfb"",""projectId"":""a0a8f18c-a66e-4ba7-a170-23efbdc67501""}","https://test12345.live/?participantId=B0901473905B445F8409B786C97E73FD&assignmentId=8d21da60-8b61-495d-9fb8-8b151aca2cfb&projectId=a0a8f18c-a66e-4ba7-a170-23efbdc67501","B0901473905B445F8409B786C97E73FD-2024-11-24-19-11-59","","1098","","images/causal_sequence/dog_causal/dog_causal_3.png","0","",""
"","","","","","image-button-response","77","431952","0.0-12.0-1.0-2.6","B0901473905B445F8409B786C97E73FD","B0901473905B445F8409B786C97E73FD","8d21da60-8b61-495d-9fb8-8b151aca2cfb","a0a8f18c-a66e-4ba7-a170-23efbdc67501","{""participantId"":""B0901473905B445F8409B786C97E73FD"",""assignmentId"":""8d21da60-8b61-495d-9fb8-8b151aca2cfb"",""projectId"":""a0a8f18c-a66e-4ba7-a170-23efbdc67501""}","https://test12345.live/?participantId=B0901473905B445F8409B786C97E73FD&assignmentId=8d21da60-8b61-495d-9fb8-8b151aca2cfb&projectId=a0a8f18c-a66e-4ba7-a170-23efbdc67501","B0901473905B445F8409B786C97E73FD-2024-11-24-19-11-59","","null","","[]","null","",""
"","","","","","image-button-response","78","436458","0.0-12.0-1.0-0.7","B0901473905B445F8409B786C97E73FD","B0901473905B445F8409B786C97E73FD","8d21da60-8b61-495d-9fb8-8b151aca2cfb","a0a8f18c-a66e-4ba7-a170-23efbdc67501","{""participantId"":""B0901473905B445F8409B786C97E73FD"",""assignmentId"":""8d21da60-8b61-495d-9fb8-8b151aca2cfb"",""projectId"":""a0a8f18c-a66e-4ba7-a170-23efbdc67501""}","https://test12345.live/?participantId=B0901473905B445F8409B786C97E73FD&assignmentId=8d21da60-8b61-495d-9fb8-8b151aca2cfb&projectId=a0a8f18c-a66e-4ba7-a170-23efbdc67501","B0901473905B445F8409B786C97E73FD-2024-11-24-19-11-59","","null","","images/causal_sequence/dog_causal/dog_causal_ten.png","null","",""
"","","","","","image-button-response","79","438019","0.0-12.0-1.0-1.7","B0901473905B445F8409B786C97E73FD","B0901473905B445F8409B786C97E73FD","8d21da60-8b61-495d-9fb8-8b151aca2cfb","a0a8f18c-a66e-4ba7-a170-23efbdc67501","{""participantId"":""B0901473905B445F8409B786C97E73FD"",""assignmentId"":""8d21da60-8b61-495d-9fb8-8b151aca2cfb"",""projectId"":""a0a8f18c-a66e-4ba7-a170-23efbdc67501""}","https://test12345.live/?participantId=B0901473905B445F8409B786C97E73FD&assignmentId=8d21da60-8b61-495d-9fb8-8b151aca2cfb&projectId=a0a8f18c-a66e-4ba7-a170-23efbdc67501","B0901473905B445F8409B786C97E73FD-2024-11-24-19-11-59","","1558","","images/causal_sequence/dog_causal/dog_causal_ten.png","0","",""
"","","","","","image-button-response","80","439829","0.0-12.0-1.0-2.7","B0901473905B445F8409B786C97E73FD","B0901473905B445F8409B786C97E73FD","8d21da60-8b61-495d-9fb8-8b151aca2cfb","a0a8f18c-a66e-4ba7-a170-23efbdc67501","{""participantId"":""B0901473905B445F8409B786C97E73FD"",""assignmentId"":""8d21da60-8b61-495d-9fb8-8b151aca2cfb"",""projectId"":""a0a8f18c-a66e-4ba7-a170-23efbdc67501""}","https://test12345.live/?participantId=B0901473905B445F8409B786C97E73FD&assignmentId=8d21da60-8b61-495d-9fb8-8b151aca2cfb&projectId=a0a8f18c-a66e-4ba7-a170-23efbdc67501","B0901473905B445F8409B786C97E73FD-2024-11-24-19-11-59","","null","","[]","null","",""
"","","","","","image-button-response","81","444343","0.0-12.0-1.0-0.8","B0901473905B445F8409B786C97E73FD","B0901473905B445F8409B786C97E73FD","8d21da60-8b61-495d-9fb8-8b151aca2cfb","a0a8f18c-a66e-4ba7-a170-23efbdc67501","{""participantId"":""B0901473905B445F8409B786C97E73FD"",""assignmentId"":""8d21da60-8b61-495d-9fb8-8b151aca2cfb"",""projectId"":""a0a8f18c-a66e-4ba7-a170-23efbdc67501""}","https://test12345.live/?participantId=B0901473905B445F8409B786C97E73FD&assignmentId=8d21da60-8b61-495d-9fb8-8b151aca2cfb&projectId=a0a8f18c-a66e-4ba7-a170-23efbdc67501","B0901473905B445F8409B786C97E73FD-2024-11-24-19-11-59","","null","","images/causal_sequence/dog_causal/dog_causal_2.png","null","",""
"","","","","","image-button-response","82","445562","0.0-12.0-1.0-1.8","B0901473905B445F8409B786C97E73FD","B0901473905B445F8409B786C97E73FD","8d21da60-8b61-495d-9fb8-8b151aca2cfb","a0a8f18c-a66e-4ba7-a170-23efbdc67501","{""participantId"":""B0901473905B445F8409B786C97E73FD"",""assignmentId"":""8d21da60-8b61-495d-9fb8-8b151aca2cfb"",""projectId"":""a0a8f18c-a66e-4ba7-a170-23efbdc67501""}","https://test12345.live/?participantId=B0901473905B445F8409B786C97E73FD&assignmentId=8d21da60-8b61-495d-9fb8-8b151aca2cfb&projectId=a0a8f18c-a66e-4ba7-a170-23efbdc67501","B0901473905B445F8409B786C97E73FD-2024-11-24-19-11-59","","1216","","images/causal_sequence/dog_causal/dog_causal_2.png","0","",""
"","","","","","image-button-response","83","447369","0.0-12.0-1.0-2.8","B0901473905B445F8409B786C97E73FD","B0901473905B445F8409B786C97E73FD","8d21da60-8b61-495d-9fb8-8b151aca2cfb","a0a8f18c-a66e-4ba7-a170-23efbdc67501","{""participantId"":""B0901473905B445F8409B786C97E73FD"",""assignmentId"":""8d21da60-8b61-495d-9fb8-8b151aca2cfb"",""projectId"":""a0a8f18c-a66e-4ba7-a170-23efbdc67501""}","https://test12345.live/?participantId=B0901473905B445F8409B786C97E73FD&assignmentId=8d21da60-8b61-495d-9fb8-8b151aca2cfb&projectId=a0a8f18c-a66e-4ba7-a170-23efbdc67501","B0901473905B445F8409B786C97E73FD-2024-11-24-19-11-59","","null","","[]","null","",""
"","","","","","image-button-response","84","451884","0.0-12.0-1.0-0.9","B0901473905B445F8409B786C97E73FD","B0901473905B445F8409B786C97E73FD","8d21da60-8b61-495d-9fb8-8b151aca2cfb","a0a8f18c-a66e-4ba7-a170-23efbdc67501","{""participantId"":""B0901473905B445F8409B786C97E73FD"",""assignmentId"":""8d21da60-8b61-495d-9fb8-8b151aca2cfb"",""projectId"":""a0a8f18c-a66e-4ba7-a170-23efbdc67501""}","https://test12345.live/?participantId=B0901473905B445F8409B786C97E73FD&assignmentId=8d21da60-8b61-495d-9fb8-8b151aca2cfb&projectId=a0a8f18c-a66e-4ba7-a170-23efbdc67501","B0901473905B445F8409B786C97E73FD-2024-11-24-19-11-59","","null","","images/causal_sequence/dog_causal/dog_causal_5.png","null","",""
"","","","","","image-button-response","85","453595","0.0-12.0-1.0-1.9","B0901473905B445F8409B786C97E73FD","B0901473905B445F8409B786C97E73FD","8d21da60-8b61-495d-9fb8-8b151aca2cfb","a0a8f18c-a66e-4ba7-a170-23efbdc67501","{""participantId"":""B0901473905B445F8409B786C97E73FD"",""assignmentId"":""8d21da60-8b61-495d-9fb8-8b151aca2cfb"",""projectId"":""a0a8f18c-a66e-4ba7-a170-23efbdc67501""}","https://test12345.live/?participantId=B0901473905B445F8409B786C97E73FD&assignmentId=8d21da60-8b61-495d-9fb8-8b151aca2cfb&projectId=a0a8f18c-a66e-4ba7-a170-23efbdc67501","B0901473905B445F8409B786C97E73FD-2024-11-24-19-11-59","","1709","","images/causal_sequence/dog_causal/dog_causal_5.png","0","",""
"","","","","","image-button-response","86","455398","0.0-12.0-1.0-2.9","B0901473905B445F8409B786C97E73FD","B0901473905B445F8409B786C97E73FD","8d21da60-8b61-495d-9fb8-8b151aca2cfb","a0a8f18c-a66e-4ba7-a170-23efbdc67501","{""participantId"":""B0901473905B445F8409B786C97E73FD"",""assignmentId"":""8d21da60-8b61-495d-9fb8-8b151aca2cfb"",""projectId"":""a0a8f18c-a66e-4ba7-a170-23efbdc67501""}","https://test12345.live/?participantId=B0901473905B445F8409B786C97E73FD&assignmentId=8d21da60-8b61-495d-9fb8-8b151aca2cfb&projectId=a0a8f18c-a66e-4ba7-a170-23efbdc67501","B0901473905B445F8409B786C97E73FD-2024-11-24-19-11-59","","null","","[]","null","",""
"","","","","","html-audio-response","87","517561","0.0-13.0","B0901473905B445F8409B786C97E73FD","B0901473905B445F8409B786C97E73FD","8d21da60-8b61-495d-9fb8-8b151aca2cfb","a0a8f18c-a66e-4ba7-a170-23efbdc67501","{""participantId"":""B0901473905B445F8409B786C97E73FD"",""assignmentId"":""8d21da60-8b61-495d-9fb8-8b151aca2cfb"",""projectId"":""a0a8f18c-a66e-4ba7-a170-23efbdc67501""}","https://test12345.live/?participantId=B0901473905B445F8409B786C97E73FD&assignmentId=8d21da60-8b61-495d-9fb8-8b151aca2cfb&projectId=a0a8f18c-a66e-4ba7-a170-23efbdc67501","B0901473905B445F8409B786C97E73FD-2024-11-24-19-11-59","","33774","","[""<span style=\""color: red; font-size: 24px\""> NOW RECORDING</span><p>Please say out loud all the images you saw, as many as you can remember. The images can be said in any order.</p>""]","","3","dog_causal"
"","","","","","image-button-response","88","523577","0.0-14.0-0.0","B0901473905B445F8409B786C97E73FD","B0901473905B445F8409B786C97E73FD","8d21da60-8b61-495d-9fb8-8b151aca2cfb","a0a8f18c-a66e-4ba7-a170-23efbdc67501","{""participantId"":""B0901473905B445F8409B786C97E73FD"",""assignmentId"":""8d21da60-8b61-495d-9fb8-8b151aca2cfb"",""projectId"":""a0a8f18c-a66e-4ba7-a170-23efbdc67501""}","https://test12345.live/?participantId=B0901473905B445F8409B786C97E73FD&assignmentId=8d21da60-8b61-495d-9fb8-8b151aca2cfb&projectId=a0a8f18c-a66e-4ba7-a170-23efbdc67501","B0901473905B445F8409B786C97E73FD-2024-11-24-19-11-59","","null","","images/semantic_sequence/physical_activity_semantic/physical_activity_semantic_0.png","null","",""
"","","","","","image-button-response","89","528085","0.0-14.0-1.0-0.0","B0901473905B445F8409B786C97E73FD","B0901473905B445F8409B786C97E73FD","8d21da60-8b61-495d-9fb8-8b151aca2cfb","a0a8f18c-a66e-4ba7-a170-23efbdc67501","{""participantId"":""B0901473905B445F8409B786C97E73FD"",""assignmentId"":""8d21da60-8b61-495d-9fb8-8b151aca2cfb"",""projectId"":""a0a8f18c-a66e-4ba7-a170-23efbdc67501""}","https://test12345.live/?participantId=B0901473905B445F8409B786C97E73FD&assignmentId=8d21da60-8b61-495d-9fb8-8b151aca2cfb&projectId=a0a8f18c-a66e-4ba7-a170-23efbdc67501","B0901473905B445F8409B786C97E73FD-2024-11-24-19-11-59","","null","","images/semantic_sequence/physical_activity_semantic/physical_activity_semantic_1.png","null","",""
"","","","","","image-button-response","90","529932","0.0-14.0-1.0-1.0","B0901473905B445F8409B786C97E73FD","B0901473905B445F8409B786C97E73FD","8d21da60-8b61-495d-9fb8-8b151aca2cfb","a0a8f18c-a66e-4ba7-a170-23efbdc67501","{""participantId"":""B0901473905B445F8409B786C97E73FD"",""assignmentId"":""8d21da60-8b61-495d-9fb8-8b151aca2cfb"",""projectId"":""a0a8f18c-a66e-4ba7-a170-23efbdc67501""}","https://test12345.live/?participantId=B0901473905B445F8409B786C97E73FD&assignmentId=8d21da60-8b61-495d-9fb8-8b151aca2cfb&projectId=a0a8f18c-a66e-4ba7-a170-23efbdc67501","B0901473905B445F8409B786C97E73FD-2024-11-24-19-11-59","","1845","","images/semantic_sequence/physical_activity_semantic/physical_activity_semantic_1.png","0","",""
"","","","","","image-button-response","91","531748","0.0-14.0-1.0-2.0","B0901473905B445F8409B786C97E73FD","B0901473905B445F8409B786C97E73FD","8d21da60-8b61-495d-9fb8-8b151aca2cfb","a0a8f18c-a66e-4ba7-a170-23efbdc67501","{""participantId"":""B0901473905B445F8409B786C97E73FD"",""assignmentId"":""8d21da60-8b61-495d-9fb8-8b151aca2cfb"",""projectId"":""a0a8f18c-a66e-4ba7-a170-23efbdc67501""}","https://test12345.live/?participantId=B0901473905B445F8409B786C97E73FD&assignmentId=8d21da60-8b61-495d-9fb8-8b151aca2cfb&projectId=a0a8f18c-a66e-4ba7-a170-23efbdc67501","B0901473905B445F8409B786C97E73FD-2024-11-24-19-11-59","","null","","[]","null","",""
"","","","","","image-button-response","92","536264","0.0-14.0-1.0-0.1","B0901473905B445F8409B786C97E73FD","B0901473905B445F8409B786C97E73FD","8d21da60-8b61-495d-9fb8-8b151aca2cfb","a0a8f18c-a66e-4ba7-a170-23efbdc67501","{""participantId"":""B0901473905B445F8409B786C97E73FD"",""assignmentId"":""8d21da60-8b61-495d-9fb8-8b151aca2cfb"",""projectId"":""a0a8f18c-a66e-4ba7-a170-23efbdc67501""}","https://test12345.live/?participantId=B0901473905B445F8409B786C97E73FD&assignmentId=8d21da60-8b61-495d-9fb8-8b151aca2cfb&projectId=a0a8f18c-a66e-4ba7-a170-23efbdc67501","B0901473905B445F8409B786C97E73FD-2024-11-24-19-11-59","","null","","images/semantic_sequence/physical_activity_semantic/physical_activity_semantic_2.png","null","",""
"","","","","","image-button-response","93","537987","0.0-14.0-1.0-1.1","B0901473905B445F8409B786C97E73FD","B0901473905B445F8409B786C97E73FD","8d21da60-8b61-495d-9fb8-8b151aca2cfb","a0a8f18c-a66e-4ba7-a170-23efbdc67501","{""participantId"":""B0901473905B445F8409B786C97E73FD"",""assignmentId"":""8d21da60-8b61-495d-9fb8-8b151aca2cfb"",""projectId"":""a0a8f18c-a66e-4ba7-a170-23efbdc67501""}","https://test12345.live/?participantId=B0901473905B445F8409B786C97E73FD&assignmentId=8d21da60-8b61-495d-9fb8-8b151aca2cfb&projectId=a0a8f18c-a66e-4ba7-a170-23efbdc67501","B0901473905B445F8409B786C97E73FD-2024-11-24-19-11-59","","1722","","images/semantic_sequence/physical_activity_semantic/physical_activity_semantic_2.png","0","",""
"","","","","","image-button-response","94","539794","0.0-14.0-1.0-2.1","B0901473905B445F8409B786C97E73FD","B0901473905B445F8409B786C97E73FD","8d21da60-8b61-495d-9fb8-8b151aca2cfb","a0a8f18c-a66e-4ba7-a170-23efbdc67501","{""participantId"":""B0901473905B445F8409B786C97E73FD"",""assignmentId"":""8d21da60-8b61-495d-9fb8-8b151aca2cfb"",""projectId"":""a0a8f18c-a66e-4ba7-a170-23efbdc67501""}","https://test12345.live/?participantId=B0901473905B445F8409B786C97E73FD&assignmentId=8d21da60-8b61-495d-9fb8-8b151aca2cfb&projectId=a0a8f18c-a66e-4ba7-a170-23efbdc67501","B0901473905B445F8409B786C97E73FD-2024-11-24-19-11-59","","null","","[]","null","",""
"","","","","","image-button-response","95","544308","0.0-14.0-1.0-0.2","B0901473905B445F8409B786C97E73FD","B0901473905B445F8409B786C97E73FD","8d21da60-8b61-495d-9fb8-8b151aca2cfb","a0a8f18c-a66e-4ba7-a170-23efbdc67501","{""participantId"":""B0901473905B445F8409B786C97E73FD"",""assignmentId"":""8d21da60-8b61-495d-9fb8-8b151aca2cfb"",""projectId"":""a0a8f18c-a66e-4ba7-a170-23efbdc67501""}","https://test12345.live/?participantId=B0901473905B445F8409B786C97E73FD&assignmentId=8d21da60-8b61-495d-9fb8-8b151aca2cfb&projectId=a0a8f18c-a66e-4ba7-a170-23efbdc67501","B0901473905B445F8409B786C97E73FD-2024-11-24-19-11-59","","null","","images/semantic_sequence/physical_activity_semantic/physical_activity_semantic_3.png","null","",""
"","","","","","image-button-response","96","544973","0.0-14.0-1.0-1.2","B0901473905B445F8409B786C97E73FD","B0901473905B445F8409B786C97E73FD","8d21da60-8b61-495d-9fb8-8b151aca2cfb","a0a8f18c-a66e-4ba7-a170-23efbdc67501","{""participantId"":""B0901473905B445F8409B786C97E73FD"",""assignmentId"":""8d21da60-8b61-495d-9fb8-8b151aca2cfb"",""projectId"":""a0a8f18c-a66e-4ba7-a170-23efbdc67501""}","https://test12345.live/?participantId=B0901473905B445F8409B786C97E73FD&assignmentId=8d21da60-8b61-495d-9fb8-8b151aca2cfb&projectId=a0a8f18c-a66e-4ba7-a170-23efbdc67501","B0901473905B445F8409B786C97E73FD-2024-11-24-19-11-59","","663","","images/semantic_sequence/physical_activity_semantic/physical_activity_semantic_3.png","0","",""
"","","","","","image-button-response","97","546785","0.0-14.0-1.0-2.2","B0901473905B445F8409B786C97E73FD","B0901473905B445F8409B786C97E73FD","8d21da60-8b61-495d-9fb8-8b151aca2cfb","a0a8f18c-a66e-4ba7-a170-23efbdc67501","{""participantId"":""B0901473905B445F8409B786C97E73FD"",""assignmentId"":""8d21da60-8b61-495d-9fb8-8b151aca2cfb"",""projectId"":""a0a8f18c-a66e-4ba7-a170-23efbdc67501""}","https://test12345.live/?participantId=B0901473905B445F8409B786C97E73FD&assignmentId=8d21da60-8b61-495d-9fb8-8b151aca2cfb&projectId=a0a8f18c-a66e-4ba7-a170-23efbdc67501","B0901473905B445F8409B786C97E73FD-2024-11-24-19-11-59","","null","","[]","null","",""
"","","","","","image-button-response","98","551291","0.0-14.0-1.0-0.3","B0901473905B445F8409B786C97E73FD","B0901473905B445F8409B786C97E73FD","8d21da60-8b61-495d-9fb8-8b151aca2cfb","a0a8f18c-a66e-4ba7-a170-23efbdc67501","{""participantId"":""B0901473905B445F8409B786C97E73FD"",""assignmentId"":""8d21da60-8b61-495d-9fb8-8b151aca2cfb"",""projectId"":""a0a8f18c-a66e-4ba7-a170-23efbdc67501""}","https://test12345.live/?participantId=B0901473905B445F8409B786C97E73FD&assignmentId=8d21da60-8b61-495d-9fb8-8b151aca2cfb&projectId=a0a8f18c-a66e-4ba7-a170-23efbdc67501","B0901473905B445F8409B786C97E73FD-2024-11-24-19-11-59","","null","","images/semantic_sequence/physical_activity_semantic/physical_activity_semantic_4.png","null","",""
"","","","","","image-button-response","99","552118","0.0-14.0-1.0-1.3","B0901473905B445F8409B786C97E73FD","B0901473905B445F8409B786C97E73FD","8d21da60-8b61-495d-9fb8-8b151aca2cfb","a0a8f18c-a66e-4ba7-a170-23efbdc67501","{""participantId"":""B0901473905B445F8409B786C97E73FD"",""assignmentId"":""8d21da60-8b61-495d-9fb8-8b151aca2cfb"",""projectId"":""a0a8f18c-a66e-4ba7-a170-23efbdc67501""}","https://test12345.live/?participantId=B0901473905B445F8409B786C97E73FD&assignmentId=8d21da60-8b61-495d-9fb8-8b151aca2cfb&projectId=a0a8f18c-a66e-4ba7-a170-23efbdc67501","B0901473905B445F8409B786C97E73FD-2024-11-24-19-11-59","","824","","images/semantic_sequence/physical_activity_semantic/physical_activity_semantic_4.png","0","",""
"","","","","","image-button-response","100","553927","0.0-14.0-1.0-2.3","B0901473905B445F8409B786C97E73FD","B0901473905B445F8409B786C97E73FD","8d21da60-8b61-495d-9fb8-8b151aca2cfb","a0a8f18c-a66e-4ba7-a170-23efbdc67501","{""participantId"":""B0901473905B445F8409B786C97E73FD"",""assignmentId"":""8d21da60-8b61-495d-9fb8-8b151aca2cfb"",""projectId"":""a0a8f18c-a66e-4ba7-a170-23efbdc67501""}","https://test12345.live/?participantId=B0901473905B445F8409B786C97E73FD&assignmentId=8d21da60-8b61-495d-9fb8-8b151aca2cfb&projectId=a0a8f18c-a66e-4ba7-a170-23efbdc67501","B0901473905B445F8409B786C97E73FD-2024-11-24-19-11-59","","null","","[]","null","",""
"","","","","","image-button-response","101","558435","0.0-14.0-1.0-0.4","B0901473905B445F8409B786C97E73FD","B0901473905B445F8409B786C97E73FD","8d21da60-8b61-495d-9fb8-8b151aca2cfb","a0a8f18c-a66e-4ba7-a170-23efbdc67501","{""participantId"":""B0901473905B445F8409B786C97E73FD"",""assignmentId"":""8d21da60-8b61-495d-9fb8-8b151aca2cfb"",""projectId"":""a0a8f18c-a66e-4ba7-a170-23efbdc67501""}","https://test12345.live/?participantId=B0901473905B445F8409B786C97E73FD&assignmentId=8d21da60-8b61-495d-9fb8-8b151aca2cfb&projectId=a0a8f18c-a66e-4ba7-a170-23efbdc67501","B0901473905B445F8409B786C97E73FD-2024-11-24-19-11-59","","null","","images/semantic_sequence/physical_activity_semantic/physical_activity_semantic_5.png","null","",""
"","","","","","image-button-response","102","562444","0.0-14.0-1.0-1.4","B0901473905B445F8409B786C97E73FD","B0901473905B445F8409B786C97E73FD","8d21da60-8b61-495d-9fb8-8b151aca2cfb","a0a8f18c-a66e-4ba7-a170-23efbdc67501","{""participantId"":""B0901473905B445F8409B786C97E73FD"",""assignmentId"":""8d21da60-8b61-495d-9fb8-8b151aca2cfb"",""projectId"":""a0a8f18c-a66e-4ba7-a170-23efbdc67501""}","https://test12345.live/?participantId=B0901473905B445F8409B786C97E73FD&assignmentId=8d21da60-8b61-495d-9fb8-8b151aca2cfb&projectId=a0a8f18c-a66e-4ba7-a170-23efbdc67501","B0901473905B445F8409B786C97E73FD-2024-11-24-19-11-59","","null","","images/semantic_sequence/physical_activity_semantic/physical_activity_semantic_5.png","null","",""
"","","","","","image-button-response","103","564257","0.0-14.0-1.0-2.4","B0901473905B445F8409B786C97E73FD","B0901473905B445F8409B786C97E73FD","8d21da60-8b61-495d-9fb8-8b151aca2cfb","a0a8f18c-a66e-4ba7-a170-23efbdc67501","{""participantId"":""B0901473905B445F8409B786C97E73FD"",""assignmentId"":""8d21da60-8b61-495d-9fb8-8b151aca2cfb"",""projectId"":""a0a8f18c-a66e-4ba7-a170-23efbdc67501""}","https://test12345.live/?participantId=B0901473905B445F8409B786C97E73FD&assignmentId=8d21da60-8b61-495d-9fb8-8b151aca2cfb&projectId=a0a8f18c-a66e-4ba7-a170-23efbdc67501","B0901473905B445F8409B786C97E73FD-2024-11-24-19-11-59","","null","","[]","null","",""
"","","","","","image-button-response","104","568772","0.0-14.0-1.0-0.5","B0901473905B445F8409B786C97E73FD","B0901473905B445F8409B786C97E73FD","8d21da60-8b61-495d-9fb8-8b151aca2cfb","a0a8f18c-a66e-4ba7-a170-23efbdc67501","{""participantId"":""B0901473905B445F8409B786C97E73FD"",""assignmentId"":""8d21da60-8b61-495d-9fb8-8b151aca2cfb"",""projectId"":""a0a8f18c-a66e-4ba7-a170-23efbdc67501""}","https://test12345.live/?participantId=B0901473905B445F8409B786C97E73FD&assignmentId=8d21da60-8b61-495d-9fb8-8b151aca2cfb&projectId=a0a8f18c-a66e-4ba7-a170-23efbdc67501","B0901473905B445F8409B786C97E73FD-2024-11-24-19-11-59","","null","","images/semantic_sequence/physical_activity_semantic/physical_activity_semantic_6.png","null","",""
"","","","","","image-button-response","105","571492","0.0-14.0-1.0-1.5","B0901473905B445F8409B786C97E73FD","B0901473905B445F8409B786C97E73FD","8d21da60-8b61-495d-9fb8-8b151aca2cfb","a0a8f18c-a66e-4ba7-a170-23efbdc67501","{""participantId"":""B0901473905B445F8409B786C97E73FD"",""assignmentId"":""8d21da60-8b61-495d-9fb8-8b151aca2cfb"",""projectId"":""a0a8f18c-a66e-4ba7-a170-23efbdc67501""}","https://test12345.live/?participantId=B0901473905B445F8409B786C97E73FD&assignmentId=8d21da60-8b61-495d-9fb8-8b151aca2cfb&projectId=a0a8f18c-a66e-4ba7-a170-23efbdc67501","B0901473905B445F8409B786C97E73FD-2024-11-24-19-11-59","","2717","","images/semantic_sequence/physical_activity_semantic/physical_activity_semantic_6.png","0","",""
"","","","","","image-button-response","106","573299","0.0-14.0-1.0-2.5","B0901473905B445F8409B786C97E73FD","B0901473905B445F8409B786C97E73FD","8d21da60-8b61-495d-9fb8-8b151aca2cfb","a0a8f18c-a66e-4ba7-a170-23efbdc67501","{""participantId"":""B0901473905B445F8409B786C97E73FD"",""assignmentId"":""8d21da60-8b61-495d-9fb8-8b151aca2cfb"",""projectId"":""a0a8f18c-a66e-4ba7-a170-23efbdc67501""}","https://test12345.live/?participantId=B0901473905B445F8409B786C97E73FD&assignmentId=8d21da60-8b61-495d-9fb8-8b151aca2cfb&projectId=a0a8f18c-a66e-4ba7-a170-23efbdc67501","B0901473905B445F8409B786C97E73FD-2024-11-24-19-11-59","","null","","[]","null","",""
"","","","","","image-button-response","107","577806","0.0-14.0-1.0-0.6","B0901473905B445F8409B786C97E73FD","B0901473905B445F8409B786C97E73FD","8d21da60-8b61-495d-9fb8-8b151aca2cfb","a0a8f18c-a66e-4ba7-a170-23efbdc67501","{""participantId"":""B0901473905B445F8409B786C97E73FD"",""assignmentId"":""8d21da60-8b61-495d-9fb8-8b151aca2cfb"",""projectId"":""a0a8f18c-a66e-4ba7-a170-23efbdc67501""}","https://test12345.live/?participantId=B0901473905B445F8409B786C97E73FD&assignmentId=8d21da60-8b61-495d-9fb8-8b151aca2cfb&projectId=a0a8f18c-a66e-4ba7-a170-23efbdc67501","B0901473905B445F8409B786C97E73FD-2024-11-24-19-11-59","","null","","images/semantic_sequence/physical_activity_semantic/physical_activity_semantic_7.png","null","",""
"","","","","","image-button-response","108","578611","0.0-14.0-1.0-1.6","B0901473905B445F8409B786C97E73FD","B0901473905B445F8409B786C97E73FD","8d21da60-8b61-495d-9fb8-8b151aca2cfb","a0a8f18c-a66e-4ba7-a170-23efbdc67501","{""participantId"":""B0901473905B445F8409B786C97E73FD"",""assignmentId"":""8d21da60-8b61-495d-9fb8-8b151aca2cfb"",""projectId"":""a0a8f18c-a66e-4ba7-a170-23efbdc67501""}","https://test12345.live/?participantId=B0901473905B445F8409B786C97E73FD&assignmentId=8d21da60-8b61-495d-9fb8-8b151aca2cfb&projectId=a0a8f18c-a66e-4ba7-a170-23efbdc67501","B0901473905B445F8409B786C97E73FD-2024-11-24-19-11-59","","802","","images/semantic_sequence/physical_activity_semantic/physical_activity_semantic_7.png","0","",""
"","","","","","image-button-response","109","580418","0.0-14.0-1.0-2.6","B0901473905B445F8409B786C97E73FD","B0901473905B445F8409B786C97E73FD","8d21da60-8b61-495d-9fb8-8b151aca2cfb","a0a8f18c-a66e-4ba7-a170-23efbdc67501","{""participantId"":""B0901473905B445F8409B786C97E73FD"",""assignmentId"":""8d21da60-8b61-495d-9fb8-8b151aca2cfb"",""projectId"":""a0a8f18c-a66e-4ba7-a170-23efbdc67501""}","https://test12345.live/?participantId=B0901473905B445F8409B786C97E73FD&assignmentId=8d21da60-8b61-495d-9fb8-8b151aca2cfb&projectId=a0a8f18c-a66e-4ba7-a170-23efbdc67501","B0901473905B445F8409B786C97E73FD-2024-11-24-19-11-59","","null","","[]","null","",""
"","","","","","image-button-response","110","584924","0.0-14.0-1.0-0.7","B0901473905B445F8409B786C97E73FD","B0901473905B445F8409B786C97E73FD","8d21da60-8b61-495d-9fb8-8b151aca2cfb","a0a8f18c-a66e-4ba7-a170-23efbdc67501","{""participantId"":""B0901473905B445F8409B786C97E73FD"",""assignmentId"":""8d21da60-8b61-495d-9fb8-8b151aca2cfb"",""projectId"":""a0a8f18c-a66e-4ba7-a170-23efbdc67501""}","https://test12345.live/?participantId=B0901473905B445F8409B786C97E73FD&assignmentId=8d21da60-8b61-495d-9fb8-8b151aca2cfb&projectId=a0a8f18c-a66e-4ba7-a170-23efbdc67501","B0901473905B445F8409B786C97E73FD-2024-11-24-19-11-59","","null","","images/semantic_sequence/physical_activity_semantic/physical_activity_semantic_8.png","null","",""
"","","","","","image-button-response","111","586992","0.0-14.0-1.0-1.7","B0901473905B445F8409B786C97E73FD","B0901473905B445F8409B786C97E73FD","8d21da60-8b61-495d-9fb8-8b151aca2cfb","a0a8f18c-a66e-4ba7-a170-23efbdc67501","{""participantId"":""B0901473905B445F8409B786C97E73FD"",""assignmentId"":""8d21da60-8b61-495d-9fb8-8b151aca2cfb"",""projectId"":""a0a8f18c-a66e-4ba7-a170-23efbdc67501""}","https://test12345.live/?participantId=B0901473905B445F8409B786C97E73FD&assignmentId=8d21da60-8b61-495d-9fb8-8b151aca2cfb&projectId=a0a8f18c-a66e-4ba7-a170-23efbdc67501","B0901473905B445F8409B786C97E73FD-2024-11-24-19-11-59","","2065","","images/semantic_sequence/physical_activity_semantic/physical_activity_semantic_8.png","0","",""
"","","","","","image-button-response","112","588806","0.0-14.0-1.0-2.7","B0901473905B445F8409B786C97E73FD","B0901473905B445F8409B786C97E73FD","8d21da60-8b61-495d-9fb8-8b151aca2cfb","a0a8f18c-a66e-4ba7-a170-23efbdc67501","{""participantId"":""B0901473905B445F8409B786C97E73FD"",""assignmentId"":""8d21da60-8b61-495d-9fb8-8b151aca2cfb"",""projectId"":""a0a8f18c-a66e-4ba7-a170-23efbdc67501""}","https://test12345.live/?participantId=B0901473905B445F8409B786C97E73FD&assignmentId=8d21da60-8b61-495d-9fb8-8b151aca2cfb&projectId=a0a8f18c-a66e-4ba7-a170-23efbdc67501","B0901473905B445F8409B786C97E73FD-2024-11-24-19-11-59","","null","","[]","null","",""
"","","","","","image-button-response","113","593315","0.0-14.0-1.0-0.8","B0901473905B445F8409B786C97E73FD","B0901473905B445F8409B786C97E73FD","8d21da60-8b61-495d-9fb8-8b151aca2cfb","a0a8f18c-a66e-4ba7-a170-23efbdc67501","{""participantId"":""B0901473905B445F8409B786C97E73FD"",""assignmentId"":""8d21da60-8b61-495d-9fb8-8b151aca2cfb"",""projectId"":""a0a8f18c-a66e-4ba7-a170-23efbdc67501""}","https://test12345.live/?participantId=B0901473905B445F8409B786C97E73FD&assignmentId=8d21da60-8b61-495d-9fb8-8b151aca2cfb&projectId=a0a8f18c-a66e-4ba7-a170-23efbdc67501","B0901473905B445F8409B786C97E73FD-2024-11-24-19-11-59","","null","","images/semantic_sequence/physical_activity_semantic/physical_activity_semantic_9.png","null","",""
"","","","","","image-button-response","114","595472","0.0-14.0-1.0-1.8","B0901473905B445F8409B786C97E73FD","B0901473905B445F8409B786C97E73FD","8d21da60-8b61-495d-9fb8-8b151aca2cfb","a0a8f18c-a66e-4ba7-a170-23efbdc67501","{""participantId"":""B0901473905B445F8409B786C97E73FD"",""assignmentId"":""8d21da60-8b61-495d-9fb8-8b151aca2cfb"",""projectId"":""a0a8f18c-a66e-4ba7-a170-23efbdc67501""}","https://test12345.live/?participantId=B0901473905B445F8409B786C97E73FD&assignmentId=8d21da60-8b61-495d-9fb8-8b151aca2cfb&projectId=a0a8f18c-a66e-4ba7-a170-23efbdc67501","B0901473905B445F8409B786C97E73FD-2024-11-24-19-11-59","","2155","","images/semantic_sequence/physical_activity_semantic/physical_activity_semantic_9.png","0","",""
"","","","","","image-button-response","115","597282","0.0-14.0-1.0-2.8","B0901473905B445F8409B786C97E73FD","B0901473905B445F8409B786C97E73FD","8d21da60-8b61-495d-9fb8-8b151aca2cfb","a0a8f18c-a66e-4ba7-a170-23efbdc67501","{""participantId"":""B0901473905B445F8409B786C97E73FD"",""assignmentId"":""8d21da60-8b61-495d-9fb8-8b151aca2cfb"",""projectId"":""a0a8f18c-a66e-4ba7-a170-23efbdc67501""}","https://test12345.live/?participantId=B0901473905B445F8409B786C97E73FD&assignmentId=8d21da60-8b61-495d-9fb8-8b151aca2cfb&projectId=a0a8f18c-a66e-4ba7-a170-23efbdc67501","B0901473905B445F8409B786C97E73FD-2024-11-24-19-11-59","","null","","[]","null","",""
"","","","","","image-button-response","116","601796","0.0-14.0-1.0-0.9","B0901473905B445F8409B786C97E73FD","B0901473905B445F8409B786C97E73FD","8d21da60-8b61-495d-9fb8-8b151aca2cfb","a0a8f18c-a66e-4ba7-a170-23efbdc67501","{""participantId"":""B0901473905B445F8409B786C97E73FD"",""assignmentId"":""8d21da60-8b61-495d-9fb8-8b151aca2cfb"",""projectId"":""a0a8f18c-a66e-4ba7-a170-23efbdc67501""}","https://test12345.live/?participantId=B0901473905B445F8409B786C97E73FD&assignmentId=8d21da60-8b61-495d-9fb8-8b151aca2cfb&projectId=a0a8f18c-a66e-4ba7-a170-23efbdc67501","B0901473905B445F8409B786C97E73FD-2024-11-24-19-11-59","","null","","images/semantic_sequence/physical_activity_semantic/physical_activity_semantic_ten.png","null","",""
"","","","","","image-button-response","117","602578","0.0-14.0-1.0-1.9","B0901473905B445F8409B786C97E73FD","B0901473905B445F8409B786C97E73FD","8d21da60-8b61-495d-9fb8-8b151aca2cfb","a0a8f18c-a66e-4ba7-a170-23efbdc67501","{""participantId"":""B0901473905B445F8409B786C97E73FD"",""assignmentId"":""8d21da60-8b61-495d-9fb8-8b151aca2cfb"",""projectId"":""a0a8f18c-a66e-4ba7-a170-23efbdc67501""}","https://test12345.live/?participantId=B0901473905B445F8409B786C97E73FD&assignmentId=8d21da60-8b61-495d-9fb8-8b151aca2cfb&projectId=a0a8f18c-a66e-4ba7-a170-23efbdc67501","B0901473905B445F8409B786C97E73FD-2024-11-24-19-11-59","","779","","images/semantic_sequence/physical_activity_semantic/physical_activity_semantic_ten.png","0","",""
"","","","","","image-button-response","118","604381","0.0-14.0-1.0-2.9","B0901473905B445F8409B786C97E73FD","B0901473905B445F8409B786C97E73FD","8d21da60-8b61-495d-9fb8-8b151aca2cfb","a0a8f18c-a66e-4ba7-a170-23efbdc67501","{""participantId"":""B0901473905B445F8409B786C97E73FD"",""assignmentId"":""8d21da60-8b61-495d-9fb8-8b151aca2cfb"",""projectId"":""a0a8f18c-a66e-4ba7-a170-23efbdc67501""}","https://test12345.live/?participantId=B0901473905B445F8409B786C97E73FD&assignmentId=8d21da60-8b61-495d-9fb8-8b151aca2cfb&projectId=a0a8f18c-a66e-4ba7-a170-23efbdc67501","B0901473905B445F8409B786C97E73FD-2024-11-24-19-11-59","","null","","[]","null","",""
"","","","","","html-audio-response","119","613723","0.0-15.0","B0901473905B445F8409B786C97E73FD","B0901473905B445F8409B786C97E73FD","8d21da60-8b61-495d-9fb8-8b151aca2cfb","a0a8f18c-a66e-4ba7-a170-23efbdc67501","{""participantId"":""B0901473905B445F8409B786C97E73FD"",""assignmentId"":""8d21da60-8b61-495d-9fb8-8b151aca2cfb"",""projectId"":""a0a8f18c-a66e-4ba7-a170-23efbdc67501""}","https://test12345.live/?participantId=B0901473905B445F8409B786C97E73FD&assignmentId=8d21da60-8b61-495d-9fb8-8b151aca2cfb&projectId=a0a8f18c-a66e-4ba7-a170-23efbdc67501","B0901473905B445F8409B786C97E73FD-2024-11-24-19-11-59","","2853","","[""<span style=\""color: red; font-size: 24px\""> NOW RECORDING</span><p>Please say out loud all the images you saw, as many as you can remember. The images can be said in any order.</p>""]","","3","physical_activity_semantic"
"","","","","","image-button-response","120","619739","0.0-16.0-0.0","B0901473905B445F8409B786C97E73FD","B0901473905B445F8409B786C97E73FD","8d21da60-8b61-495d-9fb8-8b151aca2cfb","a0a8f18c-a66e-4ba7-a170-23efbdc67501","{""participantId"":""B0901473905B445F8409B786C97E73FD"",""assignmentId"":""8d21da60-8b61-495d-9fb8-8b151aca2cfb"",""projectId"":""a0a8f18c-a66e-4ba7-a170-23efbdc67501""}","https://test12345.live/?participantId=B0901473905B445F8409B786C97E73FD&assignmentId=8d21da60-8b61-495d-9fb8-8b151aca2cfb&projectId=a0a8f18c-a66e-4ba7-a170-23efbdc67501","B0901473905B445F8409B786C97E73FD-2024-11-24-19-11-59","","null","","images/schematic_sequence/flight_scheme/flight_scheme_0.png","null","",""
"","","","","","image-button-response","121","624246","0.0-16.0-1.0-0.0","B0901473905B445F8409B786C97E73FD","B0901473905B445F8409B786C97E73FD","8d21da60-8b61-495d-9fb8-8b151aca2cfb","a0a8f18c-a66e-4ba7-a170-23efbdc67501","{""participantId"":""B0901473905B445F8409B786C97E73FD"",""assignmentId"":""8d21da60-8b61-495d-9fb8-8b151aca2cfb"",""projectId"":""a0a8f18c-a66e-4ba7-a170-23efbdc67501""}","https://test12345.live/?participantId=B0901473905B445F8409B786C97E73FD&assignmentId=8d21da60-8b61-495d-9fb8-8b151aca2cfb&projectId=a0a8f18c-a66e-4ba7-a170-23efbdc67501","B0901473905B445F8409B786C97E73FD-2024-11-24-19-11-59","","null","","images/schematic_sequence/flight_scheme/flight_scheme_3.png","null","",""
"","","","","","image-button-response","122","628257","0.0-16.0-1.0-1.0","B0901473905B445F8409B786C97E73FD","B0901473905B445F8409B786C97E73FD","8d21da60-8b61-495d-9fb8-8b151aca2cfb","a0a8f18c-a66e-4ba7-a170-23efbdc67501","{""participantId"":""B0901473905B445F8409B786C97E73FD"",""assignmentId"":""8d21da60-8b61-495d-9fb8-8b151aca2cfb"",""projectId"":""a0a8f18c-a66e-4ba7-a170-23efbdc67501""}","https://test12345.live/?participantId=B0901473905B445F8409B786C97E73FD&assignmentId=8d21da60-8b61-495d-9fb8-8b151aca2cfb&projectId=a0a8f18c-a66e-4ba7-a170-23efbdc67501","B0901473905B445F8409B786C97E73FD-2024-11-24-19-11-59","","null","","images/schematic_sequence/flight_scheme/flight_scheme_3.png","null","",""
"","","","","","image-button-response","123","630067","0.0-16.0-1.0-2.0","B0901473905B445F8409B786C97E73FD","B0901473905B445F8409B786C97E73FD","8d21da60-8b61-495d-9fb8-8b151aca2cfb","a0a8f18c-a66e-4ba7-a170-23efbdc67501","{""participantId"":""B0901473905B445F8409B786C97E73FD"",""assignmentId"":""8d21da60-8b61-495d-9fb8-8b151aca2cfb"",""projectId"":""a0a8f18c-a66e-4ba7-a170-23efbdc67501""}","https://test12345.live/?participantId=B0901473905B445F8409B786C97E73FD&assignmentId=8d21da60-8b61-495d-9fb8-8b151aca2cfb&projectId=a0a8f18c-a66e-4ba7-a170-23efbdc67501","B0901473905B445F8409B786C97E73FD-2024-11-24-19-11-59","","null","","[]","null","",""
"","","","","","image-button-response","124","634569","0.0-16.0-1.0-0.1","B0901473905B445F8409B786C97E73FD","B0901473905B445F8409B786C97E73FD","8d21da60-8b61-495d-9fb8-8b151aca2cfb","a0a8f18c-a66e-4ba7-a170-23efbdc67501","{""participantId"":""B0901473905B445F8409B786C97E73FD"",""assignmentId"":""8d21da60-8b61-495d-9fb8-8b151aca2cfb"",""projectId"":""a0a8f18c-a66e-4ba7-a170-23efbdc67501""}","https://test12345.live/?participantId=B0901473905B445F8409B786C97E73FD&assignmentId=8d21da60-8b61-495d-9fb8-8b151aca2cfb&projectId=a0a8f18c-a66e-4ba7-a170-23efbdc67501","B0901473905B445F8409B786C97E73FD-2024-11-24-19-11-59","","null","","images/schematic_sequence/flight_scheme/flight_scheme_4.png","null","",""
"","","","","","image-button-response","125","638586","0.0-16.0-1.0-1.1","B0901473905B445F8409B786C97E73FD","B0901473905B445F8409B786C97E73FD","8d21da60-8b61-495d-9fb8-8b151aca2cfb","a0a8f18c-a66e-4ba7-a170-23efbdc67501","{""participantId"":""B0901473905B445F8409B786C97E73FD"",""assignmentId"":""8d21da60-8b61-495d-9fb8-8b151aca2cfb"",""projectId"":""a0a8f18c-a66e-4ba7-a170-23efbdc67501""}","https://test12345.live/?participantId=B0901473905B445F8409B786C97E73FD&assignmentId=8d21da60-8b61-495d-9fb8-8b151aca2cfb&projectId=a0a8f18c-a66e-4ba7-a170-23efbdc67501","B0901473905B445F8409B786C97E73FD-2024-11-24-19-11-59","","null","","images/schematic_sequence/flight_scheme/flight_scheme_4.png","null","",""
"","","","","","image-button-response","126","640391","0.0-16.0-1.0-2.1","B0901473905B445F8409B786C97E73FD","B0901473905B445F8409B786C97E73FD","8d21da60-8b61-495d-9fb8-8b151aca2cfb","a0a8f18c-a66e-4ba7-a170-23efbdc67501","{""participantId"":""B0901473905B445F8409B786C97E73FD"",""assignmentId"":""8d21da60-8b61-495d-9fb8-8b151aca2cfb"",""projectId"":""a0a8f18c-a66e-4ba7-a170-23efbdc67501""}","https://test12345.live/?participantId=B0901473905B445F8409B786C97E73FD&assignmentId=8d21da60-8b61-495d-9fb8-8b151aca2cfb&projectId=a0a8f18c-a66e-4ba7-a170-23efbdc67501","B0901473905B445F8409B786C97E73FD-2024-11-24-19-11-59","","null","","[]","null","",""
"","","","","","image-button-response","127","644893","0.0-16.0-1.0-0.2","B0901473905B445F8409B786C97E73FD","B0901473905B445F8409B786C97E73FD","8d21da60-8b61-495d-9fb8-8b151aca2cfb","a0a8f18c-a66e-4ba7-a170-23efbdc67501","{""participantId"":""B0901473905B445F8409B786C97E73FD"",""assignmentId"":""8d21da60-8b61-495d-9fb8-8b151aca2cfb"",""projectId"":""a0a8f18c-a66e-4ba7-a170-23efbdc67501""}","https://test12345.live/?participantId=B0901473905B445F8409B786C97E73FD&assignmentId=8d21da60-8b61-495d-9fb8-8b151aca2cfb&projectId=a0a8f18c-a66e-4ba7-a170-23efbdc67501","B0901473905B445F8409B786C97E73FD-2024-11-24-19-11-59","","null","","images/schematic_sequence/flight_scheme/flight_scheme_ten.png","null","",""
"","","","","","image-button-response","128","647919","0.0-16.0-1.0-1.2","B0901473905B445F8409B786C97E73FD","B0901473905B445F8409B786C97E73FD","8d21da60-8b61-495d-9fb8-8b151aca2cfb","a0a8f18c-a66e-4ba7-a170-23efbdc67501","{""participantId"":""B0901473905B445F8409B786C97E73FD"",""assignmentId"":""8d21da60-8b61-495d-9fb8-8b151aca2cfb"",""projectId"":""a0a8f18c-a66e-4ba7-a170-23efbdc67501""}","https://test12345.live/?participantId=B0901473905B445F8409B786C97E73FD&assignmentId=8d21da60-8b61-495d-9fb8-8b151aca2cfb&projectId=a0a8f18c-a66e-4ba7-a170-23efbdc67501","B0901473905B445F8409B786C97E73FD-2024-11-24-19-11-59","","3023","","images/schematic_sequence/flight_scheme/flight_scheme_ten.png","0","",""
"","","","","","image-button-response","129","649727","0.0-16.0-1.0-2.2","B0901473905B445F8409B786C97E73FD","B0901473905B445F8409B786C97E73FD","8d21da60-8b61-495d-9fb8-8b151aca2cfb","a0a8f18c-a66e-4ba7-a170-23efbdc67501","{""participantId"":""B0901473905B445F8409B786C97E73FD"",""assignmentId"":""8d21da60-8b61-495d-9fb8-8b151aca2cfb"",""projectId"":""a0a8f18c-a66e-4ba7-a170-23efbdc67501""}","https://test12345.live/?participantId=B0901473905B445F8409B786C97E73FD&assignmentId=8d21da60-8b61-495d-9fb8-8b151aca2cfb&projectId=a0a8f18c-a66e-4ba7-a170-23efbdc67501","B0901473905B445F8409B786C97E73FD-2024-11-24-19-11-59","","null","","[]","null","",""
"","","","","","image-button-response","130","654235","0.0-16.0-1.0-0.3","B0901473905B445F8409B786C97E73FD","B0901473905B445F8409B786C97E73FD","8d21da60-8b61-495d-9fb8-8b151aca2cfb","a0a8f18c-a66e-4ba7-a170-23efbdc67501","{""participantId"":""B0901473905B445F8409B786C97E73FD"",""assignmentId"":""8d21da60-8b61-495d-9fb8-8b151aca2cfb"",""projectId"":""a0a8f18c-a66e-4ba7-a170-23efbdc67501""}","https://test12345.live/?participantId=B0901473905B445F8409B786C97E73FD&assignmentId=8d21da60-8b61-495d-9fb8-8b151aca2cfb&projectId=a0a8f18c-a66e-4ba7-a170-23efbdc67501","B0901473905B445F8409B786C97E73FD-2024-11-24-19-11-59","","null","","images/schematic_sequence/flight_scheme/flight_scheme_9.png","null","",""
"","","","","","image-button-response","131","658247","0.0-16.0-1.0-1.3","B0901473905B445F8409B786C97E73FD","B0901473905B445F8409B786C97E73FD","8d21da60-8b61-495d-9fb8-8b151aca2cfb","a0a8f18c-a66e-4ba7-a170-23efbdc67501","{""participantId"":""B0901473905B445F8409B786C97E73FD"",""assignmentId"":""8d21da60-8b61-495d-9fb8-8b151aca2cfb"",""projectId"":""a0a8f18c-a66e-4ba7-a170-23efbdc67501""}","https://test12345.live/?participantId=B0901473905B445F8409B786C97E73FD&assignmentId=8d21da60-8b61-495d-9fb8-8b151aca2cfb&projectId=a0a8f18c-a66e-4ba7-a170-23efbdc67501","B0901473905B445F8409B786C97E73FD-2024-11-24-19-11-59","","null","","images/schematic_sequence/flight_scheme/flight_scheme_9.png","null","",""
"","","","","","image-button-response","132","660059","0.0-16.0-1.0-2.3","B0901473905B445F8409B786C97E73FD","B0901473905B445F8409B786C97E73FD","8d21da60-8b61-495d-9fb8-8b151aca2cfb","a0a8f18c-a66e-4ba7-a170-23efbdc67501","{""participantId"":""B0901473905B445F8409B786C97E73FD"",""assignmentId"":""8d21da60-8b61-495d-9fb8-8b151aca2cfb"",""projectId"":""a0a8f18c-a66e-4ba7-a170-23efbdc67501""}","https://test12345.live/?participantId=B0901473905B445F8409B786C97E73FD&assignmentId=8d21da60-8b61-495d-9fb8-8b151aca2cfb&projectId=a0a8f18c-a66e-4ba7-a170-23efbdc67501","B0901473905B445F8409B786C97E73FD-2024-11-24-19-11-59","","null","","[]","null","",""
"","","","","","image-button-response","133","664574","0.0-16.0-1.0-0.4","B0901473905B445F8409B786C97E73FD","B0901473905B445F8409B786C97E73FD","8d21da60-8b61-495d-9fb8-8b151aca2cfb","a0a8f18c-a66e-4ba7-a170-23efbdc67501","{""participantId"":""B0901473905B445F8409B786C97E73FD"",""assignmentId"":""8d21da60-8b61-495d-9fb8-8b151aca2cfb"",""projectId"":""a0a8f18c-a66e-4ba7-a170-23efbdc67501""}","https://test12345.live/?participantId=B0901473905B445F8409B786C97E73FD&assignmentId=8d21da60-8b61-495d-9fb8-8b151aca2cfb&projectId=a0a8f18c-a66e-4ba7-a170-23efbdc67501","B0901473905B445F8409B786C97E73FD-2024-11-24-19-11-59","","null","","images/schematic_sequence/flight_scheme/flight_scheme_7.png","null","",""
"","","","","","image-button-response","134","666347","0.0-16.0-1.0-1.4","B0901473905B445F8409B786C97E73FD","B0901473905B445F8409B786C97E73FD","8d21da60-8b61-495d-9fb8-8b151aca2cfb","a0a8f18c-a66e-4ba7-a170-23efbdc67501","{""participantId"":""B0901473905B445F8409B786C97E73FD"",""assignmentId"":""8d21da60-8b61-495d-9fb8-8b151aca2cfb"",""projectId"":""a0a8f18c-a66e-4ba7-a170-23efbdc67501""}","https://test12345.live/?participantId=B0901473905B445F8409B786C97E73FD&assignmentId=8d21da60-8b61-495d-9fb8-8b151aca2cfb&projectId=a0a8f18c-a66e-4ba7-a170-23efbdc67501","B0901473905B445F8409B786C97E73FD-2024-11-24-19-11-59","","1771","","images/schematic_sequence/flight_scheme/flight_scheme_7.png","0","",""
"","","","","","image-button-response","135","668163","0.0-16.0-1.0-2.4","B0901473905B445F8409B786C97E73FD","B0901473905B445F8409B786C97E73FD","8d21da60-8b61-495d-9fb8-8b151aca2cfb","a0a8f18c-a66e-4ba7-a170-23efbdc67501","{""participantId"":""B0901473905B445F8409B786C97E73FD"",""assignmentId"":""8d21da60-8b61-495d-9fb8-8b151aca2cfb"",""projectId"":""a0a8f18c-a66e-4ba7-a170-23efbdc67501""}","https://test12345.live/?participantId=B0901473905B445F8409B786C97E73FD&assignmentId=8d21da60-8b61-495d-9fb8-8b151aca2cfb&projectId=a0a8f18c-a66e-4ba7-a170-23efbdc67501","B0901473905B445F8409B786C97E73FD-2024-11-24-19-11-59","","null","","[]","null","",""
"","","","","","image-button-response","136","672678","0.0-16.0-1.0-0.5","B0901473905B445F8409B786C97E73FD","B0901473905B445F8409B786C97E73FD","8d21da60-8b61-495d-9fb8-8b151aca2cfb","a0a8f18c-a66e-4ba7-a170-23efbdc67501","{""participantId"":""B0901473905B445F8409B786C97E73FD"",""assignmentId"":""8d21da60-8b61-495d-9fb8-8b151aca2cfb"",""projectId"":""a0a8f18c-a66e-4ba7-a170-23efbdc67501""}","https://test12345.live/?participantId=B0901473905B445F8409B786C97E73FD&assignmentId=8d21da60-8b61-495d-9fb8-8b151aca2cfb&projectId=a0a8f18c-a66e-4ba7-a170-23efbdc67501","B0901473905B445F8409B786C97E73FD-2024-11-24-19-11-59","","null","","images/schematic_sequence/flight_scheme/flight_scheme_8.png","null","",""
"","","","","","image-button-response","137","673883","0.0-16.0-1.0-1.5","B0901473905B445F8409B786C97E73FD","B0901473905B445F8409B786C97E73FD","8d21da60-8b61-495d-9fb8-8b151aca2cfb","a0a8f18c-a66e-4ba7-a170-23efbdc67501","{""participantId"":""B0901473905B445F8409B786C97E73FD"",""assignmentId"":""8d21da60-8b61-495d-9fb8-8b151aca2cfb"",""projectId"":""a0a8f18c-a66e-4ba7-a170-23efbdc67501""}","https://test12345.live/?participantId=B0901473905B445F8409B786C97E73FD&assignmentId=8d21da60-8b61-495d-9fb8-8b151aca2cfb&projectId=a0a8f18c-a66e-4ba7-a170-23efbdc67501","B0901473905B445F8409B786C97E73FD-2024-11-24-19-11-59","","1203","","images/schematic_sequence/flight_scheme/flight_scheme_8.png","1","",""
"","","","","","image-button-response","138","675686","0.0-16.0-1.0-2.5","B0901473905B445F8409B786C97E73FD","B0901473905B445F8409B786C97E73FD","8d21da60-8b61-495d-9fb8-8b151aca2cfb","a0a8f18c-a66e-4ba7-a170-23efbdc67501","{""participantId"":""B0901473905B445F8409B786C97E73FD"",""assignmentId"":""8d21da60-8b61-495d-9fb8-8b151aca2cfb"",""projectId"":""a0a8f18c-a66e-4ba7-a170-23efbdc67501""}","https://test12345.live/?participantId=B0901473905B445F8409B786C97E73FD&assignmentId=8d21da60-8b61-495d-9fb8-8b151aca2cfb&projectId=a0a8f18c-a66e-4ba7-a170-23efbdc67501","B0901473905B445F8409B786C97E73FD-2024-11-24-19-11-59","","null","","[]","null","",""
"","","","","","image-button-response","139","680197","0.0-16.0-1.0-0.6","B0901473905B445F8409B786C97E73FD","B0901473905B445F8409B786C97E73FD","8d21da60-8b61-495d-9fb8-8b151aca2cfb","a0a8f18c-a66e-4ba7-a170-23efbdc67501","{""participantId"":""B0901473905B445F8409B786C97E73FD"",""assignmentId"":""8d21da60-8b61-495d-9fb8-8b151aca2cfb"",""projectId"":""a0a8f18c-a66e-4ba7-a170-23efbdc67501""}","https://test12345.live/?participantId=B0901473905B445F8409B786C97E73FD&assignmentId=8d21da60-8b61-495d-9fb8-8b151aca2cfb&projectId=a0a8f18c-a66e-4ba7-a170-23efbdc67501","B0901473905B445F8409B786C97E73FD-2024-11-24-19-11-59","","null","","images/schematic_sequence/flight_scheme/flight_scheme_1.png","null","",""
"","","","","","image-button-response","140","681839","0.0-16.0-1.0-1.6","B0901473905B445F8409B786C97E73FD","B0901473905B445F8409B786C97E73FD","8d21da60-8b61-495d-9fb8-8b151aca2cfb","a0a8f18c-a66e-4ba7-a170-23efbdc67501","{""participantId"":""B0901473905B445F8409B786C97E73FD"",""assignmentId"":""8d21da60-8b61-495d-9fb8-8b151aca2cfb"",""projectId"":""a0a8f18c-a66e-4ba7-a170-23efbdc67501""}","https://test12345.live/?participantId=B0901473905B445F8409B786C97E73FD&assignmentId=8d21da60-8b61-495d-9fb8-8b151aca2cfb&projectId=a0a8f18c-a66e-4ba7-a170-23efbdc67501","B0901473905B445F8409B786C97E73FD-2024-11-24-19-11-59","","1640","","images/schematic_sequence/flight_scheme/flight_scheme_1.png","1","",""
"","","","","","image-button-response","141","683644","0.0-16.0-1.0-2.6","B0901473905B445F8409B786C97E73FD","B0901473905B445F8409B786C97E73FD","8d21da60-8b61-495d-9fb8-8b151aca2cfb","a0a8f18c-a66e-4ba7-a170-23efbdc67501","{""participantId"":""B0901473905B445F8409B786C97E73FD"",""assignmentId"":""8d21da60-8b61-495d-9fb8-8b151aca2cfb"",""projectId"":""a0a8f18c-a66e-4ba7-a170-23efbdc67501""}","https://test12345.live/?participantId=B0901473905B445F8409B786C97E73FD&assignmentId=8d21da60-8b61-495d-9fb8-8b151aca2cfb&projectId=a0a8f18c-a66e-4ba7-a170-23efbdc67501","B0901473905B445F8409B786C97E73FD-2024-11-24-19-11-59","","null","","[]","null","",""
"","","","","","image-button-response","142","688160","0.0-16.0-1.0-0.7","B0901473905B445F8409B786C97E73FD","B0901473905B445F8409B786C97E73FD","8d21da60-8b61-495d-9fb8-8b151aca2cfb","a0a8f18c-a66e-4ba7-a170-23efbdc67501","{""participantId"":""B0901473905B445F8409B786C97E73FD"",""assignmentId"":""8d21da60-8b61-495d-9fb8-8b151aca2cfb"",""projectId"":""a0a8f18c-a66e-4ba7-a170-23efbdc67501""}","https://test12345.live/?participantId=B0901473905B445F8409B786C97E73FD&assignmentId=8d21da60-8b61-495d-9fb8-8b151aca2cfb&projectId=a0a8f18c-a66e-4ba7-a170-23efbdc67501","B0901473905B445F8409B786C97E73FD-2024-11-24-19-11-59","","null","","images/schematic_sequence/flight_scheme/flight_scheme_6.png","null","",""
