"success","timeout","failed_images","failed_audio","failed_video","trial_type","trial_index","time_elapsed","internal_node_id","subject","subject_id","study_id","session_id","urlvar","current_url","audio_id","view_history","rt","device_id","stimulus","response","estimated_stimulus_onset","seq_name"
"true","false","[]","[]","[]","preload","0","116304","0.0-0.0","B1A83D80254E4A3CB81D98E6917A3C6B","B1A83D80254E4A3CB81D98E6917A3C6B","0666b6b8-546e-44ca-874e-67a1852ac792","9076ac92-be42-43a2-9634-8b67c7fe93a7","{""num_scrambled_semantic"":""8"",""num_scrambled_causal"":""4"",""num_scrambled_schematic"":""4"",""participantId"":""B1A83D80254E4A3CB81D98E6917A3C6B"",""assignmentId"":""0666b6b8-546e-44ca-874e-67a1852ac792"",""projectId"":""9076ac92-be42-43a2-9634-8b67c7fe93a7""}","https://test12345.live/?num_scrambled_semantic=8&num_scrambled_causal=4&num_scrambled_schematic=4&participantId=B1A83D80254E4A3CB81D98E6917A3C6B&assignmentId=0666b6b8-546e-44ca-874e-67a1852ac792&projectId=9076ac92-be42-43a2-9634-8b67c7fe93a7","B1A83D80254E4A3CB81D98E6917A3C6B-2025-05-22-19-12-07","","","","","","",""
"","","","","","instructions","1","134888","0.0-1.0","B1A83D80254E4A3CB81D98E6917A3C6B","B1A83D80254E4A3CB81D98E6917A3C6B","0666b6b8-546e-44ca-874e-67a1852ac792","9076ac92-be42-43a2-9634-8b67c7fe93a7","{""num_scrambled_semantic"":""8"",""num_scrambled_causal"":""4"",""num_scrambled_schematic"":""4"",""participantId"":""B1A83D80254E4A3CB81D98E6917A3C6B"",""assignmentId"":""0666b6b8-546e-44ca-874e-67a1852ac792"",""projectId"":""9076ac92-be42-43a2-9634-8b67c7fe93a7""}","https://test12345.live/?num_scrambled_semantic=8&num_scrambled_causal=4&num_scrambled_schematic=4&participantId=B1A83D80254E4A3CB81D98E6917A3C6B&assignmentId=0666b6b8-546e-44ca-874e-67a1852ac792&projectId=9076ac92-be42-43a2-9634-8b67c7fe93a7","B1A83D80254E4A3CB81D98E6917A3C6B-2025-05-22-19-12-07","[{""page_index"":0,""viewing_time"":18580}]","18582","","","","",""
"","","","","","instructions","2","145287","0.0-2.0","B1A83D80254E4A3CB81D98E6917A3C6B","B1A83D80254E4A3CB81D98E6917A3C6B","0666b6b8-546e-44ca-874e-67a1852ac792","9076ac92-be42-43a2-9634-8b67c7fe93a7","{""num_scrambled_semantic"":""8"",""num_scrambled_causal"":""4"",""num_scrambled_schematic"":""4"",""participantId"":""B1A83D80254E4A3CB81D98E6917A3C6B"",""assignmentId"":""0666b6b8-546e-44ca-874e-67a1852ac792"",""projectId"":""9076ac92-be42-43a2-9634-8b67c7fe93a7""}","https://test12345.live/?num_scrambled_semantic=8&num_scrambled_causal=4&num_scrambled_schematic=4&participantId=B1A83D80254E4A3CB81D98E6917A3C6B&assignmentId=0666b6b8-546e-44ca-874e-67a1852ac792&projectId=9076ac92-be42-43a2-9634-8b67c7fe93a7","B1A83D80254E4A3CB81D98E6917A3C6B-2025-05-22-19-12-07","[{""page_index"":0,""viewing_time"":10388}]","10389","","","","",""
"true","","","","","fullscreen","3","148470","0.0-3.0","B1A83D80254E4A3CB81D98E6917A3C6B","B1A83D80254E4A3CB81D98E6917A3C6B","0666b6b8-546e-44ca-874e-67a1852ac792","9076ac92-be42-43a2-9634-8b67c7fe93a7","{""num_scrambled_semantic"":""8"",""num_scrambled_causal"":""4"",""num_scrambled_schematic"":""4"",""participantId"":""B1A83D80254E4A3CB81D98E6917A3C6B"",""assignmentId"":""0666b6b8-546e-44ca-874e-67a1852ac792"",""projectId"":""9076ac92-be42-43a2-9634-8b67c7fe93a7""}","https://test12345.live/?num_scrambled_semantic=8&num_scrambled_causal=4&num_scrambled_schematic=4&participantId=B1A83D80254E4A3CB81D98E6917A3C6B&assignmentId=0666b6b8-546e-44ca-874e-67a1852ac792&projectId=9076ac92-be42-43a2-9634-8b67c7fe93a7","B1A83D80254E4A3CB81D98E6917A3C6B-2025-05-22-19-12-07","","2164","","","","",""
"","","","","","initialize-microphone","4","157713","0.0-4.0-0.0","B1A83D80254E4A3CB81D98E6917A3C6B","B1A83D80254E4A3CB81D98E6917A3C6B","0666b6b8-546e-44ca-874e-67a1852ac792","9076ac92-be42-43a2-9634-8b67c7fe93a7","{""num_scrambled_semantic"":""8"",""num_scrambled_causal"":""4"",""num_scrambled_schematic"":""4"",""participantId"":""B1A83D80254E4A3CB81D98E6917A3C6B"",""assignmentId"":""0666b6b8-546e-44ca-874e-67a1852ac792"",""projectId"":""9076ac92-be42-43a2-9634-8b67c7fe93a7""}","https://test12345.live/?num_scrambled_semantic=8&num_scrambled_causal=4&num_scrambled_schematic=4&participantId=B1A83D80254E4A3CB81D98E6917A3C6B&assignmentId=0666b6b8-546e-44ca-874e-67a1852ac792&projectId=9076ac92-be42-43a2-9634-8b67c7fe93a7","B1A83D80254E4A3CB81D98E6917A3C6B-2025-05-22-19-12-07","","","0f1375cf5d36522e55610af8c0e31fd2e64b6286b444d337e48d8ba37cdb011f","","","",""
"","","","","","html-audio-response","5","222841","0.0-4.0-1.0","B1A83D80254E4A3CB81D98E6917A3C6B","B1A83D80254E4A3CB81D98E6917A3C6B","0666b6b8-546e-44ca-874e-67a1852ac792","9076ac92-be42-43a2-9634-8b67c7fe93a7","{""num_scrambled_semantic"":""8"",""num_scrambled_causal"":""4"",""num_scrambled_schematic"":""4"",""participantId"":""B1A83D80254E4A3CB81D98E6917A3C6B"",""assignmentId"":""0666b6b8-546e-44ca-874e-67a1852ac792"",""projectId"":""9076ac92-be42-43a2-9634-8b67c7fe93a7""}","https://test12345.live/?num_scrambled_semantic=8&num_scrambled_causal=4&num_scrambled_schematic=4&participantId=B1A83D80254E4A3CB81D98E6917A3C6B&assignmentId=0666b6b8-546e-44ca-874e-67a1852ac792&projectId=9076ac92-be42-43a2-9634-8b67c7fe93a7","B1A83D80254E4A3CB81D98E6917A3C6B-2025-05-22-19-12-07","","2390","","<span style=""color: red; font-size: 24px""> NOW RECORDING</span>
        <p>Please test Microphone</p>","","6",""
"","","","","","html-button-response","6","224434","0.0-4.0-2.0","B1A83D80254E4A3CB81D98E6917A3C6B","B1A83D80254E4A3CB81D98E6917A3C6B","0666b6b8-546e-44ca-874e-67a1852ac792","9076ac92-be42-43a2-9634-8b67c7fe93a7","{""num_scrambled_semantic"":""8"",""num_scrambled_causal"":""4"",""num_scrambled_schematic"":""4"",""participantId"":""B1A83D80254E4A3CB81D98E6917A3C6B"",""assignmentId"":""0666b6b8-546e-44ca-874e-67a1852ac792"",""projectId"":""9076ac92-be42-43a2-9634-8b67c7fe93a7""}","https://test12345.live/?num_scrambled_semantic=8&num_scrambled_causal=4&num_scrambled_schematic=4&participantId=B1A83D80254E4A3CB81D98E6917A3C6B&assignmentId=0666b6b8-546e-44ca-874e-67a1852ac792&projectId=9076ac92-be42-43a2-9634-8b67c7fe93a7","B1A83D80254E4A3CB81D98E6917A3C6B-2025-05-22-19-12-07","","1588","","<p style=""font-size:48px; color:red;"">Is Microphone OK?</p>","1","",""
"","","","","","instructions","7","230233","0.0-5.0","B1A83D80254E4A3CB81D98E6917A3C6B","B1A83D80254E4A3CB81D98E6917A3C6B","0666b6b8-546e-44ca-874e-67a1852ac792","9076ac92-be42-43a2-9634-8b67c7fe93a7","{""num_scrambled_semantic"":""8"",""num_scrambled_causal"":""4"",""num_scrambled_schematic"":""4"",""participantId"":""B1A83D80254E4A3CB81D98E6917A3C6B"",""assignmentId"":""0666b6b8-546e-44ca-874e-67a1852ac792"",""projectId"":""9076ac92-be42-43a2-9634-8b67c7fe93a7""}","https://test12345.live/?num_scrambled_semantic=8&num_scrambled_causal=4&num_scrambled_schematic=4&participantId=B1A83D80254E4A3CB81D98E6917A3C6B&assignmentId=0666b6b8-546e-44ca-874e-67a1852ac792&projectId=9076ac92-be42-43a2-9634-8b67c7fe93a7","B1A83D80254E4A3CB81D98E6917A3C6B-2025-05-22-19-12-07","[{""page_index"":0,""viewing_time"":4085},{""page_index"":1,""viewing_time"":1710}]","5797","","","","",""
"","","","","","image-button-response","8","236263","0.0-6.0-0.0","B1A83D80254E4A3CB81D98E6917A3C6B","B1A83D80254E4A3CB81D98E6917A3C6B","0666b6b8-546e-44ca-874e-67a1852ac792","9076ac92-be42-43a2-9634-8b67c7fe93a7","{""num_scrambled_semantic"":""8"",""num_scrambled_causal"":""4"",""num_scrambled_schematic"":""4"",""participantId"":""B1A83D80254E4A3CB81D98E6917A3C6B"",""assignmentId"":""0666b6b8-546e-44ca-874e-67a1852ac792"",""projectId"":""9076ac92-be42-43a2-9634-8b67c7fe93a7""}","https://test12345.live/?num_scrambled_semantic=8&num_scrambled_causal=4&num_scrambled_schematic=4&participantId=B1A83D80254E4A3CB81D98E6917A3C6B&assignmentId=0666b6b8-546e-44ca-874e-67a1852ac792&projectId=9076ac92-be42-43a2-9634-8b67c7fe93a7","B1A83D80254E4A3CB81D98E6917A3C6B-2025-05-22-19-12-07","","null","","images/instructions/movie_0.png","null","",""
"","","","","","image-button-response","9","240768","0.0-6.0-1.0-0.0","B1A83D80254E4A3CB81D98E6917A3C6B","B1A83D80254E4A3CB81D98E6917A3C6B","0666b6b8-546e-44ca-874e-67a1852ac792","9076ac92-be42-43a2-9634-8b67c7fe93a7","{""num_scrambled_semantic"":""8"",""num_scrambled_causal"":""4"",""num_scrambled_schematic"":""4"",""participantId"":""B1A83D80254E4A3CB81D98E6917A3C6B"",""assignmentId"":""0666b6b8-546e-44ca-874e-67a1852ac792"",""projectId"":""9076ac92-be42-43a2-9634-8b67c7fe93a7""}","https://test12345.live/?num_scrambled_semantic=8&num_scrambled_causal=4&num_scrambled_schematic=4&participantId=B1A83D80254E4A3CB81D98E6917A3C6B&assignmentId=0666b6b8-546e-44ca-874e-67a1852ac792&projectId=9076ac92-be42-43a2-9634-8b67c7fe93a7","B1A83D80254E4A3CB81D98E6917A3C6B-2025-05-22-19-12-07","","null","","images/instructions/movie_1.png","null","",""
"","","","","","image-button-response","10","243448","0.0-6.0-1.0-1.0","B1A83D80254E4A3CB81D98E6917A3C6B","B1A83D80254E4A3CB81D98E6917A3C6B","0666b6b8-546e-44ca-874e-67a1852ac792","9076ac92-be42-43a2-9634-8b67c7fe93a7","{""num_scrambled_semantic"":""8"",""num_scrambled_causal"":""4"",""num_scrambled_schematic"":""4"",""participantId"":""B1A83D80254E4A3CB81D98E6917A3C6B"",""assignmentId"":""0666b6b8-546e-44ca-874e-67a1852ac792"",""projectId"":""9076ac92-be42-43a2-9634-8b67c7fe93a7""}","https://test12345.live/?num_scrambled_semantic=8&num_scrambled_causal=4&num_scrambled_schematic=4&participantId=B1A83D80254E4A3CB81D98E6917A3C6B&assignmentId=0666b6b8-546e-44ca-874e-67a1852ac792&projectId=9076ac92-be42-43a2-9634-8b67c7fe93a7","B1A83D80254E4A3CB81D98E6917A3C6B-2025-05-22-19-12-07","","2676","","images/instructions/movie_1.png","0","",""
"","","","","","image-button-response","11","245262","0.0-6.0-1.0-2.0","B1A83D80254E4A3CB81D98E6917A3C6B","B1A83D80254E4A3CB81D98E6917A3C6B","0666b6b8-546e-44ca-874e-67a1852ac792","9076ac92-be42-43a2-9634-8b67c7fe93a7","{""num_scrambled_semantic"":""8"",""num_scrambled_causal"":""4"",""num_scrambled_schematic"":""4"",""participantId"":""B1A83D80254E4A3CB81D98E6917A3C6B"",""assignmentId"":""0666b6b8-546e-44ca-874e-67a1852ac792"",""projectId"":""9076ac92-be42-43a2-9634-8b67c7fe93a7""}","https://test12345.live/?num_scrambled_semantic=8&num_scrambled_causal=4&num_scrambled_schematic=4&participantId=B1A83D80254E4A3CB81D98E6917A3C6B&assignmentId=0666b6b8-546e-44ca-874e-67a1852ac792&projectId=9076ac92-be42-43a2-9634-8b67c7fe93a7","B1A83D80254E4A3CB81D98E6917A3C6B-2025-05-22-19-12-07","","null","","[]","null","",""
"","","","","","image-button-response","12","249778","0.0-6.0-1.0-0.1","B1A83D80254E4A3CB81D98E6917A3C6B","B1A83D80254E4A3CB81D98E6917A3C6B","0666b6b8-546e-44ca-874e-67a1852ac792","9076ac92-be42-43a2-9634-8b67c7fe93a7","{""num_scrambled_semantic"":""8"",""num_scrambled_causal"":""4"",""num_scrambled_schematic"":""4"",""participantId"":""B1A83D80254E4A3CB81D98E6917A3C6B"",""assignmentId"":""0666b6b8-546e-44ca-874e-67a1852ac792"",""projectId"":""9076ac92-be42-43a2-9634-8b67c7fe93a7""}","https://test12345.live/?num_scrambled_semantic=8&num_scrambled_causal=4&num_scrambled_schematic=4&participantId=B1A83D80254E4A3CB81D98E6917A3C6B&assignmentId=0666b6b8-546e-44ca-874e-67a1852ac792&projectId=9076ac92-be42-43a2-9634-8b67c7fe93a7","B1A83D80254E4A3CB81D98E6917A3C6B-2025-05-22-19-12-07","","null","","images/instructions/movie_2.png","null","",""
"","","","","","image-button-response","13","251652","0.0-6.0-1.0-1.1","B1A83D80254E4A3CB81D98E6917A3C6B","B1A83D80254E4A3CB81D98E6917A3C6B","0666b6b8-546e-44ca-874e-67a1852ac792","9076ac92-be42-43a2-9634-8b67c7fe93a7","{""num_scrambled_semantic"":""8"",""num_scrambled_causal"":""4"",""num_scrambled_schematic"":""4"",""participantId"":""B1A83D80254E4A3CB81D98E6917A3C6B"",""assignmentId"":""0666b6b8-546e-44ca-874e-67a1852ac792"",""projectId"":""9076ac92-be42-43a2-9634-8b67c7fe93a7""}","https://test12345.live/?num_scrambled_semantic=8&num_scrambled_causal=4&num_scrambled_schematic=4&participantId=B1A83D80254E4A3CB81D98E6917A3C6B&assignmentId=0666b6b8-546e-44ca-874e-67a1852ac792&projectId=9076ac92-be42-43a2-9634-8b67c7fe93a7","B1A83D80254E4A3CB81D98E6917A3C6B-2025-05-22-19-12-07","","1871","","images/instructions/movie_2.png","1","",""
"","","","","","image-button-response","14","253458","0.0-6.0-1.0-2.1","B1A83D80254E4A3CB81D98E6917A3C6B","B1A83D80254E4A3CB81D98E6917A3C6B","0666b6b8-546e-44ca-874e-67a1852ac792","9076ac92-be42-43a2-9634-8b67c7fe93a7","{""num_scrambled_semantic"":""8"",""num_scrambled_causal"":""4"",""num_scrambled_schematic"":""4"",""participantId"":""B1A83D80254E4A3CB81D98E6917A3C6B"",""assignmentId"":""0666b6b8-546e-44ca-874e-67a1852ac792"",""projectId"":""9076ac92-be42-43a2-9634-8b67c7fe93a7""}","https://test12345.live/?num_scrambled_semantic=8&num_scrambled_causal=4&num_scrambled_schematic=4&participantId=B1A83D80254E4A3CB81D98E6917A3C6B&assignmentId=0666b6b8-546e-44ca-874e-67a1852ac792&projectId=9076ac92-be42-43a2-9634-8b67c7fe93a7","B1A83D80254E4A3CB81D98E6917A3C6B-2025-05-22-19-12-07","","null","","[]","null","",""
"","","","","","image-button-response","15","257964","0.0-6.0-1.0-0.2","B1A83D80254E4A3CB81D98E6917A3C6B","B1A83D80254E4A3CB81D98E6917A3C6B","0666b6b8-546e-44ca-874e-67a1852ac792","9076ac92-be42-43a2-9634-8b67c7fe93a7","{""num_scrambled_semantic"":""8"",""num_scrambled_causal"":""4"",""num_scrambled_schematic"":""4"",""participantId"":""B1A83D80254E4A3CB81D98E6917A3C6B"",""assignmentId"":""0666b6b8-546e-44ca-874e-67a1852ac792"",""projectId"":""9076ac92-be42-43a2-9634-8b67c7fe93a7""}","https://test12345.live/?num_scrambled_semantic=8&num_scrambled_causal=4&num_scrambled_schematic=4&participantId=B1A83D80254E4A3CB81D98E6917A3C6B&assignmentId=0666b6b8-546e-44ca-874e-67a1852ac792&projectId=9076ac92-be42-43a2-9634-8b67c7fe93a7","B1A83D80254E4A3CB81D98E6917A3C6B-2025-05-22-19-12-07","","null","","images/instructions/movie_3.png","null","",""
"","","","","","image-button-response","16","259394","0.0-6.0-1.0-1.2","B1A83D80254E4A3CB81D98E6917A3C6B","B1A83D80254E4A3CB81D98E6917A3C6B","0666b6b8-546e-44ca-874e-67a1852ac792","9076ac92-be42-43a2-9634-8b67c7fe93a7","{""num_scrambled_semantic"":""8"",""num_scrambled_causal"":""4"",""num_scrambled_schematic"":""4"",""participantId"":""B1A83D80254E4A3CB81D98E6917A3C6B"",""assignmentId"":""0666b6b8-546e-44ca-874e-67a1852ac792"",""projectId"":""9076ac92-be42-43a2-9634-8b67c7fe93a7""}","https://test12345.live/?num_scrambled_semantic=8&num_scrambled_causal=4&num_scrambled_schematic=4&participantId=B1A83D80254E4A3CB81D98E6917A3C6B&assignmentId=0666b6b8-546e-44ca-874e-67a1852ac792&projectId=9076ac92-be42-43a2-9634-8b67c7fe93a7","B1A83D80254E4A3CB81D98E6917A3C6B-2025-05-22-19-12-07","","1425","","images/instructions/movie_3.png","0","",""
"","","","","","image-button-response","17","261210","0.0-6.0-1.0-2.2","B1A83D80254E4A3CB81D98E6917A3C6B","B1A83D80254E4A3CB81D98E6917A3C6B","0666b6b8-546e-44ca-874e-67a1852ac792","9076ac92-be42-43a2-9634-8b67c7fe93a7","{""num_scrambled_semantic"":""8"",""num_scrambled_causal"":""4"",""num_scrambled_schematic"":""4"",""participantId"":""B1A83D80254E4A3CB81D98E6917A3C6B"",""assignmentId"":""0666b6b8-546e-44ca-874e-67a1852ac792"",""projectId"":""9076ac92-be42-43a2-9634-8b67c7fe93a7""}","https://test12345.live/?num_scrambled_semantic=8&num_scrambled_causal=4&num_scrambled_schematic=4&participantId=B1A83D80254E4A3CB81D98E6917A3C6B&assignmentId=0666b6b8-546e-44ca-874e-67a1852ac792&projectId=9076ac92-be42-43a2-9634-8b67c7fe93a7","B1A83D80254E4A3CB81D98E6917A3C6B-2025-05-22-19-12-07","","null","","[]","null","",""
"","","","","","image-button-response","18","265724","0.0-6.0-1.0-0.3","B1A83D80254E4A3CB81D98E6917A3C6B","B1A83D80254E4A3CB81D98E6917A3C6B","0666b6b8-546e-44ca-874e-67a1852ac792","9076ac92-be42-43a2-9634-8b67c7fe93a7","{""num_scrambled_semantic"":""8"",""num_scrambled_causal"":""4"",""num_scrambled_schematic"":""4"",""participantId"":""B1A83D80254E4A3CB81D98E6917A3C6B"",""assignmentId"":""0666b6b8-546e-44ca-874e-67a1852ac792"",""projectId"":""9076ac92-be42-43a2-9634-8b67c7fe93a7""}","https://test12345.live/?num_scrambled_semantic=8&num_scrambled_causal=4&num_scrambled_schematic=4&participantId=B1A83D80254E4A3CB81D98E6917A3C6B&assignmentId=0666b6b8-546e-44ca-874e-67a1852ac792&projectId=9076ac92-be42-43a2-9634-8b67c7fe93a7","B1A83D80254E4A3CB81D98E6917A3C6B-2025-05-22-19-12-07","","null","","images/instructions/movie_4.png","null","",""
"","","","","","image-button-response","19","266967","0.0-6.0-1.0-1.3","B1A83D80254E4A3CB81D98E6917A3C6B","B1A83D80254E4A3CB81D98E6917A3C6B","0666b6b8-546e-44ca-874e-67a1852ac792","9076ac92-be42-43a2-9634-8b67c7fe93a7","{""num_scrambled_semantic"":""8"",""num_scrambled_causal"":""4"",""num_scrambled_schematic"":""4"",""participantId"":""B1A83D80254E4A3CB81D98E6917A3C6B"",""assignmentId"":""0666b6b8-546e-44ca-874e-67a1852ac792"",""projectId"":""9076ac92-be42-43a2-9634-8b67c7fe93a7""}","https://test12345.live/?num_scrambled_semantic=8&num_scrambled_causal=4&num_scrambled_schematic=4&participantId=B1A83D80254E4A3CB81D98E6917A3C6B&assignmentId=0666b6b8-546e-44ca-874e-67a1852ac792&projectId=9076ac92-be42-43a2-9634-8b67c7fe93a7","B1A83D80254E4A3CB81D98E6917A3C6B-2025-05-22-19-12-07","","1240","","images/instructions/movie_4.png","0","",""
"","","","","","image-button-response","20","268784","0.0-6.0-1.0-2.3","B1A83D80254E4A3CB81D98E6917A3C6B","B1A83D80254E4A3CB81D98E6917A3C6B","0666b6b8-546e-44ca-874e-67a1852ac792","9076ac92-be42-43a2-9634-8b67c7fe93a7","{""num_scrambled_semantic"":""8"",""num_scrambled_causal"":""4"",""num_scrambled_schematic"":""4"",""participantId"":""B1A83D80254E4A3CB81D98E6917A3C6B"",""assignmentId"":""0666b6b8-546e-44ca-874e-67a1852ac792"",""projectId"":""9076ac92-be42-43a2-9634-8b67c7fe93a7""}","https://test12345.live/?num_scrambled_semantic=8&num_scrambled_causal=4&num_scrambled_schematic=4&participantId=B1A83D80254E4A3CB81D98E6917A3C6B&assignmentId=0666b6b8-546e-44ca-874e-67a1852ac792&projectId=9076ac92-be42-43a2-9634-8b67c7fe93a7","B1A83D80254E4A3CB81D98E6917A3C6B-2025-05-22-19-12-07","","null","","[]","null","",""
"","","","","","instructions","21","281580","0.0-7.0","B1A83D80254E4A3CB81D98E6917A3C6B","B1A83D80254E4A3CB81D98E6917A3C6B","0666b6b8-546e-44ca-874e-67a1852ac792","9076ac92-be42-43a2-9634-8b67c7fe93a7","{""num_scrambled_semantic"":""8"",""num_scrambled_causal"":""4"",""num_scrambled_schematic"":""4"",""participantId"":""B1A83D80254E4A3CB81D98E6917A3C6B"",""assignmentId"":""0666b6b8-546e-44ca-874e-67a1852ac792"",""projectId"":""9076ac92-be42-43a2-9634-8b67c7fe93a7""}","https://test12345.live/?num_scrambled_semantic=8&num_scrambled_causal=4&num_scrambled_schematic=4&participantId=B1A83D80254E4A3CB81D98E6917A3C6B&assignmentId=0666b6b8-546e-44ca-874e-67a1852ac792&projectId=9076ac92-be42-43a2-9634-8b67c7fe93a7","B1A83D80254E4A3CB81D98E6917A3C6B-2025-05-22-19-12-07","[{""page_index"":0,""viewing_time"":11498},{""page_index"":1,""viewing_time"":1297}]","12796","","","","",""
"","","","","","html-audio-response","22","293144","0.0-8.0","B1A83D80254E4A3CB81D98E6917A3C6B","B1A83D80254E4A3CB81D98E6917A3C6B","0666b6b8-546e-44ca-874e-67a1852ac792","9076ac92-be42-43a2-9634-8b67c7fe93a7","{""num_scrambled_semantic"":""8"",""num_scrambled_causal"":""4"",""num_scrambled_schematic"":""4"",""participantId"":""B1A83D80254E4A3CB81D98E6917A3C6B"",""assignmentId"":""0666b6b8-546e-44ca-874e-67a1852ac792"",""projectId"":""9076ac92-be42-43a2-9634-8b67c7fe93a7""}","https://test12345.live/?num_scrambled_semantic=8&num_scrambled_causal=4&num_scrambled_schematic=4&participantId=B1A83D80254E4A3CB81D98E6917A3C6B&assignmentId=0666b6b8-546e-44ca-874e-67a1852ac792&projectId=9076ac92-be42-43a2-9634-8b67c7fe93a7","B1A83D80254E4A3CB81D98E6917A3C6B-2025-05-22-19-12-07","","10230","","[""<span style=\""color: red; font-size: 24px\""> NOW RECORDING</span><p>Please say out loud all the images you saw in the exact order you saw them. Try to recall as many images as you can, but remember: getting the order right is more important than the number of images you recall.</p>""]","","3",""
"","","","","","instructions","23","303628","0.0-9.0","B1A83D80254E4A3CB81D98E6917A3C6B","B1A83D80254E4A3CB81D98E6917A3C6B","0666b6b8-546e-44ca-874e-67a1852ac792","9076ac92-be42-43a2-9634-8b67c7fe93a7","{""num_scrambled_semantic"":""8"",""num_scrambled_causal"":""4"",""num_scrambled_schematic"":""4"",""participantId"":""B1A83D80254E4A3CB81D98E6917A3C6B"",""assignmentId"":""0666b6b8-546e-44ca-874e-67a1852ac792"",""projectId"":""9076ac92-be42-43a2-9634-8b67c7fe93a7""}","https://test12345.live/?num_scrambled_semantic=8&num_scrambled_causal=4&num_scrambled_schematic=4&participantId=B1A83D80254E4A3CB81D98E6917A3C6B&assignmentId=0666b6b8-546e-44ca-874e-67a1852ac792&projectId=9076ac92-be42-43a2-9634-8b67c7fe93a7","B1A83D80254E4A3CB81D98E6917A3C6B-2025-05-22-19-12-07","[{""page_index"":0,""viewing_time"":10460}]","10460","","","","",""
"","","","","","image-button-response","24","309634","0.0-10.0-0.0","B1A83D80254E4A3CB81D98E6917A3C6B","B1A83D80254E4A3CB81D98E6917A3C6B","0666b6b8-546e-44ca-874e-67a1852ac792","9076ac92-be42-43a2-9634-8b67c7fe93a7","{""num_scrambled_semantic"":""8"",""num_scrambled_causal"":""4"",""num_scrambled_schematic"":""4"",""participantId"":""B1A83D80254E4A3CB81D98E6917A3C6B"",""assignmentId"":""0666b6b8-546e-44ca-874e-67a1852ac792"",""projectId"":""9076ac92-be42-43a2-9634-8b67c7fe93a7""}","https://test12345.live/?num_scrambled_semantic=8&num_scrambled_causal=4&num_scrambled_schematic=4&participantId=B1A83D80254E4A3CB81D98E6917A3C6B&assignmentId=0666b6b8-546e-44ca-874e-67a1852ac792&projectId=9076ac92-be42-43a2-9634-8b67c7fe93a7","B1A83D80254E4A3CB81D98E6917A3C6B-2025-05-22-19-12-07","","null","","images/semantic_sequence/self_care_activities_semantic/self_care_activities_semantic_0.png","null","",""
"","","","","","image-button-response","25","314143","0.0-10.0-1.0-0.0","B1A83D80254E4A3CB81D98E6917A3C6B","B1A83D80254E4A3CB81D98E6917A3C6B","0666b6b8-546e-44ca-874e-67a1852ac792","9076ac92-be42-43a2-9634-8b67c7fe93a7","{""num_scrambled_semantic"":""8"",""num_scrambled_causal"":""4"",""num_scrambled_schematic"":""4"",""participantId"":""B1A83D80254E4A3CB81D98E6917A3C6B"",""assignmentId"":""0666b6b8-546e-44ca-874e-67a1852ac792"",""projectId"":""9076ac92-be42-43a2-9634-8b67c7fe93a7""}","https://test12345.live/?num_scrambled_semantic=8&num_scrambled_causal=4&num_scrambled_schematic=4&participantId=B1A83D80254E4A3CB81D98E6917A3C6B&assignmentId=0666b6b8-546e-44ca-874e-67a1852ac792&projectId=9076ac92-be42-43a2-9634-8b67c7fe93a7","B1A83D80254E4A3CB81D98E6917A3C6B-2025-05-22-19-12-07","","null","","images/semantic_sequence/self_care_activities_semantic/self_care_activities_semantic_1.png","null","",""
"","","","","","image-button-response","26","316233","0.0-10.0-1.0-1.0","B1A83D80254E4A3CB81D98E6917A3C6B","B1A83D80254E4A3CB81D98E6917A3C6B","0666b6b8-546e-44ca-874e-67a1852ac792","9076ac92-be42-43a2-9634-8b67c7fe93a7","{""num_scrambled_semantic"":""8"",""num_scrambled_causal"":""4"",""num_scrambled_schematic"":""4"",""participantId"":""B1A83D80254E4A3CB81D98E6917A3C6B"",""assignmentId"":""0666b6b8-546e-44ca-874e-67a1852ac792"",""projectId"":""9076ac92-be42-43a2-9634-8b67c7fe93a7""}","https://test12345.live/?num_scrambled_semantic=8&num_scrambled_causal=4&num_scrambled_schematic=4&participantId=B1A83D80254E4A3CB81D98E6917A3C6B&assignmentId=0666b6b8-546e-44ca-874e-67a1852ac792&projectId=9076ac92-be42-43a2-9634-8b67c7fe93a7","B1A83D80254E4A3CB81D98E6917A3C6B-2025-05-22-19-12-07","","2086","","images/semantic_sequence/self_care_activities_semantic/self_care_activities_semantic_1.png","0","",""
"","","","","","image-button-response","27","318046","0.0-10.0-1.0-2.0","B1A83D80254E4A3CB81D98E6917A3C6B","B1A83D80254E4A3CB81D98E6917A3C6B","0666b6b8-546e-44ca-874e-67a1852ac792","9076ac92-be42-43a2-9634-8b67c7fe93a7","{""num_scrambled_semantic"":""8"",""num_scrambled_causal"":""4"",""num_scrambled_schematic"":""4"",""participantId"":""B1A83D80254E4A3CB81D98E6917A3C6B"",""assignmentId"":""0666b6b8-546e-44ca-874e-67a1852ac792"",""projectId"":""9076ac92-be42-43a2-9634-8b67c7fe93a7""}","https://test12345.live/?num_scrambled_semantic=8&num_scrambled_causal=4&num_scrambled_schematic=4&participantId=B1A83D80254E4A3CB81D98E6917A3C6B&assignmentId=0666b6b8-546e-44ca-874e-67a1852ac792&projectId=9076ac92-be42-43a2-9634-8b67c7fe93a7","B1A83D80254E4A3CB81D98E6917A3C6B-2025-05-22-19-12-07","","null","","[]","null","",""
"","","","","","image-button-response","28","322552","0.0-10.0-1.0-0.1","B1A83D80254E4A3CB81D98E6917A3C6B","B1A83D80254E4A3CB81D98E6917A3C6B","0666b6b8-546e-44ca-874e-67a1852ac792","9076ac92-be42-43a2-9634-8b67c7fe93a7","{""num_scrambled_semantic"":""8"",""num_scrambled_causal"":""4"",""num_scrambled_schematic"":""4"",""participantId"":""B1A83D80254E4A3CB81D98E6917A3C6B"",""assignmentId"":""0666b6b8-546e-44ca-874e-67a1852ac792"",""projectId"":""9076ac92-be42-43a2-9634-8b67c7fe93a7""}","https://test12345.live/?num_scrambled_semantic=8&num_scrambled_causal=4&num_scrambled_schematic=4&participantId=B1A83D80254E4A3CB81D98E6917A3C6B&assignmentId=0666b6b8-546e-44ca-874e-67a1852ac792&projectId=9076ac92-be42-43a2-9634-8b67c7fe93a7","B1A83D80254E4A3CB81D98E6917A3C6B-2025-05-22-19-12-07","","null","","images/semantic_sequence/self_care_activities_semantic/self_care_activities_semantic_6.png","null","",""
"","","","","","image-button-response","29","325548","0.0-10.0-1.0-1.1","B1A83D80254E4A3CB81D98E6917A3C6B","B1A83D80254E4A3CB81D98E6917A3C6B","0666b6b8-546e-44ca-874e-67a1852ac792","9076ac92-be42-43a2-9634-8b67c7fe93a7","{""num_scrambled_semantic"":""8"",""num_scrambled_causal"":""4"",""num_scrambled_schematic"":""4"",""participantId"":""B1A83D80254E4A3CB81D98E6917A3C6B"",""assignmentId"":""0666b6b8-546e-44ca-874e-67a1852ac792"",""projectId"":""9076ac92-be42-43a2-9634-8b67c7fe93a7""}","https://test12345.live/?num_scrambled_semantic=8&num_scrambled_causal=4&num_scrambled_schematic=4&participantId=B1A83D80254E4A3CB81D98E6917A3C6B&assignmentId=0666b6b8-546e-44ca-874e-67a1852ac792&projectId=9076ac92-be42-43a2-9634-8b67c7fe93a7","B1A83D80254E4A3CB81D98E6917A3C6B-2025-05-22-19-12-07","","2988","","images/semantic_sequence/self_care_activities_semantic/self_care_activities_semantic_6.png","1","",""
"","","","","","image-button-response","30","327351","0.0-10.0-1.0-2.1","B1A83D80254E4A3CB81D98E6917A3C6B","B1A83D80254E4A3CB81D98E6917A3C6B","0666b6b8-546e-44ca-874e-67a1852ac792","9076ac92-be42-43a2-9634-8b67c7fe93a7","{""num_scrambled_semantic"":""8"",""num_scrambled_causal"":""4"",""num_scrambled_schematic"":""4"",""participantId"":""B1A83D80254E4A3CB81D98E6917A3C6B"",""assignmentId"":""0666b6b8-546e-44ca-874e-67a1852ac792"",""projectId"":""9076ac92-be42-43a2-9634-8b67c7fe93a7""}","https://test12345.live/?num_scrambled_semantic=8&num_scrambled_causal=4&num_scrambled_schematic=4&participantId=B1A83D80254E4A3CB81D98E6917A3C6B&assignmentId=0666b6b8-546e-44ca-874e-67a1852ac792&projectId=9076ac92-be42-43a2-9634-8b67c7fe93a7","B1A83D80254E4A3CB81D98E6917A3C6B-2025-05-22-19-12-07","","null","","[]","null","",""
"","","","","","image-button-response","31","331857","0.0-10.0-1.0-0.2","B1A83D80254E4A3CB81D98E6917A3C6B","B1A83D80254E4A3CB81D98E6917A3C6B","0666b6b8-546e-44ca-874e-67a1852ac792","9076ac92-be42-43a2-9634-8b67c7fe93a7","{""num_scrambled_semantic"":""8"",""num_scrambled_causal"":""4"",""num_scrambled_schematic"":""4"",""participantId"":""B1A83D80254E4A3CB81D98E6917A3C6B"",""assignmentId"":""0666b6b8-546e-44ca-874e-67a1852ac792"",""projectId"":""9076ac92-be42-43a2-9634-8b67c7fe93a7""}","https://test12345.live/?num_scrambled_semantic=8&num_scrambled_causal=4&num_scrambled_schematic=4&participantId=B1A83D80254E4A3CB81D98E6917A3C6B&assignmentId=0666b6b8-546e-44ca-874e-67a1852ac792&projectId=9076ac92-be42-43a2-9634-8b67c7fe93a7","B1A83D80254E4A3CB81D98E6917A3C6B-2025-05-22-19-12-07","","null","","images/semantic_sequence/self_care_activities_semantic/self_care_activities_semantic_7.png","null","",""
"","","","","","image-button-response","32","335843","0.0-10.0-1.0-1.2","B1A83D80254E4A3CB81D98E6917A3C6B","B1A83D80254E4A3CB81D98E6917A3C6B","0666b6b8-546e-44ca-874e-67a1852ac792","9076ac92-be42-43a2-9634-8b67c7fe93a7","{""num_scrambled_semantic"":""8"",""num_scrambled_causal"":""4"",""num_scrambled_schematic"":""4"",""participantId"":""B1A83D80254E4A3CB81D98E6917A3C6B"",""assignmentId"":""0666b6b8-546e-44ca-874e-67a1852ac792"",""projectId"":""9076ac92-be42-43a2-9634-8b67c7fe93a7""}","https://test12345.live/?num_scrambled_semantic=8&num_scrambled_causal=4&num_scrambled_schematic=4&participantId=B1A83D80254E4A3CB81D98E6917A3C6B&assignmentId=0666b6b8-546e-44ca-874e-67a1852ac792&projectId=9076ac92-be42-43a2-9634-8b67c7fe93a7","B1A83D80254E4A3CB81D98E6917A3C6B-2025-05-22-19-12-07","","3981","","images/semantic_sequence/self_care_activities_semantic/self_care_activities_semantic_7.png","0","",""
"","","","","","image-button-response","33","337650","0.0-10.0-1.0-2.2","B1A83D80254E4A3CB81D98E6917A3C6B","B1A83D80254E4A3CB81D98E6917A3C6B","0666b6b8-546e-44ca-874e-67a1852ac792","9076ac92-be42-43a2-9634-8b67c7fe93a7","{""num_scrambled_semantic"":""8"",""num_scrambled_causal"":""4"",""num_scrambled_schematic"":""4"",""participantId"":""B1A83D80254E4A3CB81D98E6917A3C6B"",""assignmentId"":""0666b6b8-546e-44ca-874e-67a1852ac792"",""projectId"":""9076ac92-be42-43a2-9634-8b67c7fe93a7""}","https://test12345.live/?num_scrambled_semantic=8&num_scrambled_causal=4&num_scrambled_schematic=4&participantId=B1A83D80254E4A3CB81D98E6917A3C6B&assignmentId=0666b6b8-546e-44ca-874e-67a1852ac792&projectId=9076ac92-be42-43a2-9634-8b67c7fe93a7","B1A83D80254E4A3CB81D98E6917A3C6B-2025-05-22-19-12-07","","null","","[]","null","",""
"","","","","","image-button-response","34","342166","0.0-10.0-1.0-0.3","B1A83D80254E4A3CB81D98E6917A3C6B","B1A83D80254E4A3CB81D98E6917A3C6B","0666b6b8-546e-44ca-874e-67a1852ac792","9076ac92-be42-43a2-9634-8b67c7fe93a7","{""num_scrambled_semantic"":""8"",""num_scrambled_causal"":""4"",""num_scrambled_schematic"":""4"",""participantId"":""B1A83D80254E4A3CB81D98E6917A3C6B"",""assignmentId"":""0666b6b8-546e-44ca-874e-67a1852ac792"",""projectId"":""9076ac92-be42-43a2-9634-8b67c7fe93a7""}","https://test12345.live/?num_scrambled_semantic=8&num_scrambled_causal=4&num_scrambled_schematic=4&participantId=B1A83D80254E4A3CB81D98E6917A3C6B&assignmentId=0666b6b8-546e-44ca-874e-67a1852ac792&projectId=9076ac92-be42-43a2-9634-8b67c7fe93a7","B1A83D80254E4A3CB81D98E6917A3C6B-2025-05-22-19-12-07","","null","","images/semantic_sequence/self_care_activities_semantic/self_care_activities_semantic_9.png","null","",""
"","","","","","image-button-response","35","346027","0.0-10.0-1.0-1.3","B1A83D80254E4A3CB81D98E6917A3C6B","B1A83D80254E4A3CB81D98E6917A3C6B","0666b6b8-546e-44ca-874e-67a1852ac792","9076ac92-be42-43a2-9634-8b67c7fe93a7","{""num_scrambled_semantic"":""8"",""num_scrambled_causal"":""4"",""num_scrambled_schematic"":""4"",""participantId"":""B1A83D80254E4A3CB81D98E6917A3C6B"",""assignmentId"":""0666b6b8-546e-44ca-874e-67a1852ac792"",""projectId"":""9076ac92-be42-43a2-9634-8b67c7fe93a7""}","https://test12345.live/?num_scrambled_semantic=8&num_scrambled_causal=4&num_scrambled_schematic=4&participantId=B1A83D80254E4A3CB81D98E6917A3C6B&assignmentId=0666b6b8-546e-44ca-874e-67a1852ac792&projectId=9076ac92-be42-43a2-9634-8b67c7fe93a7","B1A83D80254E4A3CB81D98E6917A3C6B-2025-05-22-19-12-07","","3859","","images/semantic_sequence/self_care_activities_semantic/self_care_activities_semantic_9.png","0","",""
"","","","","","image-button-response","36","347841","0.0-10.0-1.0-2.3","B1A83D80254E4A3CB81D98E6917A3C6B","B1A83D80254E4A3CB81D98E6917A3C6B","0666b6b8-546e-44ca-874e-67a1852ac792","9076ac92-be42-43a2-9634-8b67c7fe93a7","{""num_scrambled_semantic"":""8"",""num_scrambled_causal"":""4"",""num_scrambled_schematic"":""4"",""participantId"":""B1A83D80254E4A3CB81D98E6917A3C6B"",""assignmentId"":""0666b6b8-546e-44ca-874e-67a1852ac792"",""projectId"":""9076ac92-be42-43a2-9634-8b67c7fe93a7""}","https://test12345.live/?num_scrambled_semantic=8&num_scrambled_causal=4&num_scrambled_schematic=4&participantId=B1A83D80254E4A3CB81D98E6917A3C6B&assignmentId=0666b6b8-546e-44ca-874e-67a1852ac792&projectId=9076ac92-be42-43a2-9634-8b67c7fe93a7","B1A83D80254E4A3CB81D98E6917A3C6B-2025-05-22-19-12-07","","null","","[]","null","",""
"","","","","","image-button-response","37","352348","0.0-10.0-1.0-0.4","B1A83D80254E4A3CB81D98E6917A3C6B","B1A83D80254E4A3CB81D98E6917A3C6B","0666b6b8-546e-44ca-874e-67a1852ac792","9076ac92-be42-43a2-9634-8b67c7fe93a7","{""num_scrambled_semantic"":""8"",""num_scrambled_causal"":""4"",""num_scrambled_schematic"":""4"",""participantId"":""B1A83D80254E4A3CB81D98E6917A3C6B"",""assignmentId"":""0666b6b8-546e-44ca-874e-67a1852ac792"",""projectId"":""9076ac92-be42-43a2-9634-8b67c7fe93a7""}","https://test12345.live/?num_scrambled_semantic=8&num_scrambled_causal=4&num_scrambled_schematic=4&participantId=B1A83D80254E4A3CB81D98E6917A3C6B&assignmentId=0666b6b8-546e-44ca-874e-67a1852ac792&projectId=9076ac92-be42-43a2-9634-8b67c7fe93a7","B1A83D80254E4A3CB81D98E6917A3C6B-2025-05-22-19-12-07","","null","","images/semantic_sequence/self_care_activities_semantic/self_care_activities_semantic_2.png","null","",""
"","","","","","image-button-response","38","356361","0.0-10.0-1.0-1.4","B1A83D80254E4A3CB81D98E6917A3C6B","B1A83D80254E4A3CB81D98E6917A3C6B","0666b6b8-546e-44ca-874e-67a1852ac792","9076ac92-be42-43a2-9634-8b67c7fe93a7","{""num_scrambled_semantic"":""8"",""num_scrambled_causal"":""4"",""num_scrambled_schematic"":""4"",""participantId"":""B1A83D80254E4A3CB81D98E6917A3C6B"",""assignmentId"":""0666b6b8-546e-44ca-874e-67a1852ac792"",""projectId"":""9076ac92-be42-43a2-9634-8b67c7fe93a7""}","https://test12345.live/?num_scrambled_semantic=8&num_scrambled_causal=4&num_scrambled_schematic=4&participantId=B1A83D80254E4A3CB81D98E6917A3C6B&assignmentId=0666b6b8-546e-44ca-874e-67a1852ac792&projectId=9076ac92-be42-43a2-9634-8b67c7fe93a7","B1A83D80254E4A3CB81D98E6917A3C6B-2025-05-22-19-12-07","","null","","images/semantic_sequence/self_care_activities_semantic/self_care_activities_semantic_2.png","null","",""
"","","","","","image-button-response","39","358171","0.0-10.0-1.0-2.4","B1A83D80254E4A3CB81D98E6917A3C6B","B1A83D80254E4A3CB81D98E6917A3C6B","0666b6b8-546e-44ca-874e-67a1852ac792","9076ac92-be42-43a2-9634-8b67c7fe93a7","{""num_scrambled_semantic"":""8"",""num_scrambled_causal"":""4"",""num_scrambled_schematic"":""4"",""participantId"":""B1A83D80254E4A3CB81D98E6917A3C6B"",""assignmentId"":""0666b6b8-546e-44ca-874e-67a1852ac792"",""projectId"":""9076ac92-be42-43a2-9634-8b67c7fe93a7""}","https://test12345.live/?num_scrambled_semantic=8&num_scrambled_causal=4&num_scrambled_schematic=4&participantId=B1A83D80254E4A3CB81D98E6917A3C6B&assignmentId=0666b6b8-546e-44ca-874e-67a1852ac792&projectId=9076ac92-be42-43a2-9634-8b67c7fe93a7","B1A83D80254E4A3CB81D98E6917A3C6B-2025-05-22-19-12-07","","null","","[]","null","",""
"","","","","","image-button-response","40","362679","0.0-10.0-1.0-0.5","B1A83D80254E4A3CB81D98E6917A3C6B","B1A83D80254E4A3CB81D98E6917A3C6B","0666b6b8-546e-44ca-874e-67a1852ac792","9076ac92-be42-43a2-9634-8b67c7fe93a7","{""num_scrambled_semantic"":""8"",""num_scrambled_causal"":""4"",""num_scrambled_schematic"":""4"",""participantId"":""B1A83D80254E4A3CB81D98E6917A3C6B"",""assignmentId"":""0666b6b8-546e-44ca-874e-67a1852ac792"",""projectId"":""9076ac92-be42-43a2-9634-8b67c7fe93a7""}","https://test12345.live/?num_scrambled_semantic=8&num_scrambled_causal=4&num_scrambled_schematic=4&participantId=B1A83D80254E4A3CB81D98E6917A3C6B&assignmentId=0666b6b8-546e-44ca-874e-67a1852ac792&projectId=9076ac92-be42-43a2-9634-8b67c7fe93a7","B1A83D80254E4A3CB81D98E6917A3C6B-2025-05-22-19-12-07","","null","","images/semantic_sequence/self_care_activities_semantic/self_care_activities_semantic_3.png","null","",""
"","","","","","image-button-response","41","366697","0.0-10.0-1.0-1.5","B1A83D80254E4A3CB81D98E6917A3C6B","B1A83D80254E4A3CB81D98E6917A3C6B","0666b6b8-546e-44ca-874e-67a1852ac792","9076ac92-be42-43a2-9634-8b67c7fe93a7","{""num_scrambled_semantic"":""8"",""num_scrambled_causal"":""4"",""num_scrambled_schematic"":""4"",""participantId"":""B1A83D80254E4A3CB81D98E6917A3C6B"",""assignmentId"":""0666b6b8-546e-44ca-874e-67a1852ac792"",""projectId"":""9076ac92-be42-43a2-9634-8b67c7fe93a7""}","https://test12345.live/?num_scrambled_semantic=8&num_scrambled_causal=4&num_scrambled_schematic=4&participantId=B1A83D80254E4A3CB81D98E6917A3C6B&assignmentId=0666b6b8-546e-44ca-874e-67a1852ac792&projectId=9076ac92-be42-43a2-9634-8b67c7fe93a7","B1A83D80254E4A3CB81D98E6917A3C6B-2025-05-22-19-12-07","","null","","images/semantic_sequence/self_care_activities_semantic/self_care_activities_semantic_3.png","null","",""
"","","","","","image-button-response","42","368513","0.0-10.0-1.0-2.5","B1A83D80254E4A3CB81D98E6917A3C6B","B1A83D80254E4A3CB81D98E6917A3C6B","0666b6b8-546e-44ca-874e-67a1852ac792","9076ac92-be42-43a2-9634-8b67c7fe93a7","{""num_scrambled_semantic"":""8"",""num_scrambled_causal"":""4"",""num_scrambled_schematic"":""4"",""participantId"":""B1A83D80254E4A3CB81D98E6917A3C6B"",""assignmentId"":""0666b6b8-546e-44ca-874e-67a1852ac792"",""projectId"":""9076ac92-be42-43a2-9634-8b67c7fe93a7""}","https://test12345.live/?num_scrambled_semantic=8&num_scrambled_causal=4&num_scrambled_schematic=4&participantId=B1A83D80254E4A3CB81D98E6917A3C6B&assignmentId=0666b6b8-546e-44ca-874e-67a1852ac792&projectId=9076ac92-be42-43a2-9634-8b67c7fe93a7","B1A83D80254E4A3CB81D98E6917A3C6B-2025-05-22-19-12-07","","null","","[]","null","",""
"","","","","","image-button-response","43","373017","0.0-10.0-1.0-0.6","B1A83D80254E4A3CB81D98E6917A3C6B","B1A83D80254E4A3CB81D98E6917A3C6B","0666b6b8-546e-44ca-874e-67a1852ac792","9076ac92-be42-43a2-9634-8b67c7fe93a7","{""num_scrambled_semantic"":""8"",""num_scrambled_causal"":""4"",""num_scrambled_schematic"":""4"",""participantId"":""B1A83D80254E4A3CB81D98E6917A3C6B"",""assignmentId"":""0666b6b8-546e-44ca-874e-67a1852ac792"",""projectId"":""9076ac92-be42-43a2-9634-8b67c7fe93a7""}","https://test12345.live/?num_scrambled_semantic=8&num_scrambled_causal=4&num_scrambled_schematic=4&participantId=B1A83D80254E4A3CB81D98E6917A3C6B&assignmentId=0666b6b8-546e-44ca-874e-67a1852ac792&projectId=9076ac92-be42-43a2-9634-8b67c7fe93a7","B1A83D80254E4A3CB81D98E6917A3C6B-2025-05-22-19-12-07","","null","","images/semantic_sequence/self_care_activities_semantic/self_care_activities_semantic_ten.png","null","",""
"","","","","","image-button-response","44","377032","0.0-10.0-1.0-1.6","B1A83D80254E4A3CB81D98E6917A3C6B","B1A83D80254E4A3CB81D98E6917A3C6B","0666b6b8-546e-44ca-874e-67a1852ac792","9076ac92-be42-43a2-9634-8b67c7fe93a7","{""num_scrambled_semantic"":""8"",""num_scrambled_causal"":""4"",""num_scrambled_schematic"":""4"",""participantId"":""B1A83D80254E4A3CB81D98E6917A3C6B"",""assignmentId"":""0666b6b8-546e-44ca-874e-67a1852ac792"",""projectId"":""9076ac92-be42-43a2-9634-8b67c7fe93a7""}","https://test12345.live/?num_scrambled_semantic=8&num_scrambled_causal=4&num_scrambled_schematic=4&participantId=B1A83D80254E4A3CB81D98E6917A3C6B&assignmentId=0666b6b8-546e-44ca-874e-67a1852ac792&projectId=9076ac92-be42-43a2-9634-8b67c7fe93a7","B1A83D80254E4A3CB81D98E6917A3C6B-2025-05-22-19-12-07","","null","","images/semantic_sequence/self_care_activities_semantic/self_care_activities_semantic_ten.png","null","",""
"","","","","","image-button-response","45","378841","0.0-10.0-1.0-2.6","B1A83D80254E4A3CB81D98E6917A3C6B","B1A83D80254E4A3CB81D98E6917A3C6B","0666b6b8-546e-44ca-874e-67a1852ac792","9076ac92-be42-43a2-9634-8b67c7fe93a7","{""num_scrambled_semantic"":""8"",""num_scrambled_causal"":""4"",""num_scrambled_schematic"":""4"",""participantId"":""B1A83D80254E4A3CB81D98E6917A3C6B"",""assignmentId"":""0666b6b8-546e-44ca-874e-67a1852ac792"",""projectId"":""9076ac92-be42-43a2-9634-8b67c7fe93a7""}","https://test12345.live/?num_scrambled_semantic=8&num_scrambled_causal=4&num_scrambled_schematic=4&participantId=B1A83D80254E4A3CB81D98E6917A3C6B&assignmentId=0666b6b8-546e-44ca-874e-67a1852ac792&projectId=9076ac92-be42-43a2-9634-8b67c7fe93a7","B1A83D80254E4A3CB81D98E6917A3C6B-2025-05-22-19-12-07","","null","","[]","null","",""
"","","","","","image-button-response","46","383346","0.0-10.0-1.0-0.7","B1A83D80254E4A3CB81D98E6917A3C6B","B1A83D80254E4A3CB81D98E6917A3C6B","0666b6b8-546e-44ca-874e-67a1852ac792","9076ac92-be42-43a2-9634-8b67c7fe93a7","{""num_scrambled_semantic"":""8"",""num_scrambled_causal"":""4"",""num_scrambled_schematic"":""4"",""participantId"":""B1A83D80254E4A3CB81D98E6917A3C6B"",""assignmentId"":""0666b6b8-546e-44ca-874e-67a1852ac792"",""projectId"":""9076ac92-be42-43a2-9634-8b67c7fe93a7""}","https://test12345.live/?num_scrambled_semantic=8&num_scrambled_causal=4&num_scrambled_schematic=4&participantId=B1A83D80254E4A3CB81D98E6917A3C6B&assignmentId=0666b6b8-546e-44ca-874e-67a1852ac792&projectId=9076ac92-be42-43a2-9634-8b67c7fe93a7","B1A83D80254E4A3CB81D98E6917A3C6B-2025-05-22-19-12-07","","null","","images/semantic_sequence/self_care_activities_semantic/self_care_activities_semantic_8.png","null","",""
"","","","","","image-button-response","47","385054","0.0-10.0-1.0-1.7","B1A83D80254E4A3CB81D98E6917A3C6B","B1A83D80254E4A3CB81D98E6917A3C6B","0666b6b8-546e-44ca-874e-67a1852ac792","9076ac92-be42-43a2-9634-8b67c7fe93a7","{""num_scrambled_semantic"":""8"",""num_scrambled_causal"":""4"",""num_scrambled_schematic"":""4"",""participantId"":""B1A83D80254E4A3CB81D98E6917A3C6B"",""assignmentId"":""0666b6b8-546e-44ca-874e-67a1852ac792"",""projectId"":""9076ac92-be42-43a2-9634-8b67c7fe93a7""}","https://test12345.live/?num_scrambled_semantic=8&num_scrambled_causal=4&num_scrambled_schematic=4&participantId=B1A83D80254E4A3CB81D98E6917A3C6B&assignmentId=0666b6b8-546e-44ca-874e-67a1852ac792&projectId=9076ac92-be42-43a2-9634-8b67c7fe93a7","B1A83D80254E4A3CB81D98E6917A3C6B-2025-05-22-19-12-07","","1705","","images/semantic_sequence/self_care_activities_semantic/self_care_activities_semantic_8.png","0","",""
"","","","","","image-button-response","48","386867","0.0-10.0-1.0-2.7","B1A83D80254E4A3CB81D98E6917A3C6B","B1A83D80254E4A3CB81D98E6917A3C6B","0666b6b8-546e-44ca-874e-67a1852ac792","9076ac92-be42-43a2-9634-8b67c7fe93a7","{""num_scrambled_semantic"":""8"",""num_scrambled_causal"":""4"",""num_scrambled_schematic"":""4"",""participantId"":""B1A83D80254E4A3CB81D98E6917A3C6B"",""assignmentId"":""0666b6b8-546e-44ca-874e-67a1852ac792"",""projectId"":""9076ac92-be42-43a2-9634-8b67c7fe93a7""}","https://test12345.live/?num_scrambled_semantic=8&num_scrambled_causal=4&num_scrambled_schematic=4&participantId=B1A83D80254E4A3CB81D98E6917A3C6B&assignmentId=0666b6b8-546e-44ca-874e-67a1852ac792&projectId=9076ac92-be42-43a2-9634-8b67c7fe93a7","B1A83D80254E4A3CB81D98E6917A3C6B-2025-05-22-19-12-07","","null","","[]","null","",""
"","","","","","image-button-response","49","391378","0.0-10.0-1.0-0.8","B1A83D80254E4A3CB81D98E6917A3C6B","B1A83D80254E4A3CB81D98E6917A3C6B","0666b6b8-546e-44ca-874e-67a1852ac792","9076ac92-be42-43a2-9634-8b67c7fe93a7","{""num_scrambled_semantic"":""8"",""num_scrambled_causal"":""4"",""num_scrambled_schematic"":""4"",""participantId"":""B1A83D80254E4A3CB81D98E6917A3C6B"",""assignmentId"":""0666b6b8-546e-44ca-874e-67a1852ac792"",""projectId"":""9076ac92-be42-43a2-9634-8b67c7fe93a7""}","https://test12345.live/?num_scrambled_semantic=8&num_scrambled_causal=4&num_scrambled_schematic=4&participantId=B1A83D80254E4A3CB81D98E6917A3C6B&assignmentId=0666b6b8-546e-44ca-874e-67a1852ac792&projectId=9076ac92-be42-43a2-9634-8b67c7fe93a7","B1A83D80254E4A3CB81D98E6917A3C6B-2025-05-22-19-12-07","","null","","images/semantic_sequence/self_care_activities_semantic/self_care_activities_semantic_5.png","null","",""
"","","","","","image-button-response","50","393345","0.0-10.0-1.0-1.8","B1A83D80254E4A3CB81D98E6917A3C6B","B1A83D80254E4A3CB81D98E6917A3C6B","0666b6b8-546e-44ca-874e-67a1852ac792","9076ac92-be42-43a2-9634-8b67c7fe93a7","{""num_scrambled_semantic"":""8"",""num_scrambled_causal"":""4"",""num_scrambled_schematic"":""4"",""participantId"":""B1A83D80254E4A3CB81D98E6917A3C6B"",""assignmentId"":""0666b6b8-546e-44ca-874e-67a1852ac792"",""projectId"":""9076ac92-be42-43a2-9634-8b67c7fe93a7""}","https://test12345.live/?num_scrambled_semantic=8&num_scrambled_causal=4&num_scrambled_schematic=4&participantId=B1A83D80254E4A3CB81D98E6917A3C6B&assignmentId=0666b6b8-546e-44ca-874e-67a1852ac792&projectId=9076ac92-be42-43a2-9634-8b67c7fe93a7","B1A83D80254E4A3CB81D98E6917A3C6B-2025-05-22-19-12-07","","1964","","images/semantic_sequence/self_care_activities_semantic/self_care_activities_semantic_5.png","0","",""
"","","","","","image-button-response","51","395156","0.0-10.0-1.0-2.8","B1A83D80254E4A3CB81D98E6917A3C6B","B1A83D80254E4A3CB81D98E6917A3C6B","0666b6b8-546e-44ca-874e-67a1852ac792","9076ac92-be42-43a2-9634-8b67c7fe93a7","{""num_scrambled_semantic"":""8"",""num_scrambled_causal"":""4"",""num_scrambled_schematic"":""4"",""participantId"":""B1A83D80254E4A3CB81D98E6917A3C6B"",""assignmentId"":""0666b6b8-546e-44ca-874e-67a1852ac792"",""projectId"":""9076ac92-be42-43a2-9634-8b67c7fe93a7""}","https://test12345.live/?num_scrambled_semantic=8&num_scrambled_causal=4&num_scrambled_schematic=4&participantId=B1A83D80254E4A3CB81D98E6917A3C6B&assignmentId=0666b6b8-546e-44ca-874e-67a1852ac792&projectId=9076ac92-be42-43a2-9634-8b67c7fe93a7","B1A83D80254E4A3CB81D98E6917A3C6B-2025-05-22-19-12-07","","null","","[]","null","",""
"","","","","","image-button-response","52","399662","0.0-10.0-1.0-0.9","B1A83D80254E4A3CB81D98E6917A3C6B","B1A83D80254E4A3CB81D98E6917A3C6B","0666b6b8-546e-44ca-874e-67a1852ac792","9076ac92-be42-43a2-9634-8b67c7fe93a7","{""num_scrambled_semantic"":""8"",""num_scrambled_causal"":""4"",""num_scrambled_schematic"":""4"",""participantId"":""B1A83D80254E4A3CB81D98E6917A3C6B"",""assignmentId"":""0666b6b8-546e-44ca-874e-67a1852ac792"",""projectId"":""9076ac92-be42-43a2-9634-8b67c7fe93a7""}","https://test12345.live/?num_scrambled_semantic=8&num_scrambled_causal=4&num_scrambled_schematic=4&participantId=B1A83D80254E4A3CB81D98E6917A3C6B&assignmentId=0666b6b8-546e-44ca-874e-67a1852ac792&projectId=9076ac92-be42-43a2-9634-8b67c7fe93a7","B1A83D80254E4A3CB81D98E6917A3C6B-2025-05-22-19-12-07","","null","","images/semantic_sequence/self_care_activities_semantic/self_care_activities_semantic_4.png","null","",""
"","","","","","image-button-response","53","400704","0.0-10.0-1.0-1.9","B1A83D80254E4A3CB81D98E6917A3C6B","B1A83D80254E4A3CB81D98E6917A3C6B","0666b6b8-546e-44ca-874e-67a1852ac792","9076ac92-be42-43a2-9634-8b67c7fe93a7","{""num_scrambled_semantic"":""8"",""num_scrambled_causal"":""4"",""num_scrambled_schematic"":""4"",""participantId"":""B1A83D80254E4A3CB81D98E6917A3C6B"",""assignmentId"":""0666b6b8-546e-44ca-874e-67a1852ac792"",""projectId"":""9076ac92-be42-43a2-9634-8b67c7fe93a7""}","https://test12345.live/?num_scrambled_semantic=8&num_scrambled_causal=4&num_scrambled_schematic=4&participantId=B1A83D80254E4A3CB81D98E6917A3C6B&assignmentId=0666b6b8-546e-44ca-874e-67a1852ac792&projectId=9076ac92-be42-43a2-9634-8b67c7fe93a7","B1A83D80254E4A3CB81D98E6917A3C6B-2025-05-22-19-12-07","","1039","","images/semantic_sequence/self_care_activities_semantic/self_care_activities_semantic_4.png","0","",""
"","","","","","image-button-response","54","402512","0.0-10.0-1.0-2.9","B1A83D80254E4A3CB81D98E6917A3C6B","B1A83D80254E4A3CB81D98E6917A3C6B","0666b6b8-546e-44ca-874e-67a1852ac792","9076ac92-be42-43a2-9634-8b67c7fe93a7","{""num_scrambled_semantic"":""8"",""num_scrambled_causal"":""4"",""num_scrambled_schematic"":""4"",""participantId"":""B1A83D80254E4A3CB81D98E6917A3C6B"",""assignmentId"":""0666b6b8-546e-44ca-874e-67a1852ac792"",""projectId"":""9076ac92-be42-43a2-9634-8b67c7fe93a7""}","https://test12345.live/?num_scrambled_semantic=8&num_scrambled_causal=4&num_scrambled_schematic=4&participantId=B1A83D80254E4A3CB81D98E6917A3C6B&assignmentId=0666b6b8-546e-44ca-874e-67a1852ac792&projectId=9076ac92-be42-43a2-9634-8b67c7fe93a7","B1A83D80254E4A3CB81D98E6917A3C6B-2025-05-22-19-12-07","","null","","[]","null","",""
"","","","","","html-audio-response","55","412348","0.0-11.0","B1A83D80254E4A3CB81D98E6917A3C6B","B1A83D80254E4A3CB81D98E6917A3C6B","0666b6b8-546e-44ca-874e-67a1852ac792","9076ac92-be42-43a2-9634-8b67c7fe93a7","{""num_scrambled_semantic"":""8"",""num_scrambled_causal"":""4"",""num_scrambled_schematic"":""4"",""participantId"":""B1A83D80254E4A3CB81D98E6917A3C6B"",""assignmentId"":""0666b6b8-546e-44ca-874e-67a1852ac792"",""projectId"":""9076ac92-be42-43a2-9634-8b67c7fe93a7""}","https://test12345.live/?num_scrambled_semantic=8&num_scrambled_causal=4&num_scrambled_schematic=4&participantId=B1A83D80254E4A3CB81D98E6917A3C6B&assignmentId=0666b6b8-546e-44ca-874e-67a1852ac792&projectId=9076ac92-be42-43a2-9634-8b67c7fe93a7","B1A83D80254E4A3CB81D98E6917A3C6B-2025-05-22-19-12-07","","8892","","[""<span style=\""color: red; font-size: 24px\""> NOW RECORDING</span><p>Please say out loud all the images you saw, in the exact order you saw them. Try to recall as many images as you can, but remember: getting the order right is more important than the number of images you recall.</p>""]","","3","self_care_activities_semantic"
"","","","","","image-button-response","56","418364","0.0-12.0-0.0","B1A83D80254E4A3CB81D98E6917A3C6B","B1A83D80254E4A3CB81D98E6917A3C6B","0666b6b8-546e-44ca-874e-67a1852ac792","9076ac92-be42-43a2-9634-8b67c7fe93a7","{""num_scrambled_semantic"":""8"",""num_scrambled_causal"":""4"",""num_scrambled_schematic"":""4"",""participantId"":""B1A83D80254E4A3CB81D98E6917A3C6B"",""assignmentId"":""0666b6b8-546e-44ca-874e-67a1852ac792"",""projectId"":""9076ac92-be42-43a2-9634-8b67c7fe93a7""}","https://test12345.live/?num_scrambled_semantic=8&num_scrambled_causal=4&num_scrambled_schematic=4&participantId=B1A83D80254E4A3CB81D98E6917A3C6B&assignmentId=0666b6b8-546e-44ca-874e-67a1852ac792&projectId=9076ac92-be42-43a2-9634-8b67c7fe93a7","B1A83D80254E4A3CB81D98E6917A3C6B-2025-05-22-19-12-07","","null","","images/schematic_sequence/restaurant_scheme/restaurant_scheme_0.png","null","",""
"","","","","","image-button-response","57","422874","0.0-12.0-1.0-0.0","B1A83D80254E4A3CB81D98E6917A3C6B","B1A83D80254E4A3CB81D98E6917A3C6B","0666b6b8-546e-44ca-874e-67a1852ac792","9076ac92-be42-43a2-9634-8b67c7fe93a7","{""num_scrambled_semantic"":""8"",""num_scrambled_causal"":""4"",""num_scrambled_schematic"":""4"",""participantId"":""B1A83D80254E4A3CB81D98E6917A3C6B"",""assignmentId"":""0666b6b8-546e-44ca-874e-67a1852ac792"",""projectId"":""9076ac92-be42-43a2-9634-8b67c7fe93a7""}","https://test12345.live/?num_scrambled_semantic=8&num_scrambled_causal=4&num_scrambled_schematic=4&participantId=B1A83D80254E4A3CB81D98E6917A3C6B&assignmentId=0666b6b8-546e-44ca-874e-67a1852ac792&projectId=9076ac92-be42-43a2-9634-8b67c7fe93a7","B1A83D80254E4A3CB81D98E6917A3C6B-2025-05-22-19-12-07","","null","","images/schematic_sequence/restaurant_scheme/restaurant_scheme_1.png","null","",""
"","","","","","image-button-response","58","423885","0.0-12.0-1.0-1.0","B1A83D80254E4A3CB81D98E6917A3C6B","B1A83D80254E4A3CB81D98E6917A3C6B","0666b6b8-546e-44ca-874e-67a1852ac792","9076ac92-be42-43a2-9634-8b67c7fe93a7","{""num_scrambled_semantic"":""8"",""num_scrambled_causal"":""4"",""num_scrambled_schematic"":""4"",""participantId"":""B1A83D80254E4A3CB81D98E6917A3C6B"",""assignmentId"":""0666b6b8-546e-44ca-874e-67a1852ac792"",""projectId"":""9076ac92-be42-43a2-9634-8b67c7fe93a7""}","https://test12345.live/?num_scrambled_semantic=8&num_scrambled_causal=4&num_scrambled_schematic=4&participantId=B1A83D80254E4A3CB81D98E6917A3C6B&assignmentId=0666b6b8-546e-44ca-874e-67a1852ac792&projectId=9076ac92-be42-43a2-9634-8b67c7fe93a7","B1A83D80254E4A3CB81D98E6917A3C6B-2025-05-22-19-12-07","","1008","","images/schematic_sequence/restaurant_scheme/restaurant_scheme_1.png","0","",""
"","","","","","image-button-response","59","425692","0.0-12.0-1.0-2.0","B1A83D80254E4A3CB81D98E6917A3C6B","B1A83D80254E4A3CB81D98E6917A3C6B","0666b6b8-546e-44ca-874e-67a1852ac792","9076ac92-be42-43a2-9634-8b67c7fe93a7","{""num_scrambled_semantic"":""8"",""num_scrambled_causal"":""4"",""num_scrambled_schematic"":""4"",""participantId"":""B1A83D80254E4A3CB81D98E6917A3C6B"",""assignmentId"":""0666b6b8-546e-44ca-874e-67a1852ac792"",""projectId"":""9076ac92-be42-43a2-9634-8b67c7fe93a7""}","https://test12345.live/?num_scrambled_semantic=8&num_scrambled_causal=4&num_scrambled_schematic=4&participantId=B1A83D80254E4A3CB81D98E6917A3C6B&assignmentId=0666b6b8-546e-44ca-874e-67a1852ac792&projectId=9076ac92-be42-43a2-9634-8b67c7fe93a7","B1A83D80254E4A3CB81D98E6917A3C6B-2025-05-22-19-12-07","","null","","[]","null","",""
"","","","","","image-button-response","60","430205","0.0-12.0-1.0-0.1","B1A83D80254E4A3CB81D98E6917A3C6B","B1A83D80254E4A3CB81D98E6917A3C6B","0666b6b8-546e-44ca-874e-67a1852ac792","9076ac92-be42-43a2-9634-8b67c7fe93a7","{""num_scrambled_semantic"":""8"",""num_scrambled_causal"":""4"",""num_scrambled_schematic"":""4"",""participantId"":""B1A83D80254E4A3CB81D98E6917A3C6B"",""assignmentId"":""0666b6b8-546e-44ca-874e-67a1852ac792"",""projectId"":""9076ac92-be42-43a2-9634-8b67c7fe93a7""}","https://test12345.live/?num_scrambled_semantic=8&num_scrambled_causal=4&num_scrambled_schematic=4&participantId=B1A83D80254E4A3CB81D98E6917A3C6B&assignmentId=0666b6b8-546e-44ca-874e-67a1852ac792&projectId=9076ac92-be42-43a2-9634-8b67c7fe93a7","B1A83D80254E4A3CB81D98E6917A3C6B-2025-05-22-19-12-07","","null","","images/schematic_sequence/restaurant_scheme/restaurant_scheme_2.png","null","",""
"","","","","","image-button-response","61","431476","0.0-12.0-1.0-1.1","B1A83D80254E4A3CB81D98E6917A3C6B","B1A83D80254E4A3CB81D98E6917A3C6B","0666b6b8-546e-44ca-874e-67a1852ac792","9076ac92-be42-43a2-9634-8b67c7fe93a7","{""num_scrambled_semantic"":""8"",""num_scrambled_causal"":""4"",""num_scrambled_schematic"":""4"",""participantId"":""B1A83D80254E4A3CB81D98E6917A3C6B"",""assignmentId"":""0666b6b8-546e-44ca-874e-67a1852ac792"",""projectId"":""9076ac92-be42-43a2-9634-8b67c7fe93a7""}","https://test12345.live/?num_scrambled_semantic=8&num_scrambled_causal=4&num_scrambled_schematic=4&participantId=B1A83D80254E4A3CB81D98E6917A3C6B&assignmentId=0666b6b8-546e-44ca-874e-67a1852ac792&projectId=9076ac92-be42-43a2-9634-8b67c7fe93a7","B1A83D80254E4A3CB81D98E6917A3C6B-2025-05-22-19-12-07","","1267","","images/schematic_sequence/restaurant_scheme/restaurant_scheme_2.png","1","",""
"","","","","","image-button-response","62","433280","0.0-12.0-1.0-2.1","B1A83D80254E4A3CB81D98E6917A3C6B","B1A83D80254E4A3CB81D98E6917A3C6B","0666b6b8-546e-44ca-874e-67a1852ac792","9076ac92-be42-43a2-9634-8b67c7fe93a7","{""num_scrambled_semantic"":""8"",""num_scrambled_causal"":""4"",""num_scrambled_schematic"":""4"",""participantId"":""B1A83D80254E4A3CB81D98E6917A3C6B"",""assignmentId"":""0666b6b8-546e-44ca-874e-67a1852ac792"",""projectId"":""9076ac92-be42-43a2-9634-8b67c7fe93a7""}","https://test12345.live/?num_scrambled_semantic=8&num_scrambled_causal=4&num_scrambled_schematic=4&participantId=B1A83D80254E4A3CB81D98E6917A3C6B&assignmentId=0666b6b8-546e-44ca-874e-67a1852ac792&projectId=9076ac92-be42-43a2-9634-8b67c7fe93a7","B1A83D80254E4A3CB81D98E6917A3C6B-2025-05-22-19-12-07","","null","","[]","null","",""
"","","","","","image-button-response","63","437787","0.0-12.0-1.0-0.2","B1A83D80254E4A3CB81D98E6917A3C6B","B1A83D80254E4A3CB81D98E6917A3C6B","0666b6b8-546e-44ca-874e-67a1852ac792","9076ac92-be42-43a2-9634-8b67c7fe93a7","{""num_scrambled_semantic"":""8"",""num_scrambled_causal"":""4"",""num_scrambled_schematic"":""4"",""participantId"":""B1A83D80254E4A3CB81D98E6917A3C6B"",""assignmentId"":""0666b6b8-546e-44ca-874e-67a1852ac792"",""projectId"":""9076ac92-be42-43a2-9634-8b67c7fe93a7""}","https://test12345.live/?num_scrambled_semantic=8&num_scrambled_causal=4&num_scrambled_schematic=4&participantId=B1A83D80254E4A3CB81D98E6917A3C6B&assignmentId=0666b6b8-546e-44ca-874e-67a1852ac792&projectId=9076ac92-be42-43a2-9634-8b67c7fe93a7","B1A83D80254E4A3CB81D98E6917A3C6B-2025-05-22-19-12-07","","null","","images/schematic_sequence/restaurant_scheme/restaurant_scheme_3.png","null","",""
"","","","","","image-button-response","64","438481","0.0-12.0-1.0-1.2","B1A83D80254E4A3CB81D98E6917A3C6B","B1A83D80254E4A3CB81D98E6917A3C6B","0666b6b8-546e-44ca-874e-67a1852ac792","9076ac92-be42-43a2-9634-8b67c7fe93a7","{""num_scrambled_semantic"":""8"",""num_scrambled_causal"":""4"",""num_scrambled_schematic"":""4"",""participantId"":""B1A83D80254E4A3CB81D98E6917A3C6B"",""assignmentId"":""0666b6b8-546e-44ca-874e-67a1852ac792"",""projectId"":""9076ac92-be42-43a2-9634-8b67c7fe93a7""}","https://test12345.live/?num_scrambled_semantic=8&num_scrambled_causal=4&num_scrambled_schematic=4&participantId=B1A83D80254E4A3CB81D98E6917A3C6B&assignmentId=0666b6b8-546e-44ca-874e-67a1852ac792&projectId=9076ac92-be42-43a2-9634-8b67c7fe93a7","B1A83D80254E4A3CB81D98E6917A3C6B-2025-05-22-19-12-07","","690","","images/schematic_sequence/restaurant_scheme/restaurant_scheme_3.png","1","",""
"","","","","","image-button-response","65","440290","0.0-12.0-1.0-2.2","B1A83D80254E4A3CB81D98E6917A3C6B","B1A83D80254E4A3CB81D98E6917A3C6B","0666b6b8-546e-44ca-874e-67a1852ac792","9076ac92-be42-43a2-9634-8b67c7fe93a7","{""num_scrambled_semantic"":""8"",""num_scrambled_causal"":""4"",""num_scrambled_schematic"":""4"",""participantId"":""B1A83D80254E4A3CB81D98E6917A3C6B"",""assignmentId"":""0666b6b8-546e-44ca-874e-67a1852ac792"",""projectId"":""9076ac92-be42-43a2-9634-8b67c7fe93a7""}","https://test12345.live/?num_scrambled_semantic=8&num_scrambled_causal=4&num_scrambled_schematic=4&participantId=B1A83D80254E4A3CB81D98E6917A3C6B&assignmentId=0666b6b8-546e-44ca-874e-67a1852ac792&projectId=9076ac92-be42-43a2-9634-8b67c7fe93a7","B1A83D80254E4A3CB81D98E6917A3C6B-2025-05-22-19-12-07","","null","","[]","null","",""
"","","","","","image-button-response","66","444807","0.0-12.0-1.0-0.3","B1A83D80254E4A3CB81D98E6917A3C6B","B1A83D80254E4A3CB81D98E6917A3C6B","0666b6b8-546e-44ca-874e-67a1852ac792","9076ac92-be42-43a2-9634-8b67c7fe93a7","{""num_scrambled_semantic"":""8"",""num_scrambled_causal"":""4"",""num_scrambled_schematic"":""4"",""participantId"":""B1A83D80254E4A3CB81D98E6917A3C6B"",""assignmentId"":""0666b6b8-546e-44ca-874e-67a1852ac792"",""projectId"":""9076ac92-be42-43a2-9634-8b67c7fe93a7""}","https://test12345.live/?num_scrambled_semantic=8&num_scrambled_causal=4&num_scrambled_schematic=4&participantId=B1A83D80254E4A3CB81D98E6917A3C6B&assignmentId=0666b6b8-546e-44ca-874e-67a1852ac792&projectId=9076ac92-be42-43a2-9634-8b67c7fe93a7","B1A83D80254E4A3CB81D98E6917A3C6B-2025-05-22-19-12-07","","null","","images/schematic_sequence/restaurant_scheme/restaurant_scheme_4.png","null","",""
"","","","","","image-button-response","67","446283","0.0-12.0-1.0-1.3","B1A83D80254E4A3CB81D98E6917A3C6B","B1A83D80254E4A3CB81D98E6917A3C6B","0666b6b8-546e-44ca-874e-67a1852ac792","9076ac92-be42-43a2-9634-8b67c7fe93a7","{""num_scrambled_semantic"":""8"",""num_scrambled_causal"":""4"",""num_scrambled_schematic"":""4"",""participantId"":""B1A83D80254E4A3CB81D98E6917A3C6B"",""assignmentId"":""0666b6b8-546e-44ca-874e-67a1852ac792"",""projectId"":""9076ac92-be42-43a2-9634-8b67c7fe93a7""}","https://test12345.live/?num_scrambled_semantic=8&num_scrambled_causal=4&num_scrambled_schematic=4&participantId=B1A83D80254E4A3CB81D98E6917A3C6B&assignmentId=0666b6b8-546e-44ca-874e-67a1852ac792&projectId=9076ac92-be42-43a2-9634-8b67c7fe93a7","B1A83D80254E4A3CB81D98E6917A3C6B-2025-05-22-19-12-07","","1472","","images/schematic_sequence/restaurant_scheme/restaurant_scheme_4.png","0","",""
"","","","","","image-button-response","68","448101","0.0-12.0-1.0-2.3","B1A83D80254E4A3CB81D98E6917A3C6B","B1A83D80254E4A3CB81D98E6917A3C6B","0666b6b8-546e-44ca-874e-67a1852ac792","9076ac92-be42-43a2-9634-8b67c7fe93a7","{""num_scrambled_semantic"":""8"",""num_scrambled_causal"":""4"",""num_scrambled_schematic"":""4"",""participantId"":""B1A83D80254E4A3CB81D98E6917A3C6B"",""assignmentId"":""0666b6b8-546e-44ca-874e-67a1852ac792"",""projectId"":""9076ac92-be42-43a2-9634-8b67c7fe93a7""}","https://test12345.live/?num_scrambled_semantic=8&num_scrambled_causal=4&num_scrambled_schematic=4&participantId=B1A83D80254E4A3CB81D98E6917A3C6B&assignmentId=0666b6b8-546e-44ca-874e-67a1852ac792&projectId=9076ac92-be42-43a2-9634-8b67c7fe93a7","B1A83D80254E4A3CB81D98E6917A3C6B-2025-05-22-19-12-07","","null","","[]","null","",""
"","","","","","image-button-response","69","452608","0.0-12.0-1.0-0.4","B1A83D80254E4A3CB81D98E6917A3C6B","B1A83D80254E4A3CB81D98E6917A3C6B","0666b6b8-546e-44ca-874e-67a1852ac792","9076ac92-be42-43a2-9634-8b67c7fe93a7","{""num_scrambled_semantic"":""8"",""num_scrambled_causal"":""4"",""num_scrambled_schematic"":""4"",""participantId"":""B1A83D80254E4A3CB81D98E6917A3C6B"",""assignmentId"":""0666b6b8-546e-44ca-874e-67a1852ac792"",""projectId"":""9076ac92-be42-43a2-9634-8b67c7fe93a7""}","https://test12345.live/?num_scrambled_semantic=8&num_scrambled_causal=4&num_scrambled_schematic=4&participantId=B1A83D80254E4A3CB81D98E6917A3C6B&assignmentId=0666b6b8-546e-44ca-874e-67a1852ac792&projectId=9076ac92-be42-43a2-9634-8b67c7fe93a7","B1A83D80254E4A3CB81D98E6917A3C6B-2025-05-22-19-12-07","","null","","images/schematic_sequence/restaurant_scheme/restaurant_scheme_5.png","null","",""
"","","","","","image-button-response","70","453647","0.0-12.0-1.0-1.4","B1A83D80254E4A3CB81D98E6917A3C6B","B1A83D80254E4A3CB81D98E6917A3C6B","0666b6b8-546e-44ca-874e-67a1852ac792","9076ac92-be42-43a2-9634-8b67c7fe93a7","{""num_scrambled_semantic"":""8"",""num_scrambled_causal"":""4"",""num_scrambled_schematic"":""4"",""participantId"":""B1A83D80254E4A3CB81D98E6917A3C6B"",""assignmentId"":""0666b6b8-546e-44ca-874e-67a1852ac792"",""projectId"":""9076ac92-be42-43a2-9634-8b67c7fe93a7""}","https://test12345.live/?num_scrambled_semantic=8&num_scrambled_causal=4&num_scrambled_schematic=4&participantId=B1A83D80254E4A3CB81D98E6917A3C6B&assignmentId=0666b6b8-546e-44ca-874e-67a1852ac792&projectId=9076ac92-be42-43a2-9634-8b67c7fe93a7","B1A83D80254E4A3CB81D98E6917A3C6B-2025-05-22-19-12-07","","1036","","images/schematic_sequence/restaurant_scheme/restaurant_scheme_5.png","0","",""
"","","","","","image-button-response","71","455465","0.0-12.0-1.0-2.4","B1A83D80254E4A3CB81D98E6917A3C6B","B1A83D80254E4A3CB81D98E6917A3C6B","0666b6b8-546e-44ca-874e-67a1852ac792","9076ac92-be42-43a2-9634-8b67c7fe93a7","{""num_scrambled_semantic"":""8"",""num_scrambled_causal"":""4"",""num_scrambled_schematic"":""4"",""participantId"":""B1A83D80254E4A3CB81D98E6917A3C6B"",""assignmentId"":""0666b6b8-546e-44ca-874e-67a1852ac792"",""projectId"":""9076ac92-be42-43a2-9634-8b67c7fe93a7""}","https://test12345.live/?num_scrambled_semantic=8&num_scrambled_causal=4&num_scrambled_schematic=4&participantId=B1A83D80254E4A3CB81D98E6917A3C6B&assignmentId=0666b6b8-546e-44ca-874e-67a1852ac792&projectId=9076ac92-be42-43a2-9634-8b67c7fe93a7","B1A83D80254E4A3CB81D98E6917A3C6B-2025-05-22-19-12-07","","null","","[]","null","",""
"","","","","","image-button-response","72","459972","0.0-12.0-1.0-0.5","B1A83D80254E4A3CB81D98E6917A3C6B","B1A83D80254E4A3CB81D98E6917A3C6B","0666b6b8-546e-44ca-874e-67a1852ac792","9076ac92-be42-43a2-9634-8b67c7fe93a7","{""num_scrambled_semantic"":""8"",""num_scrambled_causal"":""4"",""num_scrambled_schematic"":""4"",""participantId"":""B1A83D80254E4A3CB81D98E6917A3C6B"",""assignmentId"":""0666b6b8-546e-44ca-874e-67a1852ac792"",""projectId"":""9076ac92-be42-43a2-9634-8b67c7fe93a7""}","https://test12345.live/?num_scrambled_semantic=8&num_scrambled_causal=4&num_scrambled_schematic=4&participantId=B1A83D80254E4A3CB81D98E6917A3C6B&assignmentId=0666b6b8-546e-44ca-874e-67a1852ac792&projectId=9076ac92-be42-43a2-9634-8b67c7fe93a7","B1A83D80254E4A3CB81D98E6917A3C6B-2025-05-22-19-12-07","","null","","images/schematic_sequence/restaurant_scheme/restaurant_scheme_6.png","null","",""
"","","","","","image-button-response","73","463194","0.0-12.0-1.0-1.5","B1A83D80254E4A3CB81D98E6917A3C6B","B1A83D80254E4A3CB81D98E6917A3C6B","0666b6b8-546e-44ca-874e-67a1852ac792","9076ac92-be42-43a2-9634-8b67c7fe93a7","{""num_scrambled_semantic"":""8"",""num_scrambled_causal"":""4"",""num_scrambled_schematic"":""4"",""participantId"":""B1A83D80254E4A3CB81D98E6917A3C6B"",""assignmentId"":""0666b6b8-546e-44ca-874e-67a1852ac792"",""projectId"":""9076ac92-be42-43a2-9634-8b67c7fe93a7""}","https://test12345.live/?num_scrambled_semantic=8&num_scrambled_causal=4&num_scrambled_schematic=4&participantId=B1A83D80254E4A3CB81D98E6917A3C6B&assignmentId=0666b6b8-546e-44ca-874e-67a1852ac792&projectId=9076ac92-be42-43a2-9634-8b67c7fe93a7","B1A83D80254E4A3CB81D98E6917A3C6B-2025-05-22-19-12-07","","3219","","images/schematic_sequence/restaurant_scheme/restaurant_scheme_6.png","1","",""
"","","","","","image-button-response","74","465006","0.0-12.0-1.0-2.5","B1A83D80254E4A3CB81D98E6917A3C6B","B1A83D80254E4A3CB81D98E6917A3C6B","0666b6b8-546e-44ca-874e-67a1852ac792","9076ac92-be42-43a2-9634-8b67c7fe93a7","{""num_scrambled_semantic"":""8"",""num_scrambled_causal"":""4"",""num_scrambled_schematic"":""4"",""participantId"":""B1A83D80254E4A3CB81D98E6917A3C6B"",""assignmentId"":""0666b6b8-546e-44ca-874e-67a1852ac792"",""projectId"":""9076ac92-be42-43a2-9634-8b67c7fe93a7""}","https://test12345.live/?num_scrambled_semantic=8&num_scrambled_causal=4&num_scrambled_schematic=4&participantId=B1A83D80254E4A3CB81D98E6917A3C6B&assignmentId=0666b6b8-546e-44ca-874e-67a1852ac792&projectId=9076ac92-be42-43a2-9634-8b67c7fe93a7","B1A83D80254E4A3CB81D98E6917A3C6B-2025-05-22-19-12-07","","null","","[]","null","",""
"","","","","","image-button-response","75","469524","0.0-12.0-1.0-0.6","B1A83D80254E4A3CB81D98E6917A3C6B","B1A83D80254E4A3CB81D98E6917A3C6B","0666b6b8-546e-44ca-874e-67a1852ac792","9076ac92-be42-43a2-9634-8b67c7fe93a7","{""num_scrambled_semantic"":""8"",""num_scrambled_causal"":""4"",""num_scrambled_schematic"":""4"",""participantId"":""B1A83D80254E4A3CB81D98E6917A3C6B"",""assignmentId"":""0666b6b8-546e-44ca-874e-67a1852ac792"",""projectId"":""9076ac92-be42-43a2-9634-8b67c7fe93a7""}","https://test12345.live/?num_scrambled_semantic=8&num_scrambled_causal=4&num_scrambled_schematic=4&participantId=B1A83D80254E4A3CB81D98E6917A3C6B&assignmentId=0666b6b8-546e-44ca-874e-67a1852ac792&projectId=9076ac92-be42-43a2-9634-8b67c7fe93a7","B1A83D80254E4A3CB81D98E6917A3C6B-2025-05-22-19-12-07","","null","","images/schematic_sequence/restaurant_scheme/restaurant_scheme_7.png","null","",""
"","","","","","image-button-response","76","470773","0.0-12.0-1.0-1.6","B1A83D80254E4A3CB81D98E6917A3C6B","B1A83D80254E4A3CB81D98E6917A3C6B","0666b6b8-546e-44ca-874e-67a1852ac792","9076ac92-be42-43a2-9634-8b67c7fe93a7","{""num_scrambled_semantic"":""8"",""num_scrambled_causal"":""4"",""num_scrambled_schematic"":""4"",""participantId"":""B1A83D80254E4A3CB81D98E6917A3C6B"",""assignmentId"":""0666b6b8-546e-44ca-874e-67a1852ac792"",""projectId"":""9076ac92-be42-43a2-9634-8b67c7fe93a7""}","https://test12345.live/?num_scrambled_semantic=8&num_scrambled_causal=4&num_scrambled_schematic=4&participantId=B1A83D80254E4A3CB81D98E6917A3C6B&assignmentId=0666b6b8-546e-44ca-874e-67a1852ac792&projectId=9076ac92-be42-43a2-9634-8b67c7fe93a7","B1A83D80254E4A3CB81D98E6917A3C6B-2025-05-22-19-12-07","","1246","","images/schematic_sequence/restaurant_scheme/restaurant_scheme_7.png","1","",""
"","","","","","image-button-response","77","472584","0.0-12.0-1.0-2.6","B1A83D80254E4A3CB81D98E6917A3C6B","B1A83D80254E4A3CB81D98E6917A3C6B","0666b6b8-546e-44ca-874e-67a1852ac792","9076ac92-be42-43a2-9634-8b67c7fe93a7","{""num_scrambled_semantic"":""8"",""num_scrambled_causal"":""4"",""num_scrambled_schematic"":""4"",""participantId"":""B1A83D80254E4A3CB81D98E6917A3C6B"",""assignmentId"":""0666b6b8-546e-44ca-874e-67a1852ac792"",""projectId"":""9076ac92-be42-43a2-9634-8b67c7fe93a7""}","https://test12345.live/?num_scrambled_semantic=8&num_scrambled_causal=4&num_scrambled_schematic=4&participantId=B1A83D80254E4A3CB81D98E6917A3C6B&assignmentId=0666b6b8-546e-44ca-874e-67a1852ac792&projectId=9076ac92-be42-43a2-9634-8b67c7fe93a7","B1A83D80254E4A3CB81D98E6917A3C6B-2025-05-22-19-12-07","","null","","[]","null","",""
"","","","","","image-button-response","78","477089","0.0-12.0-1.0-0.7","B1A83D80254E4A3CB81D98E6917A3C6B","B1A83D80254E4A3CB81D98E6917A3C6B","0666b6b8-546e-44ca-874e-67a1852ac792","9076ac92-be42-43a2-9634-8b67c7fe93a7","{""num_scrambled_semantic"":""8"",""num_scrambled_causal"":""4"",""num_scrambled_schematic"":""4"",""participantId"":""B1A83D80254E4A3CB81D98E6917A3C6B"",""assignmentId"":""0666b6b8-546e-44ca-874e-67a1852ac792"",""projectId"":""9076ac92-be42-43a2-9634-8b67c7fe93a7""}","https://test12345.live/?num_scrambled_semantic=8&num_scrambled_causal=4&num_scrambled_schematic=4&participantId=B1A83D80254E4A3CB81D98E6917A3C6B&assignmentId=0666b6b8-546e-44ca-874e-67a1852ac792&projectId=9076ac92-be42-43a2-9634-8b67c7fe93a7","B1A83D80254E4A3CB81D98E6917A3C6B-2025-05-22-19-12-07","","null","","images/schematic_sequence/restaurant_scheme/restaurant_scheme_8.png","null","",""
"","","","","","image-button-response","79","479042","0.0-12.0-1.0-1.7","B1A83D80254E4A3CB81D98E6917A3C6B","B1A83D80254E4A3CB81D98E6917A3C6B","0666b6b8-546e-44ca-874e-67a1852ac792","9076ac92-be42-43a2-9634-8b67c7fe93a7","{""num_scrambled_semantic"":""8"",""num_scrambled_causal"":""4"",""num_scrambled_schematic"":""4"",""participantId"":""B1A83D80254E4A3CB81D98E6917A3C6B"",""assignmentId"":""0666b6b8-546e-44ca-874e-67a1852ac792"",""projectId"":""9076ac92-be42-43a2-9634-8b67c7fe93a7""}","https://test12345.live/?num_scrambled_semantic=8&num_scrambled_causal=4&num_scrambled_schematic=4&participantId=B1A83D80254E4A3CB81D98E6917A3C6B&assignmentId=0666b6b8-546e-44ca-874e-67a1852ac792&projectId=9076ac92-be42-43a2-9634-8b67c7fe93a7","B1A83D80254E4A3CB81D98E6917A3C6B-2025-05-22-19-12-07","","1949","","images/schematic_sequence/restaurant_scheme/restaurant_scheme_8.png","1","",""
"","","","","","image-button-response","80","480860","0.0-12.0-1.0-2.7","B1A83D80254E4A3CB81D98E6917A3C6B","B1A83D80254E4A3CB81D98E6917A3C6B","0666b6b8-546e-44ca-874e-67a1852ac792","9076ac92-be42-43a2-9634-8b67c7fe93a7","{""num_scrambled_semantic"":""8"",""num_scrambled_causal"":""4"",""num_scrambled_schematic"":""4"",""participantId"":""B1A83D80254E4A3CB81D98E6917A3C6B"",""assignmentId"":""0666b6b8-546e-44ca-874e-67a1852ac792"",""projectId"":""9076ac92-be42-43a2-9634-8b67c7fe93a7""}","https://test12345.live/?num_scrambled_semantic=8&num_scrambled_causal=4&num_scrambled_schematic=4&participantId=B1A83D80254E4A3CB81D98E6917A3C6B&assignmentId=0666b6b8-546e-44ca-874e-67a1852ac792&projectId=9076ac92-be42-43a2-9634-8b67c7fe93a7","B1A83D80254E4A3CB81D98E6917A3C6B-2025-05-22-19-12-07","","null","","[]","null","",""
"","","","","","image-button-response","81","485374","0.0-12.0-1.0-0.8","B1A83D80254E4A3CB81D98E6917A3C6B","B1A83D80254E4A3CB81D98E6917A3C6B","0666b6b8-546e-44ca-874e-67a1852ac792","9076ac92-be42-43a2-9634-8b67c7fe93a7","{""num_scrambled_semantic"":""8"",""num_scrambled_causal"":""4"",""num_scrambled_schematic"":""4"",""participantId"":""B1A83D80254E4A3CB81D98E6917A3C6B"",""assignmentId"":""0666b6b8-546e-44ca-874e-67a1852ac792"",""projectId"":""9076ac92-be42-43a2-9634-8b67c7fe93a7""}","https://test12345.live/?num_scrambled_semantic=8&num_scrambled_causal=4&num_scrambled_schematic=4&participantId=B1A83D80254E4A3CB81D98E6917A3C6B&assignmentId=0666b6b8-546e-44ca-874e-67a1852ac792&projectId=9076ac92-be42-43a2-9634-8b67c7fe93a7","B1A83D80254E4A3CB81D98E6917A3C6B-2025-05-22-19-12-07","","null","","images/schematic_sequence/restaurant_scheme/restaurant_scheme_9.png","null","",""
"","","","","","image-button-response","82","487907","0.0-12.0-1.0-1.8","B1A83D80254E4A3CB81D98E6917A3C6B","B1A83D80254E4A3CB81D98E6917A3C6B","0666b6b8-546e-44ca-874e-67a1852ac792","9076ac92-be42-43a2-9634-8b67c7fe93a7","{""num_scrambled_semantic"":""8"",""num_scrambled_causal"":""4"",""num_scrambled_schematic"":""4"",""participantId"":""B1A83D80254E4A3CB81D98E6917A3C6B"",""assignmentId"":""0666b6b8-546e-44ca-874e-67a1852ac792"",""projectId"":""9076ac92-be42-43a2-9634-8b67c7fe93a7""}","https://test12345.live/?num_scrambled_semantic=8&num_scrambled_causal=4&num_scrambled_schematic=4&participantId=B1A83D80254E4A3CB81D98E6917A3C6B&assignmentId=0666b6b8-546e-44ca-874e-67a1852ac792&projectId=9076ac92-be42-43a2-9634-8b67c7fe93a7","B1A83D80254E4A3CB81D98E6917A3C6B-2025-05-22-19-12-07","","2529","","images/schematic_sequence/restaurant_scheme/restaurant_scheme_9.png","0","",""
"","","","","","image-button-response","83","489711","0.0-12.0-1.0-2.8","B1A83D80254E4A3CB81D98E6917A3C6B","B1A83D80254E4A3CB81D98E6917A3C6B","0666b6b8-546e-44ca-874e-67a1852ac792","9076ac92-be42-43a2-9634-8b67c7fe93a7","{""num_scrambled_semantic"":""8"",""num_scrambled_causal"":""4"",""num_scrambled_schematic"":""4"",""participantId"":""B1A83D80254E4A3CB81D98E6917A3C6B"",""assignmentId"":""0666b6b8-546e-44ca-874e-67a1852ac792"",""projectId"":""9076ac92-be42-43a2-9634-8b67c7fe93a7""}","https://test12345.live/?num_scrambled_semantic=8&num_scrambled_causal=4&num_scrambled_schematic=4&participantId=B1A83D80254E4A3CB81D98E6917A3C6B&assignmentId=0666b6b8-546e-44ca-874e-67a1852ac792&projectId=9076ac92-be42-43a2-9634-8b67c7fe93a7","B1A83D80254E4A3CB81D98E6917A3C6B-2025-05-22-19-12-07","","null","","[]","null","",""
"","","","","","image-button-response","84","494221","0.0-12.0-1.0-0.9","B1A83D80254E4A3CB81D98E6917A3C6B","B1A83D80254E4A3CB81D98E6917A3C6B","0666b6b8-546e-44ca-874e-67a1852ac792","9076ac92-be42-43a2-9634-8b67c7fe93a7","{""num_scrambled_semantic"":""8"",""num_scrambled_causal"":""4"",""num_scrambled_schematic"":""4"",""participantId"":""B1A83D80254E4A3CB81D98E6917A3C6B"",""assignmentId"":""0666b6b8-546e-44ca-874e-67a1852ac792"",""projectId"":""9076ac92-be42-43a2-9634-8b67c7fe93a7""}","https://test12345.live/?num_scrambled_semantic=8&num_scrambled_causal=4&num_scrambled_schematic=4&participantId=B1A83D80254E4A3CB81D98E6917A3C6B&assignmentId=0666b6b8-546e-44ca-874e-67a1852ac792&projectId=9076ac92-be42-43a2-9634-8b67c7fe93a7","B1A83D80254E4A3CB81D98E6917A3C6B-2025-05-22-19-12-07","","null","","images/schematic_sequence/restaurant_scheme/restaurant_scheme_ten.png","null","",""
"","","","","","image-button-response","85","496582","0.0-12.0-1.0-1.9","B1A83D80254E4A3CB81D98E6917A3C6B","B1A83D80254E4A3CB81D98E6917A3C6B","0666b6b8-546e-44ca-874e-67a1852ac792","9076ac92-be42-43a2-9634-8b67c7fe93a7","{""num_scrambled_semantic"":""8"",""num_scrambled_causal"":""4"",""num_scrambled_schematic"":""4"",""participantId"":""B1A83D80254E4A3CB81D98E6917A3C6B"",""assignmentId"":""0666b6b8-546e-44ca-874e-67a1852ac792"",""projectId"":""9076ac92-be42-43a2-9634-8b67c7fe93a7""}","https://test12345.live/?num_scrambled_semantic=8&num_scrambled_causal=4&num_scrambled_schematic=4&participantId=B1A83D80254E4A3CB81D98E6917A3C6B&assignmentId=0666b6b8-546e-44ca-874e-67a1852ac792&projectId=9076ac92-be42-43a2-9634-8b67c7fe93a7","B1A83D80254E4A3CB81D98E6917A3C6B-2025-05-22-19-12-07","","2357","","images/schematic_sequence/restaurant_scheme/restaurant_scheme_ten.png","0","",""
"","","","","","image-button-response","86","498390","0.0-12.0-1.0-2.9","B1A83D80254E4A3CB81D98E6917A3C6B","B1A83D80254E4A3CB81D98E6917A3C6B","0666b6b8-546e-44ca-874e-67a1852ac792","9076ac92-be42-43a2-9634-8b67c7fe93a7","{""num_scrambled_semantic"":""8"",""num_scrambled_causal"":""4"",""num_scrambled_schematic"":""4"",""participantId"":""B1A83D80254E4A3CB81D98E6917A3C6B"",""assignmentId"":""0666b6b8-546e-44ca-874e-67a1852ac792"",""projectId"":""9076ac92-be42-43a2-9634-8b67c7fe93a7""}","https://test12345.live/?num_scrambled_semantic=8&num_scrambled_causal=4&num_scrambled_schematic=4&participantId=B1A83D80254E4A3CB81D98E6917A3C6B&assignmentId=0666b6b8-546e-44ca-874e-67a1852ac792&projectId=9076ac92-be42-43a2-9634-8b67c7fe93a7","B1A83D80254E4A3CB81D98E6917A3C6B-2025-05-22-19-12-07","","null","","[]","null","",""
"","","","","","html-audio-response","87","530838","0.0-13.0","B1A83D80254E4A3CB81D98E6917A3C6B","B1A83D80254E4A3CB81D98E6917A3C6B","0666b6b8-546e-44ca-874e-67a1852ac792","9076ac92-be42-43a2-9634-8b67c7fe93a7","{""num_scrambled_semantic"":""8"",""num_scrambled_causal"":""4"",""num_scrambled_schematic"":""4"",""participantId"":""B1A83D80254E4A3CB81D98E6917A3C6B"",""assignmentId"":""0666b6b8-546e-44ca-874e-67a1852ac792"",""projectId"":""9076ac92-be42-43a2-9634-8b67c7fe93a7""}","https://test12345.live/?num_scrambled_semantic=8&num_scrambled_causal=4&num_scrambled_schematic=4&participantId=B1A83D80254E4A3CB81D98E6917A3C6B&assignmentId=0666b6b8-546e-44ca-874e-67a1852ac792&projectId=9076ac92-be42-43a2-9634-8b67c7fe93a7","B1A83D80254E4A3CB81D98E6917A3C6B-2025-05-22-19-12-07","","15840","","[""<span style=\""color: red; font-size: 24px\""> NOW RECORDING</span><p>Please say out loud all the images you saw, in the exact order you saw them. Try to recall as many images as you can, but remember: getting the order right is more important than the number of images you recall.</p>""]","","8","restaurant_scheme"
"","","","","","image-button-response","88","536865","0.0-14.0-0.0","B1A83D80254E4A3CB81D98E6917A3C6B","B1A83D80254E4A3CB81D98E6917A3C6B","0666b6b8-546e-44ca-874e-67a1852ac792","9076ac92-be42-43a2-9634-8b67c7fe93a7","{""num_scrambled_semantic"":""8"",""num_scrambled_causal"":""4"",""num_scrambled_schematic"":""4"",""participantId"":""B1A83D80254E4A3CB81D98E6917A3C6B"",""assignmentId"":""0666b6b8-546e-44ca-874e-67a1852ac792"",""projectId"":""9076ac92-be42-43a2-9634-8b67c7fe93a7""}","https://test12345.live/?num_scrambled_semantic=8&num_scrambled_causal=4&num_scrambled_schematic=4&participantId=B1A83D80254E4A3CB81D98E6917A3C6B&assignmentId=0666b6b8-546e-44ca-874e-67a1852ac792&projectId=9076ac92-be42-43a2-9634-8b67c7fe93a7","B1A83D80254E4A3CB81D98E6917A3C6B-2025-05-22-19-12-07","","null","","images/semantic_sequence/creative_activities_semantic/creative_activities_semantic_0.png","null","",""
"","","","","","image-button-response","89","541378","0.0-14.0-1.0-0.0","B1A83D80254E4A3CB81D98E6917A3C6B","B1A83D80254E4A3CB81D98E6917A3C6B","0666b6b8-546e-44ca-874e-67a1852ac792","9076ac92-be42-43a2-9634-8b67c7fe93a7","{""num_scrambled_semantic"":""8"",""num_scrambled_causal"":""4"",""num_scrambled_schematic"":""4"",""participantId"":""B1A83D80254E4A3CB81D98E6917A3C6B"",""assignmentId"":""0666b6b8-546e-44ca-874e-67a1852ac792"",""projectId"":""9076ac92-be42-43a2-9634-8b67c7fe93a7""}","https://test12345.live/?num_scrambled_semantic=8&num_scrambled_causal=4&num_scrambled_schematic=4&participantId=B1A83D80254E4A3CB81D98E6917A3C6B&assignmentId=0666b6b8-546e-44ca-874e-67a1852ac792&projectId=9076ac92-be42-43a2-9634-8b67c7fe93a7","B1A83D80254E4A3CB81D98E6917A3C6B-2025-05-22-19-12-07","","null","","images/semantic_sequence/creative_activities_semantic/creative_activities_semantic_3.png","null","",""
"","","","","","image-button-response","90","544848","0.0-14.0-1.0-1.0","B1A83D80254E4A3CB81D98E6917A3C6B","B1A83D80254E4A3CB81D98E6917A3C6B","0666b6b8-546e-44ca-874e-67a1852ac792","9076ac92-be42-43a2-9634-8b67c7fe93a7","{""num_scrambled_semantic"":""8"",""num_scrambled_causal"":""4"",""num_scrambled_schematic"":""4"",""participantId"":""B1A83D80254E4A3CB81D98E6917A3C6B"",""assignmentId"":""0666b6b8-546e-44ca-874e-67a1852ac792"",""projectId"":""9076ac92-be42-43a2-9634-8b67c7fe93a7""}","https://test12345.live/?num_scrambled_semantic=8&num_scrambled_causal=4&num_scrambled_schematic=4&participantId=B1A83D80254E4A3CB81D98E6917A3C6B&assignmentId=0666b6b8-546e-44ca-874e-67a1852ac792&projectId=9076ac92-be42-43a2-9634-8b67c7fe93a7","B1A83D80254E4A3CB81D98E6917A3C6B-2025-05-22-19-12-07","","3467","","images/semantic_sequence/creative_activities_semantic/creative_activities_semantic_3.png","0","",""
"","","","","","image-button-response","91","546662","0.0-14.0-1.0-2.0","B1A83D80254E4A3CB81D98E6917A3C6B","B1A83D80254E4A3CB81D98E6917A3C6B","0666b6b8-546e-44ca-874e-67a1852ac792","9076ac92-be42-43a2-9634-8b67c7fe93a7","{""num_scrambled_semantic"":""8"",""num_scrambled_causal"":""4"",""num_scrambled_schematic"":""4"",""participantId"":""B1A83D80254E4A3CB81D98E6917A3C6B"",""assignmentId"":""0666b6b8-546e-44ca-874e-67a1852ac792"",""projectId"":""9076ac92-be42-43a2-9634-8b67c7fe93a7""}","https://test12345.live/?num_scrambled_semantic=8&num_scrambled_causal=4&num_scrambled_schematic=4&participantId=B1A83D80254E4A3CB81D98E6917A3C6B&assignmentId=0666b6b8-546e-44ca-874e-67a1852ac792&projectId=9076ac92-be42-43a2-9634-8b67c7fe93a7","B1A83D80254E4A3CB81D98E6917A3C6B-2025-05-22-19-12-07","","null","","[]","null","",""
"","","","","","image-button-response","92","551168","0.0-14.0-1.0-0.1","B1A83D80254E4A3CB81D98E6917A3C6B","B1A83D80254E4A3CB81D98E6917A3C6B","0666b6b8-546e-44ca-874e-67a1852ac792","9076ac92-be42-43a2-9634-8b67c7fe93a7","{""num_scrambled_semantic"":""8"",""num_scrambled_causal"":""4"",""num_scrambled_schematic"":""4"",""participantId"":""B1A83D80254E4A3CB81D98E6917A3C6B"",""assignmentId"":""0666b6b8-546e-44ca-874e-67a1852ac792"",""projectId"":""9076ac92-be42-43a2-9634-8b67c7fe93a7""}","https://test12345.live/?num_scrambled_semantic=8&num_scrambled_causal=4&num_scrambled_schematic=4&participantId=B1A83D80254E4A3CB81D98E6917A3C6B&assignmentId=0666b6b8-546e-44ca-874e-67a1852ac792&projectId=9076ac92-be42-43a2-9634-8b67c7fe93a7","B1A83D80254E4A3CB81D98E6917A3C6B-2025-05-22-19-12-07","","null","","images/semantic_sequence/creative_activities_semantic/creative_activities_semantic_4.png","null","",""
"","","","","","image-button-response","93","552793","0.0-14.0-1.0-1.1","B1A83D80254E4A3CB81D98E6917A3C6B","B1A83D80254E4A3CB81D98E6917A3C6B","0666b6b8-546e-44ca-874e-67a1852ac792","9076ac92-be42-43a2-9634-8b67c7fe93a7","{""num_scrambled_semantic"":""8"",""num_scrambled_causal"":""4"",""num_scrambled_schematic"":""4"",""participantId"":""B1A83D80254E4A3CB81D98E6917A3C6B"",""assignmentId"":""0666b6b8-546e-44ca-874e-67a1852ac792"",""projectId"":""9076ac92-be42-43a2-9634-8b67c7fe93a7""}","https://test12345.live/?num_scrambled_semantic=8&num_scrambled_causal=4&num_scrambled_schematic=4&participantId=B1A83D80254E4A3CB81D98E6917A3C6B&assignmentId=0666b6b8-546e-44ca-874e-67a1852ac792&projectId=9076ac92-be42-43a2-9634-8b67c7fe93a7","B1A83D80254E4A3CB81D98E6917A3C6B-2025-05-22-19-12-07","","1622","","images/semantic_sequence/creative_activities_semantic/creative_activities_semantic_4.png","0","",""
"","","","","","image-button-response","94","554598","0.0-14.0-1.0-2.1","B1A83D80254E4A3CB81D98E6917A3C6B","B1A83D80254E4A3CB81D98E6917A3C6B","0666b6b8-546e-44ca-874e-67a1852ac792","9076ac92-be42-43a2-9634-8b67c7fe93a7","{""num_scrambled_semantic"":""8"",""num_scrambled_causal"":""4"",""num_scrambled_schematic"":""4"",""participantId"":""B1A83D80254E4A3CB81D98E6917A3C6B"",""assignmentId"":""0666b6b8-546e-44ca-874e-67a1852ac792"",""projectId"":""9076ac92-be42-43a2-9634-8b67c7fe93a7""}","https://test12345.live/?num_scrambled_semantic=8&num_scrambled_causal=4&num_scrambled_schematic=4&participantId=B1A83D80254E4A3CB81D98E6917A3C6B&assignmentId=0666b6b8-546e-44ca-874e-67a1852ac792&projectId=9076ac92-be42-43a2-9634-8b67c7fe93a7","B1A83D80254E4A3CB81D98E6917A3C6B-2025-05-22-19-12-07","","null","","[]","null","",""
"","","","","","image-button-response","95","559104","0.0-14.0-1.0-0.2","B1A83D80254E4A3CB81D98E6917A3C6B","B1A83D80254E4A3CB81D98E6917A3C6B","0666b6b8-546e-44ca-874e-67a1852ac792","9076ac92-be42-43a2-9634-8b67c7fe93a7","{""num_scrambled_semantic"":""8"",""num_scrambled_causal"":""4"",""num_scrambled_schematic"":""4"",""participantId"":""B1A83D80254E4A3CB81D98E6917A3C6B"",""assignmentId"":""0666b6b8-546e-44ca-874e-67a1852ac792"",""projectId"":""9076ac92-be42-43a2-9634-8b67c7fe93a7""}","https://test12345.live/?num_scrambled_semantic=8&num_scrambled_causal=4&num_scrambled_schematic=4&participantId=B1A83D80254E4A3CB81D98E6917A3C6B&assignmentId=0666b6b8-546e-44ca-874e-67a1852ac792&projectId=9076ac92-be42-43a2-9634-8b67c7fe93a7","B1A83D80254E4A3CB81D98E6917A3C6B-2025-05-22-19-12-07","","null","","images/semantic_sequence/creative_activities_semantic/creative_activities_semantic_8.png","null","",""
"","","","","","image-button-response","96","559615","0.0-14.0-1.0-1.2","B1A83D80254E4A3CB81D98E6917A3C6B","B1A83D80254E4A3CB81D98E6917A3C6B","0666b6b8-546e-44ca-874e-67a1852ac792","9076ac92-be42-43a2-9634-8b67c7fe93a7","{""num_scrambled_semantic"":""8"",""num_scrambled_causal"":""4"",""num_scrambled_schematic"":""4"",""participantId"":""B1A83D80254E4A3CB81D98E6917A3C6B"",""assignmentId"":""0666b6b8-546e-44ca-874e-67a1852ac792"",""projectId"":""9076ac92-be42-43a2-9634-8b67c7fe93a7""}","https://test12345.live/?num_scrambled_semantic=8&num_scrambled_causal=4&num_scrambled_schematic=4&participantId=B1A83D80254E4A3CB81D98E6917A3C6B&assignmentId=0666b6b8-546e-44ca-874e-67a1852ac792&projectId=9076ac92-be42-43a2-9634-8b67c7fe93a7","B1A83D80254E4A3CB81D98E6917A3C6B-2025-05-22-19-12-07","","506","","images/semantic_sequence/creative_activities_semantic/creative_activities_semantic_8.png","0","",""
"","","","","","image-button-response","97","561423","0.0-14.0-1.0-2.2","B1A83D80254E4A3CB81D98E6917A3C6B","B1A83D80254E4A3CB81D98E6917A3C6B","0666b6b8-546e-44ca-874e-67a1852ac792","9076ac92-be42-43a2-9634-8b67c7fe93a7","{""num_scrambled_semantic"":""8"",""num_scrambled_causal"":""4"",""num_scrambled_schematic"":""4"",""participantId"":""B1A83D80254E4A3CB81D98E6917A3C6B"",""assignmentId"":""0666b6b8-546e-44ca-874e-67a1852ac792"",""projectId"":""9076ac92-be42-43a2-9634-8b67c7fe93a7""}","https://test12345.live/?num_scrambled_semantic=8&num_scrambled_causal=4&num_scrambled_schematic=4&participantId=B1A83D80254E4A3CB81D98E6917A3C6B&assignmentId=0666b6b8-546e-44ca-874e-67a1852ac792&projectId=9076ac92-be42-43a2-9634-8b67c7fe93a7","B1A83D80254E4A3CB81D98E6917A3C6B-2025-05-22-19-12-07","","null","","[]","null","",""
"","","","","","image-button-response","98","565941","0.0-14.0-1.0-0.3","B1A83D80254E4A3CB81D98E6917A3C6B","B1A83D80254E4A3CB81D98E6917A3C6B","0666b6b8-546e-44ca-874e-67a1852ac792","9076ac92-be42-43a2-9634-8b67c7fe93a7","{""num_scrambled_semantic"":""8"",""num_scrambled_causal"":""4"",""num_scrambled_schematic"":""4"",""participantId"":""B1A83D80254E4A3CB81D98E6917A3C6B"",""assignmentId"":""0666b6b8-546e-44ca-874e-67a1852ac792"",""projectId"":""9076ac92-be42-43a2-9634-8b67c7fe93a7""}","https://test12345.live/?num_scrambled_semantic=8&num_scrambled_causal=4&num_scrambled_schematic=4&participantId=B1A83D80254E4A3CB81D98E6917A3C6B&assignmentId=0666b6b8-546e-44ca-874e-67a1852ac792&projectId=9076ac92-be42-43a2-9634-8b67c7fe93a7","B1A83D80254E4A3CB81D98E6917A3C6B-2025-05-22-19-12-07","","null","","images/semantic_sequence/creative_activities_semantic/creative_activities_semantic_ten.png","null","",""
"","","","","","image-button-response","99","566574","0.0-14.0-1.0-1.3","B1A83D80254E4A3CB81D98E6917A3C6B","B1A83D80254E4A3CB81D98E6917A3C6B","0666b6b8-546e-44ca-874e-67a1852ac792","9076ac92-be42-43a2-9634-8b67c7fe93a7","{""num_scrambled_semantic"":""8"",""num_scrambled_causal"":""4"",""num_scrambled_schematic"":""4"",""participantId"":""B1A83D80254E4A3CB81D98E6917A3C6B"",""assignmentId"":""0666b6b8-546e-44ca-874e-67a1852ac792"",""projectId"":""9076ac92-be42-43a2-9634-8b67c7fe93a7""}","https://test12345.live/?num_scrambled_semantic=8&num_scrambled_causal=4&num_scrambled_schematic=4&participantId=B1A83D80254E4A3CB81D98E6917A3C6B&assignmentId=0666b6b8-546e-44ca-874e-67a1852ac792&projectId=9076ac92-be42-43a2-9634-8b67c7fe93a7","B1A83D80254E4A3CB81D98E6917A3C6B-2025-05-22-19-12-07","","629","","images/semantic_sequence/creative_activities_semantic/creative_activities_semantic_ten.png","0","",""
"","","","","","image-button-response","100","568386","0.0-14.0-1.0-2.3","B1A83D80254E4A3CB81D98E6917A3C6B","B1A83D80254E4A3CB81D98E6917A3C6B","0666b6b8-546e-44ca-874e-67a1852ac792","9076ac92-be42-43a2-9634-8b67c7fe93a7","{""num_scrambled_semantic"":""8"",""num_scrambled_causal"":""4"",""num_scrambled_schematic"":""4"",""participantId"":""B1A83D80254E4A3CB81D98E6917A3C6B"",""assignmentId"":""0666b6b8-546e-44ca-874e-67a1852ac792"",""projectId"":""9076ac92-be42-43a2-9634-8b67c7fe93a7""}","https://test12345.live/?num_scrambled_semantic=8&num_scrambled_causal=4&num_scrambled_schematic=4&participantId=B1A83D80254E4A3CB81D98E6917A3C6B&assignmentId=0666b6b8-546e-44ca-874e-67a1852ac792&projectId=9076ac92-be42-43a2-9634-8b67c7fe93a7","B1A83D80254E4A3CB81D98E6917A3C6B-2025-05-22-19-12-07","","null","","[]","null","",""
"","","","","","image-button-response","101","572895","0.0-14.0-1.0-0.4","B1A83D80254E4A3CB81D98E6917A3C6B","B1A83D80254E4A3CB81D98E6917A3C6B","0666b6b8-546e-44ca-874e-67a1852ac792","9076ac92-be42-43a2-9634-8b67c7fe93a7","{""num_scrambled_semantic"":""8"",""num_scrambled_causal"":""4"",""num_scrambled_schematic"":""4"",""participantId"":""B1A83D80254E4A3CB81D98E6917A3C6B"",""assignmentId"":""0666b6b8-546e-44ca-874e-67a1852ac792"",""projectId"":""9076ac92-be42-43a2-9634-8b67c7fe93a7""}","https://test12345.live/?num_scrambled_semantic=8&num_scrambled_causal=4&num_scrambled_schematic=4&participantId=B1A83D80254E4A3CB81D98E6917A3C6B&assignmentId=0666b6b8-546e-44ca-874e-67a1852ac792&projectId=9076ac92-be42-43a2-9634-8b67c7fe93a7","B1A83D80254E4A3CB81D98E6917A3C6B-2025-05-22-19-12-07","","null","","images/semantic_sequence/creative_activities_semantic/creative_activities_semantic_1.png","null","",""
"","","","","","image-button-response","102","573816","0.0-14.0-1.0-1.4","B1A83D80254E4A3CB81D98E6917A3C6B","B1A83D80254E4A3CB81D98E6917A3C6B","0666b6b8-546e-44ca-874e-67a1852ac792","9076ac92-be42-43a2-9634-8b67c7fe93a7","{""num_scrambled_semantic"":""8"",""num_scrambled_causal"":""4"",""num_scrambled_schematic"":""4"",""participantId"":""B1A83D80254E4A3CB81D98E6917A3C6B"",""assignmentId"":""0666b6b8-546e-44ca-874e-67a1852ac792"",""projectId"":""9076ac92-be42-43a2-9634-8b67c7fe93a7""}","https://test12345.live/?num_scrambled_semantic=8&num_scrambled_causal=4&num_scrambled_schematic=4&participantId=B1A83D80254E4A3CB81D98E6917A3C6B&assignmentId=0666b6b8-546e-44ca-874e-67a1852ac792&projectId=9076ac92-be42-43a2-9634-8b67c7fe93a7","B1A83D80254E4A3CB81D98E6917A3C6B-2025-05-22-19-12-07","","917","","images/semantic_sequence/creative_activities_semantic/creative_activities_semantic_1.png","0","",""
"","","","","","image-button-response","103","575627","0.0-14.0-1.0-2.4","B1A83D80254E4A3CB81D98E6917A3C6B","B1A83D80254E4A3CB81D98E6917A3C6B","0666b6b8-546e-44ca-874e-67a1852ac792","9076ac92-be42-43a2-9634-8b67c7fe93a7","{""num_scrambled_semantic"":""8"",""num_scrambled_causal"":""4"",""num_scrambled_schematic"":""4"",""participantId"":""B1A83D80254E4A3CB81D98E6917A3C6B"",""assignmentId"":""0666b6b8-546e-44ca-874e-67a1852ac792"",""projectId"":""9076ac92-be42-43a2-9634-8b67c7fe93a7""}","https://test12345.live/?num_scrambled_semantic=8&num_scrambled_causal=4&num_scrambled_schematic=4&participantId=B1A83D80254E4A3CB81D98E6917A3C6B&assignmentId=0666b6b8-546e-44ca-874e-67a1852ac792&projectId=9076ac92-be42-43a2-9634-8b67c7fe93a7","B1A83D80254E4A3CB81D98E6917A3C6B-2025-05-22-19-12-07","","null","","[]","null","",""
"","","","","","image-button-response","104","580134","0.0-14.0-1.0-0.5","B1A83D80254E4A3CB81D98E6917A3C6B","B1A83D80254E4A3CB81D98E6917A3C6B","0666b6b8-546e-44ca-874e-67a1852ac792","9076ac92-be42-43a2-9634-8b67c7fe93a7","{""num_scrambled_semantic"":""8"",""num_scrambled_causal"":""4"",""num_scrambled_schematic"":""4"",""participantId"":""B1A83D80254E4A3CB81D98E6917A3C6B"",""assignmentId"":""0666b6b8-546e-44ca-874e-67a1852ac792"",""projectId"":""9076ac92-be42-43a2-9634-8b67c7fe93a7""}","https://test12345.live/?num_scrambled_semantic=8&num_scrambled_causal=4&num_scrambled_schematic=4&participantId=B1A83D80254E4A3CB81D98E6917A3C6B&assignmentId=0666b6b8-546e-44ca-874e-67a1852ac792&projectId=9076ac92-be42-43a2-9634-8b67c7fe93a7","B1A83D80254E4A3CB81D98E6917A3C6B-2025-05-22-19-12-07","","null","","images/semantic_sequence/creative_activities_semantic/creative_activities_semantic_2.png","null","",""
"","","","","","image-button-response","105","580969","0.0-14.0-1.0-1.5","B1A83D80254E4A3CB81D98E6917A3C6B","B1A83D80254E4A3CB81D98E6917A3C6B","0666b6b8-546e-44ca-874e-67a1852ac792","9076ac92-be42-43a2-9634-8b67c7fe93a7","{""num_scrambled_semantic"":""8"",""num_scrambled_causal"":""4"",""num_scrambled_schematic"":""4"",""participantId"":""B1A83D80254E4A3CB81D98E6917A3C6B"",""assignmentId"":""0666b6b8-546e-44ca-874e-67a1852ac792"",""projectId"":""9076ac92-be42-43a2-9634-8b67c7fe93a7""}","https://test12345.live/?num_scrambled_semantic=8&num_scrambled_causal=4&num_scrambled_schematic=4&participantId=B1A83D80254E4A3CB81D98E6917A3C6B&assignmentId=0666b6b8-546e-44ca-874e-67a1852ac792&projectId=9076ac92-be42-43a2-9634-8b67c7fe93a7","B1A83D80254E4A3CB81D98E6917A3C6B-2025-05-22-19-12-07","","830","","images/semantic_sequence/creative_activities_semantic/creative_activities_semantic_2.png","0","",""
"","","","","","image-button-response","106","582781","0.0-14.0-1.0-2.5","B1A83D80254E4A3CB81D98E6917A3C6B","B1A83D80254E4A3CB81D98E6917A3C6B","0666b6b8-546e-44ca-874e-67a1852ac792","9076ac92-be42-43a2-9634-8b67c7fe93a7","{""num_scrambled_semantic"":""8"",""num_scrambled_causal"":""4"",""num_scrambled_schematic"":""4"",""participantId"":""B1A83D80254E4A3CB81D98E6917A3C6B"",""assignmentId"":""0666b6b8-546e-44ca-874e-67a1852ac792"",""projectId"":""9076ac92-be42-43a2-9634-8b67c7fe93a7""}","https://test12345.live/?num_scrambled_semantic=8&num_scrambled_causal=4&num_scrambled_schematic=4&participantId=B1A83D80254E4A3CB81D98E6917A3C6B&assignmentId=0666b6b8-546e-44ca-874e-67a1852ac792&projectId=9076ac92-be42-43a2-9634-8b67c7fe93a7","B1A83D80254E4A3CB81D98E6917A3C6B-2025-05-22-19-12-07","","null","","[]","null","",""
"","","","","","image-button-response","107","587297","0.0-14.0-1.0-0.6","B1A83D80254E4A3CB81D98E6917A3C6B","B1A83D80254E4A3CB81D98E6917A3C6B","0666b6b8-546e-44ca-874e-67a1852ac792","9076ac92-be42-43a2-9634-8b67c7fe93a7","{""num_scrambled_semantic"":""8"",""num_scrambled_causal"":""4"",""num_scrambled_schematic"":""4"",""participantId"":""B1A83D80254E4A3CB81D98E6917A3C6B"",""assignmentId"":""0666b6b8-546e-44ca-874e-67a1852ac792"",""projectId"":""9076ac92-be42-43a2-9634-8b67c7fe93a7""}","https://test12345.live/?num_scrambled_semantic=8&num_scrambled_causal=4&num_scrambled_schematic=4&participantId=B1A83D80254E4A3CB81D98E6917A3C6B&assignmentId=0666b6b8-546e-44ca-874e-67a1852ac792&projectId=9076ac92-be42-43a2-9634-8b67c7fe93a7","B1A83D80254E4A3CB81D98E6917A3C6B-2025-05-22-19-12-07","","null","","images/semantic_sequence/creative_activities_semantic/creative_activities_semantic_9.png","null","",""
"","","","","","image-button-response","108","588277","0.0-14.0-1.0-1.6","B1A83D80254E4A3CB81D98E6917A3C6B","B1A83D80254E4A3CB81D98E6917A3C6B","0666b6b8-546e-44ca-874e-67a1852ac792","9076ac92-be42-43a2-9634-8b67c7fe93a7","{""num_scrambled_semantic"":""8"",""num_scrambled_causal"":""4"",""num_scrambled_schematic"":""4"",""participantId"":""B1A83D80254E4A3CB81D98E6917A3C6B"",""assignmentId"":""0666b6b8-546e-44ca-874e-67a1852ac792"",""projectId"":""9076ac92-be42-43a2-9634-8b67c7fe93a7""}","https://test12345.live/?num_scrambled_semantic=8&num_scrambled_causal=4&num_scrambled_schematic=4&participantId=B1A83D80254E4A3CB81D98E6917A3C6B&assignmentId=0666b6b8-546e-44ca-874e-67a1852ac792&projectId=9076ac92-be42-43a2-9634-8b67c7fe93a7","B1A83D80254E4A3CB81D98E6917A3C6B-2025-05-22-19-12-07","","976","","images/semantic_sequence/creative_activities_semantic/creative_activities_semantic_9.png","1","",""
"","","","","","image-button-response","109","590085","0.0-14.0-1.0-2.6","B1A83D80254E4A3CB81D98E6917A3C6B","B1A83D80254E4A3CB81D98E6917A3C6B","0666b6b8-546e-44ca-874e-67a1852ac792","9076ac92-be42-43a2-9634-8b67c7fe93a7","{""num_scrambled_semantic"":""8"",""num_scrambled_causal"":""4"",""num_scrambled_schematic"":""4"",""participantId"":""B1A83D80254E4A3CB81D98E6917A3C6B"",""assignmentId"":""0666b6b8-546e-44ca-874e-67a1852ac792"",""projectId"":""9076ac92-be42-43a2-9634-8b67c7fe93a7""}","https://test12345.live/?num_scrambled_semantic=8&num_scrambled_causal=4&num_scrambled_schematic=4&participantId=B1A83D80254E4A3CB81D98E6917A3C6B&assignmentId=0666b6b8-546e-44ca-874e-67a1852ac792&projectId=9076ac92-be42-43a2-9634-8b67c7fe93a7","B1A83D80254E4A3CB81D98E6917A3C6B-2025-05-22-19-12-07","","null","","[]","null","",""
"","","","","","image-button-response","110","594592","0.0-14.0-1.0-0.7","B1A83D80254E4A3CB81D98E6917A3C6B","B1A83D80254E4A3CB81D98E6917A3C6B","0666b6b8-546e-44ca-874e-67a1852ac792","9076ac92-be42-43a2-9634-8b67c7fe93a7","{""num_scrambled_semantic"":""8"",""num_scrambled_causal"":""4"",""num_scrambled_schematic"":""4"",""participantId"":""B1A83D80254E4A3CB81D98E6917A3C6B"",""assignmentId"":""0666b6b8-546e-44ca-874e-67a1852ac792"",""projectId"":""9076ac92-be42-43a2-9634-8b67c7fe93a7""}","https://test12345.live/?num_scrambled_semantic=8&num_scrambled_causal=4&num_scrambled_schematic=4&participantId=B1A83D80254E4A3CB81D98E6917A3C6B&assignmentId=0666b6b8-546e-44ca-874e-67a1852ac792&projectId=9076ac92-be42-43a2-9634-8b67c7fe93a7","B1A83D80254E4A3CB81D98E6917A3C6B-2025-05-22-19-12-07","","null","","images/semantic_sequence/creative_activities_semantic/creative_activities_semantic_5.png","null","",""
"","","","","","image-button-response","111","595130","0.0-14.0-1.0-1.7","B1A83D80254E4A3CB81D98E6917A3C6B","B1A83D80254E4A3CB81D98E6917A3C6B","0666b6b8-546e-44ca-874e-67a1852ac792","9076ac92-be42-43a2-9634-8b67c7fe93a7","{""num_scrambled_semantic"":""8"",""num_scrambled_causal"":""4"",""num_scrambled_schematic"":""4"",""participantId"":""B1A83D80254E4A3CB81D98E6917A3C6B"",""assignmentId"":""0666b6b8-546e-44ca-874e-67a1852ac792"",""projectId"":""9076ac92-be42-43a2-9634-8b67c7fe93a7""}","https://test12345.live/?num_scrambled_semantic=8&num_scrambled_causal=4&num_scrambled_schematic=4&participantId=B1A83D80254E4A3CB81D98E6917A3C6B&assignmentId=0666b6b8-546e-44ca-874e-67a1852ac792&projectId=9076ac92-be42-43a2-9634-8b67c7fe93a7","B1A83D80254E4A3CB81D98E6917A3C6B-2025-05-22-19-12-07","","534","","images/semantic_sequence/creative_activities_semantic/creative_activities_semantic_5.png","0","",""
"","","","","","image-button-response","112","596937","0.0-14.0-1.0-2.7","B1A83D80254E4A3CB81D98E6917A3C6B","B1A83D80254E4A3CB81D98E6917A3C6B","0666b6b8-546e-44ca-874e-67a1852ac792","9076ac92-be42-43a2-9634-8b67c7fe93a7","{""num_scrambled_semantic"":""8"",""num_scrambled_causal"":""4"",""num_scrambled_schematic"":""4"",""participantId"":""B1A83D80254E4A3CB81D98E6917A3C6B"",""assignmentId"":""0666b6b8-546e-44ca-874e-67a1852ac792"",""projectId"":""9076ac92-be42-43a2-9634-8b67c7fe93a7""}","https://test12345.live/?num_scrambled_semantic=8&num_scrambled_causal=4&num_scrambled_schematic=4&participantId=B1A83D80254E4A3CB81D98E6917A3C6B&assignmentId=0666b6b8-546e-44ca-874e-67a1852ac792&projectId=9076ac92-be42-43a2-9634-8b67c7fe93a7","B1A83D80254E4A3CB81D98E6917A3C6B-2025-05-22-19-12-07","","null","","[]","null","",""
