"success","timeout","failed_images","failed_audio","failed_video","trial_type","trial_index","time_elapsed","internal_node_id","subject","subject_id","study_id","session_id","urlvar","current_url","audio_id","view_history","rt","device_id","stimulus","response","estimated_stimulus_onset","seq_name"
"true","false","[]","[]","[]","preload","0","64356","0.0-0.0","B1A83D80254E4A3CB81D98E6917A3C6B","B1A83D80254E4A3CB81D98E6917A3C6B","07962425-98bf-4916-b7fe-808a1cbc032a","051c06f1-75cc-4548-856d-4923ddaba0dc","{""num_scrambled_semantic"":""8"",""num_scrambled_causal"":""4"",""num_scrambled_schematic"":""4"",""participantId"":""B1A83D80254E4A3CB81D98E6917A3C6B"",""assignmentId"":""07962425-98bf-4916-b7fe-808a1cbc032a"",""projectId"":""051c06f1-75cc-4548-856d-4923ddaba0dc""}","https://test12345.live/?num_scrambled_semantic=8&num_scrambled_causal=4&num_scrambled_schematic=4&participantId=B1A83D80254E4A3CB81D98E6917A3C6B&assignmentId=07962425-98bf-4916-b7fe-808a1cbc032a&projectId=051c06f1-75cc-4548-856d-4923ddaba0dc","B1A83D80254E4A3CB81D98E6917A3C6B-2025-05-15-19-03-29","","","","","","",""
"","","","","","instructions","1","80220","0.0-1.0","B1A83D80254E4A3CB81D98E6917A3C6B","B1A83D80254E4A3CB81D98E6917A3C6B","07962425-98bf-4916-b7fe-808a1cbc032a","051c06f1-75cc-4548-856d-4923ddaba0dc","{""num_scrambled_semantic"":""8"",""num_scrambled_causal"":""4"",""num_scrambled_schematic"":""4"",""participantId"":""B1A83D80254E4A3CB81D98E6917A3C6B"",""assignmentId"":""07962425-98bf-4916-b7fe-808a1cbc032a"",""projectId"":""051c06f1-75cc-4548-856d-4923ddaba0dc""}","https://test12345.live/?num_scrambled_semantic=8&num_scrambled_causal=4&num_scrambled_schematic=4&participantId=B1A83D80254E4A3CB81D98E6917A3C6B&assignmentId=07962425-98bf-4916-b7fe-808a1cbc032a&projectId=051c06f1-75cc-4548-856d-4923ddaba0dc","B1A83D80254E4A3CB81D98E6917A3C6B-2025-05-15-19-03-29","[{""page_index"":0,""viewing_time"":15861}]","15862","","","","",""
"","","","","","instructions","2","88456","0.0-2.0","B1A83D80254E4A3CB81D98E6917A3C6B","B1A83D80254E4A3CB81D98E6917A3C6B","07962425-98bf-4916-b7fe-808a1cbc032a","051c06f1-75cc-4548-856d-4923ddaba0dc","{""num_scrambled_semantic"":""8"",""num_scrambled_causal"":""4"",""num_scrambled_schematic"":""4"",""participantId"":""B1A83D80254E4A3CB81D98E6917A3C6B"",""assignmentId"":""07962425-98bf-4916-b7fe-808a1cbc032a"",""projectId"":""051c06f1-75cc-4548-856d-4923ddaba0dc""}","https://test12345.live/?num_scrambled_semantic=8&num_scrambled_causal=4&num_scrambled_schematic=4&participantId=B1A83D80254E4A3CB81D98E6917A3C6B&assignmentId=07962425-98bf-4916-b7fe-808a1cbc032a&projectId=051c06f1-75cc-4548-856d-4923ddaba0dc","B1A83D80254E4A3CB81D98E6917A3C6B-2025-05-15-19-03-29","[{""page_index"":0,""viewing_time"":8226}]","8227","","","","",""
"true","","","","","fullscreen","3","92856","0.0-3.0","B1A83D80254E4A3CB81D98E6917A3C6B","B1A83D80254E4A3CB81D98E6917A3C6B","07962425-98bf-4916-b7fe-808a1cbc032a","051c06f1-75cc-4548-856d-4923ddaba0dc","{""num_scrambled_semantic"":""8"",""num_scrambled_causal"":""4"",""num_scrambled_schematic"":""4"",""participantId"":""B1A83D80254E4A3CB81D98E6917A3C6B"",""assignmentId"":""07962425-98bf-4916-b7fe-808a1cbc032a"",""projectId"":""051c06f1-75cc-4548-856d-4923ddaba0dc""}","https://test12345.live/?num_scrambled_semantic=8&num_scrambled_causal=4&num_scrambled_schematic=4&participantId=B1A83D80254E4A3CB81D98E6917A3C6B&assignmentId=07962425-98bf-4916-b7fe-808a1cbc032a&projectId=051c06f1-75cc-4548-856d-4923ddaba0dc","B1A83D80254E4A3CB81D98E6917A3C6B-2025-05-15-19-03-29","","3374","","","","",""
"","","","","","initialize-microphone","4","102968","0.0-4.0-0.0","B1A83D80254E4A3CB81D98E6917A3C6B","B1A83D80254E4A3CB81D98E6917A3C6B","07962425-98bf-4916-b7fe-808a1cbc032a","051c06f1-75cc-4548-856d-4923ddaba0dc","{""num_scrambled_semantic"":""8"",""num_scrambled_causal"":""4"",""num_scrambled_schematic"":""4"",""participantId"":""B1A83D80254E4A3CB81D98E6917A3C6B"",""assignmentId"":""07962425-98bf-4916-b7fe-808a1cbc032a"",""projectId"":""051c06f1-75cc-4548-856d-4923ddaba0dc""}","https://test12345.live/?num_scrambled_semantic=8&num_scrambled_causal=4&num_scrambled_schematic=4&participantId=B1A83D80254E4A3CB81D98E6917A3C6B&assignmentId=07962425-98bf-4916-b7fe-808a1cbc032a&projectId=051c06f1-75cc-4548-856d-4923ddaba0dc","B1A83D80254E4A3CB81D98E6917A3C6B-2025-05-15-19-03-29","","","0f1375cf5d36522e55610af8c0e31fd2e64b6286b444d337e48d8ba37cdb011f","","","",""
"","","","","","html-audio-response","5","148770","0.0-4.0-1.0","B1A83D80254E4A3CB81D98E6917A3C6B","B1A83D80254E4A3CB81D98E6917A3C6B","07962425-98bf-4916-b7fe-808a1cbc032a","051c06f1-75cc-4548-856d-4923ddaba0dc","{""num_scrambled_semantic"":""8"",""num_scrambled_causal"":""4"",""num_scrambled_schematic"":""4"",""participantId"":""B1A83D80254E4A3CB81D98E6917A3C6B"",""assignmentId"":""07962425-98bf-4916-b7fe-808a1cbc032a"",""projectId"":""051c06f1-75cc-4548-856d-4923ddaba0dc""}","https://test12345.live/?num_scrambled_semantic=8&num_scrambled_causal=4&num_scrambled_schematic=4&participantId=B1A83D80254E4A3CB81D98E6917A3C6B&assignmentId=07962425-98bf-4916-b7fe-808a1cbc032a&projectId=051c06f1-75cc-4548-856d-4923ddaba0dc","B1A83D80254E4A3CB81D98E6917A3C6B-2025-05-15-19-03-29","","2310","","<span style=""color: red; font-size: 24px""> NOW RECORDING</span>
        <p>Please test Microphone</p>","","15",""
"","","","","","html-button-response","6","150040","0.0-4.0-2.0","B1A83D80254E4A3CB81D98E6917A3C6B","B1A83D80254E4A3CB81D98E6917A3C6B","07962425-98bf-4916-b7fe-808a1cbc032a","051c06f1-75cc-4548-856d-4923ddaba0dc","{""num_scrambled_semantic"":""8"",""num_scrambled_causal"":""4"",""num_scrambled_schematic"":""4"",""participantId"":""B1A83D80254E4A3CB81D98E6917A3C6B"",""assignmentId"":""07962425-98bf-4916-b7fe-808a1cbc032a"",""projectId"":""051c06f1-75cc-4548-856d-4923ddaba0dc""}","https://test12345.live/?num_scrambled_semantic=8&num_scrambled_causal=4&num_scrambled_schematic=4&participantId=B1A83D80254E4A3CB81D98E6917A3C6B&assignmentId=07962425-98bf-4916-b7fe-808a1cbc032a&projectId=051c06f1-75cc-4548-856d-4923ddaba0dc","B1A83D80254E4A3CB81D98E6917A3C6B-2025-05-15-19-03-29","","1264","","<p style=""font-size:48px; color:red;"">Is Microphone OK?</p>","1","",""
"","","","","","instructions","7","167675","0.0-5.0","B1A83D80254E4A3CB81D98E6917A3C6B","B1A83D80254E4A3CB81D98E6917A3C6B","07962425-98bf-4916-b7fe-808a1cbc032a","051c06f1-75cc-4548-856d-4923ddaba0dc","{""num_scrambled_semantic"":""8"",""num_scrambled_causal"":""4"",""num_scrambled_schematic"":""4"",""participantId"":""B1A83D80254E4A3CB81D98E6917A3C6B"",""assignmentId"":""07962425-98bf-4916-b7fe-808a1cbc032a"",""projectId"":""051c06f1-75cc-4548-856d-4923ddaba0dc""}","https://test12345.live/?num_scrambled_semantic=8&num_scrambled_causal=4&num_scrambled_schematic=4&participantId=B1A83D80254E4A3CB81D98E6917A3C6B&assignmentId=07962425-98bf-4916-b7fe-808a1cbc032a&projectId=051c06f1-75cc-4548-856d-4923ddaba0dc","B1A83D80254E4A3CB81D98E6917A3C6B-2025-05-15-19-03-29","[{""page_index"":0,""viewing_time"":9627},{""page_index"":1,""viewing_time"":8004}]","17632","","","","",""
"","","","","","image-button-response","8","173713","0.0-6.0-0.0","B1A83D80254E4A3CB81D98E6917A3C6B","B1A83D80254E4A3CB81D98E6917A3C6B","07962425-98bf-4916-b7fe-808a1cbc032a","051c06f1-75cc-4548-856d-4923ddaba0dc","{""num_scrambled_semantic"":""8"",""num_scrambled_causal"":""4"",""num_scrambled_schematic"":""4"",""participantId"":""B1A83D80254E4A3CB81D98E6917A3C6B"",""assignmentId"":""07962425-98bf-4916-b7fe-808a1cbc032a"",""projectId"":""051c06f1-75cc-4548-856d-4923ddaba0dc""}","https://test12345.live/?num_scrambled_semantic=8&num_scrambled_causal=4&num_scrambled_schematic=4&participantId=B1A83D80254E4A3CB81D98E6917A3C6B&assignmentId=07962425-98bf-4916-b7fe-808a1cbc032a&projectId=051c06f1-75cc-4548-856d-4923ddaba0dc","B1A83D80254E4A3CB81D98E6917A3C6B-2025-05-15-19-03-29","","null","","images/instructions/movie_0.png","null","",""
"","","","","","image-button-response","9","178232","0.0-6.0-1.0-0.0","B1A83D80254E4A3CB81D98E6917A3C6B","B1A83D80254E4A3CB81D98E6917A3C6B","07962425-98bf-4916-b7fe-808a1cbc032a","051c06f1-75cc-4548-856d-4923ddaba0dc","{""num_scrambled_semantic"":""8"",""num_scrambled_causal"":""4"",""num_scrambled_schematic"":""4"",""participantId"":""B1A83D80254E4A3CB81D98E6917A3C6B"",""assignmentId"":""07962425-98bf-4916-b7fe-808a1cbc032a"",""projectId"":""051c06f1-75cc-4548-856d-4923ddaba0dc""}","https://test12345.live/?num_scrambled_semantic=8&num_scrambled_causal=4&num_scrambled_schematic=4&participantId=B1A83D80254E4A3CB81D98E6917A3C6B&assignmentId=07962425-98bf-4916-b7fe-808a1cbc032a&projectId=051c06f1-75cc-4548-856d-4923ddaba0dc","B1A83D80254E4A3CB81D98E6917A3C6B-2025-05-15-19-03-29","","null","","images/instructions/movie_1.png","null","",""
"","","","","","image-button-response","10","180528","0.0-6.0-1.0-1.0","B1A83D80254E4A3CB81D98E6917A3C6B","B1A83D80254E4A3CB81D98E6917A3C6B","07962425-98bf-4916-b7fe-808a1cbc032a","051c06f1-75cc-4548-856d-4923ddaba0dc","{""num_scrambled_semantic"":""8"",""num_scrambled_causal"":""4"",""num_scrambled_schematic"":""4"",""participantId"":""B1A83D80254E4A3CB81D98E6917A3C6B"",""assignmentId"":""07962425-98bf-4916-b7fe-808a1cbc032a"",""projectId"":""051c06f1-75cc-4548-856d-4923ddaba0dc""}","https://test12345.live/?num_scrambled_semantic=8&num_scrambled_causal=4&num_scrambled_schematic=4&participantId=B1A83D80254E4A3CB81D98E6917A3C6B&assignmentId=07962425-98bf-4916-b7fe-808a1cbc032a&projectId=051c06f1-75cc-4548-856d-4923ddaba0dc","B1A83D80254E4A3CB81D98E6917A3C6B-2025-05-15-19-03-29","","2291","","images/instructions/movie_1.png","0","",""
"","","","","","image-button-response","11","182348","0.0-6.0-1.0-2.0","B1A83D80254E4A3CB81D98E6917A3C6B","B1A83D80254E4A3CB81D98E6917A3C6B","07962425-98bf-4916-b7fe-808a1cbc032a","051c06f1-75cc-4548-856d-4923ddaba0dc","{""num_scrambled_semantic"":""8"",""num_scrambled_causal"":""4"",""num_scrambled_schematic"":""4"",""participantId"":""B1A83D80254E4A3CB81D98E6917A3C6B"",""assignmentId"":""07962425-98bf-4916-b7fe-808a1cbc032a"",""projectId"":""051c06f1-75cc-4548-856d-4923ddaba0dc""}","https://test12345.live/?num_scrambled_semantic=8&num_scrambled_causal=4&num_scrambled_schematic=4&participantId=B1A83D80254E4A3CB81D98E6917A3C6B&assignmentId=07962425-98bf-4916-b7fe-808a1cbc032a&projectId=051c06f1-75cc-4548-856d-4923ddaba0dc","B1A83D80254E4A3CB81D98E6917A3C6B-2025-05-15-19-03-29","","null","","[]","null","",""
"","","","","","image-button-response","12","186855","0.0-6.0-1.0-0.1","B1A83D80254E4A3CB81D98E6917A3C6B","B1A83D80254E4A3CB81D98E6917A3C6B","07962425-98bf-4916-b7fe-808a1cbc032a","051c06f1-75cc-4548-856d-4923ddaba0dc","{""num_scrambled_semantic"":""8"",""num_scrambled_causal"":""4"",""num_scrambled_schematic"":""4"",""participantId"":""B1A83D80254E4A3CB81D98E6917A3C6B"",""assignmentId"":""07962425-98bf-4916-b7fe-808a1cbc032a"",""projectId"":""051c06f1-75cc-4548-856d-4923ddaba0dc""}","https://test12345.live/?num_scrambled_semantic=8&num_scrambled_causal=4&num_scrambled_schematic=4&participantId=B1A83D80254E4A3CB81D98E6917A3C6B&assignmentId=07962425-98bf-4916-b7fe-808a1cbc032a&projectId=051c06f1-75cc-4548-856d-4923ddaba0dc","B1A83D80254E4A3CB81D98E6917A3C6B-2025-05-15-19-03-29","","null","","images/instructions/movie_2.png","null","",""
"","","","","","image-button-response","13","188293","0.0-6.0-1.0-1.1","B1A83D80254E4A3CB81D98E6917A3C6B","B1A83D80254E4A3CB81D98E6917A3C6B","07962425-98bf-4916-b7fe-808a1cbc032a","051c06f1-75cc-4548-856d-4923ddaba0dc","{""num_scrambled_semantic"":""8"",""num_scrambled_causal"":""4"",""num_scrambled_schematic"":""4"",""participantId"":""B1A83D80254E4A3CB81D98E6917A3C6B"",""assignmentId"":""07962425-98bf-4916-b7fe-808a1cbc032a"",""projectId"":""051c06f1-75cc-4548-856d-4923ddaba0dc""}","https://test12345.live/?num_scrambled_semantic=8&num_scrambled_causal=4&num_scrambled_schematic=4&participantId=B1A83D80254E4A3CB81D98E6917A3C6B&assignmentId=07962425-98bf-4916-b7fe-808a1cbc032a&projectId=051c06f1-75cc-4548-856d-4923ddaba0dc","B1A83D80254E4A3CB81D98E6917A3C6B-2025-05-15-19-03-29","","1432","","images/instructions/movie_2.png","0","",""
"","","","","","image-button-response","14","190110","0.0-6.0-1.0-2.1","B1A83D80254E4A3CB81D98E6917A3C6B","B1A83D80254E4A3CB81D98E6917A3C6B","07962425-98bf-4916-b7fe-808a1cbc032a","051c06f1-75cc-4548-856d-4923ddaba0dc","{""num_scrambled_semantic"":""8"",""num_scrambled_causal"":""4"",""num_scrambled_schematic"":""4"",""participantId"":""B1A83D80254E4A3CB81D98E6917A3C6B"",""assignmentId"":""07962425-98bf-4916-b7fe-808a1cbc032a"",""projectId"":""051c06f1-75cc-4548-856d-4923ddaba0dc""}","https://test12345.live/?num_scrambled_semantic=8&num_scrambled_causal=4&num_scrambled_schematic=4&participantId=B1A83D80254E4A3CB81D98E6917A3C6B&assignmentId=07962425-98bf-4916-b7fe-808a1cbc032a&projectId=051c06f1-75cc-4548-856d-4923ddaba0dc","B1A83D80254E4A3CB81D98E6917A3C6B-2025-05-15-19-03-29","","null","","[]","null","",""
"","","","","","image-button-response","15","194618","0.0-6.0-1.0-0.2","B1A83D80254E4A3CB81D98E6917A3C6B","B1A83D80254E4A3CB81D98E6917A3C6B","07962425-98bf-4916-b7fe-808a1cbc032a","051c06f1-75cc-4548-856d-4923ddaba0dc","{""num_scrambled_semantic"":""8"",""num_scrambled_causal"":""4"",""num_scrambled_schematic"":""4"",""participantId"":""B1A83D80254E4A3CB81D98E6917A3C6B"",""assignmentId"":""07962425-98bf-4916-b7fe-808a1cbc032a"",""projectId"":""051c06f1-75cc-4548-856d-4923ddaba0dc""}","https://test12345.live/?num_scrambled_semantic=8&num_scrambled_causal=4&num_scrambled_schematic=4&participantId=B1A83D80254E4A3CB81D98E6917A3C6B&assignmentId=07962425-98bf-4916-b7fe-808a1cbc032a&projectId=051c06f1-75cc-4548-856d-4923ddaba0dc","B1A83D80254E4A3CB81D98E6917A3C6B-2025-05-15-19-03-29","","null","","images/instructions/movie_3.png","null","",""
"","","","","","image-button-response","16","195546","0.0-6.0-1.0-1.2","B1A83D80254E4A3CB81D98E6917A3C6B","B1A83D80254E4A3CB81D98E6917A3C6B","07962425-98bf-4916-b7fe-808a1cbc032a","051c06f1-75cc-4548-856d-4923ddaba0dc","{""num_scrambled_semantic"":""8"",""num_scrambled_causal"":""4"",""num_scrambled_schematic"":""4"",""participantId"":""B1A83D80254E4A3CB81D98E6917A3C6B"",""assignmentId"":""07962425-98bf-4916-b7fe-808a1cbc032a"",""projectId"":""051c06f1-75cc-4548-856d-4923ddaba0dc""}","https://test12345.live/?num_scrambled_semantic=8&num_scrambled_causal=4&num_scrambled_schematic=4&participantId=B1A83D80254E4A3CB81D98E6917A3C6B&assignmentId=07962425-98bf-4916-b7fe-808a1cbc032a&projectId=051c06f1-75cc-4548-856d-4923ddaba0dc","B1A83D80254E4A3CB81D98E6917A3C6B-2025-05-15-19-03-29","","922","","images/instructions/movie_3.png","0","",""
"","","","","","image-button-response","17","197360","0.0-6.0-1.0-2.2","B1A83D80254E4A3CB81D98E6917A3C6B","B1A83D80254E4A3CB81D98E6917A3C6B","07962425-98bf-4916-b7fe-808a1cbc032a","051c06f1-75cc-4548-856d-4923ddaba0dc","{""num_scrambled_semantic"":""8"",""num_scrambled_causal"":""4"",""num_scrambled_schematic"":""4"",""participantId"":""B1A83D80254E4A3CB81D98E6917A3C6B"",""assignmentId"":""07962425-98bf-4916-b7fe-808a1cbc032a"",""projectId"":""051c06f1-75cc-4548-856d-4923ddaba0dc""}","https://test12345.live/?num_scrambled_semantic=8&num_scrambled_causal=4&num_scrambled_schematic=4&participantId=B1A83D80254E4A3CB81D98E6917A3C6B&assignmentId=07962425-98bf-4916-b7fe-808a1cbc032a&projectId=051c06f1-75cc-4548-856d-4923ddaba0dc","B1A83D80254E4A3CB81D98E6917A3C6B-2025-05-15-19-03-29","","null","","[]","null","",""
"","","","","","image-button-response","18","201864","0.0-6.0-1.0-0.3","B1A83D80254E4A3CB81D98E6917A3C6B","B1A83D80254E4A3CB81D98E6917A3C6B","07962425-98bf-4916-b7fe-808a1cbc032a","051c06f1-75cc-4548-856d-4923ddaba0dc","{""num_scrambled_semantic"":""8"",""num_scrambled_causal"":""4"",""num_scrambled_schematic"":""4"",""participantId"":""B1A83D80254E4A3CB81D98E6917A3C6B"",""assignmentId"":""07962425-98bf-4916-b7fe-808a1cbc032a"",""projectId"":""051c06f1-75cc-4548-856d-4923ddaba0dc""}","https://test12345.live/?num_scrambled_semantic=8&num_scrambled_causal=4&num_scrambled_schematic=4&participantId=B1A83D80254E4A3CB81D98E6917A3C6B&assignmentId=07962425-98bf-4916-b7fe-808a1cbc032a&projectId=051c06f1-75cc-4548-856d-4923ddaba0dc","B1A83D80254E4A3CB81D98E6917A3C6B-2025-05-15-19-03-29","","null","","images/instructions/movie_4.png","null","",""
"","","","","","image-button-response","19","202809","0.0-6.0-1.0-1.3","B1A83D80254E4A3CB81D98E6917A3C6B","B1A83D80254E4A3CB81D98E6917A3C6B","07962425-98bf-4916-b7fe-808a1cbc032a","051c06f1-75cc-4548-856d-4923ddaba0dc","{""num_scrambled_semantic"":""8"",""num_scrambled_causal"":""4"",""num_scrambled_schematic"":""4"",""participantId"":""B1A83D80254E4A3CB81D98E6917A3C6B"",""assignmentId"":""07962425-98bf-4916-b7fe-808a1cbc032a"",""projectId"":""051c06f1-75cc-4548-856d-4923ddaba0dc""}","https://test12345.live/?num_scrambled_semantic=8&num_scrambled_causal=4&num_scrambled_schematic=4&participantId=B1A83D80254E4A3CB81D98E6917A3C6B&assignmentId=07962425-98bf-4916-b7fe-808a1cbc032a&projectId=051c06f1-75cc-4548-856d-4923ddaba0dc","B1A83D80254E4A3CB81D98E6917A3C6B-2025-05-15-19-03-29","","942","","images/instructions/movie_4.png","0","",""
"","","","","","image-button-response","20","204620","0.0-6.0-1.0-2.3","B1A83D80254E4A3CB81D98E6917A3C6B","B1A83D80254E4A3CB81D98E6917A3C6B","07962425-98bf-4916-b7fe-808a1cbc032a","051c06f1-75cc-4548-856d-4923ddaba0dc","{""num_scrambled_semantic"":""8"",""num_scrambled_causal"":""4"",""num_scrambled_schematic"":""4"",""participantId"":""B1A83D80254E4A3CB81D98E6917A3C6B"",""assignmentId"":""07962425-98bf-4916-b7fe-808a1cbc032a"",""projectId"":""051c06f1-75cc-4548-856d-4923ddaba0dc""}","https://test12345.live/?num_scrambled_semantic=8&num_scrambled_causal=4&num_scrambled_schematic=4&participantId=B1A83D80254E4A3CB81D98E6917A3C6B&assignmentId=07962425-98bf-4916-b7fe-808a1cbc032a&projectId=051c06f1-75cc-4548-856d-4923ddaba0dc","B1A83D80254E4A3CB81D98E6917A3C6B-2025-05-15-19-03-29","","null","","[]","null","",""
"","","","","","instructions","21","239412","0.0-7.0","B1A83D80254E4A3CB81D98E6917A3C6B","B1A83D80254E4A3CB81D98E6917A3C6B","07962425-98bf-4916-b7fe-808a1cbc032a","051c06f1-75cc-4548-856d-4923ddaba0dc","{""num_scrambled_semantic"":""8"",""num_scrambled_causal"":""4"",""num_scrambled_schematic"":""4"",""participantId"":""B1A83D80254E4A3CB81D98E6917A3C6B"",""assignmentId"":""07962425-98bf-4916-b7fe-808a1cbc032a"",""projectId"":""051c06f1-75cc-4548-856d-4923ddaba0dc""}","https://test12345.live/?num_scrambled_semantic=8&num_scrambled_causal=4&num_scrambled_schematic=4&participantId=B1A83D80254E4A3CB81D98E6917A3C6B&assignmentId=07962425-98bf-4916-b7fe-808a1cbc032a&projectId=051c06f1-75cc-4548-856d-4923ddaba0dc","B1A83D80254E4A3CB81D98E6917A3C6B-2025-05-15-19-03-29","[{""page_index"":0,""viewing_time"":33368},{""page_index"":1,""viewing_time"":1423}]","34791","","","","",""
"","","","","","html-audio-response","22","251811","0.0-8.0","B1A83D80254E4A3CB81D98E6917A3C6B","B1A83D80254E4A3CB81D98E6917A3C6B","07962425-98bf-4916-b7fe-808a1cbc032a","051c06f1-75cc-4548-856d-4923ddaba0dc","{""num_scrambled_semantic"":""8"",""num_scrambled_causal"":""4"",""num_scrambled_schematic"":""4"",""participantId"":""B1A83D80254E4A3CB81D98E6917A3C6B"",""assignmentId"":""07962425-98bf-4916-b7fe-808a1cbc032a"",""projectId"":""051c06f1-75cc-4548-856d-4923ddaba0dc""}","https://test12345.live/?num_scrambled_semantic=8&num_scrambled_causal=4&num_scrambled_schematic=4&participantId=B1A83D80254E4A3CB81D98E6917A3C6B&assignmentId=07962425-98bf-4916-b7fe-808a1cbc032a&projectId=051c06f1-75cc-4548-856d-4923ddaba0dc","B1A83D80254E4A3CB81D98E6917A3C6B-2025-05-15-19-03-29","","11194","","[""<span style=\""color: red; font-size: 24px\""> NOW RECORDING</span><p>Please say out loud all the images you saw, as many as you can remember. The images can be said in any order.</p>""]","","10",""
"","","","","","instructions","23","253669","0.0-9.0","B1A83D80254E4A3CB81D98E6917A3C6B","B1A83D80254E4A3CB81D98E6917A3C6B","07962425-98bf-4916-b7fe-808a1cbc032a","051c06f1-75cc-4548-856d-4923ddaba0dc","{""num_scrambled_semantic"":""8"",""num_scrambled_causal"":""4"",""num_scrambled_schematic"":""4"",""participantId"":""B1A83D80254E4A3CB81D98E6917A3C6B"",""assignmentId"":""07962425-98bf-4916-b7fe-808a1cbc032a"",""projectId"":""051c06f1-75cc-4548-856d-4923ddaba0dc""}","https://test12345.live/?num_scrambled_semantic=8&num_scrambled_causal=4&num_scrambled_schematic=4&participantId=B1A83D80254E4A3CB81D98E6917A3C6B&assignmentId=07962425-98bf-4916-b7fe-808a1cbc032a&projectId=051c06f1-75cc-4548-856d-4923ddaba0dc","B1A83D80254E4A3CB81D98E6917A3C6B-2025-05-15-19-03-29","[{""page_index"":0,""viewing_time"":1846}]","1846","","","","",""
"","","","","","image-button-response","24","259675","0.0-10.0-0.0","B1A83D80254E4A3CB81D98E6917A3C6B","B1A83D80254E4A3CB81D98E6917A3C6B","07962425-98bf-4916-b7fe-808a1cbc032a","051c06f1-75cc-4548-856d-4923ddaba0dc","{""num_scrambled_semantic"":""8"",""num_scrambled_causal"":""4"",""num_scrambled_schematic"":""4"",""participantId"":""B1A83D80254E4A3CB81D98E6917A3C6B"",""assignmentId"":""07962425-98bf-4916-b7fe-808a1cbc032a"",""projectId"":""051c06f1-75cc-4548-856d-4923ddaba0dc""}","https://test12345.live/?num_scrambled_semantic=8&num_scrambled_causal=4&num_scrambled_schematic=4&participantId=B1A83D80254E4A3CB81D98E6917A3C6B&assignmentId=07962425-98bf-4916-b7fe-808a1cbc032a&projectId=051c06f1-75cc-4548-856d-4923ddaba0dc","B1A83D80254E4A3CB81D98E6917A3C6B-2025-05-15-19-03-29","","null","","images/semantic_sequence/physical_activity_semantic/physical_activity_semantic_0.png","null","",""
"","","","","","image-button-response","25","264180","0.0-10.0-1.0-0.0","B1A83D80254E4A3CB81D98E6917A3C6B","B1A83D80254E4A3CB81D98E6917A3C6B","07962425-98bf-4916-b7fe-808a1cbc032a","051c06f1-75cc-4548-856d-4923ddaba0dc","{""num_scrambled_semantic"":""8"",""num_scrambled_causal"":""4"",""num_scrambled_schematic"":""4"",""participantId"":""B1A83D80254E4A3CB81D98E6917A3C6B"",""assignmentId"":""07962425-98bf-4916-b7fe-808a1cbc032a"",""projectId"":""051c06f1-75cc-4548-856d-4923ddaba0dc""}","https://test12345.live/?num_scrambled_semantic=8&num_scrambled_causal=4&num_scrambled_schematic=4&participantId=B1A83D80254E4A3CB81D98E6917A3C6B&assignmentId=07962425-98bf-4916-b7fe-808a1cbc032a&projectId=051c06f1-75cc-4548-856d-4923ddaba0dc","B1A83D80254E4A3CB81D98E6917A3C6B-2025-05-15-19-03-29","","null","","images/semantic_sequence/physical_activity_semantic/physical_activity_semantic_ten.png","null","",""
"","","","","","image-button-response","26","268190","0.0-10.0-1.0-1.0","B1A83D80254E4A3CB81D98E6917A3C6B","B1A83D80254E4A3CB81D98E6917A3C6B","07962425-98bf-4916-b7fe-808a1cbc032a","051c06f1-75cc-4548-856d-4923ddaba0dc","{""num_scrambled_semantic"":""8"",""num_scrambled_causal"":""4"",""num_scrambled_schematic"":""4"",""participantId"":""B1A83D80254E4A3CB81D98E6917A3C6B"",""assignmentId"":""07962425-98bf-4916-b7fe-808a1cbc032a"",""projectId"":""051c06f1-75cc-4548-856d-4923ddaba0dc""}","https://test12345.live/?num_scrambled_semantic=8&num_scrambled_causal=4&num_scrambled_schematic=4&participantId=B1A83D80254E4A3CB81D98E6917A3C6B&assignmentId=07962425-98bf-4916-b7fe-808a1cbc032a&projectId=051c06f1-75cc-4548-856d-4923ddaba0dc","B1A83D80254E4A3CB81D98E6917A3C6B-2025-05-15-19-03-29","","null","","images/semantic_sequence/physical_activity_semantic/physical_activity_semantic_ten.png","null","",""
"","","","","","image-button-response","27","269995","0.0-10.0-1.0-2.0","B1A83D80254E4A3CB81D98E6917A3C6B","B1A83D80254E4A3CB81D98E6917A3C6B","07962425-98bf-4916-b7fe-808a1cbc032a","051c06f1-75cc-4548-856d-4923ddaba0dc","{""num_scrambled_semantic"":""8"",""num_scrambled_causal"":""4"",""num_scrambled_schematic"":""4"",""participantId"":""B1A83D80254E4A3CB81D98E6917A3C6B"",""assignmentId"":""07962425-98bf-4916-b7fe-808a1cbc032a"",""projectId"":""051c06f1-75cc-4548-856d-4923ddaba0dc""}","https://test12345.live/?num_scrambled_semantic=8&num_scrambled_causal=4&num_scrambled_schematic=4&participantId=B1A83D80254E4A3CB81D98E6917A3C6B&assignmentId=07962425-98bf-4916-b7fe-808a1cbc032a&projectId=051c06f1-75cc-4548-856d-4923ddaba0dc","B1A83D80254E4A3CB81D98E6917A3C6B-2025-05-15-19-03-29","","null","","[]","null","",""
"","","","","","image-button-response","28","274506","0.0-10.0-1.0-0.1","B1A83D80254E4A3CB81D98E6917A3C6B","B1A83D80254E4A3CB81D98E6917A3C6B","07962425-98bf-4916-b7fe-808a1cbc032a","051c06f1-75cc-4548-856d-4923ddaba0dc","{""num_scrambled_semantic"":""8"",""num_scrambled_causal"":""4"",""num_scrambled_schematic"":""4"",""participantId"":""B1A83D80254E4A3CB81D98E6917A3C6B"",""assignmentId"":""07962425-98bf-4916-b7fe-808a1cbc032a"",""projectId"":""051c06f1-75cc-4548-856d-4923ddaba0dc""}","https://test12345.live/?num_scrambled_semantic=8&num_scrambled_causal=4&num_scrambled_schematic=4&participantId=B1A83D80254E4A3CB81D98E6917A3C6B&assignmentId=07962425-98bf-4916-b7fe-808a1cbc032a&projectId=051c06f1-75cc-4548-856d-4923ddaba0dc","B1A83D80254E4A3CB81D98E6917A3C6B-2025-05-15-19-03-29","","null","","images/semantic_sequence/physical_activity_semantic/physical_activity_semantic_5.png","null","",""
"","","","","","image-button-response","29","276105","0.0-10.0-1.0-1.1","B1A83D80254E4A3CB81D98E6917A3C6B","B1A83D80254E4A3CB81D98E6917A3C6B","07962425-98bf-4916-b7fe-808a1cbc032a","051c06f1-75cc-4548-856d-4923ddaba0dc","{""num_scrambled_semantic"":""8"",""num_scrambled_causal"":""4"",""num_scrambled_schematic"":""4"",""participantId"":""B1A83D80254E4A3CB81D98E6917A3C6B"",""assignmentId"":""07962425-98bf-4916-b7fe-808a1cbc032a"",""projectId"":""051c06f1-75cc-4548-856d-4923ddaba0dc""}","https://test12345.live/?num_scrambled_semantic=8&num_scrambled_causal=4&num_scrambled_schematic=4&participantId=B1A83D80254E4A3CB81D98E6917A3C6B&assignmentId=07962425-98bf-4916-b7fe-808a1cbc032a&projectId=051c06f1-75cc-4548-856d-4923ddaba0dc","B1A83D80254E4A3CB81D98E6917A3C6B-2025-05-15-19-03-29","","1597","","images/semantic_sequence/physical_activity_semantic/physical_activity_semantic_5.png","0","",""
"","","","","","image-button-response","30","277915","0.0-10.0-1.0-2.1","B1A83D80254E4A3CB81D98E6917A3C6B","B1A83D80254E4A3CB81D98E6917A3C6B","07962425-98bf-4916-b7fe-808a1cbc032a","051c06f1-75cc-4548-856d-4923ddaba0dc","{""num_scrambled_semantic"":""8"",""num_scrambled_causal"":""4"",""num_scrambled_schematic"":""4"",""participantId"":""B1A83D80254E4A3CB81D98E6917A3C6B"",""assignmentId"":""07962425-98bf-4916-b7fe-808a1cbc032a"",""projectId"":""051c06f1-75cc-4548-856d-4923ddaba0dc""}","https://test12345.live/?num_scrambled_semantic=8&num_scrambled_causal=4&num_scrambled_schematic=4&participantId=B1A83D80254E4A3CB81D98E6917A3C6B&assignmentId=07962425-98bf-4916-b7fe-808a1cbc032a&projectId=051c06f1-75cc-4548-856d-4923ddaba0dc","B1A83D80254E4A3CB81D98E6917A3C6B-2025-05-15-19-03-29","","null","","[]","null","",""
"","","","","","image-button-response","31","282418","0.0-10.0-1.0-0.2","B1A83D80254E4A3CB81D98E6917A3C6B","B1A83D80254E4A3CB81D98E6917A3C6B","07962425-98bf-4916-b7fe-808a1cbc032a","051c06f1-75cc-4548-856d-4923ddaba0dc","{""num_scrambled_semantic"":""8"",""num_scrambled_causal"":""4"",""num_scrambled_schematic"":""4"",""participantId"":""B1A83D80254E4A3CB81D98E6917A3C6B"",""assignmentId"":""07962425-98bf-4916-b7fe-808a1cbc032a"",""projectId"":""051c06f1-75cc-4548-856d-4923ddaba0dc""}","https://test12345.live/?num_scrambled_semantic=8&num_scrambled_causal=4&num_scrambled_schematic=4&participantId=B1A83D80254E4A3CB81D98E6917A3C6B&assignmentId=07962425-98bf-4916-b7fe-808a1cbc032a&projectId=051c06f1-75cc-4548-856d-4923ddaba0dc","B1A83D80254E4A3CB81D98E6917A3C6B-2025-05-15-19-03-29","","null","","images/semantic_sequence/physical_activity_semantic/physical_activity_semantic_1.png","null","",""
"","","","","","image-button-response","32","285623","0.0-10.0-1.0-1.2","B1A83D80254E4A3CB81D98E6917A3C6B","B1A83D80254E4A3CB81D98E6917A3C6B","07962425-98bf-4916-b7fe-808a1cbc032a","051c06f1-75cc-4548-856d-4923ddaba0dc","{""num_scrambled_semantic"":""8"",""num_scrambled_causal"":""4"",""num_scrambled_schematic"":""4"",""participantId"":""B1A83D80254E4A3CB81D98E6917A3C6B"",""assignmentId"":""07962425-98bf-4916-b7fe-808a1cbc032a"",""projectId"":""051c06f1-75cc-4548-856d-4923ddaba0dc""}","https://test12345.live/?num_scrambled_semantic=8&num_scrambled_causal=4&num_scrambled_schematic=4&participantId=B1A83D80254E4A3CB81D98E6917A3C6B&assignmentId=07962425-98bf-4916-b7fe-808a1cbc032a&projectId=051c06f1-75cc-4548-856d-4923ddaba0dc","B1A83D80254E4A3CB81D98E6917A3C6B-2025-05-15-19-03-29","","3204","","images/semantic_sequence/physical_activity_semantic/physical_activity_semantic_1.png","0","",""
"","","","","","image-button-response","33","287426","0.0-10.0-1.0-2.2","B1A83D80254E4A3CB81D98E6917A3C6B","B1A83D80254E4A3CB81D98E6917A3C6B","07962425-98bf-4916-b7fe-808a1cbc032a","051c06f1-75cc-4548-856d-4923ddaba0dc","{""num_scrambled_semantic"":""8"",""num_scrambled_causal"":""4"",""num_scrambled_schematic"":""4"",""participantId"":""B1A83D80254E4A3CB81D98E6917A3C6B"",""assignmentId"":""07962425-98bf-4916-b7fe-808a1cbc032a"",""projectId"":""051c06f1-75cc-4548-856d-4923ddaba0dc""}","https://test12345.live/?num_scrambled_semantic=8&num_scrambled_causal=4&num_scrambled_schematic=4&participantId=B1A83D80254E4A3CB81D98E6917A3C6B&assignmentId=07962425-98bf-4916-b7fe-808a1cbc032a&projectId=051c06f1-75cc-4548-856d-4923ddaba0dc","B1A83D80254E4A3CB81D98E6917A3C6B-2025-05-15-19-03-29","","null","","[]","null","",""
"","","","","","image-button-response","34","291935","0.0-10.0-1.0-0.3","B1A83D80254E4A3CB81D98E6917A3C6B","B1A83D80254E4A3CB81D98E6917A3C6B","07962425-98bf-4916-b7fe-808a1cbc032a","051c06f1-75cc-4548-856d-4923ddaba0dc","{""num_scrambled_semantic"":""8"",""num_scrambled_causal"":""4"",""num_scrambled_schematic"":""4"",""participantId"":""B1A83D80254E4A3CB81D98E6917A3C6B"",""assignmentId"":""07962425-98bf-4916-b7fe-808a1cbc032a"",""projectId"":""051c06f1-75cc-4548-856d-4923ddaba0dc""}","https://test12345.live/?num_scrambled_semantic=8&num_scrambled_causal=4&num_scrambled_schematic=4&participantId=B1A83D80254E4A3CB81D98E6917A3C6B&assignmentId=07962425-98bf-4916-b7fe-808a1cbc032a&projectId=051c06f1-75cc-4548-856d-4923ddaba0dc","B1A83D80254E4A3CB81D98E6917A3C6B-2025-05-15-19-03-29","","null","","images/semantic_sequence/physical_activity_semantic/physical_activity_semantic_6.png","null","",""
"","","","","","image-button-response","35","293316","0.0-10.0-1.0-1.3","B1A83D80254E4A3CB81D98E6917A3C6B","B1A83D80254E4A3CB81D98E6917A3C6B","07962425-98bf-4916-b7fe-808a1cbc032a","051c06f1-75cc-4548-856d-4923ddaba0dc","{""num_scrambled_semantic"":""8"",""num_scrambled_causal"":""4"",""num_scrambled_schematic"":""4"",""participantId"":""B1A83D80254E4A3CB81D98E6917A3C6B"",""assignmentId"":""07962425-98bf-4916-b7fe-808a1cbc032a"",""projectId"":""051c06f1-75cc-4548-856d-4923ddaba0dc""}","https://test12345.live/?num_scrambled_semantic=8&num_scrambled_causal=4&num_scrambled_schematic=4&participantId=B1A83D80254E4A3CB81D98E6917A3C6B&assignmentId=07962425-98bf-4916-b7fe-808a1cbc032a&projectId=051c06f1-75cc-4548-856d-4923ddaba0dc","B1A83D80254E4A3CB81D98E6917A3C6B-2025-05-15-19-03-29","","1379","","images/semantic_sequence/physical_activity_semantic/physical_activity_semantic_6.png","0","",""
"","","","","","image-button-response","36","295125","0.0-10.0-1.0-2.3","B1A83D80254E4A3CB81D98E6917A3C6B","B1A83D80254E4A3CB81D98E6917A3C6B","07962425-98bf-4916-b7fe-808a1cbc032a","051c06f1-75cc-4548-856d-4923ddaba0dc","{""num_scrambled_semantic"":""8"",""num_scrambled_causal"":""4"",""num_scrambled_schematic"":""4"",""participantId"":""B1A83D80254E4A3CB81D98E6917A3C6B"",""assignmentId"":""07962425-98bf-4916-b7fe-808a1cbc032a"",""projectId"":""051c06f1-75cc-4548-856d-4923ddaba0dc""}","https://test12345.live/?num_scrambled_semantic=8&num_scrambled_causal=4&num_scrambled_schematic=4&participantId=B1A83D80254E4A3CB81D98E6917A3C6B&assignmentId=07962425-98bf-4916-b7fe-808a1cbc032a&projectId=051c06f1-75cc-4548-856d-4923ddaba0dc","B1A83D80254E4A3CB81D98E6917A3C6B-2025-05-15-19-03-29","","null","","[]","null","",""
"","","","","","image-button-response","37","299628","0.0-10.0-1.0-0.4","B1A83D80254E4A3CB81D98E6917A3C6B","B1A83D80254E4A3CB81D98E6917A3C6B","07962425-98bf-4916-b7fe-808a1cbc032a","051c06f1-75cc-4548-856d-4923ddaba0dc","{""num_scrambled_semantic"":""8"",""num_scrambled_causal"":""4"",""num_scrambled_schematic"":""4"",""participantId"":""B1A83D80254E4A3CB81D98E6917A3C6B"",""assignmentId"":""07962425-98bf-4916-b7fe-808a1cbc032a"",""projectId"":""051c06f1-75cc-4548-856d-4923ddaba0dc""}","https://test12345.live/?num_scrambled_semantic=8&num_scrambled_causal=4&num_scrambled_schematic=4&participantId=B1A83D80254E4A3CB81D98E6917A3C6B&assignmentId=07962425-98bf-4916-b7fe-808a1cbc032a&projectId=051c06f1-75cc-4548-856d-4923ddaba0dc","B1A83D80254E4A3CB81D98E6917A3C6B-2025-05-15-19-03-29","","null","","images/semantic_sequence/physical_activity_semantic/physical_activity_semantic_7.png","null","",""
"","","","","","image-button-response","38","300559","0.0-10.0-1.0-1.4","B1A83D80254E4A3CB81D98E6917A3C6B","B1A83D80254E4A3CB81D98E6917A3C6B","07962425-98bf-4916-b7fe-808a1cbc032a","051c06f1-75cc-4548-856d-4923ddaba0dc","{""num_scrambled_semantic"":""8"",""num_scrambled_causal"":""4"",""num_scrambled_schematic"":""4"",""participantId"":""B1A83D80254E4A3CB81D98E6917A3C6B"",""assignmentId"":""07962425-98bf-4916-b7fe-808a1cbc032a"",""projectId"":""051c06f1-75cc-4548-856d-4923ddaba0dc""}","https://test12345.live/?num_scrambled_semantic=8&num_scrambled_causal=4&num_scrambled_schematic=4&participantId=B1A83D80254E4A3CB81D98E6917A3C6B&assignmentId=07962425-98bf-4916-b7fe-808a1cbc032a&projectId=051c06f1-75cc-4548-856d-4923ddaba0dc","B1A83D80254E4A3CB81D98E6917A3C6B-2025-05-15-19-03-29","","929","","images/semantic_sequence/physical_activity_semantic/physical_activity_semantic_7.png","0","",""
"","","","","","image-button-response","39","302372","0.0-10.0-1.0-2.4","B1A83D80254E4A3CB81D98E6917A3C6B","B1A83D80254E4A3CB81D98E6917A3C6B","07962425-98bf-4916-b7fe-808a1cbc032a","051c06f1-75cc-4548-856d-4923ddaba0dc","{""num_scrambled_semantic"":""8"",""num_scrambled_causal"":""4"",""num_scrambled_schematic"":""4"",""participantId"":""B1A83D80254E4A3CB81D98E6917A3C6B"",""assignmentId"":""07962425-98bf-4916-b7fe-808a1cbc032a"",""projectId"":""051c06f1-75cc-4548-856d-4923ddaba0dc""}","https://test12345.live/?num_scrambled_semantic=8&num_scrambled_causal=4&num_scrambled_schematic=4&participantId=B1A83D80254E4A3CB81D98E6917A3C6B&assignmentId=07962425-98bf-4916-b7fe-808a1cbc032a&projectId=051c06f1-75cc-4548-856d-4923ddaba0dc","B1A83D80254E4A3CB81D98E6917A3C6B-2025-05-15-19-03-29","","null","","[]","null","",""
"","","","","","image-button-response","40","306875","0.0-10.0-1.0-0.5","B1A83D80254E4A3CB81D98E6917A3C6B","B1A83D80254E4A3CB81D98E6917A3C6B","07962425-98bf-4916-b7fe-808a1cbc032a","051c06f1-75cc-4548-856d-4923ddaba0dc","{""num_scrambled_semantic"":""8"",""num_scrambled_causal"":""4"",""num_scrambled_schematic"":""4"",""participantId"":""B1A83D80254E4A3CB81D98E6917A3C6B"",""assignmentId"":""07962425-98bf-4916-b7fe-808a1cbc032a"",""projectId"":""051c06f1-75cc-4548-856d-4923ddaba0dc""}","https://test12345.live/?num_scrambled_semantic=8&num_scrambled_causal=4&num_scrambled_schematic=4&participantId=B1A83D80254E4A3CB81D98E6917A3C6B&assignmentId=07962425-98bf-4916-b7fe-808a1cbc032a&projectId=051c06f1-75cc-4548-856d-4923ddaba0dc","B1A83D80254E4A3CB81D98E6917A3C6B-2025-05-15-19-03-29","","null","","images/semantic_sequence/physical_activity_semantic/physical_activity_semantic_2.png","null","",""
"","","","","","image-button-response","41","307991","0.0-10.0-1.0-1.5","B1A83D80254E4A3CB81D98E6917A3C6B","B1A83D80254E4A3CB81D98E6917A3C6B","07962425-98bf-4916-b7fe-808a1cbc032a","051c06f1-75cc-4548-856d-4923ddaba0dc","{""num_scrambled_semantic"":""8"",""num_scrambled_causal"":""4"",""num_scrambled_schematic"":""4"",""participantId"":""B1A83D80254E4A3CB81D98E6917A3C6B"",""assignmentId"":""07962425-98bf-4916-b7fe-808a1cbc032a"",""projectId"":""051c06f1-75cc-4548-856d-4923ddaba0dc""}","https://test12345.live/?num_scrambled_semantic=8&num_scrambled_causal=4&num_scrambled_schematic=4&participantId=B1A83D80254E4A3CB81D98E6917A3C6B&assignmentId=07962425-98bf-4916-b7fe-808a1cbc032a&projectId=051c06f1-75cc-4548-856d-4923ddaba0dc","B1A83D80254E4A3CB81D98E6917A3C6B-2025-05-15-19-03-29","","1115","","images/semantic_sequence/physical_activity_semantic/physical_activity_semantic_2.png","0","",""
"","","","","","image-button-response","42","309800","0.0-10.0-1.0-2.5","B1A83D80254E4A3CB81D98E6917A3C6B","B1A83D80254E4A3CB81D98E6917A3C6B","07962425-98bf-4916-b7fe-808a1cbc032a","051c06f1-75cc-4548-856d-4923ddaba0dc","{""num_scrambled_semantic"":""8"",""num_scrambled_causal"":""4"",""num_scrambled_schematic"":""4"",""participantId"":""B1A83D80254E4A3CB81D98E6917A3C6B"",""assignmentId"":""07962425-98bf-4916-b7fe-808a1cbc032a"",""projectId"":""051c06f1-75cc-4548-856d-4923ddaba0dc""}","https://test12345.live/?num_scrambled_semantic=8&num_scrambled_causal=4&num_scrambled_schematic=4&participantId=B1A83D80254E4A3CB81D98E6917A3C6B&assignmentId=07962425-98bf-4916-b7fe-808a1cbc032a&projectId=051c06f1-75cc-4548-856d-4923ddaba0dc","B1A83D80254E4A3CB81D98E6917A3C6B-2025-05-15-19-03-29","","null","","[]","null","",""
"","","","","","image-button-response","43","314305","0.0-10.0-1.0-0.6","B1A83D80254E4A3CB81D98E6917A3C6B","B1A83D80254E4A3CB81D98E6917A3C6B","07962425-98bf-4916-b7fe-808a1cbc032a","051c06f1-75cc-4548-856d-4923ddaba0dc","{""num_scrambled_semantic"":""8"",""num_scrambled_causal"":""4"",""num_scrambled_schematic"":""4"",""participantId"":""B1A83D80254E4A3CB81D98E6917A3C6B"",""assignmentId"":""07962425-98bf-4916-b7fe-808a1cbc032a"",""projectId"":""051c06f1-75cc-4548-856d-4923ddaba0dc""}","https://test12345.live/?num_scrambled_semantic=8&num_scrambled_causal=4&num_scrambled_schematic=4&participantId=B1A83D80254E4A3CB81D98E6917A3C6B&assignmentId=07962425-98bf-4916-b7fe-808a1cbc032a&projectId=051c06f1-75cc-4548-856d-4923ddaba0dc","B1A83D80254E4A3CB81D98E6917A3C6B-2025-05-15-19-03-29","","null","","images/semantic_sequence/physical_activity_semantic/physical_activity_semantic_4.png","null","",""
"","","","","","image-button-response","44","315084","0.0-10.0-1.0-1.6","B1A83D80254E4A3CB81D98E6917A3C6B","B1A83D80254E4A3CB81D98E6917A3C6B","07962425-98bf-4916-b7fe-808a1cbc032a","051c06f1-75cc-4548-856d-4923ddaba0dc","{""num_scrambled_semantic"":""8"",""num_scrambled_causal"":""4"",""num_scrambled_schematic"":""4"",""participantId"":""B1A83D80254E4A3CB81D98E6917A3C6B"",""assignmentId"":""07962425-98bf-4916-b7fe-808a1cbc032a"",""projectId"":""051c06f1-75cc-4548-856d-4923ddaba0dc""}","https://test12345.live/?num_scrambled_semantic=8&num_scrambled_causal=4&num_scrambled_schematic=4&participantId=B1A83D80254E4A3CB81D98E6917A3C6B&assignmentId=07962425-98bf-4916-b7fe-808a1cbc032a&projectId=051c06f1-75cc-4548-856d-4923ddaba0dc","B1A83D80254E4A3CB81D98E6917A3C6B-2025-05-15-19-03-29","","777","","images/semantic_sequence/physical_activity_semantic/physical_activity_semantic_4.png","0","",""
"","","","","","image-button-response","45","316902","0.0-10.0-1.0-2.6","B1A83D80254E4A3CB81D98E6917A3C6B","B1A83D80254E4A3CB81D98E6917A3C6B","07962425-98bf-4916-b7fe-808a1cbc032a","051c06f1-75cc-4548-856d-4923ddaba0dc","{""num_scrambled_semantic"":""8"",""num_scrambled_causal"":""4"",""num_scrambled_schematic"":""4"",""participantId"":""B1A83D80254E4A3CB81D98E6917A3C6B"",""assignmentId"":""07962425-98bf-4916-b7fe-808a1cbc032a"",""projectId"":""051c06f1-75cc-4548-856d-4923ddaba0dc""}","https://test12345.live/?num_scrambled_semantic=8&num_scrambled_causal=4&num_scrambled_schematic=4&participantId=B1A83D80254E4A3CB81D98E6917A3C6B&assignmentId=07962425-98bf-4916-b7fe-808a1cbc032a&projectId=051c06f1-75cc-4548-856d-4923ddaba0dc","B1A83D80254E4A3CB81D98E6917A3C6B-2025-05-15-19-03-29","","null","","[]","null","",""
"","","","","","image-button-response","46","321420","0.0-10.0-1.0-0.7","B1A83D80254E4A3CB81D98E6917A3C6B","B1A83D80254E4A3CB81D98E6917A3C6B","07962425-98bf-4916-b7fe-808a1cbc032a","051c06f1-75cc-4548-856d-4923ddaba0dc","{""num_scrambled_semantic"":""8"",""num_scrambled_causal"":""4"",""num_scrambled_schematic"":""4"",""participantId"":""B1A83D80254E4A3CB81D98E6917A3C6B"",""assignmentId"":""07962425-98bf-4916-b7fe-808a1cbc032a"",""projectId"":""051c06f1-75cc-4548-856d-4923ddaba0dc""}","https://test12345.live/?num_scrambled_semantic=8&num_scrambled_causal=4&num_scrambled_schematic=4&participantId=B1A83D80254E4A3CB81D98E6917A3C6B&assignmentId=07962425-98bf-4916-b7fe-808a1cbc032a&projectId=051c06f1-75cc-4548-856d-4923ddaba0dc","B1A83D80254E4A3CB81D98E6917A3C6B-2025-05-15-19-03-29","","null","","images/semantic_sequence/physical_activity_semantic/physical_activity_semantic_9.png","null","",""
"","","","","","image-button-response","47","322573","0.0-10.0-1.0-1.7","B1A83D80254E4A3CB81D98E6917A3C6B","B1A83D80254E4A3CB81D98E6917A3C6B","07962425-98bf-4916-b7fe-808a1cbc032a","051c06f1-75cc-4548-856d-4923ddaba0dc","{""num_scrambled_semantic"":""8"",""num_scrambled_causal"":""4"",""num_scrambled_schematic"":""4"",""participantId"":""B1A83D80254E4A3CB81D98E6917A3C6B"",""assignmentId"":""07962425-98bf-4916-b7fe-808a1cbc032a"",""projectId"":""051c06f1-75cc-4548-856d-4923ddaba0dc""}","https://test12345.live/?num_scrambled_semantic=8&num_scrambled_causal=4&num_scrambled_schematic=4&participantId=B1A83D80254E4A3CB81D98E6917A3C6B&assignmentId=07962425-98bf-4916-b7fe-808a1cbc032a&projectId=051c06f1-75cc-4548-856d-4923ddaba0dc","B1A83D80254E4A3CB81D98E6917A3C6B-2025-05-15-19-03-29","","1150","","images/semantic_sequence/physical_activity_semantic/physical_activity_semantic_9.png","0","",""
"","","","","","image-button-response","48","324389","0.0-10.0-1.0-2.7","B1A83D80254E4A3CB81D98E6917A3C6B","B1A83D80254E4A3CB81D98E6917A3C6B","07962425-98bf-4916-b7fe-808a1cbc032a","051c06f1-75cc-4548-856d-4923ddaba0dc","{""num_scrambled_semantic"":""8"",""num_scrambled_causal"":""4"",""num_scrambled_schematic"":""4"",""participantId"":""B1A83D80254E4A3CB81D98E6917A3C6B"",""assignmentId"":""07962425-98bf-4916-b7fe-808a1cbc032a"",""projectId"":""051c06f1-75cc-4548-856d-4923ddaba0dc""}","https://test12345.live/?num_scrambled_semantic=8&num_scrambled_causal=4&num_scrambled_schematic=4&participantId=B1A83D80254E4A3CB81D98E6917A3C6B&assignmentId=07962425-98bf-4916-b7fe-808a1cbc032a&projectId=051c06f1-75cc-4548-856d-4923ddaba0dc","B1A83D80254E4A3CB81D98E6917A3C6B-2025-05-15-19-03-29","","null","","[]","null","",""
"","","","","","image-button-response","49","328905","0.0-10.0-1.0-0.8","B1A83D80254E4A3CB81D98E6917A3C6B","B1A83D80254E4A3CB81D98E6917A3C6B","07962425-98bf-4916-b7fe-808a1cbc032a","051c06f1-75cc-4548-856d-4923ddaba0dc","{""num_scrambled_semantic"":""8"",""num_scrambled_causal"":""4"",""num_scrambled_schematic"":""4"",""participantId"":""B1A83D80254E4A3CB81D98E6917A3C6B"",""assignmentId"":""07962425-98bf-4916-b7fe-808a1cbc032a"",""projectId"":""051c06f1-75cc-4548-856d-4923ddaba0dc""}","https://test12345.live/?num_scrambled_semantic=8&num_scrambled_causal=4&num_scrambled_schematic=4&participantId=B1A83D80254E4A3CB81D98E6917A3C6B&assignmentId=07962425-98bf-4916-b7fe-808a1cbc032a&projectId=051c06f1-75cc-4548-856d-4923ddaba0dc","B1A83D80254E4A3CB81D98E6917A3C6B-2025-05-15-19-03-29","","null","","images/semantic_sequence/physical_activity_semantic/physical_activity_semantic_8.png","null","",""
"","","","","","image-button-response","50","330599","0.0-10.0-1.0-1.8","B1A83D80254E4A3CB81D98E6917A3C6B","B1A83D80254E4A3CB81D98E6917A3C6B","07962425-98bf-4916-b7fe-808a1cbc032a","051c06f1-75cc-4548-856d-4923ddaba0dc","{""num_scrambled_semantic"":""8"",""num_scrambled_causal"":""4"",""num_scrambled_schematic"":""4"",""participantId"":""B1A83D80254E4A3CB81D98E6917A3C6B"",""assignmentId"":""07962425-98bf-4916-b7fe-808a1cbc032a"",""projectId"":""051c06f1-75cc-4548-856d-4923ddaba0dc""}","https://test12345.live/?num_scrambled_semantic=8&num_scrambled_causal=4&num_scrambled_schematic=4&participantId=B1A83D80254E4A3CB81D98E6917A3C6B&assignmentId=07962425-98bf-4916-b7fe-808a1cbc032a&projectId=051c06f1-75cc-4548-856d-4923ddaba0dc","B1A83D80254E4A3CB81D98E6917A3C6B-2025-05-15-19-03-29","","1691","","images/semantic_sequence/physical_activity_semantic/physical_activity_semantic_8.png","0","",""
"","","","","","image-button-response","51","332426","0.0-10.0-1.0-2.8","B1A83D80254E4A3CB81D98E6917A3C6B","B1A83D80254E4A3CB81D98E6917A3C6B","07962425-98bf-4916-b7fe-808a1cbc032a","051c06f1-75cc-4548-856d-4923ddaba0dc","{""num_scrambled_semantic"":""8"",""num_scrambled_causal"":""4"",""num_scrambled_schematic"":""4"",""participantId"":""B1A83D80254E4A3CB81D98E6917A3C6B"",""assignmentId"":""07962425-98bf-4916-b7fe-808a1cbc032a"",""projectId"":""051c06f1-75cc-4548-856d-4923ddaba0dc""}","https://test12345.live/?num_scrambled_semantic=8&num_scrambled_causal=4&num_scrambled_schematic=4&participantId=B1A83D80254E4A3CB81D98E6917A3C6B&assignmentId=07962425-98bf-4916-b7fe-808a1cbc032a&projectId=051c06f1-75cc-4548-856d-4923ddaba0dc","B1A83D80254E4A3CB81D98E6917A3C6B-2025-05-15-19-03-29","","null","","[]","null","",""
"","","","","","image-button-response","52","336941","0.0-10.0-1.0-0.9","B1A83D80254E4A3CB81D98E6917A3C6B","B1A83D80254E4A3CB81D98E6917A3C6B","07962425-98bf-4916-b7fe-808a1cbc032a","051c06f1-75cc-4548-856d-4923ddaba0dc","{""num_scrambled_semantic"":""8"",""num_scrambled_causal"":""4"",""num_scrambled_schematic"":""4"",""participantId"":""B1A83D80254E4A3CB81D98E6917A3C6B"",""assignmentId"":""07962425-98bf-4916-b7fe-808a1cbc032a"",""projectId"":""051c06f1-75cc-4548-856d-4923ddaba0dc""}","https://test12345.live/?num_scrambled_semantic=8&num_scrambled_causal=4&num_scrambled_schematic=4&participantId=B1A83D80254E4A3CB81D98E6917A3C6B&assignmentId=07962425-98bf-4916-b7fe-808a1cbc032a&projectId=051c06f1-75cc-4548-856d-4923ddaba0dc","B1A83D80254E4A3CB81D98E6917A3C6B-2025-05-15-19-03-29","","null","","images/semantic_sequence/physical_activity_semantic/physical_activity_semantic_3.png","null","",""
"","","","","","image-button-response","53","339825","0.0-10.0-1.0-1.9","B1A83D80254E4A3CB81D98E6917A3C6B","B1A83D80254E4A3CB81D98E6917A3C6B","07962425-98bf-4916-b7fe-808a1cbc032a","051c06f1-75cc-4548-856d-4923ddaba0dc","{""num_scrambled_semantic"":""8"",""num_scrambled_causal"":""4"",""num_scrambled_schematic"":""4"",""participantId"":""B1A83D80254E4A3CB81D98E6917A3C6B"",""assignmentId"":""07962425-98bf-4916-b7fe-808a1cbc032a"",""projectId"":""051c06f1-75cc-4548-856d-4923ddaba0dc""}","https://test12345.live/?num_scrambled_semantic=8&num_scrambled_causal=4&num_scrambled_schematic=4&participantId=B1A83D80254E4A3CB81D98E6917A3C6B&assignmentId=07962425-98bf-4916-b7fe-808a1cbc032a&projectId=051c06f1-75cc-4548-856d-4923ddaba0dc","B1A83D80254E4A3CB81D98E6917A3C6B-2025-05-15-19-03-29","","2881","","images/semantic_sequence/physical_activity_semantic/physical_activity_semantic_3.png","0","",""
"","","","","","image-button-response","54","341635","0.0-10.0-1.0-2.9","B1A83D80254E4A3CB81D98E6917A3C6B","B1A83D80254E4A3CB81D98E6917A3C6B","07962425-98bf-4916-b7fe-808a1cbc032a","051c06f1-75cc-4548-856d-4923ddaba0dc","{""num_scrambled_semantic"":""8"",""num_scrambled_causal"":""4"",""num_scrambled_schematic"":""4"",""participantId"":""B1A83D80254E4A3CB81D98E6917A3C6B"",""assignmentId"":""07962425-98bf-4916-b7fe-808a1cbc032a"",""projectId"":""051c06f1-75cc-4548-856d-4923ddaba0dc""}","https://test12345.live/?num_scrambled_semantic=8&num_scrambled_causal=4&num_scrambled_schematic=4&participantId=B1A83D80254E4A3CB81D98E6917A3C6B&assignmentId=07962425-98bf-4916-b7fe-808a1cbc032a&projectId=051c06f1-75cc-4548-856d-4923ddaba0dc","B1A83D80254E4A3CB81D98E6917A3C6B-2025-05-15-19-03-29","","null","","[]","null","",""
"","","","","","html-audio-response","55","361940","0.0-11.0","B1A83D80254E4A3CB81D98E6917A3C6B","B1A83D80254E4A3CB81D98E6917A3C6B","07962425-98bf-4916-b7fe-808a1cbc032a","051c06f1-75cc-4548-856d-4923ddaba0dc","{""num_scrambled_semantic"":""8"",""num_scrambled_causal"":""4"",""num_scrambled_schematic"":""4"",""participantId"":""B1A83D80254E4A3CB81D98E6917A3C6B"",""assignmentId"":""07962425-98bf-4916-b7fe-808a1cbc032a"",""projectId"":""051c06f1-75cc-4548-856d-4923ddaba0dc""}","https://test12345.live/?num_scrambled_semantic=8&num_scrambled_causal=4&num_scrambled_schematic=4&participantId=B1A83D80254E4A3CB81D98E6917A3C6B&assignmentId=07962425-98bf-4916-b7fe-808a1cbc032a&projectId=051c06f1-75cc-4548-856d-4923ddaba0dc","B1A83D80254E4A3CB81D98E6917A3C6B-2025-05-15-19-03-29","","12491","","[""<span style=\""color: red; font-size: 24px\""> NOW RECORDING</span><p>Please say out loud all the images you saw, as many as you can remember. The images can be said in any order.</p>""]","","9","physical_activity_semantic"
"","","","","","image-button-response","56","367951","0.0-12.0-0.0","B1A83D80254E4A3CB81D98E6917A3C6B","B1A83D80254E4A3CB81D98E6917A3C6B","07962425-98bf-4916-b7fe-808a1cbc032a","051c06f1-75cc-4548-856d-4923ddaba0dc","{""num_scrambled_semantic"":""8"",""num_scrambled_causal"":""4"",""num_scrambled_schematic"":""4"",""participantId"":""B1A83D80254E4A3CB81D98E6917A3C6B"",""assignmentId"":""07962425-98bf-4916-b7fe-808a1cbc032a"",""projectId"":""051c06f1-75cc-4548-856d-4923ddaba0dc""}","https://test12345.live/?num_scrambled_semantic=8&num_scrambled_causal=4&num_scrambled_schematic=4&participantId=B1A83D80254E4A3CB81D98E6917A3C6B&assignmentId=07962425-98bf-4916-b7fe-808a1cbc032a&projectId=051c06f1-75cc-4548-856d-4923ddaba0dc","B1A83D80254E4A3CB81D98E6917A3C6B-2025-05-15-19-03-29","","null","","images/semantic_sequence/using_technology_semantic/using_technology_semantic_0.png","null","",""
"","","","","","image-button-response","57","372454","0.0-12.0-1.0-0.0","B1A83D80254E4A3CB81D98E6917A3C6B","B1A83D80254E4A3CB81D98E6917A3C6B","07962425-98bf-4916-b7fe-808a1cbc032a","051c06f1-75cc-4548-856d-4923ddaba0dc","{""num_scrambled_semantic"":""8"",""num_scrambled_causal"":""4"",""num_scrambled_schematic"":""4"",""participantId"":""B1A83D80254E4A3CB81D98E6917A3C6B"",""assignmentId"":""07962425-98bf-4916-b7fe-808a1cbc032a"",""projectId"":""051c06f1-75cc-4548-856d-4923ddaba0dc""}","https://test12345.live/?num_scrambled_semantic=8&num_scrambled_causal=4&num_scrambled_schematic=4&participantId=B1A83D80254E4A3CB81D98E6917A3C6B&assignmentId=07962425-98bf-4916-b7fe-808a1cbc032a&projectId=051c06f1-75cc-4548-856d-4923ddaba0dc","B1A83D80254E4A3CB81D98E6917A3C6B-2025-05-15-19-03-29","","null","","images/semantic_sequence/using_technology_semantic/using_technology_semantic_5.png","null","",""
"","","","","","image-button-response","58","374380","0.0-12.0-1.0-1.0","B1A83D80254E4A3CB81D98E6917A3C6B","B1A83D80254E4A3CB81D98E6917A3C6B","07962425-98bf-4916-b7fe-808a1cbc032a","051c06f1-75cc-4548-856d-4923ddaba0dc","{""num_scrambled_semantic"":""8"",""num_scrambled_causal"":""4"",""num_scrambled_schematic"":""4"",""participantId"":""B1A83D80254E4A3CB81D98E6917A3C6B"",""assignmentId"":""07962425-98bf-4916-b7fe-808a1cbc032a"",""projectId"":""051c06f1-75cc-4548-856d-4923ddaba0dc""}","https://test12345.live/?num_scrambled_semantic=8&num_scrambled_causal=4&num_scrambled_schematic=4&participantId=B1A83D80254E4A3CB81D98E6917A3C6B&assignmentId=07962425-98bf-4916-b7fe-808a1cbc032a&projectId=051c06f1-75cc-4548-856d-4923ddaba0dc","B1A83D80254E4A3CB81D98E6917A3C6B-2025-05-15-19-03-29","","1923","","images/semantic_sequence/using_technology_semantic/using_technology_semantic_5.png","0","",""
"","","","","","image-button-response","59","376196","0.0-12.0-1.0-2.0","B1A83D80254E4A3CB81D98E6917A3C6B","B1A83D80254E4A3CB81D98E6917A3C6B","07962425-98bf-4916-b7fe-808a1cbc032a","051c06f1-75cc-4548-856d-4923ddaba0dc","{""num_scrambled_semantic"":""8"",""num_scrambled_causal"":""4"",""num_scrambled_schematic"":""4"",""participantId"":""B1A83D80254E4A3CB81D98E6917A3C6B"",""assignmentId"":""07962425-98bf-4916-b7fe-808a1cbc032a"",""projectId"":""051c06f1-75cc-4548-856d-4923ddaba0dc""}","https://test12345.live/?num_scrambled_semantic=8&num_scrambled_causal=4&num_scrambled_schematic=4&participantId=B1A83D80254E4A3CB81D98E6917A3C6B&assignmentId=07962425-98bf-4916-b7fe-808a1cbc032a&projectId=051c06f1-75cc-4548-856d-4923ddaba0dc","B1A83D80254E4A3CB81D98E6917A3C6B-2025-05-15-19-03-29","","null","","[]","null","",""
"","","","","","image-button-response","60","380711","0.0-12.0-1.0-0.1","B1A83D80254E4A3CB81D98E6917A3C6B","B1A83D80254E4A3CB81D98E6917A3C6B","07962425-98bf-4916-b7fe-808a1cbc032a","051c06f1-75cc-4548-856d-4923ddaba0dc","{""num_scrambled_semantic"":""8"",""num_scrambled_causal"":""4"",""num_scrambled_schematic"":""4"",""participantId"":""B1A83D80254E4A3CB81D98E6917A3C6B"",""assignmentId"":""07962425-98bf-4916-b7fe-808a1cbc032a"",""projectId"":""051c06f1-75cc-4548-856d-4923ddaba0dc""}","https://test12345.live/?num_scrambled_semantic=8&num_scrambled_causal=4&num_scrambled_schematic=4&participantId=B1A83D80254E4A3CB81D98E6917A3C6B&assignmentId=07962425-98bf-4916-b7fe-808a1cbc032a&projectId=051c06f1-75cc-4548-856d-4923ddaba0dc","B1A83D80254E4A3CB81D98E6917A3C6B-2025-05-15-19-03-29","","null","","images/semantic_sequence/using_technology_semantic/using_technology_semantic_4.png","null","",""
"","","","","","image-button-response","61","384726","0.0-12.0-1.0-1.1","B1A83D80254E4A3CB81D98E6917A3C6B","B1A83D80254E4A3CB81D98E6917A3C6B","07962425-98bf-4916-b7fe-808a1cbc032a","051c06f1-75cc-4548-856d-4923ddaba0dc","{""num_scrambled_semantic"":""8"",""num_scrambled_causal"":""4"",""num_scrambled_schematic"":""4"",""participantId"":""B1A83D80254E4A3CB81D98E6917A3C6B"",""assignmentId"":""07962425-98bf-4916-b7fe-808a1cbc032a"",""projectId"":""051c06f1-75cc-4548-856d-4923ddaba0dc""}","https://test12345.live/?num_scrambled_semantic=8&num_scrambled_causal=4&num_scrambled_schematic=4&participantId=B1A83D80254E4A3CB81D98E6917A3C6B&assignmentId=07962425-98bf-4916-b7fe-808a1cbc032a&projectId=051c06f1-75cc-4548-856d-4923ddaba0dc","B1A83D80254E4A3CB81D98E6917A3C6B-2025-05-15-19-03-29","","null","","images/semantic_sequence/using_technology_semantic/using_technology_semantic_4.png","null","",""
"","","","","","image-button-response","62","386540","0.0-12.0-1.0-2.1","B1A83D80254E4A3CB81D98E6917A3C6B","B1A83D80254E4A3CB81D98E6917A3C6B","07962425-98bf-4916-b7fe-808a1cbc032a","051c06f1-75cc-4548-856d-4923ddaba0dc","{""num_scrambled_semantic"":""8"",""num_scrambled_causal"":""4"",""num_scrambled_schematic"":""4"",""participantId"":""B1A83D80254E4A3CB81D98E6917A3C6B"",""assignmentId"":""07962425-98bf-4916-b7fe-808a1cbc032a"",""projectId"":""051c06f1-75cc-4548-856d-4923ddaba0dc""}","https://test12345.live/?num_scrambled_semantic=8&num_scrambled_causal=4&num_scrambled_schematic=4&participantId=B1A83D80254E4A3CB81D98E6917A3C6B&assignmentId=07962425-98bf-4916-b7fe-808a1cbc032a&projectId=051c06f1-75cc-4548-856d-4923ddaba0dc","B1A83D80254E4A3CB81D98E6917A3C6B-2025-05-15-19-03-29","","null","","[]","null","",""
"","","","","","image-button-response","63","391056","0.0-12.0-1.0-0.2","B1A83D80254E4A3CB81D98E6917A3C6B","B1A83D80254E4A3CB81D98E6917A3C6B","07962425-98bf-4916-b7fe-808a1cbc032a","051c06f1-75cc-4548-856d-4923ddaba0dc","{""num_scrambled_semantic"":""8"",""num_scrambled_causal"":""4"",""num_scrambled_schematic"":""4"",""participantId"":""B1A83D80254E4A3CB81D98E6917A3C6B"",""assignmentId"":""07962425-98bf-4916-b7fe-808a1cbc032a"",""projectId"":""051c06f1-75cc-4548-856d-4923ddaba0dc""}","https://test12345.live/?num_scrambled_semantic=8&num_scrambled_causal=4&num_scrambled_schematic=4&participantId=B1A83D80254E4A3CB81D98E6917A3C6B&assignmentId=07962425-98bf-4916-b7fe-808a1cbc032a&projectId=051c06f1-75cc-4548-856d-4923ddaba0dc","B1A83D80254E4A3CB81D98E6917A3C6B-2025-05-15-19-03-29","","null","","images/semantic_sequence/using_technology_semantic/using_technology_semantic_2.png","null","",""
"","","","","","image-button-response","64","392887","0.0-12.0-1.0-1.2","B1A83D80254E4A3CB81D98E6917A3C6B","B1A83D80254E4A3CB81D98E6917A3C6B","07962425-98bf-4916-b7fe-808a1cbc032a","051c06f1-75cc-4548-856d-4923ddaba0dc","{""num_scrambled_semantic"":""8"",""num_scrambled_causal"":""4"",""num_scrambled_schematic"":""4"",""participantId"":""B1A83D80254E4A3CB81D98E6917A3C6B"",""assignmentId"":""07962425-98bf-4916-b7fe-808a1cbc032a"",""projectId"":""051c06f1-75cc-4548-856d-4923ddaba0dc""}","https://test12345.live/?num_scrambled_semantic=8&num_scrambled_causal=4&num_scrambled_schematic=4&participantId=B1A83D80254E4A3CB81D98E6917A3C6B&assignmentId=07962425-98bf-4916-b7fe-808a1cbc032a&projectId=051c06f1-75cc-4548-856d-4923ddaba0dc","B1A83D80254E4A3CB81D98E6917A3C6B-2025-05-15-19-03-29","","1826","","images/semantic_sequence/using_technology_semantic/using_technology_semantic_2.png","0","",""
"","","","","","image-button-response","65","394702","0.0-12.0-1.0-2.2","B1A83D80254E4A3CB81D98E6917A3C6B","B1A83D80254E4A3CB81D98E6917A3C6B","07962425-98bf-4916-b7fe-808a1cbc032a","051c06f1-75cc-4548-856d-4923ddaba0dc","{""num_scrambled_semantic"":""8"",""num_scrambled_causal"":""4"",""num_scrambled_schematic"":""4"",""participantId"":""B1A83D80254E4A3CB81D98E6917A3C6B"",""assignmentId"":""07962425-98bf-4916-b7fe-808a1cbc032a"",""projectId"":""051c06f1-75cc-4548-856d-4923ddaba0dc""}","https://test12345.live/?num_scrambled_semantic=8&num_scrambled_causal=4&num_scrambled_schematic=4&participantId=B1A83D80254E4A3CB81D98E6917A3C6B&assignmentId=07962425-98bf-4916-b7fe-808a1cbc032a&projectId=051c06f1-75cc-4548-856d-4923ddaba0dc","B1A83D80254E4A3CB81D98E6917A3C6B-2025-05-15-19-03-29","","null","","[]","null","",""
"","","","","","image-button-response","66","399205","0.0-12.0-1.0-0.3","B1A83D80254E4A3CB81D98E6917A3C6B","B1A83D80254E4A3CB81D98E6917A3C6B","07962425-98bf-4916-b7fe-808a1cbc032a","051c06f1-75cc-4548-856d-4923ddaba0dc","{""num_scrambled_semantic"":""8"",""num_scrambled_causal"":""4"",""num_scrambled_schematic"":""4"",""participantId"":""B1A83D80254E4A3CB81D98E6917A3C6B"",""assignmentId"":""07962425-98bf-4916-b7fe-808a1cbc032a"",""projectId"":""051c06f1-75cc-4548-856d-4923ddaba0dc""}","https://test12345.live/?num_scrambled_semantic=8&num_scrambled_causal=4&num_scrambled_schematic=4&participantId=B1A83D80254E4A3CB81D98E6917A3C6B&assignmentId=07962425-98bf-4916-b7fe-808a1cbc032a&projectId=051c06f1-75cc-4548-856d-4923ddaba0dc","B1A83D80254E4A3CB81D98E6917A3C6B-2025-05-15-19-03-29","","null","","images/semantic_sequence/using_technology_semantic/using_technology_semantic_ten.png","null","",""
"","","","","","image-button-response","67","400638","0.0-12.0-1.0-1.3","B1A83D80254E4A3CB81D98E6917A3C6B","B1A83D80254E4A3CB81D98E6917A3C6B","07962425-98bf-4916-b7fe-808a1cbc032a","051c06f1-75cc-4548-856d-4923ddaba0dc","{""num_scrambled_semantic"":""8"",""num_scrambled_causal"":""4"",""num_scrambled_schematic"":""4"",""participantId"":""B1A83D80254E4A3CB81D98E6917A3C6B"",""assignmentId"":""07962425-98bf-4916-b7fe-808a1cbc032a"",""projectId"":""051c06f1-75cc-4548-856d-4923ddaba0dc""}","https://test12345.live/?num_scrambled_semantic=8&num_scrambled_causal=4&num_scrambled_schematic=4&participantId=B1A83D80254E4A3CB81D98E6917A3C6B&assignmentId=07962425-98bf-4916-b7fe-808a1cbc032a&projectId=051c06f1-75cc-4548-856d-4923ddaba0dc","B1A83D80254E4A3CB81D98E6917A3C6B-2025-05-15-19-03-29","","1430","","images/semantic_sequence/using_technology_semantic/using_technology_semantic_ten.png","0","",""
"","","","","","image-button-response","68","402455","0.0-12.0-1.0-2.3","B1A83D80254E4A3CB81D98E6917A3C6B","B1A83D80254E4A3CB81D98E6917A3C6B","07962425-98bf-4916-b7fe-808a1cbc032a","051c06f1-75cc-4548-856d-4923ddaba0dc","{""num_scrambled_semantic"":""8"",""num_scrambled_causal"":""4"",""num_scrambled_schematic"":""4"",""participantId"":""B1A83D80254E4A3CB81D98E6917A3C6B"",""assignmentId"":""07962425-98bf-4916-b7fe-808a1cbc032a"",""projectId"":""051c06f1-75cc-4548-856d-4923ddaba0dc""}","https://test12345.live/?num_scrambled_semantic=8&num_scrambled_causal=4&num_scrambled_schematic=4&participantId=B1A83D80254E4A3CB81D98E6917A3C6B&assignmentId=07962425-98bf-4916-b7fe-808a1cbc032a&projectId=051c06f1-75cc-4548-856d-4923ddaba0dc","B1A83D80254E4A3CB81D98E6917A3C6B-2025-05-15-19-03-29","","null","","[]","null","",""
"","","","","","image-button-response","69","406965","0.0-12.0-1.0-0.4","B1A83D80254E4A3CB81D98E6917A3C6B","B1A83D80254E4A3CB81D98E6917A3C6B","07962425-98bf-4916-b7fe-808a1cbc032a","051c06f1-75cc-4548-856d-4923ddaba0dc","{""num_scrambled_semantic"":""8"",""num_scrambled_causal"":""4"",""num_scrambled_schematic"":""4"",""participantId"":""B1A83D80254E4A3CB81D98E6917A3C6B"",""assignmentId"":""07962425-98bf-4916-b7fe-808a1cbc032a"",""projectId"":""051c06f1-75cc-4548-856d-4923ddaba0dc""}","https://test12345.live/?num_scrambled_semantic=8&num_scrambled_causal=4&num_scrambled_schematic=4&participantId=B1A83D80254E4A3CB81D98E6917A3C6B&assignmentId=07962425-98bf-4916-b7fe-808a1cbc032a&projectId=051c06f1-75cc-4548-856d-4923ddaba0dc","B1A83D80254E4A3CB81D98E6917A3C6B-2025-05-15-19-03-29","","null","","images/semantic_sequence/using_technology_semantic/using_technology_semantic_7.png","null","",""
"","","","","","image-button-response","70","410980","0.0-12.0-1.0-1.4","B1A83D80254E4A3CB81D98E6917A3C6B","B1A83D80254E4A3CB81D98E6917A3C6B","07962425-98bf-4916-b7fe-808a1cbc032a","051c06f1-75cc-4548-856d-4923ddaba0dc","{""num_scrambled_semantic"":""8"",""num_scrambled_causal"":""4"",""num_scrambled_schematic"":""4"",""participantId"":""B1A83D80254E4A3CB81D98E6917A3C6B"",""assignmentId"":""07962425-98bf-4916-b7fe-808a1cbc032a"",""projectId"":""051c06f1-75cc-4548-856d-4923ddaba0dc""}","https://test12345.live/?num_scrambled_semantic=8&num_scrambled_causal=4&num_scrambled_schematic=4&participantId=B1A83D80254E4A3CB81D98E6917A3C6B&assignmentId=07962425-98bf-4916-b7fe-808a1cbc032a&projectId=051c06f1-75cc-4548-856d-4923ddaba0dc","B1A83D80254E4A3CB81D98E6917A3C6B-2025-05-15-19-03-29","","null","","images/semantic_sequence/using_technology_semantic/using_technology_semantic_7.png","null","",""
"","","","","","image-button-response","71","412788","0.0-12.0-1.0-2.4","B1A83D80254E4A3CB81D98E6917A3C6B","B1A83D80254E4A3CB81D98E6917A3C6B","07962425-98bf-4916-b7fe-808a1cbc032a","051c06f1-75cc-4548-856d-4923ddaba0dc","{""num_scrambled_semantic"":""8"",""num_scrambled_causal"":""4"",""num_scrambled_schematic"":""4"",""participantId"":""B1A83D80254E4A3CB81D98E6917A3C6B"",""assignmentId"":""07962425-98bf-4916-b7fe-808a1cbc032a"",""projectId"":""051c06f1-75cc-4548-856d-4923ddaba0dc""}","https://test12345.live/?num_scrambled_semantic=8&num_scrambled_causal=4&num_scrambled_schematic=4&participantId=B1A83D80254E4A3CB81D98E6917A3C6B&assignmentId=07962425-98bf-4916-b7fe-808a1cbc032a&projectId=051c06f1-75cc-4548-856d-4923ddaba0dc","B1A83D80254E4A3CB81D98E6917A3C6B-2025-05-15-19-03-29","","null","","[]","null","",""
"","","","","","image-button-response","72","417293","0.0-12.0-1.0-0.5","B1A83D80254E4A3CB81D98E6917A3C6B","B1A83D80254E4A3CB81D98E6917A3C6B","07962425-98bf-4916-b7fe-808a1cbc032a","051c06f1-75cc-4548-856d-4923ddaba0dc","{""num_scrambled_semantic"":""8"",""num_scrambled_causal"":""4"",""num_scrambled_schematic"":""4"",""participantId"":""B1A83D80254E4A3CB81D98E6917A3C6B"",""assignmentId"":""07962425-98bf-4916-b7fe-808a1cbc032a"",""projectId"":""051c06f1-75cc-4548-856d-4923ddaba0dc""}","https://test12345.live/?num_scrambled_semantic=8&num_scrambled_causal=4&num_scrambled_schematic=4&participantId=B1A83D80254E4A3CB81D98E6917A3C6B&assignmentId=07962425-98bf-4916-b7fe-808a1cbc032a&projectId=051c06f1-75cc-4548-856d-4923ddaba0dc","B1A83D80254E4A3CB81D98E6917A3C6B-2025-05-15-19-03-29","","null","","images/semantic_sequence/using_technology_semantic/using_technology_semantic_6.png","null","",""
"","","","","","image-button-response","73","419347","0.0-12.0-1.0-1.5","B1A83D80254E4A3CB81D98E6917A3C6B","B1A83D80254E4A3CB81D98E6917A3C6B","07962425-98bf-4916-b7fe-808a1cbc032a","051c06f1-75cc-4548-856d-4923ddaba0dc","{""num_scrambled_semantic"":""8"",""num_scrambled_causal"":""4"",""num_scrambled_schematic"":""4"",""participantId"":""B1A83D80254E4A3CB81D98E6917A3C6B"",""assignmentId"":""07962425-98bf-4916-b7fe-808a1cbc032a"",""projectId"":""051c06f1-75cc-4548-856d-4923ddaba0dc""}","https://test12345.live/?num_scrambled_semantic=8&num_scrambled_causal=4&num_scrambled_schematic=4&participantId=B1A83D80254E4A3CB81D98E6917A3C6B&assignmentId=07962425-98bf-4916-b7fe-808a1cbc032a&projectId=051c06f1-75cc-4548-856d-4923ddaba0dc","B1A83D80254E4A3CB81D98E6917A3C6B-2025-05-15-19-03-29","","2052","","images/semantic_sequence/using_technology_semantic/using_technology_semantic_6.png","0","",""
"","","","","","image-button-response","74","421156","0.0-12.0-1.0-2.5","B1A83D80254E4A3CB81D98E6917A3C6B","B1A83D80254E4A3CB81D98E6917A3C6B","07962425-98bf-4916-b7fe-808a1cbc032a","051c06f1-75cc-4548-856d-4923ddaba0dc","{""num_scrambled_semantic"":""8"",""num_scrambled_causal"":""4"",""num_scrambled_schematic"":""4"",""participantId"":""B1A83D80254E4A3CB81D98E6917A3C6B"",""assignmentId"":""07962425-98bf-4916-b7fe-808a1cbc032a"",""projectId"":""051c06f1-75cc-4548-856d-4923ddaba0dc""}","https://test12345.live/?num_scrambled_semantic=8&num_scrambled_causal=4&num_scrambled_schematic=4&participantId=B1A83D80254E4A3CB81D98E6917A3C6B&assignmentId=07962425-98bf-4916-b7fe-808a1cbc032a&projectId=051c06f1-75cc-4548-856d-4923ddaba0dc","B1A83D80254E4A3CB81D98E6917A3C6B-2025-05-15-19-03-29","","null","","[]","null","",""
"","","","","","image-button-response","75","425668","0.0-12.0-1.0-0.6","B1A83D80254E4A3CB81D98E6917A3C6B","B1A83D80254E4A3CB81D98E6917A3C6B","07962425-98bf-4916-b7fe-808a1cbc032a","051c06f1-75cc-4548-856d-4923ddaba0dc","{""num_scrambled_semantic"":""8"",""num_scrambled_causal"":""4"",""num_scrambled_schematic"":""4"",""participantId"":""B1A83D80254E4A3CB81D98E6917A3C6B"",""assignmentId"":""07962425-98bf-4916-b7fe-808a1cbc032a"",""projectId"":""051c06f1-75cc-4548-856d-4923ddaba0dc""}","https://test12345.live/?num_scrambled_semantic=8&num_scrambled_causal=4&num_scrambled_schematic=4&participantId=B1A83D80254E4A3CB81D98E6917A3C6B&assignmentId=07962425-98bf-4916-b7fe-808a1cbc032a&projectId=051c06f1-75cc-4548-856d-4923ddaba0dc","B1A83D80254E4A3CB81D98E6917A3C6B-2025-05-15-19-03-29","","null","","images/semantic_sequence/using_technology_semantic/using_technology_semantic_1.png","null","",""
"","","","","","image-button-response","76","428730","0.0-12.0-1.0-1.6","B1A83D80254E4A3CB81D98E6917A3C6B","B1A83D80254E4A3CB81D98E6917A3C6B","07962425-98bf-4916-b7fe-808a1cbc032a","051c06f1-75cc-4548-856d-4923ddaba0dc","{""num_scrambled_semantic"":""8"",""num_scrambled_causal"":""4"",""num_scrambled_schematic"":""4"",""participantId"":""B1A83D80254E4A3CB81D98E6917A3C6B"",""assignmentId"":""07962425-98bf-4916-b7fe-808a1cbc032a"",""projectId"":""051c06f1-75cc-4548-856d-4923ddaba0dc""}","https://test12345.live/?num_scrambled_semantic=8&num_scrambled_causal=4&num_scrambled_schematic=4&participantId=B1A83D80254E4A3CB81D98E6917A3C6B&assignmentId=07962425-98bf-4916-b7fe-808a1cbc032a&projectId=051c06f1-75cc-4548-856d-4923ddaba0dc","B1A83D80254E4A3CB81D98E6917A3C6B-2025-05-15-19-03-29","","3059","","images/semantic_sequence/using_technology_semantic/using_technology_semantic_1.png","0","",""
"","","","","","image-button-response","77","430539","0.0-12.0-1.0-2.6","B1A83D80254E4A3CB81D98E6917A3C6B","B1A83D80254E4A3CB81D98E6917A3C6B","07962425-98bf-4916-b7fe-808a1cbc032a","051c06f1-75cc-4548-856d-4923ddaba0dc","{""num_scrambled_semantic"":""8"",""num_scrambled_causal"":""4"",""num_scrambled_schematic"":""4"",""participantId"":""B1A83D80254E4A3CB81D98E6917A3C6B"",""assignmentId"":""07962425-98bf-4916-b7fe-808a1cbc032a"",""projectId"":""051c06f1-75cc-4548-856d-4923ddaba0dc""}","https://test12345.live/?num_scrambled_semantic=8&num_scrambled_causal=4&num_scrambled_schematic=4&participantId=B1A83D80254E4A3CB81D98E6917A3C6B&assignmentId=07962425-98bf-4916-b7fe-808a1cbc032a&projectId=051c06f1-75cc-4548-856d-4923ddaba0dc","B1A83D80254E4A3CB81D98E6917A3C6B-2025-05-15-19-03-29","","null","","[]","null","",""
"","","","","","image-button-response","78","435050","0.0-12.0-1.0-0.7","B1A83D80254E4A3CB81D98E6917A3C6B","B1A83D80254E4A3CB81D98E6917A3C6B","07962425-98bf-4916-b7fe-808a1cbc032a","051c06f1-75cc-4548-856d-4923ddaba0dc","{""num_scrambled_semantic"":""8"",""num_scrambled_causal"":""4"",""num_scrambled_schematic"":""4"",""participantId"":""B1A83D80254E4A3CB81D98E6917A3C6B"",""assignmentId"":""07962425-98bf-4916-b7fe-808a1cbc032a"",""projectId"":""051c06f1-75cc-4548-856d-4923ddaba0dc""}","https://test12345.live/?num_scrambled_semantic=8&num_scrambled_causal=4&num_scrambled_schematic=4&participantId=B1A83D80254E4A3CB81D98E6917A3C6B&assignmentId=07962425-98bf-4916-b7fe-808a1cbc032a&projectId=051c06f1-75cc-4548-856d-4923ddaba0dc","B1A83D80254E4A3CB81D98E6917A3C6B-2025-05-15-19-03-29","","null","","images/semantic_sequence/using_technology_semantic/using_technology_semantic_3.png","null","",""
"","","","","","image-button-response","79","437058","0.0-12.0-1.0-1.7","B1A83D80254E4A3CB81D98E6917A3C6B","B1A83D80254E4A3CB81D98E6917A3C6B","07962425-98bf-4916-b7fe-808a1cbc032a","051c06f1-75cc-4548-856d-4923ddaba0dc","{""num_scrambled_semantic"":""8"",""num_scrambled_causal"":""4"",""num_scrambled_schematic"":""4"",""participantId"":""B1A83D80254E4A3CB81D98E6917A3C6B"",""assignmentId"":""07962425-98bf-4916-b7fe-808a1cbc032a"",""projectId"":""051c06f1-75cc-4548-856d-4923ddaba0dc""}","https://test12345.live/?num_scrambled_semantic=8&num_scrambled_causal=4&num_scrambled_schematic=4&participantId=B1A83D80254E4A3CB81D98E6917A3C6B&assignmentId=07962425-98bf-4916-b7fe-808a1cbc032a&projectId=051c06f1-75cc-4548-856d-4923ddaba0dc","B1A83D80254E4A3CB81D98E6917A3C6B-2025-05-15-19-03-29","","2004","","images/semantic_sequence/using_technology_semantic/using_technology_semantic_3.png","0","",""
"","","","","","image-button-response","80","438874","0.0-12.0-1.0-2.7","B1A83D80254E4A3CB81D98E6917A3C6B","B1A83D80254E4A3CB81D98E6917A3C6B","07962425-98bf-4916-b7fe-808a1cbc032a","051c06f1-75cc-4548-856d-4923ddaba0dc","{""num_scrambled_semantic"":""8"",""num_scrambled_causal"":""4"",""num_scrambled_schematic"":""4"",""participantId"":""B1A83D80254E4A3CB81D98E6917A3C6B"",""assignmentId"":""07962425-98bf-4916-b7fe-808a1cbc032a"",""projectId"":""051c06f1-75cc-4548-856d-4923ddaba0dc""}","https://test12345.live/?num_scrambled_semantic=8&num_scrambled_causal=4&num_scrambled_schematic=4&participantId=B1A83D80254E4A3CB81D98E6917A3C6B&assignmentId=07962425-98bf-4916-b7fe-808a1cbc032a&projectId=051c06f1-75cc-4548-856d-4923ddaba0dc","B1A83D80254E4A3CB81D98E6917A3C6B-2025-05-15-19-03-29","","null","","[]","null","",""
"","","","","","image-button-response","81","443385","0.0-12.0-1.0-0.8","B1A83D80254E4A3CB81D98E6917A3C6B","B1A83D80254E4A3CB81D98E6917A3C6B","07962425-98bf-4916-b7fe-808a1cbc032a","051c06f1-75cc-4548-856d-4923ddaba0dc","{""num_scrambled_semantic"":""8"",""num_scrambled_causal"":""4"",""num_scrambled_schematic"":""4"",""participantId"":""B1A83D80254E4A3CB81D98E6917A3C6B"",""assignmentId"":""07962425-98bf-4916-b7fe-808a1cbc032a"",""projectId"":""051c06f1-75cc-4548-856d-4923ddaba0dc""}","https://test12345.live/?num_scrambled_semantic=8&num_scrambled_causal=4&num_scrambled_schematic=4&participantId=B1A83D80254E4A3CB81D98E6917A3C6B&assignmentId=07962425-98bf-4916-b7fe-808a1cbc032a&projectId=051c06f1-75cc-4548-856d-4923ddaba0dc","B1A83D80254E4A3CB81D98E6917A3C6B-2025-05-15-19-03-29","","null","","images/semantic_sequence/using_technology_semantic/using_technology_semantic_8.png","null","",""
"","","","","","image-button-response","82","445209","0.0-12.0-1.0-1.8","B1A83D80254E4A3CB81D98E6917A3C6B","B1A83D80254E4A3CB81D98E6917A3C6B","07962425-98bf-4916-b7fe-808a1cbc032a","051c06f1-75cc-4548-856d-4923ddaba0dc","{""num_scrambled_semantic"":""8"",""num_scrambled_causal"":""4"",""num_scrambled_schematic"":""4"",""participantId"":""B1A83D80254E4A3CB81D98E6917A3C6B"",""assignmentId"":""07962425-98bf-4916-b7fe-808a1cbc032a"",""projectId"":""051c06f1-75cc-4548-856d-4923ddaba0dc""}","https://test12345.live/?num_scrambled_semantic=8&num_scrambled_causal=4&num_scrambled_schematic=4&participantId=B1A83D80254E4A3CB81D98E6917A3C6B&assignmentId=07962425-98bf-4916-b7fe-808a1cbc032a&projectId=051c06f1-75cc-4548-856d-4923ddaba0dc","B1A83D80254E4A3CB81D98E6917A3C6B-2025-05-15-19-03-29","","1821","","images/semantic_sequence/using_technology_semantic/using_technology_semantic_8.png","0","",""
"","","","","","image-button-response","83","447020","0.0-12.0-1.0-2.8","B1A83D80254E4A3CB81D98E6917A3C6B","B1A83D80254E4A3CB81D98E6917A3C6B","07962425-98bf-4916-b7fe-808a1cbc032a","051c06f1-75cc-4548-856d-4923ddaba0dc","{""num_scrambled_semantic"":""8"",""num_scrambled_causal"":""4"",""num_scrambled_schematic"":""4"",""participantId"":""B1A83D80254E4A3CB81D98E6917A3C6B"",""assignmentId"":""07962425-98bf-4916-b7fe-808a1cbc032a"",""projectId"":""051c06f1-75cc-4548-856d-4923ddaba0dc""}","https://test12345.live/?num_scrambled_semantic=8&num_scrambled_causal=4&num_scrambled_schematic=4&participantId=B1A83D80254E4A3CB81D98E6917A3C6B&assignmentId=07962425-98bf-4916-b7fe-808a1cbc032a&projectId=051c06f1-75cc-4548-856d-4923ddaba0dc","B1A83D80254E4A3CB81D98E6917A3C6B-2025-05-15-19-03-29","","null","","[]","null","",""
"","","","","","image-button-response","84","451526","0.0-12.0-1.0-0.9","B1A83D80254E4A3CB81D98E6917A3C6B","B1A83D80254E4A3CB81D98E6917A3C6B","07962425-98bf-4916-b7fe-808a1cbc032a","051c06f1-75cc-4548-856d-4923ddaba0dc","{""num_scrambled_semantic"":""8"",""num_scrambled_causal"":""4"",""num_scrambled_schematic"":""4"",""participantId"":""B1A83D80254E4A3CB81D98E6917A3C6B"",""assignmentId"":""07962425-98bf-4916-b7fe-808a1cbc032a"",""projectId"":""051c06f1-75cc-4548-856d-4923ddaba0dc""}","https://test12345.live/?num_scrambled_semantic=8&num_scrambled_causal=4&num_scrambled_schematic=4&participantId=B1A83D80254E4A3CB81D98E6917A3C6B&assignmentId=07962425-98bf-4916-b7fe-808a1cbc032a&projectId=051c06f1-75cc-4548-856d-4923ddaba0dc","B1A83D80254E4A3CB81D98E6917A3C6B-2025-05-15-19-03-29","","null","","images/semantic_sequence/using_technology_semantic/using_technology_semantic_9.png","null","",""
"","","","","","image-button-response","85","452950","0.0-12.0-1.0-1.9","B1A83D80254E4A3CB81D98E6917A3C6B","B1A83D80254E4A3CB81D98E6917A3C6B","07962425-98bf-4916-b7fe-808a1cbc032a","051c06f1-75cc-4548-856d-4923ddaba0dc","{""num_scrambled_semantic"":""8"",""num_scrambled_causal"":""4"",""num_scrambled_schematic"":""4"",""participantId"":""B1A83D80254E4A3CB81D98E6917A3C6B"",""assignmentId"":""07962425-98bf-4916-b7fe-808a1cbc032a"",""projectId"":""051c06f1-75cc-4548-856d-4923ddaba0dc""}","https://test12345.live/?num_scrambled_semantic=8&num_scrambled_causal=4&num_scrambled_schematic=4&participantId=B1A83D80254E4A3CB81D98E6917A3C6B&assignmentId=07962425-98bf-4916-b7fe-808a1cbc032a&projectId=051c06f1-75cc-4548-856d-4923ddaba0dc","B1A83D80254E4A3CB81D98E6917A3C6B-2025-05-15-19-03-29","","1421","","images/semantic_sequence/using_technology_semantic/using_technology_semantic_9.png","0","",""
"","","","","","image-button-response","86","454756","0.0-12.0-1.0-2.9","B1A83D80254E4A3CB81D98E6917A3C6B","B1A83D80254E4A3CB81D98E6917A3C6B","07962425-98bf-4916-b7fe-808a1cbc032a","051c06f1-75cc-4548-856d-4923ddaba0dc","{""num_scrambled_semantic"":""8"",""num_scrambled_causal"":""4"",""num_scrambled_schematic"":""4"",""participantId"":""B1A83D80254E4A3CB81D98E6917A3C6B"",""assignmentId"":""07962425-98bf-4916-b7fe-808a1cbc032a"",""projectId"":""051c06f1-75cc-4548-856d-4923ddaba0dc""}","https://test12345.live/?num_scrambled_semantic=8&num_scrambled_causal=4&num_scrambled_schematic=4&participantId=B1A83D80254E4A3CB81D98E6917A3C6B&assignmentId=07962425-98bf-4916-b7fe-808a1cbc032a&projectId=051c06f1-75cc-4548-856d-4923ddaba0dc","B1A83D80254E4A3CB81D98E6917A3C6B-2025-05-15-19-03-29","","null","","[]","null","",""
"","","","","","html-audio-response","87","527488","0.0-13.0","B1A83D80254E4A3CB81D98E6917A3C6B","B1A83D80254E4A3CB81D98E6917A3C6B","07962425-98bf-4916-b7fe-808a1cbc032a","051c06f1-75cc-4548-856d-4923ddaba0dc","{""num_scrambled_semantic"":""8"",""num_scrambled_causal"":""4"",""num_scrambled_schematic"":""4"",""participantId"":""B1A83D80254E4A3CB81D98E6917A3C6B"",""assignmentId"":""07962425-98bf-4916-b7fe-808a1cbc032a"",""projectId"":""051c06f1-75cc-4548-856d-4923ddaba0dc""}","https://test12345.live/?num_scrambled_semantic=8&num_scrambled_causal=4&num_scrambled_schematic=4&participantId=B1A83D80254E4A3CB81D98E6917A3C6B&assignmentId=07962425-98bf-4916-b7fe-808a1cbc032a&projectId=051c06f1-75cc-4548-856d-4923ddaba0dc","B1A83D80254E4A3CB81D98E6917A3C6B-2025-05-15-19-03-29","","11456","","[""<span style=\""color: red; font-size: 24px\""> NOW RECORDING</span><p>Please say out loud all the images you saw, as many as you can remember. The images can be said in any order.</p>""]","","5","using_technology_semantic"
"","","","","","image-button-response","88","533504","0.0-14.0-0.0","B1A83D80254E4A3CB81D98E6917A3C6B","B1A83D80254E4A3CB81D98E6917A3C6B","07962425-98bf-4916-b7fe-808a1cbc032a","051c06f1-75cc-4548-856d-4923ddaba0dc","{""num_scrambled_semantic"":""8"",""num_scrambled_causal"":""4"",""num_scrambled_schematic"":""4"",""participantId"":""B1A83D80254E4A3CB81D98E6917A3C6B"",""assignmentId"":""07962425-98bf-4916-b7fe-808a1cbc032a"",""projectId"":""051c06f1-75cc-4548-856d-4923ddaba0dc""}","https://test12345.live/?num_scrambled_semantic=8&num_scrambled_causal=4&num_scrambled_schematic=4&participantId=B1A83D80254E4A3CB81D98E6917A3C6B&assignmentId=07962425-98bf-4916-b7fe-808a1cbc032a&projectId=051c06f1-75cc-4548-856d-4923ddaba0dc","B1A83D80254E4A3CB81D98E6917A3C6B-2025-05-15-19-03-29","","null","","images/causal_sequence/the_performance_causal/the_performance_causal_0.png","null","",""
"","","","","","image-button-response","89","538008","0.0-14.0-1.0-0.0","B1A83D80254E4A3CB81D98E6917A3C6B","B1A83D80254E4A3CB81D98E6917A3C6B","07962425-98bf-4916-b7fe-808a1cbc032a","051c06f1-75cc-4548-856d-4923ddaba0dc","{""num_scrambled_semantic"":""8"",""num_scrambled_causal"":""4"",""num_scrambled_schematic"":""4"",""participantId"":""B1A83D80254E4A3CB81D98E6917A3C6B"",""assignmentId"":""07962425-98bf-4916-b7fe-808a1cbc032a"",""projectId"":""051c06f1-75cc-4548-856d-4923ddaba0dc""}","https://test12345.live/?num_scrambled_semantic=8&num_scrambled_causal=4&num_scrambled_schematic=4&participantId=B1A83D80254E4A3CB81D98E6917A3C6B&assignmentId=07962425-98bf-4916-b7fe-808a1cbc032a&projectId=051c06f1-75cc-4548-856d-4923ddaba0dc","B1A83D80254E4A3CB81D98E6917A3C6B-2025-05-15-19-03-29","","null","","images/causal_sequence/the_performance_causal/the_performance_causal_1.png","null","",""
"","","","","","image-button-response","90","539752","0.0-14.0-1.0-1.0","B1A83D80254E4A3CB81D98E6917A3C6B","B1A83D80254E4A3CB81D98E6917A3C6B","07962425-98bf-4916-b7fe-808a1cbc032a","051c06f1-75cc-4548-856d-4923ddaba0dc","{""num_scrambled_semantic"":""8"",""num_scrambled_causal"":""4"",""num_scrambled_schematic"":""4"",""participantId"":""B1A83D80254E4A3CB81D98E6917A3C6B"",""assignmentId"":""07962425-98bf-4916-b7fe-808a1cbc032a"",""projectId"":""051c06f1-75cc-4548-856d-4923ddaba0dc""}","https://test12345.live/?num_scrambled_semantic=8&num_scrambled_causal=4&num_scrambled_schematic=4&participantId=B1A83D80254E4A3CB81D98E6917A3C6B&assignmentId=07962425-98bf-4916-b7fe-808a1cbc032a&projectId=051c06f1-75cc-4548-856d-4923ddaba0dc","B1A83D80254E4A3CB81D98E6917A3C6B-2025-05-15-19-03-29","","1741","","images/causal_sequence/the_performance_causal/the_performance_causal_1.png","0","",""
"","","","","","image-button-response","91","541555","0.0-14.0-1.0-2.0","B1A83D80254E4A3CB81D98E6917A3C6B","B1A83D80254E4A3CB81D98E6917A3C6B","07962425-98bf-4916-b7fe-808a1cbc032a","051c06f1-75cc-4548-856d-4923ddaba0dc","{""num_scrambled_semantic"":""8"",""num_scrambled_causal"":""4"",""num_scrambled_schematic"":""4"",""participantId"":""B1A83D80254E4A3CB81D98E6917A3C6B"",""assignmentId"":""07962425-98bf-4916-b7fe-808a1cbc032a"",""projectId"":""051c06f1-75cc-4548-856d-4923ddaba0dc""}","https://test12345.live/?num_scrambled_semantic=8&num_scrambled_causal=4&num_scrambled_schematic=4&participantId=B1A83D80254E4A3CB81D98E6917A3C6B&assignmentId=07962425-98bf-4916-b7fe-808a1cbc032a&projectId=051c06f1-75cc-4548-856d-4923ddaba0dc","B1A83D80254E4A3CB81D98E6917A3C6B-2025-05-15-19-03-29","","null","","[]","null","",""
"","","","","","image-button-response","92","546068","0.0-14.0-1.0-0.1","B1A83D80254E4A3CB81D98E6917A3C6B","B1A83D80254E4A3CB81D98E6917A3C6B","07962425-98bf-4916-b7fe-808a1cbc032a","051c06f1-75cc-4548-856d-4923ddaba0dc","{""num_scrambled_semantic"":""8"",""num_scrambled_causal"":""4"",""num_scrambled_schematic"":""4"",""participantId"":""B1A83D80254E4A3CB81D98E6917A3C6B"",""assignmentId"":""07962425-98bf-4916-b7fe-808a1cbc032a"",""projectId"":""051c06f1-75cc-4548-856d-4923ddaba0dc""}","https://test12345.live/?num_scrambled_semantic=8&num_scrambled_causal=4&num_scrambled_schematic=4&participantId=B1A83D80254E4A3CB81D98E6917A3C6B&assignmentId=07962425-98bf-4916-b7fe-808a1cbc032a&projectId=051c06f1-75cc-4548-856d-4923ddaba0dc","B1A83D80254E4A3CB81D98E6917A3C6B-2025-05-15-19-03-29","","null","","images/causal_sequence/the_performance_causal/the_performance_causal_3.png","null","",""
"","","","","","image-button-response","93","547410","0.0-14.0-1.0-1.1","B1A83D80254E4A3CB81D98E6917A3C6B","B1A83D80254E4A3CB81D98E6917A3C6B","07962425-98bf-4916-b7fe-808a1cbc032a","051c06f1-75cc-4548-856d-4923ddaba0dc","{""num_scrambled_semantic"":""8"",""num_scrambled_causal"":""4"",""num_scrambled_schematic"":""4"",""participantId"":""B1A83D80254E4A3CB81D98E6917A3C6B"",""assignmentId"":""07962425-98bf-4916-b7fe-808a1cbc032a"",""projectId"":""051c06f1-75cc-4548-856d-4923ddaba0dc""}","https://test12345.live/?num_scrambled_semantic=8&num_scrambled_causal=4&num_scrambled_schematic=4&participantId=B1A83D80254E4A3CB81D98E6917A3C6B&assignmentId=07962425-98bf-4916-b7fe-808a1cbc032a&projectId=051c06f1-75cc-4548-856d-4923ddaba0dc","B1A83D80254E4A3CB81D98E6917A3C6B-2025-05-15-19-03-29","","1338","","images/causal_sequence/the_performance_causal/the_performance_causal_3.png","0","",""
"","","","","","image-button-response","94","549228","0.0-14.0-1.0-2.1","B1A83D80254E4A3CB81D98E6917A3C6B","B1A83D80254E4A3CB81D98E6917A3C6B","07962425-98bf-4916-b7fe-808a1cbc032a","051c06f1-75cc-4548-856d-4923ddaba0dc","{""num_scrambled_semantic"":""8"",""num_scrambled_causal"":""4"",""num_scrambled_schematic"":""4"",""participantId"":""B1A83D80254E4A3CB81D98E6917A3C6B"",""assignmentId"":""07962425-98bf-4916-b7fe-808a1cbc032a"",""projectId"":""051c06f1-75cc-4548-856d-4923ddaba0dc""}","https://test12345.live/?num_scrambled_semantic=8&num_scrambled_causal=4&num_scrambled_schematic=4&participantId=B1A83D80254E4A3CB81D98E6917A3C6B&assignmentId=07962425-98bf-4916-b7fe-808a1cbc032a&projectId=051c06f1-75cc-4548-856d-4923ddaba0dc","B1A83D80254E4A3CB81D98E6917A3C6B-2025-05-15-19-03-29","","null","","[]","null","",""
"","","","","","image-button-response","95","553731","0.0-14.0-1.0-0.2","B1A83D80254E4A3CB81D98E6917A3C6B","B1A83D80254E4A3CB81D98E6917A3C6B","07962425-98bf-4916-b7fe-808a1cbc032a","051c06f1-75cc-4548-856d-4923ddaba0dc","{""num_scrambled_semantic"":""8"",""num_scrambled_causal"":""4"",""num_scrambled_schematic"":""4"",""participantId"":""B1A83D80254E4A3CB81D98E6917A3C6B"",""assignmentId"":""07962425-98bf-4916-b7fe-808a1cbc032a"",""projectId"":""051c06f1-75cc-4548-856d-4923ddaba0dc""}","https://test12345.live/?num_scrambled_semantic=8&num_scrambled_causal=4&num_scrambled_schematic=4&participantId=B1A83D80254E4A3CB81D98E6917A3C6B&assignmentId=07962425-98bf-4916-b7fe-808a1cbc032a&projectId=051c06f1-75cc-4548-856d-4923ddaba0dc","B1A83D80254E4A3CB81D98E6917A3C6B-2025-05-15-19-03-29","","null","","images/causal_sequence/the_performance_causal/the_performance_causal_ten.png","null","",""
"","","","","","image-button-response","96","555071","0.0-14.0-1.0-1.2","B1A83D80254E4A3CB81D98E6917A3C6B","B1A83D80254E4A3CB81D98E6917A3C6B","07962425-98bf-4916-b7fe-808a1cbc032a","051c06f1-75cc-4548-856d-4923ddaba0dc","{""num_scrambled_semantic"":""8"",""num_scrambled_causal"":""4"",""num_scrambled_schematic"":""4"",""participantId"":""B1A83D80254E4A3CB81D98E6917A3C6B"",""assignmentId"":""07962425-98bf-4916-b7fe-808a1cbc032a"",""projectId"":""051c06f1-75cc-4548-856d-4923ddaba0dc""}","https://test12345.live/?num_scrambled_semantic=8&num_scrambled_causal=4&num_scrambled_schematic=4&participantId=B1A83D80254E4A3CB81D98E6917A3C6B&assignmentId=07962425-98bf-4916-b7fe-808a1cbc032a&projectId=051c06f1-75cc-4548-856d-4923ddaba0dc","B1A83D80254E4A3CB81D98E6917A3C6B-2025-05-15-19-03-29","","1337","","images/causal_sequence/the_performance_causal/the_performance_causal_ten.png","0","",""
"","","","","","image-button-response","97","556892","0.0-14.0-1.0-2.2","B1A83D80254E4A3CB81D98E6917A3C6B","B1A83D80254E4A3CB81D98E6917A3C6B","07962425-98bf-4916-b7fe-808a1cbc032a","051c06f1-75cc-4548-856d-4923ddaba0dc","{""num_scrambled_semantic"":""8"",""num_scrambled_causal"":""4"",""num_scrambled_schematic"":""4"",""participantId"":""B1A83D80254E4A3CB81D98E6917A3C6B"",""assignmentId"":""07962425-98bf-4916-b7fe-808a1cbc032a"",""projectId"":""051c06f1-75cc-4548-856d-4923ddaba0dc""}","https://test12345.live/?num_scrambled_semantic=8&num_scrambled_causal=4&num_scrambled_schematic=4&participantId=B1A83D80254E4A3CB81D98E6917A3C6B&assignmentId=07962425-98bf-4916-b7fe-808a1cbc032a&projectId=051c06f1-75cc-4548-856d-4923ddaba0dc","B1A83D80254E4A3CB81D98E6917A3C6B-2025-05-15-19-03-29","","null","","[]","null","",""
"","","","","","image-button-response","98","561397","0.0-14.0-1.0-0.3","B1A83D80254E4A3CB81D98E6917A3C6B","B1A83D80254E4A3CB81D98E6917A3C6B","07962425-98bf-4916-b7fe-808a1cbc032a","051c06f1-75cc-4548-856d-4923ddaba0dc","{""num_scrambled_semantic"":""8"",""num_scrambled_causal"":""4"",""num_scrambled_schematic"":""4"",""participantId"":""B1A83D80254E4A3CB81D98E6917A3C6B"",""assignmentId"":""07962425-98bf-4916-b7fe-808a1cbc032a"",""projectId"":""051c06f1-75cc-4548-856d-4923ddaba0dc""}","https://test12345.live/?num_scrambled_semantic=8&num_scrambled_causal=4&num_scrambled_schematic=4&participantId=B1A83D80254E4A3CB81D98E6917A3C6B&assignmentId=07962425-98bf-4916-b7fe-808a1cbc032a&projectId=051c06f1-75cc-4548-856d-4923ddaba0dc","B1A83D80254E4A3CB81D98E6917A3C6B-2025-05-15-19-03-29","","null","","images/causal_sequence/the_performance_causal/the_performance_causal_6.png","null","",""
"","","","","","image-button-response","99","562418","0.0-14.0-1.0-1.3","B1A83D80254E4A3CB81D98E6917A3C6B","B1A83D80254E4A3CB81D98E6917A3C6B","07962425-98bf-4916-b7fe-808a1cbc032a","051c06f1-75cc-4548-856d-4923ddaba0dc","{""num_scrambled_semantic"":""8"",""num_scrambled_causal"":""4"",""num_scrambled_schematic"":""4"",""participantId"":""B1A83D80254E4A3CB81D98E6917A3C6B"",""assignmentId"":""07962425-98bf-4916-b7fe-808a1cbc032a"",""projectId"":""051c06f1-75cc-4548-856d-4923ddaba0dc""}","https://test12345.live/?num_scrambled_semantic=8&num_scrambled_causal=4&num_scrambled_schematic=4&participantId=B1A83D80254E4A3CB81D98E6917A3C6B&assignmentId=07962425-98bf-4916-b7fe-808a1cbc032a&projectId=051c06f1-75cc-4548-856d-4923ddaba0dc","B1A83D80254E4A3CB81D98E6917A3C6B-2025-05-15-19-03-29","","1018","","images/causal_sequence/the_performance_causal/the_performance_causal_6.png","0","",""
"","","","","","image-button-response","100","564226","0.0-14.0-1.0-2.3","B1A83D80254E4A3CB81D98E6917A3C6B","B1A83D80254E4A3CB81D98E6917A3C6B","07962425-98bf-4916-b7fe-808a1cbc032a","051c06f1-75cc-4548-856d-4923ddaba0dc","{""num_scrambled_semantic"":""8"",""num_scrambled_causal"":""4"",""num_scrambled_schematic"":""4"",""participantId"":""B1A83D80254E4A3CB81D98E6917A3C6B"",""assignmentId"":""07962425-98bf-4916-b7fe-808a1cbc032a"",""projectId"":""051c06f1-75cc-4548-856d-4923ddaba0dc""}","https://test12345.live/?num_scrambled_semantic=8&num_scrambled_causal=4&num_scrambled_schematic=4&participantId=B1A83D80254E4A3CB81D98E6917A3C6B&assignmentId=07962425-98bf-4916-b7fe-808a1cbc032a&projectId=051c06f1-75cc-4548-856d-4923ddaba0dc","B1A83D80254E4A3CB81D98E6917A3C6B-2025-05-15-19-03-29","","null","","[]","null","",""
"","","","","","image-button-response","101","568733","0.0-14.0-1.0-0.4","B1A83D80254E4A3CB81D98E6917A3C6B","B1A83D80254E4A3CB81D98E6917A3C6B","07962425-98bf-4916-b7fe-808a1cbc032a","051c06f1-75cc-4548-856d-4923ddaba0dc","{""num_scrambled_semantic"":""8"",""num_scrambled_causal"":""4"",""num_scrambled_schematic"":""4"",""participantId"":""B1A83D80254E4A3CB81D98E6917A3C6B"",""assignmentId"":""07962425-98bf-4916-b7fe-808a1cbc032a"",""projectId"":""051c06f1-75cc-4548-856d-4923ddaba0dc""}","https://test12345.live/?num_scrambled_semantic=8&num_scrambled_causal=4&num_scrambled_schematic=4&participantId=B1A83D80254E4A3CB81D98E6917A3C6B&assignmentId=07962425-98bf-4916-b7fe-808a1cbc032a&projectId=051c06f1-75cc-4548-856d-4923ddaba0dc","B1A83D80254E4A3CB81D98E6917A3C6B-2025-05-15-19-03-29","","null","","images/causal_sequence/the_performance_causal/the_performance_causal_7.png","null","",""
"","","","","","image-button-response","102","569688","0.0-14.0-1.0-1.4","B1A83D80254E4A3CB81D98E6917A3C6B","B1A83D80254E4A3CB81D98E6917A3C6B","07962425-98bf-4916-b7fe-808a1cbc032a","051c06f1-75cc-4548-856d-4923ddaba0dc","{""num_scrambled_semantic"":""8"",""num_scrambled_causal"":""4"",""num_scrambled_schematic"":""4"",""participantId"":""B1A83D80254E4A3CB81D98E6917A3C6B"",""assignmentId"":""07962425-98bf-4916-b7fe-808a1cbc032a"",""projectId"":""051c06f1-75cc-4548-856d-4923ddaba0dc""}","https://test12345.live/?num_scrambled_semantic=8&num_scrambled_causal=4&num_scrambled_schematic=4&participantId=B1A83D80254E4A3CB81D98E6917A3C6B&assignmentId=07962425-98bf-4916-b7fe-808a1cbc032a&projectId=051c06f1-75cc-4548-856d-4923ddaba0dc","B1A83D80254E4A3CB81D98E6917A3C6B-2025-05-15-19-03-29","","954","","images/causal_sequence/the_performance_causal/the_performance_causal_7.png","0","",""
"","","","","","image-button-response","103","571493","0.0-14.0-1.0-2.4","B1A83D80254E4A3CB81D98E6917A3C6B","B1A83D80254E4A3CB81D98E6917A3C6B","07962425-98bf-4916-b7fe-808a1cbc032a","051c06f1-75cc-4548-856d-4923ddaba0dc","{""num_scrambled_semantic"":""8"",""num_scrambled_causal"":""4"",""num_scrambled_schematic"":""4"",""participantId"":""B1A83D80254E4A3CB81D98E6917A3C6B"",""assignmentId"":""07962425-98bf-4916-b7fe-808a1cbc032a"",""projectId"":""051c06f1-75cc-4548-856d-4923ddaba0dc""}","https://test12345.live/?num_scrambled_semantic=8&num_scrambled_causal=4&num_scrambled_schematic=4&participantId=B1A83D80254E4A3CB81D98E6917A3C6B&assignmentId=07962425-98bf-4916-b7fe-808a1cbc032a&projectId=051c06f1-75cc-4548-856d-4923ddaba0dc","B1A83D80254E4A3CB81D98E6917A3C6B-2025-05-15-19-03-29","","null","","[]","null","",""
"","","","","","image-button-response","104","575995","0.0-14.0-1.0-0.5","B1A83D80254E4A3CB81D98E6917A3C6B","B1A83D80254E4A3CB81D98E6917A3C6B","07962425-98bf-4916-b7fe-808a1cbc032a","051c06f1-75cc-4548-856d-4923ddaba0dc","{""num_scrambled_semantic"":""8"",""num_scrambled_causal"":""4"",""num_scrambled_schematic"":""4"",""participantId"":""B1A83D80254E4A3CB81D98E6917A3C6B"",""assignmentId"":""07962425-98bf-4916-b7fe-808a1cbc032a"",""projectId"":""051c06f1-75cc-4548-856d-4923ddaba0dc""}","https://test12345.live/?num_scrambled_semantic=8&num_scrambled_causal=4&num_scrambled_schematic=4&participantId=B1A83D80254E4A3CB81D98E6917A3C6B&assignmentId=07962425-98bf-4916-b7fe-808a1cbc032a&projectId=051c06f1-75cc-4548-856d-4923ddaba0dc","B1A83D80254E4A3CB81D98E6917A3C6B-2025-05-15-19-03-29","","null","","images/causal_sequence/the_performance_causal/the_performance_causal_4.png","null","",""
"","","","","","image-button-response","105","576791","0.0-14.0-1.0-1.5","B1A83D80254E4A3CB81D98E6917A3C6B","B1A83D80254E4A3CB81D98E6917A3C6B","07962425-98bf-4916-b7fe-808a1cbc032a","051c06f1-75cc-4548-856d-4923ddaba0dc","{""num_scrambled_semantic"":""8"",""num_scrambled_causal"":""4"",""num_scrambled_schematic"":""4"",""participantId"":""B1A83D80254E4A3CB81D98E6917A3C6B"",""assignmentId"":""07962425-98bf-4916-b7fe-808a1cbc032a"",""projectId"":""051c06f1-75cc-4548-856d-4923ddaba0dc""}","https://test12345.live/?num_scrambled_semantic=8&num_scrambled_causal=4&num_scrambled_schematic=4&participantId=B1A83D80254E4A3CB81D98E6917A3C6B&assignmentId=07962425-98bf-4916-b7fe-808a1cbc032a&projectId=051c06f1-75cc-4548-856d-4923ddaba0dc","B1A83D80254E4A3CB81D98E6917A3C6B-2025-05-15-19-03-29","","795","","images/causal_sequence/the_performance_causal/the_performance_causal_4.png","0","",""
"","","","","","image-button-response","106","578604","0.0-14.0-1.0-2.5","B1A83D80254E4A3CB81D98E6917A3C6B","B1A83D80254E4A3CB81D98E6917A3C6B","07962425-98bf-4916-b7fe-808a1cbc032a","051c06f1-75cc-4548-856d-4923ddaba0dc","{""num_scrambled_semantic"":""8"",""num_scrambled_causal"":""4"",""num_scrambled_schematic"":""4"",""participantId"":""B1A83D80254E4A3CB81D98E6917A3C6B"",""assignmentId"":""07962425-98bf-4916-b7fe-808a1cbc032a"",""projectId"":""051c06f1-75cc-4548-856d-4923ddaba0dc""}","https://test12345.live/?num_scrambled_semantic=8&num_scrambled_causal=4&num_scrambled_schematic=4&participantId=B1A83D80254E4A3CB81D98E6917A3C6B&assignmentId=07962425-98bf-4916-b7fe-808a1cbc032a&projectId=051c06f1-75cc-4548-856d-4923ddaba0dc","B1A83D80254E4A3CB81D98E6917A3C6B-2025-05-15-19-03-29","","null","","[]","null","",""
"","","","","","image-button-response","107","583106","0.0-14.0-1.0-0.6","B1A83D80254E4A3CB81D98E6917A3C6B","B1A83D80254E4A3CB81D98E6917A3C6B","07962425-98bf-4916-b7fe-808a1cbc032a","051c06f1-75cc-4548-856d-4923ddaba0dc","{""num_scrambled_semantic"":""8"",""num_scrambled_causal"":""4"",""num_scrambled_schematic"":""4"",""participantId"":""B1A83D80254E4A3CB81D98E6917A3C6B"",""assignmentId"":""07962425-98bf-4916-b7fe-808a1cbc032a"",""projectId"":""051c06f1-75cc-4548-856d-4923ddaba0dc""}","https://test12345.live/?num_scrambled_semantic=8&num_scrambled_causal=4&num_scrambled_schematic=4&participantId=B1A83D80254E4A3CB81D98E6917A3C6B&assignmentId=07962425-98bf-4916-b7fe-808a1cbc032a&projectId=051c06f1-75cc-4548-856d-4923ddaba0dc","B1A83D80254E4A3CB81D98E6917A3C6B-2025-05-15-19-03-29","","null","","images/causal_sequence/the_performance_causal/the_performance_causal_5.png","null","",""
"","","","","","image-button-response","108","584152","0.0-14.0-1.0-1.6","B1A83D80254E4A3CB81D98E6917A3C6B","B1A83D80254E4A3CB81D98E6917A3C6B","07962425-98bf-4916-b7fe-808a1cbc032a","051c06f1-75cc-4548-856d-4923ddaba0dc","{""num_scrambled_semantic"":""8"",""num_scrambled_causal"":""4"",""num_scrambled_schematic"":""4"",""participantId"":""B1A83D80254E4A3CB81D98E6917A3C6B"",""assignmentId"":""07962425-98bf-4916-b7fe-808a1cbc032a"",""projectId"":""051c06f1-75cc-4548-856d-4923ddaba0dc""}","https://test12345.live/?num_scrambled_semantic=8&num_scrambled_causal=4&num_scrambled_schematic=4&participantId=B1A83D80254E4A3CB81D98E6917A3C6B&assignmentId=07962425-98bf-4916-b7fe-808a1cbc032a&projectId=051c06f1-75cc-4548-856d-4923ddaba0dc","B1A83D80254E4A3CB81D98E6917A3C6B-2025-05-15-19-03-29","","1043","","images/causal_sequence/the_performance_causal/the_performance_causal_5.png","0","",""
"","","","","","image-button-response","109","585960","0.0-14.0-1.0-2.6","B1A83D80254E4A3CB81D98E6917A3C6B","B1A83D80254E4A3CB81D98E6917A3C6B","07962425-98bf-4916-b7fe-808a1cbc032a","051c06f1-75cc-4548-856d-4923ddaba0dc","{""num_scrambled_semantic"":""8"",""num_scrambled_causal"":""4"",""num_scrambled_schematic"":""4"",""participantId"":""B1A83D80254E4A3CB81D98E6917A3C6B"",""assignmentId"":""07962425-98bf-4916-b7fe-808a1cbc032a"",""projectId"":""051c06f1-75cc-4548-856d-4923ddaba0dc""}","https://test12345.live/?num_scrambled_semantic=8&num_scrambled_causal=4&num_scrambled_schematic=4&participantId=B1A83D80254E4A3CB81D98E6917A3C6B&assignmentId=07962425-98bf-4916-b7fe-808a1cbc032a&projectId=051c06f1-75cc-4548-856d-4923ddaba0dc","B1A83D80254E4A3CB81D98E6917A3C6B-2025-05-15-19-03-29","","null","","[]","null","",""
"","","","","","image-button-response","110","590477","0.0-14.0-1.0-0.7","B1A83D80254E4A3CB81D98E6917A3C6B","B1A83D80254E4A3CB81D98E6917A3C6B","07962425-98bf-4916-b7fe-808a1cbc032a","051c06f1-75cc-4548-856d-4923ddaba0dc","{""num_scrambled_semantic"":""8"",""num_scrambled_causal"":""4"",""num_scrambled_schematic"":""4"",""participantId"":""B1A83D80254E4A3CB81D98E6917A3C6B"",""assignmentId"":""07962425-98bf-4916-b7fe-808a1cbc032a"",""projectId"":""051c06f1-75cc-4548-856d-4923ddaba0dc""}","https://test12345.live/?num_scrambled_semantic=8&num_scrambled_causal=4&num_scrambled_schematic=4&participantId=B1A83D80254E4A3CB81D98E6917A3C6B&assignmentId=07962425-98bf-4916-b7fe-808a1cbc032a&projectId=051c06f1-75cc-4548-856d-4923ddaba0dc","B1A83D80254E4A3CB81D98E6917A3C6B-2025-05-15-19-03-29","","null","","images/causal_sequence/the_performance_causal/the_performance_causal_9.png","null","",""
"","","","","","image-button-response","111","591505","0.0-14.0-1.0-1.7","B1A83D80254E4A3CB81D98E6917A3C6B","B1A83D80254E4A3CB81D98E6917A3C6B","07962425-98bf-4916-b7fe-808a1cbc032a","051c06f1-75cc-4548-856d-4923ddaba0dc","{""num_scrambled_semantic"":""8"",""num_scrambled_causal"":""4"",""num_scrambled_schematic"":""4"",""participantId"":""B1A83D80254E4A3CB81D98E6917A3C6B"",""assignmentId"":""07962425-98bf-4916-b7fe-808a1cbc032a"",""projectId"":""051c06f1-75cc-4548-856d-4923ddaba0dc""}","https://test12345.live/?num_scrambled_semantic=8&num_scrambled_causal=4&num_scrambled_schematic=4&participantId=B1A83D80254E4A3CB81D98E6917A3C6B&assignmentId=07962425-98bf-4916-b7fe-808a1cbc032a&projectId=051c06f1-75cc-4548-856d-4923ddaba0dc","B1A83D80254E4A3CB81D98E6917A3C6B-2025-05-15-19-03-29","","1025","","images/causal_sequence/the_performance_causal/the_performance_causal_9.png","0","",""
"","","","","","image-button-response","112","593316","0.0-14.0-1.0-2.7","B1A83D80254E4A3CB81D98E6917A3C6B","B1A83D80254E4A3CB81D98E6917A3C6B","07962425-98bf-4916-b7fe-808a1cbc032a","051c06f1-75cc-4548-856d-4923ddaba0dc","{""num_scrambled_semantic"":""8"",""num_scrambled_causal"":""4"",""num_scrambled_schematic"":""4"",""participantId"":""B1A83D80254E4A3CB81D98E6917A3C6B"",""assignmentId"":""07962425-98bf-4916-b7fe-808a1cbc032a"",""projectId"":""051c06f1-75cc-4548-856d-4923ddaba0dc""}","https://test12345.live/?num_scrambled_semantic=8&num_scrambled_causal=4&num_scrambled_schematic=4&participantId=B1A83D80254E4A3CB81D98E6917A3C6B&assignmentId=07962425-98bf-4916-b7fe-808a1cbc032a&projectId=051c06f1-75cc-4548-856d-4923ddaba0dc","B1A83D80254E4A3CB81D98E6917A3C6B-2025-05-15-19-03-29","","null","","[]","null","",""
"","","","","","image-button-response","113","597822","0.0-14.0-1.0-0.8","B1A83D80254E4A3CB81D98E6917A3C6B","B1A83D80254E4A3CB81D98E6917A3C6B","07962425-98bf-4916-b7fe-808a1cbc032a","051c06f1-75cc-4548-856d-4923ddaba0dc","{""num_scrambled_semantic"":""8"",""num_scrambled_causal"":""4"",""num_scrambled_schematic"":""4"",""participantId"":""B1A83D80254E4A3CB81D98E6917A3C6B"",""assignmentId"":""07962425-98bf-4916-b7fe-808a1cbc032a"",""projectId"":""051c06f1-75cc-4548-856d-4923ddaba0dc""}","https://test12345.live/?num_scrambled_semantic=8&num_scrambled_causal=4&num_scrambled_schematic=4&participantId=B1A83D80254E4A3CB81D98E6917A3C6B&assignmentId=07962425-98bf-4916-b7fe-808a1cbc032a&projectId=051c06f1-75cc-4548-856d-4923ddaba0dc","B1A83D80254E4A3CB81D98E6917A3C6B-2025-05-15-19-03-29","","null","","images/causal_sequence/the_performance_causal/the_performance_causal_8.png","null","",""
