"success","timeout","failed_images","failed_audio","failed_video","trial_type","trial_index","time_elapsed","internal_node_id","subject","subject_id","study_id","session_id","urlvar","current_url","audio_id","view_history","rt","device_id","stimulus","response","estimated_stimulus_onset","seq_name"
"true","false","[]","[]","[]","preload","0","42923","0.0-0.0","B2BE3CC91CF44DBE8A61406D34E9CDC8","B2BE3CC91CF44DBE8A61406D34E9CDC8","6692d05a-228e-4686-bbf3-a17553f31c48","ba640c14-69c5-453e-80b2-29051492c0e0","{""num_scrambled_semantic"":""8"",""num_scrambled_causal"":""4"",""num_scrambled_schematic"":""4"",""participantId"":""B2BE3CC91CF44DBE8A61406D34E9CDC8"",""assignmentId"":""6692d05a-228e-4686-bbf3-a17553f31c48"",""projectId"":""ba640c14-69c5-453e-80b2-29051492c0e0""}","https://test12345.live/?num_scrambled_semantic=8&num_scrambled_causal=4&num_scrambled_schematic=4&participantId=B2BE3CC91CF44DBE8A61406D34E9CDC8&assignmentId=6692d05a-228e-4686-bbf3-a17553f31c48&projectId=ba640c14-69c5-453e-80b2-29051492c0e0","B2BE3CC91CF44DBE8A61406D34E9CDC8-2025-05-14-20-50-31","","","","","","",""
"","","","","","instructions","1","53406","0.0-1.0","B2BE3CC91CF44DBE8A61406D34E9CDC8","B2BE3CC91CF44DBE8A61406D34E9CDC8","6692d05a-228e-4686-bbf3-a17553f31c48","ba640c14-69c5-453e-80b2-29051492c0e0","{""num_scrambled_semantic"":""8"",""num_scrambled_causal"":""4"",""num_scrambled_schematic"":""4"",""participantId"":""B2BE3CC91CF44DBE8A61406D34E9CDC8"",""assignmentId"":""6692d05a-228e-4686-bbf3-a17553f31c48"",""projectId"":""ba640c14-69c5-453e-80b2-29051492c0e0""}","https://test12345.live/?num_scrambled_semantic=8&num_scrambled_causal=4&num_scrambled_schematic=4&participantId=B2BE3CC91CF44DBE8A61406D34E9CDC8&assignmentId=6692d05a-228e-4686-bbf3-a17553f31c48&projectId=ba640c14-69c5-453e-80b2-29051492c0e0","B2BE3CC91CF44DBE8A61406D34E9CDC8-2025-05-14-20-50-31","[{""page_index"":0,""viewing_time"":10482}]","10482","","","","",""
"","","","","","instructions","2","56533","0.0-2.0","B2BE3CC91CF44DBE8A61406D34E9CDC8","B2BE3CC91CF44DBE8A61406D34E9CDC8","6692d05a-228e-4686-bbf3-a17553f31c48","ba640c14-69c5-453e-80b2-29051492c0e0","{""num_scrambled_semantic"":""8"",""num_scrambled_causal"":""4"",""num_scrambled_schematic"":""4"",""participantId"":""B2BE3CC91CF44DBE8A61406D34E9CDC8"",""assignmentId"":""6692d05a-228e-4686-bbf3-a17553f31c48"",""projectId"":""ba640c14-69c5-453e-80b2-29051492c0e0""}","https://test12345.live/?num_scrambled_semantic=8&num_scrambled_causal=4&num_scrambled_schematic=4&participantId=B2BE3CC91CF44DBE8A61406D34E9CDC8&assignmentId=6692d05a-228e-4686-bbf3-a17553f31c48&projectId=ba640c14-69c5-453e-80b2-29051492c0e0","B2BE3CC91CF44DBE8A61406D34E9CDC8-2025-05-14-20-50-31","[{""page_index"":0,""viewing_time"":3126}]","3126","","","","",""
"true","","","","","fullscreen","3","59398","0.0-3.0","B2BE3CC91CF44DBE8A61406D34E9CDC8","B2BE3CC91CF44DBE8A61406D34E9CDC8","6692d05a-228e-4686-bbf3-a17553f31c48","ba640c14-69c5-453e-80b2-29051492c0e0","{""num_scrambled_semantic"":""8"",""num_scrambled_causal"":""4"",""num_scrambled_schematic"":""4"",""participantId"":""B2BE3CC91CF44DBE8A61406D34E9CDC8"",""assignmentId"":""6692d05a-228e-4686-bbf3-a17553f31c48"",""projectId"":""ba640c14-69c5-453e-80b2-29051492c0e0""}","https://test12345.live/?num_scrambled_semantic=8&num_scrambled_causal=4&num_scrambled_schematic=4&participantId=B2BE3CC91CF44DBE8A61406D34E9CDC8&assignmentId=6692d05a-228e-4686-bbf3-a17553f31c48&projectId=ba640c14-69c5-453e-80b2-29051492c0e0","B2BE3CC91CF44DBE8A61406D34E9CDC8-2025-05-14-20-50-31","","1858","","","","",""
"","","","","","initialize-microphone","4","66797","0.0-4.0-0.0","B2BE3CC91CF44DBE8A61406D34E9CDC8","B2BE3CC91CF44DBE8A61406D34E9CDC8","6692d05a-228e-4686-bbf3-a17553f31c48","ba640c14-69c5-453e-80b2-29051492c0e0","{""num_scrambled_semantic"":""8"",""num_scrambled_causal"":""4"",""num_scrambled_schematic"":""4"",""participantId"":""B2BE3CC91CF44DBE8A61406D34E9CDC8"",""assignmentId"":""6692d05a-228e-4686-bbf3-a17553f31c48"",""projectId"":""ba640c14-69c5-453e-80b2-29051492c0e0""}","https://test12345.live/?num_scrambled_semantic=8&num_scrambled_causal=4&num_scrambled_schematic=4&participantId=B2BE3CC91CF44DBE8A61406D34E9CDC8&assignmentId=6692d05a-228e-4686-bbf3-a17553f31c48&projectId=ba640c14-69c5-453e-80b2-29051492c0e0","B2BE3CC91CF44DBE8A61406D34E9CDC8-2025-05-14-20-50-31","","","6ade1d2ec42a476449c66cb50a48e06b4e7c6c4d6399f6a6edaf9c5b986b894b","","","",""
"","","","","","html-audio-response","5","97532","0.0-4.0-1.0","B2BE3CC91CF44DBE8A61406D34E9CDC8","B2BE3CC91CF44DBE8A61406D34E9CDC8","6692d05a-228e-4686-bbf3-a17553f31c48","ba640c14-69c5-453e-80b2-29051492c0e0","{""num_scrambled_semantic"":""8"",""num_scrambled_causal"":""4"",""num_scrambled_schematic"":""4"",""participantId"":""B2BE3CC91CF44DBE8A61406D34E9CDC8"",""assignmentId"":""6692d05a-228e-4686-bbf3-a17553f31c48"",""projectId"":""ba640c14-69c5-453e-80b2-29051492c0e0""}","https://test12345.live/?num_scrambled_semantic=8&num_scrambled_causal=4&num_scrambled_schematic=4&participantId=B2BE3CC91CF44DBE8A61406D34E9CDC8&assignmentId=6692d05a-228e-4686-bbf3-a17553f31c48&projectId=ba640c14-69c5-453e-80b2-29051492c0e0","B2BE3CC91CF44DBE8A61406D34E9CDC8-2025-05-14-20-50-31","","15982","","<span style=""color: red; font-size: 24px""> NOW RECORDING</span>
        <p>Please test Microphone</p>","","5",""
"","","","","","html-button-response","6","99923","0.0-4.0-2.0","B2BE3CC91CF44DBE8A61406D34E9CDC8","B2BE3CC91CF44DBE8A61406D34E9CDC8","6692d05a-228e-4686-bbf3-a17553f31c48","ba640c14-69c5-453e-80b2-29051492c0e0","{""num_scrambled_semantic"":""8"",""num_scrambled_causal"":""4"",""num_scrambled_schematic"":""4"",""participantId"":""B2BE3CC91CF44DBE8A61406D34E9CDC8"",""assignmentId"":""6692d05a-228e-4686-bbf3-a17553f31c48"",""projectId"":""ba640c14-69c5-453e-80b2-29051492c0e0""}","https://test12345.live/?num_scrambled_semantic=8&num_scrambled_causal=4&num_scrambled_schematic=4&participantId=B2BE3CC91CF44DBE8A61406D34E9CDC8&assignmentId=6692d05a-228e-4686-bbf3-a17553f31c48&projectId=ba640c14-69c5-453e-80b2-29051492c0e0","B2BE3CC91CF44DBE8A61406D34E9CDC8-2025-05-14-20-50-31","","2389","","<p style=""font-size:48px; color:red;"">Is Microphone OK?</p>","1","",""
"","","","","","instructions","7","115564","0.0-5.0","B2BE3CC91CF44DBE8A61406D34E9CDC8","B2BE3CC91CF44DBE8A61406D34E9CDC8","6692d05a-228e-4686-bbf3-a17553f31c48","ba640c14-69c5-453e-80b2-29051492c0e0","{""num_scrambled_semantic"":""8"",""num_scrambled_causal"":""4"",""num_scrambled_schematic"":""4"",""participantId"":""B2BE3CC91CF44DBE8A61406D34E9CDC8"",""assignmentId"":""6692d05a-228e-4686-bbf3-a17553f31c48"",""projectId"":""ba640c14-69c5-453e-80b2-29051492c0e0""}","https://test12345.live/?num_scrambled_semantic=8&num_scrambled_causal=4&num_scrambled_schematic=4&participantId=B2BE3CC91CF44DBE8A61406D34E9CDC8&assignmentId=6692d05a-228e-4686-bbf3-a17553f31c48&projectId=ba640c14-69c5-453e-80b2-29051492c0e0","B2BE3CC91CF44DBE8A61406D34E9CDC8-2025-05-14-20-50-31","[{""page_index"":0,""viewing_time"":5404},{""page_index"":1,""viewing_time"":10236}]","15639","","","","",""
"","","","","","image-button-response","8","121577","0.0-6.0-0.0","B2BE3CC91CF44DBE8A61406D34E9CDC8","B2BE3CC91CF44DBE8A61406D34E9CDC8","6692d05a-228e-4686-bbf3-a17553f31c48","ba640c14-69c5-453e-80b2-29051492c0e0","{""num_scrambled_semantic"":""8"",""num_scrambled_causal"":""4"",""num_scrambled_schematic"":""4"",""participantId"":""B2BE3CC91CF44DBE8A61406D34E9CDC8"",""assignmentId"":""6692d05a-228e-4686-bbf3-a17553f31c48"",""projectId"":""ba640c14-69c5-453e-80b2-29051492c0e0""}","https://test12345.live/?num_scrambled_semantic=8&num_scrambled_causal=4&num_scrambled_schematic=4&participantId=B2BE3CC91CF44DBE8A61406D34E9CDC8&assignmentId=6692d05a-228e-4686-bbf3-a17553f31c48&projectId=ba640c14-69c5-453e-80b2-29051492c0e0","B2BE3CC91CF44DBE8A61406D34E9CDC8-2025-05-14-20-50-31","","null","","images/instructions/movie_0.png","null","",""
"","","","","","image-button-response","9","126082","0.0-6.0-1.0-0.0","B2BE3CC91CF44DBE8A61406D34E9CDC8","B2BE3CC91CF44DBE8A61406D34E9CDC8","6692d05a-228e-4686-bbf3-a17553f31c48","ba640c14-69c5-453e-80b2-29051492c0e0","{""num_scrambled_semantic"":""8"",""num_scrambled_causal"":""4"",""num_scrambled_schematic"":""4"",""participantId"":""B2BE3CC91CF44DBE8A61406D34E9CDC8"",""assignmentId"":""6692d05a-228e-4686-bbf3-a17553f31c48"",""projectId"":""ba640c14-69c5-453e-80b2-29051492c0e0""}","https://test12345.live/?num_scrambled_semantic=8&num_scrambled_causal=4&num_scrambled_schematic=4&participantId=B2BE3CC91CF44DBE8A61406D34E9CDC8&assignmentId=6692d05a-228e-4686-bbf3-a17553f31c48&projectId=ba640c14-69c5-453e-80b2-29051492c0e0","B2BE3CC91CF44DBE8A61406D34E9CDC8-2025-05-14-20-50-31","","null","","images/instructions/movie_1.png","null","",""
"","","","","","image-button-response","10","129769","0.0-6.0-1.0-1.0","B2BE3CC91CF44DBE8A61406D34E9CDC8","B2BE3CC91CF44DBE8A61406D34E9CDC8","6692d05a-228e-4686-bbf3-a17553f31c48","ba640c14-69c5-453e-80b2-29051492c0e0","{""num_scrambled_semantic"":""8"",""num_scrambled_causal"":""4"",""num_scrambled_schematic"":""4"",""participantId"":""B2BE3CC91CF44DBE8A61406D34E9CDC8"",""assignmentId"":""6692d05a-228e-4686-bbf3-a17553f31c48"",""projectId"":""ba640c14-69c5-453e-80b2-29051492c0e0""}","https://test12345.live/?num_scrambled_semantic=8&num_scrambled_causal=4&num_scrambled_schematic=4&participantId=B2BE3CC91CF44DBE8A61406D34E9CDC8&assignmentId=6692d05a-228e-4686-bbf3-a17553f31c48&projectId=ba640c14-69c5-453e-80b2-29051492c0e0","B2BE3CC91CF44DBE8A61406D34E9CDC8-2025-05-14-20-50-31","","3684","","images/instructions/movie_1.png","0","",""
"","","","","","image-button-response","11","131572","0.0-6.0-1.0-2.0","B2BE3CC91CF44DBE8A61406D34E9CDC8","B2BE3CC91CF44DBE8A61406D34E9CDC8","6692d05a-228e-4686-bbf3-a17553f31c48","ba640c14-69c5-453e-80b2-29051492c0e0","{""num_scrambled_semantic"":""8"",""num_scrambled_causal"":""4"",""num_scrambled_schematic"":""4"",""participantId"":""B2BE3CC91CF44DBE8A61406D34E9CDC8"",""assignmentId"":""6692d05a-228e-4686-bbf3-a17553f31c48"",""projectId"":""ba640c14-69c5-453e-80b2-29051492c0e0""}","https://test12345.live/?num_scrambled_semantic=8&num_scrambled_causal=4&num_scrambled_schematic=4&participantId=B2BE3CC91CF44DBE8A61406D34E9CDC8&assignmentId=6692d05a-228e-4686-bbf3-a17553f31c48&projectId=ba640c14-69c5-453e-80b2-29051492c0e0","B2BE3CC91CF44DBE8A61406D34E9CDC8-2025-05-14-20-50-31","","null","","[]","null","",""
"","","","","","image-button-response","12","136088","0.0-6.0-1.0-0.1","B2BE3CC91CF44DBE8A61406D34E9CDC8","B2BE3CC91CF44DBE8A61406D34E9CDC8","6692d05a-228e-4686-bbf3-a17553f31c48","ba640c14-69c5-453e-80b2-29051492c0e0","{""num_scrambled_semantic"":""8"",""num_scrambled_causal"":""4"",""num_scrambled_schematic"":""4"",""participantId"":""B2BE3CC91CF44DBE8A61406D34E9CDC8"",""assignmentId"":""6692d05a-228e-4686-bbf3-a17553f31c48"",""projectId"":""ba640c14-69c5-453e-80b2-29051492c0e0""}","https://test12345.live/?num_scrambled_semantic=8&num_scrambled_causal=4&num_scrambled_schematic=4&participantId=B2BE3CC91CF44DBE8A61406D34E9CDC8&assignmentId=6692d05a-228e-4686-bbf3-a17553f31c48&projectId=ba640c14-69c5-453e-80b2-29051492c0e0","B2BE3CC91CF44DBE8A61406D34E9CDC8-2025-05-14-20-50-31","","null","","images/instructions/movie_2.png","null","",""
"","","","","","image-button-response","13","139941","0.0-6.0-1.0-1.1","B2BE3CC91CF44DBE8A61406D34E9CDC8","B2BE3CC91CF44DBE8A61406D34E9CDC8","6692d05a-228e-4686-bbf3-a17553f31c48","ba640c14-69c5-453e-80b2-29051492c0e0","{""num_scrambled_semantic"":""8"",""num_scrambled_causal"":""4"",""num_scrambled_schematic"":""4"",""participantId"":""B2BE3CC91CF44DBE8A61406D34E9CDC8"",""assignmentId"":""6692d05a-228e-4686-bbf3-a17553f31c48"",""projectId"":""ba640c14-69c5-453e-80b2-29051492c0e0""}","https://test12345.live/?num_scrambled_semantic=8&num_scrambled_causal=4&num_scrambled_schematic=4&participantId=B2BE3CC91CF44DBE8A61406D34E9CDC8&assignmentId=6692d05a-228e-4686-bbf3-a17553f31c48&projectId=ba640c14-69c5-453e-80b2-29051492c0e0","B2BE3CC91CF44DBE8A61406D34E9CDC8-2025-05-14-20-50-31","","3850","","images/instructions/movie_2.png","0","",""
"","","","","","image-button-response","14","141760","0.0-6.0-1.0-2.1","B2BE3CC91CF44DBE8A61406D34E9CDC8","B2BE3CC91CF44DBE8A61406D34E9CDC8","6692d05a-228e-4686-bbf3-a17553f31c48","ba640c14-69c5-453e-80b2-29051492c0e0","{""num_scrambled_semantic"":""8"",""num_scrambled_causal"":""4"",""num_scrambled_schematic"":""4"",""participantId"":""B2BE3CC91CF44DBE8A61406D34E9CDC8"",""assignmentId"":""6692d05a-228e-4686-bbf3-a17553f31c48"",""projectId"":""ba640c14-69c5-453e-80b2-29051492c0e0""}","https://test12345.live/?num_scrambled_semantic=8&num_scrambled_causal=4&num_scrambled_schematic=4&participantId=B2BE3CC91CF44DBE8A61406D34E9CDC8&assignmentId=6692d05a-228e-4686-bbf3-a17553f31c48&projectId=ba640c14-69c5-453e-80b2-29051492c0e0","B2BE3CC91CF44DBE8A61406D34E9CDC8-2025-05-14-20-50-31","","null","","[]","null","",""
"","","","","","image-button-response","15","146277","0.0-6.0-1.0-0.2","B2BE3CC91CF44DBE8A61406D34E9CDC8","B2BE3CC91CF44DBE8A61406D34E9CDC8","6692d05a-228e-4686-bbf3-a17553f31c48","ba640c14-69c5-453e-80b2-29051492c0e0","{""num_scrambled_semantic"":""8"",""num_scrambled_causal"":""4"",""num_scrambled_schematic"":""4"",""participantId"":""B2BE3CC91CF44DBE8A61406D34E9CDC8"",""assignmentId"":""6692d05a-228e-4686-bbf3-a17553f31c48"",""projectId"":""ba640c14-69c5-453e-80b2-29051492c0e0""}","https://test12345.live/?num_scrambled_semantic=8&num_scrambled_causal=4&num_scrambled_schematic=4&participantId=B2BE3CC91CF44DBE8A61406D34E9CDC8&assignmentId=6692d05a-228e-4686-bbf3-a17553f31c48&projectId=ba640c14-69c5-453e-80b2-29051492c0e0","B2BE3CC91CF44DBE8A61406D34E9CDC8-2025-05-14-20-50-31","","null","","images/instructions/movie_3.png","null","",""
"","","","","","image-button-response","16","148179","0.0-6.0-1.0-1.2","B2BE3CC91CF44DBE8A61406D34E9CDC8","B2BE3CC91CF44DBE8A61406D34E9CDC8","6692d05a-228e-4686-bbf3-a17553f31c48","ba640c14-69c5-453e-80b2-29051492c0e0","{""num_scrambled_semantic"":""8"",""num_scrambled_causal"":""4"",""num_scrambled_schematic"":""4"",""participantId"":""B2BE3CC91CF44DBE8A61406D34E9CDC8"",""assignmentId"":""6692d05a-228e-4686-bbf3-a17553f31c48"",""projectId"":""ba640c14-69c5-453e-80b2-29051492c0e0""}","https://test12345.live/?num_scrambled_semantic=8&num_scrambled_causal=4&num_scrambled_schematic=4&participantId=B2BE3CC91CF44DBE8A61406D34E9CDC8&assignmentId=6692d05a-228e-4686-bbf3-a17553f31c48&projectId=ba640c14-69c5-453e-80b2-29051492c0e0","B2BE3CC91CF44DBE8A61406D34E9CDC8-2025-05-14-20-50-31","","1899","","images/instructions/movie_3.png","0","",""
"","","","","","image-button-response","17","149981","0.0-6.0-1.0-2.2","B2BE3CC91CF44DBE8A61406D34E9CDC8","B2BE3CC91CF44DBE8A61406D34E9CDC8","6692d05a-228e-4686-bbf3-a17553f31c48","ba640c14-69c5-453e-80b2-29051492c0e0","{""num_scrambled_semantic"":""8"",""num_scrambled_causal"":""4"",""num_scrambled_schematic"":""4"",""participantId"":""B2BE3CC91CF44DBE8A61406D34E9CDC8"",""assignmentId"":""6692d05a-228e-4686-bbf3-a17553f31c48"",""projectId"":""ba640c14-69c5-453e-80b2-29051492c0e0""}","https://test12345.live/?num_scrambled_semantic=8&num_scrambled_causal=4&num_scrambled_schematic=4&participantId=B2BE3CC91CF44DBE8A61406D34E9CDC8&assignmentId=6692d05a-228e-4686-bbf3-a17553f31c48&projectId=ba640c14-69c5-453e-80b2-29051492c0e0","B2BE3CC91CF44DBE8A61406D34E9CDC8-2025-05-14-20-50-31","","null","","[]","null","",""
"","","","","","image-button-response","18","154500","0.0-6.0-1.0-0.3","B2BE3CC91CF44DBE8A61406D34E9CDC8","B2BE3CC91CF44DBE8A61406D34E9CDC8","6692d05a-228e-4686-bbf3-a17553f31c48","ba640c14-69c5-453e-80b2-29051492c0e0","{""num_scrambled_semantic"":""8"",""num_scrambled_causal"":""4"",""num_scrambled_schematic"":""4"",""participantId"":""B2BE3CC91CF44DBE8A61406D34E9CDC8"",""assignmentId"":""6692d05a-228e-4686-bbf3-a17553f31c48"",""projectId"":""ba640c14-69c5-453e-80b2-29051492c0e0""}","https://test12345.live/?num_scrambled_semantic=8&num_scrambled_causal=4&num_scrambled_schematic=4&participantId=B2BE3CC91CF44DBE8A61406D34E9CDC8&assignmentId=6692d05a-228e-4686-bbf3-a17553f31c48&projectId=ba640c14-69c5-453e-80b2-29051492c0e0","B2BE3CC91CF44DBE8A61406D34E9CDC8-2025-05-14-20-50-31","","null","","images/instructions/movie_4.png","null","",""
"","","","","","image-button-response","19","155931","0.0-6.0-1.0-1.3","B2BE3CC91CF44DBE8A61406D34E9CDC8","B2BE3CC91CF44DBE8A61406D34E9CDC8","6692d05a-228e-4686-bbf3-a17553f31c48","ba640c14-69c5-453e-80b2-29051492c0e0","{""num_scrambled_semantic"":""8"",""num_scrambled_causal"":""4"",""num_scrambled_schematic"":""4"",""participantId"":""B2BE3CC91CF44DBE8A61406D34E9CDC8"",""assignmentId"":""6692d05a-228e-4686-bbf3-a17553f31c48"",""projectId"":""ba640c14-69c5-453e-80b2-29051492c0e0""}","https://test12345.live/?num_scrambled_semantic=8&num_scrambled_causal=4&num_scrambled_schematic=4&participantId=B2BE3CC91CF44DBE8A61406D34E9CDC8&assignmentId=6692d05a-228e-4686-bbf3-a17553f31c48&projectId=ba640c14-69c5-453e-80b2-29051492c0e0","B2BE3CC91CF44DBE8A61406D34E9CDC8-2025-05-14-20-50-31","","1430","","images/instructions/movie_4.png","0","",""
"","","","","","image-button-response","20","157743","0.0-6.0-1.0-2.3","B2BE3CC91CF44DBE8A61406D34E9CDC8","B2BE3CC91CF44DBE8A61406D34E9CDC8","6692d05a-228e-4686-bbf3-a17553f31c48","ba640c14-69c5-453e-80b2-29051492c0e0","{""num_scrambled_semantic"":""8"",""num_scrambled_causal"":""4"",""num_scrambled_schematic"":""4"",""participantId"":""B2BE3CC91CF44DBE8A61406D34E9CDC8"",""assignmentId"":""6692d05a-228e-4686-bbf3-a17553f31c48"",""projectId"":""ba640c14-69c5-453e-80b2-29051492c0e0""}","https://test12345.live/?num_scrambled_semantic=8&num_scrambled_causal=4&num_scrambled_schematic=4&participantId=B2BE3CC91CF44DBE8A61406D34E9CDC8&assignmentId=6692d05a-228e-4686-bbf3-a17553f31c48&projectId=ba640c14-69c5-453e-80b2-29051492c0e0","B2BE3CC91CF44DBE8A61406D34E9CDC8-2025-05-14-20-50-31","","null","","[]","null","",""
"","","","","","instructions","21","167004","0.0-7.0","B2BE3CC91CF44DBE8A61406D34E9CDC8","B2BE3CC91CF44DBE8A61406D34E9CDC8","6692d05a-228e-4686-bbf3-a17553f31c48","ba640c14-69c5-453e-80b2-29051492c0e0","{""num_scrambled_semantic"":""8"",""num_scrambled_causal"":""4"",""num_scrambled_schematic"":""4"",""participantId"":""B2BE3CC91CF44DBE8A61406D34E9CDC8"",""assignmentId"":""6692d05a-228e-4686-bbf3-a17553f31c48"",""projectId"":""ba640c14-69c5-453e-80b2-29051492c0e0""}","https://test12345.live/?num_scrambled_semantic=8&num_scrambled_causal=4&num_scrambled_schematic=4&participantId=B2BE3CC91CF44DBE8A61406D34E9CDC8&assignmentId=6692d05a-228e-4686-bbf3-a17553f31c48&projectId=ba640c14-69c5-453e-80b2-29051492c0e0","B2BE3CC91CF44DBE8A61406D34E9CDC8-2025-05-14-20-50-31","[{""page_index"":0,""viewing_time"":7542},{""page_index"":1,""viewing_time"":1719}]","9260","","","","",""
"","","","","","html-audio-response","22","190994","0.0-8.0","B2BE3CC91CF44DBE8A61406D34E9CDC8","B2BE3CC91CF44DBE8A61406D34E9CDC8","6692d05a-228e-4686-bbf3-a17553f31c48","ba640c14-69c5-453e-80b2-29051492c0e0","{""num_scrambled_semantic"":""8"",""num_scrambled_causal"":""4"",""num_scrambled_schematic"":""4"",""participantId"":""B2BE3CC91CF44DBE8A61406D34E9CDC8"",""assignmentId"":""6692d05a-228e-4686-bbf3-a17553f31c48"",""projectId"":""ba640c14-69c5-453e-80b2-29051492c0e0""}","https://test12345.live/?num_scrambled_semantic=8&num_scrambled_causal=4&num_scrambled_schematic=4&participantId=B2BE3CC91CF44DBE8A61406D34E9CDC8&assignmentId=6692d05a-228e-4686-bbf3-a17553f31c48&projectId=ba640c14-69c5-453e-80b2-29051492c0e0","B2BE3CC91CF44DBE8A61406D34E9CDC8-2025-05-14-20-50-31","","5104","","[""<span style=\""color: red; font-size: 24px\""> NOW RECORDING</span><p>Please say out loud all the images you saw, as many as you can remember. The images can be said in any order.</p>""]","","3",""
"","","","","","instructions","23","193882","0.0-9.0","B2BE3CC91CF44DBE8A61406D34E9CDC8","B2BE3CC91CF44DBE8A61406D34E9CDC8","6692d05a-228e-4686-bbf3-a17553f31c48","ba640c14-69c5-453e-80b2-29051492c0e0","{""num_scrambled_semantic"":""8"",""num_scrambled_causal"":""4"",""num_scrambled_schematic"":""4"",""participantId"":""B2BE3CC91CF44DBE8A61406D34E9CDC8"",""assignmentId"":""6692d05a-228e-4686-bbf3-a17553f31c48"",""projectId"":""ba640c14-69c5-453e-80b2-29051492c0e0""}","https://test12345.live/?num_scrambled_semantic=8&num_scrambled_causal=4&num_scrambled_schematic=4&participantId=B2BE3CC91CF44DBE8A61406D34E9CDC8&assignmentId=6692d05a-228e-4686-bbf3-a17553f31c48&projectId=ba640c14-69c5-453e-80b2-29051492c0e0","B2BE3CC91CF44DBE8A61406D34E9CDC8-2025-05-14-20-50-31","[{""page_index"":0,""viewing_time"":2884}]","2884","","","","",""
"","","","","","image-button-response","24","199895","0.0-10.0-0.0","B2BE3CC91CF44DBE8A61406D34E9CDC8","B2BE3CC91CF44DBE8A61406D34E9CDC8","6692d05a-228e-4686-bbf3-a17553f31c48","ba640c14-69c5-453e-80b2-29051492c0e0","{""num_scrambled_semantic"":""8"",""num_scrambled_causal"":""4"",""num_scrambled_schematic"":""4"",""participantId"":""B2BE3CC91CF44DBE8A61406D34E9CDC8"",""assignmentId"":""6692d05a-228e-4686-bbf3-a17553f31c48"",""projectId"":""ba640c14-69c5-453e-80b2-29051492c0e0""}","https://test12345.live/?num_scrambled_semantic=8&num_scrambled_causal=4&num_scrambled_schematic=4&participantId=B2BE3CC91CF44DBE8A61406D34E9CDC8&assignmentId=6692d05a-228e-4686-bbf3-a17553f31c48&projectId=ba640c14-69c5-453e-80b2-29051492c0e0","B2BE3CC91CF44DBE8A61406D34E9CDC8-2025-05-14-20-50-31","","null","","images/semantic_sequence/cat_care_semantic/cat_care_semantic_0.png","null","",""
"","","","","","image-button-response","25","204401","0.0-10.0-1.0-0.0","B2BE3CC91CF44DBE8A61406D34E9CDC8","B2BE3CC91CF44DBE8A61406D34E9CDC8","6692d05a-228e-4686-bbf3-a17553f31c48","ba640c14-69c5-453e-80b2-29051492c0e0","{""num_scrambled_semantic"":""8"",""num_scrambled_causal"":""4"",""num_scrambled_schematic"":""4"",""participantId"":""B2BE3CC91CF44DBE8A61406D34E9CDC8"",""assignmentId"":""6692d05a-228e-4686-bbf3-a17553f31c48"",""projectId"":""ba640c14-69c5-453e-80b2-29051492c0e0""}","https://test12345.live/?num_scrambled_semantic=8&num_scrambled_causal=4&num_scrambled_schematic=4&participantId=B2BE3CC91CF44DBE8A61406D34E9CDC8&assignmentId=6692d05a-228e-4686-bbf3-a17553f31c48&projectId=ba640c14-69c5-453e-80b2-29051492c0e0","B2BE3CC91CF44DBE8A61406D34E9CDC8-2025-05-14-20-50-31","","null","","images/semantic_sequence/cat_care_semantic/cat_care_semantic_8.png","null","",""
"","","","","","image-button-response","26","208404","0.0-10.0-1.0-1.0","B2BE3CC91CF44DBE8A61406D34E9CDC8","B2BE3CC91CF44DBE8A61406D34E9CDC8","6692d05a-228e-4686-bbf3-a17553f31c48","ba640c14-69c5-453e-80b2-29051492c0e0","{""num_scrambled_semantic"":""8"",""num_scrambled_causal"":""4"",""num_scrambled_schematic"":""4"",""participantId"":""B2BE3CC91CF44DBE8A61406D34E9CDC8"",""assignmentId"":""6692d05a-228e-4686-bbf3-a17553f31c48"",""projectId"":""ba640c14-69c5-453e-80b2-29051492c0e0""}","https://test12345.live/?num_scrambled_semantic=8&num_scrambled_causal=4&num_scrambled_schematic=4&participantId=B2BE3CC91CF44DBE8A61406D34E9CDC8&assignmentId=6692d05a-228e-4686-bbf3-a17553f31c48&projectId=ba640c14-69c5-453e-80b2-29051492c0e0","B2BE3CC91CF44DBE8A61406D34E9CDC8-2025-05-14-20-50-31","","null","","images/semantic_sequence/cat_care_semantic/cat_care_semantic_8.png","null","",""
"","","","","","image-button-response","27","210216","0.0-10.0-1.0-2.0","B2BE3CC91CF44DBE8A61406D34E9CDC8","B2BE3CC91CF44DBE8A61406D34E9CDC8","6692d05a-228e-4686-bbf3-a17553f31c48","ba640c14-69c5-453e-80b2-29051492c0e0","{""num_scrambled_semantic"":""8"",""num_scrambled_causal"":""4"",""num_scrambled_schematic"":""4"",""participantId"":""B2BE3CC91CF44DBE8A61406D34E9CDC8"",""assignmentId"":""6692d05a-228e-4686-bbf3-a17553f31c48"",""projectId"":""ba640c14-69c5-453e-80b2-29051492c0e0""}","https://test12345.live/?num_scrambled_semantic=8&num_scrambled_causal=4&num_scrambled_schematic=4&participantId=B2BE3CC91CF44DBE8A61406D34E9CDC8&assignmentId=6692d05a-228e-4686-bbf3-a17553f31c48&projectId=ba640c14-69c5-453e-80b2-29051492c0e0","B2BE3CC91CF44DBE8A61406D34E9CDC8-2025-05-14-20-50-31","","null","","[]","null","",""
"","","","","","image-button-response","28","214720","0.0-10.0-1.0-0.1","B2BE3CC91CF44DBE8A61406D34E9CDC8","B2BE3CC91CF44DBE8A61406D34E9CDC8","6692d05a-228e-4686-bbf3-a17553f31c48","ba640c14-69c5-453e-80b2-29051492c0e0","{""num_scrambled_semantic"":""8"",""num_scrambled_causal"":""4"",""num_scrambled_schematic"":""4"",""participantId"":""B2BE3CC91CF44DBE8A61406D34E9CDC8"",""assignmentId"":""6692d05a-228e-4686-bbf3-a17553f31c48"",""projectId"":""ba640c14-69c5-453e-80b2-29051492c0e0""}","https://test12345.live/?num_scrambled_semantic=8&num_scrambled_causal=4&num_scrambled_schematic=4&participantId=B2BE3CC91CF44DBE8A61406D34E9CDC8&assignmentId=6692d05a-228e-4686-bbf3-a17553f31c48&projectId=ba640c14-69c5-453e-80b2-29051492c0e0","B2BE3CC91CF44DBE8A61406D34E9CDC8-2025-05-14-20-50-31","","null","","images/semantic_sequence/cat_care_semantic/cat_care_semantic_6.png","null","",""
"","","","","","image-button-response","29","215844","0.0-10.0-1.0-1.1","B2BE3CC91CF44DBE8A61406D34E9CDC8","B2BE3CC91CF44DBE8A61406D34E9CDC8","6692d05a-228e-4686-bbf3-a17553f31c48","ba640c14-69c5-453e-80b2-29051492c0e0","{""num_scrambled_semantic"":""8"",""num_scrambled_causal"":""4"",""num_scrambled_schematic"":""4"",""participantId"":""B2BE3CC91CF44DBE8A61406D34E9CDC8"",""assignmentId"":""6692d05a-228e-4686-bbf3-a17553f31c48"",""projectId"":""ba640c14-69c5-453e-80b2-29051492c0e0""}","https://test12345.live/?num_scrambled_semantic=8&num_scrambled_causal=4&num_scrambled_schematic=4&participantId=B2BE3CC91CF44DBE8A61406D34E9CDC8&assignmentId=6692d05a-228e-4686-bbf3-a17553f31c48&projectId=ba640c14-69c5-453e-80b2-29051492c0e0","B2BE3CC91CF44DBE8A61406D34E9CDC8-2025-05-14-20-50-31","","1122","","images/semantic_sequence/cat_care_semantic/cat_care_semantic_6.png","1","",""
"","","","","","image-button-response","30","217649","0.0-10.0-1.0-2.1","B2BE3CC91CF44DBE8A61406D34E9CDC8","B2BE3CC91CF44DBE8A61406D34E9CDC8","6692d05a-228e-4686-bbf3-a17553f31c48","ba640c14-69c5-453e-80b2-29051492c0e0","{""num_scrambled_semantic"":""8"",""num_scrambled_causal"":""4"",""num_scrambled_schematic"":""4"",""participantId"":""B2BE3CC91CF44DBE8A61406D34E9CDC8"",""assignmentId"":""6692d05a-228e-4686-bbf3-a17553f31c48"",""projectId"":""ba640c14-69c5-453e-80b2-29051492c0e0""}","https://test12345.live/?num_scrambled_semantic=8&num_scrambled_causal=4&num_scrambled_schematic=4&participantId=B2BE3CC91CF44DBE8A61406D34E9CDC8&assignmentId=6692d05a-228e-4686-bbf3-a17553f31c48&projectId=ba640c14-69c5-453e-80b2-29051492c0e0","B2BE3CC91CF44DBE8A61406D34E9CDC8-2025-05-14-20-50-31","","null","","[]","null","",""
"","","","","","image-button-response","31","222164","0.0-10.0-1.0-0.2","B2BE3CC91CF44DBE8A61406D34E9CDC8","B2BE3CC91CF44DBE8A61406D34E9CDC8","6692d05a-228e-4686-bbf3-a17553f31c48","ba640c14-69c5-453e-80b2-29051492c0e0","{""num_scrambled_semantic"":""8"",""num_scrambled_causal"":""4"",""num_scrambled_schematic"":""4"",""participantId"":""B2BE3CC91CF44DBE8A61406D34E9CDC8"",""assignmentId"":""6692d05a-228e-4686-bbf3-a17553f31c48"",""projectId"":""ba640c14-69c5-453e-80b2-29051492c0e0""}","https://test12345.live/?num_scrambled_semantic=8&num_scrambled_causal=4&num_scrambled_schematic=4&participantId=B2BE3CC91CF44DBE8A61406D34E9CDC8&assignmentId=6692d05a-228e-4686-bbf3-a17553f31c48&projectId=ba640c14-69c5-453e-80b2-29051492c0e0","B2BE3CC91CF44DBE8A61406D34E9CDC8-2025-05-14-20-50-31","","null","","images/semantic_sequence/cat_care_semantic/cat_care_semantic_3.png","null","",""
"","","","","","image-button-response","32","223595","0.0-10.0-1.0-1.2","B2BE3CC91CF44DBE8A61406D34E9CDC8","B2BE3CC91CF44DBE8A61406D34E9CDC8","6692d05a-228e-4686-bbf3-a17553f31c48","ba640c14-69c5-453e-80b2-29051492c0e0","{""num_scrambled_semantic"":""8"",""num_scrambled_causal"":""4"",""num_scrambled_schematic"":""4"",""participantId"":""B2BE3CC91CF44DBE8A61406D34E9CDC8"",""assignmentId"":""6692d05a-228e-4686-bbf3-a17553f31c48"",""projectId"":""ba640c14-69c5-453e-80b2-29051492c0e0""}","https://test12345.live/?num_scrambled_semantic=8&num_scrambled_causal=4&num_scrambled_schematic=4&participantId=B2BE3CC91CF44DBE8A61406D34E9CDC8&assignmentId=6692d05a-228e-4686-bbf3-a17553f31c48&projectId=ba640c14-69c5-453e-80b2-29051492c0e0","B2BE3CC91CF44DBE8A61406D34E9CDC8-2025-05-14-20-50-31","","1429","","images/semantic_sequence/cat_care_semantic/cat_care_semantic_3.png","1","",""
"","","","","","image-button-response","33","225403","0.0-10.0-1.0-2.2","B2BE3CC91CF44DBE8A61406D34E9CDC8","B2BE3CC91CF44DBE8A61406D34E9CDC8","6692d05a-228e-4686-bbf3-a17553f31c48","ba640c14-69c5-453e-80b2-29051492c0e0","{""num_scrambled_semantic"":""8"",""num_scrambled_causal"":""4"",""num_scrambled_schematic"":""4"",""participantId"":""B2BE3CC91CF44DBE8A61406D34E9CDC8"",""assignmentId"":""6692d05a-228e-4686-bbf3-a17553f31c48"",""projectId"":""ba640c14-69c5-453e-80b2-29051492c0e0""}","https://test12345.live/?num_scrambled_semantic=8&num_scrambled_causal=4&num_scrambled_schematic=4&participantId=B2BE3CC91CF44DBE8A61406D34E9CDC8&assignmentId=6692d05a-228e-4686-bbf3-a17553f31c48&projectId=ba640c14-69c5-453e-80b2-29051492c0e0","B2BE3CC91CF44DBE8A61406D34E9CDC8-2025-05-14-20-50-31","","null","","[]","null","",""
"","","","","","image-button-response","34","229906","0.0-10.0-1.0-0.3","B2BE3CC91CF44DBE8A61406D34E9CDC8","B2BE3CC91CF44DBE8A61406D34E9CDC8","6692d05a-228e-4686-bbf3-a17553f31c48","ba640c14-69c5-453e-80b2-29051492c0e0","{""num_scrambled_semantic"":""8"",""num_scrambled_causal"":""4"",""num_scrambled_schematic"":""4"",""participantId"":""B2BE3CC91CF44DBE8A61406D34E9CDC8"",""assignmentId"":""6692d05a-228e-4686-bbf3-a17553f31c48"",""projectId"":""ba640c14-69c5-453e-80b2-29051492c0e0""}","https://test12345.live/?num_scrambled_semantic=8&num_scrambled_causal=4&num_scrambled_schematic=4&participantId=B2BE3CC91CF44DBE8A61406D34E9CDC8&assignmentId=6692d05a-228e-4686-bbf3-a17553f31c48&projectId=ba640c14-69c5-453e-80b2-29051492c0e0","B2BE3CC91CF44DBE8A61406D34E9CDC8-2025-05-14-20-50-31","","null","","images/semantic_sequence/cat_care_semantic/cat_care_semantic_9.png","null","",""
"","","","","","image-button-response","35","231485","0.0-10.0-1.0-1.3","B2BE3CC91CF44DBE8A61406D34E9CDC8","B2BE3CC91CF44DBE8A61406D34E9CDC8","6692d05a-228e-4686-bbf3-a17553f31c48","ba640c14-69c5-453e-80b2-29051492c0e0","{""num_scrambled_semantic"":""8"",""num_scrambled_causal"":""4"",""num_scrambled_schematic"":""4"",""participantId"":""B2BE3CC91CF44DBE8A61406D34E9CDC8"",""assignmentId"":""6692d05a-228e-4686-bbf3-a17553f31c48"",""projectId"":""ba640c14-69c5-453e-80b2-29051492c0e0""}","https://test12345.live/?num_scrambled_semantic=8&num_scrambled_causal=4&num_scrambled_schematic=4&participantId=B2BE3CC91CF44DBE8A61406D34E9CDC8&assignmentId=6692d05a-228e-4686-bbf3-a17553f31c48&projectId=ba640c14-69c5-453e-80b2-29051492c0e0","B2BE3CC91CF44DBE8A61406D34E9CDC8-2025-05-14-20-50-31","","1577","","images/semantic_sequence/cat_care_semantic/cat_care_semantic_9.png","1","",""
"","","","","","image-button-response","36","233300","0.0-10.0-1.0-2.3","B2BE3CC91CF44DBE8A61406D34E9CDC8","B2BE3CC91CF44DBE8A61406D34E9CDC8","6692d05a-228e-4686-bbf3-a17553f31c48","ba640c14-69c5-453e-80b2-29051492c0e0","{""num_scrambled_semantic"":""8"",""num_scrambled_causal"":""4"",""num_scrambled_schematic"":""4"",""participantId"":""B2BE3CC91CF44DBE8A61406D34E9CDC8"",""assignmentId"":""6692d05a-228e-4686-bbf3-a17553f31c48"",""projectId"":""ba640c14-69c5-453e-80b2-29051492c0e0""}","https://test12345.live/?num_scrambled_semantic=8&num_scrambled_causal=4&num_scrambled_schematic=4&participantId=B2BE3CC91CF44DBE8A61406D34E9CDC8&assignmentId=6692d05a-228e-4686-bbf3-a17553f31c48&projectId=ba640c14-69c5-453e-80b2-29051492c0e0","B2BE3CC91CF44DBE8A61406D34E9CDC8-2025-05-14-20-50-31","","null","","[]","null","",""
"","","","","","image-button-response","37","237807","0.0-10.0-1.0-0.4","B2BE3CC91CF44DBE8A61406D34E9CDC8","B2BE3CC91CF44DBE8A61406D34E9CDC8","6692d05a-228e-4686-bbf3-a17553f31c48","ba640c14-69c5-453e-80b2-29051492c0e0","{""num_scrambled_semantic"":""8"",""num_scrambled_causal"":""4"",""num_scrambled_schematic"":""4"",""participantId"":""B2BE3CC91CF44DBE8A61406D34E9CDC8"",""assignmentId"":""6692d05a-228e-4686-bbf3-a17553f31c48"",""projectId"":""ba640c14-69c5-453e-80b2-29051492c0e0""}","https://test12345.live/?num_scrambled_semantic=8&num_scrambled_causal=4&num_scrambled_schematic=4&participantId=B2BE3CC91CF44DBE8A61406D34E9CDC8&assignmentId=6692d05a-228e-4686-bbf3-a17553f31c48&projectId=ba640c14-69c5-453e-80b2-29051492c0e0","B2BE3CC91CF44DBE8A61406D34E9CDC8-2025-05-14-20-50-31","","null","","images/semantic_sequence/cat_care_semantic/cat_care_semantic_ten.png","null","",""
"","","","","","image-button-response","38","238985","0.0-10.0-1.0-1.4","B2BE3CC91CF44DBE8A61406D34E9CDC8","B2BE3CC91CF44DBE8A61406D34E9CDC8","6692d05a-228e-4686-bbf3-a17553f31c48","ba640c14-69c5-453e-80b2-29051492c0e0","{""num_scrambled_semantic"":""8"",""num_scrambled_causal"":""4"",""num_scrambled_schematic"":""4"",""participantId"":""B2BE3CC91CF44DBE8A61406D34E9CDC8"",""assignmentId"":""6692d05a-228e-4686-bbf3-a17553f31c48"",""projectId"":""ba640c14-69c5-453e-80b2-29051492c0e0""}","https://test12345.live/?num_scrambled_semantic=8&num_scrambled_causal=4&num_scrambled_schematic=4&participantId=B2BE3CC91CF44DBE8A61406D34E9CDC8&assignmentId=6692d05a-228e-4686-bbf3-a17553f31c48&projectId=ba640c14-69c5-453e-80b2-29051492c0e0","B2BE3CC91CF44DBE8A61406D34E9CDC8-2025-05-14-20-50-31","","1176","","images/semantic_sequence/cat_care_semantic/cat_care_semantic_ten.png","1","",""
"","","","","","image-button-response","39","240797","0.0-10.0-1.0-2.4","B2BE3CC91CF44DBE8A61406D34E9CDC8","B2BE3CC91CF44DBE8A61406D34E9CDC8","6692d05a-228e-4686-bbf3-a17553f31c48","ba640c14-69c5-453e-80b2-29051492c0e0","{""num_scrambled_semantic"":""8"",""num_scrambled_causal"":""4"",""num_scrambled_schematic"":""4"",""participantId"":""B2BE3CC91CF44DBE8A61406D34E9CDC8"",""assignmentId"":""6692d05a-228e-4686-bbf3-a17553f31c48"",""projectId"":""ba640c14-69c5-453e-80b2-29051492c0e0""}","https://test12345.live/?num_scrambled_semantic=8&num_scrambled_causal=4&num_scrambled_schematic=4&participantId=B2BE3CC91CF44DBE8A61406D34E9CDC8&assignmentId=6692d05a-228e-4686-bbf3-a17553f31c48&projectId=ba640c14-69c5-453e-80b2-29051492c0e0","B2BE3CC91CF44DBE8A61406D34E9CDC8-2025-05-14-20-50-31","","null","","[]","null","",""
"","","","","","image-button-response","40","245306","0.0-10.0-1.0-0.5","B2BE3CC91CF44DBE8A61406D34E9CDC8","B2BE3CC91CF44DBE8A61406D34E9CDC8","6692d05a-228e-4686-bbf3-a17553f31c48","ba640c14-69c5-453e-80b2-29051492c0e0","{""num_scrambled_semantic"":""8"",""num_scrambled_causal"":""4"",""num_scrambled_schematic"":""4"",""participantId"":""B2BE3CC91CF44DBE8A61406D34E9CDC8"",""assignmentId"":""6692d05a-228e-4686-bbf3-a17553f31c48"",""projectId"":""ba640c14-69c5-453e-80b2-29051492c0e0""}","https://test12345.live/?num_scrambled_semantic=8&num_scrambled_causal=4&num_scrambled_schematic=4&participantId=B2BE3CC91CF44DBE8A61406D34E9CDC8&assignmentId=6692d05a-228e-4686-bbf3-a17553f31c48&projectId=ba640c14-69c5-453e-80b2-29051492c0e0","B2BE3CC91CF44DBE8A61406D34E9CDC8-2025-05-14-20-50-31","","null","","images/semantic_sequence/cat_care_semantic/cat_care_semantic_2.png","null","",""
"","","","","","image-button-response","41","247085","0.0-10.0-1.0-1.5","B2BE3CC91CF44DBE8A61406D34E9CDC8","B2BE3CC91CF44DBE8A61406D34E9CDC8","6692d05a-228e-4686-bbf3-a17553f31c48","ba640c14-69c5-453e-80b2-29051492c0e0","{""num_scrambled_semantic"":""8"",""num_scrambled_causal"":""4"",""num_scrambled_schematic"":""4"",""participantId"":""B2BE3CC91CF44DBE8A61406D34E9CDC8"",""assignmentId"":""6692d05a-228e-4686-bbf3-a17553f31c48"",""projectId"":""ba640c14-69c5-453e-80b2-29051492c0e0""}","https://test12345.live/?num_scrambled_semantic=8&num_scrambled_causal=4&num_scrambled_schematic=4&participantId=B2BE3CC91CF44DBE8A61406D34E9CDC8&assignmentId=6692d05a-228e-4686-bbf3-a17553f31c48&projectId=ba640c14-69c5-453e-80b2-29051492c0e0","B2BE3CC91CF44DBE8A61406D34E9CDC8-2025-05-14-20-50-31","","1777","","images/semantic_sequence/cat_care_semantic/cat_care_semantic_2.png","1","",""
"","","","","","image-button-response","42","248896","0.0-10.0-1.0-2.5","B2BE3CC91CF44DBE8A61406D34E9CDC8","B2BE3CC91CF44DBE8A61406D34E9CDC8","6692d05a-228e-4686-bbf3-a17553f31c48","ba640c14-69c5-453e-80b2-29051492c0e0","{""num_scrambled_semantic"":""8"",""num_scrambled_causal"":""4"",""num_scrambled_schematic"":""4"",""participantId"":""B2BE3CC91CF44DBE8A61406D34E9CDC8"",""assignmentId"":""6692d05a-228e-4686-bbf3-a17553f31c48"",""projectId"":""ba640c14-69c5-453e-80b2-29051492c0e0""}","https://test12345.live/?num_scrambled_semantic=8&num_scrambled_causal=4&num_scrambled_schematic=4&participantId=B2BE3CC91CF44DBE8A61406D34E9CDC8&assignmentId=6692d05a-228e-4686-bbf3-a17553f31c48&projectId=ba640c14-69c5-453e-80b2-29051492c0e0","B2BE3CC91CF44DBE8A61406D34E9CDC8-2025-05-14-20-50-31","","null","","[]","null","",""
"","","","","","image-button-response","43","253407","0.0-10.0-1.0-0.6","B2BE3CC91CF44DBE8A61406D34E9CDC8","B2BE3CC91CF44DBE8A61406D34E9CDC8","6692d05a-228e-4686-bbf3-a17553f31c48","ba640c14-69c5-453e-80b2-29051492c0e0","{""num_scrambled_semantic"":""8"",""num_scrambled_causal"":""4"",""num_scrambled_schematic"":""4"",""participantId"":""B2BE3CC91CF44DBE8A61406D34E9CDC8"",""assignmentId"":""6692d05a-228e-4686-bbf3-a17553f31c48"",""projectId"":""ba640c14-69c5-453e-80b2-29051492c0e0""}","https://test12345.live/?num_scrambled_semantic=8&num_scrambled_causal=4&num_scrambled_schematic=4&participantId=B2BE3CC91CF44DBE8A61406D34E9CDC8&assignmentId=6692d05a-228e-4686-bbf3-a17553f31c48&projectId=ba640c14-69c5-453e-80b2-29051492c0e0","B2BE3CC91CF44DBE8A61406D34E9CDC8-2025-05-14-20-50-31","","null","","images/semantic_sequence/cat_care_semantic/cat_care_semantic_5.png","null","",""
"","","","","","image-button-response","44","256703","0.0-10.0-1.0-1.6","B2BE3CC91CF44DBE8A61406D34E9CDC8","B2BE3CC91CF44DBE8A61406D34E9CDC8","6692d05a-228e-4686-bbf3-a17553f31c48","ba640c14-69c5-453e-80b2-29051492c0e0","{""num_scrambled_semantic"":""8"",""num_scrambled_causal"":""4"",""num_scrambled_schematic"":""4"",""participantId"":""B2BE3CC91CF44DBE8A61406D34E9CDC8"",""assignmentId"":""6692d05a-228e-4686-bbf3-a17553f31c48"",""projectId"":""ba640c14-69c5-453e-80b2-29051492c0e0""}","https://test12345.live/?num_scrambled_semantic=8&num_scrambled_causal=4&num_scrambled_schematic=4&participantId=B2BE3CC91CF44DBE8A61406D34E9CDC8&assignmentId=6692d05a-228e-4686-bbf3-a17553f31c48&projectId=ba640c14-69c5-453e-80b2-29051492c0e0","B2BE3CC91CF44DBE8A61406D34E9CDC8-2025-05-14-20-50-31","","3294","","images/semantic_sequence/cat_care_semantic/cat_care_semantic_5.png","0","",""
"","","","","","image-button-response","45","258510","0.0-10.0-1.0-2.6","B2BE3CC91CF44DBE8A61406D34E9CDC8","B2BE3CC91CF44DBE8A61406D34E9CDC8","6692d05a-228e-4686-bbf3-a17553f31c48","ba640c14-69c5-453e-80b2-29051492c0e0","{""num_scrambled_semantic"":""8"",""num_scrambled_causal"":""4"",""num_scrambled_schematic"":""4"",""participantId"":""B2BE3CC91CF44DBE8A61406D34E9CDC8"",""assignmentId"":""6692d05a-228e-4686-bbf3-a17553f31c48"",""projectId"":""ba640c14-69c5-453e-80b2-29051492c0e0""}","https://test12345.live/?num_scrambled_semantic=8&num_scrambled_causal=4&num_scrambled_schematic=4&participantId=B2BE3CC91CF44DBE8A61406D34E9CDC8&assignmentId=6692d05a-228e-4686-bbf3-a17553f31c48&projectId=ba640c14-69c5-453e-80b2-29051492c0e0","B2BE3CC91CF44DBE8A61406D34E9CDC8-2025-05-14-20-50-31","","null","","[]","null","",""
"","","","","","image-button-response","46","263013","0.0-10.0-1.0-0.7","B2BE3CC91CF44DBE8A61406D34E9CDC8","B2BE3CC91CF44DBE8A61406D34E9CDC8","6692d05a-228e-4686-bbf3-a17553f31c48","ba640c14-69c5-453e-80b2-29051492c0e0","{""num_scrambled_semantic"":""8"",""num_scrambled_causal"":""4"",""num_scrambled_schematic"":""4"",""participantId"":""B2BE3CC91CF44DBE8A61406D34E9CDC8"",""assignmentId"":""6692d05a-228e-4686-bbf3-a17553f31c48"",""projectId"":""ba640c14-69c5-453e-80b2-29051492c0e0""}","https://test12345.live/?num_scrambled_semantic=8&num_scrambled_causal=4&num_scrambled_schematic=4&participantId=B2BE3CC91CF44DBE8A61406D34E9CDC8&assignmentId=6692d05a-228e-4686-bbf3-a17553f31c48&projectId=ba640c14-69c5-453e-80b2-29051492c0e0","B2BE3CC91CF44DBE8A61406D34E9CDC8-2025-05-14-20-50-31","","null","","images/semantic_sequence/cat_care_semantic/cat_care_semantic_7.png","null","",""
"","","","","","image-button-response","47","264269","0.0-10.0-1.0-1.7","B2BE3CC91CF44DBE8A61406D34E9CDC8","B2BE3CC91CF44DBE8A61406D34E9CDC8","6692d05a-228e-4686-bbf3-a17553f31c48","ba640c14-69c5-453e-80b2-29051492c0e0","{""num_scrambled_semantic"":""8"",""num_scrambled_causal"":""4"",""num_scrambled_schematic"":""4"",""participantId"":""B2BE3CC91CF44DBE8A61406D34E9CDC8"",""assignmentId"":""6692d05a-228e-4686-bbf3-a17553f31c48"",""projectId"":""ba640c14-69c5-453e-80b2-29051492c0e0""}","https://test12345.live/?num_scrambled_semantic=8&num_scrambled_causal=4&num_scrambled_schematic=4&participantId=B2BE3CC91CF44DBE8A61406D34E9CDC8&assignmentId=6692d05a-228e-4686-bbf3-a17553f31c48&projectId=ba640c14-69c5-453e-80b2-29051492c0e0","B2BE3CC91CF44DBE8A61406D34E9CDC8-2025-05-14-20-50-31","","1254","","images/semantic_sequence/cat_care_semantic/cat_care_semantic_7.png","1","",""
"","","","","","image-button-response","48","266082","0.0-10.0-1.0-2.7","B2BE3CC91CF44DBE8A61406D34E9CDC8","B2BE3CC91CF44DBE8A61406D34E9CDC8","6692d05a-228e-4686-bbf3-a17553f31c48","ba640c14-69c5-453e-80b2-29051492c0e0","{""num_scrambled_semantic"":""8"",""num_scrambled_causal"":""4"",""num_scrambled_schematic"":""4"",""participantId"":""B2BE3CC91CF44DBE8A61406D34E9CDC8"",""assignmentId"":""6692d05a-228e-4686-bbf3-a17553f31c48"",""projectId"":""ba640c14-69c5-453e-80b2-29051492c0e0""}","https://test12345.live/?num_scrambled_semantic=8&num_scrambled_causal=4&num_scrambled_schematic=4&participantId=B2BE3CC91CF44DBE8A61406D34E9CDC8&assignmentId=6692d05a-228e-4686-bbf3-a17553f31c48&projectId=ba640c14-69c5-453e-80b2-29051492c0e0","B2BE3CC91CF44DBE8A61406D34E9CDC8-2025-05-14-20-50-31","","null","","[]","null","",""
"","","","","","image-button-response","49","270586","0.0-10.0-1.0-0.8","B2BE3CC91CF44DBE8A61406D34E9CDC8","B2BE3CC91CF44DBE8A61406D34E9CDC8","6692d05a-228e-4686-bbf3-a17553f31c48","ba640c14-69c5-453e-80b2-29051492c0e0","{""num_scrambled_semantic"":""8"",""num_scrambled_causal"":""4"",""num_scrambled_schematic"":""4"",""participantId"":""B2BE3CC91CF44DBE8A61406D34E9CDC8"",""assignmentId"":""6692d05a-228e-4686-bbf3-a17553f31c48"",""projectId"":""ba640c14-69c5-453e-80b2-29051492c0e0""}","https://test12345.live/?num_scrambled_semantic=8&num_scrambled_causal=4&num_scrambled_schematic=4&participantId=B2BE3CC91CF44DBE8A61406D34E9CDC8&assignmentId=6692d05a-228e-4686-bbf3-a17553f31c48&projectId=ba640c14-69c5-453e-80b2-29051492c0e0","B2BE3CC91CF44DBE8A61406D34E9CDC8-2025-05-14-20-50-31","","null","","images/semantic_sequence/cat_care_semantic/cat_care_semantic_1.png","null","",""
"","","","","","image-button-response","50","272391","0.0-10.0-1.0-1.8","B2BE3CC91CF44DBE8A61406D34E9CDC8","B2BE3CC91CF44DBE8A61406D34E9CDC8","6692d05a-228e-4686-bbf3-a17553f31c48","ba640c14-69c5-453e-80b2-29051492c0e0","{""num_scrambled_semantic"":""8"",""num_scrambled_causal"":""4"",""num_scrambled_schematic"":""4"",""participantId"":""B2BE3CC91CF44DBE8A61406D34E9CDC8"",""assignmentId"":""6692d05a-228e-4686-bbf3-a17553f31c48"",""projectId"":""ba640c14-69c5-453e-80b2-29051492c0e0""}","https://test12345.live/?num_scrambled_semantic=8&num_scrambled_causal=4&num_scrambled_schematic=4&participantId=B2BE3CC91CF44DBE8A61406D34E9CDC8&assignmentId=6692d05a-228e-4686-bbf3-a17553f31c48&projectId=ba640c14-69c5-453e-80b2-29051492c0e0","B2BE3CC91CF44DBE8A61406D34E9CDC8-2025-05-14-20-50-31","","1803","","images/semantic_sequence/cat_care_semantic/cat_care_semantic_1.png","0","",""
"","","","","","image-button-response","51","274203","0.0-10.0-1.0-2.8","B2BE3CC91CF44DBE8A61406D34E9CDC8","B2BE3CC91CF44DBE8A61406D34E9CDC8","6692d05a-228e-4686-bbf3-a17553f31c48","ba640c14-69c5-453e-80b2-29051492c0e0","{""num_scrambled_semantic"":""8"",""num_scrambled_causal"":""4"",""num_scrambled_schematic"":""4"",""participantId"":""B2BE3CC91CF44DBE8A61406D34E9CDC8"",""assignmentId"":""6692d05a-228e-4686-bbf3-a17553f31c48"",""projectId"":""ba640c14-69c5-453e-80b2-29051492c0e0""}","https://test12345.live/?num_scrambled_semantic=8&num_scrambled_causal=4&num_scrambled_schematic=4&participantId=B2BE3CC91CF44DBE8A61406D34E9CDC8&assignmentId=6692d05a-228e-4686-bbf3-a17553f31c48&projectId=ba640c14-69c5-453e-80b2-29051492c0e0","B2BE3CC91CF44DBE8A61406D34E9CDC8-2025-05-14-20-50-31","","null","","[]","null","",""
"","","","","","image-button-response","52","278716","0.0-10.0-1.0-0.9","B2BE3CC91CF44DBE8A61406D34E9CDC8","B2BE3CC91CF44DBE8A61406D34E9CDC8","6692d05a-228e-4686-bbf3-a17553f31c48","ba640c14-69c5-453e-80b2-29051492c0e0","{""num_scrambled_semantic"":""8"",""num_scrambled_causal"":""4"",""num_scrambled_schematic"":""4"",""participantId"":""B2BE3CC91CF44DBE8A61406D34E9CDC8"",""assignmentId"":""6692d05a-228e-4686-bbf3-a17553f31c48"",""projectId"":""ba640c14-69c5-453e-80b2-29051492c0e0""}","https://test12345.live/?num_scrambled_semantic=8&num_scrambled_causal=4&num_scrambled_schematic=4&participantId=B2BE3CC91CF44DBE8A61406D34E9CDC8&assignmentId=6692d05a-228e-4686-bbf3-a17553f31c48&projectId=ba640c14-69c5-453e-80b2-29051492c0e0","B2BE3CC91CF44DBE8A61406D34E9CDC8-2025-05-14-20-50-31","","null","","images/semantic_sequence/cat_care_semantic/cat_care_semantic_4.png","null","",""
"","","","","","image-button-response","53","281679","0.0-10.0-1.0-1.9","B2BE3CC91CF44DBE8A61406D34E9CDC8","B2BE3CC91CF44DBE8A61406D34E9CDC8","6692d05a-228e-4686-bbf3-a17553f31c48","ba640c14-69c5-453e-80b2-29051492c0e0","{""num_scrambled_semantic"":""8"",""num_scrambled_causal"":""4"",""num_scrambled_schematic"":""4"",""participantId"":""B2BE3CC91CF44DBE8A61406D34E9CDC8"",""assignmentId"":""6692d05a-228e-4686-bbf3-a17553f31c48"",""projectId"":""ba640c14-69c5-453e-80b2-29051492c0e0""}","https://test12345.live/?num_scrambled_semantic=8&num_scrambled_causal=4&num_scrambled_schematic=4&participantId=B2BE3CC91CF44DBE8A61406D34E9CDC8&assignmentId=6692d05a-228e-4686-bbf3-a17553f31c48&projectId=ba640c14-69c5-453e-80b2-29051492c0e0","B2BE3CC91CF44DBE8A61406D34E9CDC8-2025-05-14-20-50-31","","2961","","images/semantic_sequence/cat_care_semantic/cat_care_semantic_4.png","1","",""
"","","","","","image-button-response","54","283486","0.0-10.0-1.0-2.9","B2BE3CC91CF44DBE8A61406D34E9CDC8","B2BE3CC91CF44DBE8A61406D34E9CDC8","6692d05a-228e-4686-bbf3-a17553f31c48","ba640c14-69c5-453e-80b2-29051492c0e0","{""num_scrambled_semantic"":""8"",""num_scrambled_causal"":""4"",""num_scrambled_schematic"":""4"",""participantId"":""B2BE3CC91CF44DBE8A61406D34E9CDC8"",""assignmentId"":""6692d05a-228e-4686-bbf3-a17553f31c48"",""projectId"":""ba640c14-69c5-453e-80b2-29051492c0e0""}","https://test12345.live/?num_scrambled_semantic=8&num_scrambled_causal=4&num_scrambled_schematic=4&participantId=B2BE3CC91CF44DBE8A61406D34E9CDC8&assignmentId=6692d05a-228e-4686-bbf3-a17553f31c48&projectId=ba640c14-69c5-453e-80b2-29051492c0e0","B2BE3CC91CF44DBE8A61406D34E9CDC8-2025-05-14-20-50-31","","null","","[]","null","",""
"","","","","","html-audio-response","55","322364","0.0-11.0","B2BE3CC91CF44DBE8A61406D34E9CDC8","B2BE3CC91CF44DBE8A61406D34E9CDC8","6692d05a-228e-4686-bbf3-a17553f31c48","ba640c14-69c5-453e-80b2-29051492c0e0","{""num_scrambled_semantic"":""8"",""num_scrambled_causal"":""4"",""num_scrambled_schematic"":""4"",""participantId"":""B2BE3CC91CF44DBE8A61406D34E9CDC8"",""assignmentId"":""6692d05a-228e-4686-bbf3-a17553f31c48"",""projectId"":""ba640c14-69c5-453e-80b2-29051492c0e0""}","https://test12345.live/?num_scrambled_semantic=8&num_scrambled_causal=4&num_scrambled_schematic=4&participantId=B2BE3CC91CF44DBE8A61406D34E9CDC8&assignmentId=6692d05a-228e-4686-bbf3-a17553f31c48&projectId=ba640c14-69c5-453e-80b2-29051492c0e0","B2BE3CC91CF44DBE8A61406D34E9CDC8-2025-05-14-20-50-31","","6431","","[""<span style=\""color: red; font-size: 24px\""> NOW RECORDING</span><p>Please say out loud all the images you saw, as many as you can remember. The images can be said in any order.</p>""]","","2","cat_care_semantic"
"","","","","","image-button-response","56","328370","0.0-12.0-0.0","B2BE3CC91CF44DBE8A61406D34E9CDC8","B2BE3CC91CF44DBE8A61406D34E9CDC8","6692d05a-228e-4686-bbf3-a17553f31c48","ba640c14-69c5-453e-80b2-29051492c0e0","{""num_scrambled_semantic"":""8"",""num_scrambled_causal"":""4"",""num_scrambled_schematic"":""4"",""participantId"":""B2BE3CC91CF44DBE8A61406D34E9CDC8"",""assignmentId"":""6692d05a-228e-4686-bbf3-a17553f31c48"",""projectId"":""ba640c14-69c5-453e-80b2-29051492c0e0""}","https://test12345.live/?num_scrambled_semantic=8&num_scrambled_causal=4&num_scrambled_schematic=4&participantId=B2BE3CC91CF44DBE8A61406D34E9CDC8&assignmentId=6692d05a-228e-4686-bbf3-a17553f31c48&projectId=ba640c14-69c5-453e-80b2-29051492c0e0","B2BE3CC91CF44DBE8A61406D34E9CDC8-2025-05-14-20-50-31","","null","","images/causal_sequence/dog_causal/dog_causal_0.png","null","",""
"","","","","","image-button-response","57","332883","0.0-12.0-1.0-0.0","B2BE3CC91CF44DBE8A61406D34E9CDC8","B2BE3CC91CF44DBE8A61406D34E9CDC8","6692d05a-228e-4686-bbf3-a17553f31c48","ba640c14-69c5-453e-80b2-29051492c0e0","{""num_scrambled_semantic"":""8"",""num_scrambled_causal"":""4"",""num_scrambled_schematic"":""4"",""participantId"":""B2BE3CC91CF44DBE8A61406D34E9CDC8"",""assignmentId"":""6692d05a-228e-4686-bbf3-a17553f31c48"",""projectId"":""ba640c14-69c5-453e-80b2-29051492c0e0""}","https://test12345.live/?num_scrambled_semantic=8&num_scrambled_causal=4&num_scrambled_schematic=4&participantId=B2BE3CC91CF44DBE8A61406D34E9CDC8&assignmentId=6692d05a-228e-4686-bbf3-a17553f31c48&projectId=ba640c14-69c5-453e-80b2-29051492c0e0","B2BE3CC91CF44DBE8A61406D34E9CDC8-2025-05-14-20-50-31","","null","","images/causal_sequence/dog_causal/dog_causal_1.png","null","",""
"","","","","","image-button-response","58","334437","0.0-12.0-1.0-1.0","B2BE3CC91CF44DBE8A61406D34E9CDC8","B2BE3CC91CF44DBE8A61406D34E9CDC8","6692d05a-228e-4686-bbf3-a17553f31c48","ba640c14-69c5-453e-80b2-29051492c0e0","{""num_scrambled_semantic"":""8"",""num_scrambled_causal"":""4"",""num_scrambled_schematic"":""4"",""participantId"":""B2BE3CC91CF44DBE8A61406D34E9CDC8"",""assignmentId"":""6692d05a-228e-4686-bbf3-a17553f31c48"",""projectId"":""ba640c14-69c5-453e-80b2-29051492c0e0""}","https://test12345.live/?num_scrambled_semantic=8&num_scrambled_causal=4&num_scrambled_schematic=4&participantId=B2BE3CC91CF44DBE8A61406D34E9CDC8&assignmentId=6692d05a-228e-4686-bbf3-a17553f31c48&projectId=ba640c14-69c5-453e-80b2-29051492c0e0","B2BE3CC91CF44DBE8A61406D34E9CDC8-2025-05-14-20-50-31","","1553","","images/causal_sequence/dog_causal/dog_causal_1.png","0","",""
"","","","","","image-button-response","59","336242","0.0-12.0-1.0-2.0","B2BE3CC91CF44DBE8A61406D34E9CDC8","B2BE3CC91CF44DBE8A61406D34E9CDC8","6692d05a-228e-4686-bbf3-a17553f31c48","ba640c14-69c5-453e-80b2-29051492c0e0","{""num_scrambled_semantic"":""8"",""num_scrambled_causal"":""4"",""num_scrambled_schematic"":""4"",""participantId"":""B2BE3CC91CF44DBE8A61406D34E9CDC8"",""assignmentId"":""6692d05a-228e-4686-bbf3-a17553f31c48"",""projectId"":""ba640c14-69c5-453e-80b2-29051492c0e0""}","https://test12345.live/?num_scrambled_semantic=8&num_scrambled_causal=4&num_scrambled_schematic=4&participantId=B2BE3CC91CF44DBE8A61406D34E9CDC8&assignmentId=6692d05a-228e-4686-bbf3-a17553f31c48&projectId=ba640c14-69c5-453e-80b2-29051492c0e0","B2BE3CC91CF44DBE8A61406D34E9CDC8-2025-05-14-20-50-31","","null","","[]","null","",""
"","","","","","image-button-response","60","340750","0.0-12.0-1.0-0.1","B2BE3CC91CF44DBE8A61406D34E9CDC8","B2BE3CC91CF44DBE8A61406D34E9CDC8","6692d05a-228e-4686-bbf3-a17553f31c48","ba640c14-69c5-453e-80b2-29051492c0e0","{""num_scrambled_semantic"":""8"",""num_scrambled_causal"":""4"",""num_scrambled_schematic"":""4"",""participantId"":""B2BE3CC91CF44DBE8A61406D34E9CDC8"",""assignmentId"":""6692d05a-228e-4686-bbf3-a17553f31c48"",""projectId"":""ba640c14-69c5-453e-80b2-29051492c0e0""}","https://test12345.live/?num_scrambled_semantic=8&num_scrambled_causal=4&num_scrambled_schematic=4&participantId=B2BE3CC91CF44DBE8A61406D34E9CDC8&assignmentId=6692d05a-228e-4686-bbf3-a17553f31c48&projectId=ba640c14-69c5-453e-80b2-29051492c0e0","B2BE3CC91CF44DBE8A61406D34E9CDC8-2025-05-14-20-50-31","","null","","images/causal_sequence/dog_causal/dog_causal_4.png","null","",""
"","","","","","image-button-response","61","342137","0.0-12.0-1.0-1.1","B2BE3CC91CF44DBE8A61406D34E9CDC8","B2BE3CC91CF44DBE8A61406D34E9CDC8","6692d05a-228e-4686-bbf3-a17553f31c48","ba640c14-69c5-453e-80b2-29051492c0e0","{""num_scrambled_semantic"":""8"",""num_scrambled_causal"":""4"",""num_scrambled_schematic"":""4"",""participantId"":""B2BE3CC91CF44DBE8A61406D34E9CDC8"",""assignmentId"":""6692d05a-228e-4686-bbf3-a17553f31c48"",""projectId"":""ba640c14-69c5-453e-80b2-29051492c0e0""}","https://test12345.live/?num_scrambled_semantic=8&num_scrambled_causal=4&num_scrambled_schematic=4&participantId=B2BE3CC91CF44DBE8A61406D34E9CDC8&assignmentId=6692d05a-228e-4686-bbf3-a17553f31c48&projectId=ba640c14-69c5-453e-80b2-29051492c0e0","B2BE3CC91CF44DBE8A61406D34E9CDC8-2025-05-14-20-50-31","","1384","","images/causal_sequence/dog_causal/dog_causal_4.png","0","",""
"","","","","","image-button-response","62","343944","0.0-12.0-1.0-2.1","B2BE3CC91CF44DBE8A61406D34E9CDC8","B2BE3CC91CF44DBE8A61406D34E9CDC8","6692d05a-228e-4686-bbf3-a17553f31c48","ba640c14-69c5-453e-80b2-29051492c0e0","{""num_scrambled_semantic"":""8"",""num_scrambled_causal"":""4"",""num_scrambled_schematic"":""4"",""participantId"":""B2BE3CC91CF44DBE8A61406D34E9CDC8"",""assignmentId"":""6692d05a-228e-4686-bbf3-a17553f31c48"",""projectId"":""ba640c14-69c5-453e-80b2-29051492c0e0""}","https://test12345.live/?num_scrambled_semantic=8&num_scrambled_causal=4&num_scrambled_schematic=4&participantId=B2BE3CC91CF44DBE8A61406D34E9CDC8&assignmentId=6692d05a-228e-4686-bbf3-a17553f31c48&projectId=ba640c14-69c5-453e-80b2-29051492c0e0","B2BE3CC91CF44DBE8A61406D34E9CDC8-2025-05-14-20-50-31","","null","","[]","null","",""
"","","","","","image-button-response","63","348461","0.0-12.0-1.0-0.2","B2BE3CC91CF44DBE8A61406D34E9CDC8","B2BE3CC91CF44DBE8A61406D34E9CDC8","6692d05a-228e-4686-bbf3-a17553f31c48","ba640c14-69c5-453e-80b2-29051492c0e0","{""num_scrambled_semantic"":""8"",""num_scrambled_causal"":""4"",""num_scrambled_schematic"":""4"",""participantId"":""B2BE3CC91CF44DBE8A61406D34E9CDC8"",""assignmentId"":""6692d05a-228e-4686-bbf3-a17553f31c48"",""projectId"":""ba640c14-69c5-453e-80b2-29051492c0e0""}","https://test12345.live/?num_scrambled_semantic=8&num_scrambled_causal=4&num_scrambled_schematic=4&participantId=B2BE3CC91CF44DBE8A61406D34E9CDC8&assignmentId=6692d05a-228e-4686-bbf3-a17553f31c48&projectId=ba640c14-69c5-453e-80b2-29051492c0e0","B2BE3CC91CF44DBE8A61406D34E9CDC8-2025-05-14-20-50-31","","null","","images/causal_sequence/dog_causal/dog_causal_7.png","null","",""
"","","","","","image-button-response","64","349751","0.0-12.0-1.0-1.2","B2BE3CC91CF44DBE8A61406D34E9CDC8","B2BE3CC91CF44DBE8A61406D34E9CDC8","6692d05a-228e-4686-bbf3-a17553f31c48","ba640c14-69c5-453e-80b2-29051492c0e0","{""num_scrambled_semantic"":""8"",""num_scrambled_causal"":""4"",""num_scrambled_schematic"":""4"",""participantId"":""B2BE3CC91CF44DBE8A61406D34E9CDC8"",""assignmentId"":""6692d05a-228e-4686-bbf3-a17553f31c48"",""projectId"":""ba640c14-69c5-453e-80b2-29051492c0e0""}","https://test12345.live/?num_scrambled_semantic=8&num_scrambled_causal=4&num_scrambled_schematic=4&participantId=B2BE3CC91CF44DBE8A61406D34E9CDC8&assignmentId=6692d05a-228e-4686-bbf3-a17553f31c48&projectId=ba640c14-69c5-453e-80b2-29051492c0e0","B2BE3CC91CF44DBE8A61406D34E9CDC8-2025-05-14-20-50-31","","1289","","images/causal_sequence/dog_causal/dog_causal_7.png","0","",""
"","","","","","image-button-response","65","351554","0.0-12.0-1.0-2.2","B2BE3CC91CF44DBE8A61406D34E9CDC8","B2BE3CC91CF44DBE8A61406D34E9CDC8","6692d05a-228e-4686-bbf3-a17553f31c48","ba640c14-69c5-453e-80b2-29051492c0e0","{""num_scrambled_semantic"":""8"",""num_scrambled_causal"":""4"",""num_scrambled_schematic"":""4"",""participantId"":""B2BE3CC91CF44DBE8A61406D34E9CDC8"",""assignmentId"":""6692d05a-228e-4686-bbf3-a17553f31c48"",""projectId"":""ba640c14-69c5-453e-80b2-29051492c0e0""}","https://test12345.live/?num_scrambled_semantic=8&num_scrambled_causal=4&num_scrambled_schematic=4&participantId=B2BE3CC91CF44DBE8A61406D34E9CDC8&assignmentId=6692d05a-228e-4686-bbf3-a17553f31c48&projectId=ba640c14-69c5-453e-80b2-29051492c0e0","B2BE3CC91CF44DBE8A61406D34E9CDC8-2025-05-14-20-50-31","","null","","[]","null","",""
"","","","","","image-button-response","66","356068","0.0-12.0-1.0-0.3","B2BE3CC91CF44DBE8A61406D34E9CDC8","B2BE3CC91CF44DBE8A61406D34E9CDC8","6692d05a-228e-4686-bbf3-a17553f31c48","ba640c14-69c5-453e-80b2-29051492c0e0","{""num_scrambled_semantic"":""8"",""num_scrambled_causal"":""4"",""num_scrambled_schematic"":""4"",""participantId"":""B2BE3CC91CF44DBE8A61406D34E9CDC8"",""assignmentId"":""6692d05a-228e-4686-bbf3-a17553f31c48"",""projectId"":""ba640c14-69c5-453e-80b2-29051492c0e0""}","https://test12345.live/?num_scrambled_semantic=8&num_scrambled_causal=4&num_scrambled_schematic=4&participantId=B2BE3CC91CF44DBE8A61406D34E9CDC8&assignmentId=6692d05a-228e-4686-bbf3-a17553f31c48&projectId=ba640c14-69c5-453e-80b2-29051492c0e0","B2BE3CC91CF44DBE8A61406D34E9CDC8-2025-05-14-20-50-31","","null","","images/causal_sequence/dog_causal/dog_causal_ten.png","null","",""
"","","","","","image-button-response","67","357313","0.0-12.0-1.0-1.3","B2BE3CC91CF44DBE8A61406D34E9CDC8","B2BE3CC91CF44DBE8A61406D34E9CDC8","6692d05a-228e-4686-bbf3-a17553f31c48","ba640c14-69c5-453e-80b2-29051492c0e0","{""num_scrambled_semantic"":""8"",""num_scrambled_causal"":""4"",""num_scrambled_schematic"":""4"",""participantId"":""B2BE3CC91CF44DBE8A61406D34E9CDC8"",""assignmentId"":""6692d05a-228e-4686-bbf3-a17553f31c48"",""projectId"":""ba640c14-69c5-453e-80b2-29051492c0e0""}","https://test12345.live/?num_scrambled_semantic=8&num_scrambled_causal=4&num_scrambled_schematic=4&participantId=B2BE3CC91CF44DBE8A61406D34E9CDC8&assignmentId=6692d05a-228e-4686-bbf3-a17553f31c48&projectId=ba640c14-69c5-453e-80b2-29051492c0e0","B2BE3CC91CF44DBE8A61406D34E9CDC8-2025-05-14-20-50-31","","1243","","images/causal_sequence/dog_causal/dog_causal_ten.png","0","",""
"","","","","","image-button-response","68","359128","0.0-12.0-1.0-2.3","B2BE3CC91CF44DBE8A61406D34E9CDC8","B2BE3CC91CF44DBE8A61406D34E9CDC8","6692d05a-228e-4686-bbf3-a17553f31c48","ba640c14-69c5-453e-80b2-29051492c0e0","{""num_scrambled_semantic"":""8"",""num_scrambled_causal"":""4"",""num_scrambled_schematic"":""4"",""participantId"":""B2BE3CC91CF44DBE8A61406D34E9CDC8"",""assignmentId"":""6692d05a-228e-4686-bbf3-a17553f31c48"",""projectId"":""ba640c14-69c5-453e-80b2-29051492c0e0""}","https://test12345.live/?num_scrambled_semantic=8&num_scrambled_causal=4&num_scrambled_schematic=4&participantId=B2BE3CC91CF44DBE8A61406D34E9CDC8&assignmentId=6692d05a-228e-4686-bbf3-a17553f31c48&projectId=ba640c14-69c5-453e-80b2-29051492c0e0","B2BE3CC91CF44DBE8A61406D34E9CDC8-2025-05-14-20-50-31","","null","","[]","null","",""
"","","","","","image-button-response","69","363635","0.0-12.0-1.0-0.4","B2BE3CC91CF44DBE8A61406D34E9CDC8","B2BE3CC91CF44DBE8A61406D34E9CDC8","6692d05a-228e-4686-bbf3-a17553f31c48","ba640c14-69c5-453e-80b2-29051492c0e0","{""num_scrambled_semantic"":""8"",""num_scrambled_causal"":""4"",""num_scrambled_schematic"":""4"",""participantId"":""B2BE3CC91CF44DBE8A61406D34E9CDC8"",""assignmentId"":""6692d05a-228e-4686-bbf3-a17553f31c48"",""projectId"":""ba640c14-69c5-453e-80b2-29051492c0e0""}","https://test12345.live/?num_scrambled_semantic=8&num_scrambled_causal=4&num_scrambled_schematic=4&participantId=B2BE3CC91CF44DBE8A61406D34E9CDC8&assignmentId=6692d05a-228e-4686-bbf3-a17553f31c48&projectId=ba640c14-69c5-453e-80b2-29051492c0e0","B2BE3CC91CF44DBE8A61406D34E9CDC8-2025-05-14-20-50-31","","null","","images/causal_sequence/dog_causal/dog_causal_5.png","null","",""
"","","","","","image-button-response","70","364959","0.0-12.0-1.0-1.4","B2BE3CC91CF44DBE8A61406D34E9CDC8","B2BE3CC91CF44DBE8A61406D34E9CDC8","6692d05a-228e-4686-bbf3-a17553f31c48","ba640c14-69c5-453e-80b2-29051492c0e0","{""num_scrambled_semantic"":""8"",""num_scrambled_causal"":""4"",""num_scrambled_schematic"":""4"",""participantId"":""B2BE3CC91CF44DBE8A61406D34E9CDC8"",""assignmentId"":""6692d05a-228e-4686-bbf3-a17553f31c48"",""projectId"":""ba640c14-69c5-453e-80b2-29051492c0e0""}","https://test12345.live/?num_scrambled_semantic=8&num_scrambled_causal=4&num_scrambled_schematic=4&participantId=B2BE3CC91CF44DBE8A61406D34E9CDC8&assignmentId=6692d05a-228e-4686-bbf3-a17553f31c48&projectId=ba640c14-69c5-453e-80b2-29051492c0e0","B2BE3CC91CF44DBE8A61406D34E9CDC8-2025-05-14-20-50-31","","1322","","images/causal_sequence/dog_causal/dog_causal_5.png","0","",""
"","","","","","image-button-response","71","366778","0.0-12.0-1.0-2.4","B2BE3CC91CF44DBE8A61406D34E9CDC8","B2BE3CC91CF44DBE8A61406D34E9CDC8","6692d05a-228e-4686-bbf3-a17553f31c48","ba640c14-69c5-453e-80b2-29051492c0e0","{""num_scrambled_semantic"":""8"",""num_scrambled_causal"":""4"",""num_scrambled_schematic"":""4"",""participantId"":""B2BE3CC91CF44DBE8A61406D34E9CDC8"",""assignmentId"":""6692d05a-228e-4686-bbf3-a17553f31c48"",""projectId"":""ba640c14-69c5-453e-80b2-29051492c0e0""}","https://test12345.live/?num_scrambled_semantic=8&num_scrambled_causal=4&num_scrambled_schematic=4&participantId=B2BE3CC91CF44DBE8A61406D34E9CDC8&assignmentId=6692d05a-228e-4686-bbf3-a17553f31c48&projectId=ba640c14-69c5-453e-80b2-29051492c0e0","B2BE3CC91CF44DBE8A61406D34E9CDC8-2025-05-14-20-50-31","","null","","[]","null","",""
"","","","","","image-button-response","72","371290","0.0-12.0-1.0-0.5","B2BE3CC91CF44DBE8A61406D34E9CDC8","B2BE3CC91CF44DBE8A61406D34E9CDC8","6692d05a-228e-4686-bbf3-a17553f31c48","ba640c14-69c5-453e-80b2-29051492c0e0","{""num_scrambled_semantic"":""8"",""num_scrambled_causal"":""4"",""num_scrambled_schematic"":""4"",""participantId"":""B2BE3CC91CF44DBE8A61406D34E9CDC8"",""assignmentId"":""6692d05a-228e-4686-bbf3-a17553f31c48"",""projectId"":""ba640c14-69c5-453e-80b2-29051492c0e0""}","https://test12345.live/?num_scrambled_semantic=8&num_scrambled_causal=4&num_scrambled_schematic=4&participantId=B2BE3CC91CF44DBE8A61406D34E9CDC8&assignmentId=6692d05a-228e-4686-bbf3-a17553f31c48&projectId=ba640c14-69c5-453e-80b2-29051492c0e0","B2BE3CC91CF44DBE8A61406D34E9CDC8-2025-05-14-20-50-31","","null","","images/causal_sequence/dog_causal/dog_causal_9.png","null","",""
"","","","","","image-button-response","73","372990","0.0-12.0-1.0-1.5","B2BE3CC91CF44DBE8A61406D34E9CDC8","B2BE3CC91CF44DBE8A61406D34E9CDC8","6692d05a-228e-4686-bbf3-a17553f31c48","ba640c14-69c5-453e-80b2-29051492c0e0","{""num_scrambled_semantic"":""8"",""num_scrambled_causal"":""4"",""num_scrambled_schematic"":""4"",""participantId"":""B2BE3CC91CF44DBE8A61406D34E9CDC8"",""assignmentId"":""6692d05a-228e-4686-bbf3-a17553f31c48"",""projectId"":""ba640c14-69c5-453e-80b2-29051492c0e0""}","https://test12345.live/?num_scrambled_semantic=8&num_scrambled_causal=4&num_scrambled_schematic=4&participantId=B2BE3CC91CF44DBE8A61406D34E9CDC8&assignmentId=6692d05a-228e-4686-bbf3-a17553f31c48&projectId=ba640c14-69c5-453e-80b2-29051492c0e0","B2BE3CC91CF44DBE8A61406D34E9CDC8-2025-05-14-20-50-31","","1697","","images/causal_sequence/dog_causal/dog_causal_9.png","0","",""
"","","","","","image-button-response","74","374796","0.0-12.0-1.0-2.5","B2BE3CC91CF44DBE8A61406D34E9CDC8","B2BE3CC91CF44DBE8A61406D34E9CDC8","6692d05a-228e-4686-bbf3-a17553f31c48","ba640c14-69c5-453e-80b2-29051492c0e0","{""num_scrambled_semantic"":""8"",""num_scrambled_causal"":""4"",""num_scrambled_schematic"":""4"",""participantId"":""B2BE3CC91CF44DBE8A61406D34E9CDC8"",""assignmentId"":""6692d05a-228e-4686-bbf3-a17553f31c48"",""projectId"":""ba640c14-69c5-453e-80b2-29051492c0e0""}","https://test12345.live/?num_scrambled_semantic=8&num_scrambled_causal=4&num_scrambled_schematic=4&participantId=B2BE3CC91CF44DBE8A61406D34E9CDC8&assignmentId=6692d05a-228e-4686-bbf3-a17553f31c48&projectId=ba640c14-69c5-453e-80b2-29051492c0e0","B2BE3CC91CF44DBE8A61406D34E9CDC8-2025-05-14-20-50-31","","null","","[]","null","",""
"","","","","","image-button-response","75","379304","0.0-12.0-1.0-0.6","B2BE3CC91CF44DBE8A61406D34E9CDC8","B2BE3CC91CF44DBE8A61406D34E9CDC8","6692d05a-228e-4686-bbf3-a17553f31c48","ba640c14-69c5-453e-80b2-29051492c0e0","{""num_scrambled_semantic"":""8"",""num_scrambled_causal"":""4"",""num_scrambled_schematic"":""4"",""participantId"":""B2BE3CC91CF44DBE8A61406D34E9CDC8"",""assignmentId"":""6692d05a-228e-4686-bbf3-a17553f31c48"",""projectId"":""ba640c14-69c5-453e-80b2-29051492c0e0""}","https://test12345.live/?num_scrambled_semantic=8&num_scrambled_causal=4&num_scrambled_schematic=4&participantId=B2BE3CC91CF44DBE8A61406D34E9CDC8&assignmentId=6692d05a-228e-4686-bbf3-a17553f31c48&projectId=ba640c14-69c5-453e-80b2-29051492c0e0","B2BE3CC91CF44DBE8A61406D34E9CDC8-2025-05-14-20-50-31","","null","","images/causal_sequence/dog_causal/dog_causal_3.png","null","",""
"","","","","","image-button-response","76","380892","0.0-12.0-1.0-1.6","B2BE3CC91CF44DBE8A61406D34E9CDC8","B2BE3CC91CF44DBE8A61406D34E9CDC8","6692d05a-228e-4686-bbf3-a17553f31c48","ba640c14-69c5-453e-80b2-29051492c0e0","{""num_scrambled_semantic"":""8"",""num_scrambled_causal"":""4"",""num_scrambled_schematic"":""4"",""participantId"":""B2BE3CC91CF44DBE8A61406D34E9CDC8"",""assignmentId"":""6692d05a-228e-4686-bbf3-a17553f31c48"",""projectId"":""ba640c14-69c5-453e-80b2-29051492c0e0""}","https://test12345.live/?num_scrambled_semantic=8&num_scrambled_causal=4&num_scrambled_schematic=4&participantId=B2BE3CC91CF44DBE8A61406D34E9CDC8&assignmentId=6692d05a-228e-4686-bbf3-a17553f31c48&projectId=ba640c14-69c5-453e-80b2-29051492c0e0","B2BE3CC91CF44DBE8A61406D34E9CDC8-2025-05-14-20-50-31","","1586","","images/causal_sequence/dog_causal/dog_causal_3.png","0","",""
"","","","","","image-button-response","77","382700","0.0-12.0-1.0-2.6","B2BE3CC91CF44DBE8A61406D34E9CDC8","B2BE3CC91CF44DBE8A61406D34E9CDC8","6692d05a-228e-4686-bbf3-a17553f31c48","ba640c14-69c5-453e-80b2-29051492c0e0","{""num_scrambled_semantic"":""8"",""num_scrambled_causal"":""4"",""num_scrambled_schematic"":""4"",""participantId"":""B2BE3CC91CF44DBE8A61406D34E9CDC8"",""assignmentId"":""6692d05a-228e-4686-bbf3-a17553f31c48"",""projectId"":""ba640c14-69c5-453e-80b2-29051492c0e0""}","https://test12345.live/?num_scrambled_semantic=8&num_scrambled_causal=4&num_scrambled_schematic=4&participantId=B2BE3CC91CF44DBE8A61406D34E9CDC8&assignmentId=6692d05a-228e-4686-bbf3-a17553f31c48&projectId=ba640c14-69c5-453e-80b2-29051492c0e0","B2BE3CC91CF44DBE8A61406D34E9CDC8-2025-05-14-20-50-31","","null","","[]","null","",""
"","","","","","image-button-response","78","387216","0.0-12.0-1.0-0.7","B2BE3CC91CF44DBE8A61406D34E9CDC8","B2BE3CC91CF44DBE8A61406D34E9CDC8","6692d05a-228e-4686-bbf3-a17553f31c48","ba640c14-69c5-453e-80b2-29051492c0e0","{""num_scrambled_semantic"":""8"",""num_scrambled_causal"":""4"",""num_scrambled_schematic"":""4"",""participantId"":""B2BE3CC91CF44DBE8A61406D34E9CDC8"",""assignmentId"":""6692d05a-228e-4686-bbf3-a17553f31c48"",""projectId"":""ba640c14-69c5-453e-80b2-29051492c0e0""}","https://test12345.live/?num_scrambled_semantic=8&num_scrambled_causal=4&num_scrambled_schematic=4&participantId=B2BE3CC91CF44DBE8A61406D34E9CDC8&assignmentId=6692d05a-228e-4686-bbf3-a17553f31c48&projectId=ba640c14-69c5-453e-80b2-29051492c0e0","B2BE3CC91CF44DBE8A61406D34E9CDC8-2025-05-14-20-50-31","","null","","images/causal_sequence/dog_causal/dog_causal_8.png","null","",""
"","","","","","image-button-response","79","388655","0.0-12.0-1.0-1.7","B2BE3CC91CF44DBE8A61406D34E9CDC8","B2BE3CC91CF44DBE8A61406D34E9CDC8","6692d05a-228e-4686-bbf3-a17553f31c48","ba640c14-69c5-453e-80b2-29051492c0e0","{""num_scrambled_semantic"":""8"",""num_scrambled_causal"":""4"",""num_scrambled_schematic"":""4"",""participantId"":""B2BE3CC91CF44DBE8A61406D34E9CDC8"",""assignmentId"":""6692d05a-228e-4686-bbf3-a17553f31c48"",""projectId"":""ba640c14-69c5-453e-80b2-29051492c0e0""}","https://test12345.live/?num_scrambled_semantic=8&num_scrambled_causal=4&num_scrambled_schematic=4&participantId=B2BE3CC91CF44DBE8A61406D34E9CDC8&assignmentId=6692d05a-228e-4686-bbf3-a17553f31c48&projectId=ba640c14-69c5-453e-80b2-29051492c0e0","B2BE3CC91CF44DBE8A61406D34E9CDC8-2025-05-14-20-50-31","","1438","","images/causal_sequence/dog_causal/dog_causal_8.png","0","",""
"","","","","","image-button-response","80","390461","0.0-12.0-1.0-2.7","B2BE3CC91CF44DBE8A61406D34E9CDC8","B2BE3CC91CF44DBE8A61406D34E9CDC8","6692d05a-228e-4686-bbf3-a17553f31c48","ba640c14-69c5-453e-80b2-29051492c0e0","{""num_scrambled_semantic"":""8"",""num_scrambled_causal"":""4"",""num_scrambled_schematic"":""4"",""participantId"":""B2BE3CC91CF44DBE8A61406D34E9CDC8"",""assignmentId"":""6692d05a-228e-4686-bbf3-a17553f31c48"",""projectId"":""ba640c14-69c5-453e-80b2-29051492c0e0""}","https://test12345.live/?num_scrambled_semantic=8&num_scrambled_causal=4&num_scrambled_schematic=4&participantId=B2BE3CC91CF44DBE8A61406D34E9CDC8&assignmentId=6692d05a-228e-4686-bbf3-a17553f31c48&projectId=ba640c14-69c5-453e-80b2-29051492c0e0","B2BE3CC91CF44DBE8A61406D34E9CDC8-2025-05-14-20-50-31","","null","","[]","null","",""
"","","","","","image-button-response","81","394964","0.0-12.0-1.0-0.8","B2BE3CC91CF44DBE8A61406D34E9CDC8","B2BE3CC91CF44DBE8A61406D34E9CDC8","6692d05a-228e-4686-bbf3-a17553f31c48","ba640c14-69c5-453e-80b2-29051492c0e0","{""num_scrambled_semantic"":""8"",""num_scrambled_causal"":""4"",""num_scrambled_schematic"":""4"",""participantId"":""B2BE3CC91CF44DBE8A61406D34E9CDC8"",""assignmentId"":""6692d05a-228e-4686-bbf3-a17553f31c48"",""projectId"":""ba640c14-69c5-453e-80b2-29051492c0e0""}","https://test12345.live/?num_scrambled_semantic=8&num_scrambled_causal=4&num_scrambled_schematic=4&participantId=B2BE3CC91CF44DBE8A61406D34E9CDC8&assignmentId=6692d05a-228e-4686-bbf3-a17553f31c48&projectId=ba640c14-69c5-453e-80b2-29051492c0e0","B2BE3CC91CF44DBE8A61406D34E9CDC8-2025-05-14-20-50-31","","null","","images/causal_sequence/dog_causal/dog_causal_6.png","null","",""
"","","","","","image-button-response","82","396140","0.0-12.0-1.0-1.8","B2BE3CC91CF44DBE8A61406D34E9CDC8","B2BE3CC91CF44DBE8A61406D34E9CDC8","6692d05a-228e-4686-bbf3-a17553f31c48","ba640c14-69c5-453e-80b2-29051492c0e0","{""num_scrambled_semantic"":""8"",""num_scrambled_causal"":""4"",""num_scrambled_schematic"":""4"",""participantId"":""B2BE3CC91CF44DBE8A61406D34E9CDC8"",""assignmentId"":""6692d05a-228e-4686-bbf3-a17553f31c48"",""projectId"":""ba640c14-69c5-453e-80b2-29051492c0e0""}","https://test12345.live/?num_scrambled_semantic=8&num_scrambled_causal=4&num_scrambled_schematic=4&participantId=B2BE3CC91CF44DBE8A61406D34E9CDC8&assignmentId=6692d05a-228e-4686-bbf3-a17553f31c48&projectId=ba640c14-69c5-453e-80b2-29051492c0e0","B2BE3CC91CF44DBE8A61406D34E9CDC8-2025-05-14-20-50-31","","1173","","images/causal_sequence/dog_causal/dog_causal_6.png","0","",""
"","","","","","image-button-response","83","397946","0.0-12.0-1.0-2.8","B2BE3CC91CF44DBE8A61406D34E9CDC8","B2BE3CC91CF44DBE8A61406D34E9CDC8","6692d05a-228e-4686-bbf3-a17553f31c48","ba640c14-69c5-453e-80b2-29051492c0e0","{""num_scrambled_semantic"":""8"",""num_scrambled_causal"":""4"",""num_scrambled_schematic"":""4"",""participantId"":""B2BE3CC91CF44DBE8A61406D34E9CDC8"",""assignmentId"":""6692d05a-228e-4686-bbf3-a17553f31c48"",""projectId"":""ba640c14-69c5-453e-80b2-29051492c0e0""}","https://test12345.live/?num_scrambled_semantic=8&num_scrambled_causal=4&num_scrambled_schematic=4&participantId=B2BE3CC91CF44DBE8A61406D34E9CDC8&assignmentId=6692d05a-228e-4686-bbf3-a17553f31c48&projectId=ba640c14-69c5-453e-80b2-29051492c0e0","B2BE3CC91CF44DBE8A61406D34E9CDC8-2025-05-14-20-50-31","","null","","[]","null","",""
"","","","","","image-button-response","84","402451","0.0-12.0-1.0-0.9","B2BE3CC91CF44DBE8A61406D34E9CDC8","B2BE3CC91CF44DBE8A61406D34E9CDC8","6692d05a-228e-4686-bbf3-a17553f31c48","ba640c14-69c5-453e-80b2-29051492c0e0","{""num_scrambled_semantic"":""8"",""num_scrambled_causal"":""4"",""num_scrambled_schematic"":""4"",""participantId"":""B2BE3CC91CF44DBE8A61406D34E9CDC8"",""assignmentId"":""6692d05a-228e-4686-bbf3-a17553f31c48"",""projectId"":""ba640c14-69c5-453e-80b2-29051492c0e0""}","https://test12345.live/?num_scrambled_semantic=8&num_scrambled_causal=4&num_scrambled_schematic=4&participantId=B2BE3CC91CF44DBE8A61406D34E9CDC8&assignmentId=6692d05a-228e-4686-bbf3-a17553f31c48&projectId=ba640c14-69c5-453e-80b2-29051492c0e0","B2BE3CC91CF44DBE8A61406D34E9CDC8-2025-05-14-20-50-31","","null","","images/causal_sequence/dog_causal/dog_causal_2.png","null","",""
"","","","","","image-button-response","85","404049","0.0-12.0-1.0-1.9","B2BE3CC91CF44DBE8A61406D34E9CDC8","B2BE3CC91CF44DBE8A61406D34E9CDC8","6692d05a-228e-4686-bbf3-a17553f31c48","ba640c14-69c5-453e-80b2-29051492c0e0","{""num_scrambled_semantic"":""8"",""num_scrambled_causal"":""4"",""num_scrambled_schematic"":""4"",""participantId"":""B2BE3CC91CF44DBE8A61406D34E9CDC8"",""assignmentId"":""6692d05a-228e-4686-bbf3-a17553f31c48"",""projectId"":""ba640c14-69c5-453e-80b2-29051492c0e0""}","https://test12345.live/?num_scrambled_semantic=8&num_scrambled_causal=4&num_scrambled_schematic=4&participantId=B2BE3CC91CF44DBE8A61406D34E9CDC8&assignmentId=6692d05a-228e-4686-bbf3-a17553f31c48&projectId=ba640c14-69c5-453e-80b2-29051492c0e0","B2BE3CC91CF44DBE8A61406D34E9CDC8-2025-05-14-20-50-31","","1597","","images/causal_sequence/dog_causal/dog_causal_2.png","0","",""
"","","","","","image-button-response","86","405869","0.0-12.0-1.0-2.9","B2BE3CC91CF44DBE8A61406D34E9CDC8","B2BE3CC91CF44DBE8A61406D34E9CDC8","6692d05a-228e-4686-bbf3-a17553f31c48","ba640c14-69c5-453e-80b2-29051492c0e0","{""num_scrambled_semantic"":""8"",""num_scrambled_causal"":""4"",""num_scrambled_schematic"":""4"",""participantId"":""B2BE3CC91CF44DBE8A61406D34E9CDC8"",""assignmentId"":""6692d05a-228e-4686-bbf3-a17553f31c48"",""projectId"":""ba640c14-69c5-453e-80b2-29051492c0e0""}","https://test12345.live/?num_scrambled_semantic=8&num_scrambled_causal=4&num_scrambled_schematic=4&participantId=B2BE3CC91CF44DBE8A61406D34E9CDC8&assignmentId=6692d05a-228e-4686-bbf3-a17553f31c48&projectId=ba640c14-69c5-453e-80b2-29051492c0e0","B2BE3CC91CF44DBE8A61406D34E9CDC8-2025-05-14-20-50-31","","null","","[]","null","",""
"","","","","","html-audio-response","87","451601","0.0-13.0","B2BE3CC91CF44DBE8A61406D34E9CDC8","B2BE3CC91CF44DBE8A61406D34E9CDC8","6692d05a-228e-4686-bbf3-a17553f31c48","ba640c14-69c5-453e-80b2-29051492c0e0","{""num_scrambled_semantic"":""8"",""num_scrambled_causal"":""4"",""num_scrambled_schematic"":""4"",""participantId"":""B2BE3CC91CF44DBE8A61406D34E9CDC8"",""assignmentId"":""6692d05a-228e-4686-bbf3-a17553f31c48"",""projectId"":""ba640c14-69c5-453e-80b2-29051492c0e0""}","https://test12345.live/?num_scrambled_semantic=8&num_scrambled_causal=4&num_scrambled_schematic=4&participantId=B2BE3CC91CF44DBE8A61406D34E9CDC8&assignmentId=6692d05a-228e-4686-bbf3-a17553f31c48&projectId=ba640c14-69c5-453e-80b2-29051492c0e0","B2BE3CC91CF44DBE8A61406D34E9CDC8-2025-05-14-20-50-31","","5664","","[""<span style=\""color: red; font-size: 24px\""> NOW RECORDING</span><p>Please say out loud all the images you saw, as many as you can remember. The images can be said in any order.</p>""]","","1","dog_causal"
"","","","","","image-button-response","88","457619","0.0-14.0-0.0","B2BE3CC91CF44DBE8A61406D34E9CDC8","B2BE3CC91CF44DBE8A61406D34E9CDC8","6692d05a-228e-4686-bbf3-a17553f31c48","ba640c14-69c5-453e-80b2-29051492c0e0","{""num_scrambled_semantic"":""8"",""num_scrambled_causal"":""4"",""num_scrambled_schematic"":""4"",""participantId"":""B2BE3CC91CF44DBE8A61406D34E9CDC8"",""assignmentId"":""6692d05a-228e-4686-bbf3-a17553f31c48"",""projectId"":""ba640c14-69c5-453e-80b2-29051492c0e0""}","https://test12345.live/?num_scrambled_semantic=8&num_scrambled_causal=4&num_scrambled_schematic=4&participantId=B2BE3CC91CF44DBE8A61406D34E9CDC8&assignmentId=6692d05a-228e-4686-bbf3-a17553f31c48&projectId=ba640c14-69c5-453e-80b2-29051492c0e0","B2BE3CC91CF44DBE8A61406D34E9CDC8-2025-05-14-20-50-31","","null","","images/semantic_sequence/market_semantic/market_semantic_0.png","null","",""
"","","","","","image-button-response","89","462129","0.0-14.0-1.0-0.0","B2BE3CC91CF44DBE8A61406D34E9CDC8","B2BE3CC91CF44DBE8A61406D34E9CDC8","6692d05a-228e-4686-bbf3-a17553f31c48","ba640c14-69c5-453e-80b2-29051492c0e0","{""num_scrambled_semantic"":""8"",""num_scrambled_causal"":""4"",""num_scrambled_schematic"":""4"",""participantId"":""B2BE3CC91CF44DBE8A61406D34E9CDC8"",""assignmentId"":""6692d05a-228e-4686-bbf3-a17553f31c48"",""projectId"":""ba640c14-69c5-453e-80b2-29051492c0e0""}","https://test12345.live/?num_scrambled_semantic=8&num_scrambled_causal=4&num_scrambled_schematic=4&participantId=B2BE3CC91CF44DBE8A61406D34E9CDC8&assignmentId=6692d05a-228e-4686-bbf3-a17553f31c48&projectId=ba640c14-69c5-453e-80b2-29051492c0e0","B2BE3CC91CF44DBE8A61406D34E9CDC8-2025-05-14-20-50-31","","null","","images/semantic_sequence/market_semantic/market_semantic_ten.png","null","",""
"","","","","","image-button-response","90","465704","0.0-14.0-1.0-1.0","B2BE3CC91CF44DBE8A61406D34E9CDC8","B2BE3CC91CF44DBE8A61406D34E9CDC8","6692d05a-228e-4686-bbf3-a17553f31c48","ba640c14-69c5-453e-80b2-29051492c0e0","{""num_scrambled_semantic"":""8"",""num_scrambled_causal"":""4"",""num_scrambled_schematic"":""4"",""participantId"":""B2BE3CC91CF44DBE8A61406D34E9CDC8"",""assignmentId"":""6692d05a-228e-4686-bbf3-a17553f31c48"",""projectId"":""ba640c14-69c5-453e-80b2-29051492c0e0""}","https://test12345.live/?num_scrambled_semantic=8&num_scrambled_causal=4&num_scrambled_schematic=4&participantId=B2BE3CC91CF44DBE8A61406D34E9CDC8&assignmentId=6692d05a-228e-4686-bbf3-a17553f31c48&projectId=ba640c14-69c5-453e-80b2-29051492c0e0","B2BE3CC91CF44DBE8A61406D34E9CDC8-2025-05-14-20-50-31","","3573","","images/semantic_sequence/market_semantic/market_semantic_ten.png","1","",""
"","","","","","image-button-response","91","467508","0.0-14.0-1.0-2.0","B2BE3CC91CF44DBE8A61406D34E9CDC8","B2BE3CC91CF44DBE8A61406D34E9CDC8","6692d05a-228e-4686-bbf3-a17553f31c48","ba640c14-69c5-453e-80b2-29051492c0e0","{""num_scrambled_semantic"":""8"",""num_scrambled_causal"":""4"",""num_scrambled_schematic"":""4"",""participantId"":""B2BE3CC91CF44DBE8A61406D34E9CDC8"",""assignmentId"":""6692d05a-228e-4686-bbf3-a17553f31c48"",""projectId"":""ba640c14-69c5-453e-80b2-29051492c0e0""}","https://test12345.live/?num_scrambled_semantic=8&num_scrambled_causal=4&num_scrambled_schematic=4&participantId=B2BE3CC91CF44DBE8A61406D34E9CDC8&assignmentId=6692d05a-228e-4686-bbf3-a17553f31c48&projectId=ba640c14-69c5-453e-80b2-29051492c0e0","B2BE3CC91CF44DBE8A61406D34E9CDC8-2025-05-14-20-50-31","","null","","[]","null","",""
"","","","","","image-button-response","92","472012","0.0-14.0-1.0-0.1","B2BE3CC91CF44DBE8A61406D34E9CDC8","B2BE3CC91CF44DBE8A61406D34E9CDC8","6692d05a-228e-4686-bbf3-a17553f31c48","ba640c14-69c5-453e-80b2-29051492c0e0","{""num_scrambled_semantic"":""8"",""num_scrambled_causal"":""4"",""num_scrambled_schematic"":""4"",""participantId"":""B2BE3CC91CF44DBE8A61406D34E9CDC8"",""assignmentId"":""6692d05a-228e-4686-bbf3-a17553f31c48"",""projectId"":""ba640c14-69c5-453e-80b2-29051492c0e0""}","https://test12345.live/?num_scrambled_semantic=8&num_scrambled_causal=4&num_scrambled_schematic=4&participantId=B2BE3CC91CF44DBE8A61406D34E9CDC8&assignmentId=6692d05a-228e-4686-bbf3-a17553f31c48&projectId=ba640c14-69c5-453e-80b2-29051492c0e0","B2BE3CC91CF44DBE8A61406D34E9CDC8-2025-05-14-20-50-31","","null","","images/semantic_sequence/market_semantic/market_semantic_3.png","null","",""
"","","","","","image-button-response","93","473331","0.0-14.0-1.0-1.1","B2BE3CC91CF44DBE8A61406D34E9CDC8","B2BE3CC91CF44DBE8A61406D34E9CDC8","6692d05a-228e-4686-bbf3-a17553f31c48","ba640c14-69c5-453e-80b2-29051492c0e0","{""num_scrambled_semantic"":""8"",""num_scrambled_causal"":""4"",""num_scrambled_schematic"":""4"",""participantId"":""B2BE3CC91CF44DBE8A61406D34E9CDC8"",""assignmentId"":""6692d05a-228e-4686-bbf3-a17553f31c48"",""projectId"":""ba640c14-69c5-453e-80b2-29051492c0e0""}","https://test12345.live/?num_scrambled_semantic=8&num_scrambled_causal=4&num_scrambled_schematic=4&participantId=B2BE3CC91CF44DBE8A61406D34E9CDC8&assignmentId=6692d05a-228e-4686-bbf3-a17553f31c48&projectId=ba640c14-69c5-453e-80b2-29051492c0e0","B2BE3CC91CF44DBE8A61406D34E9CDC8-2025-05-14-20-50-31","","1318","","images/semantic_sequence/market_semantic/market_semantic_3.png","1","",""
"","","","","","image-button-response","94","475147","0.0-14.0-1.0-2.1","B2BE3CC91CF44DBE8A61406D34E9CDC8","B2BE3CC91CF44DBE8A61406D34E9CDC8","6692d05a-228e-4686-bbf3-a17553f31c48","ba640c14-69c5-453e-80b2-29051492c0e0","{""num_scrambled_semantic"":""8"",""num_scrambled_causal"":""4"",""num_scrambled_schematic"":""4"",""participantId"":""B2BE3CC91CF44DBE8A61406D34E9CDC8"",""assignmentId"":""6692d05a-228e-4686-bbf3-a17553f31c48"",""projectId"":""ba640c14-69c5-453e-80b2-29051492c0e0""}","https://test12345.live/?num_scrambled_semantic=8&num_scrambled_causal=4&num_scrambled_schematic=4&participantId=B2BE3CC91CF44DBE8A61406D34E9CDC8&assignmentId=6692d05a-228e-4686-bbf3-a17553f31c48&projectId=ba640c14-69c5-453e-80b2-29051492c0e0","B2BE3CC91CF44DBE8A61406D34E9CDC8-2025-05-14-20-50-31","","null","","[]","null","",""
"","","","","","image-button-response","95","479649","0.0-14.0-1.0-0.2","B2BE3CC91CF44DBE8A61406D34E9CDC8","B2BE3CC91CF44DBE8A61406D34E9CDC8","6692d05a-228e-4686-bbf3-a17553f31c48","ba640c14-69c5-453e-80b2-29051492c0e0","{""num_scrambled_semantic"":""8"",""num_scrambled_causal"":""4"",""num_scrambled_schematic"":""4"",""participantId"":""B2BE3CC91CF44DBE8A61406D34E9CDC8"",""assignmentId"":""6692d05a-228e-4686-bbf3-a17553f31c48"",""projectId"":""ba640c14-69c5-453e-80b2-29051492c0e0""}","https://test12345.live/?num_scrambled_semantic=8&num_scrambled_causal=4&num_scrambled_schematic=4&participantId=B2BE3CC91CF44DBE8A61406D34E9CDC8&assignmentId=6692d05a-228e-4686-bbf3-a17553f31c48&projectId=ba640c14-69c5-453e-80b2-29051492c0e0","B2BE3CC91CF44DBE8A61406D34E9CDC8-2025-05-14-20-50-31","","null","","images/semantic_sequence/market_semantic/market_semantic_2.png","null","",""
"","","","","","image-button-response","96","480853","0.0-14.0-1.0-1.2","B2BE3CC91CF44DBE8A61406D34E9CDC8","B2BE3CC91CF44DBE8A61406D34E9CDC8","6692d05a-228e-4686-bbf3-a17553f31c48","ba640c14-69c5-453e-80b2-29051492c0e0","{""num_scrambled_semantic"":""8"",""num_scrambled_causal"":""4"",""num_scrambled_schematic"":""4"",""participantId"":""B2BE3CC91CF44DBE8A61406D34E9CDC8"",""assignmentId"":""6692d05a-228e-4686-bbf3-a17553f31c48"",""projectId"":""ba640c14-69c5-453e-80b2-29051492c0e0""}","https://test12345.live/?num_scrambled_semantic=8&num_scrambled_causal=4&num_scrambled_schematic=4&participantId=B2BE3CC91CF44DBE8A61406D34E9CDC8&assignmentId=6692d05a-228e-4686-bbf3-a17553f31c48&projectId=ba640c14-69c5-453e-80b2-29051492c0e0","B2BE3CC91CF44DBE8A61406D34E9CDC8-2025-05-14-20-50-31","","1202","","images/semantic_sequence/market_semantic/market_semantic_2.png","1","",""
"","","","","","image-button-response","97","482665","0.0-14.0-1.0-2.2","B2BE3CC91CF44DBE8A61406D34E9CDC8","B2BE3CC91CF44DBE8A61406D34E9CDC8","6692d05a-228e-4686-bbf3-a17553f31c48","ba640c14-69c5-453e-80b2-29051492c0e0","{""num_scrambled_semantic"":""8"",""num_scrambled_causal"":""4"",""num_scrambled_schematic"":""4"",""participantId"":""B2BE3CC91CF44DBE8A61406D34E9CDC8"",""assignmentId"":""6692d05a-228e-4686-bbf3-a17553f31c48"",""projectId"":""ba640c14-69c5-453e-80b2-29051492c0e0""}","https://test12345.live/?num_scrambled_semantic=8&num_scrambled_causal=4&num_scrambled_schematic=4&participantId=B2BE3CC91CF44DBE8A61406D34E9CDC8&assignmentId=6692d05a-228e-4686-bbf3-a17553f31c48&projectId=ba640c14-69c5-453e-80b2-29051492c0e0","B2BE3CC91CF44DBE8A61406D34E9CDC8-2025-05-14-20-50-31","","null","","[]","null","",""
"","","","","","image-button-response","98","487173","0.0-14.0-1.0-0.3","B2BE3CC91CF44DBE8A61406D34E9CDC8","B2BE3CC91CF44DBE8A61406D34E9CDC8","6692d05a-228e-4686-bbf3-a17553f31c48","ba640c14-69c5-453e-80b2-29051492c0e0","{""num_scrambled_semantic"":""8"",""num_scrambled_causal"":""4"",""num_scrambled_schematic"":""4"",""participantId"":""B2BE3CC91CF44DBE8A61406D34E9CDC8"",""assignmentId"":""6692d05a-228e-4686-bbf3-a17553f31c48"",""projectId"":""ba640c14-69c5-453e-80b2-29051492c0e0""}","https://test12345.live/?num_scrambled_semantic=8&num_scrambled_causal=4&num_scrambled_schematic=4&participantId=B2BE3CC91CF44DBE8A61406D34E9CDC8&assignmentId=6692d05a-228e-4686-bbf3-a17553f31c48&projectId=ba640c14-69c5-453e-80b2-29051492c0e0","B2BE3CC91CF44DBE8A61406D34E9CDC8-2025-05-14-20-50-31","","null","","images/semantic_sequence/market_semantic/market_semantic_5.png","null","",""
"","","","","","image-button-response","99","488293","0.0-14.0-1.0-1.3","B2BE3CC91CF44DBE8A61406D34E9CDC8","B2BE3CC91CF44DBE8A61406D34E9CDC8","6692d05a-228e-4686-bbf3-a17553f31c48","ba640c14-69c5-453e-80b2-29051492c0e0","{""num_scrambled_semantic"":""8"",""num_scrambled_causal"":""4"",""num_scrambled_schematic"":""4"",""participantId"":""B2BE3CC91CF44DBE8A61406D34E9CDC8"",""assignmentId"":""6692d05a-228e-4686-bbf3-a17553f31c48"",""projectId"":""ba640c14-69c5-453e-80b2-29051492c0e0""}","https://test12345.live/?num_scrambled_semantic=8&num_scrambled_causal=4&num_scrambled_schematic=4&participantId=B2BE3CC91CF44DBE8A61406D34E9CDC8&assignmentId=6692d05a-228e-4686-bbf3-a17553f31c48&projectId=ba640c14-69c5-453e-80b2-29051492c0e0","B2BE3CC91CF44DBE8A61406D34E9CDC8-2025-05-14-20-50-31","","1118","","images/semantic_sequence/market_semantic/market_semantic_5.png","1","",""
"","","","","","image-button-response","100","490101","0.0-14.0-1.0-2.3","B2BE3CC91CF44DBE8A61406D34E9CDC8","B2BE3CC91CF44DBE8A61406D34E9CDC8","6692d05a-228e-4686-bbf3-a17553f31c48","ba640c14-69c5-453e-80b2-29051492c0e0","{""num_scrambled_semantic"":""8"",""num_scrambled_causal"":""4"",""num_scrambled_schematic"":""4"",""participantId"":""B2BE3CC91CF44DBE8A61406D34E9CDC8"",""assignmentId"":""6692d05a-228e-4686-bbf3-a17553f31c48"",""projectId"":""ba640c14-69c5-453e-80b2-29051492c0e0""}","https://test12345.live/?num_scrambled_semantic=8&num_scrambled_causal=4&num_scrambled_schematic=4&participantId=B2BE3CC91CF44DBE8A61406D34E9CDC8&assignmentId=6692d05a-228e-4686-bbf3-a17553f31c48&projectId=ba640c14-69c5-453e-80b2-29051492c0e0","B2BE3CC91CF44DBE8A61406D34E9CDC8-2025-05-14-20-50-31","","null","","[]","null","",""
"","","","","","image-button-response","101","494608","0.0-14.0-1.0-0.4","B2BE3CC91CF44DBE8A61406D34E9CDC8","B2BE3CC91CF44DBE8A61406D34E9CDC8","6692d05a-228e-4686-bbf3-a17553f31c48","ba640c14-69c5-453e-80b2-29051492c0e0","{""num_scrambled_semantic"":""8"",""num_scrambled_causal"":""4"",""num_scrambled_schematic"":""4"",""participantId"":""B2BE3CC91CF44DBE8A61406D34E9CDC8"",""assignmentId"":""6692d05a-228e-4686-bbf3-a17553f31c48"",""projectId"":""ba640c14-69c5-453e-80b2-29051492c0e0""}","https://test12345.live/?num_scrambled_semantic=8&num_scrambled_causal=4&num_scrambled_schematic=4&participantId=B2BE3CC91CF44DBE8A61406D34E9CDC8&assignmentId=6692d05a-228e-4686-bbf3-a17553f31c48&projectId=ba640c14-69c5-453e-80b2-29051492c0e0","B2BE3CC91CF44DBE8A61406D34E9CDC8-2025-05-14-20-50-31","","null","","images/semantic_sequence/market_semantic/market_semantic_7.png","null","",""
"","","","","","image-button-response","102","495826","0.0-14.0-1.0-1.4","B2BE3CC91CF44DBE8A61406D34E9CDC8","B2BE3CC91CF44DBE8A61406D34E9CDC8","6692d05a-228e-4686-bbf3-a17553f31c48","ba640c14-69c5-453e-80b2-29051492c0e0","{""num_scrambled_semantic"":""8"",""num_scrambled_causal"":""4"",""num_scrambled_schematic"":""4"",""participantId"":""B2BE3CC91CF44DBE8A61406D34E9CDC8"",""assignmentId"":""6692d05a-228e-4686-bbf3-a17553f31c48"",""projectId"":""ba640c14-69c5-453e-80b2-29051492c0e0""}","https://test12345.live/?num_scrambled_semantic=8&num_scrambled_causal=4&num_scrambled_schematic=4&participantId=B2BE3CC91CF44DBE8A61406D34E9CDC8&assignmentId=6692d05a-228e-4686-bbf3-a17553f31c48&projectId=ba640c14-69c5-453e-80b2-29051492c0e0","B2BE3CC91CF44DBE8A61406D34E9CDC8-2025-05-14-20-50-31","","1215","","images/semantic_sequence/market_semantic/market_semantic_7.png","0","",""
"","","","","","image-button-response","103","497628","0.0-14.0-1.0-2.4","B2BE3CC91CF44DBE8A61406D34E9CDC8","B2BE3CC91CF44DBE8A61406D34E9CDC8","6692d05a-228e-4686-bbf3-a17553f31c48","ba640c14-69c5-453e-80b2-29051492c0e0","{""num_scrambled_semantic"":""8"",""num_scrambled_causal"":""4"",""num_scrambled_schematic"":""4"",""participantId"":""B2BE3CC91CF44DBE8A61406D34E9CDC8"",""assignmentId"":""6692d05a-228e-4686-bbf3-a17553f31c48"",""projectId"":""ba640c14-69c5-453e-80b2-29051492c0e0""}","https://test12345.live/?num_scrambled_semantic=8&num_scrambled_causal=4&num_scrambled_schematic=4&participantId=B2BE3CC91CF44DBE8A61406D34E9CDC8&assignmentId=6692d05a-228e-4686-bbf3-a17553f31c48&projectId=ba640c14-69c5-453e-80b2-29051492c0e0","B2BE3CC91CF44DBE8A61406D34E9CDC8-2025-05-14-20-50-31","","null","","[]","null","",""
"","","","","","image-button-response","104","502134","0.0-14.0-1.0-0.5","B2BE3CC91CF44DBE8A61406D34E9CDC8","B2BE3CC91CF44DBE8A61406D34E9CDC8","6692d05a-228e-4686-bbf3-a17553f31c48","ba640c14-69c5-453e-80b2-29051492c0e0","{""num_scrambled_semantic"":""8"",""num_scrambled_causal"":""4"",""num_scrambled_schematic"":""4"",""participantId"":""B2BE3CC91CF44DBE8A61406D34E9CDC8"",""assignmentId"":""6692d05a-228e-4686-bbf3-a17553f31c48"",""projectId"":""ba640c14-69c5-453e-80b2-29051492c0e0""}","https://test12345.live/?num_scrambled_semantic=8&num_scrambled_causal=4&num_scrambled_schematic=4&participantId=B2BE3CC91CF44DBE8A61406D34E9CDC8&assignmentId=6692d05a-228e-4686-bbf3-a17553f31c48&projectId=ba640c14-69c5-453e-80b2-29051492c0e0","B2BE3CC91CF44DBE8A61406D34E9CDC8-2025-05-14-20-50-31","","null","","images/semantic_sequence/market_semantic/market_semantic_6.png","null","",""
"","","","","","image-button-response","105","503773","0.0-14.0-1.0-1.5","B2BE3CC91CF44DBE8A61406D34E9CDC8","B2BE3CC91CF44DBE8A61406D34E9CDC8","6692d05a-228e-4686-bbf3-a17553f31c48","ba640c14-69c5-453e-80b2-29051492c0e0","{""num_scrambled_semantic"":""8"",""num_scrambled_causal"":""4"",""num_scrambled_schematic"":""4"",""participantId"":""B2BE3CC91CF44DBE8A61406D34E9CDC8"",""assignmentId"":""6692d05a-228e-4686-bbf3-a17553f31c48"",""projectId"":""ba640c14-69c5-453e-80b2-29051492c0e0""}","https://test12345.live/?num_scrambled_semantic=8&num_scrambled_causal=4&num_scrambled_schematic=4&participantId=B2BE3CC91CF44DBE8A61406D34E9CDC8&assignmentId=6692d05a-228e-4686-bbf3-a17553f31c48&projectId=ba640c14-69c5-453e-80b2-29051492c0e0","B2BE3CC91CF44DBE8A61406D34E9CDC8-2025-05-14-20-50-31","","1637","","images/semantic_sequence/market_semantic/market_semantic_6.png","1","",""
"","","","","","image-button-response","106","505588","0.0-14.0-1.0-2.5","B2BE3CC91CF44DBE8A61406D34E9CDC8","B2BE3CC91CF44DBE8A61406D34E9CDC8","6692d05a-228e-4686-bbf3-a17553f31c48","ba640c14-69c5-453e-80b2-29051492c0e0","{""num_scrambled_semantic"":""8"",""num_scrambled_causal"":""4"",""num_scrambled_schematic"":""4"",""participantId"":""B2BE3CC91CF44DBE8A61406D34E9CDC8"",""assignmentId"":""6692d05a-228e-4686-bbf3-a17553f31c48"",""projectId"":""ba640c14-69c5-453e-80b2-29051492c0e0""}","https://test12345.live/?num_scrambled_semantic=8&num_scrambled_causal=4&num_scrambled_schematic=4&participantId=B2BE3CC91CF44DBE8A61406D34E9CDC8&assignmentId=6692d05a-228e-4686-bbf3-a17553f31c48&projectId=ba640c14-69c5-453e-80b2-29051492c0e0","B2BE3CC91CF44DBE8A61406D34E9CDC8-2025-05-14-20-50-31","","null","","[]","null","",""
"","","","","","image-button-response","107","510098","0.0-14.0-1.0-0.6","B2BE3CC91CF44DBE8A61406D34E9CDC8","B2BE3CC91CF44DBE8A61406D34E9CDC8","6692d05a-228e-4686-bbf3-a17553f31c48","ba640c14-69c5-453e-80b2-29051492c0e0","{""num_scrambled_semantic"":""8"",""num_scrambled_causal"":""4"",""num_scrambled_schematic"":""4"",""participantId"":""B2BE3CC91CF44DBE8A61406D34E9CDC8"",""assignmentId"":""6692d05a-228e-4686-bbf3-a17553f31c48"",""projectId"":""ba640c14-69c5-453e-80b2-29051492c0e0""}","https://test12345.live/?num_scrambled_semantic=8&num_scrambled_causal=4&num_scrambled_schematic=4&participantId=B2BE3CC91CF44DBE8A61406D34E9CDC8&assignmentId=6692d05a-228e-4686-bbf3-a17553f31c48&projectId=ba640c14-69c5-453e-80b2-29051492c0e0","B2BE3CC91CF44DBE8A61406D34E9CDC8-2025-05-14-20-50-31","","null","","images/semantic_sequence/market_semantic/market_semantic_9.png","null","",""
"","","","","","image-button-response","108","510873","0.0-14.0-1.0-1.6","B2BE3CC91CF44DBE8A61406D34E9CDC8","B2BE3CC91CF44DBE8A61406D34E9CDC8","6692d05a-228e-4686-bbf3-a17553f31c48","ba640c14-69c5-453e-80b2-29051492c0e0","{""num_scrambled_semantic"":""8"",""num_scrambled_causal"":""4"",""num_scrambled_schematic"":""4"",""participantId"":""B2BE3CC91CF44DBE8A61406D34E9CDC8"",""assignmentId"":""6692d05a-228e-4686-bbf3-a17553f31c48"",""projectId"":""ba640c14-69c5-453e-80b2-29051492c0e0""}","https://test12345.live/?num_scrambled_semantic=8&num_scrambled_causal=4&num_scrambled_schematic=4&participantId=B2BE3CC91CF44DBE8A61406D34E9CDC8&assignmentId=6692d05a-228e-4686-bbf3-a17553f31c48&projectId=ba640c14-69c5-453e-80b2-29051492c0e0","B2BE3CC91CF44DBE8A61406D34E9CDC8-2025-05-14-20-50-31","","770","","images/semantic_sequence/market_semantic/market_semantic_9.png","1","",""
"","","","","","image-button-response","109","512686","0.0-14.0-1.0-2.6","B2BE3CC91CF44DBE8A61406D34E9CDC8","B2BE3CC91CF44DBE8A61406D34E9CDC8","6692d05a-228e-4686-bbf3-a17553f31c48","ba640c14-69c5-453e-80b2-29051492c0e0","{""num_scrambled_semantic"":""8"",""num_scrambled_causal"":""4"",""num_scrambled_schematic"":""4"",""participantId"":""B2BE3CC91CF44DBE8A61406D34E9CDC8"",""assignmentId"":""6692d05a-228e-4686-bbf3-a17553f31c48"",""projectId"":""ba640c14-69c5-453e-80b2-29051492c0e0""}","https://test12345.live/?num_scrambled_semantic=8&num_scrambled_causal=4&num_scrambled_schematic=4&participantId=B2BE3CC91CF44DBE8A61406D34E9CDC8&assignmentId=6692d05a-228e-4686-bbf3-a17553f31c48&projectId=ba640c14-69c5-453e-80b2-29051492c0e0","B2BE3CC91CF44DBE8A61406D34E9CDC8-2025-05-14-20-50-31","","null","","[]","null","",""
"","","","","","image-button-response","110","517196","0.0-14.0-1.0-0.7","B2BE3CC91CF44DBE8A61406D34E9CDC8","B2BE3CC91CF44DBE8A61406D34E9CDC8","6692d05a-228e-4686-bbf3-a17553f31c48","ba640c14-69c5-453e-80b2-29051492c0e0","{""num_scrambled_semantic"":""8"",""num_scrambled_causal"":""4"",""num_scrambled_schematic"":""4"",""participantId"":""B2BE3CC91CF44DBE8A61406D34E9CDC8"",""assignmentId"":""6692d05a-228e-4686-bbf3-a17553f31c48"",""projectId"":""ba640c14-69c5-453e-80b2-29051492c0e0""}","https://test12345.live/?num_scrambled_semantic=8&num_scrambled_causal=4&num_scrambled_schematic=4&participantId=B2BE3CC91CF44DBE8A61406D34E9CDC8&assignmentId=6692d05a-228e-4686-bbf3-a17553f31c48&projectId=ba640c14-69c5-453e-80b2-29051492c0e0","B2BE3CC91CF44DBE8A61406D34E9CDC8-2025-05-14-20-50-31","","null","","images/semantic_sequence/market_semantic/market_semantic_8.png","null","",""
"","","","","","image-button-response","111","518594","0.0-14.0-1.0-1.7","B2BE3CC91CF44DBE8A61406D34E9CDC8","B2BE3CC91CF44DBE8A61406D34E9CDC8","6692d05a-228e-4686-bbf3-a17553f31c48","ba640c14-69c5-453e-80b2-29051492c0e0","{""num_scrambled_semantic"":""8"",""num_scrambled_causal"":""4"",""num_scrambled_schematic"":""4"",""participantId"":""B2BE3CC91CF44DBE8A61406D34E9CDC8"",""assignmentId"":""6692d05a-228e-4686-bbf3-a17553f31c48"",""projectId"":""ba640c14-69c5-453e-80b2-29051492c0e0""}","https://test12345.live/?num_scrambled_semantic=8&num_scrambled_causal=4&num_scrambled_schematic=4&participantId=B2BE3CC91CF44DBE8A61406D34E9CDC8&assignmentId=6692d05a-228e-4686-bbf3-a17553f31c48&projectId=ba640c14-69c5-453e-80b2-29051492c0e0","B2BE3CC91CF44DBE8A61406D34E9CDC8-2025-05-14-20-50-31","","1396","","images/semantic_sequence/market_semantic/market_semantic_8.png","1","",""
"","","","","","image-button-response","112","520400","0.0-14.0-1.0-2.7","B2BE3CC91CF44DBE8A61406D34E9CDC8","B2BE3CC91CF44DBE8A61406D34E9CDC8","6692d05a-228e-4686-bbf3-a17553f31c48","ba640c14-69c5-453e-80b2-29051492c0e0","{""num_scrambled_semantic"":""8"",""num_scrambled_causal"":""4"",""num_scrambled_schematic"":""4"",""participantId"":""B2BE3CC91CF44DBE8A61406D34E9CDC8"",""assignmentId"":""6692d05a-228e-4686-bbf3-a17553f31c48"",""projectId"":""ba640c14-69c5-453e-80b2-29051492c0e0""}","https://test12345.live/?num_scrambled_semantic=8&num_scrambled_causal=4&num_scrambled_schematic=4&participantId=B2BE3CC91CF44DBE8A61406D34E9CDC8&assignmentId=6692d05a-228e-4686-bbf3-a17553f31c48&projectId=ba640c14-69c5-453e-80b2-29051492c0e0","B2BE3CC91CF44DBE8A61406D34E9CDC8-2025-05-14-20-50-31","","null","","[]","null","",""
"","","","","","image-button-response","113","524909","0.0-14.0-1.0-0.8","B2BE3CC91CF44DBE8A61406D34E9CDC8","B2BE3CC91CF44DBE8A61406D34E9CDC8","6692d05a-228e-4686-bbf3-a17553f31c48","ba640c14-69c5-453e-80b2-29051492c0e0","{""num_scrambled_semantic"":""8"",""num_scrambled_causal"":""4"",""num_scrambled_schematic"":""4"",""participantId"":""B2BE3CC91CF44DBE8A61406D34E9CDC8"",""assignmentId"":""6692d05a-228e-4686-bbf3-a17553f31c48"",""projectId"":""ba640c14-69c5-453e-80b2-29051492c0e0""}","https://test12345.live/?num_scrambled_semantic=8&num_scrambled_causal=4&num_scrambled_schematic=4&participantId=B2BE3CC91CF44DBE8A61406D34E9CDC8&assignmentId=6692d05a-228e-4686-bbf3-a17553f31c48&projectId=ba640c14-69c5-453e-80b2-29051492c0e0","B2BE3CC91CF44DBE8A61406D34E9CDC8-2025-05-14-20-50-31","","null","","images/semantic_sequence/market_semantic/market_semantic_1.png","null","",""
"","","","","","image-button-response","114","526648","0.0-14.0-1.0-1.8","B2BE3CC91CF44DBE8A61406D34E9CDC8","B2BE3CC91CF44DBE8A61406D34E9CDC8","6692d05a-228e-4686-bbf3-a17553f31c48","ba640c14-69c5-453e-80b2-29051492c0e0","{""num_scrambled_semantic"":""8"",""num_scrambled_causal"":""4"",""num_scrambled_schematic"":""4"",""participantId"":""B2BE3CC91CF44DBE8A61406D34E9CDC8"",""assignmentId"":""6692d05a-228e-4686-bbf3-a17553f31c48"",""projectId"":""ba640c14-69c5-453e-80b2-29051492c0e0""}","https://test12345.live/?num_scrambled_semantic=8&num_scrambled_causal=4&num_scrambled_schematic=4&participantId=B2BE3CC91CF44DBE8A61406D34E9CDC8&assignmentId=6692d05a-228e-4686-bbf3-a17553f31c48&projectId=ba640c14-69c5-453e-80b2-29051492c0e0","B2BE3CC91CF44DBE8A61406D34E9CDC8-2025-05-14-20-50-31","","1737","","images/semantic_sequence/market_semantic/market_semantic_1.png","1","",""
