"success","timeout","failed_images","failed_audio","failed_video","trial_type","trial_index","time_elapsed","internal_node_id","subject","subject_id","study_id","session_id","urlvar","current_url","audio_id","view_history","rt","device_id","stimulus","response","estimated_stimulus_onset","seq_name"
"true","false","[]","[]","[]","preload","0","9751","0.0-0.0","B337D9B027A44D9182E1245C005FFBF7","B337D9B027A44D9182E1245C005FFBF7","6ffe26cd-4ff7-4445-8749-978cc739356f","051c06f1-75cc-4548-856d-4923ddaba0dc","{""num_scrambled_semantic"":""8"",""num_scrambled_causal"":""4"",""num_scrambled_schematic"":""4"",""participantId"":""B337D9B027A44D9182E1245C005FFBF7"",""assignmentId"":""6ffe26cd-4ff7-4445-8749-978cc739356f"",""projectId"":""051c06f1-75cc-4548-856d-4923ddaba0dc""}","https://test12345.live/?num_scrambled_semantic=8&num_scrambled_causal=4&num_scrambled_schematic=4&participantId=B337D9B027A44D9182E1245C005FFBF7&assignmentId=6ffe26cd-4ff7-4445-8749-978cc739356f&projectId=051c06f1-75cc-4548-856d-4923ddaba0dc","B337D9B027A44D9182E1245C005FFBF7-2025-05-15-19-23-36","","","","","","",""
"","","","","","instructions","1","21089","0.0-1.0","B337D9B027A44D9182E1245C005FFBF7","B337D9B027A44D9182E1245C005FFBF7","6ffe26cd-4ff7-4445-8749-978cc739356f","051c06f1-75cc-4548-856d-4923ddaba0dc","{""num_scrambled_semantic"":""8"",""num_scrambled_causal"":""4"",""num_scrambled_schematic"":""4"",""participantId"":""B337D9B027A44D9182E1245C005FFBF7"",""assignmentId"":""6ffe26cd-4ff7-4445-8749-978cc739356f"",""projectId"":""051c06f1-75cc-4548-856d-4923ddaba0dc""}","https://test12345.live/?num_scrambled_semantic=8&num_scrambled_causal=4&num_scrambled_schematic=4&participantId=B337D9B027A44D9182E1245C005FFBF7&assignmentId=6ffe26cd-4ff7-4445-8749-978cc739356f&projectId=051c06f1-75cc-4548-856d-4923ddaba0dc","B337D9B027A44D9182E1245C005FFBF7-2025-05-15-19-23-36","[{""page_index"":0,""viewing_time"":11336}]","11337","","","","",""
"","","","","","instructions","2","556185","0.0-2.0","B337D9B027A44D9182E1245C005FFBF7","B337D9B027A44D9182E1245C005FFBF7","6ffe26cd-4ff7-4445-8749-978cc739356f","051c06f1-75cc-4548-856d-4923ddaba0dc","{""num_scrambled_semantic"":""8"",""num_scrambled_causal"":""4"",""num_scrambled_schematic"":""4"",""participantId"":""B337D9B027A44D9182E1245C005FFBF7"",""assignmentId"":""6ffe26cd-4ff7-4445-8749-978cc739356f"",""projectId"":""051c06f1-75cc-4548-856d-4923ddaba0dc""}","https://test12345.live/?num_scrambled_semantic=8&num_scrambled_causal=4&num_scrambled_schematic=4&participantId=B337D9B027A44D9182E1245C005FFBF7&assignmentId=6ffe26cd-4ff7-4445-8749-978cc739356f&projectId=051c06f1-75cc-4548-856d-4923ddaba0dc","B337D9B027A44D9182E1245C005FFBF7-2025-05-15-19-23-36","[{""page_index"":0,""viewing_time"":535086}]","535087","","","","",""
"true","","","","","fullscreen","3","559771","0.0-3.0","B337D9B027A44D9182E1245C005FFBF7","B337D9B027A44D9182E1245C005FFBF7","6ffe26cd-4ff7-4445-8749-978cc739356f","051c06f1-75cc-4548-856d-4923ddaba0dc","{""num_scrambled_semantic"":""8"",""num_scrambled_causal"":""4"",""num_scrambled_schematic"":""4"",""participantId"":""B337D9B027A44D9182E1245C005FFBF7"",""assignmentId"":""6ffe26cd-4ff7-4445-8749-978cc739356f"",""projectId"":""051c06f1-75cc-4548-856d-4923ddaba0dc""}","https://test12345.live/?num_scrambled_semantic=8&num_scrambled_causal=4&num_scrambled_schematic=4&participantId=B337D9B027A44D9182E1245C005FFBF7&assignmentId=6ffe26cd-4ff7-4445-8749-978cc739356f&projectId=051c06f1-75cc-4548-856d-4923ddaba0dc","B337D9B027A44D9182E1245C005FFBF7-2025-05-15-19-23-36","","2582","","","","",""
"","","","","","initialize-microphone","4","563608","0.0-4.0-0.0","B337D9B027A44D9182E1245C005FFBF7","B337D9B027A44D9182E1245C005FFBF7","6ffe26cd-4ff7-4445-8749-978cc739356f","051c06f1-75cc-4548-856d-4923ddaba0dc","{""num_scrambled_semantic"":""8"",""num_scrambled_causal"":""4"",""num_scrambled_schematic"":""4"",""participantId"":""B337D9B027A44D9182E1245C005FFBF7"",""assignmentId"":""6ffe26cd-4ff7-4445-8749-978cc739356f"",""projectId"":""051c06f1-75cc-4548-856d-4923ddaba0dc""}","https://test12345.live/?num_scrambled_semantic=8&num_scrambled_causal=4&num_scrambled_schematic=4&participantId=B337D9B027A44D9182E1245C005FFBF7&assignmentId=6ffe26cd-4ff7-4445-8749-978cc739356f&projectId=051c06f1-75cc-4548-856d-4923ddaba0dc","B337D9B027A44D9182E1245C005FFBF7-2025-05-15-19-23-36","","","6bff1dcef2d5cb344ea2ea5002a395ace0ce06a15907fa4ab8c49d0b268c17b5","","","",""
"","","","","","html-audio-response","5","573018","0.0-4.0-1.0","B337D9B027A44D9182E1245C005FFBF7","B337D9B027A44D9182E1245C005FFBF7","6ffe26cd-4ff7-4445-8749-978cc739356f","051c06f1-75cc-4548-856d-4923ddaba0dc","{""num_scrambled_semantic"":""8"",""num_scrambled_causal"":""4"",""num_scrambled_schematic"":""4"",""participantId"":""B337D9B027A44D9182E1245C005FFBF7"",""assignmentId"":""6ffe26cd-4ff7-4445-8749-978cc739356f"",""projectId"":""051c06f1-75cc-4548-856d-4923ddaba0dc""}","https://test12345.live/?num_scrambled_semantic=8&num_scrambled_causal=4&num_scrambled_schematic=4&participantId=B337D9B027A44D9182E1245C005FFBF7&assignmentId=6ffe26cd-4ff7-4445-8749-978cc739356f&projectId=051c06f1-75cc-4548-856d-4923ddaba0dc","B337D9B027A44D9182E1245C005FFBF7-2025-05-15-19-23-36","","2546","","<span style=""color: red; font-size: 24px""> NOW RECORDING</span>
        <p>Please test Microphone</p>","","3",""
"","","","","","html-button-response","6","574640","0.0-4.0-2.0","B337D9B027A44D9182E1245C005FFBF7","B337D9B027A44D9182E1245C005FFBF7","6ffe26cd-4ff7-4445-8749-978cc739356f","051c06f1-75cc-4548-856d-4923ddaba0dc","{""num_scrambled_semantic"":""8"",""num_scrambled_causal"":""4"",""num_scrambled_schematic"":""4"",""participantId"":""B337D9B027A44D9182E1245C005FFBF7"",""assignmentId"":""6ffe26cd-4ff7-4445-8749-978cc739356f"",""projectId"":""051c06f1-75cc-4548-856d-4923ddaba0dc""}","https://test12345.live/?num_scrambled_semantic=8&num_scrambled_causal=4&num_scrambled_schematic=4&participantId=B337D9B027A44D9182E1245C005FFBF7&assignmentId=6ffe26cd-4ff7-4445-8749-978cc739356f&projectId=051c06f1-75cc-4548-856d-4923ddaba0dc","B337D9B027A44D9182E1245C005FFBF7-2025-05-15-19-23-36","","1619","","<p style=""font-size:48px; color:red;"">Is Microphone OK?</p>","1","",""
"","","","","","instructions","7","581992","0.0-5.0","B337D9B027A44D9182E1245C005FFBF7","B337D9B027A44D9182E1245C005FFBF7","6ffe26cd-4ff7-4445-8749-978cc739356f","051c06f1-75cc-4548-856d-4923ddaba0dc","{""num_scrambled_semantic"":""8"",""num_scrambled_causal"":""4"",""num_scrambled_schematic"":""4"",""participantId"":""B337D9B027A44D9182E1245C005FFBF7"",""assignmentId"":""6ffe26cd-4ff7-4445-8749-978cc739356f"",""projectId"":""051c06f1-75cc-4548-856d-4923ddaba0dc""}","https://test12345.live/?num_scrambled_semantic=8&num_scrambled_causal=4&num_scrambled_schematic=4&participantId=B337D9B027A44D9182E1245C005FFBF7&assignmentId=6ffe26cd-4ff7-4445-8749-978cc739356f&projectId=051c06f1-75cc-4548-856d-4923ddaba0dc","B337D9B027A44D9182E1245C005FFBF7-2025-05-15-19-23-36","[{""page_index"":0,""viewing_time"":3135},{""page_index"":1,""viewing_time"":4216}]","7351","","","","",""
"","","","","","image-button-response","8","587997","0.0-6.0-0.0","B337D9B027A44D9182E1245C005FFBF7","B337D9B027A44D9182E1245C005FFBF7","6ffe26cd-4ff7-4445-8749-978cc739356f","051c06f1-75cc-4548-856d-4923ddaba0dc","{""num_scrambled_semantic"":""8"",""num_scrambled_causal"":""4"",""num_scrambled_schematic"":""4"",""participantId"":""B337D9B027A44D9182E1245C005FFBF7"",""assignmentId"":""6ffe26cd-4ff7-4445-8749-978cc739356f"",""projectId"":""051c06f1-75cc-4548-856d-4923ddaba0dc""}","https://test12345.live/?num_scrambled_semantic=8&num_scrambled_causal=4&num_scrambled_schematic=4&participantId=B337D9B027A44D9182E1245C005FFBF7&assignmentId=6ffe26cd-4ff7-4445-8749-978cc739356f&projectId=051c06f1-75cc-4548-856d-4923ddaba0dc","B337D9B027A44D9182E1245C005FFBF7-2025-05-15-19-23-36","","null","","images/instructions/movie_0.png","null","",""
"","","","","","image-button-response","9","592499","0.0-6.0-1.0-0.0","B337D9B027A44D9182E1245C005FFBF7","B337D9B027A44D9182E1245C005FFBF7","6ffe26cd-4ff7-4445-8749-978cc739356f","051c06f1-75cc-4548-856d-4923ddaba0dc","{""num_scrambled_semantic"":""8"",""num_scrambled_causal"":""4"",""num_scrambled_schematic"":""4"",""participantId"":""B337D9B027A44D9182E1245C005FFBF7"",""assignmentId"":""6ffe26cd-4ff7-4445-8749-978cc739356f"",""projectId"":""051c06f1-75cc-4548-856d-4923ddaba0dc""}","https://test12345.live/?num_scrambled_semantic=8&num_scrambled_causal=4&num_scrambled_schematic=4&participantId=B337D9B027A44D9182E1245C005FFBF7&assignmentId=6ffe26cd-4ff7-4445-8749-978cc739356f&projectId=051c06f1-75cc-4548-856d-4923ddaba0dc","B337D9B027A44D9182E1245C005FFBF7-2025-05-15-19-23-36","","null","","images/instructions/movie_1.png","null","",""
"","","","","","image-button-response","10","596128","0.0-6.0-1.0-1.0","B337D9B027A44D9182E1245C005FFBF7","B337D9B027A44D9182E1245C005FFBF7","6ffe26cd-4ff7-4445-8749-978cc739356f","051c06f1-75cc-4548-856d-4923ddaba0dc","{""num_scrambled_semantic"":""8"",""num_scrambled_causal"":""4"",""num_scrambled_schematic"":""4"",""participantId"":""B337D9B027A44D9182E1245C005FFBF7"",""assignmentId"":""6ffe26cd-4ff7-4445-8749-978cc739356f"",""projectId"":""051c06f1-75cc-4548-856d-4923ddaba0dc""}","https://test12345.live/?num_scrambled_semantic=8&num_scrambled_causal=4&num_scrambled_schematic=4&participantId=B337D9B027A44D9182E1245C005FFBF7&assignmentId=6ffe26cd-4ff7-4445-8749-978cc739356f&projectId=051c06f1-75cc-4548-856d-4923ddaba0dc","B337D9B027A44D9182E1245C005FFBF7-2025-05-15-19-23-36","","3626","","images/instructions/movie_1.png","0","",""
"","","","","","image-button-response","11","597930","0.0-6.0-1.0-2.0","B337D9B027A44D9182E1245C005FFBF7","B337D9B027A44D9182E1245C005FFBF7","6ffe26cd-4ff7-4445-8749-978cc739356f","051c06f1-75cc-4548-856d-4923ddaba0dc","{""num_scrambled_semantic"":""8"",""num_scrambled_causal"":""4"",""num_scrambled_schematic"":""4"",""participantId"":""B337D9B027A44D9182E1245C005FFBF7"",""assignmentId"":""6ffe26cd-4ff7-4445-8749-978cc739356f"",""projectId"":""051c06f1-75cc-4548-856d-4923ddaba0dc""}","https://test12345.live/?num_scrambled_semantic=8&num_scrambled_causal=4&num_scrambled_schematic=4&participantId=B337D9B027A44D9182E1245C005FFBF7&assignmentId=6ffe26cd-4ff7-4445-8749-978cc739356f&projectId=051c06f1-75cc-4548-856d-4923ddaba0dc","B337D9B027A44D9182E1245C005FFBF7-2025-05-15-19-23-36","","null","","[]","null","",""
"","","","","","image-button-response","12","602432","0.0-6.0-1.0-0.1","B337D9B027A44D9182E1245C005FFBF7","B337D9B027A44D9182E1245C005FFBF7","6ffe26cd-4ff7-4445-8749-978cc739356f","051c06f1-75cc-4548-856d-4923ddaba0dc","{""num_scrambled_semantic"":""8"",""num_scrambled_causal"":""4"",""num_scrambled_schematic"":""4"",""participantId"":""B337D9B027A44D9182E1245C005FFBF7"",""assignmentId"":""6ffe26cd-4ff7-4445-8749-978cc739356f"",""projectId"":""051c06f1-75cc-4548-856d-4923ddaba0dc""}","https://test12345.live/?num_scrambled_semantic=8&num_scrambled_causal=4&num_scrambled_schematic=4&participantId=B337D9B027A44D9182E1245C005FFBF7&assignmentId=6ffe26cd-4ff7-4445-8749-978cc739356f&projectId=051c06f1-75cc-4548-856d-4923ddaba0dc","B337D9B027A44D9182E1245C005FFBF7-2025-05-15-19-23-36","","null","","images/instructions/movie_2.png","null","",""
"","","","","","image-button-response","13","603288","0.0-6.0-1.0-1.1","B337D9B027A44D9182E1245C005FFBF7","B337D9B027A44D9182E1245C005FFBF7","6ffe26cd-4ff7-4445-8749-978cc739356f","051c06f1-75cc-4548-856d-4923ddaba0dc","{""num_scrambled_semantic"":""8"",""num_scrambled_causal"":""4"",""num_scrambled_schematic"":""4"",""participantId"":""B337D9B027A44D9182E1245C005FFBF7"",""assignmentId"":""6ffe26cd-4ff7-4445-8749-978cc739356f"",""projectId"":""051c06f1-75cc-4548-856d-4923ddaba0dc""}","https://test12345.live/?num_scrambled_semantic=8&num_scrambled_causal=4&num_scrambled_schematic=4&participantId=B337D9B027A44D9182E1245C005FFBF7&assignmentId=6ffe26cd-4ff7-4445-8749-978cc739356f&projectId=051c06f1-75cc-4548-856d-4923ddaba0dc","B337D9B027A44D9182E1245C005FFBF7-2025-05-15-19-23-36","","854","","images/instructions/movie_2.png","1","",""
"","","","","","image-button-response","14","605090","0.0-6.0-1.0-2.1","B337D9B027A44D9182E1245C005FFBF7","B337D9B027A44D9182E1245C005FFBF7","6ffe26cd-4ff7-4445-8749-978cc739356f","051c06f1-75cc-4548-856d-4923ddaba0dc","{""num_scrambled_semantic"":""8"",""num_scrambled_causal"":""4"",""num_scrambled_schematic"":""4"",""participantId"":""B337D9B027A44D9182E1245C005FFBF7"",""assignmentId"":""6ffe26cd-4ff7-4445-8749-978cc739356f"",""projectId"":""051c06f1-75cc-4548-856d-4923ddaba0dc""}","https://test12345.live/?num_scrambled_semantic=8&num_scrambled_causal=4&num_scrambled_schematic=4&participantId=B337D9B027A44D9182E1245C005FFBF7&assignmentId=6ffe26cd-4ff7-4445-8749-978cc739356f&projectId=051c06f1-75cc-4548-856d-4923ddaba0dc","B337D9B027A44D9182E1245C005FFBF7-2025-05-15-19-23-36","","null","","[]","null","",""
"","","","","","image-button-response","15","609592","0.0-6.0-1.0-0.2","B337D9B027A44D9182E1245C005FFBF7","B337D9B027A44D9182E1245C005FFBF7","6ffe26cd-4ff7-4445-8749-978cc739356f","051c06f1-75cc-4548-856d-4923ddaba0dc","{""num_scrambled_semantic"":""8"",""num_scrambled_causal"":""4"",""num_scrambled_schematic"":""4"",""participantId"":""B337D9B027A44D9182E1245C005FFBF7"",""assignmentId"":""6ffe26cd-4ff7-4445-8749-978cc739356f"",""projectId"":""051c06f1-75cc-4548-856d-4923ddaba0dc""}","https://test12345.live/?num_scrambled_semantic=8&num_scrambled_causal=4&num_scrambled_schematic=4&participantId=B337D9B027A44D9182E1245C005FFBF7&assignmentId=6ffe26cd-4ff7-4445-8749-978cc739356f&projectId=051c06f1-75cc-4548-856d-4923ddaba0dc","B337D9B027A44D9182E1245C005FFBF7-2025-05-15-19-23-36","","null","","images/instructions/movie_3.png","null","",""
"","","","","","image-button-response","16","610505","0.0-6.0-1.0-1.2","B337D9B027A44D9182E1245C005FFBF7","B337D9B027A44D9182E1245C005FFBF7","6ffe26cd-4ff7-4445-8749-978cc739356f","051c06f1-75cc-4548-856d-4923ddaba0dc","{""num_scrambled_semantic"":""8"",""num_scrambled_causal"":""4"",""num_scrambled_schematic"":""4"",""participantId"":""B337D9B027A44D9182E1245C005FFBF7"",""assignmentId"":""6ffe26cd-4ff7-4445-8749-978cc739356f"",""projectId"":""051c06f1-75cc-4548-856d-4923ddaba0dc""}","https://test12345.live/?num_scrambled_semantic=8&num_scrambled_causal=4&num_scrambled_schematic=4&participantId=B337D9B027A44D9182E1245C005FFBF7&assignmentId=6ffe26cd-4ff7-4445-8749-978cc739356f&projectId=051c06f1-75cc-4548-856d-4923ddaba0dc","B337D9B027A44D9182E1245C005FFBF7-2025-05-15-19-23-36","","910","","images/instructions/movie_3.png","0","",""
"","","","","","image-button-response","17","612307","0.0-6.0-1.0-2.2","B337D9B027A44D9182E1245C005FFBF7","B337D9B027A44D9182E1245C005FFBF7","6ffe26cd-4ff7-4445-8749-978cc739356f","051c06f1-75cc-4548-856d-4923ddaba0dc","{""num_scrambled_semantic"":""8"",""num_scrambled_causal"":""4"",""num_scrambled_schematic"":""4"",""participantId"":""B337D9B027A44D9182E1245C005FFBF7"",""assignmentId"":""6ffe26cd-4ff7-4445-8749-978cc739356f"",""projectId"":""051c06f1-75cc-4548-856d-4923ddaba0dc""}","https://test12345.live/?num_scrambled_semantic=8&num_scrambled_causal=4&num_scrambled_schematic=4&participantId=B337D9B027A44D9182E1245C005FFBF7&assignmentId=6ffe26cd-4ff7-4445-8749-978cc739356f&projectId=051c06f1-75cc-4548-856d-4923ddaba0dc","B337D9B027A44D9182E1245C005FFBF7-2025-05-15-19-23-36","","null","","[]","null","",""
"","","","","","image-button-response","18","616809","0.0-6.0-1.0-0.3","B337D9B027A44D9182E1245C005FFBF7","B337D9B027A44D9182E1245C005FFBF7","6ffe26cd-4ff7-4445-8749-978cc739356f","051c06f1-75cc-4548-856d-4923ddaba0dc","{""num_scrambled_semantic"":""8"",""num_scrambled_causal"":""4"",""num_scrambled_schematic"":""4"",""participantId"":""B337D9B027A44D9182E1245C005FFBF7"",""assignmentId"":""6ffe26cd-4ff7-4445-8749-978cc739356f"",""projectId"":""051c06f1-75cc-4548-856d-4923ddaba0dc""}","https://test12345.live/?num_scrambled_semantic=8&num_scrambled_causal=4&num_scrambled_schematic=4&participantId=B337D9B027A44D9182E1245C005FFBF7&assignmentId=6ffe26cd-4ff7-4445-8749-978cc739356f&projectId=051c06f1-75cc-4548-856d-4923ddaba0dc","B337D9B027A44D9182E1245C005FFBF7-2025-05-15-19-23-36","","null","","images/instructions/movie_4.png","null","",""
"","","","","","image-button-response","19","617888","0.0-6.0-1.0-1.3","B337D9B027A44D9182E1245C005FFBF7","B337D9B027A44D9182E1245C005FFBF7","6ffe26cd-4ff7-4445-8749-978cc739356f","051c06f1-75cc-4548-856d-4923ddaba0dc","{""num_scrambled_semantic"":""8"",""num_scrambled_causal"":""4"",""num_scrambled_schematic"":""4"",""participantId"":""B337D9B027A44D9182E1245C005FFBF7"",""assignmentId"":""6ffe26cd-4ff7-4445-8749-978cc739356f"",""projectId"":""051c06f1-75cc-4548-856d-4923ddaba0dc""}","https://test12345.live/?num_scrambled_semantic=8&num_scrambled_causal=4&num_scrambled_schematic=4&participantId=B337D9B027A44D9182E1245C005FFBF7&assignmentId=6ffe26cd-4ff7-4445-8749-978cc739356f&projectId=051c06f1-75cc-4548-856d-4923ddaba0dc","B337D9B027A44D9182E1245C005FFBF7-2025-05-15-19-23-36","","1077","","images/instructions/movie_4.png","0","",""
"","","","","","image-button-response","20","619690","0.0-6.0-1.0-2.3","B337D9B027A44D9182E1245C005FFBF7","B337D9B027A44D9182E1245C005FFBF7","6ffe26cd-4ff7-4445-8749-978cc739356f","051c06f1-75cc-4548-856d-4923ddaba0dc","{""num_scrambled_semantic"":""8"",""num_scrambled_causal"":""4"",""num_scrambled_schematic"":""4"",""participantId"":""B337D9B027A44D9182E1245C005FFBF7"",""assignmentId"":""6ffe26cd-4ff7-4445-8749-978cc739356f"",""projectId"":""051c06f1-75cc-4548-856d-4923ddaba0dc""}","https://test12345.live/?num_scrambled_semantic=8&num_scrambled_causal=4&num_scrambled_schematic=4&participantId=B337D9B027A44D9182E1245C005FFBF7&assignmentId=6ffe26cd-4ff7-4445-8749-978cc739356f&projectId=051c06f1-75cc-4548-856d-4923ddaba0dc","B337D9B027A44D9182E1245C005FFBF7-2025-05-15-19-23-36","","null","","[]","null","",""
"","","","","","instructions","21","628040","0.0-7.0","B337D9B027A44D9182E1245C005FFBF7","B337D9B027A44D9182E1245C005FFBF7","6ffe26cd-4ff7-4445-8749-978cc739356f","051c06f1-75cc-4548-856d-4923ddaba0dc","{""num_scrambled_semantic"":""8"",""num_scrambled_causal"":""4"",""num_scrambled_schematic"":""4"",""participantId"":""B337D9B027A44D9182E1245C005FFBF7"",""assignmentId"":""6ffe26cd-4ff7-4445-8749-978cc739356f"",""projectId"":""051c06f1-75cc-4548-856d-4923ddaba0dc""}","https://test12345.live/?num_scrambled_semantic=8&num_scrambled_causal=4&num_scrambled_schematic=4&participantId=B337D9B027A44D9182E1245C005FFBF7&assignmentId=6ffe26cd-4ff7-4445-8749-978cc739356f&projectId=051c06f1-75cc-4548-856d-4923ddaba0dc","B337D9B027A44D9182E1245C005FFBF7-2025-05-15-19-23-36","[{""page_index"":0,""viewing_time"":7317},{""page_index"":1,""viewing_time"":1032}]","8350","","","","",""
"","","","","","html-audio-response","22","673433","0.0-8.0","B337D9B027A44D9182E1245C005FFBF7","B337D9B027A44D9182E1245C005FFBF7","6ffe26cd-4ff7-4445-8749-978cc739356f","051c06f1-75cc-4548-856d-4923ddaba0dc","{""num_scrambled_semantic"":""8"",""num_scrambled_causal"":""4"",""num_scrambled_schematic"":""4"",""participantId"":""B337D9B027A44D9182E1245C005FFBF7"",""assignmentId"":""6ffe26cd-4ff7-4445-8749-978cc739356f"",""projectId"":""051c06f1-75cc-4548-856d-4923ddaba0dc""}","https://test12345.live/?num_scrambled_semantic=8&num_scrambled_causal=4&num_scrambled_schematic=4&participantId=B337D9B027A44D9182E1245C005FFBF7&assignmentId=6ffe26cd-4ff7-4445-8749-978cc739356f&projectId=051c06f1-75cc-4548-856d-4923ddaba0dc","B337D9B027A44D9182E1245C005FFBF7-2025-05-15-19-23-36","","13649","","[""<span style=\""color: red; font-size: 24px\""> NOW RECORDING</span><p>Please say out loud all the images you saw, as many as you can remember. The images can be said in any order.</p>""]","","11",""
"","","","","","instructions","23","675992","0.0-9.0","B337D9B027A44D9182E1245C005FFBF7","B337D9B027A44D9182E1245C005FFBF7","6ffe26cd-4ff7-4445-8749-978cc739356f","051c06f1-75cc-4548-856d-4923ddaba0dc","{""num_scrambled_semantic"":""8"",""num_scrambled_causal"":""4"",""num_scrambled_schematic"":""4"",""participantId"":""B337D9B027A44D9182E1245C005FFBF7"",""assignmentId"":""6ffe26cd-4ff7-4445-8749-978cc739356f"",""projectId"":""051c06f1-75cc-4548-856d-4923ddaba0dc""}","https://test12345.live/?num_scrambled_semantic=8&num_scrambled_causal=4&num_scrambled_schematic=4&participantId=B337D9B027A44D9182E1245C005FFBF7&assignmentId=6ffe26cd-4ff7-4445-8749-978cc739356f&projectId=051c06f1-75cc-4548-856d-4923ddaba0dc","B337D9B027A44D9182E1245C005FFBF7-2025-05-15-19-23-36","[{""page_index"":0,""viewing_time"":2551}]","2551","","","","",""
"","","","","","image-button-response","24","681994","0.0-10.0-0.0","B337D9B027A44D9182E1245C005FFBF7","B337D9B027A44D9182E1245C005FFBF7","6ffe26cd-4ff7-4445-8749-978cc739356f","051c06f1-75cc-4548-856d-4923ddaba0dc","{""num_scrambled_semantic"":""8"",""num_scrambled_causal"":""4"",""num_scrambled_schematic"":""4"",""participantId"":""B337D9B027A44D9182E1245C005FFBF7"",""assignmentId"":""6ffe26cd-4ff7-4445-8749-978cc739356f"",""projectId"":""051c06f1-75cc-4548-856d-4923ddaba0dc""}","https://test12345.live/?num_scrambled_semantic=8&num_scrambled_causal=4&num_scrambled_schematic=4&participantId=B337D9B027A44D9182E1245C005FFBF7&assignmentId=6ffe26cd-4ff7-4445-8749-978cc739356f&projectId=051c06f1-75cc-4548-856d-4923ddaba0dc","B337D9B027A44D9182E1245C005FFBF7-2025-05-15-19-23-36","","null","","images/semantic_sequence/using_technology_semantic/using_technology_semantic_0.png","null","",""
"","","","","","image-button-response","25","686497","0.0-10.0-1.0-0.0","B337D9B027A44D9182E1245C005FFBF7","B337D9B027A44D9182E1245C005FFBF7","6ffe26cd-4ff7-4445-8749-978cc739356f","051c06f1-75cc-4548-856d-4923ddaba0dc","{""num_scrambled_semantic"":""8"",""num_scrambled_causal"":""4"",""num_scrambled_schematic"":""4"",""participantId"":""B337D9B027A44D9182E1245C005FFBF7"",""assignmentId"":""6ffe26cd-4ff7-4445-8749-978cc739356f"",""projectId"":""051c06f1-75cc-4548-856d-4923ddaba0dc""}","https://test12345.live/?num_scrambled_semantic=8&num_scrambled_causal=4&num_scrambled_schematic=4&participantId=B337D9B027A44D9182E1245C005FFBF7&assignmentId=6ffe26cd-4ff7-4445-8749-978cc739356f&projectId=051c06f1-75cc-4548-856d-4923ddaba0dc","B337D9B027A44D9182E1245C005FFBF7-2025-05-15-19-23-36","","null","","images/semantic_sequence/using_technology_semantic/using_technology_semantic_ten.png","null","",""
"","","","","","image-button-response","26","687945","0.0-10.0-1.0-1.0","B337D9B027A44D9182E1245C005FFBF7","B337D9B027A44D9182E1245C005FFBF7","6ffe26cd-4ff7-4445-8749-978cc739356f","051c06f1-75cc-4548-856d-4923ddaba0dc","{""num_scrambled_semantic"":""8"",""num_scrambled_causal"":""4"",""num_scrambled_schematic"":""4"",""participantId"":""B337D9B027A44D9182E1245C005FFBF7"",""assignmentId"":""6ffe26cd-4ff7-4445-8749-978cc739356f"",""projectId"":""051c06f1-75cc-4548-856d-4923ddaba0dc""}","https://test12345.live/?num_scrambled_semantic=8&num_scrambled_causal=4&num_scrambled_schematic=4&participantId=B337D9B027A44D9182E1245C005FFBF7&assignmentId=6ffe26cd-4ff7-4445-8749-978cc739356f&projectId=051c06f1-75cc-4548-856d-4923ddaba0dc","B337D9B027A44D9182E1245C005FFBF7-2025-05-15-19-23-36","","1445","","images/semantic_sequence/using_technology_semantic/using_technology_semantic_ten.png","0","",""
"","","","","","image-button-response","27","689747","0.0-10.0-1.0-2.0","B337D9B027A44D9182E1245C005FFBF7","B337D9B027A44D9182E1245C005FFBF7","6ffe26cd-4ff7-4445-8749-978cc739356f","051c06f1-75cc-4548-856d-4923ddaba0dc","{""num_scrambled_semantic"":""8"",""num_scrambled_causal"":""4"",""num_scrambled_schematic"":""4"",""participantId"":""B337D9B027A44D9182E1245C005FFBF7"",""assignmentId"":""6ffe26cd-4ff7-4445-8749-978cc739356f"",""projectId"":""051c06f1-75cc-4548-856d-4923ddaba0dc""}","https://test12345.live/?num_scrambled_semantic=8&num_scrambled_causal=4&num_scrambled_schematic=4&participantId=B337D9B027A44D9182E1245C005FFBF7&assignmentId=6ffe26cd-4ff7-4445-8749-978cc739356f&projectId=051c06f1-75cc-4548-856d-4923ddaba0dc","B337D9B027A44D9182E1245C005FFBF7-2025-05-15-19-23-36","","null","","[]","null","",""
"","","","","","image-button-response","28","694249","0.0-10.0-1.0-0.1","B337D9B027A44D9182E1245C005FFBF7","B337D9B027A44D9182E1245C005FFBF7","6ffe26cd-4ff7-4445-8749-978cc739356f","051c06f1-75cc-4548-856d-4923ddaba0dc","{""num_scrambled_semantic"":""8"",""num_scrambled_causal"":""4"",""num_scrambled_schematic"":""4"",""participantId"":""B337D9B027A44D9182E1245C005FFBF7"",""assignmentId"":""6ffe26cd-4ff7-4445-8749-978cc739356f"",""projectId"":""051c06f1-75cc-4548-856d-4923ddaba0dc""}","https://test12345.live/?num_scrambled_semantic=8&num_scrambled_causal=4&num_scrambled_schematic=4&participantId=B337D9B027A44D9182E1245C005FFBF7&assignmentId=6ffe26cd-4ff7-4445-8749-978cc739356f&projectId=051c06f1-75cc-4548-856d-4923ddaba0dc","B337D9B027A44D9182E1245C005FFBF7-2025-05-15-19-23-36","","null","","images/semantic_sequence/using_technology_semantic/using_technology_semantic_8.png","null","",""
"","","","","","image-button-response","29","695368","0.0-10.0-1.0-1.1","B337D9B027A44D9182E1245C005FFBF7","B337D9B027A44D9182E1245C005FFBF7","6ffe26cd-4ff7-4445-8749-978cc739356f","051c06f1-75cc-4548-856d-4923ddaba0dc","{""num_scrambled_semantic"":""8"",""num_scrambled_causal"":""4"",""num_scrambled_schematic"":""4"",""participantId"":""B337D9B027A44D9182E1245C005FFBF7"",""assignmentId"":""6ffe26cd-4ff7-4445-8749-978cc739356f"",""projectId"":""051c06f1-75cc-4548-856d-4923ddaba0dc""}","https://test12345.live/?num_scrambled_semantic=8&num_scrambled_causal=4&num_scrambled_schematic=4&participantId=B337D9B027A44D9182E1245C005FFBF7&assignmentId=6ffe26cd-4ff7-4445-8749-978cc739356f&projectId=051c06f1-75cc-4548-856d-4923ddaba0dc","B337D9B027A44D9182E1245C005FFBF7-2025-05-15-19-23-36","","1118","","images/semantic_sequence/using_technology_semantic/using_technology_semantic_8.png","0","",""
"","","","","","image-button-response","30","697170","0.0-10.0-1.0-2.1","B337D9B027A44D9182E1245C005FFBF7","B337D9B027A44D9182E1245C005FFBF7","6ffe26cd-4ff7-4445-8749-978cc739356f","051c06f1-75cc-4548-856d-4923ddaba0dc","{""num_scrambled_semantic"":""8"",""num_scrambled_causal"":""4"",""num_scrambled_schematic"":""4"",""participantId"":""B337D9B027A44D9182E1245C005FFBF7"",""assignmentId"":""6ffe26cd-4ff7-4445-8749-978cc739356f"",""projectId"":""051c06f1-75cc-4548-856d-4923ddaba0dc""}","https://test12345.live/?num_scrambled_semantic=8&num_scrambled_causal=4&num_scrambled_schematic=4&participantId=B337D9B027A44D9182E1245C005FFBF7&assignmentId=6ffe26cd-4ff7-4445-8749-978cc739356f&projectId=051c06f1-75cc-4548-856d-4923ddaba0dc","B337D9B027A44D9182E1245C005FFBF7-2025-05-15-19-23-36","","null","","[]","null","",""
"","","","","","image-button-response","31","701672","0.0-10.0-1.0-0.2","B337D9B027A44D9182E1245C005FFBF7","B337D9B027A44D9182E1245C005FFBF7","6ffe26cd-4ff7-4445-8749-978cc739356f","051c06f1-75cc-4548-856d-4923ddaba0dc","{""num_scrambled_semantic"":""8"",""num_scrambled_causal"":""4"",""num_scrambled_schematic"":""4"",""participantId"":""B337D9B027A44D9182E1245C005FFBF7"",""assignmentId"":""6ffe26cd-4ff7-4445-8749-978cc739356f"",""projectId"":""051c06f1-75cc-4548-856d-4923ddaba0dc""}","https://test12345.live/?num_scrambled_semantic=8&num_scrambled_causal=4&num_scrambled_schematic=4&participantId=B337D9B027A44D9182E1245C005FFBF7&assignmentId=6ffe26cd-4ff7-4445-8749-978cc739356f&projectId=051c06f1-75cc-4548-856d-4923ddaba0dc","B337D9B027A44D9182E1245C005FFBF7-2025-05-15-19-23-36","","null","","images/semantic_sequence/using_technology_semantic/using_technology_semantic_9.png","null","",""
"","","","","","image-button-response","32","702488","0.0-10.0-1.0-1.2","B337D9B027A44D9182E1245C005FFBF7","B337D9B027A44D9182E1245C005FFBF7","6ffe26cd-4ff7-4445-8749-978cc739356f","051c06f1-75cc-4548-856d-4923ddaba0dc","{""num_scrambled_semantic"":""8"",""num_scrambled_causal"":""4"",""num_scrambled_schematic"":""4"",""participantId"":""B337D9B027A44D9182E1245C005FFBF7"",""assignmentId"":""6ffe26cd-4ff7-4445-8749-978cc739356f"",""projectId"":""051c06f1-75cc-4548-856d-4923ddaba0dc""}","https://test12345.live/?num_scrambled_semantic=8&num_scrambled_causal=4&num_scrambled_schematic=4&participantId=B337D9B027A44D9182E1245C005FFBF7&assignmentId=6ffe26cd-4ff7-4445-8749-978cc739356f&projectId=051c06f1-75cc-4548-856d-4923ddaba0dc","B337D9B027A44D9182E1245C005FFBF7-2025-05-15-19-23-36","","814","","images/semantic_sequence/using_technology_semantic/using_technology_semantic_9.png","0","",""
"","","","","","image-button-response","33","704290","0.0-10.0-1.0-2.2","B337D9B027A44D9182E1245C005FFBF7","B337D9B027A44D9182E1245C005FFBF7","6ffe26cd-4ff7-4445-8749-978cc739356f","051c06f1-75cc-4548-856d-4923ddaba0dc","{""num_scrambled_semantic"":""8"",""num_scrambled_causal"":""4"",""num_scrambled_schematic"":""4"",""participantId"":""B337D9B027A44D9182E1245C005FFBF7"",""assignmentId"":""6ffe26cd-4ff7-4445-8749-978cc739356f"",""projectId"":""051c06f1-75cc-4548-856d-4923ddaba0dc""}","https://test12345.live/?num_scrambled_semantic=8&num_scrambled_causal=4&num_scrambled_schematic=4&participantId=B337D9B027A44D9182E1245C005FFBF7&assignmentId=6ffe26cd-4ff7-4445-8749-978cc739356f&projectId=051c06f1-75cc-4548-856d-4923ddaba0dc","B337D9B027A44D9182E1245C005FFBF7-2025-05-15-19-23-36","","null","","[]","null","",""
"","","","","","image-button-response","34","708792","0.0-10.0-1.0-0.3","B337D9B027A44D9182E1245C005FFBF7","B337D9B027A44D9182E1245C005FFBF7","6ffe26cd-4ff7-4445-8749-978cc739356f","051c06f1-75cc-4548-856d-4923ddaba0dc","{""num_scrambled_semantic"":""8"",""num_scrambled_causal"":""4"",""num_scrambled_schematic"":""4"",""participantId"":""B337D9B027A44D9182E1245C005FFBF7"",""assignmentId"":""6ffe26cd-4ff7-4445-8749-978cc739356f"",""projectId"":""051c06f1-75cc-4548-856d-4923ddaba0dc""}","https://test12345.live/?num_scrambled_semantic=8&num_scrambled_causal=4&num_scrambled_schematic=4&participantId=B337D9B027A44D9182E1245C005FFBF7&assignmentId=6ffe26cd-4ff7-4445-8749-978cc739356f&projectId=051c06f1-75cc-4548-856d-4923ddaba0dc","B337D9B027A44D9182E1245C005FFBF7-2025-05-15-19-23-36","","null","","images/semantic_sequence/using_technology_semantic/using_technology_semantic_4.png","null","",""
"","","","","","image-button-response","35","710001","0.0-10.0-1.0-1.3","B337D9B027A44D9182E1245C005FFBF7","B337D9B027A44D9182E1245C005FFBF7","6ffe26cd-4ff7-4445-8749-978cc739356f","051c06f1-75cc-4548-856d-4923ddaba0dc","{""num_scrambled_semantic"":""8"",""num_scrambled_causal"":""4"",""num_scrambled_schematic"":""4"",""participantId"":""B337D9B027A44D9182E1245C005FFBF7"",""assignmentId"":""6ffe26cd-4ff7-4445-8749-978cc739356f"",""projectId"":""051c06f1-75cc-4548-856d-4923ddaba0dc""}","https://test12345.live/?num_scrambled_semantic=8&num_scrambled_causal=4&num_scrambled_schematic=4&participantId=B337D9B027A44D9182E1245C005FFBF7&assignmentId=6ffe26cd-4ff7-4445-8749-978cc739356f&projectId=051c06f1-75cc-4548-856d-4923ddaba0dc","B337D9B027A44D9182E1245C005FFBF7-2025-05-15-19-23-36","","1207","","images/semantic_sequence/using_technology_semantic/using_technology_semantic_4.png","0","",""
"","","","","","image-button-response","36","711802","0.0-10.0-1.0-2.3","B337D9B027A44D9182E1245C005FFBF7","B337D9B027A44D9182E1245C005FFBF7","6ffe26cd-4ff7-4445-8749-978cc739356f","051c06f1-75cc-4548-856d-4923ddaba0dc","{""num_scrambled_semantic"":""8"",""num_scrambled_causal"":""4"",""num_scrambled_schematic"":""4"",""participantId"":""B337D9B027A44D9182E1245C005FFBF7"",""assignmentId"":""6ffe26cd-4ff7-4445-8749-978cc739356f"",""projectId"":""051c06f1-75cc-4548-856d-4923ddaba0dc""}","https://test12345.live/?num_scrambled_semantic=8&num_scrambled_causal=4&num_scrambled_schematic=4&participantId=B337D9B027A44D9182E1245C005FFBF7&assignmentId=6ffe26cd-4ff7-4445-8749-978cc739356f&projectId=051c06f1-75cc-4548-856d-4923ddaba0dc","B337D9B027A44D9182E1245C005FFBF7-2025-05-15-19-23-36","","null","","[]","null","",""
"","","","","","image-button-response","37","716304","0.0-10.0-1.0-0.4","B337D9B027A44D9182E1245C005FFBF7","B337D9B027A44D9182E1245C005FFBF7","6ffe26cd-4ff7-4445-8749-978cc739356f","051c06f1-75cc-4548-856d-4923ddaba0dc","{""num_scrambled_semantic"":""8"",""num_scrambled_causal"":""4"",""num_scrambled_schematic"":""4"",""participantId"":""B337D9B027A44D9182E1245C005FFBF7"",""assignmentId"":""6ffe26cd-4ff7-4445-8749-978cc739356f"",""projectId"":""051c06f1-75cc-4548-856d-4923ddaba0dc""}","https://test12345.live/?num_scrambled_semantic=8&num_scrambled_causal=4&num_scrambled_schematic=4&participantId=B337D9B027A44D9182E1245C005FFBF7&assignmentId=6ffe26cd-4ff7-4445-8749-978cc739356f&projectId=051c06f1-75cc-4548-856d-4923ddaba0dc","B337D9B027A44D9182E1245C005FFBF7-2025-05-15-19-23-36","","null","","images/semantic_sequence/using_technology_semantic/using_technology_semantic_2.png","null","",""
"","","","","","image-button-response","38","717944","0.0-10.0-1.0-1.4","B337D9B027A44D9182E1245C005FFBF7","B337D9B027A44D9182E1245C005FFBF7","6ffe26cd-4ff7-4445-8749-978cc739356f","051c06f1-75cc-4548-856d-4923ddaba0dc","{""num_scrambled_semantic"":""8"",""num_scrambled_causal"":""4"",""num_scrambled_schematic"":""4"",""participantId"":""B337D9B027A44D9182E1245C005FFBF7"",""assignmentId"":""6ffe26cd-4ff7-4445-8749-978cc739356f"",""projectId"":""051c06f1-75cc-4548-856d-4923ddaba0dc""}","https://test12345.live/?num_scrambled_semantic=8&num_scrambled_causal=4&num_scrambled_schematic=4&participantId=B337D9B027A44D9182E1245C005FFBF7&assignmentId=6ffe26cd-4ff7-4445-8749-978cc739356f&projectId=051c06f1-75cc-4548-856d-4923ddaba0dc","B337D9B027A44D9182E1245C005FFBF7-2025-05-15-19-23-36","","1638","","images/semantic_sequence/using_technology_semantic/using_technology_semantic_2.png","0","",""
"","","","","","image-button-response","39","719746","0.0-10.0-1.0-2.4","B337D9B027A44D9182E1245C005FFBF7","B337D9B027A44D9182E1245C005FFBF7","6ffe26cd-4ff7-4445-8749-978cc739356f","051c06f1-75cc-4548-856d-4923ddaba0dc","{""num_scrambled_semantic"":""8"",""num_scrambled_causal"":""4"",""num_scrambled_schematic"":""4"",""participantId"":""B337D9B027A44D9182E1245C005FFBF7"",""assignmentId"":""6ffe26cd-4ff7-4445-8749-978cc739356f"",""projectId"":""051c06f1-75cc-4548-856d-4923ddaba0dc""}","https://test12345.live/?num_scrambled_semantic=8&num_scrambled_causal=4&num_scrambled_schematic=4&participantId=B337D9B027A44D9182E1245C005FFBF7&assignmentId=6ffe26cd-4ff7-4445-8749-978cc739356f&projectId=051c06f1-75cc-4548-856d-4923ddaba0dc","B337D9B027A44D9182E1245C005FFBF7-2025-05-15-19-23-36","","null","","[]","null","",""
"","","","","","image-button-response","40","724248","0.0-10.0-1.0-0.5","B337D9B027A44D9182E1245C005FFBF7","B337D9B027A44D9182E1245C005FFBF7","6ffe26cd-4ff7-4445-8749-978cc739356f","051c06f1-75cc-4548-856d-4923ddaba0dc","{""num_scrambled_semantic"":""8"",""num_scrambled_causal"":""4"",""num_scrambled_schematic"":""4"",""participantId"":""B337D9B027A44D9182E1245C005FFBF7"",""assignmentId"":""6ffe26cd-4ff7-4445-8749-978cc739356f"",""projectId"":""051c06f1-75cc-4548-856d-4923ddaba0dc""}","https://test12345.live/?num_scrambled_semantic=8&num_scrambled_causal=4&num_scrambled_schematic=4&participantId=B337D9B027A44D9182E1245C005FFBF7&assignmentId=6ffe26cd-4ff7-4445-8749-978cc739356f&projectId=051c06f1-75cc-4548-856d-4923ddaba0dc","B337D9B027A44D9182E1245C005FFBF7-2025-05-15-19-23-36","","null","","images/semantic_sequence/using_technology_semantic/using_technology_semantic_6.png","null","",""
"","","","","","image-button-response","41","725192","0.0-10.0-1.0-1.5","B337D9B027A44D9182E1245C005FFBF7","B337D9B027A44D9182E1245C005FFBF7","6ffe26cd-4ff7-4445-8749-978cc739356f","051c06f1-75cc-4548-856d-4923ddaba0dc","{""num_scrambled_semantic"":""8"",""num_scrambled_causal"":""4"",""num_scrambled_schematic"":""4"",""participantId"":""B337D9B027A44D9182E1245C005FFBF7"",""assignmentId"":""6ffe26cd-4ff7-4445-8749-978cc739356f"",""projectId"":""051c06f1-75cc-4548-856d-4923ddaba0dc""}","https://test12345.live/?num_scrambled_semantic=8&num_scrambled_causal=4&num_scrambled_schematic=4&participantId=B337D9B027A44D9182E1245C005FFBF7&assignmentId=6ffe26cd-4ff7-4445-8749-978cc739356f&projectId=051c06f1-75cc-4548-856d-4923ddaba0dc","B337D9B027A44D9182E1245C005FFBF7-2025-05-15-19-23-36","","943","","images/semantic_sequence/using_technology_semantic/using_technology_semantic_6.png","0","",""
"","","","","","image-button-response","42","726994","0.0-10.0-1.0-2.5","B337D9B027A44D9182E1245C005FFBF7","B337D9B027A44D9182E1245C005FFBF7","6ffe26cd-4ff7-4445-8749-978cc739356f","051c06f1-75cc-4548-856d-4923ddaba0dc","{""num_scrambled_semantic"":""8"",""num_scrambled_causal"":""4"",""num_scrambled_schematic"":""4"",""participantId"":""B337D9B027A44D9182E1245C005FFBF7"",""assignmentId"":""6ffe26cd-4ff7-4445-8749-978cc739356f"",""projectId"":""051c06f1-75cc-4548-856d-4923ddaba0dc""}","https://test12345.live/?num_scrambled_semantic=8&num_scrambled_causal=4&num_scrambled_schematic=4&participantId=B337D9B027A44D9182E1245C005FFBF7&assignmentId=6ffe26cd-4ff7-4445-8749-978cc739356f&projectId=051c06f1-75cc-4548-856d-4923ddaba0dc","B337D9B027A44D9182E1245C005FFBF7-2025-05-15-19-23-36","","null","","[]","null","",""
"","","","","","image-button-response","43","731496","0.0-10.0-1.0-0.6","B337D9B027A44D9182E1245C005FFBF7","B337D9B027A44D9182E1245C005FFBF7","6ffe26cd-4ff7-4445-8749-978cc739356f","051c06f1-75cc-4548-856d-4923ddaba0dc","{""num_scrambled_semantic"":""8"",""num_scrambled_causal"":""4"",""num_scrambled_schematic"":""4"",""participantId"":""B337D9B027A44D9182E1245C005FFBF7"",""assignmentId"":""6ffe26cd-4ff7-4445-8749-978cc739356f"",""projectId"":""051c06f1-75cc-4548-856d-4923ddaba0dc""}","https://test12345.live/?num_scrambled_semantic=8&num_scrambled_causal=4&num_scrambled_schematic=4&participantId=B337D9B027A44D9182E1245C005FFBF7&assignmentId=6ffe26cd-4ff7-4445-8749-978cc739356f&projectId=051c06f1-75cc-4548-856d-4923ddaba0dc","B337D9B027A44D9182E1245C005FFBF7-2025-05-15-19-23-36","","null","","images/semantic_sequence/using_technology_semantic/using_technology_semantic_5.png","null","",""
"","","","","","image-button-response","44","733200","0.0-10.0-1.0-1.6","B337D9B027A44D9182E1245C005FFBF7","B337D9B027A44D9182E1245C005FFBF7","6ffe26cd-4ff7-4445-8749-978cc739356f","051c06f1-75cc-4548-856d-4923ddaba0dc","{""num_scrambled_semantic"":""8"",""num_scrambled_causal"":""4"",""num_scrambled_schematic"":""4"",""participantId"":""B337D9B027A44D9182E1245C005FFBF7"",""assignmentId"":""6ffe26cd-4ff7-4445-8749-978cc739356f"",""projectId"":""051c06f1-75cc-4548-856d-4923ddaba0dc""}","https://test12345.live/?num_scrambled_semantic=8&num_scrambled_causal=4&num_scrambled_schematic=4&participantId=B337D9B027A44D9182E1245C005FFBF7&assignmentId=6ffe26cd-4ff7-4445-8749-978cc739356f&projectId=051c06f1-75cc-4548-856d-4923ddaba0dc","B337D9B027A44D9182E1245C005FFBF7-2025-05-15-19-23-36","","1702","","images/semantic_sequence/using_technology_semantic/using_technology_semantic_5.png","0","",""
"","","","","","image-button-response","45","735002","0.0-10.0-1.0-2.6","B337D9B027A44D9182E1245C005FFBF7","B337D9B027A44D9182E1245C005FFBF7","6ffe26cd-4ff7-4445-8749-978cc739356f","051c06f1-75cc-4548-856d-4923ddaba0dc","{""num_scrambled_semantic"":""8"",""num_scrambled_causal"":""4"",""num_scrambled_schematic"":""4"",""participantId"":""B337D9B027A44D9182E1245C005FFBF7"",""assignmentId"":""6ffe26cd-4ff7-4445-8749-978cc739356f"",""projectId"":""051c06f1-75cc-4548-856d-4923ddaba0dc""}","https://test12345.live/?num_scrambled_semantic=8&num_scrambled_causal=4&num_scrambled_schematic=4&participantId=B337D9B027A44D9182E1245C005FFBF7&assignmentId=6ffe26cd-4ff7-4445-8749-978cc739356f&projectId=051c06f1-75cc-4548-856d-4923ddaba0dc","B337D9B027A44D9182E1245C005FFBF7-2025-05-15-19-23-36","","null","","[]","null","",""
"","","","","","image-button-response","46","739504","0.0-10.0-1.0-0.7","B337D9B027A44D9182E1245C005FFBF7","B337D9B027A44D9182E1245C005FFBF7","6ffe26cd-4ff7-4445-8749-978cc739356f","051c06f1-75cc-4548-856d-4923ddaba0dc","{""num_scrambled_semantic"":""8"",""num_scrambled_causal"":""4"",""num_scrambled_schematic"":""4"",""participantId"":""B337D9B027A44D9182E1245C005FFBF7"",""assignmentId"":""6ffe26cd-4ff7-4445-8749-978cc739356f"",""projectId"":""051c06f1-75cc-4548-856d-4923ddaba0dc""}","https://test12345.live/?num_scrambled_semantic=8&num_scrambled_causal=4&num_scrambled_schematic=4&participantId=B337D9B027A44D9182E1245C005FFBF7&assignmentId=6ffe26cd-4ff7-4445-8749-978cc739356f&projectId=051c06f1-75cc-4548-856d-4923ddaba0dc","B337D9B027A44D9182E1245C005FFBF7-2025-05-15-19-23-36","","null","","images/semantic_sequence/using_technology_semantic/using_technology_semantic_1.png","null","",""
"","","","","","image-button-response","47","740248","0.0-10.0-1.0-1.7","B337D9B027A44D9182E1245C005FFBF7","B337D9B027A44D9182E1245C005FFBF7","6ffe26cd-4ff7-4445-8749-978cc739356f","051c06f1-75cc-4548-856d-4923ddaba0dc","{""num_scrambled_semantic"":""8"",""num_scrambled_causal"":""4"",""num_scrambled_schematic"":""4"",""participantId"":""B337D9B027A44D9182E1245C005FFBF7"",""assignmentId"":""6ffe26cd-4ff7-4445-8749-978cc739356f"",""projectId"":""051c06f1-75cc-4548-856d-4923ddaba0dc""}","https://test12345.live/?num_scrambled_semantic=8&num_scrambled_causal=4&num_scrambled_schematic=4&participantId=B337D9B027A44D9182E1245C005FFBF7&assignmentId=6ffe26cd-4ff7-4445-8749-978cc739356f&projectId=051c06f1-75cc-4548-856d-4923ddaba0dc","B337D9B027A44D9182E1245C005FFBF7-2025-05-15-19-23-36","","742","","images/semantic_sequence/using_technology_semantic/using_technology_semantic_1.png","0","",""
"","","","","","image-button-response","48","742050","0.0-10.0-1.0-2.7","B337D9B027A44D9182E1245C005FFBF7","B337D9B027A44D9182E1245C005FFBF7","6ffe26cd-4ff7-4445-8749-978cc739356f","051c06f1-75cc-4548-856d-4923ddaba0dc","{""num_scrambled_semantic"":""8"",""num_scrambled_causal"":""4"",""num_scrambled_schematic"":""4"",""participantId"":""B337D9B027A44D9182E1245C005FFBF7"",""assignmentId"":""6ffe26cd-4ff7-4445-8749-978cc739356f"",""projectId"":""051c06f1-75cc-4548-856d-4923ddaba0dc""}","https://test12345.live/?num_scrambled_semantic=8&num_scrambled_causal=4&num_scrambled_schematic=4&participantId=B337D9B027A44D9182E1245C005FFBF7&assignmentId=6ffe26cd-4ff7-4445-8749-978cc739356f&projectId=051c06f1-75cc-4548-856d-4923ddaba0dc","B337D9B027A44D9182E1245C005FFBF7-2025-05-15-19-23-36","","null","","[]","null","",""
"","","","","","image-button-response","49","746552","0.0-10.0-1.0-0.8","B337D9B027A44D9182E1245C005FFBF7","B337D9B027A44D9182E1245C005FFBF7","6ffe26cd-4ff7-4445-8749-978cc739356f","051c06f1-75cc-4548-856d-4923ddaba0dc","{""num_scrambled_semantic"":""8"",""num_scrambled_causal"":""4"",""num_scrambled_schematic"":""4"",""participantId"":""B337D9B027A44D9182E1245C005FFBF7"",""assignmentId"":""6ffe26cd-4ff7-4445-8749-978cc739356f"",""projectId"":""051c06f1-75cc-4548-856d-4923ddaba0dc""}","https://test12345.live/?num_scrambled_semantic=8&num_scrambled_causal=4&num_scrambled_schematic=4&participantId=B337D9B027A44D9182E1245C005FFBF7&assignmentId=6ffe26cd-4ff7-4445-8749-978cc739356f&projectId=051c06f1-75cc-4548-856d-4923ddaba0dc","B337D9B027A44D9182E1245C005FFBF7-2025-05-15-19-23-36","","null","","images/semantic_sequence/using_technology_semantic/using_technology_semantic_7.png","null","",""
"","","","","","image-button-response","50","747688","0.0-10.0-1.0-1.8","B337D9B027A44D9182E1245C005FFBF7","B337D9B027A44D9182E1245C005FFBF7","6ffe26cd-4ff7-4445-8749-978cc739356f","051c06f1-75cc-4548-856d-4923ddaba0dc","{""num_scrambled_semantic"":""8"",""num_scrambled_causal"":""4"",""num_scrambled_schematic"":""4"",""participantId"":""B337D9B027A44D9182E1245C005FFBF7"",""assignmentId"":""6ffe26cd-4ff7-4445-8749-978cc739356f"",""projectId"":""051c06f1-75cc-4548-856d-4923ddaba0dc""}","https://test12345.live/?num_scrambled_semantic=8&num_scrambled_causal=4&num_scrambled_schematic=4&participantId=B337D9B027A44D9182E1245C005FFBF7&assignmentId=6ffe26cd-4ff7-4445-8749-978cc739356f&projectId=051c06f1-75cc-4548-856d-4923ddaba0dc","B337D9B027A44D9182E1245C005FFBF7-2025-05-15-19-23-36","","1134","","images/semantic_sequence/using_technology_semantic/using_technology_semantic_7.png","0","",""
"","","","","","image-button-response","51","749490","0.0-10.0-1.0-2.8","B337D9B027A44D9182E1245C005FFBF7","B337D9B027A44D9182E1245C005FFBF7","6ffe26cd-4ff7-4445-8749-978cc739356f","051c06f1-75cc-4548-856d-4923ddaba0dc","{""num_scrambled_semantic"":""8"",""num_scrambled_causal"":""4"",""num_scrambled_schematic"":""4"",""participantId"":""B337D9B027A44D9182E1245C005FFBF7"",""assignmentId"":""6ffe26cd-4ff7-4445-8749-978cc739356f"",""projectId"":""051c06f1-75cc-4548-856d-4923ddaba0dc""}","https://test12345.live/?num_scrambled_semantic=8&num_scrambled_causal=4&num_scrambled_schematic=4&participantId=B337D9B027A44D9182E1245C005FFBF7&assignmentId=6ffe26cd-4ff7-4445-8749-978cc739356f&projectId=051c06f1-75cc-4548-856d-4923ddaba0dc","B337D9B027A44D9182E1245C005FFBF7-2025-05-15-19-23-36","","null","","[]","null","",""
"","","","","","image-button-response","52","753992","0.0-10.0-1.0-0.9","B337D9B027A44D9182E1245C005FFBF7","B337D9B027A44D9182E1245C005FFBF7","6ffe26cd-4ff7-4445-8749-978cc739356f","051c06f1-75cc-4548-856d-4923ddaba0dc","{""num_scrambled_semantic"":""8"",""num_scrambled_causal"":""4"",""num_scrambled_schematic"":""4"",""participantId"":""B337D9B027A44D9182E1245C005FFBF7"",""assignmentId"":""6ffe26cd-4ff7-4445-8749-978cc739356f"",""projectId"":""051c06f1-75cc-4548-856d-4923ddaba0dc""}","https://test12345.live/?num_scrambled_semantic=8&num_scrambled_causal=4&num_scrambled_schematic=4&participantId=B337D9B027A44D9182E1245C005FFBF7&assignmentId=6ffe26cd-4ff7-4445-8749-978cc739356f&projectId=051c06f1-75cc-4548-856d-4923ddaba0dc","B337D9B027A44D9182E1245C005FFBF7-2025-05-15-19-23-36","","null","","images/semantic_sequence/using_technology_semantic/using_technology_semantic_3.png","null","",""
"","","","","","image-button-response","53","755600","0.0-10.0-1.0-1.9","B337D9B027A44D9182E1245C005FFBF7","B337D9B027A44D9182E1245C005FFBF7","6ffe26cd-4ff7-4445-8749-978cc739356f","051c06f1-75cc-4548-856d-4923ddaba0dc","{""num_scrambled_semantic"":""8"",""num_scrambled_causal"":""4"",""num_scrambled_schematic"":""4"",""participantId"":""B337D9B027A44D9182E1245C005FFBF7"",""assignmentId"":""6ffe26cd-4ff7-4445-8749-978cc739356f"",""projectId"":""051c06f1-75cc-4548-856d-4923ddaba0dc""}","https://test12345.live/?num_scrambled_semantic=8&num_scrambled_causal=4&num_scrambled_schematic=4&participantId=B337D9B027A44D9182E1245C005FFBF7&assignmentId=6ffe26cd-4ff7-4445-8749-978cc739356f&projectId=051c06f1-75cc-4548-856d-4923ddaba0dc","B337D9B027A44D9182E1245C005FFBF7-2025-05-15-19-23-36","","1606","","images/semantic_sequence/using_technology_semantic/using_technology_semantic_3.png","0","",""
"","","","","","image-button-response","54","757402","0.0-10.0-1.0-2.9","B337D9B027A44D9182E1245C005FFBF7","B337D9B027A44D9182E1245C005FFBF7","6ffe26cd-4ff7-4445-8749-978cc739356f","051c06f1-75cc-4548-856d-4923ddaba0dc","{""num_scrambled_semantic"":""8"",""num_scrambled_causal"":""4"",""num_scrambled_schematic"":""4"",""participantId"":""B337D9B027A44D9182E1245C005FFBF7"",""assignmentId"":""6ffe26cd-4ff7-4445-8749-978cc739356f"",""projectId"":""051c06f1-75cc-4548-856d-4923ddaba0dc""}","https://test12345.live/?num_scrambled_semantic=8&num_scrambled_causal=4&num_scrambled_schematic=4&participantId=B337D9B027A44D9182E1245C005FFBF7&assignmentId=6ffe26cd-4ff7-4445-8749-978cc739356f&projectId=051c06f1-75cc-4548-856d-4923ddaba0dc","B337D9B027A44D9182E1245C005FFBF7-2025-05-15-19-23-36","","null","","[]","null","",""
"","","","","","html-audio-response","55","786608","0.0-11.0","B337D9B027A44D9182E1245C005FFBF7","B337D9B027A44D9182E1245C005FFBF7","6ffe26cd-4ff7-4445-8749-978cc739356f","051c06f1-75cc-4548-856d-4923ddaba0dc","{""num_scrambled_semantic"":""8"",""num_scrambled_causal"":""4"",""num_scrambled_schematic"":""4"",""participantId"":""B337D9B027A44D9182E1245C005FFBF7"",""assignmentId"":""6ffe26cd-4ff7-4445-8749-978cc739356f"",""projectId"":""051c06f1-75cc-4548-856d-4923ddaba0dc""}","https://test12345.live/?num_scrambled_semantic=8&num_scrambled_causal=4&num_scrambled_schematic=4&participantId=B337D9B027A44D9182E1245C005FFBF7&assignmentId=6ffe26cd-4ff7-4445-8749-978cc739356f&projectId=051c06f1-75cc-4548-856d-4923ddaba0dc","B337D9B027A44D9182E1245C005FFBF7-2025-05-15-19-23-36","","27915","","[""<span style=\""color: red; font-size: 24px\""> NOW RECORDING</span><p>Please say out loud all the images you saw, as many as you can remember. The images can be said in any order.</p>""]","","3","using_technology_semantic"
"","","","","","image-button-response","56","792620","0.0-12.0-0.0","B337D9B027A44D9182E1245C005FFBF7","B337D9B027A44D9182E1245C005FFBF7","6ffe26cd-4ff7-4445-8749-978cc739356f","051c06f1-75cc-4548-856d-4923ddaba0dc","{""num_scrambled_semantic"":""8"",""num_scrambled_causal"":""4"",""num_scrambled_schematic"":""4"",""participantId"":""B337D9B027A44D9182E1245C005FFBF7"",""assignmentId"":""6ffe26cd-4ff7-4445-8749-978cc739356f"",""projectId"":""051c06f1-75cc-4548-856d-4923ddaba0dc""}","https://test12345.live/?num_scrambled_semantic=8&num_scrambled_causal=4&num_scrambled_schematic=4&participantId=B337D9B027A44D9182E1245C005FFBF7&assignmentId=6ffe26cd-4ff7-4445-8749-978cc739356f&projectId=051c06f1-75cc-4548-856d-4923ddaba0dc","B337D9B027A44D9182E1245C005FFBF7-2025-05-15-19-23-36","","null","","images/semantic_sequence/cat_care_semantic/cat_care_semantic_0.png","null","",""
"","","","","","image-button-response","57","797122","0.0-12.0-1.0-0.0","B337D9B027A44D9182E1245C005FFBF7","B337D9B027A44D9182E1245C005FFBF7","6ffe26cd-4ff7-4445-8749-978cc739356f","051c06f1-75cc-4548-856d-4923ddaba0dc","{""num_scrambled_semantic"":""8"",""num_scrambled_causal"":""4"",""num_scrambled_schematic"":""4"",""participantId"":""B337D9B027A44D9182E1245C005FFBF7"",""assignmentId"":""6ffe26cd-4ff7-4445-8749-978cc739356f"",""projectId"":""051c06f1-75cc-4548-856d-4923ddaba0dc""}","https://test12345.live/?num_scrambled_semantic=8&num_scrambled_causal=4&num_scrambled_schematic=4&participantId=B337D9B027A44D9182E1245C005FFBF7&assignmentId=6ffe26cd-4ff7-4445-8749-978cc739356f&projectId=051c06f1-75cc-4548-856d-4923ddaba0dc","B337D9B027A44D9182E1245C005FFBF7-2025-05-15-19-23-36","","null","","images/semantic_sequence/cat_care_semantic/cat_care_semantic_1.png","null","",""
"","","","","","image-button-response","58","800032","0.0-12.0-1.0-1.0","B337D9B027A44D9182E1245C005FFBF7","B337D9B027A44D9182E1245C005FFBF7","6ffe26cd-4ff7-4445-8749-978cc739356f","051c06f1-75cc-4548-856d-4923ddaba0dc","{""num_scrambled_semantic"":""8"",""num_scrambled_causal"":""4"",""num_scrambled_schematic"":""4"",""participantId"":""B337D9B027A44D9182E1245C005FFBF7"",""assignmentId"":""6ffe26cd-4ff7-4445-8749-978cc739356f"",""projectId"":""051c06f1-75cc-4548-856d-4923ddaba0dc""}","https://test12345.live/?num_scrambled_semantic=8&num_scrambled_causal=4&num_scrambled_schematic=4&participantId=B337D9B027A44D9182E1245C005FFBF7&assignmentId=6ffe26cd-4ff7-4445-8749-978cc739356f&projectId=051c06f1-75cc-4548-856d-4923ddaba0dc","B337D9B027A44D9182E1245C005FFBF7-2025-05-15-19-23-36","","2908","","images/semantic_sequence/cat_care_semantic/cat_care_semantic_1.png","0","",""
"","","","","","image-button-response","59","801834","0.0-12.0-1.0-2.0","B337D9B027A44D9182E1245C005FFBF7","B337D9B027A44D9182E1245C005FFBF7","6ffe26cd-4ff7-4445-8749-978cc739356f","051c06f1-75cc-4548-856d-4923ddaba0dc","{""num_scrambled_semantic"":""8"",""num_scrambled_causal"":""4"",""num_scrambled_schematic"":""4"",""participantId"":""B337D9B027A44D9182E1245C005FFBF7"",""assignmentId"":""6ffe26cd-4ff7-4445-8749-978cc739356f"",""projectId"":""051c06f1-75cc-4548-856d-4923ddaba0dc""}","https://test12345.live/?num_scrambled_semantic=8&num_scrambled_causal=4&num_scrambled_schematic=4&participantId=B337D9B027A44D9182E1245C005FFBF7&assignmentId=6ffe26cd-4ff7-4445-8749-978cc739356f&projectId=051c06f1-75cc-4548-856d-4923ddaba0dc","B337D9B027A44D9182E1245C005FFBF7-2025-05-15-19-23-36","","null","","[]","null","",""
"","","","","","image-button-response","60","806336","0.0-12.0-1.0-0.1","B337D9B027A44D9182E1245C005FFBF7","B337D9B027A44D9182E1245C005FFBF7","6ffe26cd-4ff7-4445-8749-978cc739356f","051c06f1-75cc-4548-856d-4923ddaba0dc","{""num_scrambled_semantic"":""8"",""num_scrambled_causal"":""4"",""num_scrambled_schematic"":""4"",""participantId"":""B337D9B027A44D9182E1245C005FFBF7"",""assignmentId"":""6ffe26cd-4ff7-4445-8749-978cc739356f"",""projectId"":""051c06f1-75cc-4548-856d-4923ddaba0dc""}","https://test12345.live/?num_scrambled_semantic=8&num_scrambled_causal=4&num_scrambled_schematic=4&participantId=B337D9B027A44D9182E1245C005FFBF7&assignmentId=6ffe26cd-4ff7-4445-8749-978cc739356f&projectId=051c06f1-75cc-4548-856d-4923ddaba0dc","B337D9B027A44D9182E1245C005FFBF7-2025-05-15-19-23-36","","null","","images/semantic_sequence/cat_care_semantic/cat_care_semantic_2.png","null","",""
"","","","","","image-button-response","61","808257","0.0-12.0-1.0-1.1","B337D9B027A44D9182E1245C005FFBF7","B337D9B027A44D9182E1245C005FFBF7","6ffe26cd-4ff7-4445-8749-978cc739356f","051c06f1-75cc-4548-856d-4923ddaba0dc","{""num_scrambled_semantic"":""8"",""num_scrambled_causal"":""4"",""num_scrambled_schematic"":""4"",""participantId"":""B337D9B027A44D9182E1245C005FFBF7"",""assignmentId"":""6ffe26cd-4ff7-4445-8749-978cc739356f"",""projectId"":""051c06f1-75cc-4548-856d-4923ddaba0dc""}","https://test12345.live/?num_scrambled_semantic=8&num_scrambled_causal=4&num_scrambled_schematic=4&participantId=B337D9B027A44D9182E1245C005FFBF7&assignmentId=6ffe26cd-4ff7-4445-8749-978cc739356f&projectId=051c06f1-75cc-4548-856d-4923ddaba0dc","B337D9B027A44D9182E1245C005FFBF7-2025-05-15-19-23-36","","1918","","images/semantic_sequence/cat_care_semantic/cat_care_semantic_2.png","0","",""
"","","","","","image-button-response","62","810059","0.0-12.0-1.0-2.1","B337D9B027A44D9182E1245C005FFBF7","B337D9B027A44D9182E1245C005FFBF7","6ffe26cd-4ff7-4445-8749-978cc739356f","051c06f1-75cc-4548-856d-4923ddaba0dc","{""num_scrambled_semantic"":""8"",""num_scrambled_causal"":""4"",""num_scrambled_schematic"":""4"",""participantId"":""B337D9B027A44D9182E1245C005FFBF7"",""assignmentId"":""6ffe26cd-4ff7-4445-8749-978cc739356f"",""projectId"":""051c06f1-75cc-4548-856d-4923ddaba0dc""}","https://test12345.live/?num_scrambled_semantic=8&num_scrambled_causal=4&num_scrambled_schematic=4&participantId=B337D9B027A44D9182E1245C005FFBF7&assignmentId=6ffe26cd-4ff7-4445-8749-978cc739356f&projectId=051c06f1-75cc-4548-856d-4923ddaba0dc","B337D9B027A44D9182E1245C005FFBF7-2025-05-15-19-23-36","","null","","[]","null","",""
"","","","","","image-button-response","63","814560","0.0-12.0-1.0-0.2","B337D9B027A44D9182E1245C005FFBF7","B337D9B027A44D9182E1245C005FFBF7","6ffe26cd-4ff7-4445-8749-978cc739356f","051c06f1-75cc-4548-856d-4923ddaba0dc","{""num_scrambled_semantic"":""8"",""num_scrambled_causal"":""4"",""num_scrambled_schematic"":""4"",""participantId"":""B337D9B027A44D9182E1245C005FFBF7"",""assignmentId"":""6ffe26cd-4ff7-4445-8749-978cc739356f"",""projectId"":""051c06f1-75cc-4548-856d-4923ddaba0dc""}","https://test12345.live/?num_scrambled_semantic=8&num_scrambled_causal=4&num_scrambled_schematic=4&participantId=B337D9B027A44D9182E1245C005FFBF7&assignmentId=6ffe26cd-4ff7-4445-8749-978cc739356f&projectId=051c06f1-75cc-4548-856d-4923ddaba0dc","B337D9B027A44D9182E1245C005FFBF7-2025-05-15-19-23-36","","null","","images/semantic_sequence/cat_care_semantic/cat_care_semantic_3.png","null","",""
"","","","","","image-button-response","64","815673","0.0-12.0-1.0-1.2","B337D9B027A44D9182E1245C005FFBF7","B337D9B027A44D9182E1245C005FFBF7","6ffe26cd-4ff7-4445-8749-978cc739356f","051c06f1-75cc-4548-856d-4923ddaba0dc","{""num_scrambled_semantic"":""8"",""num_scrambled_causal"":""4"",""num_scrambled_schematic"":""4"",""participantId"":""B337D9B027A44D9182E1245C005FFBF7"",""assignmentId"":""6ffe26cd-4ff7-4445-8749-978cc739356f"",""projectId"":""051c06f1-75cc-4548-856d-4923ddaba0dc""}","https://test12345.live/?num_scrambled_semantic=8&num_scrambled_causal=4&num_scrambled_schematic=4&participantId=B337D9B027A44D9182E1245C005FFBF7&assignmentId=6ffe26cd-4ff7-4445-8749-978cc739356f&projectId=051c06f1-75cc-4548-856d-4923ddaba0dc","B337D9B027A44D9182E1245C005FFBF7-2025-05-15-19-23-36","","1110","","images/semantic_sequence/cat_care_semantic/cat_care_semantic_3.png","0","",""
"","","","","","image-button-response","65","817474","0.0-12.0-1.0-2.2","B337D9B027A44D9182E1245C005FFBF7","B337D9B027A44D9182E1245C005FFBF7","6ffe26cd-4ff7-4445-8749-978cc739356f","051c06f1-75cc-4548-856d-4923ddaba0dc","{""num_scrambled_semantic"":""8"",""num_scrambled_causal"":""4"",""num_scrambled_schematic"":""4"",""participantId"":""B337D9B027A44D9182E1245C005FFBF7"",""assignmentId"":""6ffe26cd-4ff7-4445-8749-978cc739356f"",""projectId"":""051c06f1-75cc-4548-856d-4923ddaba0dc""}","https://test12345.live/?num_scrambled_semantic=8&num_scrambled_causal=4&num_scrambled_schematic=4&participantId=B337D9B027A44D9182E1245C005FFBF7&assignmentId=6ffe26cd-4ff7-4445-8749-978cc739356f&projectId=051c06f1-75cc-4548-856d-4923ddaba0dc","B337D9B027A44D9182E1245C005FFBF7-2025-05-15-19-23-36","","null","","[]","null","",""
"","","","","","image-button-response","66","821976","0.0-12.0-1.0-0.3","B337D9B027A44D9182E1245C005FFBF7","B337D9B027A44D9182E1245C005FFBF7","6ffe26cd-4ff7-4445-8749-978cc739356f","051c06f1-75cc-4548-856d-4923ddaba0dc","{""num_scrambled_semantic"":""8"",""num_scrambled_causal"":""4"",""num_scrambled_schematic"":""4"",""participantId"":""B337D9B027A44D9182E1245C005FFBF7"",""assignmentId"":""6ffe26cd-4ff7-4445-8749-978cc739356f"",""projectId"":""051c06f1-75cc-4548-856d-4923ddaba0dc""}","https://test12345.live/?num_scrambled_semantic=8&num_scrambled_causal=4&num_scrambled_schematic=4&participantId=B337D9B027A44D9182E1245C005FFBF7&assignmentId=6ffe26cd-4ff7-4445-8749-978cc739356f&projectId=051c06f1-75cc-4548-856d-4923ddaba0dc","B337D9B027A44D9182E1245C005FFBF7-2025-05-15-19-23-36","","null","","images/semantic_sequence/cat_care_semantic/cat_care_semantic_4.png","null","",""
"","","","","","image-button-response","67","824888","0.0-12.0-1.0-1.3","B337D9B027A44D9182E1245C005FFBF7","B337D9B027A44D9182E1245C005FFBF7","6ffe26cd-4ff7-4445-8749-978cc739356f","051c06f1-75cc-4548-856d-4923ddaba0dc","{""num_scrambled_semantic"":""8"",""num_scrambled_causal"":""4"",""num_scrambled_schematic"":""4"",""participantId"":""B337D9B027A44D9182E1245C005FFBF7"",""assignmentId"":""6ffe26cd-4ff7-4445-8749-978cc739356f"",""projectId"":""051c06f1-75cc-4548-856d-4923ddaba0dc""}","https://test12345.live/?num_scrambled_semantic=8&num_scrambled_causal=4&num_scrambled_schematic=4&participantId=B337D9B027A44D9182E1245C005FFBF7&assignmentId=6ffe26cd-4ff7-4445-8749-978cc739356f&projectId=051c06f1-75cc-4548-856d-4923ddaba0dc","B337D9B027A44D9182E1245C005FFBF7-2025-05-15-19-23-36","","2910","","images/semantic_sequence/cat_care_semantic/cat_care_semantic_4.png","0","",""
"","","","","","image-button-response","68","826690","0.0-12.0-1.0-2.3","B337D9B027A44D9182E1245C005FFBF7","B337D9B027A44D9182E1245C005FFBF7","6ffe26cd-4ff7-4445-8749-978cc739356f","051c06f1-75cc-4548-856d-4923ddaba0dc","{""num_scrambled_semantic"":""8"",""num_scrambled_causal"":""4"",""num_scrambled_schematic"":""4"",""participantId"":""B337D9B027A44D9182E1245C005FFBF7"",""assignmentId"":""6ffe26cd-4ff7-4445-8749-978cc739356f"",""projectId"":""051c06f1-75cc-4548-856d-4923ddaba0dc""}","https://test12345.live/?num_scrambled_semantic=8&num_scrambled_causal=4&num_scrambled_schematic=4&participantId=B337D9B027A44D9182E1245C005FFBF7&assignmentId=6ffe26cd-4ff7-4445-8749-978cc739356f&projectId=051c06f1-75cc-4548-856d-4923ddaba0dc","B337D9B027A44D9182E1245C005FFBF7-2025-05-15-19-23-36","","null","","[]","null","",""
"","","","","","image-button-response","69","831192","0.0-12.0-1.0-0.4","B337D9B027A44D9182E1245C005FFBF7","B337D9B027A44D9182E1245C005FFBF7","6ffe26cd-4ff7-4445-8749-978cc739356f","051c06f1-75cc-4548-856d-4923ddaba0dc","{""num_scrambled_semantic"":""8"",""num_scrambled_causal"":""4"",""num_scrambled_schematic"":""4"",""participantId"":""B337D9B027A44D9182E1245C005FFBF7"",""assignmentId"":""6ffe26cd-4ff7-4445-8749-978cc739356f"",""projectId"":""051c06f1-75cc-4548-856d-4923ddaba0dc""}","https://test12345.live/?num_scrambled_semantic=8&num_scrambled_causal=4&num_scrambled_schematic=4&participantId=B337D9B027A44D9182E1245C005FFBF7&assignmentId=6ffe26cd-4ff7-4445-8749-978cc739356f&projectId=051c06f1-75cc-4548-856d-4923ddaba0dc","B337D9B027A44D9182E1245C005FFBF7-2025-05-15-19-23-36","","null","","images/semantic_sequence/cat_care_semantic/cat_care_semantic_5.png","null","",""
"","","","","","image-button-response","70","833352","0.0-12.0-1.0-1.4","B337D9B027A44D9182E1245C005FFBF7","B337D9B027A44D9182E1245C005FFBF7","6ffe26cd-4ff7-4445-8749-978cc739356f","051c06f1-75cc-4548-856d-4923ddaba0dc","{""num_scrambled_semantic"":""8"",""num_scrambled_causal"":""4"",""num_scrambled_schematic"":""4"",""participantId"":""B337D9B027A44D9182E1245C005FFBF7"",""assignmentId"":""6ffe26cd-4ff7-4445-8749-978cc739356f"",""projectId"":""051c06f1-75cc-4548-856d-4923ddaba0dc""}","https://test12345.live/?num_scrambled_semantic=8&num_scrambled_causal=4&num_scrambled_schematic=4&participantId=B337D9B027A44D9182E1245C005FFBF7&assignmentId=6ffe26cd-4ff7-4445-8749-978cc739356f&projectId=051c06f1-75cc-4548-856d-4923ddaba0dc","B337D9B027A44D9182E1245C005FFBF7-2025-05-15-19-23-36","","2158","","images/semantic_sequence/cat_care_semantic/cat_care_semantic_5.png","0","",""
"","","","","","image-button-response","71","835154","0.0-12.0-1.0-2.4","B337D9B027A44D9182E1245C005FFBF7","B337D9B027A44D9182E1245C005FFBF7","6ffe26cd-4ff7-4445-8749-978cc739356f","051c06f1-75cc-4548-856d-4923ddaba0dc","{""num_scrambled_semantic"":""8"",""num_scrambled_causal"":""4"",""num_scrambled_schematic"":""4"",""participantId"":""B337D9B027A44D9182E1245C005FFBF7"",""assignmentId"":""6ffe26cd-4ff7-4445-8749-978cc739356f"",""projectId"":""051c06f1-75cc-4548-856d-4923ddaba0dc""}","https://test12345.live/?num_scrambled_semantic=8&num_scrambled_causal=4&num_scrambled_schematic=4&participantId=B337D9B027A44D9182E1245C005FFBF7&assignmentId=6ffe26cd-4ff7-4445-8749-978cc739356f&projectId=051c06f1-75cc-4548-856d-4923ddaba0dc","B337D9B027A44D9182E1245C005FFBF7-2025-05-15-19-23-36","","null","","[]","null","",""
"","","","","","image-button-response","72","839656","0.0-12.0-1.0-0.5","B337D9B027A44D9182E1245C005FFBF7","B337D9B027A44D9182E1245C005FFBF7","6ffe26cd-4ff7-4445-8749-978cc739356f","051c06f1-75cc-4548-856d-4923ddaba0dc","{""num_scrambled_semantic"":""8"",""num_scrambled_causal"":""4"",""num_scrambled_schematic"":""4"",""participantId"":""B337D9B027A44D9182E1245C005FFBF7"",""assignmentId"":""6ffe26cd-4ff7-4445-8749-978cc739356f"",""projectId"":""051c06f1-75cc-4548-856d-4923ddaba0dc""}","https://test12345.live/?num_scrambled_semantic=8&num_scrambled_causal=4&num_scrambled_schematic=4&participantId=B337D9B027A44D9182E1245C005FFBF7&assignmentId=6ffe26cd-4ff7-4445-8749-978cc739356f&projectId=051c06f1-75cc-4548-856d-4923ddaba0dc","B337D9B027A44D9182E1245C005FFBF7-2025-05-15-19-23-36","","null","","images/semantic_sequence/cat_care_semantic/cat_care_semantic_6.png","null","",""
"","","","","","image-button-response","73","843658","0.0-12.0-1.0-1.5","B337D9B027A44D9182E1245C005FFBF7","B337D9B027A44D9182E1245C005FFBF7","6ffe26cd-4ff7-4445-8749-978cc739356f","051c06f1-75cc-4548-856d-4923ddaba0dc","{""num_scrambled_semantic"":""8"",""num_scrambled_causal"":""4"",""num_scrambled_schematic"":""4"",""participantId"":""B337D9B027A44D9182E1245C005FFBF7"",""assignmentId"":""6ffe26cd-4ff7-4445-8749-978cc739356f"",""projectId"":""051c06f1-75cc-4548-856d-4923ddaba0dc""}","https://test12345.live/?num_scrambled_semantic=8&num_scrambled_causal=4&num_scrambled_schematic=4&participantId=B337D9B027A44D9182E1245C005FFBF7&assignmentId=6ffe26cd-4ff7-4445-8749-978cc739356f&projectId=051c06f1-75cc-4548-856d-4923ddaba0dc","B337D9B027A44D9182E1245C005FFBF7-2025-05-15-19-23-36","","null","","images/semantic_sequence/cat_care_semantic/cat_care_semantic_6.png","null","",""
"","","","","","image-button-response","74","845460","0.0-12.0-1.0-2.5","B337D9B027A44D9182E1245C005FFBF7","B337D9B027A44D9182E1245C005FFBF7","6ffe26cd-4ff7-4445-8749-978cc739356f","051c06f1-75cc-4548-856d-4923ddaba0dc","{""num_scrambled_semantic"":""8"",""num_scrambled_causal"":""4"",""num_scrambled_schematic"":""4"",""participantId"":""B337D9B027A44D9182E1245C005FFBF7"",""assignmentId"":""6ffe26cd-4ff7-4445-8749-978cc739356f"",""projectId"":""051c06f1-75cc-4548-856d-4923ddaba0dc""}","https://test12345.live/?num_scrambled_semantic=8&num_scrambled_causal=4&num_scrambled_schematic=4&participantId=B337D9B027A44D9182E1245C005FFBF7&assignmentId=6ffe26cd-4ff7-4445-8749-978cc739356f&projectId=051c06f1-75cc-4548-856d-4923ddaba0dc","B337D9B027A44D9182E1245C005FFBF7-2025-05-15-19-23-36","","null","","[]","null","",""
"","","","","","image-button-response","75","849962","0.0-12.0-1.0-0.6","B337D9B027A44D9182E1245C005FFBF7","B337D9B027A44D9182E1245C005FFBF7","6ffe26cd-4ff7-4445-8749-978cc739356f","051c06f1-75cc-4548-856d-4923ddaba0dc","{""num_scrambled_semantic"":""8"",""num_scrambled_causal"":""4"",""num_scrambled_schematic"":""4"",""participantId"":""B337D9B027A44D9182E1245C005FFBF7"",""assignmentId"":""6ffe26cd-4ff7-4445-8749-978cc739356f"",""projectId"":""051c06f1-75cc-4548-856d-4923ddaba0dc""}","https://test12345.live/?num_scrambled_semantic=8&num_scrambled_causal=4&num_scrambled_schematic=4&participantId=B337D9B027A44D9182E1245C005FFBF7&assignmentId=6ffe26cd-4ff7-4445-8749-978cc739356f&projectId=051c06f1-75cc-4548-856d-4923ddaba0dc","B337D9B027A44D9182E1245C005FFBF7-2025-05-15-19-23-36","","null","","images/semantic_sequence/cat_care_semantic/cat_care_semantic_7.png","null","",""
"","","","","","image-button-response","76","852312","0.0-12.0-1.0-1.6","B337D9B027A44D9182E1245C005FFBF7","B337D9B027A44D9182E1245C005FFBF7","6ffe26cd-4ff7-4445-8749-978cc739356f","051c06f1-75cc-4548-856d-4923ddaba0dc","{""num_scrambled_semantic"":""8"",""num_scrambled_causal"":""4"",""num_scrambled_schematic"":""4"",""participantId"":""B337D9B027A44D9182E1245C005FFBF7"",""assignmentId"":""6ffe26cd-4ff7-4445-8749-978cc739356f"",""projectId"":""051c06f1-75cc-4548-856d-4923ddaba0dc""}","https://test12345.live/?num_scrambled_semantic=8&num_scrambled_causal=4&num_scrambled_schematic=4&participantId=B337D9B027A44D9182E1245C005FFBF7&assignmentId=6ffe26cd-4ff7-4445-8749-978cc739356f&projectId=051c06f1-75cc-4548-856d-4923ddaba0dc","B337D9B027A44D9182E1245C005FFBF7-2025-05-15-19-23-36","","2348","","images/semantic_sequence/cat_care_semantic/cat_care_semantic_7.png","0","",""
"","","","","","image-button-response","77","854114","0.0-12.0-1.0-2.6","B337D9B027A44D9182E1245C005FFBF7","B337D9B027A44D9182E1245C005FFBF7","6ffe26cd-4ff7-4445-8749-978cc739356f","051c06f1-75cc-4548-856d-4923ddaba0dc","{""num_scrambled_semantic"":""8"",""num_scrambled_causal"":""4"",""num_scrambled_schematic"":""4"",""participantId"":""B337D9B027A44D9182E1245C005FFBF7"",""assignmentId"":""6ffe26cd-4ff7-4445-8749-978cc739356f"",""projectId"":""051c06f1-75cc-4548-856d-4923ddaba0dc""}","https://test12345.live/?num_scrambled_semantic=8&num_scrambled_causal=4&num_scrambled_schematic=4&participantId=B337D9B027A44D9182E1245C005FFBF7&assignmentId=6ffe26cd-4ff7-4445-8749-978cc739356f&projectId=051c06f1-75cc-4548-856d-4923ddaba0dc","B337D9B027A44D9182E1245C005FFBF7-2025-05-15-19-23-36","","null","","[]","null","",""
"","","","","","image-button-response","78","858616","0.0-12.0-1.0-0.7","B337D9B027A44D9182E1245C005FFBF7","B337D9B027A44D9182E1245C005FFBF7","6ffe26cd-4ff7-4445-8749-978cc739356f","051c06f1-75cc-4548-856d-4923ddaba0dc","{""num_scrambled_semantic"":""8"",""num_scrambled_causal"":""4"",""num_scrambled_schematic"":""4"",""participantId"":""B337D9B027A44D9182E1245C005FFBF7"",""assignmentId"":""6ffe26cd-4ff7-4445-8749-978cc739356f"",""projectId"":""051c06f1-75cc-4548-856d-4923ddaba0dc""}","https://test12345.live/?num_scrambled_semantic=8&num_scrambled_causal=4&num_scrambled_schematic=4&participantId=B337D9B027A44D9182E1245C005FFBF7&assignmentId=6ffe26cd-4ff7-4445-8749-978cc739356f&projectId=051c06f1-75cc-4548-856d-4923ddaba0dc","B337D9B027A44D9182E1245C005FFBF7-2025-05-15-19-23-36","","null","","images/semantic_sequence/cat_care_semantic/cat_care_semantic_8.png","null","",""
"","","","","","image-button-response","79","862618","0.0-12.0-1.0-1.7","B337D9B027A44D9182E1245C005FFBF7","B337D9B027A44D9182E1245C005FFBF7","6ffe26cd-4ff7-4445-8749-978cc739356f","051c06f1-75cc-4548-856d-4923ddaba0dc","{""num_scrambled_semantic"":""8"",""num_scrambled_causal"":""4"",""num_scrambled_schematic"":""4"",""participantId"":""B337D9B027A44D9182E1245C005FFBF7"",""assignmentId"":""6ffe26cd-4ff7-4445-8749-978cc739356f"",""projectId"":""051c06f1-75cc-4548-856d-4923ddaba0dc""}","https://test12345.live/?num_scrambled_semantic=8&num_scrambled_causal=4&num_scrambled_schematic=4&participantId=B337D9B027A44D9182E1245C005FFBF7&assignmentId=6ffe26cd-4ff7-4445-8749-978cc739356f&projectId=051c06f1-75cc-4548-856d-4923ddaba0dc","B337D9B027A44D9182E1245C005FFBF7-2025-05-15-19-23-36","","null","","images/semantic_sequence/cat_care_semantic/cat_care_semantic_8.png","null","",""
"","","","","","image-button-response","80","864420","0.0-12.0-1.0-2.7","B337D9B027A44D9182E1245C005FFBF7","B337D9B027A44D9182E1245C005FFBF7","6ffe26cd-4ff7-4445-8749-978cc739356f","051c06f1-75cc-4548-856d-4923ddaba0dc","{""num_scrambled_semantic"":""8"",""num_scrambled_causal"":""4"",""num_scrambled_schematic"":""4"",""participantId"":""B337D9B027A44D9182E1245C005FFBF7"",""assignmentId"":""6ffe26cd-4ff7-4445-8749-978cc739356f"",""projectId"":""051c06f1-75cc-4548-856d-4923ddaba0dc""}","https://test12345.live/?num_scrambled_semantic=8&num_scrambled_causal=4&num_scrambled_schematic=4&participantId=B337D9B027A44D9182E1245C005FFBF7&assignmentId=6ffe26cd-4ff7-4445-8749-978cc739356f&projectId=051c06f1-75cc-4548-856d-4923ddaba0dc","B337D9B027A44D9182E1245C005FFBF7-2025-05-15-19-23-36","","null","","[]","null","",""
"","","","","","image-button-response","81","868921","0.0-12.0-1.0-0.8","B337D9B027A44D9182E1245C005FFBF7","B337D9B027A44D9182E1245C005FFBF7","6ffe26cd-4ff7-4445-8749-978cc739356f","051c06f1-75cc-4548-856d-4923ddaba0dc","{""num_scrambled_semantic"":""8"",""num_scrambled_causal"":""4"",""num_scrambled_schematic"":""4"",""participantId"":""B337D9B027A44D9182E1245C005FFBF7"",""assignmentId"":""6ffe26cd-4ff7-4445-8749-978cc739356f"",""projectId"":""051c06f1-75cc-4548-856d-4923ddaba0dc""}","https://test12345.live/?num_scrambled_semantic=8&num_scrambled_causal=4&num_scrambled_schematic=4&participantId=B337D9B027A44D9182E1245C005FFBF7&assignmentId=6ffe26cd-4ff7-4445-8749-978cc739356f&projectId=051c06f1-75cc-4548-856d-4923ddaba0dc","B337D9B027A44D9182E1245C005FFBF7-2025-05-15-19-23-36","","null","","images/semantic_sequence/cat_care_semantic/cat_care_semantic_9.png","null","",""
"","","","","","image-button-response","82","869520","0.0-12.0-1.0-1.8","B337D9B027A44D9182E1245C005FFBF7","B337D9B027A44D9182E1245C005FFBF7","6ffe26cd-4ff7-4445-8749-978cc739356f","051c06f1-75cc-4548-856d-4923ddaba0dc","{""num_scrambled_semantic"":""8"",""num_scrambled_causal"":""4"",""num_scrambled_schematic"":""4"",""participantId"":""B337D9B027A44D9182E1245C005FFBF7"",""assignmentId"":""6ffe26cd-4ff7-4445-8749-978cc739356f"",""projectId"":""051c06f1-75cc-4548-856d-4923ddaba0dc""}","https://test12345.live/?num_scrambled_semantic=8&num_scrambled_causal=4&num_scrambled_schematic=4&participantId=B337D9B027A44D9182E1245C005FFBF7&assignmentId=6ffe26cd-4ff7-4445-8749-978cc739356f&projectId=051c06f1-75cc-4548-856d-4923ddaba0dc","B337D9B027A44D9182E1245C005FFBF7-2025-05-15-19-23-36","","597","","images/semantic_sequence/cat_care_semantic/cat_care_semantic_9.png","0","",""
"","","","","","image-button-response","83","871322","0.0-12.0-1.0-2.8","B337D9B027A44D9182E1245C005FFBF7","B337D9B027A44D9182E1245C005FFBF7","6ffe26cd-4ff7-4445-8749-978cc739356f","051c06f1-75cc-4548-856d-4923ddaba0dc","{""num_scrambled_semantic"":""8"",""num_scrambled_causal"":""4"",""num_scrambled_schematic"":""4"",""participantId"":""B337D9B027A44D9182E1245C005FFBF7"",""assignmentId"":""6ffe26cd-4ff7-4445-8749-978cc739356f"",""projectId"":""051c06f1-75cc-4548-856d-4923ddaba0dc""}","https://test12345.live/?num_scrambled_semantic=8&num_scrambled_causal=4&num_scrambled_schematic=4&participantId=B337D9B027A44D9182E1245C005FFBF7&assignmentId=6ffe26cd-4ff7-4445-8749-978cc739356f&projectId=051c06f1-75cc-4548-856d-4923ddaba0dc","B337D9B027A44D9182E1245C005FFBF7-2025-05-15-19-23-36","","null","","[]","null","",""
"","","","","","image-button-response","84","875824","0.0-12.0-1.0-0.9","B337D9B027A44D9182E1245C005FFBF7","B337D9B027A44D9182E1245C005FFBF7","6ffe26cd-4ff7-4445-8749-978cc739356f","051c06f1-75cc-4548-856d-4923ddaba0dc","{""num_scrambled_semantic"":""8"",""num_scrambled_causal"":""4"",""num_scrambled_schematic"":""4"",""participantId"":""B337D9B027A44D9182E1245C005FFBF7"",""assignmentId"":""6ffe26cd-4ff7-4445-8749-978cc739356f"",""projectId"":""051c06f1-75cc-4548-856d-4923ddaba0dc""}","https://test12345.live/?num_scrambled_semantic=8&num_scrambled_causal=4&num_scrambled_schematic=4&participantId=B337D9B027A44D9182E1245C005FFBF7&assignmentId=6ffe26cd-4ff7-4445-8749-978cc739356f&projectId=051c06f1-75cc-4548-856d-4923ddaba0dc","B337D9B027A44D9182E1245C005FFBF7-2025-05-15-19-23-36","","null","","images/semantic_sequence/cat_care_semantic/cat_care_semantic_ten.png","null","",""
"","","","","","image-button-response","85","878376","0.0-12.0-1.0-1.9","B337D9B027A44D9182E1245C005FFBF7","B337D9B027A44D9182E1245C005FFBF7","6ffe26cd-4ff7-4445-8749-978cc739356f","051c06f1-75cc-4548-856d-4923ddaba0dc","{""num_scrambled_semantic"":""8"",""num_scrambled_causal"":""4"",""num_scrambled_schematic"":""4"",""participantId"":""B337D9B027A44D9182E1245C005FFBF7"",""assignmentId"":""6ffe26cd-4ff7-4445-8749-978cc739356f"",""projectId"":""051c06f1-75cc-4548-856d-4923ddaba0dc""}","https://test12345.live/?num_scrambled_semantic=8&num_scrambled_causal=4&num_scrambled_schematic=4&participantId=B337D9B027A44D9182E1245C005FFBF7&assignmentId=6ffe26cd-4ff7-4445-8749-978cc739356f&projectId=051c06f1-75cc-4548-856d-4923ddaba0dc","B337D9B027A44D9182E1245C005FFBF7-2025-05-15-19-23-36","","2550","","images/semantic_sequence/cat_care_semantic/cat_care_semantic_ten.png","1","",""
"","","","","","image-button-response","86","880178","0.0-12.0-1.0-2.9","B337D9B027A44D9182E1245C005FFBF7","B337D9B027A44D9182E1245C005FFBF7","6ffe26cd-4ff7-4445-8749-978cc739356f","051c06f1-75cc-4548-856d-4923ddaba0dc","{""num_scrambled_semantic"":""8"",""num_scrambled_causal"":""4"",""num_scrambled_schematic"":""4"",""participantId"":""B337D9B027A44D9182E1245C005FFBF7"",""assignmentId"":""6ffe26cd-4ff7-4445-8749-978cc739356f"",""projectId"":""051c06f1-75cc-4548-856d-4923ddaba0dc""}","https://test12345.live/?num_scrambled_semantic=8&num_scrambled_causal=4&num_scrambled_schematic=4&participantId=B337D9B027A44D9182E1245C005FFBF7&assignmentId=6ffe26cd-4ff7-4445-8749-978cc739356f&projectId=051c06f1-75cc-4548-856d-4923ddaba0dc","B337D9B027A44D9182E1245C005FFBF7-2025-05-15-19-23-36","","null","","[]","null","",""
"","","","","","html-audio-response","87","898257","0.0-13.0","B337D9B027A44D9182E1245C005FFBF7","B337D9B027A44D9182E1245C005FFBF7","6ffe26cd-4ff7-4445-8749-978cc739356f","051c06f1-75cc-4548-856d-4923ddaba0dc","{""num_scrambled_semantic"":""8"",""num_scrambled_causal"":""4"",""num_scrambled_schematic"":""4"",""participantId"":""B337D9B027A44D9182E1245C005FFBF7"",""assignmentId"":""6ffe26cd-4ff7-4445-8749-978cc739356f"",""projectId"":""051c06f1-75cc-4548-856d-4923ddaba0dc""}","https://test12345.live/?num_scrambled_semantic=8&num_scrambled_causal=4&num_scrambled_schematic=4&participantId=B337D9B027A44D9182E1245C005FFBF7&assignmentId=6ffe26cd-4ff7-4445-8749-978cc739356f&projectId=051c06f1-75cc-4548-856d-4923ddaba0dc","B337D9B027A44D9182E1245C005FFBF7-2025-05-15-19-23-36","","17074","","[""<span style=\""color: red; font-size: 24px\""> NOW RECORDING</span><p>Please say out loud all the images you saw, as many as you can remember. The images can be said in any order.</p>""]","","11","cat_care_semantic"
"","","","","","image-button-response","88","904263","0.0-14.0-0.0","B337D9B027A44D9182E1245C005FFBF7","B337D9B027A44D9182E1245C005FFBF7","6ffe26cd-4ff7-4445-8749-978cc739356f","051c06f1-75cc-4548-856d-4923ddaba0dc","{""num_scrambled_semantic"":""8"",""num_scrambled_causal"":""4"",""num_scrambled_schematic"":""4"",""participantId"":""B337D9B027A44D9182E1245C005FFBF7"",""assignmentId"":""6ffe26cd-4ff7-4445-8749-978cc739356f"",""projectId"":""051c06f1-75cc-4548-856d-4923ddaba0dc""}","https://test12345.live/?num_scrambled_semantic=8&num_scrambled_causal=4&num_scrambled_schematic=4&participantId=B337D9B027A44D9182E1245C005FFBF7&assignmentId=6ffe26cd-4ff7-4445-8749-978cc739356f&projectId=051c06f1-75cc-4548-856d-4923ddaba0dc","B337D9B027A44D9182E1245C005FFBF7-2025-05-15-19-23-36","","null","","images/semantic_sequence/maintaining_a_car_semantic/maintaining_a_car_semantic_0.png","null","",""
"","","","","","image-button-response","89","908765","0.0-14.0-1.0-0.0","B337D9B027A44D9182E1245C005FFBF7","B337D9B027A44D9182E1245C005FFBF7","6ffe26cd-4ff7-4445-8749-978cc739356f","051c06f1-75cc-4548-856d-4923ddaba0dc","{""num_scrambled_semantic"":""8"",""num_scrambled_causal"":""4"",""num_scrambled_schematic"":""4"",""participantId"":""B337D9B027A44D9182E1245C005FFBF7"",""assignmentId"":""6ffe26cd-4ff7-4445-8749-978cc739356f"",""projectId"":""051c06f1-75cc-4548-856d-4923ddaba0dc""}","https://test12345.live/?num_scrambled_semantic=8&num_scrambled_causal=4&num_scrambled_schematic=4&participantId=B337D9B027A44D9182E1245C005FFBF7&assignmentId=6ffe26cd-4ff7-4445-8749-978cc739356f&projectId=051c06f1-75cc-4548-856d-4923ddaba0dc","B337D9B027A44D9182E1245C005FFBF7-2025-05-15-19-23-36","","null","","images/semantic_sequence/maintaining_a_car_semantic/maintaining_a_car_semantic_1.png","null","",""
"","","","","","image-button-response","90","912032","0.0-14.0-1.0-1.0","B337D9B027A44D9182E1245C005FFBF7","B337D9B027A44D9182E1245C005FFBF7","6ffe26cd-4ff7-4445-8749-978cc739356f","051c06f1-75cc-4548-856d-4923ddaba0dc","{""num_scrambled_semantic"":""8"",""num_scrambled_causal"":""4"",""num_scrambled_schematic"":""4"",""participantId"":""B337D9B027A44D9182E1245C005FFBF7"",""assignmentId"":""6ffe26cd-4ff7-4445-8749-978cc739356f"",""projectId"":""051c06f1-75cc-4548-856d-4923ddaba0dc""}","https://test12345.live/?num_scrambled_semantic=8&num_scrambled_causal=4&num_scrambled_schematic=4&participantId=B337D9B027A44D9182E1245C005FFBF7&assignmentId=6ffe26cd-4ff7-4445-8749-978cc739356f&projectId=051c06f1-75cc-4548-856d-4923ddaba0dc","B337D9B027A44D9182E1245C005FFBF7-2025-05-15-19-23-36","","3266","","images/semantic_sequence/maintaining_a_car_semantic/maintaining_a_car_semantic_1.png","0","",""
"","","","","","image-button-response","91","913834","0.0-14.0-1.0-2.0","B337D9B027A44D9182E1245C005FFBF7","B337D9B027A44D9182E1245C005FFBF7","6ffe26cd-4ff7-4445-8749-978cc739356f","051c06f1-75cc-4548-856d-4923ddaba0dc","{""num_scrambled_semantic"":""8"",""num_scrambled_causal"":""4"",""num_scrambled_schematic"":""4"",""participantId"":""B337D9B027A44D9182E1245C005FFBF7"",""assignmentId"":""6ffe26cd-4ff7-4445-8749-978cc739356f"",""projectId"":""051c06f1-75cc-4548-856d-4923ddaba0dc""}","https://test12345.live/?num_scrambled_semantic=8&num_scrambled_causal=4&num_scrambled_schematic=4&participantId=B337D9B027A44D9182E1245C005FFBF7&assignmentId=6ffe26cd-4ff7-4445-8749-978cc739356f&projectId=051c06f1-75cc-4548-856d-4923ddaba0dc","B337D9B027A44D9182E1245C005FFBF7-2025-05-15-19-23-36","","null","","[]","null","",""
"","","","","","image-button-response","92","918336","0.0-14.0-1.0-0.1","B337D9B027A44D9182E1245C005FFBF7","B337D9B027A44D9182E1245C005FFBF7","6ffe26cd-4ff7-4445-8749-978cc739356f","051c06f1-75cc-4548-856d-4923ddaba0dc","{""num_scrambled_semantic"":""8"",""num_scrambled_causal"":""4"",""num_scrambled_schematic"":""4"",""participantId"":""B337D9B027A44D9182E1245C005FFBF7"",""assignmentId"":""6ffe26cd-4ff7-4445-8749-978cc739356f"",""projectId"":""051c06f1-75cc-4548-856d-4923ddaba0dc""}","https://test12345.live/?num_scrambled_semantic=8&num_scrambled_causal=4&num_scrambled_schematic=4&participantId=B337D9B027A44D9182E1245C005FFBF7&assignmentId=6ffe26cd-4ff7-4445-8749-978cc739356f&projectId=051c06f1-75cc-4548-856d-4923ddaba0dc","B337D9B027A44D9182E1245C005FFBF7-2025-05-15-19-23-36","","null","","images/semantic_sequence/maintaining_a_car_semantic/maintaining_a_car_semantic_5.png","null","",""
"","","","","","image-button-response","93","920256","0.0-14.0-1.0-1.1","B337D9B027A44D9182E1245C005FFBF7","B337D9B027A44D9182E1245C005FFBF7","6ffe26cd-4ff7-4445-8749-978cc739356f","051c06f1-75cc-4548-856d-4923ddaba0dc","{""num_scrambled_semantic"":""8"",""num_scrambled_causal"":""4"",""num_scrambled_schematic"":""4"",""participantId"":""B337D9B027A44D9182E1245C005FFBF7"",""assignmentId"":""6ffe26cd-4ff7-4445-8749-978cc739356f"",""projectId"":""051c06f1-75cc-4548-856d-4923ddaba0dc""}","https://test12345.live/?num_scrambled_semantic=8&num_scrambled_causal=4&num_scrambled_schematic=4&participantId=B337D9B027A44D9182E1245C005FFBF7&assignmentId=6ffe26cd-4ff7-4445-8749-978cc739356f&projectId=051c06f1-75cc-4548-856d-4923ddaba0dc","B337D9B027A44D9182E1245C005FFBF7-2025-05-15-19-23-36","","1918","","images/semantic_sequence/maintaining_a_car_semantic/maintaining_a_car_semantic_5.png","0","",""
"","","","","","image-button-response","94","922058","0.0-14.0-1.0-2.1","B337D9B027A44D9182E1245C005FFBF7","B337D9B027A44D9182E1245C005FFBF7","6ffe26cd-4ff7-4445-8749-978cc739356f","051c06f1-75cc-4548-856d-4923ddaba0dc","{""num_scrambled_semantic"":""8"",""num_scrambled_causal"":""4"",""num_scrambled_schematic"":""4"",""participantId"":""B337D9B027A44D9182E1245C005FFBF7"",""assignmentId"":""6ffe26cd-4ff7-4445-8749-978cc739356f"",""projectId"":""051c06f1-75cc-4548-856d-4923ddaba0dc""}","https://test12345.live/?num_scrambled_semantic=8&num_scrambled_causal=4&num_scrambled_schematic=4&participantId=B337D9B027A44D9182E1245C005FFBF7&assignmentId=6ffe26cd-4ff7-4445-8749-978cc739356f&projectId=051c06f1-75cc-4548-856d-4923ddaba0dc","B337D9B027A44D9182E1245C005FFBF7-2025-05-15-19-23-36","","null","","[]","null","",""
"","","","","","image-button-response","95","926560","0.0-14.0-1.0-0.2","B337D9B027A44D9182E1245C005FFBF7","B337D9B027A44D9182E1245C005FFBF7","6ffe26cd-4ff7-4445-8749-978cc739356f","051c06f1-75cc-4548-856d-4923ddaba0dc","{""num_scrambled_semantic"":""8"",""num_scrambled_causal"":""4"",""num_scrambled_schematic"":""4"",""participantId"":""B337D9B027A44D9182E1245C005FFBF7"",""assignmentId"":""6ffe26cd-4ff7-4445-8749-978cc739356f"",""projectId"":""051c06f1-75cc-4548-856d-4923ddaba0dc""}","https://test12345.live/?num_scrambled_semantic=8&num_scrambled_causal=4&num_scrambled_schematic=4&participantId=B337D9B027A44D9182E1245C005FFBF7&assignmentId=6ffe26cd-4ff7-4445-8749-978cc739356f&projectId=051c06f1-75cc-4548-856d-4923ddaba0dc","B337D9B027A44D9182E1245C005FFBF7-2025-05-15-19-23-36","","null","","images/semantic_sequence/maintaining_a_car_semantic/maintaining_a_car_semantic_ten.png","null","",""
"","","","","","image-button-response","96","929049","0.0-14.0-1.0-1.2","B337D9B027A44D9182E1245C005FFBF7","B337D9B027A44D9182E1245C005FFBF7","6ffe26cd-4ff7-4445-8749-978cc739356f","051c06f1-75cc-4548-856d-4923ddaba0dc","{""num_scrambled_semantic"":""8"",""num_scrambled_causal"":""4"",""num_scrambled_schematic"":""4"",""participantId"":""B337D9B027A44D9182E1245C005FFBF7"",""assignmentId"":""6ffe26cd-4ff7-4445-8749-978cc739356f"",""projectId"":""051c06f1-75cc-4548-856d-4923ddaba0dc""}","https://test12345.live/?num_scrambled_semantic=8&num_scrambled_causal=4&num_scrambled_schematic=4&participantId=B337D9B027A44D9182E1245C005FFBF7&assignmentId=6ffe26cd-4ff7-4445-8749-978cc739356f&projectId=051c06f1-75cc-4548-856d-4923ddaba0dc","B337D9B027A44D9182E1245C005FFBF7-2025-05-15-19-23-36","","2487","","images/semantic_sequence/maintaining_a_car_semantic/maintaining_a_car_semantic_ten.png","0","",""
"","","","","","image-button-response","97","930851","0.0-14.0-1.0-2.2","B337D9B027A44D9182E1245C005FFBF7","B337D9B027A44D9182E1245C005FFBF7","6ffe26cd-4ff7-4445-8749-978cc739356f","051c06f1-75cc-4548-856d-4923ddaba0dc","{""num_scrambled_semantic"":""8"",""num_scrambled_causal"":""4"",""num_scrambled_schematic"":""4"",""participantId"":""B337D9B027A44D9182E1245C005FFBF7"",""assignmentId"":""6ffe26cd-4ff7-4445-8749-978cc739356f"",""projectId"":""051c06f1-75cc-4548-856d-4923ddaba0dc""}","https://test12345.live/?num_scrambled_semantic=8&num_scrambled_causal=4&num_scrambled_schematic=4&participantId=B337D9B027A44D9182E1245C005FFBF7&assignmentId=6ffe26cd-4ff7-4445-8749-978cc739356f&projectId=051c06f1-75cc-4548-856d-4923ddaba0dc","B337D9B027A44D9182E1245C005FFBF7-2025-05-15-19-23-36","","null","","[]","null","",""
"","","","","","image-button-response","98","935353","0.0-14.0-1.0-0.3","B337D9B027A44D9182E1245C005FFBF7","B337D9B027A44D9182E1245C005FFBF7","6ffe26cd-4ff7-4445-8749-978cc739356f","051c06f1-75cc-4548-856d-4923ddaba0dc","{""num_scrambled_semantic"":""8"",""num_scrambled_causal"":""4"",""num_scrambled_schematic"":""4"",""participantId"":""B337D9B027A44D9182E1245C005FFBF7"",""assignmentId"":""6ffe26cd-4ff7-4445-8749-978cc739356f"",""projectId"":""051c06f1-75cc-4548-856d-4923ddaba0dc""}","https://test12345.live/?num_scrambled_semantic=8&num_scrambled_causal=4&num_scrambled_schematic=4&participantId=B337D9B027A44D9182E1245C005FFBF7&assignmentId=6ffe26cd-4ff7-4445-8749-978cc739356f&projectId=051c06f1-75cc-4548-856d-4923ddaba0dc","B337D9B027A44D9182E1245C005FFBF7-2025-05-15-19-23-36","","null","","images/semantic_sequence/maintaining_a_car_semantic/maintaining_a_car_semantic_7.png","null","",""
"","","","","","image-button-response","99","936240","0.0-14.0-1.0-1.3","B337D9B027A44D9182E1245C005FFBF7","B337D9B027A44D9182E1245C005FFBF7","6ffe26cd-4ff7-4445-8749-978cc739356f","051c06f1-75cc-4548-856d-4923ddaba0dc","{""num_scrambled_semantic"":""8"",""num_scrambled_causal"":""4"",""num_scrambled_schematic"":""4"",""participantId"":""B337D9B027A44D9182E1245C005FFBF7"",""assignmentId"":""6ffe26cd-4ff7-4445-8749-978cc739356f"",""projectId"":""051c06f1-75cc-4548-856d-4923ddaba0dc""}","https://test12345.live/?num_scrambled_semantic=8&num_scrambled_causal=4&num_scrambled_schematic=4&participantId=B337D9B027A44D9182E1245C005FFBF7&assignmentId=6ffe26cd-4ff7-4445-8749-978cc739356f&projectId=051c06f1-75cc-4548-856d-4923ddaba0dc","B337D9B027A44D9182E1245C005FFBF7-2025-05-15-19-23-36","","885","","images/semantic_sequence/maintaining_a_car_semantic/maintaining_a_car_semantic_7.png","0","",""
"","","","","","image-button-response","100","938043","0.0-14.0-1.0-2.3","B337D9B027A44D9182E1245C005FFBF7","B337D9B027A44D9182E1245C005FFBF7","6ffe26cd-4ff7-4445-8749-978cc739356f","051c06f1-75cc-4548-856d-4923ddaba0dc","{""num_scrambled_semantic"":""8"",""num_scrambled_causal"":""4"",""num_scrambled_schematic"":""4"",""participantId"":""B337D9B027A44D9182E1245C005FFBF7"",""assignmentId"":""6ffe26cd-4ff7-4445-8749-978cc739356f"",""projectId"":""051c06f1-75cc-4548-856d-4923ddaba0dc""}","https://test12345.live/?num_scrambled_semantic=8&num_scrambled_causal=4&num_scrambled_schematic=4&participantId=B337D9B027A44D9182E1245C005FFBF7&assignmentId=6ffe26cd-4ff7-4445-8749-978cc739356f&projectId=051c06f1-75cc-4548-856d-4923ddaba0dc","B337D9B027A44D9182E1245C005FFBF7-2025-05-15-19-23-36","","null","","[]","null","",""
"","","","","","image-button-response","101","942545","0.0-14.0-1.0-0.4","B337D9B027A44D9182E1245C005FFBF7","B337D9B027A44D9182E1245C005FFBF7","6ffe26cd-4ff7-4445-8749-978cc739356f","051c06f1-75cc-4548-856d-4923ddaba0dc","{""num_scrambled_semantic"":""8"",""num_scrambled_causal"":""4"",""num_scrambled_schematic"":""4"",""participantId"":""B337D9B027A44D9182E1245C005FFBF7"",""assignmentId"":""6ffe26cd-4ff7-4445-8749-978cc739356f"",""projectId"":""051c06f1-75cc-4548-856d-4923ddaba0dc""}","https://test12345.live/?num_scrambled_semantic=8&num_scrambled_causal=4&num_scrambled_schematic=4&participantId=B337D9B027A44D9182E1245C005FFBF7&assignmentId=6ffe26cd-4ff7-4445-8749-978cc739356f&projectId=051c06f1-75cc-4548-856d-4923ddaba0dc","B337D9B027A44D9182E1245C005FFBF7-2025-05-15-19-23-36","","null","","images/semantic_sequence/maintaining_a_car_semantic/maintaining_a_car_semantic_4.png","null","",""
"","","","","","image-button-response","102","945840","0.0-14.0-1.0-1.4","B337D9B027A44D9182E1245C005FFBF7","B337D9B027A44D9182E1245C005FFBF7","6ffe26cd-4ff7-4445-8749-978cc739356f","051c06f1-75cc-4548-856d-4923ddaba0dc","{""num_scrambled_semantic"":""8"",""num_scrambled_causal"":""4"",""num_scrambled_schematic"":""4"",""participantId"":""B337D9B027A44D9182E1245C005FFBF7"",""assignmentId"":""6ffe26cd-4ff7-4445-8749-978cc739356f"",""projectId"":""051c06f1-75cc-4548-856d-4923ddaba0dc""}","https://test12345.live/?num_scrambled_semantic=8&num_scrambled_causal=4&num_scrambled_schematic=4&participantId=B337D9B027A44D9182E1245C005FFBF7&assignmentId=6ffe26cd-4ff7-4445-8749-978cc739356f&projectId=051c06f1-75cc-4548-856d-4923ddaba0dc","B337D9B027A44D9182E1245C005FFBF7-2025-05-15-19-23-36","","3293","","images/semantic_sequence/maintaining_a_car_semantic/maintaining_a_car_semantic_4.png","0","",""
"","","","","","image-button-response","103","947642","0.0-14.0-1.0-2.4","B337D9B027A44D9182E1245C005FFBF7","B337D9B027A44D9182E1245C005FFBF7","6ffe26cd-4ff7-4445-8749-978cc739356f","051c06f1-75cc-4548-856d-4923ddaba0dc","{""num_scrambled_semantic"":""8"",""num_scrambled_causal"":""4"",""num_scrambled_schematic"":""4"",""participantId"":""B337D9B027A44D9182E1245C005FFBF7"",""assignmentId"":""6ffe26cd-4ff7-4445-8749-978cc739356f"",""projectId"":""051c06f1-75cc-4548-856d-4923ddaba0dc""}","https://test12345.live/?num_scrambled_semantic=8&num_scrambled_causal=4&num_scrambled_schematic=4&participantId=B337D9B027A44D9182E1245C005FFBF7&assignmentId=6ffe26cd-4ff7-4445-8749-978cc739356f&projectId=051c06f1-75cc-4548-856d-4923ddaba0dc","B337D9B027A44D9182E1245C005FFBF7-2025-05-15-19-23-36","","null","","[]","null","",""
"","","","","","image-button-response","104","952144","0.0-14.0-1.0-0.5","B337D9B027A44D9182E1245C005FFBF7","B337D9B027A44D9182E1245C005FFBF7","6ffe26cd-4ff7-4445-8749-978cc739356f","051c06f1-75cc-4548-856d-4923ddaba0dc","{""num_scrambled_semantic"":""8"",""num_scrambled_causal"":""4"",""num_scrambled_schematic"":""4"",""participantId"":""B337D9B027A44D9182E1245C005FFBF7"",""assignmentId"":""6ffe26cd-4ff7-4445-8749-978cc739356f"",""projectId"":""051c06f1-75cc-4548-856d-4923ddaba0dc""}","https://test12345.live/?num_scrambled_semantic=8&num_scrambled_causal=4&num_scrambled_schematic=4&participantId=B337D9B027A44D9182E1245C005FFBF7&assignmentId=6ffe26cd-4ff7-4445-8749-978cc739356f&projectId=051c06f1-75cc-4548-856d-4923ddaba0dc","B337D9B027A44D9182E1245C005FFBF7-2025-05-15-19-23-36","","null","","images/semantic_sequence/maintaining_a_car_semantic/maintaining_a_car_semantic_9.png","null","",""
"","","","","","image-button-response","105","953505","0.0-14.0-1.0-1.5","B337D9B027A44D9182E1245C005FFBF7","B337D9B027A44D9182E1245C005FFBF7","6ffe26cd-4ff7-4445-8749-978cc739356f","051c06f1-75cc-4548-856d-4923ddaba0dc","{""num_scrambled_semantic"":""8"",""num_scrambled_causal"":""4"",""num_scrambled_schematic"":""4"",""participantId"":""B337D9B027A44D9182E1245C005FFBF7"",""assignmentId"":""6ffe26cd-4ff7-4445-8749-978cc739356f"",""projectId"":""051c06f1-75cc-4548-856d-4923ddaba0dc""}","https://test12345.live/?num_scrambled_semantic=8&num_scrambled_causal=4&num_scrambled_schematic=4&participantId=B337D9B027A44D9182E1245C005FFBF7&assignmentId=6ffe26cd-4ff7-4445-8749-978cc739356f&projectId=051c06f1-75cc-4548-856d-4923ddaba0dc","B337D9B027A44D9182E1245C005FFBF7-2025-05-15-19-23-36","","1359","","images/semantic_sequence/maintaining_a_car_semantic/maintaining_a_car_semantic_9.png","0","",""
"","","","","","image-button-response","106","955306","0.0-14.0-1.0-2.5","B337D9B027A44D9182E1245C005FFBF7","B337D9B027A44D9182E1245C005FFBF7","6ffe26cd-4ff7-4445-8749-978cc739356f","051c06f1-75cc-4548-856d-4923ddaba0dc","{""num_scrambled_semantic"":""8"",""num_scrambled_causal"":""4"",""num_scrambled_schematic"":""4"",""participantId"":""B337D9B027A44D9182E1245C005FFBF7"",""assignmentId"":""6ffe26cd-4ff7-4445-8749-978cc739356f"",""projectId"":""051c06f1-75cc-4548-856d-4923ddaba0dc""}","https://test12345.live/?num_scrambled_semantic=8&num_scrambled_causal=4&num_scrambled_schematic=4&participantId=B337D9B027A44D9182E1245C005FFBF7&assignmentId=6ffe26cd-4ff7-4445-8749-978cc739356f&projectId=051c06f1-75cc-4548-856d-4923ddaba0dc","B337D9B027A44D9182E1245C005FFBF7-2025-05-15-19-23-36","","null","","[]","null","",""
"","","","","","image-button-response","107","959808","0.0-14.0-1.0-0.6","B337D9B027A44D9182E1245C005FFBF7","B337D9B027A44D9182E1245C005FFBF7","6ffe26cd-4ff7-4445-8749-978cc739356f","051c06f1-75cc-4548-856d-4923ddaba0dc","{""num_scrambled_semantic"":""8"",""num_scrambled_causal"":""4"",""num_scrambled_schematic"":""4"",""participantId"":""B337D9B027A44D9182E1245C005FFBF7"",""assignmentId"":""6ffe26cd-4ff7-4445-8749-978cc739356f"",""projectId"":""051c06f1-75cc-4548-856d-4923ddaba0dc""}","https://test12345.live/?num_scrambled_semantic=8&num_scrambled_causal=4&num_scrambled_schematic=4&participantId=B337D9B027A44D9182E1245C005FFBF7&assignmentId=6ffe26cd-4ff7-4445-8749-978cc739356f&projectId=051c06f1-75cc-4548-856d-4923ddaba0dc","B337D9B027A44D9182E1245C005FFBF7-2025-05-15-19-23-36","","null","","images/semantic_sequence/maintaining_a_car_semantic/maintaining_a_car_semantic_8.png","null","",""
"","","","","","image-button-response","108","961088","0.0-14.0-1.0-1.6","B337D9B027A44D9182E1245C005FFBF7","B337D9B027A44D9182E1245C005FFBF7","6ffe26cd-4ff7-4445-8749-978cc739356f","051c06f1-75cc-4548-856d-4923ddaba0dc","{""num_scrambled_semantic"":""8"",""num_scrambled_causal"":""4"",""num_scrambled_schematic"":""4"",""participantId"":""B337D9B027A44D9182E1245C005FFBF7"",""assignmentId"":""6ffe26cd-4ff7-4445-8749-978cc739356f"",""projectId"":""051c06f1-75cc-4548-856d-4923ddaba0dc""}","https://test12345.live/?num_scrambled_semantic=8&num_scrambled_causal=4&num_scrambled_schematic=4&participantId=B337D9B027A44D9182E1245C005FFBF7&assignmentId=6ffe26cd-4ff7-4445-8749-978cc739356f&projectId=051c06f1-75cc-4548-856d-4923ddaba0dc","B337D9B027A44D9182E1245C005FFBF7-2025-05-15-19-23-36","","1279","","images/semantic_sequence/maintaining_a_car_semantic/maintaining_a_car_semantic_8.png","0","",""
"","","","","","image-button-response","109","962890","0.0-14.0-1.0-2.6","B337D9B027A44D9182E1245C005FFBF7","B337D9B027A44D9182E1245C005FFBF7","6ffe26cd-4ff7-4445-8749-978cc739356f","051c06f1-75cc-4548-856d-4923ddaba0dc","{""num_scrambled_semantic"":""8"",""num_scrambled_causal"":""4"",""num_scrambled_schematic"":""4"",""participantId"":""B337D9B027A44D9182E1245C005FFBF7"",""assignmentId"":""6ffe26cd-4ff7-4445-8749-978cc739356f"",""projectId"":""051c06f1-75cc-4548-856d-4923ddaba0dc""}","https://test12345.live/?num_scrambled_semantic=8&num_scrambled_causal=4&num_scrambled_schematic=4&participantId=B337D9B027A44D9182E1245C005FFBF7&assignmentId=6ffe26cd-4ff7-4445-8749-978cc739356f&projectId=051c06f1-75cc-4548-856d-4923ddaba0dc","B337D9B027A44D9182E1245C005FFBF7-2025-05-15-19-23-36","","null","","[]","null","",""
"","","","","","image-button-response","110","967392","0.0-14.0-1.0-0.7","B337D9B027A44D9182E1245C005FFBF7","B337D9B027A44D9182E1245C005FFBF7","6ffe26cd-4ff7-4445-8749-978cc739356f","051c06f1-75cc-4548-856d-4923ddaba0dc","{""num_scrambled_semantic"":""8"",""num_scrambled_causal"":""4"",""num_scrambled_schematic"":""4"",""participantId"":""B337D9B027A44D9182E1245C005FFBF7"",""assignmentId"":""6ffe26cd-4ff7-4445-8749-978cc739356f"",""projectId"":""051c06f1-75cc-4548-856d-4923ddaba0dc""}","https://test12345.live/?num_scrambled_semantic=8&num_scrambled_causal=4&num_scrambled_schematic=4&participantId=B337D9B027A44D9182E1245C005FFBF7&assignmentId=6ffe26cd-4ff7-4445-8749-978cc739356f&projectId=051c06f1-75cc-4548-856d-4923ddaba0dc","B337D9B027A44D9182E1245C005FFBF7-2025-05-15-19-23-36","","null","","images/semantic_sequence/maintaining_a_car_semantic/maintaining_a_car_semantic_3.png","null","",""
"","","","","","image-button-response","111","971008","0.0-14.0-1.0-1.7","B337D9B027A44D9182E1245C005FFBF7","B337D9B027A44D9182E1245C005FFBF7","6ffe26cd-4ff7-4445-8749-978cc739356f","051c06f1-75cc-4548-856d-4923ddaba0dc","{""num_scrambled_semantic"":""8"",""num_scrambled_causal"":""4"",""num_scrambled_schematic"":""4"",""participantId"":""B337D9B027A44D9182E1245C005FFBF7"",""assignmentId"":""6ffe26cd-4ff7-4445-8749-978cc739356f"",""projectId"":""051c06f1-75cc-4548-856d-4923ddaba0dc""}","https://test12345.live/?num_scrambled_semantic=8&num_scrambled_causal=4&num_scrambled_schematic=4&participantId=B337D9B027A44D9182E1245C005FFBF7&assignmentId=6ffe26cd-4ff7-4445-8749-978cc739356f&projectId=051c06f1-75cc-4548-856d-4923ddaba0dc","B337D9B027A44D9182E1245C005FFBF7-2025-05-15-19-23-36","","3614","","images/semantic_sequence/maintaining_a_car_semantic/maintaining_a_car_semantic_3.png","0","",""
"","","","","","image-button-response","112","972810","0.0-14.0-1.0-2.7","B337D9B027A44D9182E1245C005FFBF7","B337D9B027A44D9182E1245C005FFBF7","6ffe26cd-4ff7-4445-8749-978cc739356f","051c06f1-75cc-4548-856d-4923ddaba0dc","{""num_scrambled_semantic"":""8"",""num_scrambled_causal"":""4"",""num_scrambled_schematic"":""4"",""participantId"":""B337D9B027A44D9182E1245C005FFBF7"",""assignmentId"":""6ffe26cd-4ff7-4445-8749-978cc739356f"",""projectId"":""051c06f1-75cc-4548-856d-4923ddaba0dc""}","https://test12345.live/?num_scrambled_semantic=8&num_scrambled_causal=4&num_scrambled_schematic=4&participantId=B337D9B027A44D9182E1245C005FFBF7&assignmentId=6ffe26cd-4ff7-4445-8749-978cc739356f&projectId=051c06f1-75cc-4548-856d-4923ddaba0dc","B337D9B027A44D9182E1245C005FFBF7-2025-05-15-19-23-36","","null","","[]","null","",""
"","","","","","image-button-response","113","977312","0.0-14.0-1.0-0.8","B337D9B027A44D9182E1245C005FFBF7","B337D9B027A44D9182E1245C005FFBF7","6ffe26cd-4ff7-4445-8749-978cc739356f","051c06f1-75cc-4548-856d-4923ddaba0dc","{""num_scrambled_semantic"":""8"",""num_scrambled_causal"":""4"",""num_scrambled_schematic"":""4"",""participantId"":""B337D9B027A44D9182E1245C005FFBF7"",""assignmentId"":""6ffe26cd-4ff7-4445-8749-978cc739356f"",""projectId"":""051c06f1-75cc-4548-856d-4923ddaba0dc""}","https://test12345.live/?num_scrambled_semantic=8&num_scrambled_causal=4&num_scrambled_schematic=4&participantId=B337D9B027A44D9182E1245C005FFBF7&assignmentId=6ffe26cd-4ff7-4445-8749-978cc739356f&projectId=051c06f1-75cc-4548-856d-4923ddaba0dc","B337D9B027A44D9182E1245C005FFBF7-2025-05-15-19-23-36","","null","","images/semantic_sequence/maintaining_a_car_semantic/maintaining_a_car_semantic_2.png","null","",""
