"success","timeout","failed_images","failed_audio","failed_video","trial_type","trial_index","time_elapsed","internal_node_id","subject","subject_id","study_id","session_id","urlvar","current_url","audio_id","view_history","rt","device_id","stimulus","response","estimated_stimulus_onset","seq_name"
"true","false","[]","[]","[]","preload","0","74495","0.0-0.0","B3438ED0E2FF474C932749E7CA9F423D","B3438ED0E2FF474C932749E7CA9F423D","9b0a0774-b22c-4d5e-9cb7-1c2408afe8a5","051c06f1-75cc-4548-856d-4923ddaba0dc","{""num_scrambled_semantic"":""8"",""num_scrambled_causal"":""4"",""num_scrambled_schematic"":""4"",""participantId"":""B3438ED0E2FF474C932749E7CA9F423D"",""assignmentId"":""9b0a0774-b22c-4d5e-9cb7-1c2408afe8a5"",""projectId"":""051c06f1-75cc-4548-856d-4923ddaba0dc""}","https://test12345.live/?num_scrambled_semantic=8&num_scrambled_causal=4&num_scrambled_schematic=4&participantId=B3438ED0E2FF474C932749E7CA9F423D&assignmentId=9b0a0774-b22c-4d5e-9cb7-1c2408afe8a5&projectId=051c06f1-75cc-4548-856d-4923ddaba0dc","B3438ED0E2FF474C932749E7CA9F423D-2025-05-15-18-53-08","","","","","","",""
"","","","","","instructions","1","166423","0.0-1.0","B3438ED0E2FF474C932749E7CA9F423D","B3438ED0E2FF474C932749E7CA9F423D","9b0a0774-b22c-4d5e-9cb7-1c2408afe8a5","051c06f1-75cc-4548-856d-4923ddaba0dc","{""num_scrambled_semantic"":""8"",""num_scrambled_causal"":""4"",""num_scrambled_schematic"":""4"",""participantId"":""B3438ED0E2FF474C932749E7CA9F423D"",""assignmentId"":""9b0a0774-b22c-4d5e-9cb7-1c2408afe8a5"",""projectId"":""051c06f1-75cc-4548-856d-4923ddaba0dc""}","https://test12345.live/?num_scrambled_semantic=8&num_scrambled_causal=4&num_scrambled_schematic=4&participantId=B3438ED0E2FF474C932749E7CA9F423D&assignmentId=9b0a0774-b22c-4d5e-9cb7-1c2408afe8a5&projectId=051c06f1-75cc-4548-856d-4923ddaba0dc","B3438ED0E2FF474C932749E7CA9F423D-2025-05-15-18-53-08","[{""page_index"":0,""viewing_time"":91927}]","91928","","","","",""
"","","","","","instructions","2","175785","0.0-2.0","B3438ED0E2FF474C932749E7CA9F423D","B3438ED0E2FF474C932749E7CA9F423D","9b0a0774-b22c-4d5e-9cb7-1c2408afe8a5","051c06f1-75cc-4548-856d-4923ddaba0dc","{""num_scrambled_semantic"":""8"",""num_scrambled_causal"":""4"",""num_scrambled_schematic"":""4"",""participantId"":""B3438ED0E2FF474C932749E7CA9F423D"",""assignmentId"":""9b0a0774-b22c-4d5e-9cb7-1c2408afe8a5"",""projectId"":""051c06f1-75cc-4548-856d-4923ddaba0dc""}","https://test12345.live/?num_scrambled_semantic=8&num_scrambled_causal=4&num_scrambled_schematic=4&participantId=B3438ED0E2FF474C932749E7CA9F423D&assignmentId=9b0a0774-b22c-4d5e-9cb7-1c2408afe8a5&projectId=051c06f1-75cc-4548-856d-4923ddaba0dc","B3438ED0E2FF474C932749E7CA9F423D-2025-05-15-18-53-08","[{""page_index"":0,""viewing_time"":9361}]","9361","","","","",""
"true","","","","","fullscreen","3","179059","0.0-3.0","B3438ED0E2FF474C932749E7CA9F423D","B3438ED0E2FF474C932749E7CA9F423D","9b0a0774-b22c-4d5e-9cb7-1c2408afe8a5","051c06f1-75cc-4548-856d-4923ddaba0dc","{""num_scrambled_semantic"":""8"",""num_scrambled_causal"":""4"",""num_scrambled_schematic"":""4"",""participantId"":""B3438ED0E2FF474C932749E7CA9F423D"",""assignmentId"":""9b0a0774-b22c-4d5e-9cb7-1c2408afe8a5"",""projectId"":""051c06f1-75cc-4548-856d-4923ddaba0dc""}","https://test12345.live/?num_scrambled_semantic=8&num_scrambled_causal=4&num_scrambled_schematic=4&participantId=B3438ED0E2FF474C932749E7CA9F423D&assignmentId=9b0a0774-b22c-4d5e-9cb7-1c2408afe8a5&projectId=051c06f1-75cc-4548-856d-4923ddaba0dc","B3438ED0E2FF474C932749E7CA9F423D-2025-05-15-18-53-08","","2268","","","","",""
"","","","","","initialize-microphone","4","187667","0.0-4.0-0.0","B3438ED0E2FF474C932749E7CA9F423D","B3438ED0E2FF474C932749E7CA9F423D","9b0a0774-b22c-4d5e-9cb7-1c2408afe8a5","051c06f1-75cc-4548-856d-4923ddaba0dc","{""num_scrambled_semantic"":""8"",""num_scrambled_causal"":""4"",""num_scrambled_schematic"":""4"",""participantId"":""B3438ED0E2FF474C932749E7CA9F423D"",""assignmentId"":""9b0a0774-b22c-4d5e-9cb7-1c2408afe8a5"",""projectId"":""051c06f1-75cc-4548-856d-4923ddaba0dc""}","https://test12345.live/?num_scrambled_semantic=8&num_scrambled_causal=4&num_scrambled_schematic=4&participantId=B3438ED0E2FF474C932749E7CA9F423D&assignmentId=9b0a0774-b22c-4d5e-9cb7-1c2408afe8a5&projectId=051c06f1-75cc-4548-856d-4923ddaba0dc","B3438ED0E2FF474C932749E7CA9F423D-2025-05-15-18-53-08","","","ca6f2ca30f27aa1cd9d7e079248c03934ba79c0aed4aaea0b7d37ccf8c400016","","","",""
"","","","","","html-audio-response","5","202097","0.0-4.0-1.0","B3438ED0E2FF474C932749E7CA9F423D","B3438ED0E2FF474C932749E7CA9F423D","9b0a0774-b22c-4d5e-9cb7-1c2408afe8a5","051c06f1-75cc-4548-856d-4923ddaba0dc","{""num_scrambled_semantic"":""8"",""num_scrambled_causal"":""4"",""num_scrambled_schematic"":""4"",""participantId"":""B3438ED0E2FF474C932749E7CA9F423D"",""assignmentId"":""9b0a0774-b22c-4d5e-9cb7-1c2408afe8a5"",""projectId"":""051c06f1-75cc-4548-856d-4923ddaba0dc""}","https://test12345.live/?num_scrambled_semantic=8&num_scrambled_causal=4&num_scrambled_schematic=4&participantId=B3438ED0E2FF474C932749E7CA9F423D&assignmentId=9b0a0774-b22c-4d5e-9cb7-1c2408afe8a5&projectId=051c06f1-75cc-4548-856d-4923ddaba0dc","B3438ED0E2FF474C932749E7CA9F423D-2025-05-15-18-53-08","","5491","","<span style=""color: red; font-size: 24px""> NOW RECORDING</span>
        <p>Please test Microphone</p>","","3",""
"","","","","","html-button-response","6","203802","0.0-4.0-2.0","B3438ED0E2FF474C932749E7CA9F423D","B3438ED0E2FF474C932749E7CA9F423D","9b0a0774-b22c-4d5e-9cb7-1c2408afe8a5","051c06f1-75cc-4548-856d-4923ddaba0dc","{""num_scrambled_semantic"":""8"",""num_scrambled_causal"":""4"",""num_scrambled_schematic"":""4"",""participantId"":""B3438ED0E2FF474C932749E7CA9F423D"",""assignmentId"":""9b0a0774-b22c-4d5e-9cb7-1c2408afe8a5"",""projectId"":""051c06f1-75cc-4548-856d-4923ddaba0dc""}","https://test12345.live/?num_scrambled_semantic=8&num_scrambled_causal=4&num_scrambled_schematic=4&participantId=B3438ED0E2FF474C932749E7CA9F423D&assignmentId=9b0a0774-b22c-4d5e-9cb7-1c2408afe8a5&projectId=051c06f1-75cc-4548-856d-4923ddaba0dc","B3438ED0E2FF474C932749E7CA9F423D-2025-05-15-18-53-08","","1703","","<p style=""font-size:48px; color:red;"">Is Microphone OK?</p>","1","",""
"","","","","","instructions","7","217335","0.0-5.0","B3438ED0E2FF474C932749E7CA9F423D","B3438ED0E2FF474C932749E7CA9F423D","9b0a0774-b22c-4d5e-9cb7-1c2408afe8a5","051c06f1-75cc-4548-856d-4923ddaba0dc","{""num_scrambled_semantic"":""8"",""num_scrambled_causal"":""4"",""num_scrambled_schematic"":""4"",""participantId"":""B3438ED0E2FF474C932749E7CA9F423D"",""assignmentId"":""9b0a0774-b22c-4d5e-9cb7-1c2408afe8a5"",""projectId"":""051c06f1-75cc-4548-856d-4923ddaba0dc""}","https://test12345.live/?num_scrambled_semantic=8&num_scrambled_causal=4&num_scrambled_schematic=4&participantId=B3438ED0E2FF474C932749E7CA9F423D&assignmentId=9b0a0774-b22c-4d5e-9cb7-1c2408afe8a5&projectId=051c06f1-75cc-4548-856d-4923ddaba0dc","B3438ED0E2FF474C932749E7CA9F423D-2025-05-15-18-53-08","[{""page_index"":0,""viewing_time"":5791},{""page_index"":1,""viewing_time"":7742}]","13533","","","","",""
"","","","","","image-button-response","8","223345","0.0-6.0-0.0","B3438ED0E2FF474C932749E7CA9F423D","B3438ED0E2FF474C932749E7CA9F423D","9b0a0774-b22c-4d5e-9cb7-1c2408afe8a5","051c06f1-75cc-4548-856d-4923ddaba0dc","{""num_scrambled_semantic"":""8"",""num_scrambled_causal"":""4"",""num_scrambled_schematic"":""4"",""participantId"":""B3438ED0E2FF474C932749E7CA9F423D"",""assignmentId"":""9b0a0774-b22c-4d5e-9cb7-1c2408afe8a5"",""projectId"":""051c06f1-75cc-4548-856d-4923ddaba0dc""}","https://test12345.live/?num_scrambled_semantic=8&num_scrambled_causal=4&num_scrambled_schematic=4&participantId=B3438ED0E2FF474C932749E7CA9F423D&assignmentId=9b0a0774-b22c-4d5e-9cb7-1c2408afe8a5&projectId=051c06f1-75cc-4548-856d-4923ddaba0dc","B3438ED0E2FF474C932749E7CA9F423D-2025-05-15-18-53-08","","null","","images/instructions/movie_0.png","null","",""
"","","","","","image-button-response","9","227857","0.0-6.0-1.0-0.0","B3438ED0E2FF474C932749E7CA9F423D","B3438ED0E2FF474C932749E7CA9F423D","9b0a0774-b22c-4d5e-9cb7-1c2408afe8a5","051c06f1-75cc-4548-856d-4923ddaba0dc","{""num_scrambled_semantic"":""8"",""num_scrambled_causal"":""4"",""num_scrambled_schematic"":""4"",""participantId"":""B3438ED0E2FF474C932749E7CA9F423D"",""assignmentId"":""9b0a0774-b22c-4d5e-9cb7-1c2408afe8a5"",""projectId"":""051c06f1-75cc-4548-856d-4923ddaba0dc""}","https://test12345.live/?num_scrambled_semantic=8&num_scrambled_causal=4&num_scrambled_schematic=4&participantId=B3438ED0E2FF474C932749E7CA9F423D&assignmentId=9b0a0774-b22c-4d5e-9cb7-1c2408afe8a5&projectId=051c06f1-75cc-4548-856d-4923ddaba0dc","B3438ED0E2FF474C932749E7CA9F423D-2025-05-15-18-53-08","","null","","images/instructions/movie_1.png","null","",""
"","","","","","image-button-response","10","230705","0.0-6.0-1.0-1.0","B3438ED0E2FF474C932749E7CA9F423D","B3438ED0E2FF474C932749E7CA9F423D","9b0a0774-b22c-4d5e-9cb7-1c2408afe8a5","051c06f1-75cc-4548-856d-4923ddaba0dc","{""num_scrambled_semantic"":""8"",""num_scrambled_causal"":""4"",""num_scrambled_schematic"":""4"",""participantId"":""B3438ED0E2FF474C932749E7CA9F423D"",""assignmentId"":""9b0a0774-b22c-4d5e-9cb7-1c2408afe8a5"",""projectId"":""051c06f1-75cc-4548-856d-4923ddaba0dc""}","https://test12345.live/?num_scrambled_semantic=8&num_scrambled_causal=4&num_scrambled_schematic=4&participantId=B3438ED0E2FF474C932749E7CA9F423D&assignmentId=9b0a0774-b22c-4d5e-9cb7-1c2408afe8a5&projectId=051c06f1-75cc-4548-856d-4923ddaba0dc","B3438ED0E2FF474C932749E7CA9F423D-2025-05-15-18-53-08","","2846","","images/instructions/movie_1.png","0","",""
"","","","","","image-button-response","11","232520","0.0-6.0-1.0-2.0","B3438ED0E2FF474C932749E7CA9F423D","B3438ED0E2FF474C932749E7CA9F423D","9b0a0774-b22c-4d5e-9cb7-1c2408afe8a5","051c06f1-75cc-4548-856d-4923ddaba0dc","{""num_scrambled_semantic"":""8"",""num_scrambled_causal"":""4"",""num_scrambled_schematic"":""4"",""participantId"":""B3438ED0E2FF474C932749E7CA9F423D"",""assignmentId"":""9b0a0774-b22c-4d5e-9cb7-1c2408afe8a5"",""projectId"":""051c06f1-75cc-4548-856d-4923ddaba0dc""}","https://test12345.live/?num_scrambled_semantic=8&num_scrambled_causal=4&num_scrambled_schematic=4&participantId=B3438ED0E2FF474C932749E7CA9F423D&assignmentId=9b0a0774-b22c-4d5e-9cb7-1c2408afe8a5&projectId=051c06f1-75cc-4548-856d-4923ddaba0dc","B3438ED0E2FF474C932749E7CA9F423D-2025-05-15-18-53-08","","null","","[]","null","",""
"","","","","","image-button-response","12","237030","0.0-6.0-1.0-0.1","B3438ED0E2FF474C932749E7CA9F423D","B3438ED0E2FF474C932749E7CA9F423D","9b0a0774-b22c-4d5e-9cb7-1c2408afe8a5","051c06f1-75cc-4548-856d-4923ddaba0dc","{""num_scrambled_semantic"":""8"",""num_scrambled_causal"":""4"",""num_scrambled_schematic"":""4"",""participantId"":""B3438ED0E2FF474C932749E7CA9F423D"",""assignmentId"":""9b0a0774-b22c-4d5e-9cb7-1c2408afe8a5"",""projectId"":""051c06f1-75cc-4548-856d-4923ddaba0dc""}","https://test12345.live/?num_scrambled_semantic=8&num_scrambled_causal=4&num_scrambled_schematic=4&participantId=B3438ED0E2FF474C932749E7CA9F423D&assignmentId=9b0a0774-b22c-4d5e-9cb7-1c2408afe8a5&projectId=051c06f1-75cc-4548-856d-4923ddaba0dc","B3438ED0E2FF474C932749E7CA9F423D-2025-05-15-18-53-08","","null","","images/instructions/movie_2.png","null","",""
"","","","","","image-button-response","13","238631","0.0-6.0-1.0-1.1","B3438ED0E2FF474C932749E7CA9F423D","B3438ED0E2FF474C932749E7CA9F423D","9b0a0774-b22c-4d5e-9cb7-1c2408afe8a5","051c06f1-75cc-4548-856d-4923ddaba0dc","{""num_scrambled_semantic"":""8"",""num_scrambled_causal"":""4"",""num_scrambled_schematic"":""4"",""participantId"":""B3438ED0E2FF474C932749E7CA9F423D"",""assignmentId"":""9b0a0774-b22c-4d5e-9cb7-1c2408afe8a5"",""projectId"":""051c06f1-75cc-4548-856d-4923ddaba0dc""}","https://test12345.live/?num_scrambled_semantic=8&num_scrambled_causal=4&num_scrambled_schematic=4&participantId=B3438ED0E2FF474C932749E7CA9F423D&assignmentId=9b0a0774-b22c-4d5e-9cb7-1c2408afe8a5&projectId=051c06f1-75cc-4548-856d-4923ddaba0dc","B3438ED0E2FF474C932749E7CA9F423D-2025-05-15-18-53-08","","1599","","images/instructions/movie_2.png","0","",""
"","","","","","image-button-response","14","240442","0.0-6.0-1.0-2.1","B3438ED0E2FF474C932749E7CA9F423D","B3438ED0E2FF474C932749E7CA9F423D","9b0a0774-b22c-4d5e-9cb7-1c2408afe8a5","051c06f1-75cc-4548-856d-4923ddaba0dc","{""num_scrambled_semantic"":""8"",""num_scrambled_causal"":""4"",""num_scrambled_schematic"":""4"",""participantId"":""B3438ED0E2FF474C932749E7CA9F423D"",""assignmentId"":""9b0a0774-b22c-4d5e-9cb7-1c2408afe8a5"",""projectId"":""051c06f1-75cc-4548-856d-4923ddaba0dc""}","https://test12345.live/?num_scrambled_semantic=8&num_scrambled_causal=4&num_scrambled_schematic=4&participantId=B3438ED0E2FF474C932749E7CA9F423D&assignmentId=9b0a0774-b22c-4d5e-9cb7-1c2408afe8a5&projectId=051c06f1-75cc-4548-856d-4923ddaba0dc","B3438ED0E2FF474C932749E7CA9F423D-2025-05-15-18-53-08","","null","","[]","null","",""
"","","","","","image-button-response","15","244950","0.0-6.0-1.0-0.2","B3438ED0E2FF474C932749E7CA9F423D","B3438ED0E2FF474C932749E7CA9F423D","9b0a0774-b22c-4d5e-9cb7-1c2408afe8a5","051c06f1-75cc-4548-856d-4923ddaba0dc","{""num_scrambled_semantic"":""8"",""num_scrambled_causal"":""4"",""num_scrambled_schematic"":""4"",""participantId"":""B3438ED0E2FF474C932749E7CA9F423D"",""assignmentId"":""9b0a0774-b22c-4d5e-9cb7-1c2408afe8a5"",""projectId"":""051c06f1-75cc-4548-856d-4923ddaba0dc""}","https://test12345.live/?num_scrambled_semantic=8&num_scrambled_causal=4&num_scrambled_schematic=4&participantId=B3438ED0E2FF474C932749E7CA9F423D&assignmentId=9b0a0774-b22c-4d5e-9cb7-1c2408afe8a5&projectId=051c06f1-75cc-4548-856d-4923ddaba0dc","B3438ED0E2FF474C932749E7CA9F423D-2025-05-15-18-53-08","","null","","images/instructions/movie_3.png","null","",""
"","","","","","image-button-response","16","246021","0.0-6.0-1.0-1.2","B3438ED0E2FF474C932749E7CA9F423D","B3438ED0E2FF474C932749E7CA9F423D","9b0a0774-b22c-4d5e-9cb7-1c2408afe8a5","051c06f1-75cc-4548-856d-4923ddaba0dc","{""num_scrambled_semantic"":""8"",""num_scrambled_causal"":""4"",""num_scrambled_schematic"":""4"",""participantId"":""B3438ED0E2FF474C932749E7CA9F423D"",""assignmentId"":""9b0a0774-b22c-4d5e-9cb7-1c2408afe8a5"",""projectId"":""051c06f1-75cc-4548-856d-4923ddaba0dc""}","https://test12345.live/?num_scrambled_semantic=8&num_scrambled_causal=4&num_scrambled_schematic=4&participantId=B3438ED0E2FF474C932749E7CA9F423D&assignmentId=9b0a0774-b22c-4d5e-9cb7-1c2408afe8a5&projectId=051c06f1-75cc-4548-856d-4923ddaba0dc","B3438ED0E2FF474C932749E7CA9F423D-2025-05-15-18-53-08","","1069","","images/instructions/movie_3.png","0","",""
"","","","","","image-button-response","17","247823","0.0-6.0-1.0-2.2","B3438ED0E2FF474C932749E7CA9F423D","B3438ED0E2FF474C932749E7CA9F423D","9b0a0774-b22c-4d5e-9cb7-1c2408afe8a5","051c06f1-75cc-4548-856d-4923ddaba0dc","{""num_scrambled_semantic"":""8"",""num_scrambled_causal"":""4"",""num_scrambled_schematic"":""4"",""participantId"":""B3438ED0E2FF474C932749E7CA9F423D"",""assignmentId"":""9b0a0774-b22c-4d5e-9cb7-1c2408afe8a5"",""projectId"":""051c06f1-75cc-4548-856d-4923ddaba0dc""}","https://test12345.live/?num_scrambled_semantic=8&num_scrambled_causal=4&num_scrambled_schematic=4&participantId=B3438ED0E2FF474C932749E7CA9F423D&assignmentId=9b0a0774-b22c-4d5e-9cb7-1c2408afe8a5&projectId=051c06f1-75cc-4548-856d-4923ddaba0dc","B3438ED0E2FF474C932749E7CA9F423D-2025-05-15-18-53-08","","null","","[]","null","",""
"","","","","","image-button-response","18","252330","0.0-6.0-1.0-0.3","B3438ED0E2FF474C932749E7CA9F423D","B3438ED0E2FF474C932749E7CA9F423D","9b0a0774-b22c-4d5e-9cb7-1c2408afe8a5","051c06f1-75cc-4548-856d-4923ddaba0dc","{""num_scrambled_semantic"":""8"",""num_scrambled_causal"":""4"",""num_scrambled_schematic"":""4"",""participantId"":""B3438ED0E2FF474C932749E7CA9F423D"",""assignmentId"":""9b0a0774-b22c-4d5e-9cb7-1c2408afe8a5"",""projectId"":""051c06f1-75cc-4548-856d-4923ddaba0dc""}","https://test12345.live/?num_scrambled_semantic=8&num_scrambled_causal=4&num_scrambled_schematic=4&participantId=B3438ED0E2FF474C932749E7CA9F423D&assignmentId=9b0a0774-b22c-4d5e-9cb7-1c2408afe8a5&projectId=051c06f1-75cc-4548-856d-4923ddaba0dc","B3438ED0E2FF474C932749E7CA9F423D-2025-05-15-18-53-08","","null","","images/instructions/movie_4.png","null","",""
"","","","","","image-button-response","19","253623","0.0-6.0-1.0-1.3","B3438ED0E2FF474C932749E7CA9F423D","B3438ED0E2FF474C932749E7CA9F423D","9b0a0774-b22c-4d5e-9cb7-1c2408afe8a5","051c06f1-75cc-4548-856d-4923ddaba0dc","{""num_scrambled_semantic"":""8"",""num_scrambled_causal"":""4"",""num_scrambled_schematic"":""4"",""participantId"":""B3438ED0E2FF474C932749E7CA9F423D"",""assignmentId"":""9b0a0774-b22c-4d5e-9cb7-1c2408afe8a5"",""projectId"":""051c06f1-75cc-4548-856d-4923ddaba0dc""}","https://test12345.live/?num_scrambled_semantic=8&num_scrambled_causal=4&num_scrambled_schematic=4&participantId=B3438ED0E2FF474C932749E7CA9F423D&assignmentId=9b0a0774-b22c-4d5e-9cb7-1c2408afe8a5&projectId=051c06f1-75cc-4548-856d-4923ddaba0dc","B3438ED0E2FF474C932749E7CA9F423D-2025-05-15-18-53-08","","1291","","images/instructions/movie_4.png","0","",""
"","","","","","image-button-response","20","255433","0.0-6.0-1.0-2.3","B3438ED0E2FF474C932749E7CA9F423D","B3438ED0E2FF474C932749E7CA9F423D","9b0a0774-b22c-4d5e-9cb7-1c2408afe8a5","051c06f1-75cc-4548-856d-4923ddaba0dc","{""num_scrambled_semantic"":""8"",""num_scrambled_causal"":""4"",""num_scrambled_schematic"":""4"",""participantId"":""B3438ED0E2FF474C932749E7CA9F423D"",""assignmentId"":""9b0a0774-b22c-4d5e-9cb7-1c2408afe8a5"",""projectId"":""051c06f1-75cc-4548-856d-4923ddaba0dc""}","https://test12345.live/?num_scrambled_semantic=8&num_scrambled_causal=4&num_scrambled_schematic=4&participantId=B3438ED0E2FF474C932749E7CA9F423D&assignmentId=9b0a0774-b22c-4d5e-9cb7-1c2408afe8a5&projectId=051c06f1-75cc-4548-856d-4923ddaba0dc","B3438ED0E2FF474C932749E7CA9F423D-2025-05-15-18-53-08","","null","","[]","null","",""
"","","","","","instructions","21","267075","0.0-7.0","B3438ED0E2FF474C932749E7CA9F423D","B3438ED0E2FF474C932749E7CA9F423D","9b0a0774-b22c-4d5e-9cb7-1c2408afe8a5","051c06f1-75cc-4548-856d-4923ddaba0dc","{""num_scrambled_semantic"":""8"",""num_scrambled_causal"":""4"",""num_scrambled_schematic"":""4"",""participantId"":""B3438ED0E2FF474C932749E7CA9F423D"",""assignmentId"":""9b0a0774-b22c-4d5e-9cb7-1c2408afe8a5"",""projectId"":""051c06f1-75cc-4548-856d-4923ddaba0dc""}","https://test12345.live/?num_scrambled_semantic=8&num_scrambled_causal=4&num_scrambled_schematic=4&participantId=B3438ED0E2FF474C932749E7CA9F423D&assignmentId=9b0a0774-b22c-4d5e-9cb7-1c2408afe8a5&projectId=051c06f1-75cc-4548-856d-4923ddaba0dc","B3438ED0E2FF474C932749E7CA9F423D-2025-05-15-18-53-08","[{""page_index"":0,""viewing_time"":10646},{""page_index"":1,""viewing_time"":994}]","11641","","","","",""
"","","","","","html-audio-response","22","287299","0.0-8.0","B3438ED0E2FF474C932749E7CA9F423D","B3438ED0E2FF474C932749E7CA9F423D","9b0a0774-b22c-4d5e-9cb7-1c2408afe8a5","051c06f1-75cc-4548-856d-4923ddaba0dc","{""num_scrambled_semantic"":""8"",""num_scrambled_causal"":""4"",""num_scrambled_schematic"":""4"",""participantId"":""B3438ED0E2FF474C932749E7CA9F423D"",""assignmentId"":""9b0a0774-b22c-4d5e-9cb7-1c2408afe8a5"",""projectId"":""051c06f1-75cc-4548-856d-4923ddaba0dc""}","https://test12345.live/?num_scrambled_semantic=8&num_scrambled_causal=4&num_scrambled_schematic=4&participantId=B3438ED0E2FF474C932749E7CA9F423D&assignmentId=9b0a0774-b22c-4d5e-9cb7-1c2408afe8a5&projectId=051c06f1-75cc-4548-856d-4923ddaba0dc","B3438ED0E2FF474C932749E7CA9F423D-2025-05-15-18-53-08","","9379","","[""<span style=\""color: red; font-size: 24px\""> NOW RECORDING</span><p>Please say out loud all the images you saw, as many as you can remember. The images can be said in any order.</p>""]","","2",""
"","","","","","instructions","23","288959","0.0-9.0","B3438ED0E2FF474C932749E7CA9F423D","B3438ED0E2FF474C932749E7CA9F423D","9b0a0774-b22c-4d5e-9cb7-1c2408afe8a5","051c06f1-75cc-4548-856d-4923ddaba0dc","{""num_scrambled_semantic"":""8"",""num_scrambled_causal"":""4"",""num_scrambled_schematic"":""4"",""participantId"":""B3438ED0E2FF474C932749E7CA9F423D"",""assignmentId"":""9b0a0774-b22c-4d5e-9cb7-1c2408afe8a5"",""projectId"":""051c06f1-75cc-4548-856d-4923ddaba0dc""}","https://test12345.live/?num_scrambled_semantic=8&num_scrambled_causal=4&num_scrambled_schematic=4&participantId=B3438ED0E2FF474C932749E7CA9F423D&assignmentId=9b0a0774-b22c-4d5e-9cb7-1c2408afe8a5&projectId=051c06f1-75cc-4548-856d-4923ddaba0dc","B3438ED0E2FF474C932749E7CA9F423D-2025-05-15-18-53-08","[{""page_index"":0,""viewing_time"":1656}]","1656","","","","",""
"","","","","","image-button-response","24","294968","0.0-10.0-0.0","B3438ED0E2FF474C932749E7CA9F423D","B3438ED0E2FF474C932749E7CA9F423D","9b0a0774-b22c-4d5e-9cb7-1c2408afe8a5","051c06f1-75cc-4548-856d-4923ddaba0dc","{""num_scrambled_semantic"":""8"",""num_scrambled_causal"":""4"",""num_scrambled_schematic"":""4"",""participantId"":""B3438ED0E2FF474C932749E7CA9F423D"",""assignmentId"":""9b0a0774-b22c-4d5e-9cb7-1c2408afe8a5"",""projectId"":""051c06f1-75cc-4548-856d-4923ddaba0dc""}","https://test12345.live/?num_scrambled_semantic=8&num_scrambled_causal=4&num_scrambled_schematic=4&participantId=B3438ED0E2FF474C932749E7CA9F423D&assignmentId=9b0a0774-b22c-4d5e-9cb7-1c2408afe8a5&projectId=051c06f1-75cc-4548-856d-4923ddaba0dc","B3438ED0E2FF474C932749E7CA9F423D-2025-05-15-18-53-08","","null","","images/semantic_sequence/cat_care_semantic/cat_care_semantic_0.png","null","",""
"","","","","","image-button-response","25","299479","0.0-10.0-1.0-0.0","B3438ED0E2FF474C932749E7CA9F423D","B3438ED0E2FF474C932749E7CA9F423D","9b0a0774-b22c-4d5e-9cb7-1c2408afe8a5","051c06f1-75cc-4548-856d-4923ddaba0dc","{""num_scrambled_semantic"":""8"",""num_scrambled_causal"":""4"",""num_scrambled_schematic"":""4"",""participantId"":""B3438ED0E2FF474C932749E7CA9F423D"",""assignmentId"":""9b0a0774-b22c-4d5e-9cb7-1c2408afe8a5"",""projectId"":""051c06f1-75cc-4548-856d-4923ddaba0dc""}","https://test12345.live/?num_scrambled_semantic=8&num_scrambled_causal=4&num_scrambled_schematic=4&participantId=B3438ED0E2FF474C932749E7CA9F423D&assignmentId=9b0a0774-b22c-4d5e-9cb7-1c2408afe8a5&projectId=051c06f1-75cc-4548-856d-4923ddaba0dc","B3438ED0E2FF474C932749E7CA9F423D-2025-05-15-18-53-08","","null","","images/semantic_sequence/cat_care_semantic/cat_care_semantic_4.png","null","",""
"","","","","","image-button-response","26","303483","0.0-10.0-1.0-1.0","B3438ED0E2FF474C932749E7CA9F423D","B3438ED0E2FF474C932749E7CA9F423D","9b0a0774-b22c-4d5e-9cb7-1c2408afe8a5","051c06f1-75cc-4548-856d-4923ddaba0dc","{""num_scrambled_semantic"":""8"",""num_scrambled_causal"":""4"",""num_scrambled_schematic"":""4"",""participantId"":""B3438ED0E2FF474C932749E7CA9F423D"",""assignmentId"":""9b0a0774-b22c-4d5e-9cb7-1c2408afe8a5"",""projectId"":""051c06f1-75cc-4548-856d-4923ddaba0dc""}","https://test12345.live/?num_scrambled_semantic=8&num_scrambled_causal=4&num_scrambled_schematic=4&participantId=B3438ED0E2FF474C932749E7CA9F423D&assignmentId=9b0a0774-b22c-4d5e-9cb7-1c2408afe8a5&projectId=051c06f1-75cc-4548-856d-4923ddaba0dc","B3438ED0E2FF474C932749E7CA9F423D-2025-05-15-18-53-08","","null","","images/semantic_sequence/cat_care_semantic/cat_care_semantic_4.png","null","",""
"","","","","","image-button-response","27","305285","0.0-10.0-1.0-2.0","B3438ED0E2FF474C932749E7CA9F423D","B3438ED0E2FF474C932749E7CA9F423D","9b0a0774-b22c-4d5e-9cb7-1c2408afe8a5","051c06f1-75cc-4548-856d-4923ddaba0dc","{""num_scrambled_semantic"":""8"",""num_scrambled_causal"":""4"",""num_scrambled_schematic"":""4"",""participantId"":""B3438ED0E2FF474C932749E7CA9F423D"",""assignmentId"":""9b0a0774-b22c-4d5e-9cb7-1c2408afe8a5"",""projectId"":""051c06f1-75cc-4548-856d-4923ddaba0dc""}","https://test12345.live/?num_scrambled_semantic=8&num_scrambled_causal=4&num_scrambled_schematic=4&participantId=B3438ED0E2FF474C932749E7CA9F423D&assignmentId=9b0a0774-b22c-4d5e-9cb7-1c2408afe8a5&projectId=051c06f1-75cc-4548-856d-4923ddaba0dc","B3438ED0E2FF474C932749E7CA9F423D-2025-05-15-18-53-08","","null","","[]","null","",""
"","","","","","image-button-response","28","309793","0.0-10.0-1.0-0.1","B3438ED0E2FF474C932749E7CA9F423D","B3438ED0E2FF474C932749E7CA9F423D","9b0a0774-b22c-4d5e-9cb7-1c2408afe8a5","051c06f1-75cc-4548-856d-4923ddaba0dc","{""num_scrambled_semantic"":""8"",""num_scrambled_causal"":""4"",""num_scrambled_schematic"":""4"",""participantId"":""B3438ED0E2FF474C932749E7CA9F423D"",""assignmentId"":""9b0a0774-b22c-4d5e-9cb7-1c2408afe8a5"",""projectId"":""051c06f1-75cc-4548-856d-4923ddaba0dc""}","https://test12345.live/?num_scrambled_semantic=8&num_scrambled_causal=4&num_scrambled_schematic=4&participantId=B3438ED0E2FF474C932749E7CA9F423D&assignmentId=9b0a0774-b22c-4d5e-9cb7-1c2408afe8a5&projectId=051c06f1-75cc-4548-856d-4923ddaba0dc","B3438ED0E2FF474C932749E7CA9F423D-2025-05-15-18-53-08","","null","","images/semantic_sequence/cat_care_semantic/cat_care_semantic_5.png","null","",""
"","","","","","image-button-response","29","310865","0.0-10.0-1.0-1.1","B3438ED0E2FF474C932749E7CA9F423D","B3438ED0E2FF474C932749E7CA9F423D","9b0a0774-b22c-4d5e-9cb7-1c2408afe8a5","051c06f1-75cc-4548-856d-4923ddaba0dc","{""num_scrambled_semantic"":""8"",""num_scrambled_causal"":""4"",""num_scrambled_schematic"":""4"",""participantId"":""B3438ED0E2FF474C932749E7CA9F423D"",""assignmentId"":""9b0a0774-b22c-4d5e-9cb7-1c2408afe8a5"",""projectId"":""051c06f1-75cc-4548-856d-4923ddaba0dc""}","https://test12345.live/?num_scrambled_semantic=8&num_scrambled_causal=4&num_scrambled_schematic=4&participantId=B3438ED0E2FF474C932749E7CA9F423D&assignmentId=9b0a0774-b22c-4d5e-9cb7-1c2408afe8a5&projectId=051c06f1-75cc-4548-856d-4923ddaba0dc","B3438ED0E2FF474C932749E7CA9F423D-2025-05-15-18-53-08","","1071","","images/semantic_sequence/cat_care_semantic/cat_care_semantic_5.png","0","",""
"","","","","","image-button-response","30","312671","0.0-10.0-1.0-2.1","B3438ED0E2FF474C932749E7CA9F423D","B3438ED0E2FF474C932749E7CA9F423D","9b0a0774-b22c-4d5e-9cb7-1c2408afe8a5","051c06f1-75cc-4548-856d-4923ddaba0dc","{""num_scrambled_semantic"":""8"",""num_scrambled_causal"":""4"",""num_scrambled_schematic"":""4"",""participantId"":""B3438ED0E2FF474C932749E7CA9F423D"",""assignmentId"":""9b0a0774-b22c-4d5e-9cb7-1c2408afe8a5"",""projectId"":""051c06f1-75cc-4548-856d-4923ddaba0dc""}","https://test12345.live/?num_scrambled_semantic=8&num_scrambled_causal=4&num_scrambled_schematic=4&participantId=B3438ED0E2FF474C932749E7CA9F423D&assignmentId=9b0a0774-b22c-4d5e-9cb7-1c2408afe8a5&projectId=051c06f1-75cc-4548-856d-4923ddaba0dc","B3438ED0E2FF474C932749E7CA9F423D-2025-05-15-18-53-08","","null","","[]","null","",""
"","","","","","image-button-response","31","317187","0.0-10.0-1.0-0.2","B3438ED0E2FF474C932749E7CA9F423D","B3438ED0E2FF474C932749E7CA9F423D","9b0a0774-b22c-4d5e-9cb7-1c2408afe8a5","051c06f1-75cc-4548-856d-4923ddaba0dc","{""num_scrambled_semantic"":""8"",""num_scrambled_causal"":""4"",""num_scrambled_schematic"":""4"",""participantId"":""B3438ED0E2FF474C932749E7CA9F423D"",""assignmentId"":""9b0a0774-b22c-4d5e-9cb7-1c2408afe8a5"",""projectId"":""051c06f1-75cc-4548-856d-4923ddaba0dc""}","https://test12345.live/?num_scrambled_semantic=8&num_scrambled_causal=4&num_scrambled_schematic=4&participantId=B3438ED0E2FF474C932749E7CA9F423D&assignmentId=9b0a0774-b22c-4d5e-9cb7-1c2408afe8a5&projectId=051c06f1-75cc-4548-856d-4923ddaba0dc","B3438ED0E2FF474C932749E7CA9F423D-2025-05-15-18-53-08","","null","","images/semantic_sequence/cat_care_semantic/cat_care_semantic_6.png","null","",""
"","","","","","image-button-response","32","317893","0.0-10.0-1.0-1.2","B3438ED0E2FF474C932749E7CA9F423D","B3438ED0E2FF474C932749E7CA9F423D","9b0a0774-b22c-4d5e-9cb7-1c2408afe8a5","051c06f1-75cc-4548-856d-4923ddaba0dc","{""num_scrambled_semantic"":""8"",""num_scrambled_causal"":""4"",""num_scrambled_schematic"":""4"",""participantId"":""B3438ED0E2FF474C932749E7CA9F423D"",""assignmentId"":""9b0a0774-b22c-4d5e-9cb7-1c2408afe8a5"",""projectId"":""051c06f1-75cc-4548-856d-4923ddaba0dc""}","https://test12345.live/?num_scrambled_semantic=8&num_scrambled_causal=4&num_scrambled_schematic=4&participantId=B3438ED0E2FF474C932749E7CA9F423D&assignmentId=9b0a0774-b22c-4d5e-9cb7-1c2408afe8a5&projectId=051c06f1-75cc-4548-856d-4923ddaba0dc","B3438ED0E2FF474C932749E7CA9F423D-2025-05-15-18-53-08","","705","","images/semantic_sequence/cat_care_semantic/cat_care_semantic_6.png","0","",""
"","","","","","image-button-response","33","319707","0.0-10.0-1.0-2.2","B3438ED0E2FF474C932749E7CA9F423D","B3438ED0E2FF474C932749E7CA9F423D","9b0a0774-b22c-4d5e-9cb7-1c2408afe8a5","051c06f1-75cc-4548-856d-4923ddaba0dc","{""num_scrambled_semantic"":""8"",""num_scrambled_causal"":""4"",""num_scrambled_schematic"":""4"",""participantId"":""B3438ED0E2FF474C932749E7CA9F423D"",""assignmentId"":""9b0a0774-b22c-4d5e-9cb7-1c2408afe8a5"",""projectId"":""051c06f1-75cc-4548-856d-4923ddaba0dc""}","https://test12345.live/?num_scrambled_semantic=8&num_scrambled_causal=4&num_scrambled_schematic=4&participantId=B3438ED0E2FF474C932749E7CA9F423D&assignmentId=9b0a0774-b22c-4d5e-9cb7-1c2408afe8a5&projectId=051c06f1-75cc-4548-856d-4923ddaba0dc","B3438ED0E2FF474C932749E7CA9F423D-2025-05-15-18-53-08","","null","","[]","null","",""
"","","","","","image-button-response","34","324213","0.0-10.0-1.0-0.3","B3438ED0E2FF474C932749E7CA9F423D","B3438ED0E2FF474C932749E7CA9F423D","9b0a0774-b22c-4d5e-9cb7-1c2408afe8a5","051c06f1-75cc-4548-856d-4923ddaba0dc","{""num_scrambled_semantic"":""8"",""num_scrambled_causal"":""4"",""num_scrambled_schematic"":""4"",""participantId"":""B3438ED0E2FF474C932749E7CA9F423D"",""assignmentId"":""9b0a0774-b22c-4d5e-9cb7-1c2408afe8a5"",""projectId"":""051c06f1-75cc-4548-856d-4923ddaba0dc""}","https://test12345.live/?num_scrambled_semantic=8&num_scrambled_causal=4&num_scrambled_schematic=4&participantId=B3438ED0E2FF474C932749E7CA9F423D&assignmentId=9b0a0774-b22c-4d5e-9cb7-1c2408afe8a5&projectId=051c06f1-75cc-4548-856d-4923ddaba0dc","B3438ED0E2FF474C932749E7CA9F423D-2025-05-15-18-53-08","","null","","images/semantic_sequence/cat_care_semantic/cat_care_semantic_2.png","null","",""
"","","","","","image-button-response","35","325039","0.0-10.0-1.0-1.3","B3438ED0E2FF474C932749E7CA9F423D","B3438ED0E2FF474C932749E7CA9F423D","9b0a0774-b22c-4d5e-9cb7-1c2408afe8a5","051c06f1-75cc-4548-856d-4923ddaba0dc","{""num_scrambled_semantic"":""8"",""num_scrambled_causal"":""4"",""num_scrambled_schematic"":""4"",""participantId"":""B3438ED0E2FF474C932749E7CA9F423D"",""assignmentId"":""9b0a0774-b22c-4d5e-9cb7-1c2408afe8a5"",""projectId"":""051c06f1-75cc-4548-856d-4923ddaba0dc""}","https://test12345.live/?num_scrambled_semantic=8&num_scrambled_causal=4&num_scrambled_schematic=4&participantId=B3438ED0E2FF474C932749E7CA9F423D&assignmentId=9b0a0774-b22c-4d5e-9cb7-1c2408afe8a5&projectId=051c06f1-75cc-4548-856d-4923ddaba0dc","B3438ED0E2FF474C932749E7CA9F423D-2025-05-15-18-53-08","","825","","images/semantic_sequence/cat_care_semantic/cat_care_semantic_2.png","0","",""
"","","","","","image-button-response","36","326843","0.0-10.0-1.0-2.3","B3438ED0E2FF474C932749E7CA9F423D","B3438ED0E2FF474C932749E7CA9F423D","9b0a0774-b22c-4d5e-9cb7-1c2408afe8a5","051c06f1-75cc-4548-856d-4923ddaba0dc","{""num_scrambled_semantic"":""8"",""num_scrambled_causal"":""4"",""num_scrambled_schematic"":""4"",""participantId"":""B3438ED0E2FF474C932749E7CA9F423D"",""assignmentId"":""9b0a0774-b22c-4d5e-9cb7-1c2408afe8a5"",""projectId"":""051c06f1-75cc-4548-856d-4923ddaba0dc""}","https://test12345.live/?num_scrambled_semantic=8&num_scrambled_causal=4&num_scrambled_schematic=4&participantId=B3438ED0E2FF474C932749E7CA9F423D&assignmentId=9b0a0774-b22c-4d5e-9cb7-1c2408afe8a5&projectId=051c06f1-75cc-4548-856d-4923ddaba0dc","B3438ED0E2FF474C932749E7CA9F423D-2025-05-15-18-53-08","","null","","[]","null","",""
"","","","","","image-button-response","37","331347","0.0-10.0-1.0-0.4","B3438ED0E2FF474C932749E7CA9F423D","B3438ED0E2FF474C932749E7CA9F423D","9b0a0774-b22c-4d5e-9cb7-1c2408afe8a5","051c06f1-75cc-4548-856d-4923ddaba0dc","{""num_scrambled_semantic"":""8"",""num_scrambled_causal"":""4"",""num_scrambled_schematic"":""4"",""participantId"":""B3438ED0E2FF474C932749E7CA9F423D"",""assignmentId"":""9b0a0774-b22c-4d5e-9cb7-1c2408afe8a5"",""projectId"":""051c06f1-75cc-4548-856d-4923ddaba0dc""}","https://test12345.live/?num_scrambled_semantic=8&num_scrambled_causal=4&num_scrambled_schematic=4&participantId=B3438ED0E2FF474C932749E7CA9F423D&assignmentId=9b0a0774-b22c-4d5e-9cb7-1c2408afe8a5&projectId=051c06f1-75cc-4548-856d-4923ddaba0dc","B3438ED0E2FF474C932749E7CA9F423D-2025-05-15-18-53-08","","null","","images/semantic_sequence/cat_care_semantic/cat_care_semantic_8.png","null","",""
"","","","","","image-button-response","38","332475","0.0-10.0-1.0-1.4","B3438ED0E2FF474C932749E7CA9F423D","B3438ED0E2FF474C932749E7CA9F423D","9b0a0774-b22c-4d5e-9cb7-1c2408afe8a5","051c06f1-75cc-4548-856d-4923ddaba0dc","{""num_scrambled_semantic"":""8"",""num_scrambled_causal"":""4"",""num_scrambled_schematic"":""4"",""participantId"":""B3438ED0E2FF474C932749E7CA9F423D"",""assignmentId"":""9b0a0774-b22c-4d5e-9cb7-1c2408afe8a5"",""projectId"":""051c06f1-75cc-4548-856d-4923ddaba0dc""}","https://test12345.live/?num_scrambled_semantic=8&num_scrambled_causal=4&num_scrambled_schematic=4&participantId=B3438ED0E2FF474C932749E7CA9F423D&assignmentId=9b0a0774-b22c-4d5e-9cb7-1c2408afe8a5&projectId=051c06f1-75cc-4548-856d-4923ddaba0dc","B3438ED0E2FF474C932749E7CA9F423D-2025-05-15-18-53-08","","1127","","images/semantic_sequence/cat_care_semantic/cat_care_semantic_8.png","0","",""
"","","","","","image-button-response","39","334286","0.0-10.0-1.0-2.4","B3438ED0E2FF474C932749E7CA9F423D","B3438ED0E2FF474C932749E7CA9F423D","9b0a0774-b22c-4d5e-9cb7-1c2408afe8a5","051c06f1-75cc-4548-856d-4923ddaba0dc","{""num_scrambled_semantic"":""8"",""num_scrambled_causal"":""4"",""num_scrambled_schematic"":""4"",""participantId"":""B3438ED0E2FF474C932749E7CA9F423D"",""assignmentId"":""9b0a0774-b22c-4d5e-9cb7-1c2408afe8a5"",""projectId"":""051c06f1-75cc-4548-856d-4923ddaba0dc""}","https://test12345.live/?num_scrambled_semantic=8&num_scrambled_causal=4&num_scrambled_schematic=4&participantId=B3438ED0E2FF474C932749E7CA9F423D&assignmentId=9b0a0774-b22c-4d5e-9cb7-1c2408afe8a5&projectId=051c06f1-75cc-4548-856d-4923ddaba0dc","B3438ED0E2FF474C932749E7CA9F423D-2025-05-15-18-53-08","","null","","[]","null","",""
"","","","","","image-button-response","40","338797","0.0-10.0-1.0-0.5","B3438ED0E2FF474C932749E7CA9F423D","B3438ED0E2FF474C932749E7CA9F423D","9b0a0774-b22c-4d5e-9cb7-1c2408afe8a5","051c06f1-75cc-4548-856d-4923ddaba0dc","{""num_scrambled_semantic"":""8"",""num_scrambled_causal"":""4"",""num_scrambled_schematic"":""4"",""participantId"":""B3438ED0E2FF474C932749E7CA9F423D"",""assignmentId"":""9b0a0774-b22c-4d5e-9cb7-1c2408afe8a5"",""projectId"":""051c06f1-75cc-4548-856d-4923ddaba0dc""}","https://test12345.live/?num_scrambled_semantic=8&num_scrambled_causal=4&num_scrambled_schematic=4&participantId=B3438ED0E2FF474C932749E7CA9F423D&assignmentId=9b0a0774-b22c-4d5e-9cb7-1c2408afe8a5&projectId=051c06f1-75cc-4548-856d-4923ddaba0dc","B3438ED0E2FF474C932749E7CA9F423D-2025-05-15-18-53-08","","null","","images/semantic_sequence/cat_care_semantic/cat_care_semantic_ten.png","null","",""
"","","","","","image-button-response","41","339501","0.0-10.0-1.0-1.5","B3438ED0E2FF474C932749E7CA9F423D","B3438ED0E2FF474C932749E7CA9F423D","9b0a0774-b22c-4d5e-9cb7-1c2408afe8a5","051c06f1-75cc-4548-856d-4923ddaba0dc","{""num_scrambled_semantic"":""8"",""num_scrambled_causal"":""4"",""num_scrambled_schematic"":""4"",""participantId"":""B3438ED0E2FF474C932749E7CA9F423D"",""assignmentId"":""9b0a0774-b22c-4d5e-9cb7-1c2408afe8a5"",""projectId"":""051c06f1-75cc-4548-856d-4923ddaba0dc""}","https://test12345.live/?num_scrambled_semantic=8&num_scrambled_causal=4&num_scrambled_schematic=4&participantId=B3438ED0E2FF474C932749E7CA9F423D&assignmentId=9b0a0774-b22c-4d5e-9cb7-1c2408afe8a5&projectId=051c06f1-75cc-4548-856d-4923ddaba0dc","B3438ED0E2FF474C932749E7CA9F423D-2025-05-15-18-53-08","","703","","images/semantic_sequence/cat_care_semantic/cat_care_semantic_ten.png","0","",""
"","","","","","image-button-response","42","341307","0.0-10.0-1.0-2.5","B3438ED0E2FF474C932749E7CA9F423D","B3438ED0E2FF474C932749E7CA9F423D","9b0a0774-b22c-4d5e-9cb7-1c2408afe8a5","051c06f1-75cc-4548-856d-4923ddaba0dc","{""num_scrambled_semantic"":""8"",""num_scrambled_causal"":""4"",""num_scrambled_schematic"":""4"",""participantId"":""B3438ED0E2FF474C932749E7CA9F423D"",""assignmentId"":""9b0a0774-b22c-4d5e-9cb7-1c2408afe8a5"",""projectId"":""051c06f1-75cc-4548-856d-4923ddaba0dc""}","https://test12345.live/?num_scrambled_semantic=8&num_scrambled_causal=4&num_scrambled_schematic=4&participantId=B3438ED0E2FF474C932749E7CA9F423D&assignmentId=9b0a0774-b22c-4d5e-9cb7-1c2408afe8a5&projectId=051c06f1-75cc-4548-856d-4923ddaba0dc","B3438ED0E2FF474C932749E7CA9F423D-2025-05-15-18-53-08","","null","","[]","null","",""
"","","","","","image-button-response","43","345810","0.0-10.0-1.0-0.6","B3438ED0E2FF474C932749E7CA9F423D","B3438ED0E2FF474C932749E7CA9F423D","9b0a0774-b22c-4d5e-9cb7-1c2408afe8a5","051c06f1-75cc-4548-856d-4923ddaba0dc","{""num_scrambled_semantic"":""8"",""num_scrambled_causal"":""4"",""num_scrambled_schematic"":""4"",""participantId"":""B3438ED0E2FF474C932749E7CA9F423D"",""assignmentId"":""9b0a0774-b22c-4d5e-9cb7-1c2408afe8a5"",""projectId"":""051c06f1-75cc-4548-856d-4923ddaba0dc""}","https://test12345.live/?num_scrambled_semantic=8&num_scrambled_causal=4&num_scrambled_schematic=4&participantId=B3438ED0E2FF474C932749E7CA9F423D&assignmentId=9b0a0774-b22c-4d5e-9cb7-1c2408afe8a5&projectId=051c06f1-75cc-4548-856d-4923ddaba0dc","B3438ED0E2FF474C932749E7CA9F423D-2025-05-15-18-53-08","","null","","images/semantic_sequence/cat_care_semantic/cat_care_semantic_3.png","null","",""
"","","","","","image-button-response","44","346512","0.0-10.0-1.0-1.6","B3438ED0E2FF474C932749E7CA9F423D","B3438ED0E2FF474C932749E7CA9F423D","9b0a0774-b22c-4d5e-9cb7-1c2408afe8a5","051c06f1-75cc-4548-856d-4923ddaba0dc","{""num_scrambled_semantic"":""8"",""num_scrambled_causal"":""4"",""num_scrambled_schematic"":""4"",""participantId"":""B3438ED0E2FF474C932749E7CA9F423D"",""assignmentId"":""9b0a0774-b22c-4d5e-9cb7-1c2408afe8a5"",""projectId"":""051c06f1-75cc-4548-856d-4923ddaba0dc""}","https://test12345.live/?num_scrambled_semantic=8&num_scrambled_causal=4&num_scrambled_schematic=4&participantId=B3438ED0E2FF474C932749E7CA9F423D&assignmentId=9b0a0774-b22c-4d5e-9cb7-1c2408afe8a5&projectId=051c06f1-75cc-4548-856d-4923ddaba0dc","B3438ED0E2FF474C932749E7CA9F423D-2025-05-15-18-53-08","","701","","images/semantic_sequence/cat_care_semantic/cat_care_semantic_3.png","0","",""
"","","","","","image-button-response","45","348322","0.0-10.0-1.0-2.6","B3438ED0E2FF474C932749E7CA9F423D","B3438ED0E2FF474C932749E7CA9F423D","9b0a0774-b22c-4d5e-9cb7-1c2408afe8a5","051c06f1-75cc-4548-856d-4923ddaba0dc","{""num_scrambled_semantic"":""8"",""num_scrambled_causal"":""4"",""num_scrambled_schematic"":""4"",""participantId"":""B3438ED0E2FF474C932749E7CA9F423D"",""assignmentId"":""9b0a0774-b22c-4d5e-9cb7-1c2408afe8a5"",""projectId"":""051c06f1-75cc-4548-856d-4923ddaba0dc""}","https://test12345.live/?num_scrambled_semantic=8&num_scrambled_causal=4&num_scrambled_schematic=4&participantId=B3438ED0E2FF474C932749E7CA9F423D&assignmentId=9b0a0774-b22c-4d5e-9cb7-1c2408afe8a5&projectId=051c06f1-75cc-4548-856d-4923ddaba0dc","B3438ED0E2FF474C932749E7CA9F423D-2025-05-15-18-53-08","","null","","[]","null","",""
"","","","","","image-button-response","46","352824","0.0-10.0-1.0-0.7","B3438ED0E2FF474C932749E7CA9F423D","B3438ED0E2FF474C932749E7CA9F423D","9b0a0774-b22c-4d5e-9cb7-1c2408afe8a5","051c06f1-75cc-4548-856d-4923ddaba0dc","{""num_scrambled_semantic"":""8"",""num_scrambled_causal"":""4"",""num_scrambled_schematic"":""4"",""participantId"":""B3438ED0E2FF474C932749E7CA9F423D"",""assignmentId"":""9b0a0774-b22c-4d5e-9cb7-1c2408afe8a5"",""projectId"":""051c06f1-75cc-4548-856d-4923ddaba0dc""}","https://test12345.live/?num_scrambled_semantic=8&num_scrambled_causal=4&num_scrambled_schematic=4&participantId=B3438ED0E2FF474C932749E7CA9F423D&assignmentId=9b0a0774-b22c-4d5e-9cb7-1c2408afe8a5&projectId=051c06f1-75cc-4548-856d-4923ddaba0dc","B3438ED0E2FF474C932749E7CA9F423D-2025-05-15-18-53-08","","null","","images/semantic_sequence/cat_care_semantic/cat_care_semantic_1.png","null","",""
"","","","","","image-button-response","47","353451","0.0-10.0-1.0-1.7","B3438ED0E2FF474C932749E7CA9F423D","B3438ED0E2FF474C932749E7CA9F423D","9b0a0774-b22c-4d5e-9cb7-1c2408afe8a5","051c06f1-75cc-4548-856d-4923ddaba0dc","{""num_scrambled_semantic"":""8"",""num_scrambled_causal"":""4"",""num_scrambled_schematic"":""4"",""participantId"":""B3438ED0E2FF474C932749E7CA9F423D"",""assignmentId"":""9b0a0774-b22c-4d5e-9cb7-1c2408afe8a5"",""projectId"":""051c06f1-75cc-4548-856d-4923ddaba0dc""}","https://test12345.live/?num_scrambled_semantic=8&num_scrambled_causal=4&num_scrambled_schematic=4&participantId=B3438ED0E2FF474C932749E7CA9F423D&assignmentId=9b0a0774-b22c-4d5e-9cb7-1c2408afe8a5&projectId=051c06f1-75cc-4548-856d-4923ddaba0dc","B3438ED0E2FF474C932749E7CA9F423D-2025-05-15-18-53-08","","625","","images/semantic_sequence/cat_care_semantic/cat_care_semantic_1.png","0","",""
"","","","","","image-button-response","48","355260","0.0-10.0-1.0-2.7","B3438ED0E2FF474C932749E7CA9F423D","B3438ED0E2FF474C932749E7CA9F423D","9b0a0774-b22c-4d5e-9cb7-1c2408afe8a5","051c06f1-75cc-4548-856d-4923ddaba0dc","{""num_scrambled_semantic"":""8"",""num_scrambled_causal"":""4"",""num_scrambled_schematic"":""4"",""participantId"":""B3438ED0E2FF474C932749E7CA9F423D"",""assignmentId"":""9b0a0774-b22c-4d5e-9cb7-1c2408afe8a5"",""projectId"":""051c06f1-75cc-4548-856d-4923ddaba0dc""}","https://test12345.live/?num_scrambled_semantic=8&num_scrambled_causal=4&num_scrambled_schematic=4&participantId=B3438ED0E2FF474C932749E7CA9F423D&assignmentId=9b0a0774-b22c-4d5e-9cb7-1c2408afe8a5&projectId=051c06f1-75cc-4548-856d-4923ddaba0dc","B3438ED0E2FF474C932749E7CA9F423D-2025-05-15-18-53-08","","null","","[]","null","",""
"","","","","","image-button-response","49","359765","0.0-10.0-1.0-0.8","B3438ED0E2FF474C932749E7CA9F423D","B3438ED0E2FF474C932749E7CA9F423D","9b0a0774-b22c-4d5e-9cb7-1c2408afe8a5","051c06f1-75cc-4548-856d-4923ddaba0dc","{""num_scrambled_semantic"":""8"",""num_scrambled_causal"":""4"",""num_scrambled_schematic"":""4"",""participantId"":""B3438ED0E2FF474C932749E7CA9F423D"",""assignmentId"":""9b0a0774-b22c-4d5e-9cb7-1c2408afe8a5"",""projectId"":""051c06f1-75cc-4548-856d-4923ddaba0dc""}","https://test12345.live/?num_scrambled_semantic=8&num_scrambled_causal=4&num_scrambled_schematic=4&participantId=B3438ED0E2FF474C932749E7CA9F423D&assignmentId=9b0a0774-b22c-4d5e-9cb7-1c2408afe8a5&projectId=051c06f1-75cc-4548-856d-4923ddaba0dc","B3438ED0E2FF474C932749E7CA9F423D-2025-05-15-18-53-08","","null","","images/semantic_sequence/cat_care_semantic/cat_care_semantic_7.png","null","",""
"","","","","","image-button-response","50","360599","0.0-10.0-1.0-1.8","B3438ED0E2FF474C932749E7CA9F423D","B3438ED0E2FF474C932749E7CA9F423D","9b0a0774-b22c-4d5e-9cb7-1c2408afe8a5","051c06f1-75cc-4548-856d-4923ddaba0dc","{""num_scrambled_semantic"":""8"",""num_scrambled_causal"":""4"",""num_scrambled_schematic"":""4"",""participantId"":""B3438ED0E2FF474C932749E7CA9F423D"",""assignmentId"":""9b0a0774-b22c-4d5e-9cb7-1c2408afe8a5"",""projectId"":""051c06f1-75cc-4548-856d-4923ddaba0dc""}","https://test12345.live/?num_scrambled_semantic=8&num_scrambled_causal=4&num_scrambled_schematic=4&participantId=B3438ED0E2FF474C932749E7CA9F423D&assignmentId=9b0a0774-b22c-4d5e-9cb7-1c2408afe8a5&projectId=051c06f1-75cc-4548-856d-4923ddaba0dc","B3438ED0E2FF474C932749E7CA9F423D-2025-05-15-18-53-08","","833","","images/semantic_sequence/cat_care_semantic/cat_care_semantic_7.png","0","",""
"","","","","","image-button-response","51","362401","0.0-10.0-1.0-2.8","B3438ED0E2FF474C932749E7CA9F423D","B3438ED0E2FF474C932749E7CA9F423D","9b0a0774-b22c-4d5e-9cb7-1c2408afe8a5","051c06f1-75cc-4548-856d-4923ddaba0dc","{""num_scrambled_semantic"":""8"",""num_scrambled_causal"":""4"",""num_scrambled_schematic"":""4"",""participantId"":""B3438ED0E2FF474C932749E7CA9F423D"",""assignmentId"":""9b0a0774-b22c-4d5e-9cb7-1c2408afe8a5"",""projectId"":""051c06f1-75cc-4548-856d-4923ddaba0dc""}","https://test12345.live/?num_scrambled_semantic=8&num_scrambled_causal=4&num_scrambled_schematic=4&participantId=B3438ED0E2FF474C932749E7CA9F423D&assignmentId=9b0a0774-b22c-4d5e-9cb7-1c2408afe8a5&projectId=051c06f1-75cc-4548-856d-4923ddaba0dc","B3438ED0E2FF474C932749E7CA9F423D-2025-05-15-18-53-08","","null","","[]","null","",""
"","","","","","image-button-response","52","366902","0.0-10.0-1.0-0.9","B3438ED0E2FF474C932749E7CA9F423D","B3438ED0E2FF474C932749E7CA9F423D","9b0a0774-b22c-4d5e-9cb7-1c2408afe8a5","051c06f1-75cc-4548-856d-4923ddaba0dc","{""num_scrambled_semantic"":""8"",""num_scrambled_causal"":""4"",""num_scrambled_schematic"":""4"",""participantId"":""B3438ED0E2FF474C932749E7CA9F423D"",""assignmentId"":""9b0a0774-b22c-4d5e-9cb7-1c2408afe8a5"",""projectId"":""051c06f1-75cc-4548-856d-4923ddaba0dc""}","https://test12345.live/?num_scrambled_semantic=8&num_scrambled_causal=4&num_scrambled_schematic=4&participantId=B3438ED0E2FF474C932749E7CA9F423D&assignmentId=9b0a0774-b22c-4d5e-9cb7-1c2408afe8a5&projectId=051c06f1-75cc-4548-856d-4923ddaba0dc","B3438ED0E2FF474C932749E7CA9F423D-2025-05-15-18-53-08","","null","","images/semantic_sequence/cat_care_semantic/cat_care_semantic_9.png","null","",""
"","","","","","image-button-response","53","368717","0.0-10.0-1.0-1.9","B3438ED0E2FF474C932749E7CA9F423D","B3438ED0E2FF474C932749E7CA9F423D","9b0a0774-b22c-4d5e-9cb7-1c2408afe8a5","051c06f1-75cc-4548-856d-4923ddaba0dc","{""num_scrambled_semantic"":""8"",""num_scrambled_causal"":""4"",""num_scrambled_schematic"":""4"",""participantId"":""B3438ED0E2FF474C932749E7CA9F423D"",""assignmentId"":""9b0a0774-b22c-4d5e-9cb7-1c2408afe8a5"",""projectId"":""051c06f1-75cc-4548-856d-4923ddaba0dc""}","https://test12345.live/?num_scrambled_semantic=8&num_scrambled_causal=4&num_scrambled_schematic=4&participantId=B3438ED0E2FF474C932749E7CA9F423D&assignmentId=9b0a0774-b22c-4d5e-9cb7-1c2408afe8a5&projectId=051c06f1-75cc-4548-856d-4923ddaba0dc","B3438ED0E2FF474C932749E7CA9F423D-2025-05-15-18-53-08","","1814","","images/semantic_sequence/cat_care_semantic/cat_care_semantic_9.png","0","",""
"","","","","","image-button-response","54","370525","0.0-10.0-1.0-2.9","B3438ED0E2FF474C932749E7CA9F423D","B3438ED0E2FF474C932749E7CA9F423D","9b0a0774-b22c-4d5e-9cb7-1c2408afe8a5","051c06f1-75cc-4548-856d-4923ddaba0dc","{""num_scrambled_semantic"":""8"",""num_scrambled_causal"":""4"",""num_scrambled_schematic"":""4"",""participantId"":""B3438ED0E2FF474C932749E7CA9F423D"",""assignmentId"":""9b0a0774-b22c-4d5e-9cb7-1c2408afe8a5"",""projectId"":""051c06f1-75cc-4548-856d-4923ddaba0dc""}","https://test12345.live/?num_scrambled_semantic=8&num_scrambled_causal=4&num_scrambled_schematic=4&participantId=B3438ED0E2FF474C932749E7CA9F423D&assignmentId=9b0a0774-b22c-4d5e-9cb7-1c2408afe8a5&projectId=051c06f1-75cc-4548-856d-4923ddaba0dc","B3438ED0E2FF474C932749E7CA9F423D-2025-05-15-18-53-08","","null","","[]","null","",""
"","","","","","html-audio-response","55","392117","0.0-11.0","B3438ED0E2FF474C932749E7CA9F423D","B3438ED0E2FF474C932749E7CA9F423D","9b0a0774-b22c-4d5e-9cb7-1c2408afe8a5","051c06f1-75cc-4548-856d-4923ddaba0dc","{""num_scrambled_semantic"":""8"",""num_scrambled_causal"":""4"",""num_scrambled_schematic"":""4"",""participantId"":""B3438ED0E2FF474C932749E7CA9F423D"",""assignmentId"":""9b0a0774-b22c-4d5e-9cb7-1c2408afe8a5"",""projectId"":""051c06f1-75cc-4548-856d-4923ddaba0dc""}","https://test12345.live/?num_scrambled_semantic=8&num_scrambled_causal=4&num_scrambled_schematic=4&participantId=B3438ED0E2FF474C932749E7CA9F423D&assignmentId=9b0a0774-b22c-4d5e-9cb7-1c2408afe8a5&projectId=051c06f1-75cc-4548-856d-4923ddaba0dc","B3438ED0E2FF474C932749E7CA9F423D-2025-05-15-18-53-08","","14193","","[""<span style=\""color: red; font-size: 24px\""> NOW RECORDING</span><p>Please say out loud all the images you saw, as many as you can remember. The images can be said in any order.</p>""]","","2","cat_care_semantic"
"","","","","","image-button-response","56","398135","0.0-12.0-0.0","B3438ED0E2FF474C932749E7CA9F423D","B3438ED0E2FF474C932749E7CA9F423D","9b0a0774-b22c-4d5e-9cb7-1c2408afe8a5","051c06f1-75cc-4548-856d-4923ddaba0dc","{""num_scrambled_semantic"":""8"",""num_scrambled_causal"":""4"",""num_scrambled_schematic"":""4"",""participantId"":""B3438ED0E2FF474C932749E7CA9F423D"",""assignmentId"":""9b0a0774-b22c-4d5e-9cb7-1c2408afe8a5"",""projectId"":""051c06f1-75cc-4548-856d-4923ddaba0dc""}","https://test12345.live/?num_scrambled_semantic=8&num_scrambled_causal=4&num_scrambled_schematic=4&participantId=B3438ED0E2FF474C932749E7CA9F423D&assignmentId=9b0a0774-b22c-4d5e-9cb7-1c2408afe8a5&projectId=051c06f1-75cc-4548-856d-4923ddaba0dc","B3438ED0E2FF474C932749E7CA9F423D-2025-05-15-18-53-08","","null","","images/semantic_sequence/creative_activities_semantic/creative_activities_semantic_0.png","null","",""
"","","","","","image-button-response","57","402642","0.0-12.0-1.0-0.0","B3438ED0E2FF474C932749E7CA9F423D","B3438ED0E2FF474C932749E7CA9F423D","9b0a0774-b22c-4d5e-9cb7-1c2408afe8a5","051c06f1-75cc-4548-856d-4923ddaba0dc","{""num_scrambled_semantic"":""8"",""num_scrambled_causal"":""4"",""num_scrambled_schematic"":""4"",""participantId"":""B3438ED0E2FF474C932749E7CA9F423D"",""assignmentId"":""9b0a0774-b22c-4d5e-9cb7-1c2408afe8a5"",""projectId"":""051c06f1-75cc-4548-856d-4923ddaba0dc""}","https://test12345.live/?num_scrambled_semantic=8&num_scrambled_causal=4&num_scrambled_schematic=4&participantId=B3438ED0E2FF474C932749E7CA9F423D&assignmentId=9b0a0774-b22c-4d5e-9cb7-1c2408afe8a5&projectId=051c06f1-75cc-4548-856d-4923ddaba0dc","B3438ED0E2FF474C932749E7CA9F423D-2025-05-15-18-53-08","","null","","images/semantic_sequence/creative_activities_semantic/creative_activities_semantic_1.png","null","",""
"","","","","","image-button-response","58","404497","0.0-12.0-1.0-1.0","B3438ED0E2FF474C932749E7CA9F423D","B3438ED0E2FF474C932749E7CA9F423D","9b0a0774-b22c-4d5e-9cb7-1c2408afe8a5","051c06f1-75cc-4548-856d-4923ddaba0dc","{""num_scrambled_semantic"":""8"",""num_scrambled_causal"":""4"",""num_scrambled_schematic"":""4"",""participantId"":""B3438ED0E2FF474C932749E7CA9F423D"",""assignmentId"":""9b0a0774-b22c-4d5e-9cb7-1c2408afe8a5"",""projectId"":""051c06f1-75cc-4548-856d-4923ddaba0dc""}","https://test12345.live/?num_scrambled_semantic=8&num_scrambled_causal=4&num_scrambled_schematic=4&participantId=B3438ED0E2FF474C932749E7CA9F423D&assignmentId=9b0a0774-b22c-4d5e-9cb7-1c2408afe8a5&projectId=051c06f1-75cc-4548-856d-4923ddaba0dc","B3438ED0E2FF474C932749E7CA9F423D-2025-05-15-18-53-08","","1853","","images/semantic_sequence/creative_activities_semantic/creative_activities_semantic_1.png","0","",""
"","","","","","image-button-response","59","406306","0.0-12.0-1.0-2.0","B3438ED0E2FF474C932749E7CA9F423D","B3438ED0E2FF474C932749E7CA9F423D","9b0a0774-b22c-4d5e-9cb7-1c2408afe8a5","051c06f1-75cc-4548-856d-4923ddaba0dc","{""num_scrambled_semantic"":""8"",""num_scrambled_causal"":""4"",""num_scrambled_schematic"":""4"",""participantId"":""B3438ED0E2FF474C932749E7CA9F423D"",""assignmentId"":""9b0a0774-b22c-4d5e-9cb7-1c2408afe8a5"",""projectId"":""051c06f1-75cc-4548-856d-4923ddaba0dc""}","https://test12345.live/?num_scrambled_semantic=8&num_scrambled_causal=4&num_scrambled_schematic=4&participantId=B3438ED0E2FF474C932749E7CA9F423D&assignmentId=9b0a0774-b22c-4d5e-9cb7-1c2408afe8a5&projectId=051c06f1-75cc-4548-856d-4923ddaba0dc","B3438ED0E2FF474C932749E7CA9F423D-2025-05-15-18-53-08","","null","","[]","null","",""
"","","","","","image-button-response","60","410810","0.0-12.0-1.0-0.1","B3438ED0E2FF474C932749E7CA9F423D","B3438ED0E2FF474C932749E7CA9F423D","9b0a0774-b22c-4d5e-9cb7-1c2408afe8a5","051c06f1-75cc-4548-856d-4923ddaba0dc","{""num_scrambled_semantic"":""8"",""num_scrambled_causal"":""4"",""num_scrambled_schematic"":""4"",""participantId"":""B3438ED0E2FF474C932749E7CA9F423D"",""assignmentId"":""9b0a0774-b22c-4d5e-9cb7-1c2408afe8a5"",""projectId"":""051c06f1-75cc-4548-856d-4923ddaba0dc""}","https://test12345.live/?num_scrambled_semantic=8&num_scrambled_causal=4&num_scrambled_schematic=4&participantId=B3438ED0E2FF474C932749E7CA9F423D&assignmentId=9b0a0774-b22c-4d5e-9cb7-1c2408afe8a5&projectId=051c06f1-75cc-4548-856d-4923ddaba0dc","B3438ED0E2FF474C932749E7CA9F423D-2025-05-15-18-53-08","","null","","images/semantic_sequence/creative_activities_semantic/creative_activities_semantic_2.png","null","",""
"","","","","","image-button-response","61","412245","0.0-12.0-1.0-1.1","B3438ED0E2FF474C932749E7CA9F423D","B3438ED0E2FF474C932749E7CA9F423D","9b0a0774-b22c-4d5e-9cb7-1c2408afe8a5","051c06f1-75cc-4548-856d-4923ddaba0dc","{""num_scrambled_semantic"":""8"",""num_scrambled_causal"":""4"",""num_scrambled_schematic"":""4"",""participantId"":""B3438ED0E2FF474C932749E7CA9F423D"",""assignmentId"":""9b0a0774-b22c-4d5e-9cb7-1c2408afe8a5"",""projectId"":""051c06f1-75cc-4548-856d-4923ddaba0dc""}","https://test12345.live/?num_scrambled_semantic=8&num_scrambled_causal=4&num_scrambled_schematic=4&participantId=B3438ED0E2FF474C932749E7CA9F423D&assignmentId=9b0a0774-b22c-4d5e-9cb7-1c2408afe8a5&projectId=051c06f1-75cc-4548-856d-4923ddaba0dc","B3438ED0E2FF474C932749E7CA9F423D-2025-05-15-18-53-08","","1434","","images/semantic_sequence/creative_activities_semantic/creative_activities_semantic_2.png","0","",""
"","","","","","image-button-response","62","414059","0.0-12.0-1.0-2.1","B3438ED0E2FF474C932749E7CA9F423D","B3438ED0E2FF474C932749E7CA9F423D","9b0a0774-b22c-4d5e-9cb7-1c2408afe8a5","051c06f1-75cc-4548-856d-4923ddaba0dc","{""num_scrambled_semantic"":""8"",""num_scrambled_causal"":""4"",""num_scrambled_schematic"":""4"",""participantId"":""B3438ED0E2FF474C932749E7CA9F423D"",""assignmentId"":""9b0a0774-b22c-4d5e-9cb7-1c2408afe8a5"",""projectId"":""051c06f1-75cc-4548-856d-4923ddaba0dc""}","https://test12345.live/?num_scrambled_semantic=8&num_scrambled_causal=4&num_scrambled_schematic=4&participantId=B3438ED0E2FF474C932749E7CA9F423D&assignmentId=9b0a0774-b22c-4d5e-9cb7-1c2408afe8a5&projectId=051c06f1-75cc-4548-856d-4923ddaba0dc","B3438ED0E2FF474C932749E7CA9F423D-2025-05-15-18-53-08","","null","","[]","null","",""
"","","","","","image-button-response","63","418561","0.0-12.0-1.0-0.2","B3438ED0E2FF474C932749E7CA9F423D","B3438ED0E2FF474C932749E7CA9F423D","9b0a0774-b22c-4d5e-9cb7-1c2408afe8a5","051c06f1-75cc-4548-856d-4923ddaba0dc","{""num_scrambled_semantic"":""8"",""num_scrambled_causal"":""4"",""num_scrambled_schematic"":""4"",""participantId"":""B3438ED0E2FF474C932749E7CA9F423D"",""assignmentId"":""9b0a0774-b22c-4d5e-9cb7-1c2408afe8a5"",""projectId"":""051c06f1-75cc-4548-856d-4923ddaba0dc""}","https://test12345.live/?num_scrambled_semantic=8&num_scrambled_causal=4&num_scrambled_schematic=4&participantId=B3438ED0E2FF474C932749E7CA9F423D&assignmentId=9b0a0774-b22c-4d5e-9cb7-1c2408afe8a5&projectId=051c06f1-75cc-4548-856d-4923ddaba0dc","B3438ED0E2FF474C932749E7CA9F423D-2025-05-15-18-53-08","","null","","images/semantic_sequence/creative_activities_semantic/creative_activities_semantic_3.png","null","",""
"","","","","","image-button-response","64","419423","0.0-12.0-1.0-1.2","B3438ED0E2FF474C932749E7CA9F423D","B3438ED0E2FF474C932749E7CA9F423D","9b0a0774-b22c-4d5e-9cb7-1c2408afe8a5","051c06f1-75cc-4548-856d-4923ddaba0dc","{""num_scrambled_semantic"":""8"",""num_scrambled_causal"":""4"",""num_scrambled_schematic"":""4"",""participantId"":""B3438ED0E2FF474C932749E7CA9F423D"",""assignmentId"":""9b0a0774-b22c-4d5e-9cb7-1c2408afe8a5"",""projectId"":""051c06f1-75cc-4548-856d-4923ddaba0dc""}","https://test12345.live/?num_scrambled_semantic=8&num_scrambled_causal=4&num_scrambled_schematic=4&participantId=B3438ED0E2FF474C932749E7CA9F423D&assignmentId=9b0a0774-b22c-4d5e-9cb7-1c2408afe8a5&projectId=051c06f1-75cc-4548-856d-4923ddaba0dc","B3438ED0E2FF474C932749E7CA9F423D-2025-05-15-18-53-08","","861","","images/semantic_sequence/creative_activities_semantic/creative_activities_semantic_3.png","0","",""
"","","","","","image-button-response","65","421233","0.0-12.0-1.0-2.2","B3438ED0E2FF474C932749E7CA9F423D","B3438ED0E2FF474C932749E7CA9F423D","9b0a0774-b22c-4d5e-9cb7-1c2408afe8a5","051c06f1-75cc-4548-856d-4923ddaba0dc","{""num_scrambled_semantic"":""8"",""num_scrambled_causal"":""4"",""num_scrambled_schematic"":""4"",""participantId"":""B3438ED0E2FF474C932749E7CA9F423D"",""assignmentId"":""9b0a0774-b22c-4d5e-9cb7-1c2408afe8a5"",""projectId"":""051c06f1-75cc-4548-856d-4923ddaba0dc""}","https://test12345.live/?num_scrambled_semantic=8&num_scrambled_causal=4&num_scrambled_schematic=4&participantId=B3438ED0E2FF474C932749E7CA9F423D&assignmentId=9b0a0774-b22c-4d5e-9cb7-1c2408afe8a5&projectId=051c06f1-75cc-4548-856d-4923ddaba0dc","B3438ED0E2FF474C932749E7CA9F423D-2025-05-15-18-53-08","","null","","[]","null","",""
"","","","","","image-button-response","66","425735","0.0-12.0-1.0-0.3","B3438ED0E2FF474C932749E7CA9F423D","B3438ED0E2FF474C932749E7CA9F423D","9b0a0774-b22c-4d5e-9cb7-1c2408afe8a5","051c06f1-75cc-4548-856d-4923ddaba0dc","{""num_scrambled_semantic"":""8"",""num_scrambled_causal"":""4"",""num_scrambled_schematic"":""4"",""participantId"":""B3438ED0E2FF474C932749E7CA9F423D"",""assignmentId"":""9b0a0774-b22c-4d5e-9cb7-1c2408afe8a5"",""projectId"":""051c06f1-75cc-4548-856d-4923ddaba0dc""}","https://test12345.live/?num_scrambled_semantic=8&num_scrambled_causal=4&num_scrambled_schematic=4&participantId=B3438ED0E2FF474C932749E7CA9F423D&assignmentId=9b0a0774-b22c-4d5e-9cb7-1c2408afe8a5&projectId=051c06f1-75cc-4548-856d-4923ddaba0dc","B3438ED0E2FF474C932749E7CA9F423D-2025-05-15-18-53-08","","null","","images/semantic_sequence/creative_activities_semantic/creative_activities_semantic_4.png","null","",""
"","","","","","image-button-response","67","426815","0.0-12.0-1.0-1.3","B3438ED0E2FF474C932749E7CA9F423D","B3438ED0E2FF474C932749E7CA9F423D","9b0a0774-b22c-4d5e-9cb7-1c2408afe8a5","051c06f1-75cc-4548-856d-4923ddaba0dc","{""num_scrambled_semantic"":""8"",""num_scrambled_causal"":""4"",""num_scrambled_schematic"":""4"",""participantId"":""B3438ED0E2FF474C932749E7CA9F423D"",""assignmentId"":""9b0a0774-b22c-4d5e-9cb7-1c2408afe8a5"",""projectId"":""051c06f1-75cc-4548-856d-4923ddaba0dc""}","https://test12345.live/?num_scrambled_semantic=8&num_scrambled_causal=4&num_scrambled_schematic=4&participantId=B3438ED0E2FF474C932749E7CA9F423D&assignmentId=9b0a0774-b22c-4d5e-9cb7-1c2408afe8a5&projectId=051c06f1-75cc-4548-856d-4923ddaba0dc","B3438ED0E2FF474C932749E7CA9F423D-2025-05-15-18-53-08","","1078","","images/semantic_sequence/creative_activities_semantic/creative_activities_semantic_4.png","0","",""
"","","","","","image-button-response","68","428615","0.0-12.0-1.0-2.3","B3438ED0E2FF474C932749E7CA9F423D","B3438ED0E2FF474C932749E7CA9F423D","9b0a0774-b22c-4d5e-9cb7-1c2408afe8a5","051c06f1-75cc-4548-856d-4923ddaba0dc","{""num_scrambled_semantic"":""8"",""num_scrambled_causal"":""4"",""num_scrambled_schematic"":""4"",""participantId"":""B3438ED0E2FF474C932749E7CA9F423D"",""assignmentId"":""9b0a0774-b22c-4d5e-9cb7-1c2408afe8a5"",""projectId"":""051c06f1-75cc-4548-856d-4923ddaba0dc""}","https://test12345.live/?num_scrambled_semantic=8&num_scrambled_causal=4&num_scrambled_schematic=4&participantId=B3438ED0E2FF474C932749E7CA9F423D&assignmentId=9b0a0774-b22c-4d5e-9cb7-1c2408afe8a5&projectId=051c06f1-75cc-4548-856d-4923ddaba0dc","B3438ED0E2FF474C932749E7CA9F423D-2025-05-15-18-53-08","","null","","[]","null","",""
"","","","","","image-button-response","69","433121","0.0-12.0-1.0-0.4","B3438ED0E2FF474C932749E7CA9F423D","B3438ED0E2FF474C932749E7CA9F423D","9b0a0774-b22c-4d5e-9cb7-1c2408afe8a5","051c06f1-75cc-4548-856d-4923ddaba0dc","{""num_scrambled_semantic"":""8"",""num_scrambled_causal"":""4"",""num_scrambled_schematic"":""4"",""participantId"":""B3438ED0E2FF474C932749E7CA9F423D"",""assignmentId"":""9b0a0774-b22c-4d5e-9cb7-1c2408afe8a5"",""projectId"":""051c06f1-75cc-4548-856d-4923ddaba0dc""}","https://test12345.live/?num_scrambled_semantic=8&num_scrambled_causal=4&num_scrambled_schematic=4&participantId=B3438ED0E2FF474C932749E7CA9F423D&assignmentId=9b0a0774-b22c-4d5e-9cb7-1c2408afe8a5&projectId=051c06f1-75cc-4548-856d-4923ddaba0dc","B3438ED0E2FF474C932749E7CA9F423D-2025-05-15-18-53-08","","null","","images/semantic_sequence/creative_activities_semantic/creative_activities_semantic_5.png","null","",""
"","","","","","image-button-response","70","434169","0.0-12.0-1.0-1.4","B3438ED0E2FF474C932749E7CA9F423D","B3438ED0E2FF474C932749E7CA9F423D","9b0a0774-b22c-4d5e-9cb7-1c2408afe8a5","051c06f1-75cc-4548-856d-4923ddaba0dc","{""num_scrambled_semantic"":""8"",""num_scrambled_causal"":""4"",""num_scrambled_schematic"":""4"",""participantId"":""B3438ED0E2FF474C932749E7CA9F423D"",""assignmentId"":""9b0a0774-b22c-4d5e-9cb7-1c2408afe8a5"",""projectId"":""051c06f1-75cc-4548-856d-4923ddaba0dc""}","https://test12345.live/?num_scrambled_semantic=8&num_scrambled_causal=4&num_scrambled_schematic=4&participantId=B3438ED0E2FF474C932749E7CA9F423D&assignmentId=9b0a0774-b22c-4d5e-9cb7-1c2408afe8a5&projectId=051c06f1-75cc-4548-856d-4923ddaba0dc","B3438ED0E2FF474C932749E7CA9F423D-2025-05-15-18-53-08","","1047","","images/semantic_sequence/creative_activities_semantic/creative_activities_semantic_5.png","0","",""
"","","","","","image-button-response","71","435970","0.0-12.0-1.0-2.4","B3438ED0E2FF474C932749E7CA9F423D","B3438ED0E2FF474C932749E7CA9F423D","9b0a0774-b22c-4d5e-9cb7-1c2408afe8a5","051c06f1-75cc-4548-856d-4923ddaba0dc","{""num_scrambled_semantic"":""8"",""num_scrambled_causal"":""4"",""num_scrambled_schematic"":""4"",""participantId"":""B3438ED0E2FF474C932749E7CA9F423D"",""assignmentId"":""9b0a0774-b22c-4d5e-9cb7-1c2408afe8a5"",""projectId"":""051c06f1-75cc-4548-856d-4923ddaba0dc""}","https://test12345.live/?num_scrambled_semantic=8&num_scrambled_causal=4&num_scrambled_schematic=4&participantId=B3438ED0E2FF474C932749E7CA9F423D&assignmentId=9b0a0774-b22c-4d5e-9cb7-1c2408afe8a5&projectId=051c06f1-75cc-4548-856d-4923ddaba0dc","B3438ED0E2FF474C932749E7CA9F423D-2025-05-15-18-53-08","","null","","[]","null","",""
"","","","","","image-button-response","72","440472","0.0-12.0-1.0-0.5","B3438ED0E2FF474C932749E7CA9F423D","B3438ED0E2FF474C932749E7CA9F423D","9b0a0774-b22c-4d5e-9cb7-1c2408afe8a5","051c06f1-75cc-4548-856d-4923ddaba0dc","{""num_scrambled_semantic"":""8"",""num_scrambled_causal"":""4"",""num_scrambled_schematic"":""4"",""participantId"":""B3438ED0E2FF474C932749E7CA9F423D"",""assignmentId"":""9b0a0774-b22c-4d5e-9cb7-1c2408afe8a5"",""projectId"":""051c06f1-75cc-4548-856d-4923ddaba0dc""}","https://test12345.live/?num_scrambled_semantic=8&num_scrambled_causal=4&num_scrambled_schematic=4&participantId=B3438ED0E2FF474C932749E7CA9F423D&assignmentId=9b0a0774-b22c-4d5e-9cb7-1c2408afe8a5&projectId=051c06f1-75cc-4548-856d-4923ddaba0dc","B3438ED0E2FF474C932749E7CA9F423D-2025-05-15-18-53-08","","null","","images/semantic_sequence/creative_activities_semantic/creative_activities_semantic_6.png","null","",""
"","","","","","image-button-response","73","441775","0.0-12.0-1.0-1.5","B3438ED0E2FF474C932749E7CA9F423D","B3438ED0E2FF474C932749E7CA9F423D","9b0a0774-b22c-4d5e-9cb7-1c2408afe8a5","051c06f1-75cc-4548-856d-4923ddaba0dc","{""num_scrambled_semantic"":""8"",""num_scrambled_causal"":""4"",""num_scrambled_schematic"":""4"",""participantId"":""B3438ED0E2FF474C932749E7CA9F423D"",""assignmentId"":""9b0a0774-b22c-4d5e-9cb7-1c2408afe8a5"",""projectId"":""051c06f1-75cc-4548-856d-4923ddaba0dc""}","https://test12345.live/?num_scrambled_semantic=8&num_scrambled_causal=4&num_scrambled_schematic=4&participantId=B3438ED0E2FF474C932749E7CA9F423D&assignmentId=9b0a0774-b22c-4d5e-9cb7-1c2408afe8a5&projectId=051c06f1-75cc-4548-856d-4923ddaba0dc","B3438ED0E2FF474C932749E7CA9F423D-2025-05-15-18-53-08","","1301","","images/semantic_sequence/creative_activities_semantic/creative_activities_semantic_6.png","0","",""
"","","","","","image-button-response","74","443577","0.0-12.0-1.0-2.5","B3438ED0E2FF474C932749E7CA9F423D","B3438ED0E2FF474C932749E7CA9F423D","9b0a0774-b22c-4d5e-9cb7-1c2408afe8a5","051c06f1-75cc-4548-856d-4923ddaba0dc","{""num_scrambled_semantic"":""8"",""num_scrambled_causal"":""4"",""num_scrambled_schematic"":""4"",""participantId"":""B3438ED0E2FF474C932749E7CA9F423D"",""assignmentId"":""9b0a0774-b22c-4d5e-9cb7-1c2408afe8a5"",""projectId"":""051c06f1-75cc-4548-856d-4923ddaba0dc""}","https://test12345.live/?num_scrambled_semantic=8&num_scrambled_causal=4&num_scrambled_schematic=4&participantId=B3438ED0E2FF474C932749E7CA9F423D&assignmentId=9b0a0774-b22c-4d5e-9cb7-1c2408afe8a5&projectId=051c06f1-75cc-4548-856d-4923ddaba0dc","B3438ED0E2FF474C932749E7CA9F423D-2025-05-15-18-53-08","","null","","[]","null","",""
"","","","","","image-button-response","75","448086","0.0-12.0-1.0-0.6","B3438ED0E2FF474C932749E7CA9F423D","B3438ED0E2FF474C932749E7CA9F423D","9b0a0774-b22c-4d5e-9cb7-1c2408afe8a5","051c06f1-75cc-4548-856d-4923ddaba0dc","{""num_scrambled_semantic"":""8"",""num_scrambled_causal"":""4"",""num_scrambled_schematic"":""4"",""participantId"":""B3438ED0E2FF474C932749E7CA9F423D"",""assignmentId"":""9b0a0774-b22c-4d5e-9cb7-1c2408afe8a5"",""projectId"":""051c06f1-75cc-4548-856d-4923ddaba0dc""}","https://test12345.live/?num_scrambled_semantic=8&num_scrambled_causal=4&num_scrambled_schematic=4&participantId=B3438ED0E2FF474C932749E7CA9F423D&assignmentId=9b0a0774-b22c-4d5e-9cb7-1c2408afe8a5&projectId=051c06f1-75cc-4548-856d-4923ddaba0dc","B3438ED0E2FF474C932749E7CA9F423D-2025-05-15-18-53-08","","null","","images/semantic_sequence/creative_activities_semantic/creative_activities_semantic_7.png","null","",""
"","","","","","image-button-response","76","449240","0.0-12.0-1.0-1.6","B3438ED0E2FF474C932749E7CA9F423D","B3438ED0E2FF474C932749E7CA9F423D","9b0a0774-b22c-4d5e-9cb7-1c2408afe8a5","051c06f1-75cc-4548-856d-4923ddaba0dc","{""num_scrambled_semantic"":""8"",""num_scrambled_causal"":""4"",""num_scrambled_schematic"":""4"",""participantId"":""B3438ED0E2FF474C932749E7CA9F423D"",""assignmentId"":""9b0a0774-b22c-4d5e-9cb7-1c2408afe8a5"",""projectId"":""051c06f1-75cc-4548-856d-4923ddaba0dc""}","https://test12345.live/?num_scrambled_semantic=8&num_scrambled_causal=4&num_scrambled_schematic=4&participantId=B3438ED0E2FF474C932749E7CA9F423D&assignmentId=9b0a0774-b22c-4d5e-9cb7-1c2408afe8a5&projectId=051c06f1-75cc-4548-856d-4923ddaba0dc","B3438ED0E2FF474C932749E7CA9F423D-2025-05-15-18-53-08","","1154","","images/semantic_sequence/creative_activities_semantic/creative_activities_semantic_7.png","0","",""
"","","","","","image-button-response","77","451043","0.0-12.0-1.0-2.6","B3438ED0E2FF474C932749E7CA9F423D","B3438ED0E2FF474C932749E7CA9F423D","9b0a0774-b22c-4d5e-9cb7-1c2408afe8a5","051c06f1-75cc-4548-856d-4923ddaba0dc","{""num_scrambled_semantic"":""8"",""num_scrambled_causal"":""4"",""num_scrambled_schematic"":""4"",""participantId"":""B3438ED0E2FF474C932749E7CA9F423D"",""assignmentId"":""9b0a0774-b22c-4d5e-9cb7-1c2408afe8a5"",""projectId"":""051c06f1-75cc-4548-856d-4923ddaba0dc""}","https://test12345.live/?num_scrambled_semantic=8&num_scrambled_causal=4&num_scrambled_schematic=4&participantId=B3438ED0E2FF474C932749E7CA9F423D&assignmentId=9b0a0774-b22c-4d5e-9cb7-1c2408afe8a5&projectId=051c06f1-75cc-4548-856d-4923ddaba0dc","B3438ED0E2FF474C932749E7CA9F423D-2025-05-15-18-53-08","","null","","[]","null","",""
"","","","","","image-button-response","78","455551","0.0-12.0-1.0-0.7","B3438ED0E2FF474C932749E7CA9F423D","B3438ED0E2FF474C932749E7CA9F423D","9b0a0774-b22c-4d5e-9cb7-1c2408afe8a5","051c06f1-75cc-4548-856d-4923ddaba0dc","{""num_scrambled_semantic"":""8"",""num_scrambled_causal"":""4"",""num_scrambled_schematic"":""4"",""participantId"":""B3438ED0E2FF474C932749E7CA9F423D"",""assignmentId"":""9b0a0774-b22c-4d5e-9cb7-1c2408afe8a5"",""projectId"":""051c06f1-75cc-4548-856d-4923ddaba0dc""}","https://test12345.live/?num_scrambled_semantic=8&num_scrambled_causal=4&num_scrambled_schematic=4&participantId=B3438ED0E2FF474C932749E7CA9F423D&assignmentId=9b0a0774-b22c-4d5e-9cb7-1c2408afe8a5&projectId=051c06f1-75cc-4548-856d-4923ddaba0dc","B3438ED0E2FF474C932749E7CA9F423D-2025-05-15-18-53-08","","null","","images/semantic_sequence/creative_activities_semantic/creative_activities_semantic_8.png","null","",""
"","","","","","image-button-response","79","456407","0.0-12.0-1.0-1.7","B3438ED0E2FF474C932749E7CA9F423D","B3438ED0E2FF474C932749E7CA9F423D","9b0a0774-b22c-4d5e-9cb7-1c2408afe8a5","051c06f1-75cc-4548-856d-4923ddaba0dc","{""num_scrambled_semantic"":""8"",""num_scrambled_causal"":""4"",""num_scrambled_schematic"":""4"",""participantId"":""B3438ED0E2FF474C932749E7CA9F423D"",""assignmentId"":""9b0a0774-b22c-4d5e-9cb7-1c2408afe8a5"",""projectId"":""051c06f1-75cc-4548-856d-4923ddaba0dc""}","https://test12345.live/?num_scrambled_semantic=8&num_scrambled_causal=4&num_scrambled_schematic=4&participantId=B3438ED0E2FF474C932749E7CA9F423D&assignmentId=9b0a0774-b22c-4d5e-9cb7-1c2408afe8a5&projectId=051c06f1-75cc-4548-856d-4923ddaba0dc","B3438ED0E2FF474C932749E7CA9F423D-2025-05-15-18-53-08","","854","","images/semantic_sequence/creative_activities_semantic/creative_activities_semantic_8.png","0","",""
"","","","","","image-button-response","80","458218","0.0-12.0-1.0-2.7","B3438ED0E2FF474C932749E7CA9F423D","B3438ED0E2FF474C932749E7CA9F423D","9b0a0774-b22c-4d5e-9cb7-1c2408afe8a5","051c06f1-75cc-4548-856d-4923ddaba0dc","{""num_scrambled_semantic"":""8"",""num_scrambled_causal"":""4"",""num_scrambled_schematic"":""4"",""participantId"":""B3438ED0E2FF474C932749E7CA9F423D"",""assignmentId"":""9b0a0774-b22c-4d5e-9cb7-1c2408afe8a5"",""projectId"":""051c06f1-75cc-4548-856d-4923ddaba0dc""}","https://test12345.live/?num_scrambled_semantic=8&num_scrambled_causal=4&num_scrambled_schematic=4&participantId=B3438ED0E2FF474C932749E7CA9F423D&assignmentId=9b0a0774-b22c-4d5e-9cb7-1c2408afe8a5&projectId=051c06f1-75cc-4548-856d-4923ddaba0dc","B3438ED0E2FF474C932749E7CA9F423D-2025-05-15-18-53-08","","null","","[]","null","",""
"","","","","","image-button-response","81","462724","0.0-12.0-1.0-0.8","B3438ED0E2FF474C932749E7CA9F423D","B3438ED0E2FF474C932749E7CA9F423D","9b0a0774-b22c-4d5e-9cb7-1c2408afe8a5","051c06f1-75cc-4548-856d-4923ddaba0dc","{""num_scrambled_semantic"":""8"",""num_scrambled_causal"":""4"",""num_scrambled_schematic"":""4"",""participantId"":""B3438ED0E2FF474C932749E7CA9F423D"",""assignmentId"":""9b0a0774-b22c-4d5e-9cb7-1c2408afe8a5"",""projectId"":""051c06f1-75cc-4548-856d-4923ddaba0dc""}","https://test12345.live/?num_scrambled_semantic=8&num_scrambled_causal=4&num_scrambled_schematic=4&participantId=B3438ED0E2FF474C932749E7CA9F423D&assignmentId=9b0a0774-b22c-4d5e-9cb7-1c2408afe8a5&projectId=051c06f1-75cc-4548-856d-4923ddaba0dc","B3438ED0E2FF474C932749E7CA9F423D-2025-05-15-18-53-08","","null","","images/semantic_sequence/creative_activities_semantic/creative_activities_semantic_9.png","null","",""
"","","","","","image-button-response","82","463549","0.0-12.0-1.0-1.8","B3438ED0E2FF474C932749E7CA9F423D","B3438ED0E2FF474C932749E7CA9F423D","9b0a0774-b22c-4d5e-9cb7-1c2408afe8a5","051c06f1-75cc-4548-856d-4923ddaba0dc","{""num_scrambled_semantic"":""8"",""num_scrambled_causal"":""4"",""num_scrambled_schematic"":""4"",""participantId"":""B3438ED0E2FF474C932749E7CA9F423D"",""assignmentId"":""9b0a0774-b22c-4d5e-9cb7-1c2408afe8a5"",""projectId"":""051c06f1-75cc-4548-856d-4923ddaba0dc""}","https://test12345.live/?num_scrambled_semantic=8&num_scrambled_causal=4&num_scrambled_schematic=4&participantId=B3438ED0E2FF474C932749E7CA9F423D&assignmentId=9b0a0774-b22c-4d5e-9cb7-1c2408afe8a5&projectId=051c06f1-75cc-4548-856d-4923ddaba0dc","B3438ED0E2FF474C932749E7CA9F423D-2025-05-15-18-53-08","","823","","images/semantic_sequence/creative_activities_semantic/creative_activities_semantic_9.png","0","",""
"","","","","","image-button-response","83","465357","0.0-12.0-1.0-2.8","B3438ED0E2FF474C932749E7CA9F423D","B3438ED0E2FF474C932749E7CA9F423D","9b0a0774-b22c-4d5e-9cb7-1c2408afe8a5","051c06f1-75cc-4548-856d-4923ddaba0dc","{""num_scrambled_semantic"":""8"",""num_scrambled_causal"":""4"",""num_scrambled_schematic"":""4"",""participantId"":""B3438ED0E2FF474C932749E7CA9F423D"",""assignmentId"":""9b0a0774-b22c-4d5e-9cb7-1c2408afe8a5"",""projectId"":""051c06f1-75cc-4548-856d-4923ddaba0dc""}","https://test12345.live/?num_scrambled_semantic=8&num_scrambled_causal=4&num_scrambled_schematic=4&participantId=B3438ED0E2FF474C932749E7CA9F423D&assignmentId=9b0a0774-b22c-4d5e-9cb7-1c2408afe8a5&projectId=051c06f1-75cc-4548-856d-4923ddaba0dc","B3438ED0E2FF474C932749E7CA9F423D-2025-05-15-18-53-08","","null","","[]","null","",""
"","","","","","image-button-response","84","469858","0.0-12.0-1.0-0.9","B3438ED0E2FF474C932749E7CA9F423D","B3438ED0E2FF474C932749E7CA9F423D","9b0a0774-b22c-4d5e-9cb7-1c2408afe8a5","051c06f1-75cc-4548-856d-4923ddaba0dc","{""num_scrambled_semantic"":""8"",""num_scrambled_causal"":""4"",""num_scrambled_schematic"":""4"",""participantId"":""B3438ED0E2FF474C932749E7CA9F423D"",""assignmentId"":""9b0a0774-b22c-4d5e-9cb7-1c2408afe8a5"",""projectId"":""051c06f1-75cc-4548-856d-4923ddaba0dc""}","https://test12345.live/?num_scrambled_semantic=8&num_scrambled_causal=4&num_scrambled_schematic=4&participantId=B3438ED0E2FF474C932749E7CA9F423D&assignmentId=9b0a0774-b22c-4d5e-9cb7-1c2408afe8a5&projectId=051c06f1-75cc-4548-856d-4923ddaba0dc","B3438ED0E2FF474C932749E7CA9F423D-2025-05-15-18-53-08","","null","","images/semantic_sequence/creative_activities_semantic/creative_activities_semantic_ten.png","null","",""
"","","","","","image-button-response","85","470629","0.0-12.0-1.0-1.9","B3438ED0E2FF474C932749E7CA9F423D","B3438ED0E2FF474C932749E7CA9F423D","9b0a0774-b22c-4d5e-9cb7-1c2408afe8a5","051c06f1-75cc-4548-856d-4923ddaba0dc","{""num_scrambled_semantic"":""8"",""num_scrambled_causal"":""4"",""num_scrambled_schematic"":""4"",""participantId"":""B3438ED0E2FF474C932749E7CA9F423D"",""assignmentId"":""9b0a0774-b22c-4d5e-9cb7-1c2408afe8a5"",""projectId"":""051c06f1-75cc-4548-856d-4923ddaba0dc""}","https://test12345.live/?num_scrambled_semantic=8&num_scrambled_causal=4&num_scrambled_schematic=4&participantId=B3438ED0E2FF474C932749E7CA9F423D&assignmentId=9b0a0774-b22c-4d5e-9cb7-1c2408afe8a5&projectId=051c06f1-75cc-4548-856d-4923ddaba0dc","B3438ED0E2FF474C932749E7CA9F423D-2025-05-15-18-53-08","","769","","images/semantic_sequence/creative_activities_semantic/creative_activities_semantic_ten.png","0","",""
"","","","","","image-button-response","86","472439","0.0-12.0-1.0-2.9","B3438ED0E2FF474C932749E7CA9F423D","B3438ED0E2FF474C932749E7CA9F423D","9b0a0774-b22c-4d5e-9cb7-1c2408afe8a5","051c06f1-75cc-4548-856d-4923ddaba0dc","{""num_scrambled_semantic"":""8"",""num_scrambled_causal"":""4"",""num_scrambled_schematic"":""4"",""participantId"":""B3438ED0E2FF474C932749E7CA9F423D"",""assignmentId"":""9b0a0774-b22c-4d5e-9cb7-1c2408afe8a5"",""projectId"":""051c06f1-75cc-4548-856d-4923ddaba0dc""}","https://test12345.live/?num_scrambled_semantic=8&num_scrambled_causal=4&num_scrambled_schematic=4&participantId=B3438ED0E2FF474C932749E7CA9F423D&assignmentId=9b0a0774-b22c-4d5e-9cb7-1c2408afe8a5&projectId=051c06f1-75cc-4548-856d-4923ddaba0dc","B3438ED0E2FF474C932749E7CA9F423D-2025-05-15-18-53-08","","null","","[]","null","",""
"","","","","","html-audio-response","87","506315","0.0-13.0","B3438ED0E2FF474C932749E7CA9F423D","B3438ED0E2FF474C932749E7CA9F423D","9b0a0774-b22c-4d5e-9cb7-1c2408afe8a5","051c06f1-75cc-4548-856d-4923ddaba0dc","{""num_scrambled_semantic"":""8"",""num_scrambled_causal"":""4"",""num_scrambled_schematic"":""4"",""participantId"":""B3438ED0E2FF474C932749E7CA9F423D"",""assignmentId"":""9b0a0774-b22c-4d5e-9cb7-1c2408afe8a5"",""projectId"":""051c06f1-75cc-4548-856d-4923ddaba0dc""}","https://test12345.live/?num_scrambled_semantic=8&num_scrambled_causal=4&num_scrambled_schematic=4&participantId=B3438ED0E2FF474C932749E7CA9F423D&assignmentId=9b0a0774-b22c-4d5e-9cb7-1c2408afe8a5&projectId=051c06f1-75cc-4548-856d-4923ddaba0dc","B3438ED0E2FF474C932749E7CA9F423D-2025-05-15-18-53-08","","16665","","[""<span style=\""color: red; font-size: 24px\""> NOW RECORDING</span><p>Please say out loud all the images you saw, as many as you can remember. The images can be said in any order.</p>""]","","2","creative_activities_semantic"
"","","","","","image-button-response","88","512321","0.0-14.0-0.0","B3438ED0E2FF474C932749E7CA9F423D","B3438ED0E2FF474C932749E7CA9F423D","9b0a0774-b22c-4d5e-9cb7-1c2408afe8a5","051c06f1-75cc-4548-856d-4923ddaba0dc","{""num_scrambled_semantic"":""8"",""num_scrambled_causal"":""4"",""num_scrambled_schematic"":""4"",""participantId"":""B3438ED0E2FF474C932749E7CA9F423D"",""assignmentId"":""9b0a0774-b22c-4d5e-9cb7-1c2408afe8a5"",""projectId"":""051c06f1-75cc-4548-856d-4923ddaba0dc""}","https://test12345.live/?num_scrambled_semantic=8&num_scrambled_causal=4&num_scrambled_schematic=4&participantId=B3438ED0E2FF474C932749E7CA9F423D&assignmentId=9b0a0774-b22c-4d5e-9cb7-1c2408afe8a5&projectId=051c06f1-75cc-4548-856d-4923ddaba0dc","B3438ED0E2FF474C932749E7CA9F423D-2025-05-15-18-53-08","","null","","images/semantic_sequence/self_care_activities_semantic/self_care_activities_semantic_0.png","null","",""
"","","","","","image-button-response","89","516823","0.0-14.0-1.0-0.0","B3438ED0E2FF474C932749E7CA9F423D","B3438ED0E2FF474C932749E7CA9F423D","9b0a0774-b22c-4d5e-9cb7-1c2408afe8a5","051c06f1-75cc-4548-856d-4923ddaba0dc","{""num_scrambled_semantic"":""8"",""num_scrambled_causal"":""4"",""num_scrambled_schematic"":""4"",""participantId"":""B3438ED0E2FF474C932749E7CA9F423D"",""assignmentId"":""9b0a0774-b22c-4d5e-9cb7-1c2408afe8a5"",""projectId"":""051c06f1-75cc-4548-856d-4923ddaba0dc""}","https://test12345.live/?num_scrambled_semantic=8&num_scrambled_causal=4&num_scrambled_schematic=4&participantId=B3438ED0E2FF474C932749E7CA9F423D&assignmentId=9b0a0774-b22c-4d5e-9cb7-1c2408afe8a5&projectId=051c06f1-75cc-4548-856d-4923ddaba0dc","B3438ED0E2FF474C932749E7CA9F423D-2025-05-15-18-53-08","","null","","images/semantic_sequence/self_care_activities_semantic/self_care_activities_semantic_1.png","null","",""
"","","","","","image-button-response","90","519981","0.0-14.0-1.0-1.0","B3438ED0E2FF474C932749E7CA9F423D","B3438ED0E2FF474C932749E7CA9F423D","9b0a0774-b22c-4d5e-9cb7-1c2408afe8a5","051c06f1-75cc-4548-856d-4923ddaba0dc","{""num_scrambled_semantic"":""8"",""num_scrambled_causal"":""4"",""num_scrambled_schematic"":""4"",""participantId"":""B3438ED0E2FF474C932749E7CA9F423D"",""assignmentId"":""9b0a0774-b22c-4d5e-9cb7-1c2408afe8a5"",""projectId"":""051c06f1-75cc-4548-856d-4923ddaba0dc""}","https://test12345.live/?num_scrambled_semantic=8&num_scrambled_causal=4&num_scrambled_schematic=4&participantId=B3438ED0E2FF474C932749E7CA9F423D&assignmentId=9b0a0774-b22c-4d5e-9cb7-1c2408afe8a5&projectId=051c06f1-75cc-4548-856d-4923ddaba0dc","B3438ED0E2FF474C932749E7CA9F423D-2025-05-15-18-53-08","","3156","","images/semantic_sequence/self_care_activities_semantic/self_care_activities_semantic_1.png","0","",""
"","","","","","image-button-response","91","521795","0.0-14.0-1.0-2.0","B3438ED0E2FF474C932749E7CA9F423D","B3438ED0E2FF474C932749E7CA9F423D","9b0a0774-b22c-4d5e-9cb7-1c2408afe8a5","051c06f1-75cc-4548-856d-4923ddaba0dc","{""num_scrambled_semantic"":""8"",""num_scrambled_causal"":""4"",""num_scrambled_schematic"":""4"",""participantId"":""B3438ED0E2FF474C932749E7CA9F423D"",""assignmentId"":""9b0a0774-b22c-4d5e-9cb7-1c2408afe8a5"",""projectId"":""051c06f1-75cc-4548-856d-4923ddaba0dc""}","https://test12345.live/?num_scrambled_semantic=8&num_scrambled_causal=4&num_scrambled_schematic=4&participantId=B3438ED0E2FF474C932749E7CA9F423D&assignmentId=9b0a0774-b22c-4d5e-9cb7-1c2408afe8a5&projectId=051c06f1-75cc-4548-856d-4923ddaba0dc","B3438ED0E2FF474C932749E7CA9F423D-2025-05-15-18-53-08","","null","","[]","null","",""
"","","","","","image-button-response","92","526310","0.0-14.0-1.0-0.1","B3438ED0E2FF474C932749E7CA9F423D","B3438ED0E2FF474C932749E7CA9F423D","9b0a0774-b22c-4d5e-9cb7-1c2408afe8a5","051c06f1-75cc-4548-856d-4923ddaba0dc","{""num_scrambled_semantic"":""8"",""num_scrambled_causal"":""4"",""num_scrambled_schematic"":""4"",""participantId"":""B3438ED0E2FF474C932749E7CA9F423D"",""assignmentId"":""9b0a0774-b22c-4d5e-9cb7-1c2408afe8a5"",""projectId"":""051c06f1-75cc-4548-856d-4923ddaba0dc""}","https://test12345.live/?num_scrambled_semantic=8&num_scrambled_causal=4&num_scrambled_schematic=4&participantId=B3438ED0E2FF474C932749E7CA9F423D&assignmentId=9b0a0774-b22c-4d5e-9cb7-1c2408afe8a5&projectId=051c06f1-75cc-4548-856d-4923ddaba0dc","B3438ED0E2FF474C932749E7CA9F423D-2025-05-15-18-53-08","","null","","images/semantic_sequence/self_care_activities_semantic/self_care_activities_semantic_7.png","null","",""
"","","","","","image-button-response","93","528115","0.0-14.0-1.0-1.1","B3438ED0E2FF474C932749E7CA9F423D","B3438ED0E2FF474C932749E7CA9F423D","9b0a0774-b22c-4d5e-9cb7-1c2408afe8a5","051c06f1-75cc-4548-856d-4923ddaba0dc","{""num_scrambled_semantic"":""8"",""num_scrambled_causal"":""4"",""num_scrambled_schematic"":""4"",""participantId"":""B3438ED0E2FF474C932749E7CA9F423D"",""assignmentId"":""9b0a0774-b22c-4d5e-9cb7-1c2408afe8a5"",""projectId"":""051c06f1-75cc-4548-856d-4923ddaba0dc""}","https://test12345.live/?num_scrambled_semantic=8&num_scrambled_causal=4&num_scrambled_schematic=4&participantId=B3438ED0E2FF474C932749E7CA9F423D&assignmentId=9b0a0774-b22c-4d5e-9cb7-1c2408afe8a5&projectId=051c06f1-75cc-4548-856d-4923ddaba0dc","B3438ED0E2FF474C932749E7CA9F423D-2025-05-15-18-53-08","","1803","","images/semantic_sequence/self_care_activities_semantic/self_care_activities_semantic_7.png","0","",""
"","","","","","image-button-response","94","529919","0.0-14.0-1.0-2.1","B3438ED0E2FF474C932749E7CA9F423D","B3438ED0E2FF474C932749E7CA9F423D","9b0a0774-b22c-4d5e-9cb7-1c2408afe8a5","051c06f1-75cc-4548-856d-4923ddaba0dc","{""num_scrambled_semantic"":""8"",""num_scrambled_causal"":""4"",""num_scrambled_schematic"":""4"",""participantId"":""B3438ED0E2FF474C932749E7CA9F423D"",""assignmentId"":""9b0a0774-b22c-4d5e-9cb7-1c2408afe8a5"",""projectId"":""051c06f1-75cc-4548-856d-4923ddaba0dc""}","https://test12345.live/?num_scrambled_semantic=8&num_scrambled_causal=4&num_scrambled_schematic=4&participantId=B3438ED0E2FF474C932749E7CA9F423D&assignmentId=9b0a0774-b22c-4d5e-9cb7-1c2408afe8a5&projectId=051c06f1-75cc-4548-856d-4923ddaba0dc","B3438ED0E2FF474C932749E7CA9F423D-2025-05-15-18-53-08","","null","","[]","null","",""
"","","","","","image-button-response","95","534421","0.0-14.0-1.0-0.2","B3438ED0E2FF474C932749E7CA9F423D","B3438ED0E2FF474C932749E7CA9F423D","9b0a0774-b22c-4d5e-9cb7-1c2408afe8a5","051c06f1-75cc-4548-856d-4923ddaba0dc","{""num_scrambled_semantic"":""8"",""num_scrambled_causal"":""4"",""num_scrambled_schematic"":""4"",""participantId"":""B3438ED0E2FF474C932749E7CA9F423D"",""assignmentId"":""9b0a0774-b22c-4d5e-9cb7-1c2408afe8a5"",""projectId"":""051c06f1-75cc-4548-856d-4923ddaba0dc""}","https://test12345.live/?num_scrambled_semantic=8&num_scrambled_causal=4&num_scrambled_schematic=4&participantId=B3438ED0E2FF474C932749E7CA9F423D&assignmentId=9b0a0774-b22c-4d5e-9cb7-1c2408afe8a5&projectId=051c06f1-75cc-4548-856d-4923ddaba0dc","B3438ED0E2FF474C932749E7CA9F423D-2025-05-15-18-53-08","","null","","images/semantic_sequence/self_care_activities_semantic/self_care_activities_semantic_8.png","null","",""
"","","","","","image-button-response","96","535389","0.0-14.0-1.0-1.2","B3438ED0E2FF474C932749E7CA9F423D","B3438ED0E2FF474C932749E7CA9F423D","9b0a0774-b22c-4d5e-9cb7-1c2408afe8a5","051c06f1-75cc-4548-856d-4923ddaba0dc","{""num_scrambled_semantic"":""8"",""num_scrambled_causal"":""4"",""num_scrambled_schematic"":""4"",""participantId"":""B3438ED0E2FF474C932749E7CA9F423D"",""assignmentId"":""9b0a0774-b22c-4d5e-9cb7-1c2408afe8a5"",""projectId"":""051c06f1-75cc-4548-856d-4923ddaba0dc""}","https://test12345.live/?num_scrambled_semantic=8&num_scrambled_causal=4&num_scrambled_schematic=4&participantId=B3438ED0E2FF474C932749E7CA9F423D&assignmentId=9b0a0774-b22c-4d5e-9cb7-1c2408afe8a5&projectId=051c06f1-75cc-4548-856d-4923ddaba0dc","B3438ED0E2FF474C932749E7CA9F423D-2025-05-15-18-53-08","","966","","images/semantic_sequence/self_care_activities_semantic/self_care_activities_semantic_8.png","0","",""
"","","","","","image-button-response","97","537190","0.0-14.0-1.0-2.2","B3438ED0E2FF474C932749E7CA9F423D","B3438ED0E2FF474C932749E7CA9F423D","9b0a0774-b22c-4d5e-9cb7-1c2408afe8a5","051c06f1-75cc-4548-856d-4923ddaba0dc","{""num_scrambled_semantic"":""8"",""num_scrambled_causal"":""4"",""num_scrambled_schematic"":""4"",""participantId"":""B3438ED0E2FF474C932749E7CA9F423D"",""assignmentId"":""9b0a0774-b22c-4d5e-9cb7-1c2408afe8a5"",""projectId"":""051c06f1-75cc-4548-856d-4923ddaba0dc""}","https://test12345.live/?num_scrambled_semantic=8&num_scrambled_causal=4&num_scrambled_schematic=4&participantId=B3438ED0E2FF474C932749E7CA9F423D&assignmentId=9b0a0774-b22c-4d5e-9cb7-1c2408afe8a5&projectId=051c06f1-75cc-4548-856d-4923ddaba0dc","B3438ED0E2FF474C932749E7CA9F423D-2025-05-15-18-53-08","","null","","[]","null","",""
"","","","","","image-button-response","98","541693","0.0-14.0-1.0-0.3","B3438ED0E2FF474C932749E7CA9F423D","B3438ED0E2FF474C932749E7CA9F423D","9b0a0774-b22c-4d5e-9cb7-1c2408afe8a5","051c06f1-75cc-4548-856d-4923ddaba0dc","{""num_scrambled_semantic"":""8"",""num_scrambled_causal"":""4"",""num_scrambled_schematic"":""4"",""participantId"":""B3438ED0E2FF474C932749E7CA9F423D"",""assignmentId"":""9b0a0774-b22c-4d5e-9cb7-1c2408afe8a5"",""projectId"":""051c06f1-75cc-4548-856d-4923ddaba0dc""}","https://test12345.live/?num_scrambled_semantic=8&num_scrambled_causal=4&num_scrambled_schematic=4&participantId=B3438ED0E2FF474C932749E7CA9F423D&assignmentId=9b0a0774-b22c-4d5e-9cb7-1c2408afe8a5&projectId=051c06f1-75cc-4548-856d-4923ddaba0dc","B3438ED0E2FF474C932749E7CA9F423D-2025-05-15-18-53-08","","null","","images/semantic_sequence/self_care_activities_semantic/self_care_activities_semantic_5.png","null","",""
"","","","","","image-button-response","99","543678","0.0-14.0-1.0-1.3","B3438ED0E2FF474C932749E7CA9F423D","B3438ED0E2FF474C932749E7CA9F423D","9b0a0774-b22c-4d5e-9cb7-1c2408afe8a5","051c06f1-75cc-4548-856d-4923ddaba0dc","{""num_scrambled_semantic"":""8"",""num_scrambled_causal"":""4"",""num_scrambled_schematic"":""4"",""participantId"":""B3438ED0E2FF474C932749E7CA9F423D"",""assignmentId"":""9b0a0774-b22c-4d5e-9cb7-1c2408afe8a5"",""projectId"":""051c06f1-75cc-4548-856d-4923ddaba0dc""}","https://test12345.live/?num_scrambled_semantic=8&num_scrambled_causal=4&num_scrambled_schematic=4&participantId=B3438ED0E2FF474C932749E7CA9F423D&assignmentId=9b0a0774-b22c-4d5e-9cb7-1c2408afe8a5&projectId=051c06f1-75cc-4548-856d-4923ddaba0dc","B3438ED0E2FF474C932749E7CA9F423D-2025-05-15-18-53-08","","1983","","images/semantic_sequence/self_care_activities_semantic/self_care_activities_semantic_5.png","0","",""
"","","","","","image-button-response","100","545482","0.0-14.0-1.0-2.3","B3438ED0E2FF474C932749E7CA9F423D","B3438ED0E2FF474C932749E7CA9F423D","9b0a0774-b22c-4d5e-9cb7-1c2408afe8a5","051c06f1-75cc-4548-856d-4923ddaba0dc","{""num_scrambled_semantic"":""8"",""num_scrambled_causal"":""4"",""num_scrambled_schematic"":""4"",""participantId"":""B3438ED0E2FF474C932749E7CA9F423D"",""assignmentId"":""9b0a0774-b22c-4d5e-9cb7-1c2408afe8a5"",""projectId"":""051c06f1-75cc-4548-856d-4923ddaba0dc""}","https://test12345.live/?num_scrambled_semantic=8&num_scrambled_causal=4&num_scrambled_schematic=4&participantId=B3438ED0E2FF474C932749E7CA9F423D&assignmentId=9b0a0774-b22c-4d5e-9cb7-1c2408afe8a5&projectId=051c06f1-75cc-4548-856d-4923ddaba0dc","B3438ED0E2FF474C932749E7CA9F423D-2025-05-15-18-53-08","","null","","[]","null","",""
"","","","","","image-button-response","101","549983","0.0-14.0-1.0-0.4","B3438ED0E2FF474C932749E7CA9F423D","B3438ED0E2FF474C932749E7CA9F423D","9b0a0774-b22c-4d5e-9cb7-1c2408afe8a5","051c06f1-75cc-4548-856d-4923ddaba0dc","{""num_scrambled_semantic"":""8"",""num_scrambled_causal"":""4"",""num_scrambled_schematic"":""4"",""participantId"":""B3438ED0E2FF474C932749E7CA9F423D"",""assignmentId"":""9b0a0774-b22c-4d5e-9cb7-1c2408afe8a5"",""projectId"":""051c06f1-75cc-4548-856d-4923ddaba0dc""}","https://test12345.live/?num_scrambled_semantic=8&num_scrambled_causal=4&num_scrambled_schematic=4&participantId=B3438ED0E2FF474C932749E7CA9F423D&assignmentId=9b0a0774-b22c-4d5e-9cb7-1c2408afe8a5&projectId=051c06f1-75cc-4548-856d-4923ddaba0dc","B3438ED0E2FF474C932749E7CA9F423D-2025-05-15-18-53-08","","null","","images/semantic_sequence/self_care_activities_semantic/self_care_activities_semantic_9.png","null","",""
"","","","","","image-button-response","102","552069","0.0-14.0-1.0-1.4","B3438ED0E2FF474C932749E7CA9F423D","B3438ED0E2FF474C932749E7CA9F423D","9b0a0774-b22c-4d5e-9cb7-1c2408afe8a5","051c06f1-75cc-4548-856d-4923ddaba0dc","{""num_scrambled_semantic"":""8"",""num_scrambled_causal"":""4"",""num_scrambled_schematic"":""4"",""participantId"":""B3438ED0E2FF474C932749E7CA9F423D"",""assignmentId"":""9b0a0774-b22c-4d5e-9cb7-1c2408afe8a5"",""projectId"":""051c06f1-75cc-4548-856d-4923ddaba0dc""}","https://test12345.live/?num_scrambled_semantic=8&num_scrambled_causal=4&num_scrambled_schematic=4&participantId=B3438ED0E2FF474C932749E7CA9F423D&assignmentId=9b0a0774-b22c-4d5e-9cb7-1c2408afe8a5&projectId=051c06f1-75cc-4548-856d-4923ddaba0dc","B3438ED0E2FF474C932749E7CA9F423D-2025-05-15-18-53-08","","2085","","images/semantic_sequence/self_care_activities_semantic/self_care_activities_semantic_9.png","0","",""
"","","","","","image-button-response","103","553880","0.0-14.0-1.0-2.4","B3438ED0E2FF474C932749E7CA9F423D","B3438ED0E2FF474C932749E7CA9F423D","9b0a0774-b22c-4d5e-9cb7-1c2408afe8a5","051c06f1-75cc-4548-856d-4923ddaba0dc","{""num_scrambled_semantic"":""8"",""num_scrambled_causal"":""4"",""num_scrambled_schematic"":""4"",""participantId"":""B3438ED0E2FF474C932749E7CA9F423D"",""assignmentId"":""9b0a0774-b22c-4d5e-9cb7-1c2408afe8a5"",""projectId"":""051c06f1-75cc-4548-856d-4923ddaba0dc""}","https://test12345.live/?num_scrambled_semantic=8&num_scrambled_causal=4&num_scrambled_schematic=4&participantId=B3438ED0E2FF474C932749E7CA9F423D&assignmentId=9b0a0774-b22c-4d5e-9cb7-1c2408afe8a5&projectId=051c06f1-75cc-4548-856d-4923ddaba0dc","B3438ED0E2FF474C932749E7CA9F423D-2025-05-15-18-53-08","","null","","[]","null","",""
"","","","","","image-button-response","104","558384","0.0-14.0-1.0-0.5","B3438ED0E2FF474C932749E7CA9F423D","B3438ED0E2FF474C932749E7CA9F423D","9b0a0774-b22c-4d5e-9cb7-1c2408afe8a5","051c06f1-75cc-4548-856d-4923ddaba0dc","{""num_scrambled_semantic"":""8"",""num_scrambled_causal"":""4"",""num_scrambled_schematic"":""4"",""participantId"":""B3438ED0E2FF474C932749E7CA9F423D"",""assignmentId"":""9b0a0774-b22c-4d5e-9cb7-1c2408afe8a5"",""projectId"":""051c06f1-75cc-4548-856d-4923ddaba0dc""}","https://test12345.live/?num_scrambled_semantic=8&num_scrambled_causal=4&num_scrambled_schematic=4&participantId=B3438ED0E2FF474C932749E7CA9F423D&assignmentId=9b0a0774-b22c-4d5e-9cb7-1c2408afe8a5&projectId=051c06f1-75cc-4548-856d-4923ddaba0dc","B3438ED0E2FF474C932749E7CA9F423D-2025-05-15-18-53-08","","null","","images/semantic_sequence/self_care_activities_semantic/self_care_activities_semantic_6.png","null","",""
"","","","","","image-button-response","105","561384","0.0-14.0-1.0-1.5","B3438ED0E2FF474C932749E7CA9F423D","B3438ED0E2FF474C932749E7CA9F423D","9b0a0774-b22c-4d5e-9cb7-1c2408afe8a5","051c06f1-75cc-4548-856d-4923ddaba0dc","{""num_scrambled_semantic"":""8"",""num_scrambled_causal"":""4"",""num_scrambled_schematic"":""4"",""participantId"":""B3438ED0E2FF474C932749E7CA9F423D"",""assignmentId"":""9b0a0774-b22c-4d5e-9cb7-1c2408afe8a5"",""projectId"":""051c06f1-75cc-4548-856d-4923ddaba0dc""}","https://test12345.live/?num_scrambled_semantic=8&num_scrambled_causal=4&num_scrambled_schematic=4&participantId=B3438ED0E2FF474C932749E7CA9F423D&assignmentId=9b0a0774-b22c-4d5e-9cb7-1c2408afe8a5&projectId=051c06f1-75cc-4548-856d-4923ddaba0dc","B3438ED0E2FF474C932749E7CA9F423D-2025-05-15-18-53-08","","2999","","images/semantic_sequence/self_care_activities_semantic/self_care_activities_semantic_6.png","1","",""
"","","","","","image-button-response","106","563198","0.0-14.0-1.0-2.5","B3438ED0E2FF474C932749E7CA9F423D","B3438ED0E2FF474C932749E7CA9F423D","9b0a0774-b22c-4d5e-9cb7-1c2408afe8a5","051c06f1-75cc-4548-856d-4923ddaba0dc","{""num_scrambled_semantic"":""8"",""num_scrambled_causal"":""4"",""num_scrambled_schematic"":""4"",""participantId"":""B3438ED0E2FF474C932749E7CA9F423D"",""assignmentId"":""9b0a0774-b22c-4d5e-9cb7-1c2408afe8a5"",""projectId"":""051c06f1-75cc-4548-856d-4923ddaba0dc""}","https://test12345.live/?num_scrambled_semantic=8&num_scrambled_causal=4&num_scrambled_schematic=4&participantId=B3438ED0E2FF474C932749E7CA9F423D&assignmentId=9b0a0774-b22c-4d5e-9cb7-1c2408afe8a5&projectId=051c06f1-75cc-4548-856d-4923ddaba0dc","B3438ED0E2FF474C932749E7CA9F423D-2025-05-15-18-53-08","","null","","[]","null","",""
"","","","","","image-button-response","107","567706","0.0-14.0-1.0-0.6","B3438ED0E2FF474C932749E7CA9F423D","B3438ED0E2FF474C932749E7CA9F423D","9b0a0774-b22c-4d5e-9cb7-1c2408afe8a5","051c06f1-75cc-4548-856d-4923ddaba0dc","{""num_scrambled_semantic"":""8"",""num_scrambled_causal"":""4"",""num_scrambled_schematic"":""4"",""participantId"":""B3438ED0E2FF474C932749E7CA9F423D"",""assignmentId"":""9b0a0774-b22c-4d5e-9cb7-1c2408afe8a5"",""projectId"":""051c06f1-75cc-4548-856d-4923ddaba0dc""}","https://test12345.live/?num_scrambled_semantic=8&num_scrambled_causal=4&num_scrambled_schematic=4&participantId=B3438ED0E2FF474C932749E7CA9F423D&assignmentId=9b0a0774-b22c-4d5e-9cb7-1c2408afe8a5&projectId=051c06f1-75cc-4548-856d-4923ddaba0dc","B3438ED0E2FF474C932749E7CA9F423D-2025-05-15-18-53-08","","null","","images/semantic_sequence/self_care_activities_semantic/self_care_activities_semantic_2.png","null","",""
"","","","","","image-button-response","108","569147","0.0-14.0-1.0-1.6","B3438ED0E2FF474C932749E7CA9F423D","B3438ED0E2FF474C932749E7CA9F423D","9b0a0774-b22c-4d5e-9cb7-1c2408afe8a5","051c06f1-75cc-4548-856d-4923ddaba0dc","{""num_scrambled_semantic"":""8"",""num_scrambled_causal"":""4"",""num_scrambled_schematic"":""4"",""participantId"":""B3438ED0E2FF474C932749E7CA9F423D"",""assignmentId"":""9b0a0774-b22c-4d5e-9cb7-1c2408afe8a5"",""projectId"":""051c06f1-75cc-4548-856d-4923ddaba0dc""}","https://test12345.live/?num_scrambled_semantic=8&num_scrambled_causal=4&num_scrambled_schematic=4&participantId=B3438ED0E2FF474C932749E7CA9F423D&assignmentId=9b0a0774-b22c-4d5e-9cb7-1c2408afe8a5&projectId=051c06f1-75cc-4548-856d-4923ddaba0dc","B3438ED0E2FF474C932749E7CA9F423D-2025-05-15-18-53-08","","1439","","images/semantic_sequence/self_care_activities_semantic/self_care_activities_semantic_2.png","0","",""
"","","","","","image-button-response","109","570956","0.0-14.0-1.0-2.6","B3438ED0E2FF474C932749E7CA9F423D","B3438ED0E2FF474C932749E7CA9F423D","9b0a0774-b22c-4d5e-9cb7-1c2408afe8a5","051c06f1-75cc-4548-856d-4923ddaba0dc","{""num_scrambled_semantic"":""8"",""num_scrambled_causal"":""4"",""num_scrambled_schematic"":""4"",""participantId"":""B3438ED0E2FF474C932749E7CA9F423D"",""assignmentId"":""9b0a0774-b22c-4d5e-9cb7-1c2408afe8a5"",""projectId"":""051c06f1-75cc-4548-856d-4923ddaba0dc""}","https://test12345.live/?num_scrambled_semantic=8&num_scrambled_causal=4&num_scrambled_schematic=4&participantId=B3438ED0E2FF474C932749E7CA9F423D&assignmentId=9b0a0774-b22c-4d5e-9cb7-1c2408afe8a5&projectId=051c06f1-75cc-4548-856d-4923ddaba0dc","B3438ED0E2FF474C932749E7CA9F423D-2025-05-15-18-53-08","","null","","[]","null","",""
"","","","","","image-button-response","110","575461","0.0-14.0-1.0-0.7","B3438ED0E2FF474C932749E7CA9F423D","B3438ED0E2FF474C932749E7CA9F423D","9b0a0774-b22c-4d5e-9cb7-1c2408afe8a5","051c06f1-75cc-4548-856d-4923ddaba0dc","{""num_scrambled_semantic"":""8"",""num_scrambled_causal"":""4"",""num_scrambled_schematic"":""4"",""participantId"":""B3438ED0E2FF474C932749E7CA9F423D"",""assignmentId"":""9b0a0774-b22c-4d5e-9cb7-1c2408afe8a5"",""projectId"":""051c06f1-75cc-4548-856d-4923ddaba0dc""}","https://test12345.live/?num_scrambled_semantic=8&num_scrambled_causal=4&num_scrambled_schematic=4&participantId=B3438ED0E2FF474C932749E7CA9F423D&assignmentId=9b0a0774-b22c-4d5e-9cb7-1c2408afe8a5&projectId=051c06f1-75cc-4548-856d-4923ddaba0dc","B3438ED0E2FF474C932749E7CA9F423D-2025-05-15-18-53-08","","null","","images/semantic_sequence/self_care_activities_semantic/self_care_activities_semantic_ten.png","null","",""
"","","","","","image-button-response","111","577687","0.0-14.0-1.0-1.7","B3438ED0E2FF474C932749E7CA9F423D","B3438ED0E2FF474C932749E7CA9F423D","9b0a0774-b22c-4d5e-9cb7-1c2408afe8a5","051c06f1-75cc-4548-856d-4923ddaba0dc","{""num_scrambled_semantic"":""8"",""num_scrambled_causal"":""4"",""num_scrambled_schematic"":""4"",""participantId"":""B3438ED0E2FF474C932749E7CA9F423D"",""assignmentId"":""9b0a0774-b22c-4d5e-9cb7-1c2408afe8a5"",""projectId"":""051c06f1-75cc-4548-856d-4923ddaba0dc""}","https://test12345.live/?num_scrambled_semantic=8&num_scrambled_causal=4&num_scrambled_schematic=4&participantId=B3438ED0E2FF474C932749E7CA9F423D&assignmentId=9b0a0774-b22c-4d5e-9cb7-1c2408afe8a5&projectId=051c06f1-75cc-4548-856d-4923ddaba0dc","B3438ED0E2FF474C932749E7CA9F423D-2025-05-15-18-53-08","","2225","","images/semantic_sequence/self_care_activities_semantic/self_care_activities_semantic_ten.png","0","",""
"","","","","","image-button-response","112","579500","0.0-14.0-1.0-2.7","B3438ED0E2FF474C932749E7CA9F423D","B3438ED0E2FF474C932749E7CA9F423D","9b0a0774-b22c-4d5e-9cb7-1c2408afe8a5","051c06f1-75cc-4548-856d-4923ddaba0dc","{""num_scrambled_semantic"":""8"",""num_scrambled_causal"":""4"",""num_scrambled_schematic"":""4"",""participantId"":""B3438ED0E2FF474C932749E7CA9F423D"",""assignmentId"":""9b0a0774-b22c-4d5e-9cb7-1c2408afe8a5"",""projectId"":""051c06f1-75cc-4548-856d-4923ddaba0dc""}","https://test12345.live/?num_scrambled_semantic=8&num_scrambled_causal=4&num_scrambled_schematic=4&participantId=B3438ED0E2FF474C932749E7CA9F423D&assignmentId=9b0a0774-b22c-4d5e-9cb7-1c2408afe8a5&projectId=051c06f1-75cc-4548-856d-4923ddaba0dc","B3438ED0E2FF474C932749E7CA9F423D-2025-05-15-18-53-08","","null","","[]","null","",""
"","","","","","image-button-response","113","584006","0.0-14.0-1.0-0.8","B3438ED0E2FF474C932749E7CA9F423D","B3438ED0E2FF474C932749E7CA9F423D","9b0a0774-b22c-4d5e-9cb7-1c2408afe8a5","051c06f1-75cc-4548-856d-4923ddaba0dc","{""num_scrambled_semantic"":""8"",""num_scrambled_causal"":""4"",""num_scrambled_schematic"":""4"",""participantId"":""B3438ED0E2FF474C932749E7CA9F423D"",""assignmentId"":""9b0a0774-b22c-4d5e-9cb7-1c2408afe8a5"",""projectId"":""051c06f1-75cc-4548-856d-4923ddaba0dc""}","https://test12345.live/?num_scrambled_semantic=8&num_scrambled_causal=4&num_scrambled_schematic=4&participantId=B3438ED0E2FF474C932749E7CA9F423D&assignmentId=9b0a0774-b22c-4d5e-9cb7-1c2408afe8a5&projectId=051c06f1-75cc-4548-856d-4923ddaba0dc","B3438ED0E2FF474C932749E7CA9F423D-2025-05-15-18-53-08","","null","","images/semantic_sequence/self_care_activities_semantic/self_care_activities_semantic_4.png","null","",""
