"success","timeout","failed_images","failed_audio","failed_video","trial_type","trial_index","time_elapsed","internal_node_id","subject","subject_id","study_id","session_id","urlvar","current_url","audio_id","view_history","rt","device_id","stimulus","response","estimated_stimulus_onset","seq_name"
"true","false","[]","[]","[]","preload","0","3393","0.0-0.0","B434DE310DA445DB95EDFFA7A132E066","B434DE310DA445DB95EDFFA7A132E066","0198b9fa-ea8c-7e8e-93f5-23ee64bdffb7","0198b9d0-29d4-7df3-8625-4b4515841beb","{""num_scrambled_semantic"":""8"",""num_scrambled_causal"":""4"",""num_scrambled_schematic"":""4"",""participantId"":""B434DE310DA445DB95EDFFA7A132E066"",""assignmentId"":""0198b9fa-ea8c-7e8e-93f5-23ee64bdffb7"",""projectId"":""0198b9d0-29d4-7df3-8625-4b4515841beb""}","https://test12345.live/?num_scrambled_semantic=8&num_scrambled_causal=4&num_scrambled_schematic=4&participantId=B434DE310DA445DB95EDFFA7A132E066&assignmentId=0198b9fa-ea8c-7e8e-93f5-23ee64bdffb7&projectId=0198b9d0-29d4-7df3-8625-4b4515841beb","B434DE310DA445DB95EDFFA7A132E066-2025-08-17-22-17-56","","","","","","",""
"","","","","","instructions","1","159113","0.0-1.0","B434DE310DA445DB95EDFFA7A132E066","B434DE310DA445DB95EDFFA7A132E066","0198b9fa-ea8c-7e8e-93f5-23ee64bdffb7","0198b9d0-29d4-7df3-8625-4b4515841beb","{""num_scrambled_semantic"":""8"",""num_scrambled_causal"":""4"",""num_scrambled_schematic"":""4"",""participantId"":""B434DE310DA445DB95EDFFA7A132E066"",""assignmentId"":""0198b9fa-ea8c-7e8e-93f5-23ee64bdffb7"",""projectId"":""0198b9d0-29d4-7df3-8625-4b4515841beb""}","https://test12345.live/?num_scrambled_semantic=8&num_scrambled_causal=4&num_scrambled_schematic=4&participantId=B434DE310DA445DB95EDFFA7A132E066&assignmentId=0198b9fa-ea8c-7e8e-93f5-23ee64bdffb7&projectId=0198b9d0-29d4-7df3-8625-4b4515841beb","B434DE310DA445DB95EDFFA7A132E066-2025-08-17-22-17-56","[{""page_index"":0,""viewing_time"":155718}]","155719","","","","",""
"","","","","","instructions","2","184979","0.0-2.0","B434DE310DA445DB95EDFFA7A132E066","B434DE310DA445DB95EDFFA7A132E066","0198b9fa-ea8c-7e8e-93f5-23ee64bdffb7","0198b9d0-29d4-7df3-8625-4b4515841beb","{""num_scrambled_semantic"":""8"",""num_scrambled_causal"":""4"",""num_scrambled_schematic"":""4"",""participantId"":""B434DE310DA445DB95EDFFA7A132E066"",""assignmentId"":""0198b9fa-ea8c-7e8e-93f5-23ee64bdffb7"",""projectId"":""0198b9d0-29d4-7df3-8625-4b4515841beb""}","https://test12345.live/?num_scrambled_semantic=8&num_scrambled_causal=4&num_scrambled_schematic=4&participantId=B434DE310DA445DB95EDFFA7A132E066&assignmentId=0198b9fa-ea8c-7e8e-93f5-23ee64bdffb7&projectId=0198b9d0-29d4-7df3-8625-4b4515841beb","B434DE310DA445DB95EDFFA7A132E066-2025-08-17-22-17-56","[{""page_index"":0,""viewing_time"":25864}]","25864","","","","",""
"true","","","","","fullscreen","3","188067","0.0-3.0","B434DE310DA445DB95EDFFA7A132E066","B434DE310DA445DB95EDFFA7A132E066","0198b9fa-ea8c-7e8e-93f5-23ee64bdffb7","0198b9d0-29d4-7df3-8625-4b4515841beb","{""num_scrambled_semantic"":""8"",""num_scrambled_causal"":""4"",""num_scrambled_schematic"":""4"",""participantId"":""B434DE310DA445DB95EDFFA7A132E066"",""assignmentId"":""0198b9fa-ea8c-7e8e-93f5-23ee64bdffb7"",""projectId"":""0198b9d0-29d4-7df3-8625-4b4515841beb""}","https://test12345.live/?num_scrambled_semantic=8&num_scrambled_causal=4&num_scrambled_schematic=4&participantId=B434DE310DA445DB95EDFFA7A132E066&assignmentId=0198b9fa-ea8c-7e8e-93f5-23ee64bdffb7&projectId=0198b9d0-29d4-7df3-8625-4b4515841beb","B434DE310DA445DB95EDFFA7A132E066-2025-08-17-22-17-56","","2077","","","","",""
"","","","","","initialize-microphone","4","196482","0.0-4.0-0.0","B434DE310DA445DB95EDFFA7A132E066","B434DE310DA445DB95EDFFA7A132E066","0198b9fa-ea8c-7e8e-93f5-23ee64bdffb7","0198b9d0-29d4-7df3-8625-4b4515841beb","{""num_scrambled_semantic"":""8"",""num_scrambled_causal"":""4"",""num_scrambled_schematic"":""4"",""participantId"":""B434DE310DA445DB95EDFFA7A132E066"",""assignmentId"":""0198b9fa-ea8c-7e8e-93f5-23ee64bdffb7"",""projectId"":""0198b9d0-29d4-7df3-8625-4b4515841beb""}","https://test12345.live/?num_scrambled_semantic=8&num_scrambled_causal=4&num_scrambled_schematic=4&participantId=B434DE310DA445DB95EDFFA7A132E066&assignmentId=0198b9fa-ea8c-7e8e-93f5-23ee64bdffb7&projectId=0198b9d0-29d4-7df3-8625-4b4515841beb","B434DE310DA445DB95EDFFA7A132E066-2025-08-17-22-17-56","","","cd8f4739eb5a49d9c732603659eacabbd209b6d19e40733c201870afdec460c9","","","",""
"","","","","","html-audio-response","5","211910","0.0-4.0-1.0","B434DE310DA445DB95EDFFA7A132E066","B434DE310DA445DB95EDFFA7A132E066","0198b9fa-ea8c-7e8e-93f5-23ee64bdffb7","0198b9d0-29d4-7df3-8625-4b4515841beb","{""num_scrambled_semantic"":""8"",""num_scrambled_causal"":""4"",""num_scrambled_schematic"":""4"",""participantId"":""B434DE310DA445DB95EDFFA7A132E066"",""assignmentId"":""0198b9fa-ea8c-7e8e-93f5-23ee64bdffb7"",""projectId"":""0198b9d0-29d4-7df3-8625-4b4515841beb""}","https://test12345.live/?num_scrambled_semantic=8&num_scrambled_causal=4&num_scrambled_schematic=4&participantId=B434DE310DA445DB95EDFFA7A132E066&assignmentId=0198b9fa-ea8c-7e8e-93f5-23ee64bdffb7&projectId=0198b9d0-29d4-7df3-8625-4b4515841beb","B434DE310DA445DB95EDFFA7A132E066-2025-08-17-22-17-56","","5693","","<span style=""color: red; font-size: 24px""> NOW RECORDING</span>
        <p>Please test Microphone</p>","","5",""
"","","","","","html-button-response","6","213075","0.0-4.0-2.0","B434DE310DA445DB95EDFFA7A132E066","B434DE310DA445DB95EDFFA7A132E066","0198b9fa-ea8c-7e8e-93f5-23ee64bdffb7","0198b9d0-29d4-7df3-8625-4b4515841beb","{""num_scrambled_semantic"":""8"",""num_scrambled_causal"":""4"",""num_scrambled_schematic"":""4"",""participantId"":""B434DE310DA445DB95EDFFA7A132E066"",""assignmentId"":""0198b9fa-ea8c-7e8e-93f5-23ee64bdffb7"",""projectId"":""0198b9d0-29d4-7df3-8625-4b4515841beb""}","https://test12345.live/?num_scrambled_semantic=8&num_scrambled_causal=4&num_scrambled_schematic=4&participantId=B434DE310DA445DB95EDFFA7A132E066&assignmentId=0198b9fa-ea8c-7e8e-93f5-23ee64bdffb7&projectId=0198b9d0-29d4-7df3-8625-4b4515841beb","B434DE310DA445DB95EDFFA7A132E066-2025-08-17-22-17-56","","1164","","<p style=""font-size:48px; color:red;"">Is Microphone OK?</p>","1","",""
"","","","","","instructions","7","228092","0.0-5.0","B434DE310DA445DB95EDFFA7A132E066","B434DE310DA445DB95EDFFA7A132E066","0198b9fa-ea8c-7e8e-93f5-23ee64bdffb7","0198b9d0-29d4-7df3-8625-4b4515841beb","{""num_scrambled_semantic"":""8"",""num_scrambled_causal"":""4"",""num_scrambled_schematic"":""4"",""participantId"":""B434DE310DA445DB95EDFFA7A132E066"",""assignmentId"":""0198b9fa-ea8c-7e8e-93f5-23ee64bdffb7"",""projectId"":""0198b9d0-29d4-7df3-8625-4b4515841beb""}","https://test12345.live/?num_scrambled_semantic=8&num_scrambled_causal=4&num_scrambled_schematic=4&participantId=B434DE310DA445DB95EDFFA7A132E066&assignmentId=0198b9fa-ea8c-7e8e-93f5-23ee64bdffb7&projectId=0198b9d0-29d4-7df3-8625-4b4515841beb","B434DE310DA445DB95EDFFA7A132E066-2025-08-17-22-17-56","[{""page_index"":0,""viewing_time"":4993},{""page_index"":1,""viewing_time"":10023}]","15016","","","","",""
"","","","","","image-button-response","8","234099","0.0-6.0-0.0","B434DE310DA445DB95EDFFA7A132E066","B434DE310DA445DB95EDFFA7A132E066","0198b9fa-ea8c-7e8e-93f5-23ee64bdffb7","0198b9d0-29d4-7df3-8625-4b4515841beb","{""num_scrambled_semantic"":""8"",""num_scrambled_causal"":""4"",""num_scrambled_schematic"":""4"",""participantId"":""B434DE310DA445DB95EDFFA7A132E066"",""assignmentId"":""0198b9fa-ea8c-7e8e-93f5-23ee64bdffb7"",""projectId"":""0198b9d0-29d4-7df3-8625-4b4515841beb""}","https://test12345.live/?num_scrambled_semantic=8&num_scrambled_causal=4&num_scrambled_schematic=4&participantId=B434DE310DA445DB95EDFFA7A132E066&assignmentId=0198b9fa-ea8c-7e8e-93f5-23ee64bdffb7&projectId=0198b9d0-29d4-7df3-8625-4b4515841beb","B434DE310DA445DB95EDFFA7A132E066-2025-08-17-22-17-56","","null","","images/instructions/movie_0.png","null","",""
"","","","","","image-button-response","9","238609","0.0-6.0-1.0-0.0","B434DE310DA445DB95EDFFA7A132E066","B434DE310DA445DB95EDFFA7A132E066","0198b9fa-ea8c-7e8e-93f5-23ee64bdffb7","0198b9d0-29d4-7df3-8625-4b4515841beb","{""num_scrambled_semantic"":""8"",""num_scrambled_causal"":""4"",""num_scrambled_schematic"":""4"",""participantId"":""B434DE310DA445DB95EDFFA7A132E066"",""assignmentId"":""0198b9fa-ea8c-7e8e-93f5-23ee64bdffb7"",""projectId"":""0198b9d0-29d4-7df3-8625-4b4515841beb""}","https://test12345.live/?num_scrambled_semantic=8&num_scrambled_causal=4&num_scrambled_schematic=4&participantId=B434DE310DA445DB95EDFFA7A132E066&assignmentId=0198b9fa-ea8c-7e8e-93f5-23ee64bdffb7&projectId=0198b9d0-29d4-7df3-8625-4b4515841beb","B434DE310DA445DB95EDFFA7A132E066-2025-08-17-22-17-56","","null","","images/instructions/movie_1.png","null","",""
"","","","","","image-button-response","10","241738","0.0-6.0-1.0-1.0","B434DE310DA445DB95EDFFA7A132E066","B434DE310DA445DB95EDFFA7A132E066","0198b9fa-ea8c-7e8e-93f5-23ee64bdffb7","0198b9d0-29d4-7df3-8625-4b4515841beb","{""num_scrambled_semantic"":""8"",""num_scrambled_causal"":""4"",""num_scrambled_schematic"":""4"",""participantId"":""B434DE310DA445DB95EDFFA7A132E066"",""assignmentId"":""0198b9fa-ea8c-7e8e-93f5-23ee64bdffb7"",""projectId"":""0198b9d0-29d4-7df3-8625-4b4515841beb""}","https://test12345.live/?num_scrambled_semantic=8&num_scrambled_causal=4&num_scrambled_schematic=4&participantId=B434DE310DA445DB95EDFFA7A132E066&assignmentId=0198b9fa-ea8c-7e8e-93f5-23ee64bdffb7&projectId=0198b9d0-29d4-7df3-8625-4b4515841beb","B434DE310DA445DB95EDFFA7A132E066-2025-08-17-22-17-56","","3128","","images/instructions/movie_1.png","0","",""
"","","","","","image-button-response","11","247155","0.0-6.0-1.0-2.0","B434DE310DA445DB95EDFFA7A132E066","B434DE310DA445DB95EDFFA7A132E066","0198b9fa-ea8c-7e8e-93f5-23ee64bdffb7","0198b9d0-29d4-7df3-8625-4b4515841beb","{""num_scrambled_semantic"":""8"",""num_scrambled_causal"":""4"",""num_scrambled_schematic"":""4"",""participantId"":""B434DE310DA445DB95EDFFA7A132E066"",""assignmentId"":""0198b9fa-ea8c-7e8e-93f5-23ee64bdffb7"",""projectId"":""0198b9d0-29d4-7df3-8625-4b4515841beb""}","https://test12345.live/?num_scrambled_semantic=8&num_scrambled_causal=4&num_scrambled_schematic=4&participantId=B434DE310DA445DB95EDFFA7A132E066&assignmentId=0198b9fa-ea8c-7e8e-93f5-23ee64bdffb7&projectId=0198b9d0-29d4-7df3-8625-4b4515841beb","B434DE310DA445DB95EDFFA7A132E066-2025-08-17-22-17-56","","null","","[]","null","",""
"","","","","","image-button-response","12","251663","0.0-6.0-1.0-0.1","B434DE310DA445DB95EDFFA7A132E066","B434DE310DA445DB95EDFFA7A132E066","0198b9fa-ea8c-7e8e-93f5-23ee64bdffb7","0198b9d0-29d4-7df3-8625-4b4515841beb","{""num_scrambled_semantic"":""8"",""num_scrambled_causal"":""4"",""num_scrambled_schematic"":""4"",""participantId"":""B434DE310DA445DB95EDFFA7A132E066"",""assignmentId"":""0198b9fa-ea8c-7e8e-93f5-23ee64bdffb7"",""projectId"":""0198b9d0-29d4-7df3-8625-4b4515841beb""}","https://test12345.live/?num_scrambled_semantic=8&num_scrambled_causal=4&num_scrambled_schematic=4&participantId=B434DE310DA445DB95EDFFA7A132E066&assignmentId=0198b9fa-ea8c-7e8e-93f5-23ee64bdffb7&projectId=0198b9d0-29d4-7df3-8625-4b4515841beb","B434DE310DA445DB95EDFFA7A132E066-2025-08-17-22-17-56","","null","","images/instructions/movie_2.png","null","",""
"","","","","","image-button-response","13","253100","0.0-6.0-1.0-1.1","B434DE310DA445DB95EDFFA7A132E066","B434DE310DA445DB95EDFFA7A132E066","0198b9fa-ea8c-7e8e-93f5-23ee64bdffb7","0198b9d0-29d4-7df3-8625-4b4515841beb","{""num_scrambled_semantic"":""8"",""num_scrambled_causal"":""4"",""num_scrambled_schematic"":""4"",""participantId"":""B434DE310DA445DB95EDFFA7A132E066"",""assignmentId"":""0198b9fa-ea8c-7e8e-93f5-23ee64bdffb7"",""projectId"":""0198b9d0-29d4-7df3-8625-4b4515841beb""}","https://test12345.live/?num_scrambled_semantic=8&num_scrambled_causal=4&num_scrambled_schematic=4&participantId=B434DE310DA445DB95EDFFA7A132E066&assignmentId=0198b9fa-ea8c-7e8e-93f5-23ee64bdffb7&projectId=0198b9d0-29d4-7df3-8625-4b4515841beb","B434DE310DA445DB95EDFFA7A132E066-2025-08-17-22-17-56","","1435","","images/instructions/movie_2.png","0","",""
"","","","","","image-button-response","14","258514","0.0-6.0-1.0-2.1","B434DE310DA445DB95EDFFA7A132E066","B434DE310DA445DB95EDFFA7A132E066","0198b9fa-ea8c-7e8e-93f5-23ee64bdffb7","0198b9d0-29d4-7df3-8625-4b4515841beb","{""num_scrambled_semantic"":""8"",""num_scrambled_causal"":""4"",""num_scrambled_schematic"":""4"",""participantId"":""B434DE310DA445DB95EDFFA7A132E066"",""assignmentId"":""0198b9fa-ea8c-7e8e-93f5-23ee64bdffb7"",""projectId"":""0198b9d0-29d4-7df3-8625-4b4515841beb""}","https://test12345.live/?num_scrambled_semantic=8&num_scrambled_causal=4&num_scrambled_schematic=4&participantId=B434DE310DA445DB95EDFFA7A132E066&assignmentId=0198b9fa-ea8c-7e8e-93f5-23ee64bdffb7&projectId=0198b9d0-29d4-7df3-8625-4b4515841beb","B434DE310DA445DB95EDFFA7A132E066-2025-08-17-22-17-56","","null","","[]","null","",""
"","","","","","image-button-response","15","263025","0.0-6.0-1.0-0.2","B434DE310DA445DB95EDFFA7A132E066","B434DE310DA445DB95EDFFA7A132E066","0198b9fa-ea8c-7e8e-93f5-23ee64bdffb7","0198b9d0-29d4-7df3-8625-4b4515841beb","{""num_scrambled_semantic"":""8"",""num_scrambled_causal"":""4"",""num_scrambled_schematic"":""4"",""participantId"":""B434DE310DA445DB95EDFFA7A132E066"",""assignmentId"":""0198b9fa-ea8c-7e8e-93f5-23ee64bdffb7"",""projectId"":""0198b9d0-29d4-7df3-8625-4b4515841beb""}","https://test12345.live/?num_scrambled_semantic=8&num_scrambled_causal=4&num_scrambled_schematic=4&participantId=B434DE310DA445DB95EDFFA7A132E066&assignmentId=0198b9fa-ea8c-7e8e-93f5-23ee64bdffb7&projectId=0198b9d0-29d4-7df3-8625-4b4515841beb","B434DE310DA445DB95EDFFA7A132E066-2025-08-17-22-17-56","","null","","images/instructions/movie_3.png","null","",""
"","","","","","image-button-response","16","264072","0.0-6.0-1.0-1.2","B434DE310DA445DB95EDFFA7A132E066","B434DE310DA445DB95EDFFA7A132E066","0198b9fa-ea8c-7e8e-93f5-23ee64bdffb7","0198b9d0-29d4-7df3-8625-4b4515841beb","{""num_scrambled_semantic"":""8"",""num_scrambled_causal"":""4"",""num_scrambled_schematic"":""4"",""participantId"":""B434DE310DA445DB95EDFFA7A132E066"",""assignmentId"":""0198b9fa-ea8c-7e8e-93f5-23ee64bdffb7"",""projectId"":""0198b9d0-29d4-7df3-8625-4b4515841beb""}","https://test12345.live/?num_scrambled_semantic=8&num_scrambled_causal=4&num_scrambled_schematic=4&participantId=B434DE310DA445DB95EDFFA7A132E066&assignmentId=0198b9fa-ea8c-7e8e-93f5-23ee64bdffb7&projectId=0198b9d0-29d4-7df3-8625-4b4515841beb","B434DE310DA445DB95EDFFA7A132E066-2025-08-17-22-17-56","","1046","","images/instructions/movie_3.png","0","",""
"","","","","","image-button-response","17","269482","0.0-6.0-1.0-2.2","B434DE310DA445DB95EDFFA7A132E066","B434DE310DA445DB95EDFFA7A132E066","0198b9fa-ea8c-7e8e-93f5-23ee64bdffb7","0198b9d0-29d4-7df3-8625-4b4515841beb","{""num_scrambled_semantic"":""8"",""num_scrambled_causal"":""4"",""num_scrambled_schematic"":""4"",""participantId"":""B434DE310DA445DB95EDFFA7A132E066"",""assignmentId"":""0198b9fa-ea8c-7e8e-93f5-23ee64bdffb7"",""projectId"":""0198b9d0-29d4-7df3-8625-4b4515841beb""}","https://test12345.live/?num_scrambled_semantic=8&num_scrambled_causal=4&num_scrambled_schematic=4&participantId=B434DE310DA445DB95EDFFA7A132E066&assignmentId=0198b9fa-ea8c-7e8e-93f5-23ee64bdffb7&projectId=0198b9d0-29d4-7df3-8625-4b4515841beb","B434DE310DA445DB95EDFFA7A132E066-2025-08-17-22-17-56","","null","","[]","null","",""
"","","","","","image-button-response","18","273985","0.0-6.0-1.0-0.3","B434DE310DA445DB95EDFFA7A132E066","B434DE310DA445DB95EDFFA7A132E066","0198b9fa-ea8c-7e8e-93f5-23ee64bdffb7","0198b9d0-29d4-7df3-8625-4b4515841beb","{""num_scrambled_semantic"":""8"",""num_scrambled_causal"":""4"",""num_scrambled_schematic"":""4"",""participantId"":""B434DE310DA445DB95EDFFA7A132E066"",""assignmentId"":""0198b9fa-ea8c-7e8e-93f5-23ee64bdffb7"",""projectId"":""0198b9d0-29d4-7df3-8625-4b4515841beb""}","https://test12345.live/?num_scrambled_semantic=8&num_scrambled_causal=4&num_scrambled_schematic=4&participantId=B434DE310DA445DB95EDFFA7A132E066&assignmentId=0198b9fa-ea8c-7e8e-93f5-23ee64bdffb7&projectId=0198b9d0-29d4-7df3-8625-4b4515841beb","B434DE310DA445DB95EDFFA7A132E066-2025-08-17-22-17-56","","null","","images/instructions/movie_4.png","null","",""
"","","","","","image-button-response","19","275812","0.0-6.0-1.0-1.3","B434DE310DA445DB95EDFFA7A132E066","B434DE310DA445DB95EDFFA7A132E066","0198b9fa-ea8c-7e8e-93f5-23ee64bdffb7","0198b9d0-29d4-7df3-8625-4b4515841beb","{""num_scrambled_semantic"":""8"",""num_scrambled_causal"":""4"",""num_scrambled_schematic"":""4"",""participantId"":""B434DE310DA445DB95EDFFA7A132E066"",""assignmentId"":""0198b9fa-ea8c-7e8e-93f5-23ee64bdffb7"",""projectId"":""0198b9d0-29d4-7df3-8625-4b4515841beb""}","https://test12345.live/?num_scrambled_semantic=8&num_scrambled_causal=4&num_scrambled_schematic=4&participantId=B434DE310DA445DB95EDFFA7A132E066&assignmentId=0198b9fa-ea8c-7e8e-93f5-23ee64bdffb7&projectId=0198b9d0-29d4-7df3-8625-4b4515841beb","B434DE310DA445DB95EDFFA7A132E066-2025-08-17-22-17-56","","1826","","images/instructions/movie_4.png","0","",""
"","","","","","image-button-response","20","281219","0.0-6.0-1.0-2.3","B434DE310DA445DB95EDFFA7A132E066","B434DE310DA445DB95EDFFA7A132E066","0198b9fa-ea8c-7e8e-93f5-23ee64bdffb7","0198b9d0-29d4-7df3-8625-4b4515841beb","{""num_scrambled_semantic"":""8"",""num_scrambled_causal"":""4"",""num_scrambled_schematic"":""4"",""participantId"":""B434DE310DA445DB95EDFFA7A132E066"",""assignmentId"":""0198b9fa-ea8c-7e8e-93f5-23ee64bdffb7"",""projectId"":""0198b9d0-29d4-7df3-8625-4b4515841beb""}","https://test12345.live/?num_scrambled_semantic=8&num_scrambled_causal=4&num_scrambled_schematic=4&participantId=B434DE310DA445DB95EDFFA7A132E066&assignmentId=0198b9fa-ea8c-7e8e-93f5-23ee64bdffb7&projectId=0198b9d0-29d4-7df3-8625-4b4515841beb","B434DE310DA445DB95EDFFA7A132E066-2025-08-17-22-17-56","","null","","[]","null","",""
"","","","","","instructions","21","289667","0.0-7.0","B434DE310DA445DB95EDFFA7A132E066","B434DE310DA445DB95EDFFA7A132E066","0198b9fa-ea8c-7e8e-93f5-23ee64bdffb7","0198b9d0-29d4-7df3-8625-4b4515841beb","{""num_scrambled_semantic"":""8"",""num_scrambled_causal"":""4"",""num_scrambled_schematic"":""4"",""participantId"":""B434DE310DA445DB95EDFFA7A132E066"",""assignmentId"":""0198b9fa-ea8c-7e8e-93f5-23ee64bdffb7"",""projectId"":""0198b9d0-29d4-7df3-8625-4b4515841beb""}","https://test12345.live/?num_scrambled_semantic=8&num_scrambled_causal=4&num_scrambled_schematic=4&participantId=B434DE310DA445DB95EDFFA7A132E066&assignmentId=0198b9fa-ea8c-7e8e-93f5-23ee64bdffb7&projectId=0198b9d0-29d4-7df3-8625-4b4515841beb","B434DE310DA445DB95EDFFA7A132E066-2025-08-17-22-17-56","[{""page_index"":0,""viewing_time"":6782},{""page_index"":1,""viewing_time"":1666}]","8448","","","","",""
"","","","","","html-audio-response","22","307478","0.0-8.0","B434DE310DA445DB95EDFFA7A132E066","B434DE310DA445DB95EDFFA7A132E066","0198b9fa-ea8c-7e8e-93f5-23ee64bdffb7","0198b9d0-29d4-7df3-8625-4b4515841beb","{""num_scrambled_semantic"":""8"",""num_scrambled_causal"":""4"",""num_scrambled_schematic"":""4"",""participantId"":""B434DE310DA445DB95EDFFA7A132E066"",""assignmentId"":""0198b9fa-ea8c-7e8e-93f5-23ee64bdffb7"",""projectId"":""0198b9d0-29d4-7df3-8625-4b4515841beb""}","https://test12345.live/?num_scrambled_semantic=8&num_scrambled_causal=4&num_scrambled_schematic=4&participantId=B434DE310DA445DB95EDFFA7A132E066&assignmentId=0198b9fa-ea8c-7e8e-93f5-23ee64bdffb7&projectId=0198b9d0-29d4-7df3-8625-4b4515841beb","B434DE310DA445DB95EDFFA7A132E066-2025-08-17-22-17-56","","5910","","[""<span style=\""color: red; font-size: 24px\""> NOW RECORDING</span><p>Please say out loud all the images you saw, as many as you can remember. The images can be said in any order.</p>""]","","2",""
"","","","","","instructions","23","308881","0.0-9.0","B434DE310DA445DB95EDFFA7A132E066","B434DE310DA445DB95EDFFA7A132E066","0198b9fa-ea8c-7e8e-93f5-23ee64bdffb7","0198b9d0-29d4-7df3-8625-4b4515841beb","{""num_scrambled_semantic"":""8"",""num_scrambled_causal"":""4"",""num_scrambled_schematic"":""4"",""participantId"":""B434DE310DA445DB95EDFFA7A132E066"",""assignmentId"":""0198b9fa-ea8c-7e8e-93f5-23ee64bdffb7"",""projectId"":""0198b9d0-29d4-7df3-8625-4b4515841beb""}","https://test12345.live/?num_scrambled_semantic=8&num_scrambled_causal=4&num_scrambled_schematic=4&participantId=B434DE310DA445DB95EDFFA7A132E066&assignmentId=0198b9fa-ea8c-7e8e-93f5-23ee64bdffb7&projectId=0198b9d0-29d4-7df3-8625-4b4515841beb","B434DE310DA445DB95EDFFA7A132E066-2025-08-17-22-17-56","[{""page_index"":0,""viewing_time"":1401}]","1401","","","","",""
"","","","","","image-button-response","24","314891","0.0-10.0-0.0","B434DE310DA445DB95EDFFA7A132E066","B434DE310DA445DB95EDFFA7A132E066","0198b9fa-ea8c-7e8e-93f5-23ee64bdffb7","0198b9d0-29d4-7df3-8625-4b4515841beb","{""num_scrambled_semantic"":""8"",""num_scrambled_causal"":""4"",""num_scrambled_schematic"":""4"",""participantId"":""B434DE310DA445DB95EDFFA7A132E066"",""assignmentId"":""0198b9fa-ea8c-7e8e-93f5-23ee64bdffb7"",""projectId"":""0198b9d0-29d4-7df3-8625-4b4515841beb""}","https://test12345.live/?num_scrambled_semantic=8&num_scrambled_causal=4&num_scrambled_schematic=4&participantId=B434DE310DA445DB95EDFFA7A132E066&assignmentId=0198b9fa-ea8c-7e8e-93f5-23ee64bdffb7&projectId=0198b9d0-29d4-7df3-8625-4b4515841beb","B434DE310DA445DB95EDFFA7A132E066-2025-08-17-22-17-56","","null","","images/semantic_sequence/housework_semantic/housework_semantic_0.png","null","",""
"","","","","","image-button-response","25","319399","0.0-10.0-1.0-0.0","B434DE310DA445DB95EDFFA7A132E066","B434DE310DA445DB95EDFFA7A132E066","0198b9fa-ea8c-7e8e-93f5-23ee64bdffb7","0198b9d0-29d4-7df3-8625-4b4515841beb","{""num_scrambled_semantic"":""8"",""num_scrambled_causal"":""4"",""num_scrambled_schematic"":""4"",""participantId"":""B434DE310DA445DB95EDFFA7A132E066"",""assignmentId"":""0198b9fa-ea8c-7e8e-93f5-23ee64bdffb7"",""projectId"":""0198b9d0-29d4-7df3-8625-4b4515841beb""}","https://test12345.live/?num_scrambled_semantic=8&num_scrambled_causal=4&num_scrambled_schematic=4&participantId=B434DE310DA445DB95EDFFA7A132E066&assignmentId=0198b9fa-ea8c-7e8e-93f5-23ee64bdffb7&projectId=0198b9d0-29d4-7df3-8625-4b4515841beb","B434DE310DA445DB95EDFFA7A132E066-2025-08-17-22-17-56","","null","","images/semantic_sequence/housework_semantic/housework_semantic_1.png","null","",""
"","","","","","image-button-response","26","322186","0.0-10.0-1.0-1.0","B434DE310DA445DB95EDFFA7A132E066","B434DE310DA445DB95EDFFA7A132E066","0198b9fa-ea8c-7e8e-93f5-23ee64bdffb7","0198b9d0-29d4-7df3-8625-4b4515841beb","{""num_scrambled_semantic"":""8"",""num_scrambled_causal"":""4"",""num_scrambled_schematic"":""4"",""participantId"":""B434DE310DA445DB95EDFFA7A132E066"",""assignmentId"":""0198b9fa-ea8c-7e8e-93f5-23ee64bdffb7"",""projectId"":""0198b9d0-29d4-7df3-8625-4b4515841beb""}","https://test12345.live/?num_scrambled_semantic=8&num_scrambled_causal=4&num_scrambled_schematic=4&participantId=B434DE310DA445DB95EDFFA7A132E066&assignmentId=0198b9fa-ea8c-7e8e-93f5-23ee64bdffb7&projectId=0198b9d0-29d4-7df3-8625-4b4515841beb","B434DE310DA445DB95EDFFA7A132E066-2025-08-17-22-17-56","","2786","","images/semantic_sequence/housework_semantic/housework_semantic_1.png","0","",""
"","","","","","image-button-response","27","327590","0.0-10.0-1.0-2.0","B434DE310DA445DB95EDFFA7A132E066","B434DE310DA445DB95EDFFA7A132E066","0198b9fa-ea8c-7e8e-93f5-23ee64bdffb7","0198b9d0-29d4-7df3-8625-4b4515841beb","{""num_scrambled_semantic"":""8"",""num_scrambled_causal"":""4"",""num_scrambled_schematic"":""4"",""participantId"":""B434DE310DA445DB95EDFFA7A132E066"",""assignmentId"":""0198b9fa-ea8c-7e8e-93f5-23ee64bdffb7"",""projectId"":""0198b9d0-29d4-7df3-8625-4b4515841beb""}","https://test12345.live/?num_scrambled_semantic=8&num_scrambled_causal=4&num_scrambled_schematic=4&participantId=B434DE310DA445DB95EDFFA7A132E066&assignmentId=0198b9fa-ea8c-7e8e-93f5-23ee64bdffb7&projectId=0198b9d0-29d4-7df3-8625-4b4515841beb","B434DE310DA445DB95EDFFA7A132E066-2025-08-17-22-17-56","","null","","[]","null","",""
"","","","","","image-button-response","28","332096","0.0-10.0-1.0-0.1","B434DE310DA445DB95EDFFA7A132E066","B434DE310DA445DB95EDFFA7A132E066","0198b9fa-ea8c-7e8e-93f5-23ee64bdffb7","0198b9d0-29d4-7df3-8625-4b4515841beb","{""num_scrambled_semantic"":""8"",""num_scrambled_causal"":""4"",""num_scrambled_schematic"":""4"",""participantId"":""B434DE310DA445DB95EDFFA7A132E066"",""assignmentId"":""0198b9fa-ea8c-7e8e-93f5-23ee64bdffb7"",""projectId"":""0198b9d0-29d4-7df3-8625-4b4515841beb""}","https://test12345.live/?num_scrambled_semantic=8&num_scrambled_causal=4&num_scrambled_schematic=4&participantId=B434DE310DA445DB95EDFFA7A132E066&assignmentId=0198b9fa-ea8c-7e8e-93f5-23ee64bdffb7&projectId=0198b9d0-29d4-7df3-8625-4b4515841beb","B434DE310DA445DB95EDFFA7A132E066-2025-08-17-22-17-56","","null","","images/semantic_sequence/housework_semantic/housework_semantic_4.png","null","",""
"","","","","","image-button-response","29","336104","0.0-10.0-1.0-1.1","B434DE310DA445DB95EDFFA7A132E066","B434DE310DA445DB95EDFFA7A132E066","0198b9fa-ea8c-7e8e-93f5-23ee64bdffb7","0198b9d0-29d4-7df3-8625-4b4515841beb","{""num_scrambled_semantic"":""8"",""num_scrambled_causal"":""4"",""num_scrambled_schematic"":""4"",""participantId"":""B434DE310DA445DB95EDFFA7A132E066"",""assignmentId"":""0198b9fa-ea8c-7e8e-93f5-23ee64bdffb7"",""projectId"":""0198b9d0-29d4-7df3-8625-4b4515841beb""}","https://test12345.live/?num_scrambled_semantic=8&num_scrambled_causal=4&num_scrambled_schematic=4&participantId=B434DE310DA445DB95EDFFA7A132E066&assignmentId=0198b9fa-ea8c-7e8e-93f5-23ee64bdffb7&projectId=0198b9d0-29d4-7df3-8625-4b4515841beb","B434DE310DA445DB95EDFFA7A132E066-2025-08-17-22-17-56","","null","","images/semantic_sequence/housework_semantic/housework_semantic_4.png","null","",""
"","","","","","image-button-response","30","341511","0.0-10.0-1.0-2.1","B434DE310DA445DB95EDFFA7A132E066","B434DE310DA445DB95EDFFA7A132E066","0198b9fa-ea8c-7e8e-93f5-23ee64bdffb7","0198b9d0-29d4-7df3-8625-4b4515841beb","{""num_scrambled_semantic"":""8"",""num_scrambled_causal"":""4"",""num_scrambled_schematic"":""4"",""participantId"":""B434DE310DA445DB95EDFFA7A132E066"",""assignmentId"":""0198b9fa-ea8c-7e8e-93f5-23ee64bdffb7"",""projectId"":""0198b9d0-29d4-7df3-8625-4b4515841beb""}","https://test12345.live/?num_scrambled_semantic=8&num_scrambled_causal=4&num_scrambled_schematic=4&participantId=B434DE310DA445DB95EDFFA7A132E066&assignmentId=0198b9fa-ea8c-7e8e-93f5-23ee64bdffb7&projectId=0198b9d0-29d4-7df3-8625-4b4515841beb","B434DE310DA445DB95EDFFA7A132E066-2025-08-17-22-17-56","","null","","[]","null","",""
"","","","","","image-button-response","31","346014","0.0-10.0-1.0-0.2","B434DE310DA445DB95EDFFA7A132E066","B434DE310DA445DB95EDFFA7A132E066","0198b9fa-ea8c-7e8e-93f5-23ee64bdffb7","0198b9d0-29d4-7df3-8625-4b4515841beb","{""num_scrambled_semantic"":""8"",""num_scrambled_causal"":""4"",""num_scrambled_schematic"":""4"",""participantId"":""B434DE310DA445DB95EDFFA7A132E066"",""assignmentId"":""0198b9fa-ea8c-7e8e-93f5-23ee64bdffb7"",""projectId"":""0198b9d0-29d4-7df3-8625-4b4515841beb""}","https://test12345.live/?num_scrambled_semantic=8&num_scrambled_causal=4&num_scrambled_schematic=4&participantId=B434DE310DA445DB95EDFFA7A132E066&assignmentId=0198b9fa-ea8c-7e8e-93f5-23ee64bdffb7&projectId=0198b9d0-29d4-7df3-8625-4b4515841beb","B434DE310DA445DB95EDFFA7A132E066-2025-08-17-22-17-56","","null","","images/semantic_sequence/housework_semantic/housework_semantic_8.png","null","",""
"","","","","","image-button-response","32","350016","0.0-10.0-1.0-1.2","B434DE310DA445DB95EDFFA7A132E066","B434DE310DA445DB95EDFFA7A132E066","0198b9fa-ea8c-7e8e-93f5-23ee64bdffb7","0198b9d0-29d4-7df3-8625-4b4515841beb","{""num_scrambled_semantic"":""8"",""num_scrambled_causal"":""4"",""num_scrambled_schematic"":""4"",""participantId"":""B434DE310DA445DB95EDFFA7A132E066"",""assignmentId"":""0198b9fa-ea8c-7e8e-93f5-23ee64bdffb7"",""projectId"":""0198b9d0-29d4-7df3-8625-4b4515841beb""}","https://test12345.live/?num_scrambled_semantic=8&num_scrambled_causal=4&num_scrambled_schematic=4&participantId=B434DE310DA445DB95EDFFA7A132E066&assignmentId=0198b9fa-ea8c-7e8e-93f5-23ee64bdffb7&projectId=0198b9d0-29d4-7df3-8625-4b4515841beb","B434DE310DA445DB95EDFFA7A132E066-2025-08-17-22-17-56","","null","","images/semantic_sequence/housework_semantic/housework_semantic_8.png","null","",""
"","","","","","image-button-response","33","355430","0.0-10.0-1.0-2.2","B434DE310DA445DB95EDFFA7A132E066","B434DE310DA445DB95EDFFA7A132E066","0198b9fa-ea8c-7e8e-93f5-23ee64bdffb7","0198b9d0-29d4-7df3-8625-4b4515841beb","{""num_scrambled_semantic"":""8"",""num_scrambled_causal"":""4"",""num_scrambled_schematic"":""4"",""participantId"":""B434DE310DA445DB95EDFFA7A132E066"",""assignmentId"":""0198b9fa-ea8c-7e8e-93f5-23ee64bdffb7"",""projectId"":""0198b9d0-29d4-7df3-8625-4b4515841beb""}","https://test12345.live/?num_scrambled_semantic=8&num_scrambled_causal=4&num_scrambled_schematic=4&participantId=B434DE310DA445DB95EDFFA7A132E066&assignmentId=0198b9fa-ea8c-7e8e-93f5-23ee64bdffb7&projectId=0198b9d0-29d4-7df3-8625-4b4515841beb","B434DE310DA445DB95EDFFA7A132E066-2025-08-17-22-17-56","","null","","[]","null","",""
"","","","","","image-button-response","34","359941","0.0-10.0-1.0-0.3","B434DE310DA445DB95EDFFA7A132E066","B434DE310DA445DB95EDFFA7A132E066","0198b9fa-ea8c-7e8e-93f5-23ee64bdffb7","0198b9d0-29d4-7df3-8625-4b4515841beb","{""num_scrambled_semantic"":""8"",""num_scrambled_causal"":""4"",""num_scrambled_schematic"":""4"",""participantId"":""B434DE310DA445DB95EDFFA7A132E066"",""assignmentId"":""0198b9fa-ea8c-7e8e-93f5-23ee64bdffb7"",""projectId"":""0198b9d0-29d4-7df3-8625-4b4515841beb""}","https://test12345.live/?num_scrambled_semantic=8&num_scrambled_causal=4&num_scrambled_schematic=4&participantId=B434DE310DA445DB95EDFFA7A132E066&assignmentId=0198b9fa-ea8c-7e8e-93f5-23ee64bdffb7&projectId=0198b9d0-29d4-7df3-8625-4b4515841beb","B434DE310DA445DB95EDFFA7A132E066-2025-08-17-22-17-56","","null","","images/semantic_sequence/housework_semantic/housework_semantic_7.png","null","",""
"","","","","","image-button-response","35","361888","0.0-10.0-1.0-1.3","B434DE310DA445DB95EDFFA7A132E066","B434DE310DA445DB95EDFFA7A132E066","0198b9fa-ea8c-7e8e-93f5-23ee64bdffb7","0198b9d0-29d4-7df3-8625-4b4515841beb","{""num_scrambled_semantic"":""8"",""num_scrambled_causal"":""4"",""num_scrambled_schematic"":""4"",""participantId"":""B434DE310DA445DB95EDFFA7A132E066"",""assignmentId"":""0198b9fa-ea8c-7e8e-93f5-23ee64bdffb7"",""projectId"":""0198b9d0-29d4-7df3-8625-4b4515841beb""}","https://test12345.live/?num_scrambled_semantic=8&num_scrambled_causal=4&num_scrambled_schematic=4&participantId=B434DE310DA445DB95EDFFA7A132E066&assignmentId=0198b9fa-ea8c-7e8e-93f5-23ee64bdffb7&projectId=0198b9d0-29d4-7df3-8625-4b4515841beb","B434DE310DA445DB95EDFFA7A132E066-2025-08-17-22-17-56","","1946","","images/semantic_sequence/housework_semantic/housework_semantic_7.png","0","",""
"","","","","","image-button-response","36","367293","0.0-10.0-1.0-2.3","B434DE310DA445DB95EDFFA7A132E066","B434DE310DA445DB95EDFFA7A132E066","0198b9fa-ea8c-7e8e-93f5-23ee64bdffb7","0198b9d0-29d4-7df3-8625-4b4515841beb","{""num_scrambled_semantic"":""8"",""num_scrambled_causal"":""4"",""num_scrambled_schematic"":""4"",""participantId"":""B434DE310DA445DB95EDFFA7A132E066"",""assignmentId"":""0198b9fa-ea8c-7e8e-93f5-23ee64bdffb7"",""projectId"":""0198b9d0-29d4-7df3-8625-4b4515841beb""}","https://test12345.live/?num_scrambled_semantic=8&num_scrambled_causal=4&num_scrambled_schematic=4&participantId=B434DE310DA445DB95EDFFA7A132E066&assignmentId=0198b9fa-ea8c-7e8e-93f5-23ee64bdffb7&projectId=0198b9d0-29d4-7df3-8625-4b4515841beb","B434DE310DA445DB95EDFFA7A132E066-2025-08-17-22-17-56","","null","","[]","null","",""
"","","","","","image-button-response","37","371806","0.0-10.0-1.0-0.4","B434DE310DA445DB95EDFFA7A132E066","B434DE310DA445DB95EDFFA7A132E066","0198b9fa-ea8c-7e8e-93f5-23ee64bdffb7","0198b9d0-29d4-7df3-8625-4b4515841beb","{""num_scrambled_semantic"":""8"",""num_scrambled_causal"":""4"",""num_scrambled_schematic"":""4"",""participantId"":""B434DE310DA445DB95EDFFA7A132E066"",""assignmentId"":""0198b9fa-ea8c-7e8e-93f5-23ee64bdffb7"",""projectId"":""0198b9d0-29d4-7df3-8625-4b4515841beb""}","https://test12345.live/?num_scrambled_semantic=8&num_scrambled_causal=4&num_scrambled_schematic=4&participantId=B434DE310DA445DB95EDFFA7A132E066&assignmentId=0198b9fa-ea8c-7e8e-93f5-23ee64bdffb7&projectId=0198b9d0-29d4-7df3-8625-4b4515841beb","B434DE310DA445DB95EDFFA7A132E066-2025-08-17-22-17-56","","null","","images/semantic_sequence/housework_semantic/housework_semantic_6.png","null","",""
"","","","","","image-button-response","38","372866","0.0-10.0-1.0-1.4","B434DE310DA445DB95EDFFA7A132E066","B434DE310DA445DB95EDFFA7A132E066","0198b9fa-ea8c-7e8e-93f5-23ee64bdffb7","0198b9d0-29d4-7df3-8625-4b4515841beb","{""num_scrambled_semantic"":""8"",""num_scrambled_causal"":""4"",""num_scrambled_schematic"":""4"",""participantId"":""B434DE310DA445DB95EDFFA7A132E066"",""assignmentId"":""0198b9fa-ea8c-7e8e-93f5-23ee64bdffb7"",""projectId"":""0198b9d0-29d4-7df3-8625-4b4515841beb""}","https://test12345.live/?num_scrambled_semantic=8&num_scrambled_causal=4&num_scrambled_schematic=4&participantId=B434DE310DA445DB95EDFFA7A132E066&assignmentId=0198b9fa-ea8c-7e8e-93f5-23ee64bdffb7&projectId=0198b9d0-29d4-7df3-8625-4b4515841beb","B434DE310DA445DB95EDFFA7A132E066-2025-08-17-22-17-56","","1059","","images/semantic_sequence/housework_semantic/housework_semantic_6.png","0","",""
"","","","","","image-button-response","39","378277","0.0-10.0-1.0-2.4","B434DE310DA445DB95EDFFA7A132E066","B434DE310DA445DB95EDFFA7A132E066","0198b9fa-ea8c-7e8e-93f5-23ee64bdffb7","0198b9d0-29d4-7df3-8625-4b4515841beb","{""num_scrambled_semantic"":""8"",""num_scrambled_causal"":""4"",""num_scrambled_schematic"":""4"",""participantId"":""B434DE310DA445DB95EDFFA7A132E066"",""assignmentId"":""0198b9fa-ea8c-7e8e-93f5-23ee64bdffb7"",""projectId"":""0198b9d0-29d4-7df3-8625-4b4515841beb""}","https://test12345.live/?num_scrambled_semantic=8&num_scrambled_causal=4&num_scrambled_schematic=4&participantId=B434DE310DA445DB95EDFFA7A132E066&assignmentId=0198b9fa-ea8c-7e8e-93f5-23ee64bdffb7&projectId=0198b9d0-29d4-7df3-8625-4b4515841beb","B434DE310DA445DB95EDFFA7A132E066-2025-08-17-22-17-56","","null","","[]","null","",""
"","","","","","image-button-response","40","382782","0.0-10.0-1.0-0.5","B434DE310DA445DB95EDFFA7A132E066","B434DE310DA445DB95EDFFA7A132E066","0198b9fa-ea8c-7e8e-93f5-23ee64bdffb7","0198b9d0-29d4-7df3-8625-4b4515841beb","{""num_scrambled_semantic"":""8"",""num_scrambled_causal"":""4"",""num_scrambled_schematic"":""4"",""participantId"":""B434DE310DA445DB95EDFFA7A132E066"",""assignmentId"":""0198b9fa-ea8c-7e8e-93f5-23ee64bdffb7"",""projectId"":""0198b9d0-29d4-7df3-8625-4b4515841beb""}","https://test12345.live/?num_scrambled_semantic=8&num_scrambled_causal=4&num_scrambled_schematic=4&participantId=B434DE310DA445DB95EDFFA7A132E066&assignmentId=0198b9fa-ea8c-7e8e-93f5-23ee64bdffb7&projectId=0198b9d0-29d4-7df3-8625-4b4515841beb","B434DE310DA445DB95EDFFA7A132E066-2025-08-17-22-17-56","","null","","images/semantic_sequence/housework_semantic/housework_semantic_9.png","null","",""
"","","","","","image-button-response","41","383939","0.0-10.0-1.0-1.5","B434DE310DA445DB95EDFFA7A132E066","B434DE310DA445DB95EDFFA7A132E066","0198b9fa-ea8c-7e8e-93f5-23ee64bdffb7","0198b9d0-29d4-7df3-8625-4b4515841beb","{""num_scrambled_semantic"":""8"",""num_scrambled_causal"":""4"",""num_scrambled_schematic"":""4"",""participantId"":""B434DE310DA445DB95EDFFA7A132E066"",""assignmentId"":""0198b9fa-ea8c-7e8e-93f5-23ee64bdffb7"",""projectId"":""0198b9d0-29d4-7df3-8625-4b4515841beb""}","https://test12345.live/?num_scrambled_semantic=8&num_scrambled_causal=4&num_scrambled_schematic=4&participantId=B434DE310DA445DB95EDFFA7A132E066&assignmentId=0198b9fa-ea8c-7e8e-93f5-23ee64bdffb7&projectId=0198b9d0-29d4-7df3-8625-4b4515841beb","B434DE310DA445DB95EDFFA7A132E066-2025-08-17-22-17-56","","1156","","images/semantic_sequence/housework_semantic/housework_semantic_9.png","0","",""
"","","","","","image-button-response","42","389352","0.0-10.0-1.0-2.5","B434DE310DA445DB95EDFFA7A132E066","B434DE310DA445DB95EDFFA7A132E066","0198b9fa-ea8c-7e8e-93f5-23ee64bdffb7","0198b9d0-29d4-7df3-8625-4b4515841beb","{""num_scrambled_semantic"":""8"",""num_scrambled_causal"":""4"",""num_scrambled_schematic"":""4"",""participantId"":""B434DE310DA445DB95EDFFA7A132E066"",""assignmentId"":""0198b9fa-ea8c-7e8e-93f5-23ee64bdffb7"",""projectId"":""0198b9d0-29d4-7df3-8625-4b4515841beb""}","https://test12345.live/?num_scrambled_semantic=8&num_scrambled_causal=4&num_scrambled_schematic=4&participantId=B434DE310DA445DB95EDFFA7A132E066&assignmentId=0198b9fa-ea8c-7e8e-93f5-23ee64bdffb7&projectId=0198b9d0-29d4-7df3-8625-4b4515841beb","B434DE310DA445DB95EDFFA7A132E066-2025-08-17-22-17-56","","null","","[]","null","",""
"","","","","","image-button-response","43","393858","0.0-10.0-1.0-0.6","B434DE310DA445DB95EDFFA7A132E066","B434DE310DA445DB95EDFFA7A132E066","0198b9fa-ea8c-7e8e-93f5-23ee64bdffb7","0198b9d0-29d4-7df3-8625-4b4515841beb","{""num_scrambled_semantic"":""8"",""num_scrambled_causal"":""4"",""num_scrambled_schematic"":""4"",""participantId"":""B434DE310DA445DB95EDFFA7A132E066"",""assignmentId"":""0198b9fa-ea8c-7e8e-93f5-23ee64bdffb7"",""projectId"":""0198b9d0-29d4-7df3-8625-4b4515841beb""}","https://test12345.live/?num_scrambled_semantic=8&num_scrambled_causal=4&num_scrambled_schematic=4&participantId=B434DE310DA445DB95EDFFA7A132E066&assignmentId=0198b9fa-ea8c-7e8e-93f5-23ee64bdffb7&projectId=0198b9d0-29d4-7df3-8625-4b4515841beb","B434DE310DA445DB95EDFFA7A132E066-2025-08-17-22-17-56","","null","","images/semantic_sequence/housework_semantic/housework_semantic_3.png","null","",""
"","","","","","image-button-response","44","395167","0.0-10.0-1.0-1.6","B434DE310DA445DB95EDFFA7A132E066","B434DE310DA445DB95EDFFA7A132E066","0198b9fa-ea8c-7e8e-93f5-23ee64bdffb7","0198b9d0-29d4-7df3-8625-4b4515841beb","{""num_scrambled_semantic"":""8"",""num_scrambled_causal"":""4"",""num_scrambled_schematic"":""4"",""participantId"":""B434DE310DA445DB95EDFFA7A132E066"",""assignmentId"":""0198b9fa-ea8c-7e8e-93f5-23ee64bdffb7"",""projectId"":""0198b9d0-29d4-7df3-8625-4b4515841beb""}","https://test12345.live/?num_scrambled_semantic=8&num_scrambled_causal=4&num_scrambled_schematic=4&participantId=B434DE310DA445DB95EDFFA7A132E066&assignmentId=0198b9fa-ea8c-7e8e-93f5-23ee64bdffb7&projectId=0198b9d0-29d4-7df3-8625-4b4515841beb","B434DE310DA445DB95EDFFA7A132E066-2025-08-17-22-17-56","","1308","","images/semantic_sequence/housework_semantic/housework_semantic_3.png","0","",""
"","","","","","image-button-response","45","400582","0.0-10.0-1.0-2.6","B434DE310DA445DB95EDFFA7A132E066","B434DE310DA445DB95EDFFA7A132E066","0198b9fa-ea8c-7e8e-93f5-23ee64bdffb7","0198b9d0-29d4-7df3-8625-4b4515841beb","{""num_scrambled_semantic"":""8"",""num_scrambled_causal"":""4"",""num_scrambled_schematic"":""4"",""participantId"":""B434DE310DA445DB95EDFFA7A132E066"",""assignmentId"":""0198b9fa-ea8c-7e8e-93f5-23ee64bdffb7"",""projectId"":""0198b9d0-29d4-7df3-8625-4b4515841beb""}","https://test12345.live/?num_scrambled_semantic=8&num_scrambled_causal=4&num_scrambled_schematic=4&participantId=B434DE310DA445DB95EDFFA7A132E066&assignmentId=0198b9fa-ea8c-7e8e-93f5-23ee64bdffb7&projectId=0198b9d0-29d4-7df3-8625-4b4515841beb","B434DE310DA445DB95EDFFA7A132E066-2025-08-17-22-17-56","","null","","[]","null","",""
"","","","","","image-button-response","46","405086","0.0-10.0-1.0-0.7","B434DE310DA445DB95EDFFA7A132E066","B434DE310DA445DB95EDFFA7A132E066","0198b9fa-ea8c-7e8e-93f5-23ee64bdffb7","0198b9d0-29d4-7df3-8625-4b4515841beb","{""num_scrambled_semantic"":""8"",""num_scrambled_causal"":""4"",""num_scrambled_schematic"":""4"",""participantId"":""B434DE310DA445DB95EDFFA7A132E066"",""assignmentId"":""0198b9fa-ea8c-7e8e-93f5-23ee64bdffb7"",""projectId"":""0198b9d0-29d4-7df3-8625-4b4515841beb""}","https://test12345.live/?num_scrambled_semantic=8&num_scrambled_causal=4&num_scrambled_schematic=4&participantId=B434DE310DA445DB95EDFFA7A132E066&assignmentId=0198b9fa-ea8c-7e8e-93f5-23ee64bdffb7&projectId=0198b9d0-29d4-7df3-8625-4b4515841beb","B434DE310DA445DB95EDFFA7A132E066-2025-08-17-22-17-56","","null","","images/semantic_sequence/housework_semantic/housework_semantic_5.png","null","",""
"","","","","","image-button-response","47","408190","0.0-10.0-1.0-1.7","B434DE310DA445DB95EDFFA7A132E066","B434DE310DA445DB95EDFFA7A132E066","0198b9fa-ea8c-7e8e-93f5-23ee64bdffb7","0198b9d0-29d4-7df3-8625-4b4515841beb","{""num_scrambled_semantic"":""8"",""num_scrambled_causal"":""4"",""num_scrambled_schematic"":""4"",""participantId"":""B434DE310DA445DB95EDFFA7A132E066"",""assignmentId"":""0198b9fa-ea8c-7e8e-93f5-23ee64bdffb7"",""projectId"":""0198b9d0-29d4-7df3-8625-4b4515841beb""}","https://test12345.live/?num_scrambled_semantic=8&num_scrambled_causal=4&num_scrambled_schematic=4&participantId=B434DE310DA445DB95EDFFA7A132E066&assignmentId=0198b9fa-ea8c-7e8e-93f5-23ee64bdffb7&projectId=0198b9d0-29d4-7df3-8625-4b4515841beb","B434DE310DA445DB95EDFFA7A132E066-2025-08-17-22-17-56","","3103","","images/semantic_sequence/housework_semantic/housework_semantic_5.png","0","",""
"","","","","","image-button-response","48","413598","0.0-10.0-1.0-2.7","B434DE310DA445DB95EDFFA7A132E066","B434DE310DA445DB95EDFFA7A132E066","0198b9fa-ea8c-7e8e-93f5-23ee64bdffb7","0198b9d0-29d4-7df3-8625-4b4515841beb","{""num_scrambled_semantic"":""8"",""num_scrambled_causal"":""4"",""num_scrambled_schematic"":""4"",""participantId"":""B434DE310DA445DB95EDFFA7A132E066"",""assignmentId"":""0198b9fa-ea8c-7e8e-93f5-23ee64bdffb7"",""projectId"":""0198b9d0-29d4-7df3-8625-4b4515841beb""}","https://test12345.live/?num_scrambled_semantic=8&num_scrambled_causal=4&num_scrambled_schematic=4&participantId=B434DE310DA445DB95EDFFA7A132E066&assignmentId=0198b9fa-ea8c-7e8e-93f5-23ee64bdffb7&projectId=0198b9d0-29d4-7df3-8625-4b4515841beb","B434DE310DA445DB95EDFFA7A132E066-2025-08-17-22-17-56","","null","","[]","null","",""
"","","","","","image-button-response","49","418104","0.0-10.0-1.0-0.8","B434DE310DA445DB95EDFFA7A132E066","B434DE310DA445DB95EDFFA7A132E066","0198b9fa-ea8c-7e8e-93f5-23ee64bdffb7","0198b9d0-29d4-7df3-8625-4b4515841beb","{""num_scrambled_semantic"":""8"",""num_scrambled_causal"":""4"",""num_scrambled_schematic"":""4"",""participantId"":""B434DE310DA445DB95EDFFA7A132E066"",""assignmentId"":""0198b9fa-ea8c-7e8e-93f5-23ee64bdffb7"",""projectId"":""0198b9d0-29d4-7df3-8625-4b4515841beb""}","https://test12345.live/?num_scrambled_semantic=8&num_scrambled_causal=4&num_scrambled_schematic=4&participantId=B434DE310DA445DB95EDFFA7A132E066&assignmentId=0198b9fa-ea8c-7e8e-93f5-23ee64bdffb7&projectId=0198b9d0-29d4-7df3-8625-4b4515841beb","B434DE310DA445DB95EDFFA7A132E066-2025-08-17-22-17-56","","null","","images/semantic_sequence/housework_semantic/housework_semantic_ten.png","null","",""
"","","","","","image-button-response","50","419794","0.0-10.0-1.0-1.8","B434DE310DA445DB95EDFFA7A132E066","B434DE310DA445DB95EDFFA7A132E066","0198b9fa-ea8c-7e8e-93f5-23ee64bdffb7","0198b9d0-29d4-7df3-8625-4b4515841beb","{""num_scrambled_semantic"":""8"",""num_scrambled_causal"":""4"",""num_scrambled_schematic"":""4"",""participantId"":""B434DE310DA445DB95EDFFA7A132E066"",""assignmentId"":""0198b9fa-ea8c-7e8e-93f5-23ee64bdffb7"",""projectId"":""0198b9d0-29d4-7df3-8625-4b4515841beb""}","https://test12345.live/?num_scrambled_semantic=8&num_scrambled_causal=4&num_scrambled_schematic=4&participantId=B434DE310DA445DB95EDFFA7A132E066&assignmentId=0198b9fa-ea8c-7e8e-93f5-23ee64bdffb7&projectId=0198b9d0-29d4-7df3-8625-4b4515841beb","B434DE310DA445DB95EDFFA7A132E066-2025-08-17-22-17-56","","1689","","images/semantic_sequence/housework_semantic/housework_semantic_ten.png","0","",""
"","","","","","image-button-response","51","425200","0.0-10.0-1.0-2.8","B434DE310DA445DB95EDFFA7A132E066","B434DE310DA445DB95EDFFA7A132E066","0198b9fa-ea8c-7e8e-93f5-23ee64bdffb7","0198b9d0-29d4-7df3-8625-4b4515841beb","{""num_scrambled_semantic"":""8"",""num_scrambled_causal"":""4"",""num_scrambled_schematic"":""4"",""participantId"":""B434DE310DA445DB95EDFFA7A132E066"",""assignmentId"":""0198b9fa-ea8c-7e8e-93f5-23ee64bdffb7"",""projectId"":""0198b9d0-29d4-7df3-8625-4b4515841beb""}","https://test12345.live/?num_scrambled_semantic=8&num_scrambled_causal=4&num_scrambled_schematic=4&participantId=B434DE310DA445DB95EDFFA7A132E066&assignmentId=0198b9fa-ea8c-7e8e-93f5-23ee64bdffb7&projectId=0198b9d0-29d4-7df3-8625-4b4515841beb","B434DE310DA445DB95EDFFA7A132E066-2025-08-17-22-17-56","","null","","[]","null","",""
"","","","","","image-button-response","52","429705","0.0-10.0-1.0-0.9","B434DE310DA445DB95EDFFA7A132E066","B434DE310DA445DB95EDFFA7A132E066","0198b9fa-ea8c-7e8e-93f5-23ee64bdffb7","0198b9d0-29d4-7df3-8625-4b4515841beb","{""num_scrambled_semantic"":""8"",""num_scrambled_causal"":""4"",""num_scrambled_schematic"":""4"",""participantId"":""B434DE310DA445DB95EDFFA7A132E066"",""assignmentId"":""0198b9fa-ea8c-7e8e-93f5-23ee64bdffb7"",""projectId"":""0198b9d0-29d4-7df3-8625-4b4515841beb""}","https://test12345.live/?num_scrambled_semantic=8&num_scrambled_causal=4&num_scrambled_schematic=4&participantId=B434DE310DA445DB95EDFFA7A132E066&assignmentId=0198b9fa-ea8c-7e8e-93f5-23ee64bdffb7&projectId=0198b9d0-29d4-7df3-8625-4b4515841beb","B434DE310DA445DB95EDFFA7A132E066-2025-08-17-22-17-56","","null","","images/semantic_sequence/housework_semantic/housework_semantic_2.png","null","",""
"","","","","","image-button-response","53","431912","0.0-10.0-1.0-1.9","B434DE310DA445DB95EDFFA7A132E066","B434DE310DA445DB95EDFFA7A132E066","0198b9fa-ea8c-7e8e-93f5-23ee64bdffb7","0198b9d0-29d4-7df3-8625-4b4515841beb","{""num_scrambled_semantic"":""8"",""num_scrambled_causal"":""4"",""num_scrambled_schematic"":""4"",""participantId"":""B434DE310DA445DB95EDFFA7A132E066"",""assignmentId"":""0198b9fa-ea8c-7e8e-93f5-23ee64bdffb7"",""projectId"":""0198b9d0-29d4-7df3-8625-4b4515841beb""}","https://test12345.live/?num_scrambled_semantic=8&num_scrambled_causal=4&num_scrambled_schematic=4&participantId=B434DE310DA445DB95EDFFA7A132E066&assignmentId=0198b9fa-ea8c-7e8e-93f5-23ee64bdffb7&projectId=0198b9d0-29d4-7df3-8625-4b4515841beb","B434DE310DA445DB95EDFFA7A132E066-2025-08-17-22-17-56","","2206","","images/semantic_sequence/housework_semantic/housework_semantic_2.png","0","",""
"","","","","","image-button-response","54","437313","0.0-10.0-1.0-2.9","B434DE310DA445DB95EDFFA7A132E066","B434DE310DA445DB95EDFFA7A132E066","0198b9fa-ea8c-7e8e-93f5-23ee64bdffb7","0198b9d0-29d4-7df3-8625-4b4515841beb","{""num_scrambled_semantic"":""8"",""num_scrambled_causal"":""4"",""num_scrambled_schematic"":""4"",""participantId"":""B434DE310DA445DB95EDFFA7A132E066"",""assignmentId"":""0198b9fa-ea8c-7e8e-93f5-23ee64bdffb7"",""projectId"":""0198b9d0-29d4-7df3-8625-4b4515841beb""}","https://test12345.live/?num_scrambled_semantic=8&num_scrambled_causal=4&num_scrambled_schematic=4&participantId=B434DE310DA445DB95EDFFA7A132E066&assignmentId=0198b9fa-ea8c-7e8e-93f5-23ee64bdffb7&projectId=0198b9d0-29d4-7df3-8625-4b4515841beb","B434DE310DA445DB95EDFFA7A132E066-2025-08-17-22-17-56","","null","","[]","null","",""
"","","","","","html-audio-response","55","457890","0.0-11.0","B434DE310DA445DB95EDFFA7A132E066","B434DE310DA445DB95EDFFA7A132E066","0198b9fa-ea8c-7e8e-93f5-23ee64bdffb7","0198b9d0-29d4-7df3-8625-4b4515841beb","{""num_scrambled_semantic"":""8"",""num_scrambled_causal"":""4"",""num_scrambled_schematic"":""4"",""participantId"":""B434DE310DA445DB95EDFFA7A132E066"",""assignmentId"":""0198b9fa-ea8c-7e8e-93f5-23ee64bdffb7"",""projectId"":""0198b9d0-29d4-7df3-8625-4b4515841beb""}","https://test12345.live/?num_scrambled_semantic=8&num_scrambled_causal=4&num_scrambled_schematic=4&participantId=B434DE310DA445DB95EDFFA7A132E066&assignmentId=0198b9fa-ea8c-7e8e-93f5-23ee64bdffb7&projectId=0198b9d0-29d4-7df3-8625-4b4515841beb","B434DE310DA445DB95EDFFA7A132E066-2025-08-17-22-17-56","","14963","","[""<span style=\""color: red; font-size: 24px\""> NOW RECORDING</span><p>Please say out loud all the images you saw, as many as you can remember. The images can be said in any order.</p>""]","","1","housework_semantic"
"","","","","","image-button-response","56","463901","0.0-12.0-0.0","B434DE310DA445DB95EDFFA7A132E066","B434DE310DA445DB95EDFFA7A132E066","0198b9fa-ea8c-7e8e-93f5-23ee64bdffb7","0198b9d0-29d4-7df3-8625-4b4515841beb","{""num_scrambled_semantic"":""8"",""num_scrambled_causal"":""4"",""num_scrambled_schematic"":""4"",""participantId"":""B434DE310DA445DB95EDFFA7A132E066"",""assignmentId"":""0198b9fa-ea8c-7e8e-93f5-23ee64bdffb7"",""projectId"":""0198b9d0-29d4-7df3-8625-4b4515841beb""}","https://test12345.live/?num_scrambled_semantic=8&num_scrambled_causal=4&num_scrambled_schematic=4&participantId=B434DE310DA445DB95EDFFA7A132E066&assignmentId=0198b9fa-ea8c-7e8e-93f5-23ee64bdffb7&projectId=0198b9d0-29d4-7df3-8625-4b4515841beb","B434DE310DA445DB95EDFFA7A132E066-2025-08-17-22-17-56","","null","","images/semantic_sequence/cat_care_semantic/cat_care_semantic_0.png","null","",""
"","","","","","image-button-response","57","468403","0.0-12.0-1.0-0.0","B434DE310DA445DB95EDFFA7A132E066","B434DE310DA445DB95EDFFA7A132E066","0198b9fa-ea8c-7e8e-93f5-23ee64bdffb7","0198b9d0-29d4-7df3-8625-4b4515841beb","{""num_scrambled_semantic"":""8"",""num_scrambled_causal"":""4"",""num_scrambled_schematic"":""4"",""participantId"":""B434DE310DA445DB95EDFFA7A132E066"",""assignmentId"":""0198b9fa-ea8c-7e8e-93f5-23ee64bdffb7"",""projectId"":""0198b9d0-29d4-7df3-8625-4b4515841beb""}","https://test12345.live/?num_scrambled_semantic=8&num_scrambled_causal=4&num_scrambled_schematic=4&participantId=B434DE310DA445DB95EDFFA7A132E066&assignmentId=0198b9fa-ea8c-7e8e-93f5-23ee64bdffb7&projectId=0198b9d0-29d4-7df3-8625-4b4515841beb","B434DE310DA445DB95EDFFA7A132E066-2025-08-17-22-17-56","","null","","images/semantic_sequence/cat_care_semantic/cat_care_semantic_7.png","null","",""
"","","","","","image-button-response","58","469770","0.0-12.0-1.0-1.0","B434DE310DA445DB95EDFFA7A132E066","B434DE310DA445DB95EDFFA7A132E066","0198b9fa-ea8c-7e8e-93f5-23ee64bdffb7","0198b9d0-29d4-7df3-8625-4b4515841beb","{""num_scrambled_semantic"":""8"",""num_scrambled_causal"":""4"",""num_scrambled_schematic"":""4"",""participantId"":""B434DE310DA445DB95EDFFA7A132E066"",""assignmentId"":""0198b9fa-ea8c-7e8e-93f5-23ee64bdffb7"",""projectId"":""0198b9d0-29d4-7df3-8625-4b4515841beb""}","https://test12345.live/?num_scrambled_semantic=8&num_scrambled_causal=4&num_scrambled_schematic=4&participantId=B434DE310DA445DB95EDFFA7A132E066&assignmentId=0198b9fa-ea8c-7e8e-93f5-23ee64bdffb7&projectId=0198b9d0-29d4-7df3-8625-4b4515841beb","B434DE310DA445DB95EDFFA7A132E066-2025-08-17-22-17-56","","1366","","images/semantic_sequence/cat_care_semantic/cat_care_semantic_7.png","0","",""
"","","","","","image-button-response","59","475179","0.0-12.0-1.0-2.0","B434DE310DA445DB95EDFFA7A132E066","B434DE310DA445DB95EDFFA7A132E066","0198b9fa-ea8c-7e8e-93f5-23ee64bdffb7","0198b9d0-29d4-7df3-8625-4b4515841beb","{""num_scrambled_semantic"":""8"",""num_scrambled_causal"":""4"",""num_scrambled_schematic"":""4"",""participantId"":""B434DE310DA445DB95EDFFA7A132E066"",""assignmentId"":""0198b9fa-ea8c-7e8e-93f5-23ee64bdffb7"",""projectId"":""0198b9d0-29d4-7df3-8625-4b4515841beb""}","https://test12345.live/?num_scrambled_semantic=8&num_scrambled_causal=4&num_scrambled_schematic=4&participantId=B434DE310DA445DB95EDFFA7A132E066&assignmentId=0198b9fa-ea8c-7e8e-93f5-23ee64bdffb7&projectId=0198b9d0-29d4-7df3-8625-4b4515841beb","B434DE310DA445DB95EDFFA7A132E066-2025-08-17-22-17-56","","null","","[]","null","",""
"","","","","","image-button-response","60","479693","0.0-12.0-1.0-0.1","B434DE310DA445DB95EDFFA7A132E066","B434DE310DA445DB95EDFFA7A132E066","0198b9fa-ea8c-7e8e-93f5-23ee64bdffb7","0198b9d0-29d4-7df3-8625-4b4515841beb","{""num_scrambled_semantic"":""8"",""num_scrambled_causal"":""4"",""num_scrambled_schematic"":""4"",""participantId"":""B434DE310DA445DB95EDFFA7A132E066"",""assignmentId"":""0198b9fa-ea8c-7e8e-93f5-23ee64bdffb7"",""projectId"":""0198b9d0-29d4-7df3-8625-4b4515841beb""}","https://test12345.live/?num_scrambled_semantic=8&num_scrambled_causal=4&num_scrambled_schematic=4&participantId=B434DE310DA445DB95EDFFA7A132E066&assignmentId=0198b9fa-ea8c-7e8e-93f5-23ee64bdffb7&projectId=0198b9d0-29d4-7df3-8625-4b4515841beb","B434DE310DA445DB95EDFFA7A132E066-2025-08-17-22-17-56","","null","","images/semantic_sequence/cat_care_semantic/cat_care_semantic_ten.png","null","",""
"","","","","","image-button-response","61","482452","0.0-12.0-1.0-1.1","B434DE310DA445DB95EDFFA7A132E066","B434DE310DA445DB95EDFFA7A132E066","0198b9fa-ea8c-7e8e-93f5-23ee64bdffb7","0198b9d0-29d4-7df3-8625-4b4515841beb","{""num_scrambled_semantic"":""8"",""num_scrambled_causal"":""4"",""num_scrambled_schematic"":""4"",""participantId"":""B434DE310DA445DB95EDFFA7A132E066"",""assignmentId"":""0198b9fa-ea8c-7e8e-93f5-23ee64bdffb7"",""projectId"":""0198b9d0-29d4-7df3-8625-4b4515841beb""}","https://test12345.live/?num_scrambled_semantic=8&num_scrambled_causal=4&num_scrambled_schematic=4&participantId=B434DE310DA445DB95EDFFA7A132E066&assignmentId=0198b9fa-ea8c-7e8e-93f5-23ee64bdffb7&projectId=0198b9d0-29d4-7df3-8625-4b4515841beb","B434DE310DA445DB95EDFFA7A132E066-2025-08-17-22-17-56","","2758","","images/semantic_sequence/cat_care_semantic/cat_care_semantic_ten.png","1","",""
"","","","","","image-button-response","62","487862","0.0-12.0-1.0-2.1","B434DE310DA445DB95EDFFA7A132E066","B434DE310DA445DB95EDFFA7A132E066","0198b9fa-ea8c-7e8e-93f5-23ee64bdffb7","0198b9d0-29d4-7df3-8625-4b4515841beb","{""num_scrambled_semantic"":""8"",""num_scrambled_causal"":""4"",""num_scrambled_schematic"":""4"",""participantId"":""B434DE310DA445DB95EDFFA7A132E066"",""assignmentId"":""0198b9fa-ea8c-7e8e-93f5-23ee64bdffb7"",""projectId"":""0198b9d0-29d4-7df3-8625-4b4515841beb""}","https://test12345.live/?num_scrambled_semantic=8&num_scrambled_causal=4&num_scrambled_schematic=4&participantId=B434DE310DA445DB95EDFFA7A132E066&assignmentId=0198b9fa-ea8c-7e8e-93f5-23ee64bdffb7&projectId=0198b9d0-29d4-7df3-8625-4b4515841beb","B434DE310DA445DB95EDFFA7A132E066-2025-08-17-22-17-56","","null","","[]","null","",""
"","","","","","image-button-response","63","492367","0.0-12.0-1.0-0.2","B434DE310DA445DB95EDFFA7A132E066","B434DE310DA445DB95EDFFA7A132E066","0198b9fa-ea8c-7e8e-93f5-23ee64bdffb7","0198b9d0-29d4-7df3-8625-4b4515841beb","{""num_scrambled_semantic"":""8"",""num_scrambled_causal"":""4"",""num_scrambled_schematic"":""4"",""participantId"":""B434DE310DA445DB95EDFFA7A132E066"",""assignmentId"":""0198b9fa-ea8c-7e8e-93f5-23ee64bdffb7"",""projectId"":""0198b9d0-29d4-7df3-8625-4b4515841beb""}","https://test12345.live/?num_scrambled_semantic=8&num_scrambled_causal=4&num_scrambled_schematic=4&participantId=B434DE310DA445DB95EDFFA7A132E066&assignmentId=0198b9fa-ea8c-7e8e-93f5-23ee64bdffb7&projectId=0198b9d0-29d4-7df3-8625-4b4515841beb","B434DE310DA445DB95EDFFA7A132E066-2025-08-17-22-17-56","","null","","images/semantic_sequence/cat_care_semantic/cat_care_semantic_6.png","null","",""
"","","","","","image-button-response","64","494634","0.0-12.0-1.0-1.2","B434DE310DA445DB95EDFFA7A132E066","B434DE310DA445DB95EDFFA7A132E066","0198b9fa-ea8c-7e8e-93f5-23ee64bdffb7","0198b9d0-29d4-7df3-8625-4b4515841beb","{""num_scrambled_semantic"":""8"",""num_scrambled_causal"":""4"",""num_scrambled_schematic"":""4"",""participantId"":""B434DE310DA445DB95EDFFA7A132E066"",""assignmentId"":""0198b9fa-ea8c-7e8e-93f5-23ee64bdffb7"",""projectId"":""0198b9d0-29d4-7df3-8625-4b4515841beb""}","https://test12345.live/?num_scrambled_semantic=8&num_scrambled_causal=4&num_scrambled_schematic=4&participantId=B434DE310DA445DB95EDFFA7A132E066&assignmentId=0198b9fa-ea8c-7e8e-93f5-23ee64bdffb7&projectId=0198b9d0-29d4-7df3-8625-4b4515841beb","B434DE310DA445DB95EDFFA7A132E066-2025-08-17-22-17-56","","2266","","images/semantic_sequence/cat_care_semantic/cat_care_semantic_6.png","0","",""
"","","","","","image-button-response","65","500038","0.0-12.0-1.0-2.2","B434DE310DA445DB95EDFFA7A132E066","B434DE310DA445DB95EDFFA7A132E066","0198b9fa-ea8c-7e8e-93f5-23ee64bdffb7","0198b9d0-29d4-7df3-8625-4b4515841beb","{""num_scrambled_semantic"":""8"",""num_scrambled_causal"":""4"",""num_scrambled_schematic"":""4"",""participantId"":""B434DE310DA445DB95EDFFA7A132E066"",""assignmentId"":""0198b9fa-ea8c-7e8e-93f5-23ee64bdffb7"",""projectId"":""0198b9d0-29d4-7df3-8625-4b4515841beb""}","https://test12345.live/?num_scrambled_semantic=8&num_scrambled_causal=4&num_scrambled_schematic=4&participantId=B434DE310DA445DB95EDFFA7A132E066&assignmentId=0198b9fa-ea8c-7e8e-93f5-23ee64bdffb7&projectId=0198b9d0-29d4-7df3-8625-4b4515841beb","B434DE310DA445DB95EDFFA7A132E066-2025-08-17-22-17-56","","null","","[]","null","",""
"","","","","","image-button-response","66","504549","0.0-12.0-1.0-0.3","B434DE310DA445DB95EDFFA7A132E066","B434DE310DA445DB95EDFFA7A132E066","0198b9fa-ea8c-7e8e-93f5-23ee64bdffb7","0198b9d0-29d4-7df3-8625-4b4515841beb","{""num_scrambled_semantic"":""8"",""num_scrambled_causal"":""4"",""num_scrambled_schematic"":""4"",""participantId"":""B434DE310DA445DB95EDFFA7A132E066"",""assignmentId"":""0198b9fa-ea8c-7e8e-93f5-23ee64bdffb7"",""projectId"":""0198b9d0-29d4-7df3-8625-4b4515841beb""}","https://test12345.live/?num_scrambled_semantic=8&num_scrambled_causal=4&num_scrambled_schematic=4&participantId=B434DE310DA445DB95EDFFA7A132E066&assignmentId=0198b9fa-ea8c-7e8e-93f5-23ee64bdffb7&projectId=0198b9d0-29d4-7df3-8625-4b4515841beb","B434DE310DA445DB95EDFFA7A132E066-2025-08-17-22-17-56","","null","","images/semantic_sequence/cat_care_semantic/cat_care_semantic_1.png","null","",""
"","","","","","image-button-response","67","506942","0.0-12.0-1.0-1.3","B434DE310DA445DB95EDFFA7A132E066","B434DE310DA445DB95EDFFA7A132E066","0198b9fa-ea8c-7e8e-93f5-23ee64bdffb7","0198b9d0-29d4-7df3-8625-4b4515841beb","{""num_scrambled_semantic"":""8"",""num_scrambled_causal"":""4"",""num_scrambled_schematic"":""4"",""participantId"":""B434DE310DA445DB95EDFFA7A132E066"",""assignmentId"":""0198b9fa-ea8c-7e8e-93f5-23ee64bdffb7"",""projectId"":""0198b9d0-29d4-7df3-8625-4b4515841beb""}","https://test12345.live/?num_scrambled_semantic=8&num_scrambled_causal=4&num_scrambled_schematic=4&participantId=B434DE310DA445DB95EDFFA7A132E066&assignmentId=0198b9fa-ea8c-7e8e-93f5-23ee64bdffb7&projectId=0198b9d0-29d4-7df3-8625-4b4515841beb","B434DE310DA445DB95EDFFA7A132E066-2025-08-17-22-17-56","","2392","","images/semantic_sequence/cat_care_semantic/cat_care_semantic_1.png","0","",""
"","","","","","image-button-response","68","512351","0.0-12.0-1.0-2.3","B434DE310DA445DB95EDFFA7A132E066","B434DE310DA445DB95EDFFA7A132E066","0198b9fa-ea8c-7e8e-93f5-23ee64bdffb7","0198b9d0-29d4-7df3-8625-4b4515841beb","{""num_scrambled_semantic"":""8"",""num_scrambled_causal"":""4"",""num_scrambled_schematic"":""4"",""participantId"":""B434DE310DA445DB95EDFFA7A132E066"",""assignmentId"":""0198b9fa-ea8c-7e8e-93f5-23ee64bdffb7"",""projectId"":""0198b9d0-29d4-7df3-8625-4b4515841beb""}","https://test12345.live/?num_scrambled_semantic=8&num_scrambled_causal=4&num_scrambled_schematic=4&participantId=B434DE310DA445DB95EDFFA7A132E066&assignmentId=0198b9fa-ea8c-7e8e-93f5-23ee64bdffb7&projectId=0198b9d0-29d4-7df3-8625-4b4515841beb","B434DE310DA445DB95EDFFA7A132E066-2025-08-17-22-17-56","","null","","[]","null","",""
"","","","","","image-button-response","69","516860","0.0-12.0-1.0-0.4","B434DE310DA445DB95EDFFA7A132E066","B434DE310DA445DB95EDFFA7A132E066","0198b9fa-ea8c-7e8e-93f5-23ee64bdffb7","0198b9d0-29d4-7df3-8625-4b4515841beb","{""num_scrambled_semantic"":""8"",""num_scrambled_causal"":""4"",""num_scrambled_schematic"":""4"",""participantId"":""B434DE310DA445DB95EDFFA7A132E066"",""assignmentId"":""0198b9fa-ea8c-7e8e-93f5-23ee64bdffb7"",""projectId"":""0198b9d0-29d4-7df3-8625-4b4515841beb""}","https://test12345.live/?num_scrambled_semantic=8&num_scrambled_causal=4&num_scrambled_schematic=4&participantId=B434DE310DA445DB95EDFFA7A132E066&assignmentId=0198b9fa-ea8c-7e8e-93f5-23ee64bdffb7&projectId=0198b9d0-29d4-7df3-8625-4b4515841beb","B434DE310DA445DB95EDFFA7A132E066-2025-08-17-22-17-56","","null","","images/semantic_sequence/cat_care_semantic/cat_care_semantic_5.png","null","",""
"","","","","","image-button-response","70","519589","0.0-12.0-1.0-1.4","B434DE310DA445DB95EDFFA7A132E066","B434DE310DA445DB95EDFFA7A132E066","0198b9fa-ea8c-7e8e-93f5-23ee64bdffb7","0198b9d0-29d4-7df3-8625-4b4515841beb","{""num_scrambled_semantic"":""8"",""num_scrambled_causal"":""4"",""num_scrambled_schematic"":""4"",""participantId"":""B434DE310DA445DB95EDFFA7A132E066"",""assignmentId"":""0198b9fa-ea8c-7e8e-93f5-23ee64bdffb7"",""projectId"":""0198b9d0-29d4-7df3-8625-4b4515841beb""}","https://test12345.live/?num_scrambled_semantic=8&num_scrambled_causal=4&num_scrambled_schematic=4&participantId=B434DE310DA445DB95EDFFA7A132E066&assignmentId=0198b9fa-ea8c-7e8e-93f5-23ee64bdffb7&projectId=0198b9d0-29d4-7df3-8625-4b4515841beb","B434DE310DA445DB95EDFFA7A132E066-2025-08-17-22-17-56","","2728","","images/semantic_sequence/cat_care_semantic/cat_care_semantic_5.png","0","",""
"","","","","","image-button-response","71","524991","0.0-12.0-1.0-2.4","B434DE310DA445DB95EDFFA7A132E066","B434DE310DA445DB95EDFFA7A132E066","0198b9fa-ea8c-7e8e-93f5-23ee64bdffb7","0198b9d0-29d4-7df3-8625-4b4515841beb","{""num_scrambled_semantic"":""8"",""num_scrambled_causal"":""4"",""num_scrambled_schematic"":""4"",""participantId"":""B434DE310DA445DB95EDFFA7A132E066"",""assignmentId"":""0198b9fa-ea8c-7e8e-93f5-23ee64bdffb7"",""projectId"":""0198b9d0-29d4-7df3-8625-4b4515841beb""}","https://test12345.live/?num_scrambled_semantic=8&num_scrambled_causal=4&num_scrambled_schematic=4&participantId=B434DE310DA445DB95EDFFA7A132E066&assignmentId=0198b9fa-ea8c-7e8e-93f5-23ee64bdffb7&projectId=0198b9d0-29d4-7df3-8625-4b4515841beb","B434DE310DA445DB95EDFFA7A132E066-2025-08-17-22-17-56","","null","","[]","null","",""
"","","","","","image-button-response","72","529493","0.0-12.0-1.0-0.5","B434DE310DA445DB95EDFFA7A132E066","B434DE310DA445DB95EDFFA7A132E066","0198b9fa-ea8c-7e8e-93f5-23ee64bdffb7","0198b9d0-29d4-7df3-8625-4b4515841beb","{""num_scrambled_semantic"":""8"",""num_scrambled_causal"":""4"",""num_scrambled_schematic"":""4"",""participantId"":""B434DE310DA445DB95EDFFA7A132E066"",""assignmentId"":""0198b9fa-ea8c-7e8e-93f5-23ee64bdffb7"",""projectId"":""0198b9d0-29d4-7df3-8625-4b4515841beb""}","https://test12345.live/?num_scrambled_semantic=8&num_scrambled_causal=4&num_scrambled_schematic=4&participantId=B434DE310DA445DB95EDFFA7A132E066&assignmentId=0198b9fa-ea8c-7e8e-93f5-23ee64bdffb7&projectId=0198b9d0-29d4-7df3-8625-4b4515841beb","B434DE310DA445DB95EDFFA7A132E066-2025-08-17-22-17-56","","null","","images/semantic_sequence/cat_care_semantic/cat_care_semantic_2.png","null","",""
"","","","","","image-button-response","73","531671","0.0-12.0-1.0-1.5","B434DE310DA445DB95EDFFA7A132E066","B434DE310DA445DB95EDFFA7A132E066","0198b9fa-ea8c-7e8e-93f5-23ee64bdffb7","0198b9d0-29d4-7df3-8625-4b4515841beb","{""num_scrambled_semantic"":""8"",""num_scrambled_causal"":""4"",""num_scrambled_schematic"":""4"",""participantId"":""B434DE310DA445DB95EDFFA7A132E066"",""assignmentId"":""0198b9fa-ea8c-7e8e-93f5-23ee64bdffb7"",""projectId"":""0198b9d0-29d4-7df3-8625-4b4515841beb""}","https://test12345.live/?num_scrambled_semantic=8&num_scrambled_causal=4&num_scrambled_schematic=4&participantId=B434DE310DA445DB95EDFFA7A132E066&assignmentId=0198b9fa-ea8c-7e8e-93f5-23ee64bdffb7&projectId=0198b9d0-29d4-7df3-8625-4b4515841beb","B434DE310DA445DB95EDFFA7A132E066-2025-08-17-22-17-56","","2177","","images/semantic_sequence/cat_care_semantic/cat_care_semantic_2.png","0","",""
"","","","","","image-button-response","74","537085","0.0-12.0-1.0-2.5","B434DE310DA445DB95EDFFA7A132E066","B434DE310DA445DB95EDFFA7A132E066","0198b9fa-ea8c-7e8e-93f5-23ee64bdffb7","0198b9d0-29d4-7df3-8625-4b4515841beb","{""num_scrambled_semantic"":""8"",""num_scrambled_causal"":""4"",""num_scrambled_schematic"":""4"",""participantId"":""B434DE310DA445DB95EDFFA7A132E066"",""assignmentId"":""0198b9fa-ea8c-7e8e-93f5-23ee64bdffb7"",""projectId"":""0198b9d0-29d4-7df3-8625-4b4515841beb""}","https://test12345.live/?num_scrambled_semantic=8&num_scrambled_causal=4&num_scrambled_schematic=4&participantId=B434DE310DA445DB95EDFFA7A132E066&assignmentId=0198b9fa-ea8c-7e8e-93f5-23ee64bdffb7&projectId=0198b9d0-29d4-7df3-8625-4b4515841beb","B434DE310DA445DB95EDFFA7A132E066-2025-08-17-22-17-56","","null","","[]","null","",""
"","","","","","image-button-response","75","541598","0.0-12.0-1.0-0.6","B434DE310DA445DB95EDFFA7A132E066","B434DE310DA445DB95EDFFA7A132E066","0198b9fa-ea8c-7e8e-93f5-23ee64bdffb7","0198b9d0-29d4-7df3-8625-4b4515841beb","{""num_scrambled_semantic"":""8"",""num_scrambled_causal"":""4"",""num_scrambled_schematic"":""4"",""participantId"":""B434DE310DA445DB95EDFFA7A132E066"",""assignmentId"":""0198b9fa-ea8c-7e8e-93f5-23ee64bdffb7"",""projectId"":""0198b9d0-29d4-7df3-8625-4b4515841beb""}","https://test12345.live/?num_scrambled_semantic=8&num_scrambled_causal=4&num_scrambled_schematic=4&participantId=B434DE310DA445DB95EDFFA7A132E066&assignmentId=0198b9fa-ea8c-7e8e-93f5-23ee64bdffb7&projectId=0198b9d0-29d4-7df3-8625-4b4515841beb","B434DE310DA445DB95EDFFA7A132E066-2025-08-17-22-17-56","","null","","images/semantic_sequence/cat_care_semantic/cat_care_semantic_4.png","null","",""
"","","","","","image-button-response","76","543367","0.0-12.0-1.0-1.6","B434DE310DA445DB95EDFFA7A132E066","B434DE310DA445DB95EDFFA7A132E066","0198b9fa-ea8c-7e8e-93f5-23ee64bdffb7","0198b9d0-29d4-7df3-8625-4b4515841beb","{""num_scrambled_semantic"":""8"",""num_scrambled_causal"":""4"",""num_scrambled_schematic"":""4"",""participantId"":""B434DE310DA445DB95EDFFA7A132E066"",""assignmentId"":""0198b9fa-ea8c-7e8e-93f5-23ee64bdffb7"",""projectId"":""0198b9d0-29d4-7df3-8625-4b4515841beb""}","https://test12345.live/?num_scrambled_semantic=8&num_scrambled_causal=4&num_scrambled_schematic=4&participantId=B434DE310DA445DB95EDFFA7A132E066&assignmentId=0198b9fa-ea8c-7e8e-93f5-23ee64bdffb7&projectId=0198b9d0-29d4-7df3-8625-4b4515841beb","B434DE310DA445DB95EDFFA7A132E066-2025-08-17-22-17-56","","1768","","images/semantic_sequence/cat_care_semantic/cat_care_semantic_4.png","0","",""
"","","","","","image-button-response","77","548779","0.0-12.0-1.0-2.6","B434DE310DA445DB95EDFFA7A132E066","B434DE310DA445DB95EDFFA7A132E066","0198b9fa-ea8c-7e8e-93f5-23ee64bdffb7","0198b9d0-29d4-7df3-8625-4b4515841beb","{""num_scrambled_semantic"":""8"",""num_scrambled_causal"":""4"",""num_scrambled_schematic"":""4"",""participantId"":""B434DE310DA445DB95EDFFA7A132E066"",""assignmentId"":""0198b9fa-ea8c-7e8e-93f5-23ee64bdffb7"",""projectId"":""0198b9d0-29d4-7df3-8625-4b4515841beb""}","https://test12345.live/?num_scrambled_semantic=8&num_scrambled_causal=4&num_scrambled_schematic=4&participantId=B434DE310DA445DB95EDFFA7A132E066&assignmentId=0198b9fa-ea8c-7e8e-93f5-23ee64bdffb7&projectId=0198b9d0-29d4-7df3-8625-4b4515841beb","B434DE310DA445DB95EDFFA7A132E066-2025-08-17-22-17-56","","null","","[]","null","",""
"","","","","","image-button-response","78","553287","0.0-12.0-1.0-0.7","B434DE310DA445DB95EDFFA7A132E066","B434DE310DA445DB95EDFFA7A132E066","0198b9fa-ea8c-7e8e-93f5-23ee64bdffb7","0198b9d0-29d4-7df3-8625-4b4515841beb","{""num_scrambled_semantic"":""8"",""num_scrambled_causal"":""4"",""num_scrambled_schematic"":""4"",""participantId"":""B434DE310DA445DB95EDFFA7A132E066"",""assignmentId"":""0198b9fa-ea8c-7e8e-93f5-23ee64bdffb7"",""projectId"":""0198b9d0-29d4-7df3-8625-4b4515841beb""}","https://test12345.live/?num_scrambled_semantic=8&num_scrambled_causal=4&num_scrambled_schematic=4&participantId=B434DE310DA445DB95EDFFA7A132E066&assignmentId=0198b9fa-ea8c-7e8e-93f5-23ee64bdffb7&projectId=0198b9d0-29d4-7df3-8625-4b4515841beb","B434DE310DA445DB95EDFFA7A132E066-2025-08-17-22-17-56","","null","","images/semantic_sequence/cat_care_semantic/cat_care_semantic_9.png","null","",""
"","","","","","image-button-response","79","554294","0.0-12.0-1.0-1.7","B434DE310DA445DB95EDFFA7A132E066","B434DE310DA445DB95EDFFA7A132E066","0198b9fa-ea8c-7e8e-93f5-23ee64bdffb7","0198b9d0-29d4-7df3-8625-4b4515841beb","{""num_scrambled_semantic"":""8"",""num_scrambled_causal"":""4"",""num_scrambled_schematic"":""4"",""participantId"":""B434DE310DA445DB95EDFFA7A132E066"",""assignmentId"":""0198b9fa-ea8c-7e8e-93f5-23ee64bdffb7"",""projectId"":""0198b9d0-29d4-7df3-8625-4b4515841beb""}","https://test12345.live/?num_scrambled_semantic=8&num_scrambled_causal=4&num_scrambled_schematic=4&participantId=B434DE310DA445DB95EDFFA7A132E066&assignmentId=0198b9fa-ea8c-7e8e-93f5-23ee64bdffb7&projectId=0198b9d0-29d4-7df3-8625-4b4515841beb","B434DE310DA445DB95EDFFA7A132E066-2025-08-17-22-17-56","","1006","","images/semantic_sequence/cat_care_semantic/cat_care_semantic_9.png","0","",""
"","","","","","image-button-response","80","559696","0.0-12.0-1.0-2.7","B434DE310DA445DB95EDFFA7A132E066","B434DE310DA445DB95EDFFA7A132E066","0198b9fa-ea8c-7e8e-93f5-23ee64bdffb7","0198b9d0-29d4-7df3-8625-4b4515841beb","{""num_scrambled_semantic"":""8"",""num_scrambled_causal"":""4"",""num_scrambled_schematic"":""4"",""participantId"":""B434DE310DA445DB95EDFFA7A132E066"",""assignmentId"":""0198b9fa-ea8c-7e8e-93f5-23ee64bdffb7"",""projectId"":""0198b9d0-29d4-7df3-8625-4b4515841beb""}","https://test12345.live/?num_scrambled_semantic=8&num_scrambled_causal=4&num_scrambled_schematic=4&participantId=B434DE310DA445DB95EDFFA7A132E066&assignmentId=0198b9fa-ea8c-7e8e-93f5-23ee64bdffb7&projectId=0198b9d0-29d4-7df3-8625-4b4515841beb","B434DE310DA445DB95EDFFA7A132E066-2025-08-17-22-17-56","","null","","[]","null","",""
"","","","","","image-button-response","81","564208","0.0-12.0-1.0-0.8","B434DE310DA445DB95EDFFA7A132E066","B434DE310DA445DB95EDFFA7A132E066","0198b9fa-ea8c-7e8e-93f5-23ee64bdffb7","0198b9d0-29d4-7df3-8625-4b4515841beb","{""num_scrambled_semantic"":""8"",""num_scrambled_causal"":""4"",""num_scrambled_schematic"":""4"",""participantId"":""B434DE310DA445DB95EDFFA7A132E066"",""assignmentId"":""0198b9fa-ea8c-7e8e-93f5-23ee64bdffb7"",""projectId"":""0198b9d0-29d4-7df3-8625-4b4515841beb""}","https://test12345.live/?num_scrambled_semantic=8&num_scrambled_causal=4&num_scrambled_schematic=4&participantId=B434DE310DA445DB95EDFFA7A132E066&assignmentId=0198b9fa-ea8c-7e8e-93f5-23ee64bdffb7&projectId=0198b9d0-29d4-7df3-8625-4b4515841beb","B434DE310DA445DB95EDFFA7A132E066-2025-08-17-22-17-56","","null","","images/semantic_sequence/cat_care_semantic/cat_care_semantic_3.png","null","",""
"","","","","","image-button-response","82","566102","0.0-12.0-1.0-1.8","B434DE310DA445DB95EDFFA7A132E066","B434DE310DA445DB95EDFFA7A132E066","0198b9fa-ea8c-7e8e-93f5-23ee64bdffb7","0198b9d0-29d4-7df3-8625-4b4515841beb","{""num_scrambled_semantic"":""8"",""num_scrambled_causal"":""4"",""num_scrambled_schematic"":""4"",""participantId"":""B434DE310DA445DB95EDFFA7A132E066"",""assignmentId"":""0198b9fa-ea8c-7e8e-93f5-23ee64bdffb7"",""projectId"":""0198b9d0-29d4-7df3-8625-4b4515841beb""}","https://test12345.live/?num_scrambled_semantic=8&num_scrambled_causal=4&num_scrambled_schematic=4&participantId=B434DE310DA445DB95EDFFA7A132E066&assignmentId=0198b9fa-ea8c-7e8e-93f5-23ee64bdffb7&projectId=0198b9d0-29d4-7df3-8625-4b4515841beb","B434DE310DA445DB95EDFFA7A132E066-2025-08-17-22-17-56","","1892","","images/semantic_sequence/cat_care_semantic/cat_care_semantic_3.png","0","",""
"","","","","","image-button-response","83","571510","0.0-12.0-1.0-2.8","B434DE310DA445DB95EDFFA7A132E066","B434DE310DA445DB95EDFFA7A132E066","0198b9fa-ea8c-7e8e-93f5-23ee64bdffb7","0198b9d0-29d4-7df3-8625-4b4515841beb","{""num_scrambled_semantic"":""8"",""num_scrambled_causal"":""4"",""num_scrambled_schematic"":""4"",""participantId"":""B434DE310DA445DB95EDFFA7A132E066"",""assignmentId"":""0198b9fa-ea8c-7e8e-93f5-23ee64bdffb7"",""projectId"":""0198b9d0-29d4-7df3-8625-4b4515841beb""}","https://test12345.live/?num_scrambled_semantic=8&num_scrambled_causal=4&num_scrambled_schematic=4&participantId=B434DE310DA445DB95EDFFA7A132E066&assignmentId=0198b9fa-ea8c-7e8e-93f5-23ee64bdffb7&projectId=0198b9d0-29d4-7df3-8625-4b4515841beb","B434DE310DA445DB95EDFFA7A132E066-2025-08-17-22-17-56","","null","","[]","null","",""
"","","","","","image-button-response","84","576016","0.0-12.0-1.0-0.9","B434DE310DA445DB95EDFFA7A132E066","B434DE310DA445DB95EDFFA7A132E066","0198b9fa-ea8c-7e8e-93f5-23ee64bdffb7","0198b9d0-29d4-7df3-8625-4b4515841beb","{""num_scrambled_semantic"":""8"",""num_scrambled_causal"":""4"",""num_scrambled_schematic"":""4"",""participantId"":""B434DE310DA445DB95EDFFA7A132E066"",""assignmentId"":""0198b9fa-ea8c-7e8e-93f5-23ee64bdffb7"",""projectId"":""0198b9d0-29d4-7df3-8625-4b4515841beb""}","https://test12345.live/?num_scrambled_semantic=8&num_scrambled_causal=4&num_scrambled_schematic=4&participantId=B434DE310DA445DB95EDFFA7A132E066&assignmentId=0198b9fa-ea8c-7e8e-93f5-23ee64bdffb7&projectId=0198b9d0-29d4-7df3-8625-4b4515841beb","B434DE310DA445DB95EDFFA7A132E066-2025-08-17-22-17-56","","null","","images/semantic_sequence/cat_care_semantic/cat_care_semantic_8.png","null","",""
"","","","","","image-button-response","85","577962","0.0-12.0-1.0-1.9","B434DE310DA445DB95EDFFA7A132E066","B434DE310DA445DB95EDFFA7A132E066","0198b9fa-ea8c-7e8e-93f5-23ee64bdffb7","0198b9d0-29d4-7df3-8625-4b4515841beb","{""num_scrambled_semantic"":""8"",""num_scrambled_causal"":""4"",""num_scrambled_schematic"":""4"",""participantId"":""B434DE310DA445DB95EDFFA7A132E066"",""assignmentId"":""0198b9fa-ea8c-7e8e-93f5-23ee64bdffb7"",""projectId"":""0198b9d0-29d4-7df3-8625-4b4515841beb""}","https://test12345.live/?num_scrambled_semantic=8&num_scrambled_causal=4&num_scrambled_schematic=4&participantId=B434DE310DA445DB95EDFFA7A132E066&assignmentId=0198b9fa-ea8c-7e8e-93f5-23ee64bdffb7&projectId=0198b9d0-29d4-7df3-8625-4b4515841beb","B434DE310DA445DB95EDFFA7A132E066-2025-08-17-22-17-56","","1944","","images/semantic_sequence/cat_care_semantic/cat_care_semantic_8.png","0","",""
"","","","","","image-button-response","86","583376","0.0-12.0-1.0-2.9","B434DE310DA445DB95EDFFA7A132E066","B434DE310DA445DB95EDFFA7A132E066","0198b9fa-ea8c-7e8e-93f5-23ee64bdffb7","0198b9d0-29d4-7df3-8625-4b4515841beb","{""num_scrambled_semantic"":""8"",""num_scrambled_causal"":""4"",""num_scrambled_schematic"":""4"",""participantId"":""B434DE310DA445DB95EDFFA7A132E066"",""assignmentId"":""0198b9fa-ea8c-7e8e-93f5-23ee64bdffb7"",""projectId"":""0198b9d0-29d4-7df3-8625-4b4515841beb""}","https://test12345.live/?num_scrambled_semantic=8&num_scrambled_causal=4&num_scrambled_schematic=4&participantId=B434DE310DA445DB95EDFFA7A132E066&assignmentId=0198b9fa-ea8c-7e8e-93f5-23ee64bdffb7&projectId=0198b9d0-29d4-7df3-8625-4b4515841beb","B434DE310DA445DB95EDFFA7A132E066-2025-08-17-22-17-56","","null","","[]","null","",""
"","","","","","html-audio-response","87","599220","0.0-13.0","B434DE310DA445DB95EDFFA7A132E066","B434DE310DA445DB95EDFFA7A132E066","0198b9fa-ea8c-7e8e-93f5-23ee64bdffb7","0198b9d0-29d4-7df3-8625-4b4515841beb","{""num_scrambled_semantic"":""8"",""num_scrambled_causal"":""4"",""num_scrambled_schematic"":""4"",""participantId"":""B434DE310DA445DB95EDFFA7A132E066"",""assignmentId"":""0198b9fa-ea8c-7e8e-93f5-23ee64bdffb7"",""projectId"":""0198b9d0-29d4-7df3-8625-4b4515841beb""}","https://test12345.live/?num_scrambled_semantic=8&num_scrambled_causal=4&num_scrambled_schematic=4&participantId=B434DE310DA445DB95EDFFA7A132E066&assignmentId=0198b9fa-ea8c-7e8e-93f5-23ee64bdffb7&projectId=0198b9d0-29d4-7df3-8625-4b4515841beb","B434DE310DA445DB95EDFFA7A132E066-2025-08-17-22-17-56","","14363","","[""<span style=\""color: red; font-size: 24px\""> NOW RECORDING</span><p>Please say out loud all the images you saw, as many as you can remember. The images can be said in any order.</p>""]","","4","cat_care_semantic"
"","","","","","image-button-response","88","605233","0.0-14.0-0.0","B434DE310DA445DB95EDFFA7A132E066","B434DE310DA445DB95EDFFA7A132E066","0198b9fa-ea8c-7e8e-93f5-23ee64bdffb7","0198b9d0-29d4-7df3-8625-4b4515841beb","{""num_scrambled_semantic"":""8"",""num_scrambled_causal"":""4"",""num_scrambled_schematic"":""4"",""participantId"":""B434DE310DA445DB95EDFFA7A132E066"",""assignmentId"":""0198b9fa-ea8c-7e8e-93f5-23ee64bdffb7"",""projectId"":""0198b9d0-29d4-7df3-8625-4b4515841beb""}","https://test12345.live/?num_scrambled_semantic=8&num_scrambled_causal=4&num_scrambled_schematic=4&participantId=B434DE310DA445DB95EDFFA7A132E066&assignmentId=0198b9fa-ea8c-7e8e-93f5-23ee64bdffb7&projectId=0198b9d0-29d4-7df3-8625-4b4515841beb","B434DE310DA445DB95EDFFA7A132E066-2025-08-17-22-17-56","","null","","images/semantic_sequence/redecorating_semantic/redecorating_semantic_0.png","null","",""
"","","","","","image-button-response","89","609746","0.0-14.0-1.0-0.0","B434DE310DA445DB95EDFFA7A132E066","B434DE310DA445DB95EDFFA7A132E066","0198b9fa-ea8c-7e8e-93f5-23ee64bdffb7","0198b9d0-29d4-7df3-8625-4b4515841beb","{""num_scrambled_semantic"":""8"",""num_scrambled_causal"":""4"",""num_scrambled_schematic"":""4"",""participantId"":""B434DE310DA445DB95EDFFA7A132E066"",""assignmentId"":""0198b9fa-ea8c-7e8e-93f5-23ee64bdffb7"",""projectId"":""0198b9d0-29d4-7df3-8625-4b4515841beb""}","https://test12345.live/?num_scrambled_semantic=8&num_scrambled_causal=4&num_scrambled_schematic=4&participantId=B434DE310DA445DB95EDFFA7A132E066&assignmentId=0198b9fa-ea8c-7e8e-93f5-23ee64bdffb7&projectId=0198b9d0-29d4-7df3-8625-4b4515841beb","B434DE310DA445DB95EDFFA7A132E066-2025-08-17-22-17-56","","null","","images/semantic_sequence/redecorating_semantic/redecorating_semantic_ten.png","null","",""
"","","","","","image-button-response","90","612420","0.0-14.0-1.0-1.0","B434DE310DA445DB95EDFFA7A132E066","B434DE310DA445DB95EDFFA7A132E066","0198b9fa-ea8c-7e8e-93f5-23ee64bdffb7","0198b9d0-29d4-7df3-8625-4b4515841beb","{""num_scrambled_semantic"":""8"",""num_scrambled_causal"":""4"",""num_scrambled_schematic"":""4"",""participantId"":""B434DE310DA445DB95EDFFA7A132E066"",""assignmentId"":""0198b9fa-ea8c-7e8e-93f5-23ee64bdffb7"",""projectId"":""0198b9d0-29d4-7df3-8625-4b4515841beb""}","https://test12345.live/?num_scrambled_semantic=8&num_scrambled_causal=4&num_scrambled_schematic=4&participantId=B434DE310DA445DB95EDFFA7A132E066&assignmentId=0198b9fa-ea8c-7e8e-93f5-23ee64bdffb7&projectId=0198b9d0-29d4-7df3-8625-4b4515841beb","B434DE310DA445DB95EDFFA7A132E066-2025-08-17-22-17-56","","2673","","images/semantic_sequence/redecorating_semantic/redecorating_semantic_ten.png","0","",""
"","","","","","image-button-response","91","617823","0.0-14.0-1.0-2.0","B434DE310DA445DB95EDFFA7A132E066","B434DE310DA445DB95EDFFA7A132E066","0198b9fa-ea8c-7e8e-93f5-23ee64bdffb7","0198b9d0-29d4-7df3-8625-4b4515841beb","{""num_scrambled_semantic"":""8"",""num_scrambled_causal"":""4"",""num_scrambled_schematic"":""4"",""participantId"":""B434DE310DA445DB95EDFFA7A132E066"",""assignmentId"":""0198b9fa-ea8c-7e8e-93f5-23ee64bdffb7"",""projectId"":""0198b9d0-29d4-7df3-8625-4b4515841beb""}","https://test12345.live/?num_scrambled_semantic=8&num_scrambled_causal=4&num_scrambled_schematic=4&participantId=B434DE310DA445DB95EDFFA7A132E066&assignmentId=0198b9fa-ea8c-7e8e-93f5-23ee64bdffb7&projectId=0198b9d0-29d4-7df3-8625-4b4515841beb","B434DE310DA445DB95EDFFA7A132E066-2025-08-17-22-17-56","","null","","[]","null","",""
"","","","","","image-button-response","92","622334","0.0-14.0-1.0-0.1","B434DE310DA445DB95EDFFA7A132E066","B434DE310DA445DB95EDFFA7A132E066","0198b9fa-ea8c-7e8e-93f5-23ee64bdffb7","0198b9d0-29d4-7df3-8625-4b4515841beb","{""num_scrambled_semantic"":""8"",""num_scrambled_causal"":""4"",""num_scrambled_schematic"":""4"",""participantId"":""B434DE310DA445DB95EDFFA7A132E066"",""assignmentId"":""0198b9fa-ea8c-7e8e-93f5-23ee64bdffb7"",""projectId"":""0198b9d0-29d4-7df3-8625-4b4515841beb""}","https://test12345.live/?num_scrambled_semantic=8&num_scrambled_causal=4&num_scrambled_schematic=4&participantId=B434DE310DA445DB95EDFFA7A132E066&assignmentId=0198b9fa-ea8c-7e8e-93f5-23ee64bdffb7&projectId=0198b9d0-29d4-7df3-8625-4b4515841beb","B434DE310DA445DB95EDFFA7A132E066-2025-08-17-22-17-56","","null","","images/semantic_sequence/redecorating_semantic/redecorating_semantic_3.png","null","",""
"","","","","","image-button-response","93","623702","0.0-14.0-1.0-1.1","B434DE310DA445DB95EDFFA7A132E066","B434DE310DA445DB95EDFFA7A132E066","0198b9fa-ea8c-7e8e-93f5-23ee64bdffb7","0198b9d0-29d4-7df3-8625-4b4515841beb","{""num_scrambled_semantic"":""8"",""num_scrambled_causal"":""4"",""num_scrambled_schematic"":""4"",""participantId"":""B434DE310DA445DB95EDFFA7A132E066"",""assignmentId"":""0198b9fa-ea8c-7e8e-93f5-23ee64bdffb7"",""projectId"":""0198b9d0-29d4-7df3-8625-4b4515841beb""}","https://test12345.live/?num_scrambled_semantic=8&num_scrambled_causal=4&num_scrambled_schematic=4&participantId=B434DE310DA445DB95EDFFA7A132E066&assignmentId=0198b9fa-ea8c-7e8e-93f5-23ee64bdffb7&projectId=0198b9d0-29d4-7df3-8625-4b4515841beb","B434DE310DA445DB95EDFFA7A132E066-2025-08-17-22-17-56","","1367","","images/semantic_sequence/redecorating_semantic/redecorating_semantic_3.png","0","",""
"","","","","","image-button-response","94","629112","0.0-14.0-1.0-2.1","B434DE310DA445DB95EDFFA7A132E066","B434DE310DA445DB95EDFFA7A132E066","0198b9fa-ea8c-7e8e-93f5-23ee64bdffb7","0198b9d0-29d4-7df3-8625-4b4515841beb","{""num_scrambled_semantic"":""8"",""num_scrambled_causal"":""4"",""num_scrambled_schematic"":""4"",""participantId"":""B434DE310DA445DB95EDFFA7A132E066"",""assignmentId"":""0198b9fa-ea8c-7e8e-93f5-23ee64bdffb7"",""projectId"":""0198b9d0-29d4-7df3-8625-4b4515841beb""}","https://test12345.live/?num_scrambled_semantic=8&num_scrambled_causal=4&num_scrambled_schematic=4&participantId=B434DE310DA445DB95EDFFA7A132E066&assignmentId=0198b9fa-ea8c-7e8e-93f5-23ee64bdffb7&projectId=0198b9d0-29d4-7df3-8625-4b4515841beb","B434DE310DA445DB95EDFFA7A132E066-2025-08-17-22-17-56","","null","","[]","null","",""
"","","","","","image-button-response","95","633627","0.0-14.0-1.0-0.2","B434DE310DA445DB95EDFFA7A132E066","B434DE310DA445DB95EDFFA7A132E066","0198b9fa-ea8c-7e8e-93f5-23ee64bdffb7","0198b9d0-29d4-7df3-8625-4b4515841beb","{""num_scrambled_semantic"":""8"",""num_scrambled_causal"":""4"",""num_scrambled_schematic"":""4"",""participantId"":""B434DE310DA445DB95EDFFA7A132E066"",""assignmentId"":""0198b9fa-ea8c-7e8e-93f5-23ee64bdffb7"",""projectId"":""0198b9d0-29d4-7df3-8625-4b4515841beb""}","https://test12345.live/?num_scrambled_semantic=8&num_scrambled_causal=4&num_scrambled_schematic=4&participantId=B434DE310DA445DB95EDFFA7A132E066&assignmentId=0198b9fa-ea8c-7e8e-93f5-23ee64bdffb7&projectId=0198b9d0-29d4-7df3-8625-4b4515841beb","B434DE310DA445DB95EDFFA7A132E066-2025-08-17-22-17-56","","null","","images/semantic_sequence/redecorating_semantic/redecorating_semantic_8.png","null","",""
"","","","","","image-button-response","96","634815","0.0-14.0-1.0-1.2","B434DE310DA445DB95EDFFA7A132E066","B434DE310DA445DB95EDFFA7A132E066","0198b9fa-ea8c-7e8e-93f5-23ee64bdffb7","0198b9d0-29d4-7df3-8625-4b4515841beb","{""num_scrambled_semantic"":""8"",""num_scrambled_causal"":""4"",""num_scrambled_schematic"":""4"",""participantId"":""B434DE310DA445DB95EDFFA7A132E066"",""assignmentId"":""0198b9fa-ea8c-7e8e-93f5-23ee64bdffb7"",""projectId"":""0198b9d0-29d4-7df3-8625-4b4515841beb""}","https://test12345.live/?num_scrambled_semantic=8&num_scrambled_causal=4&num_scrambled_schematic=4&participantId=B434DE310DA445DB95EDFFA7A132E066&assignmentId=0198b9fa-ea8c-7e8e-93f5-23ee64bdffb7&projectId=0198b9d0-29d4-7df3-8625-4b4515841beb","B434DE310DA445DB95EDFFA7A132E066-2025-08-17-22-17-56","","1187","","images/semantic_sequence/redecorating_semantic/redecorating_semantic_8.png","0","",""
"","","","","","image-button-response","97","640228","0.0-14.0-1.0-2.2","B434DE310DA445DB95EDFFA7A132E066","B434DE310DA445DB95EDFFA7A132E066","0198b9fa-ea8c-7e8e-93f5-23ee64bdffb7","0198b9d0-29d4-7df3-8625-4b4515841beb","{""num_scrambled_semantic"":""8"",""num_scrambled_causal"":""4"",""num_scrambled_schematic"":""4"",""participantId"":""B434DE310DA445DB95EDFFA7A132E066"",""assignmentId"":""0198b9fa-ea8c-7e8e-93f5-23ee64bdffb7"",""projectId"":""0198b9d0-29d4-7df3-8625-4b4515841beb""}","https://test12345.live/?num_scrambled_semantic=8&num_scrambled_causal=4&num_scrambled_schematic=4&participantId=B434DE310DA445DB95EDFFA7A132E066&assignmentId=0198b9fa-ea8c-7e8e-93f5-23ee64bdffb7&projectId=0198b9d0-29d4-7df3-8625-4b4515841beb","B434DE310DA445DB95EDFFA7A132E066-2025-08-17-22-17-56","","null","","[]","null","",""
"","","","","","image-button-response","98","644731","0.0-14.0-1.0-0.3","B434DE310DA445DB95EDFFA7A132E066","B434DE310DA445DB95EDFFA7A132E066","0198b9fa-ea8c-7e8e-93f5-23ee64bdffb7","0198b9d0-29d4-7df3-8625-4b4515841beb","{""num_scrambled_semantic"":""8"",""num_scrambled_causal"":""4"",""num_scrambled_schematic"":""4"",""participantId"":""B434DE310DA445DB95EDFFA7A132E066"",""assignmentId"":""0198b9fa-ea8c-7e8e-93f5-23ee64bdffb7"",""projectId"":""0198b9d0-29d4-7df3-8625-4b4515841beb""}","https://test12345.live/?num_scrambled_semantic=8&num_scrambled_causal=4&num_scrambled_schematic=4&participantId=B434DE310DA445DB95EDFFA7A132E066&assignmentId=0198b9fa-ea8c-7e8e-93f5-23ee64bdffb7&projectId=0198b9d0-29d4-7df3-8625-4b4515841beb","B434DE310DA445DB95EDFFA7A132E066-2025-08-17-22-17-56","","null","","images/semantic_sequence/redecorating_semantic/redecorating_semantic_5.png","null","",""
"","","","","","image-button-response","99","645971","0.0-14.0-1.0-1.3","B434DE310DA445DB95EDFFA7A132E066","B434DE310DA445DB95EDFFA7A132E066","0198b9fa-ea8c-7e8e-93f5-23ee64bdffb7","0198b9d0-29d4-7df3-8625-4b4515841beb","{""num_scrambled_semantic"":""8"",""num_scrambled_causal"":""4"",""num_scrambled_schematic"":""4"",""participantId"":""B434DE310DA445DB95EDFFA7A132E066"",""assignmentId"":""0198b9fa-ea8c-7e8e-93f5-23ee64bdffb7"",""projectId"":""0198b9d0-29d4-7df3-8625-4b4515841beb""}","https://test12345.live/?num_scrambled_semantic=8&num_scrambled_causal=4&num_scrambled_schematic=4&participantId=B434DE310DA445DB95EDFFA7A132E066&assignmentId=0198b9fa-ea8c-7e8e-93f5-23ee64bdffb7&projectId=0198b9d0-29d4-7df3-8625-4b4515841beb","B434DE310DA445DB95EDFFA7A132E066-2025-08-17-22-17-56","","1239","","images/semantic_sequence/redecorating_semantic/redecorating_semantic_5.png","0","",""
"","","","","","image-button-response","100","651385","0.0-14.0-1.0-2.3","B434DE310DA445DB95EDFFA7A132E066","B434DE310DA445DB95EDFFA7A132E066","0198b9fa-ea8c-7e8e-93f5-23ee64bdffb7","0198b9d0-29d4-7df3-8625-4b4515841beb","{""num_scrambled_semantic"":""8"",""num_scrambled_causal"":""4"",""num_scrambled_schematic"":""4"",""participantId"":""B434DE310DA445DB95EDFFA7A132E066"",""assignmentId"":""0198b9fa-ea8c-7e8e-93f5-23ee64bdffb7"",""projectId"":""0198b9d0-29d4-7df3-8625-4b4515841beb""}","https://test12345.live/?num_scrambled_semantic=8&num_scrambled_causal=4&num_scrambled_schematic=4&participantId=B434DE310DA445DB95EDFFA7A132E066&assignmentId=0198b9fa-ea8c-7e8e-93f5-23ee64bdffb7&projectId=0198b9d0-29d4-7df3-8625-4b4515841beb","B434DE310DA445DB95EDFFA7A132E066-2025-08-17-22-17-56","","null","","[]","null","",""
"","","","","","image-button-response","101","655893","0.0-14.0-1.0-0.4","B434DE310DA445DB95EDFFA7A132E066","B434DE310DA445DB95EDFFA7A132E066","0198b9fa-ea8c-7e8e-93f5-23ee64bdffb7","0198b9d0-29d4-7df3-8625-4b4515841beb","{""num_scrambled_semantic"":""8"",""num_scrambled_causal"":""4"",""num_scrambled_schematic"":""4"",""participantId"":""B434DE310DA445DB95EDFFA7A132E066"",""assignmentId"":""0198b9fa-ea8c-7e8e-93f5-23ee64bdffb7"",""projectId"":""0198b9d0-29d4-7df3-8625-4b4515841beb""}","https://test12345.live/?num_scrambled_semantic=8&num_scrambled_causal=4&num_scrambled_schematic=4&participantId=B434DE310DA445DB95EDFFA7A132E066&assignmentId=0198b9fa-ea8c-7e8e-93f5-23ee64bdffb7&projectId=0198b9d0-29d4-7df3-8625-4b4515841beb","B434DE310DA445DB95EDFFA7A132E066-2025-08-17-22-17-56","","null","","images/semantic_sequence/redecorating_semantic/redecorating_semantic_1.png","null","",""
"","","","","","image-button-response","102","657524","0.0-14.0-1.0-1.4","B434DE310DA445DB95EDFFA7A132E066","B434DE310DA445DB95EDFFA7A132E066","0198b9fa-ea8c-7e8e-93f5-23ee64bdffb7","0198b9d0-29d4-7df3-8625-4b4515841beb","{""num_scrambled_semantic"":""8"",""num_scrambled_causal"":""4"",""num_scrambled_schematic"":""4"",""participantId"":""B434DE310DA445DB95EDFFA7A132E066"",""assignmentId"":""0198b9fa-ea8c-7e8e-93f5-23ee64bdffb7"",""projectId"":""0198b9d0-29d4-7df3-8625-4b4515841beb""}","https://test12345.live/?num_scrambled_semantic=8&num_scrambled_causal=4&num_scrambled_schematic=4&participantId=B434DE310DA445DB95EDFFA7A132E066&assignmentId=0198b9fa-ea8c-7e8e-93f5-23ee64bdffb7&projectId=0198b9d0-29d4-7df3-8625-4b4515841beb","B434DE310DA445DB95EDFFA7A132E066-2025-08-17-22-17-56","","1630","","images/semantic_sequence/redecorating_semantic/redecorating_semantic_1.png","0","",""
"","","","","","image-button-response","103","662940","0.0-14.0-1.0-2.4","B434DE310DA445DB95EDFFA7A132E066","B434DE310DA445DB95EDFFA7A132E066","0198b9fa-ea8c-7e8e-93f5-23ee64bdffb7","0198b9d0-29d4-7df3-8625-4b4515841beb","{""num_scrambled_semantic"":""8"",""num_scrambled_causal"":""4"",""num_scrambled_schematic"":""4"",""participantId"":""B434DE310DA445DB95EDFFA7A132E066"",""assignmentId"":""0198b9fa-ea8c-7e8e-93f5-23ee64bdffb7"",""projectId"":""0198b9d0-29d4-7df3-8625-4b4515841beb""}","https://test12345.live/?num_scrambled_semantic=8&num_scrambled_causal=4&num_scrambled_schematic=4&participantId=B434DE310DA445DB95EDFFA7A132E066&assignmentId=0198b9fa-ea8c-7e8e-93f5-23ee64bdffb7&projectId=0198b9d0-29d4-7df3-8625-4b4515841beb","B434DE310DA445DB95EDFFA7A132E066-2025-08-17-22-17-56","","null","","[]","null","",""
"","","","","","image-button-response","104","667449","0.0-14.0-1.0-0.5","B434DE310DA445DB95EDFFA7A132E066","B434DE310DA445DB95EDFFA7A132E066","0198b9fa-ea8c-7e8e-93f5-23ee64bdffb7","0198b9d0-29d4-7df3-8625-4b4515841beb","{""num_scrambled_semantic"":""8"",""num_scrambled_causal"":""4"",""num_scrambled_schematic"":""4"",""participantId"":""B434DE310DA445DB95EDFFA7A132E066"",""assignmentId"":""0198b9fa-ea8c-7e8e-93f5-23ee64bdffb7"",""projectId"":""0198b9d0-29d4-7df3-8625-4b4515841beb""}","https://test12345.live/?num_scrambled_semantic=8&num_scrambled_causal=4&num_scrambled_schematic=4&participantId=B434DE310DA445DB95EDFFA7A132E066&assignmentId=0198b9fa-ea8c-7e8e-93f5-23ee64bdffb7&projectId=0198b9d0-29d4-7df3-8625-4b4515841beb","B434DE310DA445DB95EDFFA7A132E066-2025-08-17-22-17-56","","null","","images/semantic_sequence/redecorating_semantic/redecorating_semantic_4.png","null","",""
"","","","","","image-button-response","105","668395","0.0-14.0-1.0-1.5","B434DE310DA445DB95EDFFA7A132E066","B434DE310DA445DB95EDFFA7A132E066","0198b9fa-ea8c-7e8e-93f5-23ee64bdffb7","0198b9d0-29d4-7df3-8625-4b4515841beb","{""num_scrambled_semantic"":""8"",""num_scrambled_causal"":""4"",""num_scrambled_schematic"":""4"",""participantId"":""B434DE310DA445DB95EDFFA7A132E066"",""assignmentId"":""0198b9fa-ea8c-7e8e-93f5-23ee64bdffb7"",""projectId"":""0198b9d0-29d4-7df3-8625-4b4515841beb""}","https://test12345.live/?num_scrambled_semantic=8&num_scrambled_causal=4&num_scrambled_schematic=4&participantId=B434DE310DA445DB95EDFFA7A132E066&assignmentId=0198b9fa-ea8c-7e8e-93f5-23ee64bdffb7&projectId=0198b9d0-29d4-7df3-8625-4b4515841beb","B434DE310DA445DB95EDFFA7A132E066-2025-08-17-22-17-56","","945","","images/semantic_sequence/redecorating_semantic/redecorating_semantic_4.png","0","",""
"","","","","","image-button-response","106","673809","0.0-14.0-1.0-2.5","B434DE310DA445DB95EDFFA7A132E066","B434DE310DA445DB95EDFFA7A132E066","0198b9fa-ea8c-7e8e-93f5-23ee64bdffb7","0198b9d0-29d4-7df3-8625-4b4515841beb","{""num_scrambled_semantic"":""8"",""num_scrambled_causal"":""4"",""num_scrambled_schematic"":""4"",""participantId"":""B434DE310DA445DB95EDFFA7A132E066"",""assignmentId"":""0198b9fa-ea8c-7e8e-93f5-23ee64bdffb7"",""projectId"":""0198b9d0-29d4-7df3-8625-4b4515841beb""}","https://test12345.live/?num_scrambled_semantic=8&num_scrambled_causal=4&num_scrambled_schematic=4&participantId=B434DE310DA445DB95EDFFA7A132E066&assignmentId=0198b9fa-ea8c-7e8e-93f5-23ee64bdffb7&projectId=0198b9d0-29d4-7df3-8625-4b4515841beb","B434DE310DA445DB95EDFFA7A132E066-2025-08-17-22-17-56","","null","","[]","null","",""
"","","","","","image-button-response","107","678313","0.0-14.0-1.0-0.6","B434DE310DA445DB95EDFFA7A132E066","B434DE310DA445DB95EDFFA7A132E066","0198b9fa-ea8c-7e8e-93f5-23ee64bdffb7","0198b9d0-29d4-7df3-8625-4b4515841beb","{""num_scrambled_semantic"":""8"",""num_scrambled_causal"":""4"",""num_scrambled_schematic"":""4"",""participantId"":""B434DE310DA445DB95EDFFA7A132E066"",""assignmentId"":""0198b9fa-ea8c-7e8e-93f5-23ee64bdffb7"",""projectId"":""0198b9d0-29d4-7df3-8625-4b4515841beb""}","https://test12345.live/?num_scrambled_semantic=8&num_scrambled_causal=4&num_scrambled_schematic=4&participantId=B434DE310DA445DB95EDFFA7A132E066&assignmentId=0198b9fa-ea8c-7e8e-93f5-23ee64bdffb7&projectId=0198b9d0-29d4-7df3-8625-4b4515841beb","B434DE310DA445DB95EDFFA7A132E066-2025-08-17-22-17-56","","null","","images/semantic_sequence/redecorating_semantic/redecorating_semantic_7.png","null","",""
"","","","","","image-button-response","108","679007","0.0-14.0-1.0-1.6","B434DE310DA445DB95EDFFA7A132E066","B434DE310DA445DB95EDFFA7A132E066","0198b9fa-ea8c-7e8e-93f5-23ee64bdffb7","0198b9d0-29d4-7df3-8625-4b4515841beb","{""num_scrambled_semantic"":""8"",""num_scrambled_causal"":""4"",""num_scrambled_schematic"":""4"",""participantId"":""B434DE310DA445DB95EDFFA7A132E066"",""assignmentId"":""0198b9fa-ea8c-7e8e-93f5-23ee64bdffb7"",""projectId"":""0198b9d0-29d4-7df3-8625-4b4515841beb""}","https://test12345.live/?num_scrambled_semantic=8&num_scrambled_causal=4&num_scrambled_schematic=4&participantId=B434DE310DA445DB95EDFFA7A132E066&assignmentId=0198b9fa-ea8c-7e8e-93f5-23ee64bdffb7&projectId=0198b9d0-29d4-7df3-8625-4b4515841beb","B434DE310DA445DB95EDFFA7A132E066-2025-08-17-22-17-56","","694","","images/semantic_sequence/redecorating_semantic/redecorating_semantic_7.png","0","",""
"","","","","","image-button-response","109","684423","0.0-14.0-1.0-2.6","B434DE310DA445DB95EDFFA7A132E066","B434DE310DA445DB95EDFFA7A132E066","0198b9fa-ea8c-7e8e-93f5-23ee64bdffb7","0198b9d0-29d4-7df3-8625-4b4515841beb","{""num_scrambled_semantic"":""8"",""num_scrambled_causal"":""4"",""num_scrambled_schematic"":""4"",""participantId"":""B434DE310DA445DB95EDFFA7A132E066"",""assignmentId"":""0198b9fa-ea8c-7e8e-93f5-23ee64bdffb7"",""projectId"":""0198b9d0-29d4-7df3-8625-4b4515841beb""}","https://test12345.live/?num_scrambled_semantic=8&num_scrambled_causal=4&num_scrambled_schematic=4&participantId=B434DE310DA445DB95EDFFA7A132E066&assignmentId=0198b9fa-ea8c-7e8e-93f5-23ee64bdffb7&projectId=0198b9d0-29d4-7df3-8625-4b4515841beb","B434DE310DA445DB95EDFFA7A132E066-2025-08-17-22-17-56","","null","","[]","null","",""
"","","","","","image-button-response","110","688937","0.0-14.0-1.0-0.7","B434DE310DA445DB95EDFFA7A132E066","B434DE310DA445DB95EDFFA7A132E066","0198b9fa-ea8c-7e8e-93f5-23ee64bdffb7","0198b9d0-29d4-7df3-8625-4b4515841beb","{""num_scrambled_semantic"":""8"",""num_scrambled_causal"":""4"",""num_scrambled_schematic"":""4"",""participantId"":""B434DE310DA445DB95EDFFA7A132E066"",""assignmentId"":""0198b9fa-ea8c-7e8e-93f5-23ee64bdffb7"",""projectId"":""0198b9d0-29d4-7df3-8625-4b4515841beb""}","https://test12345.live/?num_scrambled_semantic=8&num_scrambled_causal=4&num_scrambled_schematic=4&participantId=B434DE310DA445DB95EDFFA7A132E066&assignmentId=0198b9fa-ea8c-7e8e-93f5-23ee64bdffb7&projectId=0198b9d0-29d4-7df3-8625-4b4515841beb","B434DE310DA445DB95EDFFA7A132E066-2025-08-17-22-17-56","","null","","images/semantic_sequence/redecorating_semantic/redecorating_semantic_9.png","null","",""
"","","","","","image-button-response","111","689633","0.0-14.0-1.0-1.7","B434DE310DA445DB95EDFFA7A132E066","B434DE310DA445DB95EDFFA7A132E066","0198b9fa-ea8c-7e8e-93f5-23ee64bdffb7","0198b9d0-29d4-7df3-8625-4b4515841beb","{""num_scrambled_semantic"":""8"",""num_scrambled_causal"":""4"",""num_scrambled_schematic"":""4"",""participantId"":""B434DE310DA445DB95EDFFA7A132E066"",""assignmentId"":""0198b9fa-ea8c-7e8e-93f5-23ee64bdffb7"",""projectId"":""0198b9d0-29d4-7df3-8625-4b4515841beb""}","https://test12345.live/?num_scrambled_semantic=8&num_scrambled_causal=4&num_scrambled_schematic=4&participantId=B434DE310DA445DB95EDFFA7A132E066&assignmentId=0198b9fa-ea8c-7e8e-93f5-23ee64bdffb7&projectId=0198b9d0-29d4-7df3-8625-4b4515841beb","B434DE310DA445DB95EDFFA7A132E066-2025-08-17-22-17-56","","695","","images/semantic_sequence/redecorating_semantic/redecorating_semantic_9.png","0","",""
"","","","","","image-button-response","112","695045","0.0-14.0-1.0-2.7","B434DE310DA445DB95EDFFA7A132E066","B434DE310DA445DB95EDFFA7A132E066","0198b9fa-ea8c-7e8e-93f5-23ee64bdffb7","0198b9d0-29d4-7df3-8625-4b4515841beb","{""num_scrambled_semantic"":""8"",""num_scrambled_causal"":""4"",""num_scrambled_schematic"":""4"",""participantId"":""B434DE310DA445DB95EDFFA7A132E066"",""assignmentId"":""0198b9fa-ea8c-7e8e-93f5-23ee64bdffb7"",""projectId"":""0198b9d0-29d4-7df3-8625-4b4515841beb""}","https://test12345.live/?num_scrambled_semantic=8&num_scrambled_causal=4&num_scrambled_schematic=4&participantId=B434DE310DA445DB95EDFFA7A132E066&assignmentId=0198b9fa-ea8c-7e8e-93f5-23ee64bdffb7&projectId=0198b9d0-29d4-7df3-8625-4b4515841beb","B434DE310DA445DB95EDFFA7A132E066-2025-08-17-22-17-56","","null","","[]","null","",""
"","","","","","image-button-response","113","699549","0.0-14.0-1.0-0.8","B434DE310DA445DB95EDFFA7A132E066","B434DE310DA445DB95EDFFA7A132E066","0198b9fa-ea8c-7e8e-93f5-23ee64bdffb7","0198b9d0-29d4-7df3-8625-4b4515841beb","{""num_scrambled_semantic"":""8"",""num_scrambled_causal"":""4"",""num_scrambled_schematic"":""4"",""participantId"":""B434DE310DA445DB95EDFFA7A132E066"",""assignmentId"":""0198b9fa-ea8c-7e8e-93f5-23ee64bdffb7"",""projectId"":""0198b9d0-29d4-7df3-8625-4b4515841beb""}","https://test12345.live/?num_scrambled_semantic=8&num_scrambled_causal=4&num_scrambled_schematic=4&participantId=B434DE310DA445DB95EDFFA7A132E066&assignmentId=0198b9fa-ea8c-7e8e-93f5-23ee64bdffb7&projectId=0198b9d0-29d4-7df3-8625-4b4515841beb","B434DE310DA445DB95EDFFA7A132E066-2025-08-17-22-17-56","","null","","images/semantic_sequence/redecorating_semantic/redecorating_semantic_6.png","null","",""
"","","","","","image-button-response","114","700114","0.0-14.0-1.0-1.8","B434DE310DA445DB95EDFFA7A132E066","B434DE310DA445DB95EDFFA7A132E066","0198b9fa-ea8c-7e8e-93f5-23ee64bdffb7","0198b9d0-29d4-7df3-8625-4b4515841beb","{""num_scrambled_semantic"":""8"",""num_scrambled_causal"":""4"",""num_scrambled_schematic"":""4"",""participantId"":""B434DE310DA445DB95EDFFA7A132E066"",""assignmentId"":""0198b9fa-ea8c-7e8e-93f5-23ee64bdffb7"",""projectId"":""0198b9d0-29d4-7df3-8625-4b4515841beb""}","https://test12345.live/?num_scrambled_semantic=8&num_scrambled_causal=4&num_scrambled_schematic=4&participantId=B434DE310DA445DB95EDFFA7A132E066&assignmentId=0198b9fa-ea8c-7e8e-93f5-23ee64bdffb7&projectId=0198b9d0-29d4-7df3-8625-4b4515841beb","B434DE310DA445DB95EDFFA7A132E066-2025-08-17-22-17-56","","564","","images/semantic_sequence/redecorating_semantic/redecorating_semantic_6.png","0","",""
