"success","timeout","failed_images","failed_audio","failed_video","trial_type","trial_index","time_elapsed","internal_node_id","subject","subject_id","study_id","session_id","urlvar","current_url","audio_id","view_history","rt","device_id","stimulus","response","estimated_stimulus_onset","seq_name"
"true","false","[]","[]","[]","preload","0","3354","0.0-0.0","B7BCC484B8354EA690EA40756B9A34C6","B7BCC484B8354EA690EA40756B9A34C6","46e1b6b7-0ec1-41a9-9fe0-44093e201cc9","ba640c14-69c5-453e-80b2-29051492c0e0","{""num_scrambled_semantic"":""8"",""num_scrambled_causal"":""4"",""num_scrambled_schematic"":""4"",""participantId"":""B7BCC484B8354EA690EA40756B9A34C6"",""assignmentId"":""46e1b6b7-0ec1-41a9-9fe0-44093e201cc9"",""projectId"":""ba640c14-69c5-453e-80b2-29051492c0e0""}","https://test12345.live/?num_scrambled_semantic=8&num_scrambled_causal=4&num_scrambled_schematic=4&participantId=B7BCC484B8354EA690EA40756B9A34C6&assignmentId=46e1b6b7-0ec1-41a9-9fe0-44093e201cc9&projectId=ba640c14-69c5-453e-80b2-29051492c0e0","B7BCC484B8354EA690EA40756B9A34C6-2025-05-14-20-53-36","","","","","","",""
"","","","","","instructions","1","12110","0.0-1.0","B7BCC484B8354EA690EA40756B9A34C6","B7BCC484B8354EA690EA40756B9A34C6","46e1b6b7-0ec1-41a9-9fe0-44093e201cc9","ba640c14-69c5-453e-80b2-29051492c0e0","{""num_scrambled_semantic"":""8"",""num_scrambled_causal"":""4"",""num_scrambled_schematic"":""4"",""participantId"":""B7BCC484B8354EA690EA40756B9A34C6"",""assignmentId"":""46e1b6b7-0ec1-41a9-9fe0-44093e201cc9"",""projectId"":""ba640c14-69c5-453e-80b2-29051492c0e0""}","https://test12345.live/?num_scrambled_semantic=8&num_scrambled_causal=4&num_scrambled_schematic=4&participantId=B7BCC484B8354EA690EA40756B9A34C6&assignmentId=46e1b6b7-0ec1-41a9-9fe0-44093e201cc9&projectId=ba640c14-69c5-453e-80b2-29051492c0e0","B7BCC484B8354EA690EA40756B9A34C6-2025-05-14-20-53-36","[{""page_index"":0,""viewing_time"":8755}]","8755","","","","",""
"","","","","","instructions","2","14593","0.0-2.0","B7BCC484B8354EA690EA40756B9A34C6","B7BCC484B8354EA690EA40756B9A34C6","46e1b6b7-0ec1-41a9-9fe0-44093e201cc9","ba640c14-69c5-453e-80b2-29051492c0e0","{""num_scrambled_semantic"":""8"",""num_scrambled_causal"":""4"",""num_scrambled_schematic"":""4"",""participantId"":""B7BCC484B8354EA690EA40756B9A34C6"",""assignmentId"":""46e1b6b7-0ec1-41a9-9fe0-44093e201cc9"",""projectId"":""ba640c14-69c5-453e-80b2-29051492c0e0""}","https://test12345.live/?num_scrambled_semantic=8&num_scrambled_causal=4&num_scrambled_schematic=4&participantId=B7BCC484B8354EA690EA40756B9A34C6&assignmentId=46e1b6b7-0ec1-41a9-9fe0-44093e201cc9&projectId=ba640c14-69c5-453e-80b2-29051492c0e0","B7BCC484B8354EA690EA40756B9A34C6-2025-05-14-20-53-36","[{""page_index"":0,""viewing_time"":2483}]","2483","","","","",""
"true","","","","","fullscreen","3","50786","0.0-3.0","B7BCC484B8354EA690EA40756B9A34C6","B7BCC484B8354EA690EA40756B9A34C6","46e1b6b7-0ec1-41a9-9fe0-44093e201cc9","ba640c14-69c5-453e-80b2-29051492c0e0","{""num_scrambled_semantic"":""8"",""num_scrambled_causal"":""4"",""num_scrambled_schematic"":""4"",""participantId"":""B7BCC484B8354EA690EA40756B9A34C6"",""assignmentId"":""46e1b6b7-0ec1-41a9-9fe0-44093e201cc9"",""projectId"":""ba640c14-69c5-453e-80b2-29051492c0e0""}","https://test12345.live/?num_scrambled_semantic=8&num_scrambled_causal=4&num_scrambled_schematic=4&participantId=B7BCC484B8354EA690EA40756B9A34C6&assignmentId=46e1b6b7-0ec1-41a9-9fe0-44093e201cc9&projectId=ba640c14-69c5-453e-80b2-29051492c0e0","B7BCC484B8354EA690EA40756B9A34C6-2025-05-14-20-53-36","","35178","","","","",""
"","","","","","initialize-microphone","4","61556","0.0-4.0-0.0","B7BCC484B8354EA690EA40756B9A34C6","B7BCC484B8354EA690EA40756B9A34C6","46e1b6b7-0ec1-41a9-9fe0-44093e201cc9","ba640c14-69c5-453e-80b2-29051492c0e0","{""num_scrambled_semantic"":""8"",""num_scrambled_causal"":""4"",""num_scrambled_schematic"":""4"",""participantId"":""B7BCC484B8354EA690EA40756B9A34C6"",""assignmentId"":""46e1b6b7-0ec1-41a9-9fe0-44093e201cc9"",""projectId"":""ba640c14-69c5-453e-80b2-29051492c0e0""}","https://test12345.live/?num_scrambled_semantic=8&num_scrambled_causal=4&num_scrambled_schematic=4&participantId=B7BCC484B8354EA690EA40756B9A34C6&assignmentId=46e1b6b7-0ec1-41a9-9fe0-44093e201cc9&projectId=ba640c14-69c5-453e-80b2-29051492c0e0","B7BCC484B8354EA690EA40756B9A34C6-2025-05-14-20-53-36","","","945a57426f554078130f090c2d0689fc24244417fada1d6a8850b9bbaaf7bd44","","","",""
"","","","","","html-audio-response","5","77823","0.0-4.0-1.0","B7BCC484B8354EA690EA40756B9A34C6","B7BCC484B8354EA690EA40756B9A34C6","46e1b6b7-0ec1-41a9-9fe0-44093e201cc9","ba640c14-69c5-453e-80b2-29051492c0e0","{""num_scrambled_semantic"":""8"",""num_scrambled_causal"":""4"",""num_scrambled_schematic"":""4"",""participantId"":""B7BCC484B8354EA690EA40756B9A34C6"",""assignmentId"":""46e1b6b7-0ec1-41a9-9fe0-44093e201cc9"",""projectId"":""ba640c14-69c5-453e-80b2-29051492c0e0""}","https://test12345.live/?num_scrambled_semantic=8&num_scrambled_causal=4&num_scrambled_schematic=4&participantId=B7BCC484B8354EA690EA40756B9A34C6&assignmentId=46e1b6b7-0ec1-41a9-9fe0-44093e201cc9&projectId=ba640c14-69c5-453e-80b2-29051492c0e0","B7BCC484B8354EA690EA40756B9A34C6-2025-05-14-20-53-36","","8352","","<span style=""color: red; font-size: 24px""> NOW RECORDING</span>
        <p>Please test Microphone</p>","","2",""
"","","","","","html-button-response","6","79569","0.0-4.0-2.0","B7BCC484B8354EA690EA40756B9A34C6","B7BCC484B8354EA690EA40756B9A34C6","46e1b6b7-0ec1-41a9-9fe0-44093e201cc9","ba640c14-69c5-453e-80b2-29051492c0e0","{""num_scrambled_semantic"":""8"",""num_scrambled_causal"":""4"",""num_scrambled_schematic"":""4"",""participantId"":""B7BCC484B8354EA690EA40756B9A34C6"",""assignmentId"":""46e1b6b7-0ec1-41a9-9fe0-44093e201cc9"",""projectId"":""ba640c14-69c5-453e-80b2-29051492c0e0""}","https://test12345.live/?num_scrambled_semantic=8&num_scrambled_causal=4&num_scrambled_schematic=4&participantId=B7BCC484B8354EA690EA40756B9A34C6&assignmentId=46e1b6b7-0ec1-41a9-9fe0-44093e201cc9&projectId=ba640c14-69c5-453e-80b2-29051492c0e0","B7BCC484B8354EA690EA40756B9A34C6-2025-05-14-20-53-36","","1745","","<p style=""font-size:48px; color:red;"">Is Microphone OK?</p>","1","",""
"","","","","","instructions","7","98973","0.0-5.0","B7BCC484B8354EA690EA40756B9A34C6","B7BCC484B8354EA690EA40756B9A34C6","46e1b6b7-0ec1-41a9-9fe0-44093e201cc9","ba640c14-69c5-453e-80b2-29051492c0e0","{""num_scrambled_semantic"":""8"",""num_scrambled_causal"":""4"",""num_scrambled_schematic"":""4"",""participantId"":""B7BCC484B8354EA690EA40756B9A34C6"",""assignmentId"":""46e1b6b7-0ec1-41a9-9fe0-44093e201cc9"",""projectId"":""ba640c14-69c5-453e-80b2-29051492c0e0""}","https://test12345.live/?num_scrambled_semantic=8&num_scrambled_causal=4&num_scrambled_schematic=4&participantId=B7BCC484B8354EA690EA40756B9A34C6&assignmentId=46e1b6b7-0ec1-41a9-9fe0-44093e201cc9&projectId=ba640c14-69c5-453e-80b2-29051492c0e0","B7BCC484B8354EA690EA40756B9A34C6-2025-05-14-20-53-36","[{""page_index"":0,""viewing_time"":8330},{""page_index"":1,""viewing_time"":11075}]","19405","","","","",""
"","","","","","image-button-response","8","104976","0.0-6.0-0.0","B7BCC484B8354EA690EA40756B9A34C6","B7BCC484B8354EA690EA40756B9A34C6","46e1b6b7-0ec1-41a9-9fe0-44093e201cc9","ba640c14-69c5-453e-80b2-29051492c0e0","{""num_scrambled_semantic"":""8"",""num_scrambled_causal"":""4"",""num_scrambled_schematic"":""4"",""participantId"":""B7BCC484B8354EA690EA40756B9A34C6"",""assignmentId"":""46e1b6b7-0ec1-41a9-9fe0-44093e201cc9"",""projectId"":""ba640c14-69c5-453e-80b2-29051492c0e0""}","https://test12345.live/?num_scrambled_semantic=8&num_scrambled_causal=4&num_scrambled_schematic=4&participantId=B7BCC484B8354EA690EA40756B9A34C6&assignmentId=46e1b6b7-0ec1-41a9-9fe0-44093e201cc9&projectId=ba640c14-69c5-453e-80b2-29051492c0e0","B7BCC484B8354EA690EA40756B9A34C6-2025-05-14-20-53-36","","null","","images/instructions/movie_0.png","null","",""
"","","","","","image-button-response","9","109480","0.0-6.0-1.0-0.0","B7BCC484B8354EA690EA40756B9A34C6","B7BCC484B8354EA690EA40756B9A34C6","46e1b6b7-0ec1-41a9-9fe0-44093e201cc9","ba640c14-69c5-453e-80b2-29051492c0e0","{""num_scrambled_semantic"":""8"",""num_scrambled_causal"":""4"",""num_scrambled_schematic"":""4"",""participantId"":""B7BCC484B8354EA690EA40756B9A34C6"",""assignmentId"":""46e1b6b7-0ec1-41a9-9fe0-44093e201cc9"",""projectId"":""ba640c14-69c5-453e-80b2-29051492c0e0""}","https://test12345.live/?num_scrambled_semantic=8&num_scrambled_causal=4&num_scrambled_schematic=4&participantId=B7BCC484B8354EA690EA40756B9A34C6&assignmentId=46e1b6b7-0ec1-41a9-9fe0-44093e201cc9&projectId=ba640c14-69c5-453e-80b2-29051492c0e0","B7BCC484B8354EA690EA40756B9A34C6-2025-05-14-20-53-36","","null","","images/instructions/movie_1.png","null","",""
"","","","","","image-button-response","10","112276","0.0-6.0-1.0-1.0","B7BCC484B8354EA690EA40756B9A34C6","B7BCC484B8354EA690EA40756B9A34C6","46e1b6b7-0ec1-41a9-9fe0-44093e201cc9","ba640c14-69c5-453e-80b2-29051492c0e0","{""num_scrambled_semantic"":""8"",""num_scrambled_causal"":""4"",""num_scrambled_schematic"":""4"",""participantId"":""B7BCC484B8354EA690EA40756B9A34C6"",""assignmentId"":""46e1b6b7-0ec1-41a9-9fe0-44093e201cc9"",""projectId"":""ba640c14-69c5-453e-80b2-29051492c0e0""}","https://test12345.live/?num_scrambled_semantic=8&num_scrambled_causal=4&num_scrambled_schematic=4&participantId=B7BCC484B8354EA690EA40756B9A34C6&assignmentId=46e1b6b7-0ec1-41a9-9fe0-44093e201cc9&projectId=ba640c14-69c5-453e-80b2-29051492c0e0","B7BCC484B8354EA690EA40756B9A34C6-2025-05-14-20-53-36","","2795","","images/instructions/movie_1.png","0","",""
"","","","","","image-button-response","11","114089","0.0-6.0-1.0-2.0","B7BCC484B8354EA690EA40756B9A34C6","B7BCC484B8354EA690EA40756B9A34C6","46e1b6b7-0ec1-41a9-9fe0-44093e201cc9","ba640c14-69c5-453e-80b2-29051492c0e0","{""num_scrambled_semantic"":""8"",""num_scrambled_causal"":""4"",""num_scrambled_schematic"":""4"",""participantId"":""B7BCC484B8354EA690EA40756B9A34C6"",""assignmentId"":""46e1b6b7-0ec1-41a9-9fe0-44093e201cc9"",""projectId"":""ba640c14-69c5-453e-80b2-29051492c0e0""}","https://test12345.live/?num_scrambled_semantic=8&num_scrambled_causal=4&num_scrambled_schematic=4&participantId=B7BCC484B8354EA690EA40756B9A34C6&assignmentId=46e1b6b7-0ec1-41a9-9fe0-44093e201cc9&projectId=ba640c14-69c5-453e-80b2-29051492c0e0","B7BCC484B8354EA690EA40756B9A34C6-2025-05-14-20-53-36","","null","","[]","null","",""
"","","","","","image-button-response","12","118597","0.0-6.0-1.0-0.1","B7BCC484B8354EA690EA40756B9A34C6","B7BCC484B8354EA690EA40756B9A34C6","46e1b6b7-0ec1-41a9-9fe0-44093e201cc9","ba640c14-69c5-453e-80b2-29051492c0e0","{""num_scrambled_semantic"":""8"",""num_scrambled_causal"":""4"",""num_scrambled_schematic"":""4"",""participantId"":""B7BCC484B8354EA690EA40756B9A34C6"",""assignmentId"":""46e1b6b7-0ec1-41a9-9fe0-44093e201cc9"",""projectId"":""ba640c14-69c5-453e-80b2-29051492c0e0""}","https://test12345.live/?num_scrambled_semantic=8&num_scrambled_causal=4&num_scrambled_schematic=4&participantId=B7BCC484B8354EA690EA40756B9A34C6&assignmentId=46e1b6b7-0ec1-41a9-9fe0-44093e201cc9&projectId=ba640c14-69c5-453e-80b2-29051492c0e0","B7BCC484B8354EA690EA40756B9A34C6-2025-05-14-20-53-36","","null","","images/instructions/movie_2.png","null","",""
"","","","","","image-button-response","13","120797","0.0-6.0-1.0-1.1","B7BCC484B8354EA690EA40756B9A34C6","B7BCC484B8354EA690EA40756B9A34C6","46e1b6b7-0ec1-41a9-9fe0-44093e201cc9","ba640c14-69c5-453e-80b2-29051492c0e0","{""num_scrambled_semantic"":""8"",""num_scrambled_causal"":""4"",""num_scrambled_schematic"":""4"",""participantId"":""B7BCC484B8354EA690EA40756B9A34C6"",""assignmentId"":""46e1b6b7-0ec1-41a9-9fe0-44093e201cc9"",""projectId"":""ba640c14-69c5-453e-80b2-29051492c0e0""}","https://test12345.live/?num_scrambled_semantic=8&num_scrambled_causal=4&num_scrambled_schematic=4&participantId=B7BCC484B8354EA690EA40756B9A34C6&assignmentId=46e1b6b7-0ec1-41a9-9fe0-44093e201cc9&projectId=ba640c14-69c5-453e-80b2-29051492c0e0","B7BCC484B8354EA690EA40756B9A34C6-2025-05-14-20-53-36","","2199","","images/instructions/movie_2.png","0","",""
"","","","","","image-button-response","14","122605","0.0-6.0-1.0-2.1","B7BCC484B8354EA690EA40756B9A34C6","B7BCC484B8354EA690EA40756B9A34C6","46e1b6b7-0ec1-41a9-9fe0-44093e201cc9","ba640c14-69c5-453e-80b2-29051492c0e0","{""num_scrambled_semantic"":""8"",""num_scrambled_causal"":""4"",""num_scrambled_schematic"":""4"",""participantId"":""B7BCC484B8354EA690EA40756B9A34C6"",""assignmentId"":""46e1b6b7-0ec1-41a9-9fe0-44093e201cc9"",""projectId"":""ba640c14-69c5-453e-80b2-29051492c0e0""}","https://test12345.live/?num_scrambled_semantic=8&num_scrambled_causal=4&num_scrambled_schematic=4&participantId=B7BCC484B8354EA690EA40756B9A34C6&assignmentId=46e1b6b7-0ec1-41a9-9fe0-44093e201cc9&projectId=ba640c14-69c5-453e-80b2-29051492c0e0","B7BCC484B8354EA690EA40756B9A34C6-2025-05-14-20-53-36","","null","","[]","null","",""
"","","","","","image-button-response","15","127106","0.0-6.0-1.0-0.2","B7BCC484B8354EA690EA40756B9A34C6","B7BCC484B8354EA690EA40756B9A34C6","46e1b6b7-0ec1-41a9-9fe0-44093e201cc9","ba640c14-69c5-453e-80b2-29051492c0e0","{""num_scrambled_semantic"":""8"",""num_scrambled_causal"":""4"",""num_scrambled_schematic"":""4"",""participantId"":""B7BCC484B8354EA690EA40756B9A34C6"",""assignmentId"":""46e1b6b7-0ec1-41a9-9fe0-44093e201cc9"",""projectId"":""ba640c14-69c5-453e-80b2-29051492c0e0""}","https://test12345.live/?num_scrambled_semantic=8&num_scrambled_causal=4&num_scrambled_schematic=4&participantId=B7BCC484B8354EA690EA40756B9A34C6&assignmentId=46e1b6b7-0ec1-41a9-9fe0-44093e201cc9&projectId=ba640c14-69c5-453e-80b2-29051492c0e0","B7BCC484B8354EA690EA40756B9A34C6-2025-05-14-20-53-36","","null","","images/instructions/movie_3.png","null","",""
"","","","","","image-button-response","16","128101","0.0-6.0-1.0-1.2","B7BCC484B8354EA690EA40756B9A34C6","B7BCC484B8354EA690EA40756B9A34C6","46e1b6b7-0ec1-41a9-9fe0-44093e201cc9","ba640c14-69c5-453e-80b2-29051492c0e0","{""num_scrambled_semantic"":""8"",""num_scrambled_causal"":""4"",""num_scrambled_schematic"":""4"",""participantId"":""B7BCC484B8354EA690EA40756B9A34C6"",""assignmentId"":""46e1b6b7-0ec1-41a9-9fe0-44093e201cc9"",""projectId"":""ba640c14-69c5-453e-80b2-29051492c0e0""}","https://test12345.live/?num_scrambled_semantic=8&num_scrambled_causal=4&num_scrambled_schematic=4&participantId=B7BCC484B8354EA690EA40756B9A34C6&assignmentId=46e1b6b7-0ec1-41a9-9fe0-44093e201cc9&projectId=ba640c14-69c5-453e-80b2-29051492c0e0","B7BCC484B8354EA690EA40756B9A34C6-2025-05-14-20-53-36","","995","","images/instructions/movie_3.png","0","",""
"","","","","","image-button-response","17","129910","0.0-6.0-1.0-2.2","B7BCC484B8354EA690EA40756B9A34C6","B7BCC484B8354EA690EA40756B9A34C6","46e1b6b7-0ec1-41a9-9fe0-44093e201cc9","ba640c14-69c5-453e-80b2-29051492c0e0","{""num_scrambled_semantic"":""8"",""num_scrambled_causal"":""4"",""num_scrambled_schematic"":""4"",""participantId"":""B7BCC484B8354EA690EA40756B9A34C6"",""assignmentId"":""46e1b6b7-0ec1-41a9-9fe0-44093e201cc9"",""projectId"":""ba640c14-69c5-453e-80b2-29051492c0e0""}","https://test12345.live/?num_scrambled_semantic=8&num_scrambled_causal=4&num_scrambled_schematic=4&participantId=B7BCC484B8354EA690EA40756B9A34C6&assignmentId=46e1b6b7-0ec1-41a9-9fe0-44093e201cc9&projectId=ba640c14-69c5-453e-80b2-29051492c0e0","B7BCC484B8354EA690EA40756B9A34C6-2025-05-14-20-53-36","","null","","[]","null","",""
"","","","","","image-button-response","18","134427","0.0-6.0-1.0-0.3","B7BCC484B8354EA690EA40756B9A34C6","B7BCC484B8354EA690EA40756B9A34C6","46e1b6b7-0ec1-41a9-9fe0-44093e201cc9","ba640c14-69c5-453e-80b2-29051492c0e0","{""num_scrambled_semantic"":""8"",""num_scrambled_causal"":""4"",""num_scrambled_schematic"":""4"",""participantId"":""B7BCC484B8354EA690EA40756B9A34C6"",""assignmentId"":""46e1b6b7-0ec1-41a9-9fe0-44093e201cc9"",""projectId"":""ba640c14-69c5-453e-80b2-29051492c0e0""}","https://test12345.live/?num_scrambled_semantic=8&num_scrambled_causal=4&num_scrambled_schematic=4&participantId=B7BCC484B8354EA690EA40756B9A34C6&assignmentId=46e1b6b7-0ec1-41a9-9fe0-44093e201cc9&projectId=ba640c14-69c5-453e-80b2-29051492c0e0","B7BCC484B8354EA690EA40756B9A34C6-2025-05-14-20-53-36","","null","","images/instructions/movie_4.png","null","",""
"","","","","","image-button-response","19","135244","0.0-6.0-1.0-1.3","B7BCC484B8354EA690EA40756B9A34C6","B7BCC484B8354EA690EA40756B9A34C6","46e1b6b7-0ec1-41a9-9fe0-44093e201cc9","ba640c14-69c5-453e-80b2-29051492c0e0","{""num_scrambled_semantic"":""8"",""num_scrambled_causal"":""4"",""num_scrambled_schematic"":""4"",""participantId"":""B7BCC484B8354EA690EA40756B9A34C6"",""assignmentId"":""46e1b6b7-0ec1-41a9-9fe0-44093e201cc9"",""projectId"":""ba640c14-69c5-453e-80b2-29051492c0e0""}","https://test12345.live/?num_scrambled_semantic=8&num_scrambled_causal=4&num_scrambled_schematic=4&participantId=B7BCC484B8354EA690EA40756B9A34C6&assignmentId=46e1b6b7-0ec1-41a9-9fe0-44093e201cc9&projectId=ba640c14-69c5-453e-80b2-29051492c0e0","B7BCC484B8354EA690EA40756B9A34C6-2025-05-14-20-53-36","","817","","images/instructions/movie_4.png","0","",""
"","","","","","image-button-response","20","137047","0.0-6.0-1.0-2.3","B7BCC484B8354EA690EA40756B9A34C6","B7BCC484B8354EA690EA40756B9A34C6","46e1b6b7-0ec1-41a9-9fe0-44093e201cc9","ba640c14-69c5-453e-80b2-29051492c0e0","{""num_scrambled_semantic"":""8"",""num_scrambled_causal"":""4"",""num_scrambled_schematic"":""4"",""participantId"":""B7BCC484B8354EA690EA40756B9A34C6"",""assignmentId"":""46e1b6b7-0ec1-41a9-9fe0-44093e201cc9"",""projectId"":""ba640c14-69c5-453e-80b2-29051492c0e0""}","https://test12345.live/?num_scrambled_semantic=8&num_scrambled_causal=4&num_scrambled_schematic=4&participantId=B7BCC484B8354EA690EA40756B9A34C6&assignmentId=46e1b6b7-0ec1-41a9-9fe0-44093e201cc9&projectId=ba640c14-69c5-453e-80b2-29051492c0e0","B7BCC484B8354EA690EA40756B9A34C6-2025-05-14-20-53-36","","null","","[]","null","",""
"","","","","","instructions","21","146287","0.0-7.0","B7BCC484B8354EA690EA40756B9A34C6","B7BCC484B8354EA690EA40756B9A34C6","46e1b6b7-0ec1-41a9-9fe0-44093e201cc9","ba640c14-69c5-453e-80b2-29051492c0e0","{""num_scrambled_semantic"":""8"",""num_scrambled_causal"":""4"",""num_scrambled_schematic"":""4"",""participantId"":""B7BCC484B8354EA690EA40756B9A34C6"",""assignmentId"":""46e1b6b7-0ec1-41a9-9fe0-44093e201cc9"",""projectId"":""ba640c14-69c5-453e-80b2-29051492c0e0""}","https://test12345.live/?num_scrambled_semantic=8&num_scrambled_causal=4&num_scrambled_schematic=4&participantId=B7BCC484B8354EA690EA40756B9A34C6&assignmentId=46e1b6b7-0ec1-41a9-9fe0-44093e201cc9&projectId=ba640c14-69c5-453e-80b2-29051492c0e0","B7BCC484B8354EA690EA40756B9A34C6-2025-05-14-20-53-36","[{""page_index"":0,""viewing_time"":7833},{""page_index"":1,""viewing_time"":1407}]","9240","","","","",""
"","","","","","html-audio-response","22","199398","0.0-8.0","B7BCC484B8354EA690EA40756B9A34C6","B7BCC484B8354EA690EA40756B9A34C6","46e1b6b7-0ec1-41a9-9fe0-44093e201cc9","ba640c14-69c5-453e-80b2-29051492c0e0","{""num_scrambled_semantic"":""8"",""num_scrambled_causal"":""4"",""num_scrambled_schematic"":""4"",""participantId"":""B7BCC484B8354EA690EA40756B9A34C6"",""assignmentId"":""46e1b6b7-0ec1-41a9-9fe0-44093e201cc9"",""projectId"":""ba640c14-69c5-453e-80b2-29051492c0e0""}","https://test12345.live/?num_scrambled_semantic=8&num_scrambled_causal=4&num_scrambled_schematic=4&participantId=B7BCC484B8354EA690EA40756B9A34C6&assignmentId=46e1b6b7-0ec1-41a9-9fe0-44093e201cc9&projectId=ba640c14-69c5-453e-80b2-29051492c0e0","B7BCC484B8354EA690EA40756B9A34C6-2025-05-14-20-53-36","","51620","","[""<span style=\""color: red; font-size: 24px\""> NOW RECORDING</span><p>Please say out loud all the images you saw, as many as you can remember. The images can be said in any order.</p>""]","","1",""
"","","","","","instructions","23","201154","0.0-9.0","B7BCC484B8354EA690EA40756B9A34C6","B7BCC484B8354EA690EA40756B9A34C6","46e1b6b7-0ec1-41a9-9fe0-44093e201cc9","ba640c14-69c5-453e-80b2-29051492c0e0","{""num_scrambled_semantic"":""8"",""num_scrambled_causal"":""4"",""num_scrambled_schematic"":""4"",""participantId"":""B7BCC484B8354EA690EA40756B9A34C6"",""assignmentId"":""46e1b6b7-0ec1-41a9-9fe0-44093e201cc9"",""projectId"":""ba640c14-69c5-453e-80b2-29051492c0e0""}","https://test12345.live/?num_scrambled_semantic=8&num_scrambled_causal=4&num_scrambled_schematic=4&participantId=B7BCC484B8354EA690EA40756B9A34C6&assignmentId=46e1b6b7-0ec1-41a9-9fe0-44093e201cc9&projectId=ba640c14-69c5-453e-80b2-29051492c0e0","B7BCC484B8354EA690EA40756B9A34C6-2025-05-14-20-53-36","[{""page_index"":0,""viewing_time"":1753}]","1753","","","","",""
"","","","","","image-button-response","24","207161","0.0-10.0-0.0","B7BCC484B8354EA690EA40756B9A34C6","B7BCC484B8354EA690EA40756B9A34C6","46e1b6b7-0ec1-41a9-9fe0-44093e201cc9","ba640c14-69c5-453e-80b2-29051492c0e0","{""num_scrambled_semantic"":""8"",""num_scrambled_causal"":""4"",""num_scrambled_schematic"":""4"",""participantId"":""B7BCC484B8354EA690EA40756B9A34C6"",""assignmentId"":""46e1b6b7-0ec1-41a9-9fe0-44093e201cc9"",""projectId"":""ba640c14-69c5-453e-80b2-29051492c0e0""}","https://test12345.live/?num_scrambled_semantic=8&num_scrambled_causal=4&num_scrambled_schematic=4&participantId=B7BCC484B8354EA690EA40756B9A34C6&assignmentId=46e1b6b7-0ec1-41a9-9fe0-44093e201cc9&projectId=ba640c14-69c5-453e-80b2-29051492c0e0","B7BCC484B8354EA690EA40756B9A34C6-2025-05-14-20-53-36","","null","","images/semantic_sequence/exploring_nature_semantic/exploring_nature_semantic_0.png","null","",""
"","","","","","image-button-response","25","211677","0.0-10.0-1.0-0.0","B7BCC484B8354EA690EA40756B9A34C6","B7BCC484B8354EA690EA40756B9A34C6","46e1b6b7-0ec1-41a9-9fe0-44093e201cc9","ba640c14-69c5-453e-80b2-29051492c0e0","{""num_scrambled_semantic"":""8"",""num_scrambled_causal"":""4"",""num_scrambled_schematic"":""4"",""participantId"":""B7BCC484B8354EA690EA40756B9A34C6"",""assignmentId"":""46e1b6b7-0ec1-41a9-9fe0-44093e201cc9"",""projectId"":""ba640c14-69c5-453e-80b2-29051492c0e0""}","https://test12345.live/?num_scrambled_semantic=8&num_scrambled_causal=4&num_scrambled_schematic=4&participantId=B7BCC484B8354EA690EA40756B9A34C6&assignmentId=46e1b6b7-0ec1-41a9-9fe0-44093e201cc9&projectId=ba640c14-69c5-453e-80b2-29051492c0e0","B7BCC484B8354EA690EA40756B9A34C6-2025-05-14-20-53-36","","null","","images/semantic_sequence/exploring_nature_semantic/exploring_nature_semantic_1.png","null","",""
"","","","","","image-button-response","26","215682","0.0-10.0-1.0-1.0","B7BCC484B8354EA690EA40756B9A34C6","B7BCC484B8354EA690EA40756B9A34C6","46e1b6b7-0ec1-41a9-9fe0-44093e201cc9","ba640c14-69c5-453e-80b2-29051492c0e0","{""num_scrambled_semantic"":""8"",""num_scrambled_causal"":""4"",""num_scrambled_schematic"":""4"",""participantId"":""B7BCC484B8354EA690EA40756B9A34C6"",""assignmentId"":""46e1b6b7-0ec1-41a9-9fe0-44093e201cc9"",""projectId"":""ba640c14-69c5-453e-80b2-29051492c0e0""}","https://test12345.live/?num_scrambled_semantic=8&num_scrambled_causal=4&num_scrambled_schematic=4&participantId=B7BCC484B8354EA690EA40756B9A34C6&assignmentId=46e1b6b7-0ec1-41a9-9fe0-44093e201cc9&projectId=ba640c14-69c5-453e-80b2-29051492c0e0","B7BCC484B8354EA690EA40756B9A34C6-2025-05-14-20-53-36","","null","","images/semantic_sequence/exploring_nature_semantic/exploring_nature_semantic_1.png","null","",""
"","","","","","image-button-response","27","217493","0.0-10.0-1.0-2.0","B7BCC484B8354EA690EA40756B9A34C6","B7BCC484B8354EA690EA40756B9A34C6","46e1b6b7-0ec1-41a9-9fe0-44093e201cc9","ba640c14-69c5-453e-80b2-29051492c0e0","{""num_scrambled_semantic"":""8"",""num_scrambled_causal"":""4"",""num_scrambled_schematic"":""4"",""participantId"":""B7BCC484B8354EA690EA40756B9A34C6"",""assignmentId"":""46e1b6b7-0ec1-41a9-9fe0-44093e201cc9"",""projectId"":""ba640c14-69c5-453e-80b2-29051492c0e0""}","https://test12345.live/?num_scrambled_semantic=8&num_scrambled_causal=4&num_scrambled_schematic=4&participantId=B7BCC484B8354EA690EA40756B9A34C6&assignmentId=46e1b6b7-0ec1-41a9-9fe0-44093e201cc9&projectId=ba640c14-69c5-453e-80b2-29051492c0e0","B7BCC484B8354EA690EA40756B9A34C6-2025-05-14-20-53-36","","null","","[]","null","",""
"","","","","","image-button-response","28","222008","0.0-10.0-1.0-0.1","B7BCC484B8354EA690EA40756B9A34C6","B7BCC484B8354EA690EA40756B9A34C6","46e1b6b7-0ec1-41a9-9fe0-44093e201cc9","ba640c14-69c5-453e-80b2-29051492c0e0","{""num_scrambled_semantic"":""8"",""num_scrambled_causal"":""4"",""num_scrambled_schematic"":""4"",""participantId"":""B7BCC484B8354EA690EA40756B9A34C6"",""assignmentId"":""46e1b6b7-0ec1-41a9-9fe0-44093e201cc9"",""projectId"":""ba640c14-69c5-453e-80b2-29051492c0e0""}","https://test12345.live/?num_scrambled_semantic=8&num_scrambled_causal=4&num_scrambled_schematic=4&participantId=B7BCC484B8354EA690EA40756B9A34C6&assignmentId=46e1b6b7-0ec1-41a9-9fe0-44093e201cc9&projectId=ba640c14-69c5-453e-80b2-29051492c0e0","B7BCC484B8354EA690EA40756B9A34C6-2025-05-14-20-53-36","","null","","images/semantic_sequence/exploring_nature_semantic/exploring_nature_semantic_2.png","null","",""
"","","","","","image-button-response","29","222978","0.0-10.0-1.0-1.1","B7BCC484B8354EA690EA40756B9A34C6","B7BCC484B8354EA690EA40756B9A34C6","46e1b6b7-0ec1-41a9-9fe0-44093e201cc9","ba640c14-69c5-453e-80b2-29051492c0e0","{""num_scrambled_semantic"":""8"",""num_scrambled_causal"":""4"",""num_scrambled_schematic"":""4"",""participantId"":""B7BCC484B8354EA690EA40756B9A34C6"",""assignmentId"":""46e1b6b7-0ec1-41a9-9fe0-44093e201cc9"",""projectId"":""ba640c14-69c5-453e-80b2-29051492c0e0""}","https://test12345.live/?num_scrambled_semantic=8&num_scrambled_causal=4&num_scrambled_schematic=4&participantId=B7BCC484B8354EA690EA40756B9A34C6&assignmentId=46e1b6b7-0ec1-41a9-9fe0-44093e201cc9&projectId=ba640c14-69c5-453e-80b2-29051492c0e0","B7BCC484B8354EA690EA40756B9A34C6-2025-05-14-20-53-36","","970","","images/semantic_sequence/exploring_nature_semantic/exploring_nature_semantic_2.png","0","",""
"","","","","","image-button-response","30","224790","0.0-10.0-1.0-2.1","B7BCC484B8354EA690EA40756B9A34C6","B7BCC484B8354EA690EA40756B9A34C6","46e1b6b7-0ec1-41a9-9fe0-44093e201cc9","ba640c14-69c5-453e-80b2-29051492c0e0","{""num_scrambled_semantic"":""8"",""num_scrambled_causal"":""4"",""num_scrambled_schematic"":""4"",""participantId"":""B7BCC484B8354EA690EA40756B9A34C6"",""assignmentId"":""46e1b6b7-0ec1-41a9-9fe0-44093e201cc9"",""projectId"":""ba640c14-69c5-453e-80b2-29051492c0e0""}","https://test12345.live/?num_scrambled_semantic=8&num_scrambled_causal=4&num_scrambled_schematic=4&participantId=B7BCC484B8354EA690EA40756B9A34C6&assignmentId=46e1b6b7-0ec1-41a9-9fe0-44093e201cc9&projectId=ba640c14-69c5-453e-80b2-29051492c0e0","B7BCC484B8354EA690EA40756B9A34C6-2025-05-14-20-53-36","","null","","[]","null","",""
"","","","","","image-button-response","31","229293","0.0-10.0-1.0-0.2","B7BCC484B8354EA690EA40756B9A34C6","B7BCC484B8354EA690EA40756B9A34C6","46e1b6b7-0ec1-41a9-9fe0-44093e201cc9","ba640c14-69c5-453e-80b2-29051492c0e0","{""num_scrambled_semantic"":""8"",""num_scrambled_causal"":""4"",""num_scrambled_schematic"":""4"",""participantId"":""B7BCC484B8354EA690EA40756B9A34C6"",""assignmentId"":""46e1b6b7-0ec1-41a9-9fe0-44093e201cc9"",""projectId"":""ba640c14-69c5-453e-80b2-29051492c0e0""}","https://test12345.live/?num_scrambled_semantic=8&num_scrambled_causal=4&num_scrambled_schematic=4&participantId=B7BCC484B8354EA690EA40756B9A34C6&assignmentId=46e1b6b7-0ec1-41a9-9fe0-44093e201cc9&projectId=ba640c14-69c5-453e-80b2-29051492c0e0","B7BCC484B8354EA690EA40756B9A34C6-2025-05-14-20-53-36","","null","","images/semantic_sequence/exploring_nature_semantic/exploring_nature_semantic_3.png","null","",""
"","","","","","image-button-response","32","230255","0.0-10.0-1.0-1.2","B7BCC484B8354EA690EA40756B9A34C6","B7BCC484B8354EA690EA40756B9A34C6","46e1b6b7-0ec1-41a9-9fe0-44093e201cc9","ba640c14-69c5-453e-80b2-29051492c0e0","{""num_scrambled_semantic"":""8"",""num_scrambled_causal"":""4"",""num_scrambled_schematic"":""4"",""participantId"":""B7BCC484B8354EA690EA40756B9A34C6"",""assignmentId"":""46e1b6b7-0ec1-41a9-9fe0-44093e201cc9"",""projectId"":""ba640c14-69c5-453e-80b2-29051492c0e0""}","https://test12345.live/?num_scrambled_semantic=8&num_scrambled_causal=4&num_scrambled_schematic=4&participantId=B7BCC484B8354EA690EA40756B9A34C6&assignmentId=46e1b6b7-0ec1-41a9-9fe0-44093e201cc9&projectId=ba640c14-69c5-453e-80b2-29051492c0e0","B7BCC484B8354EA690EA40756B9A34C6-2025-05-14-20-53-36","","962","","images/semantic_sequence/exploring_nature_semantic/exploring_nature_semantic_3.png","0","",""
"","","","","","image-button-response","33","232064","0.0-10.0-1.0-2.2","B7BCC484B8354EA690EA40756B9A34C6","B7BCC484B8354EA690EA40756B9A34C6","46e1b6b7-0ec1-41a9-9fe0-44093e201cc9","ba640c14-69c5-453e-80b2-29051492c0e0","{""num_scrambled_semantic"":""8"",""num_scrambled_causal"":""4"",""num_scrambled_schematic"":""4"",""participantId"":""B7BCC484B8354EA690EA40756B9A34C6"",""assignmentId"":""46e1b6b7-0ec1-41a9-9fe0-44093e201cc9"",""projectId"":""ba640c14-69c5-453e-80b2-29051492c0e0""}","https://test12345.live/?num_scrambled_semantic=8&num_scrambled_causal=4&num_scrambled_schematic=4&participantId=B7BCC484B8354EA690EA40756B9A34C6&assignmentId=46e1b6b7-0ec1-41a9-9fe0-44093e201cc9&projectId=ba640c14-69c5-453e-80b2-29051492c0e0","B7BCC484B8354EA690EA40756B9A34C6-2025-05-14-20-53-36","","null","","[]","null","",""
"","","","","","image-button-response","34","236565","0.0-10.0-1.0-0.3","B7BCC484B8354EA690EA40756B9A34C6","B7BCC484B8354EA690EA40756B9A34C6","46e1b6b7-0ec1-41a9-9fe0-44093e201cc9","ba640c14-69c5-453e-80b2-29051492c0e0","{""num_scrambled_semantic"":""8"",""num_scrambled_causal"":""4"",""num_scrambled_schematic"":""4"",""participantId"":""B7BCC484B8354EA690EA40756B9A34C6"",""assignmentId"":""46e1b6b7-0ec1-41a9-9fe0-44093e201cc9"",""projectId"":""ba640c14-69c5-453e-80b2-29051492c0e0""}","https://test12345.live/?num_scrambled_semantic=8&num_scrambled_causal=4&num_scrambled_schematic=4&participantId=B7BCC484B8354EA690EA40756B9A34C6&assignmentId=46e1b6b7-0ec1-41a9-9fe0-44093e201cc9&projectId=ba640c14-69c5-453e-80b2-29051492c0e0","B7BCC484B8354EA690EA40756B9A34C6-2025-05-14-20-53-36","","null","","images/semantic_sequence/exploring_nature_semantic/exploring_nature_semantic_4.png","null","",""
"","","","","","image-button-response","35","240580","0.0-10.0-1.0-1.3","B7BCC484B8354EA690EA40756B9A34C6","B7BCC484B8354EA690EA40756B9A34C6","46e1b6b7-0ec1-41a9-9fe0-44093e201cc9","ba640c14-69c5-453e-80b2-29051492c0e0","{""num_scrambled_semantic"":""8"",""num_scrambled_causal"":""4"",""num_scrambled_schematic"":""4"",""participantId"":""B7BCC484B8354EA690EA40756B9A34C6"",""assignmentId"":""46e1b6b7-0ec1-41a9-9fe0-44093e201cc9"",""projectId"":""ba640c14-69c5-453e-80b2-29051492c0e0""}","https://test12345.live/?num_scrambled_semantic=8&num_scrambled_causal=4&num_scrambled_schematic=4&participantId=B7BCC484B8354EA690EA40756B9A34C6&assignmentId=46e1b6b7-0ec1-41a9-9fe0-44093e201cc9&projectId=ba640c14-69c5-453e-80b2-29051492c0e0","B7BCC484B8354EA690EA40756B9A34C6-2025-05-14-20-53-36","","null","","images/semantic_sequence/exploring_nature_semantic/exploring_nature_semantic_4.png","null","",""
"","","","","","image-button-response","36","242386","0.0-10.0-1.0-2.3","B7BCC484B8354EA690EA40756B9A34C6","B7BCC484B8354EA690EA40756B9A34C6","46e1b6b7-0ec1-41a9-9fe0-44093e201cc9","ba640c14-69c5-453e-80b2-29051492c0e0","{""num_scrambled_semantic"":""8"",""num_scrambled_causal"":""4"",""num_scrambled_schematic"":""4"",""participantId"":""B7BCC484B8354EA690EA40756B9A34C6"",""assignmentId"":""46e1b6b7-0ec1-41a9-9fe0-44093e201cc9"",""projectId"":""ba640c14-69c5-453e-80b2-29051492c0e0""}","https://test12345.live/?num_scrambled_semantic=8&num_scrambled_causal=4&num_scrambled_schematic=4&participantId=B7BCC484B8354EA690EA40756B9A34C6&assignmentId=46e1b6b7-0ec1-41a9-9fe0-44093e201cc9&projectId=ba640c14-69c5-453e-80b2-29051492c0e0","B7BCC484B8354EA690EA40756B9A34C6-2025-05-14-20-53-36","","null","","[]","null","",""
"","","","","","image-button-response","37","246888","0.0-10.0-1.0-0.4","B7BCC484B8354EA690EA40756B9A34C6","B7BCC484B8354EA690EA40756B9A34C6","46e1b6b7-0ec1-41a9-9fe0-44093e201cc9","ba640c14-69c5-453e-80b2-29051492c0e0","{""num_scrambled_semantic"":""8"",""num_scrambled_causal"":""4"",""num_scrambled_schematic"":""4"",""participantId"":""B7BCC484B8354EA690EA40756B9A34C6"",""assignmentId"":""46e1b6b7-0ec1-41a9-9fe0-44093e201cc9"",""projectId"":""ba640c14-69c5-453e-80b2-29051492c0e0""}","https://test12345.live/?num_scrambled_semantic=8&num_scrambled_causal=4&num_scrambled_schematic=4&participantId=B7BCC484B8354EA690EA40756B9A34C6&assignmentId=46e1b6b7-0ec1-41a9-9fe0-44093e201cc9&projectId=ba640c14-69c5-453e-80b2-29051492c0e0","B7BCC484B8354EA690EA40756B9A34C6-2025-05-14-20-53-36","","null","","images/semantic_sequence/exploring_nature_semantic/exploring_nature_semantic_5.png","null","",""
"","","","","","image-button-response","38","248107","0.0-10.0-1.0-1.4","B7BCC484B8354EA690EA40756B9A34C6","B7BCC484B8354EA690EA40756B9A34C6","46e1b6b7-0ec1-41a9-9fe0-44093e201cc9","ba640c14-69c5-453e-80b2-29051492c0e0","{""num_scrambled_semantic"":""8"",""num_scrambled_causal"":""4"",""num_scrambled_schematic"":""4"",""participantId"":""B7BCC484B8354EA690EA40756B9A34C6"",""assignmentId"":""46e1b6b7-0ec1-41a9-9fe0-44093e201cc9"",""projectId"":""ba640c14-69c5-453e-80b2-29051492c0e0""}","https://test12345.live/?num_scrambled_semantic=8&num_scrambled_causal=4&num_scrambled_schematic=4&participantId=B7BCC484B8354EA690EA40756B9A34C6&assignmentId=46e1b6b7-0ec1-41a9-9fe0-44093e201cc9&projectId=ba640c14-69c5-453e-80b2-29051492c0e0","B7BCC484B8354EA690EA40756B9A34C6-2025-05-14-20-53-36","","1218","","images/semantic_sequence/exploring_nature_semantic/exploring_nature_semantic_5.png","0","",""
"","","","","","image-button-response","39","249914","0.0-10.0-1.0-2.4","B7BCC484B8354EA690EA40756B9A34C6","B7BCC484B8354EA690EA40756B9A34C6","46e1b6b7-0ec1-41a9-9fe0-44093e201cc9","ba640c14-69c5-453e-80b2-29051492c0e0","{""num_scrambled_semantic"":""8"",""num_scrambled_causal"":""4"",""num_scrambled_schematic"":""4"",""participantId"":""B7BCC484B8354EA690EA40756B9A34C6"",""assignmentId"":""46e1b6b7-0ec1-41a9-9fe0-44093e201cc9"",""projectId"":""ba640c14-69c5-453e-80b2-29051492c0e0""}","https://test12345.live/?num_scrambled_semantic=8&num_scrambled_causal=4&num_scrambled_schematic=4&participantId=B7BCC484B8354EA690EA40756B9A34C6&assignmentId=46e1b6b7-0ec1-41a9-9fe0-44093e201cc9&projectId=ba640c14-69c5-453e-80b2-29051492c0e0","B7BCC484B8354EA690EA40756B9A34C6-2025-05-14-20-53-36","","null","","[]","null","",""
"","","","","","image-button-response","40","254425","0.0-10.0-1.0-0.5","B7BCC484B8354EA690EA40756B9A34C6","B7BCC484B8354EA690EA40756B9A34C6","46e1b6b7-0ec1-41a9-9fe0-44093e201cc9","ba640c14-69c5-453e-80b2-29051492c0e0","{""num_scrambled_semantic"":""8"",""num_scrambled_causal"":""4"",""num_scrambled_schematic"":""4"",""participantId"":""B7BCC484B8354EA690EA40756B9A34C6"",""assignmentId"":""46e1b6b7-0ec1-41a9-9fe0-44093e201cc9"",""projectId"":""ba640c14-69c5-453e-80b2-29051492c0e0""}","https://test12345.live/?num_scrambled_semantic=8&num_scrambled_causal=4&num_scrambled_schematic=4&participantId=B7BCC484B8354EA690EA40756B9A34C6&assignmentId=46e1b6b7-0ec1-41a9-9fe0-44093e201cc9&projectId=ba640c14-69c5-453e-80b2-29051492c0e0","B7BCC484B8354EA690EA40756B9A34C6-2025-05-14-20-53-36","","null","","images/semantic_sequence/exploring_nature_semantic/exploring_nature_semantic_6.png","null","",""
"","","","","","image-button-response","41","255973","0.0-10.0-1.0-1.5","B7BCC484B8354EA690EA40756B9A34C6","B7BCC484B8354EA690EA40756B9A34C6","46e1b6b7-0ec1-41a9-9fe0-44093e201cc9","ba640c14-69c5-453e-80b2-29051492c0e0","{""num_scrambled_semantic"":""8"",""num_scrambled_causal"":""4"",""num_scrambled_schematic"":""4"",""participantId"":""B7BCC484B8354EA690EA40756B9A34C6"",""assignmentId"":""46e1b6b7-0ec1-41a9-9fe0-44093e201cc9"",""projectId"":""ba640c14-69c5-453e-80b2-29051492c0e0""}","https://test12345.live/?num_scrambled_semantic=8&num_scrambled_causal=4&num_scrambled_schematic=4&participantId=B7BCC484B8354EA690EA40756B9A34C6&assignmentId=46e1b6b7-0ec1-41a9-9fe0-44093e201cc9&projectId=ba640c14-69c5-453e-80b2-29051492c0e0","B7BCC484B8354EA690EA40756B9A34C6-2025-05-14-20-53-36","","1548","","images/semantic_sequence/exploring_nature_semantic/exploring_nature_semantic_6.png","0","",""
"","","","","","image-button-response","42","257787","0.0-10.0-1.0-2.5","B7BCC484B8354EA690EA40756B9A34C6","B7BCC484B8354EA690EA40756B9A34C6","46e1b6b7-0ec1-41a9-9fe0-44093e201cc9","ba640c14-69c5-453e-80b2-29051492c0e0","{""num_scrambled_semantic"":""8"",""num_scrambled_causal"":""4"",""num_scrambled_schematic"":""4"",""participantId"":""B7BCC484B8354EA690EA40756B9A34C6"",""assignmentId"":""46e1b6b7-0ec1-41a9-9fe0-44093e201cc9"",""projectId"":""ba640c14-69c5-453e-80b2-29051492c0e0""}","https://test12345.live/?num_scrambled_semantic=8&num_scrambled_causal=4&num_scrambled_schematic=4&participantId=B7BCC484B8354EA690EA40756B9A34C6&assignmentId=46e1b6b7-0ec1-41a9-9fe0-44093e201cc9&projectId=ba640c14-69c5-453e-80b2-29051492c0e0","B7BCC484B8354EA690EA40756B9A34C6-2025-05-14-20-53-36","","null","","[]","null","",""
"","","","","","image-button-response","43","262295","0.0-10.0-1.0-0.6","B7BCC484B8354EA690EA40756B9A34C6","B7BCC484B8354EA690EA40756B9A34C6","46e1b6b7-0ec1-41a9-9fe0-44093e201cc9","ba640c14-69c5-453e-80b2-29051492c0e0","{""num_scrambled_semantic"":""8"",""num_scrambled_causal"":""4"",""num_scrambled_schematic"":""4"",""participantId"":""B7BCC484B8354EA690EA40756B9A34C6"",""assignmentId"":""46e1b6b7-0ec1-41a9-9fe0-44093e201cc9"",""projectId"":""ba640c14-69c5-453e-80b2-29051492c0e0""}","https://test12345.live/?num_scrambled_semantic=8&num_scrambled_causal=4&num_scrambled_schematic=4&participantId=B7BCC484B8354EA690EA40756B9A34C6&assignmentId=46e1b6b7-0ec1-41a9-9fe0-44093e201cc9&projectId=ba640c14-69c5-453e-80b2-29051492c0e0","B7BCC484B8354EA690EA40756B9A34C6-2025-05-14-20-53-36","","null","","images/semantic_sequence/exploring_nature_semantic/exploring_nature_semantic_7.png","null","",""
"","","","","","image-button-response","44","263209","0.0-10.0-1.0-1.6","B7BCC484B8354EA690EA40756B9A34C6","B7BCC484B8354EA690EA40756B9A34C6","46e1b6b7-0ec1-41a9-9fe0-44093e201cc9","ba640c14-69c5-453e-80b2-29051492c0e0","{""num_scrambled_semantic"":""8"",""num_scrambled_causal"":""4"",""num_scrambled_schematic"":""4"",""participantId"":""B7BCC484B8354EA690EA40756B9A34C6"",""assignmentId"":""46e1b6b7-0ec1-41a9-9fe0-44093e201cc9"",""projectId"":""ba640c14-69c5-453e-80b2-29051492c0e0""}","https://test12345.live/?num_scrambled_semantic=8&num_scrambled_causal=4&num_scrambled_schematic=4&participantId=B7BCC484B8354EA690EA40756B9A34C6&assignmentId=46e1b6b7-0ec1-41a9-9fe0-44093e201cc9&projectId=ba640c14-69c5-453e-80b2-29051492c0e0","B7BCC484B8354EA690EA40756B9A34C6-2025-05-14-20-53-36","","913","","images/semantic_sequence/exploring_nature_semantic/exploring_nature_semantic_7.png","0","",""
"","","","","","image-button-response","45","265019","0.0-10.0-1.0-2.6","B7BCC484B8354EA690EA40756B9A34C6","B7BCC484B8354EA690EA40756B9A34C6","46e1b6b7-0ec1-41a9-9fe0-44093e201cc9","ba640c14-69c5-453e-80b2-29051492c0e0","{""num_scrambled_semantic"":""8"",""num_scrambled_causal"":""4"",""num_scrambled_schematic"":""4"",""participantId"":""B7BCC484B8354EA690EA40756B9A34C6"",""assignmentId"":""46e1b6b7-0ec1-41a9-9fe0-44093e201cc9"",""projectId"":""ba640c14-69c5-453e-80b2-29051492c0e0""}","https://test12345.live/?num_scrambled_semantic=8&num_scrambled_causal=4&num_scrambled_schematic=4&participantId=B7BCC484B8354EA690EA40756B9A34C6&assignmentId=46e1b6b7-0ec1-41a9-9fe0-44093e201cc9&projectId=ba640c14-69c5-453e-80b2-29051492c0e0","B7BCC484B8354EA690EA40756B9A34C6-2025-05-14-20-53-36","","null","","[]","null","",""
"","","","","","image-button-response","46","269524","0.0-10.0-1.0-0.7","B7BCC484B8354EA690EA40756B9A34C6","B7BCC484B8354EA690EA40756B9A34C6","46e1b6b7-0ec1-41a9-9fe0-44093e201cc9","ba640c14-69c5-453e-80b2-29051492c0e0","{""num_scrambled_semantic"":""8"",""num_scrambled_causal"":""4"",""num_scrambled_schematic"":""4"",""participantId"":""B7BCC484B8354EA690EA40756B9A34C6"",""assignmentId"":""46e1b6b7-0ec1-41a9-9fe0-44093e201cc9"",""projectId"":""ba640c14-69c5-453e-80b2-29051492c0e0""}","https://test12345.live/?num_scrambled_semantic=8&num_scrambled_causal=4&num_scrambled_schematic=4&participantId=B7BCC484B8354EA690EA40756B9A34C6&assignmentId=46e1b6b7-0ec1-41a9-9fe0-44093e201cc9&projectId=ba640c14-69c5-453e-80b2-29051492c0e0","B7BCC484B8354EA690EA40756B9A34C6-2025-05-14-20-53-36","","null","","images/semantic_sequence/exploring_nature_semantic/exploring_nature_semantic_8.png","null","",""
"","","","","","image-button-response","47","270295","0.0-10.0-1.0-1.7","B7BCC484B8354EA690EA40756B9A34C6","B7BCC484B8354EA690EA40756B9A34C6","46e1b6b7-0ec1-41a9-9fe0-44093e201cc9","ba640c14-69c5-453e-80b2-29051492c0e0","{""num_scrambled_semantic"":""8"",""num_scrambled_causal"":""4"",""num_scrambled_schematic"":""4"",""participantId"":""B7BCC484B8354EA690EA40756B9A34C6"",""assignmentId"":""46e1b6b7-0ec1-41a9-9fe0-44093e201cc9"",""projectId"":""ba640c14-69c5-453e-80b2-29051492c0e0""}","https://test12345.live/?num_scrambled_semantic=8&num_scrambled_causal=4&num_scrambled_schematic=4&participantId=B7BCC484B8354EA690EA40756B9A34C6&assignmentId=46e1b6b7-0ec1-41a9-9fe0-44093e201cc9&projectId=ba640c14-69c5-453e-80b2-29051492c0e0","B7BCC484B8354EA690EA40756B9A34C6-2025-05-14-20-53-36","","771","","images/semantic_sequence/exploring_nature_semantic/exploring_nature_semantic_8.png","0","",""
"","","","","","image-button-response","48","272106","0.0-10.0-1.0-2.7","B7BCC484B8354EA690EA40756B9A34C6","B7BCC484B8354EA690EA40756B9A34C6","46e1b6b7-0ec1-41a9-9fe0-44093e201cc9","ba640c14-69c5-453e-80b2-29051492c0e0","{""num_scrambled_semantic"":""8"",""num_scrambled_causal"":""4"",""num_scrambled_schematic"":""4"",""participantId"":""B7BCC484B8354EA690EA40756B9A34C6"",""assignmentId"":""46e1b6b7-0ec1-41a9-9fe0-44093e201cc9"",""projectId"":""ba640c14-69c5-453e-80b2-29051492c0e0""}","https://test12345.live/?num_scrambled_semantic=8&num_scrambled_causal=4&num_scrambled_schematic=4&participantId=B7BCC484B8354EA690EA40756B9A34C6&assignmentId=46e1b6b7-0ec1-41a9-9fe0-44093e201cc9&projectId=ba640c14-69c5-453e-80b2-29051492c0e0","B7BCC484B8354EA690EA40756B9A34C6-2025-05-14-20-53-36","","null","","[]","null","",""
"","","","","","image-button-response","49","276618","0.0-10.0-1.0-0.8","B7BCC484B8354EA690EA40756B9A34C6","B7BCC484B8354EA690EA40756B9A34C6","46e1b6b7-0ec1-41a9-9fe0-44093e201cc9","ba640c14-69c5-453e-80b2-29051492c0e0","{""num_scrambled_semantic"":""8"",""num_scrambled_causal"":""4"",""num_scrambled_schematic"":""4"",""participantId"":""B7BCC484B8354EA690EA40756B9A34C6"",""assignmentId"":""46e1b6b7-0ec1-41a9-9fe0-44093e201cc9"",""projectId"":""ba640c14-69c5-453e-80b2-29051492c0e0""}","https://test12345.live/?num_scrambled_semantic=8&num_scrambled_causal=4&num_scrambled_schematic=4&participantId=B7BCC484B8354EA690EA40756B9A34C6&assignmentId=46e1b6b7-0ec1-41a9-9fe0-44093e201cc9&projectId=ba640c14-69c5-453e-80b2-29051492c0e0","B7BCC484B8354EA690EA40756B9A34C6-2025-05-14-20-53-36","","null","","images/semantic_sequence/exploring_nature_semantic/exploring_nature_semantic_9.png","null","",""
"","","","","","image-button-response","50","277300","0.0-10.0-1.0-1.8","B7BCC484B8354EA690EA40756B9A34C6","B7BCC484B8354EA690EA40756B9A34C6","46e1b6b7-0ec1-41a9-9fe0-44093e201cc9","ba640c14-69c5-453e-80b2-29051492c0e0","{""num_scrambled_semantic"":""8"",""num_scrambled_causal"":""4"",""num_scrambled_schematic"":""4"",""participantId"":""B7BCC484B8354EA690EA40756B9A34C6"",""assignmentId"":""46e1b6b7-0ec1-41a9-9fe0-44093e201cc9"",""projectId"":""ba640c14-69c5-453e-80b2-29051492c0e0""}","https://test12345.live/?num_scrambled_semantic=8&num_scrambled_causal=4&num_scrambled_schematic=4&participantId=B7BCC484B8354EA690EA40756B9A34C6&assignmentId=46e1b6b7-0ec1-41a9-9fe0-44093e201cc9&projectId=ba640c14-69c5-453e-80b2-29051492c0e0","B7BCC484B8354EA690EA40756B9A34C6-2025-05-14-20-53-36","","682","","images/semantic_sequence/exploring_nature_semantic/exploring_nature_semantic_9.png","0","",""
"","","","","","image-button-response","51","279105","0.0-10.0-1.0-2.8","B7BCC484B8354EA690EA40756B9A34C6","B7BCC484B8354EA690EA40756B9A34C6","46e1b6b7-0ec1-41a9-9fe0-44093e201cc9","ba640c14-69c5-453e-80b2-29051492c0e0","{""num_scrambled_semantic"":""8"",""num_scrambled_causal"":""4"",""num_scrambled_schematic"":""4"",""participantId"":""B7BCC484B8354EA690EA40756B9A34C6"",""assignmentId"":""46e1b6b7-0ec1-41a9-9fe0-44093e201cc9"",""projectId"":""ba640c14-69c5-453e-80b2-29051492c0e0""}","https://test12345.live/?num_scrambled_semantic=8&num_scrambled_causal=4&num_scrambled_schematic=4&participantId=B7BCC484B8354EA690EA40756B9A34C6&assignmentId=46e1b6b7-0ec1-41a9-9fe0-44093e201cc9&projectId=ba640c14-69c5-453e-80b2-29051492c0e0","B7BCC484B8354EA690EA40756B9A34C6-2025-05-14-20-53-36","","null","","[]","null","",""
"","","","","","image-button-response","52","283611","0.0-10.0-1.0-0.9","B7BCC484B8354EA690EA40756B9A34C6","B7BCC484B8354EA690EA40756B9A34C6","46e1b6b7-0ec1-41a9-9fe0-44093e201cc9","ba640c14-69c5-453e-80b2-29051492c0e0","{""num_scrambled_semantic"":""8"",""num_scrambled_causal"":""4"",""num_scrambled_schematic"":""4"",""participantId"":""B7BCC484B8354EA690EA40756B9A34C6"",""assignmentId"":""46e1b6b7-0ec1-41a9-9fe0-44093e201cc9"",""projectId"":""ba640c14-69c5-453e-80b2-29051492c0e0""}","https://test12345.live/?num_scrambled_semantic=8&num_scrambled_causal=4&num_scrambled_schematic=4&participantId=B7BCC484B8354EA690EA40756B9A34C6&assignmentId=46e1b6b7-0ec1-41a9-9fe0-44093e201cc9&projectId=ba640c14-69c5-453e-80b2-29051492c0e0","B7BCC484B8354EA690EA40756B9A34C6-2025-05-14-20-53-36","","null","","images/semantic_sequence/exploring_nature_semantic/exploring_nature_semantic_ten.png","null","",""
"","","","","","image-button-response","53","284125","0.0-10.0-1.0-1.9","B7BCC484B8354EA690EA40756B9A34C6","B7BCC484B8354EA690EA40756B9A34C6","46e1b6b7-0ec1-41a9-9fe0-44093e201cc9","ba640c14-69c5-453e-80b2-29051492c0e0","{""num_scrambled_semantic"":""8"",""num_scrambled_causal"":""4"",""num_scrambled_schematic"":""4"",""participantId"":""B7BCC484B8354EA690EA40756B9A34C6"",""assignmentId"":""46e1b6b7-0ec1-41a9-9fe0-44093e201cc9"",""projectId"":""ba640c14-69c5-453e-80b2-29051492c0e0""}","https://test12345.live/?num_scrambled_semantic=8&num_scrambled_causal=4&num_scrambled_schematic=4&participantId=B7BCC484B8354EA690EA40756B9A34C6&assignmentId=46e1b6b7-0ec1-41a9-9fe0-44093e201cc9&projectId=ba640c14-69c5-453e-80b2-29051492c0e0","B7BCC484B8354EA690EA40756B9A34C6-2025-05-14-20-53-36","","513","","images/semantic_sequence/exploring_nature_semantic/exploring_nature_semantic_ten.png","0","",""
"","","","","","image-button-response","54","285936","0.0-10.0-1.0-2.9","B7BCC484B8354EA690EA40756B9A34C6","B7BCC484B8354EA690EA40756B9A34C6","46e1b6b7-0ec1-41a9-9fe0-44093e201cc9","ba640c14-69c5-453e-80b2-29051492c0e0","{""num_scrambled_semantic"":""8"",""num_scrambled_causal"":""4"",""num_scrambled_schematic"":""4"",""participantId"":""B7BCC484B8354EA690EA40756B9A34C6"",""assignmentId"":""46e1b6b7-0ec1-41a9-9fe0-44093e201cc9"",""projectId"":""ba640c14-69c5-453e-80b2-29051492c0e0""}","https://test12345.live/?num_scrambled_semantic=8&num_scrambled_causal=4&num_scrambled_schematic=4&participantId=B7BCC484B8354EA690EA40756B9A34C6&assignmentId=46e1b6b7-0ec1-41a9-9fe0-44093e201cc9&projectId=ba640c14-69c5-453e-80b2-29051492c0e0","B7BCC484B8354EA690EA40756B9A34C6-2025-05-14-20-53-36","","null","","[]","null","",""
"","","","","","html-audio-response","55","342947","0.0-11.0","B7BCC484B8354EA690EA40756B9A34C6","B7BCC484B8354EA690EA40756B9A34C6","46e1b6b7-0ec1-41a9-9fe0-44093e201cc9","ba640c14-69c5-453e-80b2-29051492c0e0","{""num_scrambled_semantic"":""8"",""num_scrambled_causal"":""4"",""num_scrambled_schematic"":""4"",""participantId"":""B7BCC484B8354EA690EA40756B9A34C6"",""assignmentId"":""46e1b6b7-0ec1-41a9-9fe0-44093e201cc9"",""projectId"":""ba640c14-69c5-453e-80b2-29051492c0e0""}","https://test12345.live/?num_scrambled_semantic=8&num_scrambled_causal=4&num_scrambled_schematic=4&participantId=B7BCC484B8354EA690EA40756B9A34C6&assignmentId=46e1b6b7-0ec1-41a9-9fe0-44093e201cc9&projectId=ba640c14-69c5-453e-80b2-29051492c0e0","B7BCC484B8354EA690EA40756B9A34C6-2025-05-14-20-53-36","","null","","[""<span style=\""color: red; font-size: 24px\""> NOW RECORDING</span><p>Please say out loud all the images you saw, as many as you can remember. The images can be said in any order.</p>""]","","1","exploring_nature_semantic"
"","","","","","image-button-response","56","348951","0.0-12.0-0.0","B7BCC484B8354EA690EA40756B9A34C6","B7BCC484B8354EA690EA40756B9A34C6","46e1b6b7-0ec1-41a9-9fe0-44093e201cc9","ba640c14-69c5-453e-80b2-29051492c0e0","{""num_scrambled_semantic"":""8"",""num_scrambled_causal"":""4"",""num_scrambled_schematic"":""4"",""participantId"":""B7BCC484B8354EA690EA40756B9A34C6"",""assignmentId"":""46e1b6b7-0ec1-41a9-9fe0-44093e201cc9"",""projectId"":""ba640c14-69c5-453e-80b2-29051492c0e0""}","https://test12345.live/?num_scrambled_semantic=8&num_scrambled_causal=4&num_scrambled_schematic=4&participantId=B7BCC484B8354EA690EA40756B9A34C6&assignmentId=46e1b6b7-0ec1-41a9-9fe0-44093e201cc9&projectId=ba640c14-69c5-453e-80b2-29051492c0e0","B7BCC484B8354EA690EA40756B9A34C6-2025-05-14-20-53-36","","null","","images/semantic_sequence/creative_activities_semantic/creative_activities_semantic_0.png","null","",""
"","","","","","image-button-response","57","353463","0.0-12.0-1.0-0.0","B7BCC484B8354EA690EA40756B9A34C6","B7BCC484B8354EA690EA40756B9A34C6","46e1b6b7-0ec1-41a9-9fe0-44093e201cc9","ba640c14-69c5-453e-80b2-29051492c0e0","{""num_scrambled_semantic"":""8"",""num_scrambled_causal"":""4"",""num_scrambled_schematic"":""4"",""participantId"":""B7BCC484B8354EA690EA40756B9A34C6"",""assignmentId"":""46e1b6b7-0ec1-41a9-9fe0-44093e201cc9"",""projectId"":""ba640c14-69c5-453e-80b2-29051492c0e0""}","https://test12345.live/?num_scrambled_semantic=8&num_scrambled_causal=4&num_scrambled_schematic=4&participantId=B7BCC484B8354EA690EA40756B9A34C6&assignmentId=46e1b6b7-0ec1-41a9-9fe0-44093e201cc9&projectId=ba640c14-69c5-453e-80b2-29051492c0e0","B7BCC484B8354EA690EA40756B9A34C6-2025-05-14-20-53-36","","null","","images/semantic_sequence/creative_activities_semantic/creative_activities_semantic_5.png","null","",""
"","","","","","image-button-response","58","354208","0.0-12.0-1.0-1.0","B7BCC484B8354EA690EA40756B9A34C6","B7BCC484B8354EA690EA40756B9A34C6","46e1b6b7-0ec1-41a9-9fe0-44093e201cc9","ba640c14-69c5-453e-80b2-29051492c0e0","{""num_scrambled_semantic"":""8"",""num_scrambled_causal"":""4"",""num_scrambled_schematic"":""4"",""participantId"":""B7BCC484B8354EA690EA40756B9A34C6"",""assignmentId"":""46e1b6b7-0ec1-41a9-9fe0-44093e201cc9"",""projectId"":""ba640c14-69c5-453e-80b2-29051492c0e0""}","https://test12345.live/?num_scrambled_semantic=8&num_scrambled_causal=4&num_scrambled_schematic=4&participantId=B7BCC484B8354EA690EA40756B9A34C6&assignmentId=46e1b6b7-0ec1-41a9-9fe0-44093e201cc9&projectId=ba640c14-69c5-453e-80b2-29051492c0e0","B7BCC484B8354EA690EA40756B9A34C6-2025-05-14-20-53-36","","744","","images/semantic_sequence/creative_activities_semantic/creative_activities_semantic_5.png","0","",""
"","","","","","image-button-response","59","356009","0.0-12.0-1.0-2.0","B7BCC484B8354EA690EA40756B9A34C6","B7BCC484B8354EA690EA40756B9A34C6","46e1b6b7-0ec1-41a9-9fe0-44093e201cc9","ba640c14-69c5-453e-80b2-29051492c0e0","{""num_scrambled_semantic"":""8"",""num_scrambled_causal"":""4"",""num_scrambled_schematic"":""4"",""participantId"":""B7BCC484B8354EA690EA40756B9A34C6"",""assignmentId"":""46e1b6b7-0ec1-41a9-9fe0-44093e201cc9"",""projectId"":""ba640c14-69c5-453e-80b2-29051492c0e0""}","https://test12345.live/?num_scrambled_semantic=8&num_scrambled_causal=4&num_scrambled_schematic=4&participantId=B7BCC484B8354EA690EA40756B9A34C6&assignmentId=46e1b6b7-0ec1-41a9-9fe0-44093e201cc9&projectId=ba640c14-69c5-453e-80b2-29051492c0e0","B7BCC484B8354EA690EA40756B9A34C6-2025-05-14-20-53-36","","null","","[]","null","",""
"","","","","","image-button-response","60","360511","0.0-12.0-1.0-0.1","B7BCC484B8354EA690EA40756B9A34C6","B7BCC484B8354EA690EA40756B9A34C6","46e1b6b7-0ec1-41a9-9fe0-44093e201cc9","ba640c14-69c5-453e-80b2-29051492c0e0","{""num_scrambled_semantic"":""8"",""num_scrambled_causal"":""4"",""num_scrambled_schematic"":""4"",""participantId"":""B7BCC484B8354EA690EA40756B9A34C6"",""assignmentId"":""46e1b6b7-0ec1-41a9-9fe0-44093e201cc9"",""projectId"":""ba640c14-69c5-453e-80b2-29051492c0e0""}","https://test12345.live/?num_scrambled_semantic=8&num_scrambled_causal=4&num_scrambled_schematic=4&participantId=B7BCC484B8354EA690EA40756B9A34C6&assignmentId=46e1b6b7-0ec1-41a9-9fe0-44093e201cc9&projectId=ba640c14-69c5-453e-80b2-29051492c0e0","B7BCC484B8354EA690EA40756B9A34C6-2025-05-14-20-53-36","","null","","images/semantic_sequence/creative_activities_semantic/creative_activities_semantic_9.png","null","",""
"","","","","","image-button-response","61","361479","0.0-12.0-1.0-1.1","B7BCC484B8354EA690EA40756B9A34C6","B7BCC484B8354EA690EA40756B9A34C6","46e1b6b7-0ec1-41a9-9fe0-44093e201cc9","ba640c14-69c5-453e-80b2-29051492c0e0","{""num_scrambled_semantic"":""8"",""num_scrambled_causal"":""4"",""num_scrambled_schematic"":""4"",""participantId"":""B7BCC484B8354EA690EA40756B9A34C6"",""assignmentId"":""46e1b6b7-0ec1-41a9-9fe0-44093e201cc9"",""projectId"":""ba640c14-69c5-453e-80b2-29051492c0e0""}","https://test12345.live/?num_scrambled_semantic=8&num_scrambled_causal=4&num_scrambled_schematic=4&participantId=B7BCC484B8354EA690EA40756B9A34C6&assignmentId=46e1b6b7-0ec1-41a9-9fe0-44093e201cc9&projectId=ba640c14-69c5-453e-80b2-29051492c0e0","B7BCC484B8354EA690EA40756B9A34C6-2025-05-14-20-53-36","","968","","images/semantic_sequence/creative_activities_semantic/creative_activities_semantic_9.png","0","",""
"","","","","","image-button-response","62","363285","0.0-12.0-1.0-2.1","B7BCC484B8354EA690EA40756B9A34C6","B7BCC484B8354EA690EA40756B9A34C6","46e1b6b7-0ec1-41a9-9fe0-44093e201cc9","ba640c14-69c5-453e-80b2-29051492c0e0","{""num_scrambled_semantic"":""8"",""num_scrambled_causal"":""4"",""num_scrambled_schematic"":""4"",""participantId"":""B7BCC484B8354EA690EA40756B9A34C6"",""assignmentId"":""46e1b6b7-0ec1-41a9-9fe0-44093e201cc9"",""projectId"":""ba640c14-69c5-453e-80b2-29051492c0e0""}","https://test12345.live/?num_scrambled_semantic=8&num_scrambled_causal=4&num_scrambled_schematic=4&participantId=B7BCC484B8354EA690EA40756B9A34C6&assignmentId=46e1b6b7-0ec1-41a9-9fe0-44093e201cc9&projectId=ba640c14-69c5-453e-80b2-29051492c0e0","B7BCC484B8354EA690EA40756B9A34C6-2025-05-14-20-53-36","","null","","[]","null","",""
"","","","","","image-button-response","63","367790","0.0-12.0-1.0-0.2","B7BCC484B8354EA690EA40756B9A34C6","B7BCC484B8354EA690EA40756B9A34C6","46e1b6b7-0ec1-41a9-9fe0-44093e201cc9","ba640c14-69c5-453e-80b2-29051492c0e0","{""num_scrambled_semantic"":""8"",""num_scrambled_causal"":""4"",""num_scrambled_schematic"":""4"",""participantId"":""B7BCC484B8354EA690EA40756B9A34C6"",""assignmentId"":""46e1b6b7-0ec1-41a9-9fe0-44093e201cc9"",""projectId"":""ba640c14-69c5-453e-80b2-29051492c0e0""}","https://test12345.live/?num_scrambled_semantic=8&num_scrambled_causal=4&num_scrambled_schematic=4&participantId=B7BCC484B8354EA690EA40756B9A34C6&assignmentId=46e1b6b7-0ec1-41a9-9fe0-44093e201cc9&projectId=ba640c14-69c5-453e-80b2-29051492c0e0","B7BCC484B8354EA690EA40756B9A34C6-2025-05-14-20-53-36","","null","","images/semantic_sequence/creative_activities_semantic/creative_activities_semantic_3.png","null","",""
"","","","","","image-button-response","64","369646","0.0-12.0-1.0-1.2","B7BCC484B8354EA690EA40756B9A34C6","B7BCC484B8354EA690EA40756B9A34C6","46e1b6b7-0ec1-41a9-9fe0-44093e201cc9","ba640c14-69c5-453e-80b2-29051492c0e0","{""num_scrambled_semantic"":""8"",""num_scrambled_causal"":""4"",""num_scrambled_schematic"":""4"",""participantId"":""B7BCC484B8354EA690EA40756B9A34C6"",""assignmentId"":""46e1b6b7-0ec1-41a9-9fe0-44093e201cc9"",""projectId"":""ba640c14-69c5-453e-80b2-29051492c0e0""}","https://test12345.live/?num_scrambled_semantic=8&num_scrambled_causal=4&num_scrambled_schematic=4&participantId=B7BCC484B8354EA690EA40756B9A34C6&assignmentId=46e1b6b7-0ec1-41a9-9fe0-44093e201cc9&projectId=ba640c14-69c5-453e-80b2-29051492c0e0","B7BCC484B8354EA690EA40756B9A34C6-2025-05-14-20-53-36","","1855","","images/semantic_sequence/creative_activities_semantic/creative_activities_semantic_3.png","0","",""
"","","","","","image-button-response","65","371451","0.0-12.0-1.0-2.2","B7BCC484B8354EA690EA40756B9A34C6","B7BCC484B8354EA690EA40756B9A34C6","46e1b6b7-0ec1-41a9-9fe0-44093e201cc9","ba640c14-69c5-453e-80b2-29051492c0e0","{""num_scrambled_semantic"":""8"",""num_scrambled_causal"":""4"",""num_scrambled_schematic"":""4"",""participantId"":""B7BCC484B8354EA690EA40756B9A34C6"",""assignmentId"":""46e1b6b7-0ec1-41a9-9fe0-44093e201cc9"",""projectId"":""ba640c14-69c5-453e-80b2-29051492c0e0""}","https://test12345.live/?num_scrambled_semantic=8&num_scrambled_causal=4&num_scrambled_schematic=4&participantId=B7BCC484B8354EA690EA40756B9A34C6&assignmentId=46e1b6b7-0ec1-41a9-9fe0-44093e201cc9&projectId=ba640c14-69c5-453e-80b2-29051492c0e0","B7BCC484B8354EA690EA40756B9A34C6-2025-05-14-20-53-36","","null","","[]","null","",""
"","","","","","image-button-response","66","375955","0.0-12.0-1.0-0.3","B7BCC484B8354EA690EA40756B9A34C6","B7BCC484B8354EA690EA40756B9A34C6","46e1b6b7-0ec1-41a9-9fe0-44093e201cc9","ba640c14-69c5-453e-80b2-29051492c0e0","{""num_scrambled_semantic"":""8"",""num_scrambled_causal"":""4"",""num_scrambled_schematic"":""4"",""participantId"":""B7BCC484B8354EA690EA40756B9A34C6"",""assignmentId"":""46e1b6b7-0ec1-41a9-9fe0-44093e201cc9"",""projectId"":""ba640c14-69c5-453e-80b2-29051492c0e0""}","https://test12345.live/?num_scrambled_semantic=8&num_scrambled_causal=4&num_scrambled_schematic=4&participantId=B7BCC484B8354EA690EA40756B9A34C6&assignmentId=46e1b6b7-0ec1-41a9-9fe0-44093e201cc9&projectId=ba640c14-69c5-453e-80b2-29051492c0e0","B7BCC484B8354EA690EA40756B9A34C6-2025-05-14-20-53-36","","null","","images/semantic_sequence/creative_activities_semantic/creative_activities_semantic_8.png","null","",""
"","","","","","image-button-response","67","376862","0.0-12.0-1.0-1.3","B7BCC484B8354EA690EA40756B9A34C6","B7BCC484B8354EA690EA40756B9A34C6","46e1b6b7-0ec1-41a9-9fe0-44093e201cc9","ba640c14-69c5-453e-80b2-29051492c0e0","{""num_scrambled_semantic"":""8"",""num_scrambled_causal"":""4"",""num_scrambled_schematic"":""4"",""participantId"":""B7BCC484B8354EA690EA40756B9A34C6"",""assignmentId"":""46e1b6b7-0ec1-41a9-9fe0-44093e201cc9"",""projectId"":""ba640c14-69c5-453e-80b2-29051492c0e0""}","https://test12345.live/?num_scrambled_semantic=8&num_scrambled_causal=4&num_scrambled_schematic=4&participantId=B7BCC484B8354EA690EA40756B9A34C6&assignmentId=46e1b6b7-0ec1-41a9-9fe0-44093e201cc9&projectId=ba640c14-69c5-453e-80b2-29051492c0e0","B7BCC484B8354EA690EA40756B9A34C6-2025-05-14-20-53-36","","907","","images/semantic_sequence/creative_activities_semantic/creative_activities_semantic_8.png","0","",""
"","","","","","image-button-response","68","378663","0.0-12.0-1.0-2.3","B7BCC484B8354EA690EA40756B9A34C6","B7BCC484B8354EA690EA40756B9A34C6","46e1b6b7-0ec1-41a9-9fe0-44093e201cc9","ba640c14-69c5-453e-80b2-29051492c0e0","{""num_scrambled_semantic"":""8"",""num_scrambled_causal"":""4"",""num_scrambled_schematic"":""4"",""participantId"":""B7BCC484B8354EA690EA40756B9A34C6"",""assignmentId"":""46e1b6b7-0ec1-41a9-9fe0-44093e201cc9"",""projectId"":""ba640c14-69c5-453e-80b2-29051492c0e0""}","https://test12345.live/?num_scrambled_semantic=8&num_scrambled_causal=4&num_scrambled_schematic=4&participantId=B7BCC484B8354EA690EA40756B9A34C6&assignmentId=46e1b6b7-0ec1-41a9-9fe0-44093e201cc9&projectId=ba640c14-69c5-453e-80b2-29051492c0e0","B7BCC484B8354EA690EA40756B9A34C6-2025-05-14-20-53-36","","null","","[]","null","",""
"","","","","","image-button-response","69","383164","0.0-12.0-1.0-0.4","B7BCC484B8354EA690EA40756B9A34C6","B7BCC484B8354EA690EA40756B9A34C6","46e1b6b7-0ec1-41a9-9fe0-44093e201cc9","ba640c14-69c5-453e-80b2-29051492c0e0","{""num_scrambled_semantic"":""8"",""num_scrambled_causal"":""4"",""num_scrambled_schematic"":""4"",""participantId"":""B7BCC484B8354EA690EA40756B9A34C6"",""assignmentId"":""46e1b6b7-0ec1-41a9-9fe0-44093e201cc9"",""projectId"":""ba640c14-69c5-453e-80b2-29051492c0e0""}","https://test12345.live/?num_scrambled_semantic=8&num_scrambled_causal=4&num_scrambled_schematic=4&participantId=B7BCC484B8354EA690EA40756B9A34C6&assignmentId=46e1b6b7-0ec1-41a9-9fe0-44093e201cc9&projectId=ba640c14-69c5-453e-80b2-29051492c0e0","B7BCC484B8354EA690EA40756B9A34C6-2025-05-14-20-53-36","","null","","images/semantic_sequence/creative_activities_semantic/creative_activities_semantic_1.png","null","",""
"","","","","","image-button-response","70","384056","0.0-12.0-1.0-1.4","B7BCC484B8354EA690EA40756B9A34C6","B7BCC484B8354EA690EA40756B9A34C6","46e1b6b7-0ec1-41a9-9fe0-44093e201cc9","ba640c14-69c5-453e-80b2-29051492c0e0","{""num_scrambled_semantic"":""8"",""num_scrambled_causal"":""4"",""num_scrambled_schematic"":""4"",""participantId"":""B7BCC484B8354EA690EA40756B9A34C6"",""assignmentId"":""46e1b6b7-0ec1-41a9-9fe0-44093e201cc9"",""projectId"":""ba640c14-69c5-453e-80b2-29051492c0e0""}","https://test12345.live/?num_scrambled_semantic=8&num_scrambled_causal=4&num_scrambled_schematic=4&participantId=B7BCC484B8354EA690EA40756B9A34C6&assignmentId=46e1b6b7-0ec1-41a9-9fe0-44093e201cc9&projectId=ba640c14-69c5-453e-80b2-29051492c0e0","B7BCC484B8354EA690EA40756B9A34C6-2025-05-14-20-53-36","","891","","images/semantic_sequence/creative_activities_semantic/creative_activities_semantic_1.png","0","",""
"","","","","","image-button-response","71","385871","0.0-12.0-1.0-2.4","B7BCC484B8354EA690EA40756B9A34C6","B7BCC484B8354EA690EA40756B9A34C6","46e1b6b7-0ec1-41a9-9fe0-44093e201cc9","ba640c14-69c5-453e-80b2-29051492c0e0","{""num_scrambled_semantic"":""8"",""num_scrambled_causal"":""4"",""num_scrambled_schematic"":""4"",""participantId"":""B7BCC484B8354EA690EA40756B9A34C6"",""assignmentId"":""46e1b6b7-0ec1-41a9-9fe0-44093e201cc9"",""projectId"":""ba640c14-69c5-453e-80b2-29051492c0e0""}","https://test12345.live/?num_scrambled_semantic=8&num_scrambled_causal=4&num_scrambled_schematic=4&participantId=B7BCC484B8354EA690EA40756B9A34C6&assignmentId=46e1b6b7-0ec1-41a9-9fe0-44093e201cc9&projectId=ba640c14-69c5-453e-80b2-29051492c0e0","B7BCC484B8354EA690EA40756B9A34C6-2025-05-14-20-53-36","","null","","[]","null","",""
"","","","","","image-button-response","72","390373","0.0-12.0-1.0-0.5","B7BCC484B8354EA690EA40756B9A34C6","B7BCC484B8354EA690EA40756B9A34C6","46e1b6b7-0ec1-41a9-9fe0-44093e201cc9","ba640c14-69c5-453e-80b2-29051492c0e0","{""num_scrambled_semantic"":""8"",""num_scrambled_causal"":""4"",""num_scrambled_schematic"":""4"",""participantId"":""B7BCC484B8354EA690EA40756B9A34C6"",""assignmentId"":""46e1b6b7-0ec1-41a9-9fe0-44093e201cc9"",""projectId"":""ba640c14-69c5-453e-80b2-29051492c0e0""}","https://test12345.live/?num_scrambled_semantic=8&num_scrambled_causal=4&num_scrambled_schematic=4&participantId=B7BCC484B8354EA690EA40756B9A34C6&assignmentId=46e1b6b7-0ec1-41a9-9fe0-44093e201cc9&projectId=ba640c14-69c5-453e-80b2-29051492c0e0","B7BCC484B8354EA690EA40756B9A34C6-2025-05-14-20-53-36","","null","","images/semantic_sequence/creative_activities_semantic/creative_activities_semantic_6.png","null","",""
"","","","","","image-button-response","73","391160","0.0-12.0-1.0-1.5","B7BCC484B8354EA690EA40756B9A34C6","B7BCC484B8354EA690EA40756B9A34C6","46e1b6b7-0ec1-41a9-9fe0-44093e201cc9","ba640c14-69c5-453e-80b2-29051492c0e0","{""num_scrambled_semantic"":""8"",""num_scrambled_causal"":""4"",""num_scrambled_schematic"":""4"",""participantId"":""B7BCC484B8354EA690EA40756B9A34C6"",""assignmentId"":""46e1b6b7-0ec1-41a9-9fe0-44093e201cc9"",""projectId"":""ba640c14-69c5-453e-80b2-29051492c0e0""}","https://test12345.live/?num_scrambled_semantic=8&num_scrambled_causal=4&num_scrambled_schematic=4&participantId=B7BCC484B8354EA690EA40756B9A34C6&assignmentId=46e1b6b7-0ec1-41a9-9fe0-44093e201cc9&projectId=ba640c14-69c5-453e-80b2-29051492c0e0","B7BCC484B8354EA690EA40756B9A34C6-2025-05-14-20-53-36","","786","","images/semantic_sequence/creative_activities_semantic/creative_activities_semantic_6.png","0","",""
"","","","","","image-button-response","74","392963","0.0-12.0-1.0-2.5","B7BCC484B8354EA690EA40756B9A34C6","B7BCC484B8354EA690EA40756B9A34C6","46e1b6b7-0ec1-41a9-9fe0-44093e201cc9","ba640c14-69c5-453e-80b2-29051492c0e0","{""num_scrambled_semantic"":""8"",""num_scrambled_causal"":""4"",""num_scrambled_schematic"":""4"",""participantId"":""B7BCC484B8354EA690EA40756B9A34C6"",""assignmentId"":""46e1b6b7-0ec1-41a9-9fe0-44093e201cc9"",""projectId"":""ba640c14-69c5-453e-80b2-29051492c0e0""}","https://test12345.live/?num_scrambled_semantic=8&num_scrambled_causal=4&num_scrambled_schematic=4&participantId=B7BCC484B8354EA690EA40756B9A34C6&assignmentId=46e1b6b7-0ec1-41a9-9fe0-44093e201cc9&projectId=ba640c14-69c5-453e-80b2-29051492c0e0","B7BCC484B8354EA690EA40756B9A34C6-2025-05-14-20-53-36","","null","","[]","null","",""
"","","","","","image-button-response","75","397469","0.0-12.0-1.0-0.6","B7BCC484B8354EA690EA40756B9A34C6","B7BCC484B8354EA690EA40756B9A34C6","46e1b6b7-0ec1-41a9-9fe0-44093e201cc9","ba640c14-69c5-453e-80b2-29051492c0e0","{""num_scrambled_semantic"":""8"",""num_scrambled_causal"":""4"",""num_scrambled_schematic"":""4"",""participantId"":""B7BCC484B8354EA690EA40756B9A34C6"",""assignmentId"":""46e1b6b7-0ec1-41a9-9fe0-44093e201cc9"",""projectId"":""ba640c14-69c5-453e-80b2-29051492c0e0""}","https://test12345.live/?num_scrambled_semantic=8&num_scrambled_causal=4&num_scrambled_schematic=4&participantId=B7BCC484B8354EA690EA40756B9A34C6&assignmentId=46e1b6b7-0ec1-41a9-9fe0-44093e201cc9&projectId=ba640c14-69c5-453e-80b2-29051492c0e0","B7BCC484B8354EA690EA40756B9A34C6-2025-05-14-20-53-36","","null","","images/semantic_sequence/creative_activities_semantic/creative_activities_semantic_7.png","null","",""
"","","","","","image-button-response","76","397953","0.0-12.0-1.0-1.6","B7BCC484B8354EA690EA40756B9A34C6","B7BCC484B8354EA690EA40756B9A34C6","46e1b6b7-0ec1-41a9-9fe0-44093e201cc9","ba640c14-69c5-453e-80b2-29051492c0e0","{""num_scrambled_semantic"":""8"",""num_scrambled_causal"":""4"",""num_scrambled_schematic"":""4"",""participantId"":""B7BCC484B8354EA690EA40756B9A34C6"",""assignmentId"":""46e1b6b7-0ec1-41a9-9fe0-44093e201cc9"",""projectId"":""ba640c14-69c5-453e-80b2-29051492c0e0""}","https://test12345.live/?num_scrambled_semantic=8&num_scrambled_causal=4&num_scrambled_schematic=4&participantId=B7BCC484B8354EA690EA40756B9A34C6&assignmentId=46e1b6b7-0ec1-41a9-9fe0-44093e201cc9&projectId=ba640c14-69c5-453e-80b2-29051492c0e0","B7BCC484B8354EA690EA40756B9A34C6-2025-05-14-20-53-36","","484","","images/semantic_sequence/creative_activities_semantic/creative_activities_semantic_7.png","0","",""
"","","","","","image-button-response","77","399757","0.0-12.0-1.0-2.6","B7BCC484B8354EA690EA40756B9A34C6","B7BCC484B8354EA690EA40756B9A34C6","46e1b6b7-0ec1-41a9-9fe0-44093e201cc9","ba640c14-69c5-453e-80b2-29051492c0e0","{""num_scrambled_semantic"":""8"",""num_scrambled_causal"":""4"",""num_scrambled_schematic"":""4"",""participantId"":""B7BCC484B8354EA690EA40756B9A34C6"",""assignmentId"":""46e1b6b7-0ec1-41a9-9fe0-44093e201cc9"",""projectId"":""ba640c14-69c5-453e-80b2-29051492c0e0""}","https://test12345.live/?num_scrambled_semantic=8&num_scrambled_causal=4&num_scrambled_schematic=4&participantId=B7BCC484B8354EA690EA40756B9A34C6&assignmentId=46e1b6b7-0ec1-41a9-9fe0-44093e201cc9&projectId=ba640c14-69c5-453e-80b2-29051492c0e0","B7BCC484B8354EA690EA40756B9A34C6-2025-05-14-20-53-36","","null","","[]","null","",""
"","","","","","image-button-response","78","404259","0.0-12.0-1.0-0.7","B7BCC484B8354EA690EA40756B9A34C6","B7BCC484B8354EA690EA40756B9A34C6","46e1b6b7-0ec1-41a9-9fe0-44093e201cc9","ba640c14-69c5-453e-80b2-29051492c0e0","{""num_scrambled_semantic"":""8"",""num_scrambled_causal"":""4"",""num_scrambled_schematic"":""4"",""participantId"":""B7BCC484B8354EA690EA40756B9A34C6"",""assignmentId"":""46e1b6b7-0ec1-41a9-9fe0-44093e201cc9"",""projectId"":""ba640c14-69c5-453e-80b2-29051492c0e0""}","https://test12345.live/?num_scrambled_semantic=8&num_scrambled_causal=4&num_scrambled_schematic=4&participantId=B7BCC484B8354EA690EA40756B9A34C6&assignmentId=46e1b6b7-0ec1-41a9-9fe0-44093e201cc9&projectId=ba640c14-69c5-453e-80b2-29051492c0e0","B7BCC484B8354EA690EA40756B9A34C6-2025-05-14-20-53-36","","null","","images/semantic_sequence/creative_activities_semantic/creative_activities_semantic_ten.png","null","",""
"","","","","","image-button-response","79","404810","0.0-12.0-1.0-1.7","B7BCC484B8354EA690EA40756B9A34C6","B7BCC484B8354EA690EA40756B9A34C6","46e1b6b7-0ec1-41a9-9fe0-44093e201cc9","ba640c14-69c5-453e-80b2-29051492c0e0","{""num_scrambled_semantic"":""8"",""num_scrambled_causal"":""4"",""num_scrambled_schematic"":""4"",""participantId"":""B7BCC484B8354EA690EA40756B9A34C6"",""assignmentId"":""46e1b6b7-0ec1-41a9-9fe0-44093e201cc9"",""projectId"":""ba640c14-69c5-453e-80b2-29051492c0e0""}","https://test12345.live/?num_scrambled_semantic=8&num_scrambled_causal=4&num_scrambled_schematic=4&participantId=B7BCC484B8354EA690EA40756B9A34C6&assignmentId=46e1b6b7-0ec1-41a9-9fe0-44093e201cc9&projectId=ba640c14-69c5-453e-80b2-29051492c0e0","B7BCC484B8354EA690EA40756B9A34C6-2025-05-14-20-53-36","","550","","images/semantic_sequence/creative_activities_semantic/creative_activities_semantic_ten.png","0","",""
"","","","","","image-button-response","80","406619","0.0-12.0-1.0-2.7","B7BCC484B8354EA690EA40756B9A34C6","B7BCC484B8354EA690EA40756B9A34C6","46e1b6b7-0ec1-41a9-9fe0-44093e201cc9","ba640c14-69c5-453e-80b2-29051492c0e0","{""num_scrambled_semantic"":""8"",""num_scrambled_causal"":""4"",""num_scrambled_schematic"":""4"",""participantId"":""B7BCC484B8354EA690EA40756B9A34C6"",""assignmentId"":""46e1b6b7-0ec1-41a9-9fe0-44093e201cc9"",""projectId"":""ba640c14-69c5-453e-80b2-29051492c0e0""}","https://test12345.live/?num_scrambled_semantic=8&num_scrambled_causal=4&num_scrambled_schematic=4&participantId=B7BCC484B8354EA690EA40756B9A34C6&assignmentId=46e1b6b7-0ec1-41a9-9fe0-44093e201cc9&projectId=ba640c14-69c5-453e-80b2-29051492c0e0","B7BCC484B8354EA690EA40756B9A34C6-2025-05-14-20-53-36","","null","","[]","null","",""
"","","","","","image-button-response","81","411121","0.0-12.0-1.0-0.8","B7BCC484B8354EA690EA40756B9A34C6","B7BCC484B8354EA690EA40756B9A34C6","46e1b6b7-0ec1-41a9-9fe0-44093e201cc9","ba640c14-69c5-453e-80b2-29051492c0e0","{""num_scrambled_semantic"":""8"",""num_scrambled_causal"":""4"",""num_scrambled_schematic"":""4"",""participantId"":""B7BCC484B8354EA690EA40756B9A34C6"",""assignmentId"":""46e1b6b7-0ec1-41a9-9fe0-44093e201cc9"",""projectId"":""ba640c14-69c5-453e-80b2-29051492c0e0""}","https://test12345.live/?num_scrambled_semantic=8&num_scrambled_causal=4&num_scrambled_schematic=4&participantId=B7BCC484B8354EA690EA40756B9A34C6&assignmentId=46e1b6b7-0ec1-41a9-9fe0-44093e201cc9&projectId=ba640c14-69c5-453e-80b2-29051492c0e0","B7BCC484B8354EA690EA40756B9A34C6-2025-05-14-20-53-36","","null","","images/semantic_sequence/creative_activities_semantic/creative_activities_semantic_4.png","null","",""
"","","","","","image-button-response","82","411824","0.0-12.0-1.0-1.8","B7BCC484B8354EA690EA40756B9A34C6","B7BCC484B8354EA690EA40756B9A34C6","46e1b6b7-0ec1-41a9-9fe0-44093e201cc9","ba640c14-69c5-453e-80b2-29051492c0e0","{""num_scrambled_semantic"":""8"",""num_scrambled_causal"":""4"",""num_scrambled_schematic"":""4"",""participantId"":""B7BCC484B8354EA690EA40756B9A34C6"",""assignmentId"":""46e1b6b7-0ec1-41a9-9fe0-44093e201cc9"",""projectId"":""ba640c14-69c5-453e-80b2-29051492c0e0""}","https://test12345.live/?num_scrambled_semantic=8&num_scrambled_causal=4&num_scrambled_schematic=4&participantId=B7BCC484B8354EA690EA40756B9A34C6&assignmentId=46e1b6b7-0ec1-41a9-9fe0-44093e201cc9&projectId=ba640c14-69c5-453e-80b2-29051492c0e0","B7BCC484B8354EA690EA40756B9A34C6-2025-05-14-20-53-36","","702","","images/semantic_sequence/creative_activities_semantic/creative_activities_semantic_4.png","0","",""
"","","","","","image-button-response","83","413630","0.0-12.0-1.0-2.8","B7BCC484B8354EA690EA40756B9A34C6","B7BCC484B8354EA690EA40756B9A34C6","46e1b6b7-0ec1-41a9-9fe0-44093e201cc9","ba640c14-69c5-453e-80b2-29051492c0e0","{""num_scrambled_semantic"":""8"",""num_scrambled_causal"":""4"",""num_scrambled_schematic"":""4"",""participantId"":""B7BCC484B8354EA690EA40756B9A34C6"",""assignmentId"":""46e1b6b7-0ec1-41a9-9fe0-44093e201cc9"",""projectId"":""ba640c14-69c5-453e-80b2-29051492c0e0""}","https://test12345.live/?num_scrambled_semantic=8&num_scrambled_causal=4&num_scrambled_schematic=4&participantId=B7BCC484B8354EA690EA40756B9A34C6&assignmentId=46e1b6b7-0ec1-41a9-9fe0-44093e201cc9&projectId=ba640c14-69c5-453e-80b2-29051492c0e0","B7BCC484B8354EA690EA40756B9A34C6-2025-05-14-20-53-36","","null","","[]","null","",""
"","","","","","image-button-response","84","418140","0.0-12.0-1.0-0.9","B7BCC484B8354EA690EA40756B9A34C6","B7BCC484B8354EA690EA40756B9A34C6","46e1b6b7-0ec1-41a9-9fe0-44093e201cc9","ba640c14-69c5-453e-80b2-29051492c0e0","{""num_scrambled_semantic"":""8"",""num_scrambled_causal"":""4"",""num_scrambled_schematic"":""4"",""participantId"":""B7BCC484B8354EA690EA40756B9A34C6"",""assignmentId"":""46e1b6b7-0ec1-41a9-9fe0-44093e201cc9"",""projectId"":""ba640c14-69c5-453e-80b2-29051492c0e0""}","https://test12345.live/?num_scrambled_semantic=8&num_scrambled_causal=4&num_scrambled_schematic=4&participantId=B7BCC484B8354EA690EA40756B9A34C6&assignmentId=46e1b6b7-0ec1-41a9-9fe0-44093e201cc9&projectId=ba640c14-69c5-453e-80b2-29051492c0e0","B7BCC484B8354EA690EA40756B9A34C6-2025-05-14-20-53-36","","null","","images/semantic_sequence/creative_activities_semantic/creative_activities_semantic_2.png","null","",""
"","","","","","image-button-response","85","418567","0.0-12.0-1.0-1.9","B7BCC484B8354EA690EA40756B9A34C6","B7BCC484B8354EA690EA40756B9A34C6","46e1b6b7-0ec1-41a9-9fe0-44093e201cc9","ba640c14-69c5-453e-80b2-29051492c0e0","{""num_scrambled_semantic"":""8"",""num_scrambled_causal"":""4"",""num_scrambled_schematic"":""4"",""participantId"":""B7BCC484B8354EA690EA40756B9A34C6"",""assignmentId"":""46e1b6b7-0ec1-41a9-9fe0-44093e201cc9"",""projectId"":""ba640c14-69c5-453e-80b2-29051492c0e0""}","https://test12345.live/?num_scrambled_semantic=8&num_scrambled_causal=4&num_scrambled_schematic=4&participantId=B7BCC484B8354EA690EA40756B9A34C6&assignmentId=46e1b6b7-0ec1-41a9-9fe0-44093e201cc9&projectId=ba640c14-69c5-453e-80b2-29051492c0e0","B7BCC484B8354EA690EA40756B9A34C6-2025-05-14-20-53-36","","426","","images/semantic_sequence/creative_activities_semantic/creative_activities_semantic_2.png","0","",""
"","","","","","image-button-response","86","420368","0.0-12.0-1.0-2.9","B7BCC484B8354EA690EA40756B9A34C6","B7BCC484B8354EA690EA40756B9A34C6","46e1b6b7-0ec1-41a9-9fe0-44093e201cc9","ba640c14-69c5-453e-80b2-29051492c0e0","{""num_scrambled_semantic"":""8"",""num_scrambled_causal"":""4"",""num_scrambled_schematic"":""4"",""participantId"":""B7BCC484B8354EA690EA40756B9A34C6"",""assignmentId"":""46e1b6b7-0ec1-41a9-9fe0-44093e201cc9"",""projectId"":""ba640c14-69c5-453e-80b2-29051492c0e0""}","https://test12345.live/?num_scrambled_semantic=8&num_scrambled_causal=4&num_scrambled_schematic=4&participantId=B7BCC484B8354EA690EA40756B9A34C6&assignmentId=46e1b6b7-0ec1-41a9-9fe0-44093e201cc9&projectId=ba640c14-69c5-453e-80b2-29051492c0e0","B7BCC484B8354EA690EA40756B9A34C6-2025-05-14-20-53-36","","null","","[]","null","",""
"","","","","","html-audio-response","87","463465","0.0-13.0","B7BCC484B8354EA690EA40756B9A34C6","B7BCC484B8354EA690EA40756B9A34C6","46e1b6b7-0ec1-41a9-9fe0-44093e201cc9","ba640c14-69c5-453e-80b2-29051492c0e0","{""num_scrambled_semantic"":""8"",""num_scrambled_causal"":""4"",""num_scrambled_schematic"":""4"",""participantId"":""B7BCC484B8354EA690EA40756B9A34C6"",""assignmentId"":""46e1b6b7-0ec1-41a9-9fe0-44093e201cc9"",""projectId"":""ba640c14-69c5-453e-80b2-29051492c0e0""}","https://test12345.live/?num_scrambled_semantic=8&num_scrambled_causal=4&num_scrambled_schematic=4&participantId=B7BCC484B8354EA690EA40756B9A34C6&assignmentId=46e1b6b7-0ec1-41a9-9fe0-44093e201cc9&projectId=ba640c14-69c5-453e-80b2-29051492c0e0","B7BCC484B8354EA690EA40756B9A34C6-2025-05-14-20-53-36","","41758","","[""<span style=\""color: red; font-size: 24px\""> NOW RECORDING</span><p>Please say out loud all the images you saw, as many as you can remember. The images can be said in any order.</p>""]","","1","creative_activities_semantic"
"","","","","","image-button-response","88","469479","0.0-14.0-0.0","B7BCC484B8354EA690EA40756B9A34C6","B7BCC484B8354EA690EA40756B9A34C6","46e1b6b7-0ec1-41a9-9fe0-44093e201cc9","ba640c14-69c5-453e-80b2-29051492c0e0","{""num_scrambled_semantic"":""8"",""num_scrambled_causal"":""4"",""num_scrambled_schematic"":""4"",""participantId"":""B7BCC484B8354EA690EA40756B9A34C6"",""assignmentId"":""46e1b6b7-0ec1-41a9-9fe0-44093e201cc9"",""projectId"":""ba640c14-69c5-453e-80b2-29051492c0e0""}","https://test12345.live/?num_scrambled_semantic=8&num_scrambled_causal=4&num_scrambled_schematic=4&participantId=B7BCC484B8354EA690EA40756B9A34C6&assignmentId=46e1b6b7-0ec1-41a9-9fe0-44093e201cc9&projectId=ba640c14-69c5-453e-80b2-29051492c0e0","B7BCC484B8354EA690EA40756B9A34C6-2025-05-14-20-53-36","","null","","images/semantic_sequence/visiting_cities_semantic/visiting_cities_semantic_0.png","null","",""
"","","","","","image-button-response","89","473988","0.0-14.0-1.0-0.0","B7BCC484B8354EA690EA40756B9A34C6","B7BCC484B8354EA690EA40756B9A34C6","46e1b6b7-0ec1-41a9-9fe0-44093e201cc9","ba640c14-69c5-453e-80b2-29051492c0e0","{""num_scrambled_semantic"":""8"",""num_scrambled_causal"":""4"",""num_scrambled_schematic"":""4"",""participantId"":""B7BCC484B8354EA690EA40756B9A34C6"",""assignmentId"":""46e1b6b7-0ec1-41a9-9fe0-44093e201cc9"",""projectId"":""ba640c14-69c5-453e-80b2-29051492c0e0""}","https://test12345.live/?num_scrambled_semantic=8&num_scrambled_causal=4&num_scrambled_schematic=4&participantId=B7BCC484B8354EA690EA40756B9A34C6&assignmentId=46e1b6b7-0ec1-41a9-9fe0-44093e201cc9&projectId=ba640c14-69c5-453e-80b2-29051492c0e0","B7BCC484B8354EA690EA40756B9A34C6-2025-05-14-20-53-36","","null","","images/semantic_sequence/visiting_cities_semantic/visiting_cities_semantic_1.png","null","",""
"","","","","","image-button-response","90","475086","0.0-14.0-1.0-1.0","B7BCC484B8354EA690EA40756B9A34C6","B7BCC484B8354EA690EA40756B9A34C6","46e1b6b7-0ec1-41a9-9fe0-44093e201cc9","ba640c14-69c5-453e-80b2-29051492c0e0","{""num_scrambled_semantic"":""8"",""num_scrambled_causal"":""4"",""num_scrambled_schematic"":""4"",""participantId"":""B7BCC484B8354EA690EA40756B9A34C6"",""assignmentId"":""46e1b6b7-0ec1-41a9-9fe0-44093e201cc9"",""projectId"":""ba640c14-69c5-453e-80b2-29051492c0e0""}","https://test12345.live/?num_scrambled_semantic=8&num_scrambled_causal=4&num_scrambled_schematic=4&participantId=B7BCC484B8354EA690EA40756B9A34C6&assignmentId=46e1b6b7-0ec1-41a9-9fe0-44093e201cc9&projectId=ba640c14-69c5-453e-80b2-29051492c0e0","B7BCC484B8354EA690EA40756B9A34C6-2025-05-14-20-53-36","","1097","","images/semantic_sequence/visiting_cities_semantic/visiting_cities_semantic_1.png","0","",""
"","","","","","image-button-response","91","476886","0.0-14.0-1.0-2.0","B7BCC484B8354EA690EA40756B9A34C6","B7BCC484B8354EA690EA40756B9A34C6","46e1b6b7-0ec1-41a9-9fe0-44093e201cc9","ba640c14-69c5-453e-80b2-29051492c0e0","{""num_scrambled_semantic"":""8"",""num_scrambled_causal"":""4"",""num_scrambled_schematic"":""4"",""participantId"":""B7BCC484B8354EA690EA40756B9A34C6"",""assignmentId"":""46e1b6b7-0ec1-41a9-9fe0-44093e201cc9"",""projectId"":""ba640c14-69c5-453e-80b2-29051492c0e0""}","https://test12345.live/?num_scrambled_semantic=8&num_scrambled_causal=4&num_scrambled_schematic=4&participantId=B7BCC484B8354EA690EA40756B9A34C6&assignmentId=46e1b6b7-0ec1-41a9-9fe0-44093e201cc9&projectId=ba640c14-69c5-453e-80b2-29051492c0e0","B7BCC484B8354EA690EA40756B9A34C6-2025-05-14-20-53-36","","null","","[]","null","",""
"","","","","","image-button-response","92","481388","0.0-14.0-1.0-0.1","B7BCC484B8354EA690EA40756B9A34C6","B7BCC484B8354EA690EA40756B9A34C6","46e1b6b7-0ec1-41a9-9fe0-44093e201cc9","ba640c14-69c5-453e-80b2-29051492c0e0","{""num_scrambled_semantic"":""8"",""num_scrambled_causal"":""4"",""num_scrambled_schematic"":""4"",""participantId"":""B7BCC484B8354EA690EA40756B9A34C6"",""assignmentId"":""46e1b6b7-0ec1-41a9-9fe0-44093e201cc9"",""projectId"":""ba640c14-69c5-453e-80b2-29051492c0e0""}","https://test12345.live/?num_scrambled_semantic=8&num_scrambled_causal=4&num_scrambled_schematic=4&participantId=B7BCC484B8354EA690EA40756B9A34C6&assignmentId=46e1b6b7-0ec1-41a9-9fe0-44093e201cc9&projectId=ba640c14-69c5-453e-80b2-29051492c0e0","B7BCC484B8354EA690EA40756B9A34C6-2025-05-14-20-53-36","","null","","images/semantic_sequence/visiting_cities_semantic/visiting_cities_semantic_2.png","null","",""
"","","","","","image-button-response","93","482101","0.0-14.0-1.0-1.1","B7BCC484B8354EA690EA40756B9A34C6","B7BCC484B8354EA690EA40756B9A34C6","46e1b6b7-0ec1-41a9-9fe0-44093e201cc9","ba640c14-69c5-453e-80b2-29051492c0e0","{""num_scrambled_semantic"":""8"",""num_scrambled_causal"":""4"",""num_scrambled_schematic"":""4"",""participantId"":""B7BCC484B8354EA690EA40756B9A34C6"",""assignmentId"":""46e1b6b7-0ec1-41a9-9fe0-44093e201cc9"",""projectId"":""ba640c14-69c5-453e-80b2-29051492c0e0""}","https://test12345.live/?num_scrambled_semantic=8&num_scrambled_causal=4&num_scrambled_schematic=4&participantId=B7BCC484B8354EA690EA40756B9A34C6&assignmentId=46e1b6b7-0ec1-41a9-9fe0-44093e201cc9&projectId=ba640c14-69c5-453e-80b2-29051492c0e0","B7BCC484B8354EA690EA40756B9A34C6-2025-05-14-20-53-36","","713","","images/semantic_sequence/visiting_cities_semantic/visiting_cities_semantic_2.png","1","",""
"","","","","","image-button-response","94","483916","0.0-14.0-1.0-2.1","B7BCC484B8354EA690EA40756B9A34C6","B7BCC484B8354EA690EA40756B9A34C6","46e1b6b7-0ec1-41a9-9fe0-44093e201cc9","ba640c14-69c5-453e-80b2-29051492c0e0","{""num_scrambled_semantic"":""8"",""num_scrambled_causal"":""4"",""num_scrambled_schematic"":""4"",""participantId"":""B7BCC484B8354EA690EA40756B9A34C6"",""assignmentId"":""46e1b6b7-0ec1-41a9-9fe0-44093e201cc9"",""projectId"":""ba640c14-69c5-453e-80b2-29051492c0e0""}","https://test12345.live/?num_scrambled_semantic=8&num_scrambled_causal=4&num_scrambled_schematic=4&participantId=B7BCC484B8354EA690EA40756B9A34C6&assignmentId=46e1b6b7-0ec1-41a9-9fe0-44093e201cc9&projectId=ba640c14-69c5-453e-80b2-29051492c0e0","B7BCC484B8354EA690EA40756B9A34C6-2025-05-14-20-53-36","","null","","[]","null","",""
"","","","","","image-button-response","95","488424","0.0-14.0-1.0-0.2","B7BCC484B8354EA690EA40756B9A34C6","B7BCC484B8354EA690EA40756B9A34C6","46e1b6b7-0ec1-41a9-9fe0-44093e201cc9","ba640c14-69c5-453e-80b2-29051492c0e0","{""num_scrambled_semantic"":""8"",""num_scrambled_causal"":""4"",""num_scrambled_schematic"":""4"",""participantId"":""B7BCC484B8354EA690EA40756B9A34C6"",""assignmentId"":""46e1b6b7-0ec1-41a9-9fe0-44093e201cc9"",""projectId"":""ba640c14-69c5-453e-80b2-29051492c0e0""}","https://test12345.live/?num_scrambled_semantic=8&num_scrambled_causal=4&num_scrambled_schematic=4&participantId=B7BCC484B8354EA690EA40756B9A34C6&assignmentId=46e1b6b7-0ec1-41a9-9fe0-44093e201cc9&projectId=ba640c14-69c5-453e-80b2-29051492c0e0","B7BCC484B8354EA690EA40756B9A34C6-2025-05-14-20-53-36","","null","","images/semantic_sequence/visiting_cities_semantic/visiting_cities_semantic_3.png","null","",""
"","","","","","image-button-response","96","490535","0.0-14.0-1.0-1.2","B7BCC484B8354EA690EA40756B9A34C6","B7BCC484B8354EA690EA40756B9A34C6","46e1b6b7-0ec1-41a9-9fe0-44093e201cc9","ba640c14-69c5-453e-80b2-29051492c0e0","{""num_scrambled_semantic"":""8"",""num_scrambled_causal"":""4"",""num_scrambled_schematic"":""4"",""participantId"":""B7BCC484B8354EA690EA40756B9A34C6"",""assignmentId"":""46e1b6b7-0ec1-41a9-9fe0-44093e201cc9"",""projectId"":""ba640c14-69c5-453e-80b2-29051492c0e0""}","https://test12345.live/?num_scrambled_semantic=8&num_scrambled_causal=4&num_scrambled_schematic=4&participantId=B7BCC484B8354EA690EA40756B9A34C6&assignmentId=46e1b6b7-0ec1-41a9-9fe0-44093e201cc9&projectId=ba640c14-69c5-453e-80b2-29051492c0e0","B7BCC484B8354EA690EA40756B9A34C6-2025-05-14-20-53-36","","2111","","images/semantic_sequence/visiting_cities_semantic/visiting_cities_semantic_3.png","1","",""
"","","","","","image-button-response","97","492341","0.0-14.0-1.0-2.2","B7BCC484B8354EA690EA40756B9A34C6","B7BCC484B8354EA690EA40756B9A34C6","46e1b6b7-0ec1-41a9-9fe0-44093e201cc9","ba640c14-69c5-453e-80b2-29051492c0e0","{""num_scrambled_semantic"":""8"",""num_scrambled_causal"":""4"",""num_scrambled_schematic"":""4"",""participantId"":""B7BCC484B8354EA690EA40756B9A34C6"",""assignmentId"":""46e1b6b7-0ec1-41a9-9fe0-44093e201cc9"",""projectId"":""ba640c14-69c5-453e-80b2-29051492c0e0""}","https://test12345.live/?num_scrambled_semantic=8&num_scrambled_causal=4&num_scrambled_schematic=4&participantId=B7BCC484B8354EA690EA40756B9A34C6&assignmentId=46e1b6b7-0ec1-41a9-9fe0-44093e201cc9&projectId=ba640c14-69c5-453e-80b2-29051492c0e0","B7BCC484B8354EA690EA40756B9A34C6-2025-05-14-20-53-36","","null","","[]","null","",""
"","","","","","image-button-response","98","496850","0.0-14.0-1.0-0.3","B7BCC484B8354EA690EA40756B9A34C6","B7BCC484B8354EA690EA40756B9A34C6","46e1b6b7-0ec1-41a9-9fe0-44093e201cc9","ba640c14-69c5-453e-80b2-29051492c0e0","{""num_scrambled_semantic"":""8"",""num_scrambled_causal"":""4"",""num_scrambled_schematic"":""4"",""participantId"":""B7BCC484B8354EA690EA40756B9A34C6"",""assignmentId"":""46e1b6b7-0ec1-41a9-9fe0-44093e201cc9"",""projectId"":""ba640c14-69c5-453e-80b2-29051492c0e0""}","https://test12345.live/?num_scrambled_semantic=8&num_scrambled_causal=4&num_scrambled_schematic=4&participantId=B7BCC484B8354EA690EA40756B9A34C6&assignmentId=46e1b6b7-0ec1-41a9-9fe0-44093e201cc9&projectId=ba640c14-69c5-453e-80b2-29051492c0e0","B7BCC484B8354EA690EA40756B9A34C6-2025-05-14-20-53-36","","null","","images/semantic_sequence/visiting_cities_semantic/visiting_cities_semantic_4.png","null","",""
"","","","","","image-button-response","99","497343","0.0-14.0-1.0-1.3","B7BCC484B8354EA690EA40756B9A34C6","B7BCC484B8354EA690EA40756B9A34C6","46e1b6b7-0ec1-41a9-9fe0-44093e201cc9","ba640c14-69c5-453e-80b2-29051492c0e0","{""num_scrambled_semantic"":""8"",""num_scrambled_causal"":""4"",""num_scrambled_schematic"":""4"",""participantId"":""B7BCC484B8354EA690EA40756B9A34C6"",""assignmentId"":""46e1b6b7-0ec1-41a9-9fe0-44093e201cc9"",""projectId"":""ba640c14-69c5-453e-80b2-29051492c0e0""}","https://test12345.live/?num_scrambled_semantic=8&num_scrambled_causal=4&num_scrambled_schematic=4&participantId=B7BCC484B8354EA690EA40756B9A34C6&assignmentId=46e1b6b7-0ec1-41a9-9fe0-44093e201cc9&projectId=ba640c14-69c5-453e-80b2-29051492c0e0","B7BCC484B8354EA690EA40756B9A34C6-2025-05-14-20-53-36","","493","","images/semantic_sequence/visiting_cities_semantic/visiting_cities_semantic_4.png","1","",""
"","","","","","image-button-response","100","499147","0.0-14.0-1.0-2.3","B7BCC484B8354EA690EA40756B9A34C6","B7BCC484B8354EA690EA40756B9A34C6","46e1b6b7-0ec1-41a9-9fe0-44093e201cc9","ba640c14-69c5-453e-80b2-29051492c0e0","{""num_scrambled_semantic"":""8"",""num_scrambled_causal"":""4"",""num_scrambled_schematic"":""4"",""participantId"":""B7BCC484B8354EA690EA40756B9A34C6"",""assignmentId"":""46e1b6b7-0ec1-41a9-9fe0-44093e201cc9"",""projectId"":""ba640c14-69c5-453e-80b2-29051492c0e0""}","https://test12345.live/?num_scrambled_semantic=8&num_scrambled_causal=4&num_scrambled_schematic=4&participantId=B7BCC484B8354EA690EA40756B9A34C6&assignmentId=46e1b6b7-0ec1-41a9-9fe0-44093e201cc9&projectId=ba640c14-69c5-453e-80b2-29051492c0e0","B7BCC484B8354EA690EA40756B9A34C6-2025-05-14-20-53-36","","null","","[]","null","",""
"","","","","","image-button-response","101","503651","0.0-14.0-1.0-0.4","B7BCC484B8354EA690EA40756B9A34C6","B7BCC484B8354EA690EA40756B9A34C6","46e1b6b7-0ec1-41a9-9fe0-44093e201cc9","ba640c14-69c5-453e-80b2-29051492c0e0","{""num_scrambled_semantic"":""8"",""num_scrambled_causal"":""4"",""num_scrambled_schematic"":""4"",""participantId"":""B7BCC484B8354EA690EA40756B9A34C6"",""assignmentId"":""46e1b6b7-0ec1-41a9-9fe0-44093e201cc9"",""projectId"":""ba640c14-69c5-453e-80b2-29051492c0e0""}","https://test12345.live/?num_scrambled_semantic=8&num_scrambled_causal=4&num_scrambled_schematic=4&participantId=B7BCC484B8354EA690EA40756B9A34C6&assignmentId=46e1b6b7-0ec1-41a9-9fe0-44093e201cc9&projectId=ba640c14-69c5-453e-80b2-29051492c0e0","B7BCC484B8354EA690EA40756B9A34C6-2025-05-14-20-53-36","","null","","images/semantic_sequence/visiting_cities_semantic/visiting_cities_semantic_5.png","null","",""
"","","","","","image-button-response","102","504587","0.0-14.0-1.0-1.4","B7BCC484B8354EA690EA40756B9A34C6","B7BCC484B8354EA690EA40756B9A34C6","46e1b6b7-0ec1-41a9-9fe0-44093e201cc9","ba640c14-69c5-453e-80b2-29051492c0e0","{""num_scrambled_semantic"":""8"",""num_scrambled_causal"":""4"",""num_scrambled_schematic"":""4"",""participantId"":""B7BCC484B8354EA690EA40756B9A34C6"",""assignmentId"":""46e1b6b7-0ec1-41a9-9fe0-44093e201cc9"",""projectId"":""ba640c14-69c5-453e-80b2-29051492c0e0""}","https://test12345.live/?num_scrambled_semantic=8&num_scrambled_causal=4&num_scrambled_schematic=4&participantId=B7BCC484B8354EA690EA40756B9A34C6&assignmentId=46e1b6b7-0ec1-41a9-9fe0-44093e201cc9&projectId=ba640c14-69c5-453e-80b2-29051492c0e0","B7BCC484B8354EA690EA40756B9A34C6-2025-05-14-20-53-36","","936","","images/semantic_sequence/visiting_cities_semantic/visiting_cities_semantic_5.png","1","",""
"","","","","","image-button-response","103","506393","0.0-14.0-1.0-2.4","B7BCC484B8354EA690EA40756B9A34C6","B7BCC484B8354EA690EA40756B9A34C6","46e1b6b7-0ec1-41a9-9fe0-44093e201cc9","ba640c14-69c5-453e-80b2-29051492c0e0","{""num_scrambled_semantic"":""8"",""num_scrambled_causal"":""4"",""num_scrambled_schematic"":""4"",""participantId"":""B7BCC484B8354EA690EA40756B9A34C6"",""assignmentId"":""46e1b6b7-0ec1-41a9-9fe0-44093e201cc9"",""projectId"":""ba640c14-69c5-453e-80b2-29051492c0e0""}","https://test12345.live/?num_scrambled_semantic=8&num_scrambled_causal=4&num_scrambled_schematic=4&participantId=B7BCC484B8354EA690EA40756B9A34C6&assignmentId=46e1b6b7-0ec1-41a9-9fe0-44093e201cc9&projectId=ba640c14-69c5-453e-80b2-29051492c0e0","B7BCC484B8354EA690EA40756B9A34C6-2025-05-14-20-53-36","","null","","[]","null","",""
"","","","","","image-button-response","104","510903","0.0-14.0-1.0-0.5","B7BCC484B8354EA690EA40756B9A34C6","B7BCC484B8354EA690EA40756B9A34C6","46e1b6b7-0ec1-41a9-9fe0-44093e201cc9","ba640c14-69c5-453e-80b2-29051492c0e0","{""num_scrambled_semantic"":""8"",""num_scrambled_causal"":""4"",""num_scrambled_schematic"":""4"",""participantId"":""B7BCC484B8354EA690EA40756B9A34C6"",""assignmentId"":""46e1b6b7-0ec1-41a9-9fe0-44093e201cc9"",""projectId"":""ba640c14-69c5-453e-80b2-29051492c0e0""}","https://test12345.live/?num_scrambled_semantic=8&num_scrambled_causal=4&num_scrambled_schematic=4&participantId=B7BCC484B8354EA690EA40756B9A34C6&assignmentId=46e1b6b7-0ec1-41a9-9fe0-44093e201cc9&projectId=ba640c14-69c5-453e-80b2-29051492c0e0","B7BCC484B8354EA690EA40756B9A34C6-2025-05-14-20-53-36","","null","","images/semantic_sequence/visiting_cities_semantic/visiting_cities_semantic_6.png","null","",""
"","","","","","image-button-response","105","512166","0.0-14.0-1.0-1.5","B7BCC484B8354EA690EA40756B9A34C6","B7BCC484B8354EA690EA40756B9A34C6","46e1b6b7-0ec1-41a9-9fe0-44093e201cc9","ba640c14-69c5-453e-80b2-29051492c0e0","{""num_scrambled_semantic"":""8"",""num_scrambled_causal"":""4"",""num_scrambled_schematic"":""4"",""participantId"":""B7BCC484B8354EA690EA40756B9A34C6"",""assignmentId"":""46e1b6b7-0ec1-41a9-9fe0-44093e201cc9"",""projectId"":""ba640c14-69c5-453e-80b2-29051492c0e0""}","https://test12345.live/?num_scrambled_semantic=8&num_scrambled_causal=4&num_scrambled_schematic=4&participantId=B7BCC484B8354EA690EA40756B9A34C6&assignmentId=46e1b6b7-0ec1-41a9-9fe0-44093e201cc9&projectId=ba640c14-69c5-453e-80b2-29051492c0e0","B7BCC484B8354EA690EA40756B9A34C6-2025-05-14-20-53-36","","1263","","images/semantic_sequence/visiting_cities_semantic/visiting_cities_semantic_6.png","1","",""
"","","","","","image-button-response","106","513967","0.0-14.0-1.0-2.5","B7BCC484B8354EA690EA40756B9A34C6","B7BCC484B8354EA690EA40756B9A34C6","46e1b6b7-0ec1-41a9-9fe0-44093e201cc9","ba640c14-69c5-453e-80b2-29051492c0e0","{""num_scrambled_semantic"":""8"",""num_scrambled_causal"":""4"",""num_scrambled_schematic"":""4"",""participantId"":""B7BCC484B8354EA690EA40756B9A34C6"",""assignmentId"":""46e1b6b7-0ec1-41a9-9fe0-44093e201cc9"",""projectId"":""ba640c14-69c5-453e-80b2-29051492c0e0""}","https://test12345.live/?num_scrambled_semantic=8&num_scrambled_causal=4&num_scrambled_schematic=4&participantId=B7BCC484B8354EA690EA40756B9A34C6&assignmentId=46e1b6b7-0ec1-41a9-9fe0-44093e201cc9&projectId=ba640c14-69c5-453e-80b2-29051492c0e0","B7BCC484B8354EA690EA40756B9A34C6-2025-05-14-20-53-36","","null","","[]","null","",""
"","","","","","image-button-response","107","518475","0.0-14.0-1.0-0.6","B7BCC484B8354EA690EA40756B9A34C6","B7BCC484B8354EA690EA40756B9A34C6","46e1b6b7-0ec1-41a9-9fe0-44093e201cc9","ba640c14-69c5-453e-80b2-29051492c0e0","{""num_scrambled_semantic"":""8"",""num_scrambled_causal"":""4"",""num_scrambled_schematic"":""4"",""participantId"":""B7BCC484B8354EA690EA40756B9A34C6"",""assignmentId"":""46e1b6b7-0ec1-41a9-9fe0-44093e201cc9"",""projectId"":""ba640c14-69c5-453e-80b2-29051492c0e0""}","https://test12345.live/?num_scrambled_semantic=8&num_scrambled_causal=4&num_scrambled_schematic=4&participantId=B7BCC484B8354EA690EA40756B9A34C6&assignmentId=46e1b6b7-0ec1-41a9-9fe0-44093e201cc9&projectId=ba640c14-69c5-453e-80b2-29051492c0e0","B7BCC484B8354EA690EA40756B9A34C6-2025-05-14-20-53-36","","null","","images/semantic_sequence/visiting_cities_semantic/visiting_cities_semantic_7.png","null","",""
"","","","","","image-button-response","108","519705","0.0-14.0-1.0-1.6","B7BCC484B8354EA690EA40756B9A34C6","B7BCC484B8354EA690EA40756B9A34C6","46e1b6b7-0ec1-41a9-9fe0-44093e201cc9","ba640c14-69c5-453e-80b2-29051492c0e0","{""num_scrambled_semantic"":""8"",""num_scrambled_causal"":""4"",""num_scrambled_schematic"":""4"",""participantId"":""B7BCC484B8354EA690EA40756B9A34C6"",""assignmentId"":""46e1b6b7-0ec1-41a9-9fe0-44093e201cc9"",""projectId"":""ba640c14-69c5-453e-80b2-29051492c0e0""}","https://test12345.live/?num_scrambled_semantic=8&num_scrambled_causal=4&num_scrambled_schematic=4&participantId=B7BCC484B8354EA690EA40756B9A34C6&assignmentId=46e1b6b7-0ec1-41a9-9fe0-44093e201cc9&projectId=ba640c14-69c5-453e-80b2-29051492c0e0","B7BCC484B8354EA690EA40756B9A34C6-2025-05-14-20-53-36","","1230","","images/semantic_sequence/visiting_cities_semantic/visiting_cities_semantic_7.png","1","",""
"","","","","","image-button-response","109","521514","0.0-14.0-1.0-2.6","B7BCC484B8354EA690EA40756B9A34C6","B7BCC484B8354EA690EA40756B9A34C6","46e1b6b7-0ec1-41a9-9fe0-44093e201cc9","ba640c14-69c5-453e-80b2-29051492c0e0","{""num_scrambled_semantic"":""8"",""num_scrambled_causal"":""4"",""num_scrambled_schematic"":""4"",""participantId"":""B7BCC484B8354EA690EA40756B9A34C6"",""assignmentId"":""46e1b6b7-0ec1-41a9-9fe0-44093e201cc9"",""projectId"":""ba640c14-69c5-453e-80b2-29051492c0e0""}","https://test12345.live/?num_scrambled_semantic=8&num_scrambled_causal=4&num_scrambled_schematic=4&participantId=B7BCC484B8354EA690EA40756B9A34C6&assignmentId=46e1b6b7-0ec1-41a9-9fe0-44093e201cc9&projectId=ba640c14-69c5-453e-80b2-29051492c0e0","B7BCC484B8354EA690EA40756B9A34C6-2025-05-14-20-53-36","","null","","[]","null","",""
"","","","","","image-button-response","110","526015","0.0-14.0-1.0-0.7","B7BCC484B8354EA690EA40756B9A34C6","B7BCC484B8354EA690EA40756B9A34C6","46e1b6b7-0ec1-41a9-9fe0-44093e201cc9","ba640c14-69c5-453e-80b2-29051492c0e0","{""num_scrambled_semantic"":""8"",""num_scrambled_causal"":""4"",""num_scrambled_schematic"":""4"",""participantId"":""B7BCC484B8354EA690EA40756B9A34C6"",""assignmentId"":""46e1b6b7-0ec1-41a9-9fe0-44093e201cc9"",""projectId"":""ba640c14-69c5-453e-80b2-29051492c0e0""}","https://test12345.live/?num_scrambled_semantic=8&num_scrambled_causal=4&num_scrambled_schematic=4&participantId=B7BCC484B8354EA690EA40756B9A34C6&assignmentId=46e1b6b7-0ec1-41a9-9fe0-44093e201cc9&projectId=ba640c14-69c5-453e-80b2-29051492c0e0","B7BCC484B8354EA690EA40756B9A34C6-2025-05-14-20-53-36","","null","","images/semantic_sequence/visiting_cities_semantic/visiting_cities_semantic_8.png","null","",""
"","","","","","image-button-response","111","526740","0.0-14.0-1.0-1.7","B7BCC484B8354EA690EA40756B9A34C6","B7BCC484B8354EA690EA40756B9A34C6","46e1b6b7-0ec1-41a9-9fe0-44093e201cc9","ba640c14-69c5-453e-80b2-29051492c0e0","{""num_scrambled_semantic"":""8"",""num_scrambled_causal"":""4"",""num_scrambled_schematic"":""4"",""participantId"":""B7BCC484B8354EA690EA40756B9A34C6"",""assignmentId"":""46e1b6b7-0ec1-41a9-9fe0-44093e201cc9"",""projectId"":""ba640c14-69c5-453e-80b2-29051492c0e0""}","https://test12345.live/?num_scrambled_semantic=8&num_scrambled_causal=4&num_scrambled_schematic=4&participantId=B7BCC484B8354EA690EA40756B9A34C6&assignmentId=46e1b6b7-0ec1-41a9-9fe0-44093e201cc9&projectId=ba640c14-69c5-453e-80b2-29051492c0e0","B7BCC484B8354EA690EA40756B9A34C6-2025-05-14-20-53-36","","724","","images/semantic_sequence/visiting_cities_semantic/visiting_cities_semantic_8.png","1","",""
"","","","","","image-button-response","112","528550","0.0-14.0-1.0-2.7","B7BCC484B8354EA690EA40756B9A34C6","B7BCC484B8354EA690EA40756B9A34C6","46e1b6b7-0ec1-41a9-9fe0-44093e201cc9","ba640c14-69c5-453e-80b2-29051492c0e0","{""num_scrambled_semantic"":""8"",""num_scrambled_causal"":""4"",""num_scrambled_schematic"":""4"",""participantId"":""B7BCC484B8354EA690EA40756B9A34C6"",""assignmentId"":""46e1b6b7-0ec1-41a9-9fe0-44093e201cc9"",""projectId"":""ba640c14-69c5-453e-80b2-29051492c0e0""}","https://test12345.live/?num_scrambled_semantic=8&num_scrambled_causal=4&num_scrambled_schematic=4&participantId=B7BCC484B8354EA690EA40756B9A34C6&assignmentId=46e1b6b7-0ec1-41a9-9fe0-44093e201cc9&projectId=ba640c14-69c5-453e-80b2-29051492c0e0","B7BCC484B8354EA690EA40756B9A34C6-2025-05-14-20-53-36","","null","","[]","null","",""
"","","","","","image-button-response","113","533055","0.0-14.0-1.0-0.8","B7BCC484B8354EA690EA40756B9A34C6","B7BCC484B8354EA690EA40756B9A34C6","46e1b6b7-0ec1-41a9-9fe0-44093e201cc9","ba640c14-69c5-453e-80b2-29051492c0e0","{""num_scrambled_semantic"":""8"",""num_scrambled_causal"":""4"",""num_scrambled_schematic"":""4"",""participantId"":""B7BCC484B8354EA690EA40756B9A34C6"",""assignmentId"":""46e1b6b7-0ec1-41a9-9fe0-44093e201cc9"",""projectId"":""ba640c14-69c5-453e-80b2-29051492c0e0""}","https://test12345.live/?num_scrambled_semantic=8&num_scrambled_causal=4&num_scrambled_schematic=4&participantId=B7BCC484B8354EA690EA40756B9A34C6&assignmentId=46e1b6b7-0ec1-41a9-9fe0-44093e201cc9&projectId=ba640c14-69c5-453e-80b2-29051492c0e0","B7BCC484B8354EA690EA40756B9A34C6-2025-05-14-20-53-36","","null","","images/semantic_sequence/visiting_cities_semantic/visiting_cities_semantic_9.png","null","",""
