"success","timeout","failed_images","failed_audio","failed_video","trial_type","trial_index","time_elapsed","internal_node_id","subject","subject_id","study_id","session_id","urlvar","current_url","audio_id","view_history","rt","device_id","stimulus","response","estimated_stimulus_onset","seq_name"
"true","false","[]","[]","[]","preload","0","329981","0.0-0.0","B9CAB7E6DB6D41008B3DE44C35936159","B9CAB7E6DB6D41008B3DE44C35936159","0198ee49-e983-75b1-aadf-d9d1966b20d7","0198ee3c-27ac-7803-a9ea-f3b4ad4ad678","{""num_scrambled_semantic"":""8"",""num_scrambled_causal"":""4"",""num_scrambled_schematic"":""4"",""participantId"":""B9CAB7E6DB6D41008B3DE44C35936159"",""assignmentId"":""0198ee49-e983-75b1-aadf-d9d1966b20d7"",""projectId"":""0198ee3c-27ac-7803-a9ea-f3b4ad4ad678""}","https://test12345.live/?num_scrambled_semantic=8&num_scrambled_causal=4&num_scrambled_schematic=4&participantId=B9CAB7E6DB6D41008B3DE44C35936159&assignmentId=0198ee49-e983-75b1-aadf-d9d1966b20d7&projectId=0198ee3c-27ac-7803-a9ea-f3b4ad4ad678","B9CAB7E6DB6D41008B3DE44C35936159-2025-08-28-02-32-23","","","","","","",""
"","","","","","instructions","1","423676","0.0-1.0","B9CAB7E6DB6D41008B3DE44C35936159","B9CAB7E6DB6D41008B3DE44C35936159","0198ee49-e983-75b1-aadf-d9d1966b20d7","0198ee3c-27ac-7803-a9ea-f3b4ad4ad678","{""num_scrambled_semantic"":""8"",""num_scrambled_causal"":""4"",""num_scrambled_schematic"":""4"",""participantId"":""B9CAB7E6DB6D41008B3DE44C35936159"",""assignmentId"":""0198ee49-e983-75b1-aadf-d9d1966b20d7"",""projectId"":""0198ee3c-27ac-7803-a9ea-f3b4ad4ad678""}","https://test12345.live/?num_scrambled_semantic=8&num_scrambled_causal=4&num_scrambled_schematic=4&participantId=B9CAB7E6DB6D41008B3DE44C35936159&assignmentId=0198ee49-e983-75b1-aadf-d9d1966b20d7&projectId=0198ee3c-27ac-7803-a9ea-f3b4ad4ad678","B9CAB7E6DB6D41008B3DE44C35936159-2025-08-28-02-32-23","[{""page_index"":0,""viewing_time"":93688}]","93691","","","","",""
"","","","","","instructions","2","721315","0.0-2.0","B9CAB7E6DB6D41008B3DE44C35936159","B9CAB7E6DB6D41008B3DE44C35936159","0198ee49-e983-75b1-aadf-d9d1966b20d7","0198ee3c-27ac-7803-a9ea-f3b4ad4ad678","{""num_scrambled_semantic"":""8"",""num_scrambled_causal"":""4"",""num_scrambled_schematic"":""4"",""participantId"":""B9CAB7E6DB6D41008B3DE44C35936159"",""assignmentId"":""0198ee49-e983-75b1-aadf-d9d1966b20d7"",""projectId"":""0198ee3c-27ac-7803-a9ea-f3b4ad4ad678""}","https://test12345.live/?num_scrambled_semantic=8&num_scrambled_causal=4&num_scrambled_schematic=4&participantId=B9CAB7E6DB6D41008B3DE44C35936159&assignmentId=0198ee49-e983-75b1-aadf-d9d1966b20d7&projectId=0198ee3c-27ac-7803-a9ea-f3b4ad4ad678","B9CAB7E6DB6D41008B3DE44C35936159-2025-08-28-02-32-23","[{""page_index"":0,""viewing_time"":297636}]","297637","","","","",""
"true","","","","","fullscreen","3","724518","0.0-3.0","B9CAB7E6DB6D41008B3DE44C35936159","B9CAB7E6DB6D41008B3DE44C35936159","0198ee49-e983-75b1-aadf-d9d1966b20d7","0198ee3c-27ac-7803-a9ea-f3b4ad4ad678","{""num_scrambled_semantic"":""8"",""num_scrambled_causal"":""4"",""num_scrambled_schematic"":""4"",""participantId"":""B9CAB7E6DB6D41008B3DE44C35936159"",""assignmentId"":""0198ee49-e983-75b1-aadf-d9d1966b20d7"",""projectId"":""0198ee3c-27ac-7803-a9ea-f3b4ad4ad678""}","https://test12345.live/?num_scrambled_semantic=8&num_scrambled_causal=4&num_scrambled_schematic=4&participantId=B9CAB7E6DB6D41008B3DE44C35936159&assignmentId=0198ee49-e983-75b1-aadf-d9d1966b20d7&projectId=0198ee3c-27ac-7803-a9ea-f3b4ad4ad678","B9CAB7E6DB6D41008B3DE44C35936159-2025-08-28-02-32-23","","2196","","","","",""
"","","","","","initialize-microphone","4","738812","0.0-4.0-0.0","B9CAB7E6DB6D41008B3DE44C35936159","B9CAB7E6DB6D41008B3DE44C35936159","0198ee49-e983-75b1-aadf-d9d1966b20d7","0198ee3c-27ac-7803-a9ea-f3b4ad4ad678","{""num_scrambled_semantic"":""8"",""num_scrambled_causal"":""4"",""num_scrambled_schematic"":""4"",""participantId"":""B9CAB7E6DB6D41008B3DE44C35936159"",""assignmentId"":""0198ee49-e983-75b1-aadf-d9d1966b20d7"",""projectId"":""0198ee3c-27ac-7803-a9ea-f3b4ad4ad678""}","https://test12345.live/?num_scrambled_semantic=8&num_scrambled_causal=4&num_scrambled_schematic=4&participantId=B9CAB7E6DB6D41008B3DE44C35936159&assignmentId=0198ee49-e983-75b1-aadf-d9d1966b20d7&projectId=0198ee3c-27ac-7803-a9ea-f3b4ad4ad678","B9CAB7E6DB6D41008B3DE44C35936159-2025-08-28-02-32-23","","","812e9bf9822db525c854b55531394d4fe9af526cb67f577f8db1eb068aee671d","","","",""
"","","","","","html-audio-response","5","747378","0.0-4.0-1.0","B9CAB7E6DB6D41008B3DE44C35936159","B9CAB7E6DB6D41008B3DE44C35936159","0198ee49-e983-75b1-aadf-d9d1966b20d7","0198ee3c-27ac-7803-a9ea-f3b4ad4ad678","{""num_scrambled_semantic"":""8"",""num_scrambled_causal"":""4"",""num_scrambled_schematic"":""4"",""participantId"":""B9CAB7E6DB6D41008B3DE44C35936159"",""assignmentId"":""0198ee49-e983-75b1-aadf-d9d1966b20d7"",""projectId"":""0198ee3c-27ac-7803-a9ea-f3b4ad4ad678""}","https://test12345.live/?num_scrambled_semantic=8&num_scrambled_causal=4&num_scrambled_schematic=4&participantId=B9CAB7E6DB6D41008B3DE44C35936159&assignmentId=0198ee49-e983-75b1-aadf-d9d1966b20d7&projectId=0198ee3c-27ac-7803-a9ea-f3b4ad4ad678","B9CAB7E6DB6D41008B3DE44C35936159-2025-08-28-02-32-23","","3118","","<span style=""color: red; font-size: 24px""> NOW RECORDING</span>
        <p>Please test Microphone</p>","","4",""
"","","","","","html-button-response","6","749441","0.0-4.0-2.0","B9CAB7E6DB6D41008B3DE44C35936159","B9CAB7E6DB6D41008B3DE44C35936159","0198ee49-e983-75b1-aadf-d9d1966b20d7","0198ee3c-27ac-7803-a9ea-f3b4ad4ad678","{""num_scrambled_semantic"":""8"",""num_scrambled_causal"":""4"",""num_scrambled_schematic"":""4"",""participantId"":""B9CAB7E6DB6D41008B3DE44C35936159"",""assignmentId"":""0198ee49-e983-75b1-aadf-d9d1966b20d7"",""projectId"":""0198ee3c-27ac-7803-a9ea-f3b4ad4ad678""}","https://test12345.live/?num_scrambled_semantic=8&num_scrambled_causal=4&num_scrambled_schematic=4&participantId=B9CAB7E6DB6D41008B3DE44C35936159&assignmentId=0198ee49-e983-75b1-aadf-d9d1966b20d7&projectId=0198ee3c-27ac-7803-a9ea-f3b4ad4ad678","B9CAB7E6DB6D41008B3DE44C35936159-2025-08-28-02-32-23","","2061","","<p style=""font-size:48px; color:red;"">Is Microphone OK?</p>","1","",""
"","","","","","instructions","7","770152","0.0-5.0","B9CAB7E6DB6D41008B3DE44C35936159","B9CAB7E6DB6D41008B3DE44C35936159","0198ee49-e983-75b1-aadf-d9d1966b20d7","0198ee3c-27ac-7803-a9ea-f3b4ad4ad678","{""num_scrambled_semantic"":""8"",""num_scrambled_causal"":""4"",""num_scrambled_schematic"":""4"",""participantId"":""B9CAB7E6DB6D41008B3DE44C35936159"",""assignmentId"":""0198ee49-e983-75b1-aadf-d9d1966b20d7"",""projectId"":""0198ee3c-27ac-7803-a9ea-f3b4ad4ad678""}","https://test12345.live/?num_scrambled_semantic=8&num_scrambled_causal=4&num_scrambled_schematic=4&participantId=B9CAB7E6DB6D41008B3DE44C35936159&assignmentId=0198ee49-e983-75b1-aadf-d9d1966b20d7&projectId=0198ee3c-27ac-7803-a9ea-f3b4ad4ad678","B9CAB7E6DB6D41008B3DE44C35936159-2025-08-28-02-32-23","[{""page_index"":0,""viewing_time"":14963},{""page_index"":1,""viewing_time"":5747}]","20710","","","","",""
"","","","","","image-button-response","8","776157","0.0-6.0-0.0","B9CAB7E6DB6D41008B3DE44C35936159","B9CAB7E6DB6D41008B3DE44C35936159","0198ee49-e983-75b1-aadf-d9d1966b20d7","0198ee3c-27ac-7803-a9ea-f3b4ad4ad678","{""num_scrambled_semantic"":""8"",""num_scrambled_causal"":""4"",""num_scrambled_schematic"":""4"",""participantId"":""B9CAB7E6DB6D41008B3DE44C35936159"",""assignmentId"":""0198ee49-e983-75b1-aadf-d9d1966b20d7"",""projectId"":""0198ee3c-27ac-7803-a9ea-f3b4ad4ad678""}","https://test12345.live/?num_scrambled_semantic=8&num_scrambled_causal=4&num_scrambled_schematic=4&participantId=B9CAB7E6DB6D41008B3DE44C35936159&assignmentId=0198ee49-e983-75b1-aadf-d9d1966b20d7&projectId=0198ee3c-27ac-7803-a9ea-f3b4ad4ad678","B9CAB7E6DB6D41008B3DE44C35936159-2025-08-28-02-32-23","","null","","images/instructions/movie_0.png","null","",""
"","","","","","image-button-response","9","780661","0.0-6.0-1.0-0.0","B9CAB7E6DB6D41008B3DE44C35936159","B9CAB7E6DB6D41008B3DE44C35936159","0198ee49-e983-75b1-aadf-d9d1966b20d7","0198ee3c-27ac-7803-a9ea-f3b4ad4ad678","{""num_scrambled_semantic"":""8"",""num_scrambled_causal"":""4"",""num_scrambled_schematic"":""4"",""participantId"":""B9CAB7E6DB6D41008B3DE44C35936159"",""assignmentId"":""0198ee49-e983-75b1-aadf-d9d1966b20d7"",""projectId"":""0198ee3c-27ac-7803-a9ea-f3b4ad4ad678""}","https://test12345.live/?num_scrambled_semantic=8&num_scrambled_causal=4&num_scrambled_schematic=4&participantId=B9CAB7E6DB6D41008B3DE44C35936159&assignmentId=0198ee49-e983-75b1-aadf-d9d1966b20d7&projectId=0198ee3c-27ac-7803-a9ea-f3b4ad4ad678","B9CAB7E6DB6D41008B3DE44C35936159-2025-08-28-02-32-23","","null","","images/instructions/movie_1.png","null","",""
"","","","","","image-button-response","10","783872","0.0-6.0-1.0-1.0","B9CAB7E6DB6D41008B3DE44C35936159","B9CAB7E6DB6D41008B3DE44C35936159","0198ee49-e983-75b1-aadf-d9d1966b20d7","0198ee3c-27ac-7803-a9ea-f3b4ad4ad678","{""num_scrambled_semantic"":""8"",""num_scrambled_causal"":""4"",""num_scrambled_schematic"":""4"",""participantId"":""B9CAB7E6DB6D41008B3DE44C35936159"",""assignmentId"":""0198ee49-e983-75b1-aadf-d9d1966b20d7"",""projectId"":""0198ee3c-27ac-7803-a9ea-f3b4ad4ad678""}","https://test12345.live/?num_scrambled_semantic=8&num_scrambled_causal=4&num_scrambled_schematic=4&participantId=B9CAB7E6DB6D41008B3DE44C35936159&assignmentId=0198ee49-e983-75b1-aadf-d9d1966b20d7&projectId=0198ee3c-27ac-7803-a9ea-f3b4ad4ad678","B9CAB7E6DB6D41008B3DE44C35936159-2025-08-28-02-32-23","","3207","","images/instructions/movie_1.png","0","",""
"","","","","","image-button-response","11","785676","0.0-6.0-1.0-2.0","B9CAB7E6DB6D41008B3DE44C35936159","B9CAB7E6DB6D41008B3DE44C35936159","0198ee49-e983-75b1-aadf-d9d1966b20d7","0198ee3c-27ac-7803-a9ea-f3b4ad4ad678","{""num_scrambled_semantic"":""8"",""num_scrambled_causal"":""4"",""num_scrambled_schematic"":""4"",""participantId"":""B9CAB7E6DB6D41008B3DE44C35936159"",""assignmentId"":""0198ee49-e983-75b1-aadf-d9d1966b20d7"",""projectId"":""0198ee3c-27ac-7803-a9ea-f3b4ad4ad678""}","https://test12345.live/?num_scrambled_semantic=8&num_scrambled_causal=4&num_scrambled_schematic=4&participantId=B9CAB7E6DB6D41008B3DE44C35936159&assignmentId=0198ee49-e983-75b1-aadf-d9d1966b20d7&projectId=0198ee3c-27ac-7803-a9ea-f3b4ad4ad678","B9CAB7E6DB6D41008B3DE44C35936159-2025-08-28-02-32-23","","null","","[]","null","",""
"","","","","","image-button-response","12","790179","0.0-6.0-1.0-0.1","B9CAB7E6DB6D41008B3DE44C35936159","B9CAB7E6DB6D41008B3DE44C35936159","0198ee49-e983-75b1-aadf-d9d1966b20d7","0198ee3c-27ac-7803-a9ea-f3b4ad4ad678","{""num_scrambled_semantic"":""8"",""num_scrambled_causal"":""4"",""num_scrambled_schematic"":""4"",""participantId"":""B9CAB7E6DB6D41008B3DE44C35936159"",""assignmentId"":""0198ee49-e983-75b1-aadf-d9d1966b20d7"",""projectId"":""0198ee3c-27ac-7803-a9ea-f3b4ad4ad678""}","https://test12345.live/?num_scrambled_semantic=8&num_scrambled_causal=4&num_scrambled_schematic=4&participantId=B9CAB7E6DB6D41008B3DE44C35936159&assignmentId=0198ee49-e983-75b1-aadf-d9d1966b20d7&projectId=0198ee3c-27ac-7803-a9ea-f3b4ad4ad678","B9CAB7E6DB6D41008B3DE44C35936159-2025-08-28-02-32-23","","null","","images/instructions/movie_2.png","null","",""
"","","","","","image-button-response","13","792371","0.0-6.0-1.0-1.1","B9CAB7E6DB6D41008B3DE44C35936159","B9CAB7E6DB6D41008B3DE44C35936159","0198ee49-e983-75b1-aadf-d9d1966b20d7","0198ee3c-27ac-7803-a9ea-f3b4ad4ad678","{""num_scrambled_semantic"":""8"",""num_scrambled_causal"":""4"",""num_scrambled_schematic"":""4"",""participantId"":""B9CAB7E6DB6D41008B3DE44C35936159"",""assignmentId"":""0198ee49-e983-75b1-aadf-d9d1966b20d7"",""projectId"":""0198ee3c-27ac-7803-a9ea-f3b4ad4ad678""}","https://test12345.live/?num_scrambled_semantic=8&num_scrambled_causal=4&num_scrambled_schematic=4&participantId=B9CAB7E6DB6D41008B3DE44C35936159&assignmentId=0198ee49-e983-75b1-aadf-d9d1966b20d7&projectId=0198ee3c-27ac-7803-a9ea-f3b4ad4ad678","B9CAB7E6DB6D41008B3DE44C35936159-2025-08-28-02-32-23","","2189","","images/instructions/movie_2.png","0","",""
"","","","","","image-button-response","14","794173","0.0-6.0-1.0-2.1","B9CAB7E6DB6D41008B3DE44C35936159","B9CAB7E6DB6D41008B3DE44C35936159","0198ee49-e983-75b1-aadf-d9d1966b20d7","0198ee3c-27ac-7803-a9ea-f3b4ad4ad678","{""num_scrambled_semantic"":""8"",""num_scrambled_causal"":""4"",""num_scrambled_schematic"":""4"",""participantId"":""B9CAB7E6DB6D41008B3DE44C35936159"",""assignmentId"":""0198ee49-e983-75b1-aadf-d9d1966b20d7"",""projectId"":""0198ee3c-27ac-7803-a9ea-f3b4ad4ad678""}","https://test12345.live/?num_scrambled_semantic=8&num_scrambled_causal=4&num_scrambled_schematic=4&participantId=B9CAB7E6DB6D41008B3DE44C35936159&assignmentId=0198ee49-e983-75b1-aadf-d9d1966b20d7&projectId=0198ee3c-27ac-7803-a9ea-f3b4ad4ad678","B9CAB7E6DB6D41008B3DE44C35936159-2025-08-28-02-32-23","","null","","[]","null","",""
"","","","","","image-button-response","15","798678","0.0-6.0-1.0-0.2","B9CAB7E6DB6D41008B3DE44C35936159","B9CAB7E6DB6D41008B3DE44C35936159","0198ee49-e983-75b1-aadf-d9d1966b20d7","0198ee3c-27ac-7803-a9ea-f3b4ad4ad678","{""num_scrambled_semantic"":""8"",""num_scrambled_causal"":""4"",""num_scrambled_schematic"":""4"",""participantId"":""B9CAB7E6DB6D41008B3DE44C35936159"",""assignmentId"":""0198ee49-e983-75b1-aadf-d9d1966b20d7"",""projectId"":""0198ee3c-27ac-7803-a9ea-f3b4ad4ad678""}","https://test12345.live/?num_scrambled_semantic=8&num_scrambled_causal=4&num_scrambled_schematic=4&participantId=B9CAB7E6DB6D41008B3DE44C35936159&assignmentId=0198ee49-e983-75b1-aadf-d9d1966b20d7&projectId=0198ee3c-27ac-7803-a9ea-f3b4ad4ad678","B9CAB7E6DB6D41008B3DE44C35936159-2025-08-28-02-32-23","","null","","images/instructions/movie_3.png","null","",""
"","","","","","image-button-response","16","799893","0.0-6.0-1.0-1.2","B9CAB7E6DB6D41008B3DE44C35936159","B9CAB7E6DB6D41008B3DE44C35936159","0198ee49-e983-75b1-aadf-d9d1966b20d7","0198ee3c-27ac-7803-a9ea-f3b4ad4ad678","{""num_scrambled_semantic"":""8"",""num_scrambled_causal"":""4"",""num_scrambled_schematic"":""4"",""participantId"":""B9CAB7E6DB6D41008B3DE44C35936159"",""assignmentId"":""0198ee49-e983-75b1-aadf-d9d1966b20d7"",""projectId"":""0198ee3c-27ac-7803-a9ea-f3b4ad4ad678""}","https://test12345.live/?num_scrambled_semantic=8&num_scrambled_causal=4&num_scrambled_schematic=4&participantId=B9CAB7E6DB6D41008B3DE44C35936159&assignmentId=0198ee49-e983-75b1-aadf-d9d1966b20d7&projectId=0198ee3c-27ac-7803-a9ea-f3b4ad4ad678","B9CAB7E6DB6D41008B3DE44C35936159-2025-08-28-02-32-23","","1212","","images/instructions/movie_3.png","0","",""
"","","","","","image-button-response","17","801696","0.0-6.0-1.0-2.2","B9CAB7E6DB6D41008B3DE44C35936159","B9CAB7E6DB6D41008B3DE44C35936159","0198ee49-e983-75b1-aadf-d9d1966b20d7","0198ee3c-27ac-7803-a9ea-f3b4ad4ad678","{""num_scrambled_semantic"":""8"",""num_scrambled_causal"":""4"",""num_scrambled_schematic"":""4"",""participantId"":""B9CAB7E6DB6D41008B3DE44C35936159"",""assignmentId"":""0198ee49-e983-75b1-aadf-d9d1966b20d7"",""projectId"":""0198ee3c-27ac-7803-a9ea-f3b4ad4ad678""}","https://test12345.live/?num_scrambled_semantic=8&num_scrambled_causal=4&num_scrambled_schematic=4&participantId=B9CAB7E6DB6D41008B3DE44C35936159&assignmentId=0198ee49-e983-75b1-aadf-d9d1966b20d7&projectId=0198ee3c-27ac-7803-a9ea-f3b4ad4ad678","B9CAB7E6DB6D41008B3DE44C35936159-2025-08-28-02-32-23","","null","","[]","null","",""
"","","","","","image-button-response","18","806199","0.0-6.0-1.0-0.3","B9CAB7E6DB6D41008B3DE44C35936159","B9CAB7E6DB6D41008B3DE44C35936159","0198ee49-e983-75b1-aadf-d9d1966b20d7","0198ee3c-27ac-7803-a9ea-f3b4ad4ad678","{""num_scrambled_semantic"":""8"",""num_scrambled_causal"":""4"",""num_scrambled_schematic"":""4"",""participantId"":""B9CAB7E6DB6D41008B3DE44C35936159"",""assignmentId"":""0198ee49-e983-75b1-aadf-d9d1966b20d7"",""projectId"":""0198ee3c-27ac-7803-a9ea-f3b4ad4ad678""}","https://test12345.live/?num_scrambled_semantic=8&num_scrambled_causal=4&num_scrambled_schematic=4&participantId=B9CAB7E6DB6D41008B3DE44C35936159&assignmentId=0198ee49-e983-75b1-aadf-d9d1966b20d7&projectId=0198ee3c-27ac-7803-a9ea-f3b4ad4ad678","B9CAB7E6DB6D41008B3DE44C35936159-2025-08-28-02-32-23","","null","","images/instructions/movie_4.png","null","",""
"","","","","","image-button-response","19","808883","0.0-6.0-1.0-1.3","B9CAB7E6DB6D41008B3DE44C35936159","B9CAB7E6DB6D41008B3DE44C35936159","0198ee49-e983-75b1-aadf-d9d1966b20d7","0198ee3c-27ac-7803-a9ea-f3b4ad4ad678","{""num_scrambled_semantic"":""8"",""num_scrambled_causal"":""4"",""num_scrambled_schematic"":""4"",""participantId"":""B9CAB7E6DB6D41008B3DE44C35936159"",""assignmentId"":""0198ee49-e983-75b1-aadf-d9d1966b20d7"",""projectId"":""0198ee3c-27ac-7803-a9ea-f3b4ad4ad678""}","https://test12345.live/?num_scrambled_semantic=8&num_scrambled_causal=4&num_scrambled_schematic=4&participantId=B9CAB7E6DB6D41008B3DE44C35936159&assignmentId=0198ee49-e983-75b1-aadf-d9d1966b20d7&projectId=0198ee3c-27ac-7803-a9ea-f3b4ad4ad678","B9CAB7E6DB6D41008B3DE44C35936159-2025-08-28-02-32-23","","2680","","images/instructions/movie_4.png","0","",""
"","","","","","image-button-response","20","810687","0.0-6.0-1.0-2.3","B9CAB7E6DB6D41008B3DE44C35936159","B9CAB7E6DB6D41008B3DE44C35936159","0198ee49-e983-75b1-aadf-d9d1966b20d7","0198ee3c-27ac-7803-a9ea-f3b4ad4ad678","{""num_scrambled_semantic"":""8"",""num_scrambled_causal"":""4"",""num_scrambled_schematic"":""4"",""participantId"":""B9CAB7E6DB6D41008B3DE44C35936159"",""assignmentId"":""0198ee49-e983-75b1-aadf-d9d1966b20d7"",""projectId"":""0198ee3c-27ac-7803-a9ea-f3b4ad4ad678""}","https://test12345.live/?num_scrambled_semantic=8&num_scrambled_causal=4&num_scrambled_schematic=4&participantId=B9CAB7E6DB6D41008B3DE44C35936159&assignmentId=0198ee49-e983-75b1-aadf-d9d1966b20d7&projectId=0198ee3c-27ac-7803-a9ea-f3b4ad4ad678","B9CAB7E6DB6D41008B3DE44C35936159-2025-08-28-02-32-23","","null","","[]","null","",""
"","","","","","instructions","21","817507","0.0-7.0","B9CAB7E6DB6D41008B3DE44C35936159","B9CAB7E6DB6D41008B3DE44C35936159","0198ee49-e983-75b1-aadf-d9d1966b20d7","0198ee3c-27ac-7803-a9ea-f3b4ad4ad678","{""num_scrambled_semantic"":""8"",""num_scrambled_causal"":""4"",""num_scrambled_schematic"":""4"",""participantId"":""B9CAB7E6DB6D41008B3DE44C35936159"",""assignmentId"":""0198ee49-e983-75b1-aadf-d9d1966b20d7"",""projectId"":""0198ee3c-27ac-7803-a9ea-f3b4ad4ad678""}","https://test12345.live/?num_scrambled_semantic=8&num_scrambled_causal=4&num_scrambled_schematic=4&participantId=B9CAB7E6DB6D41008B3DE44C35936159&assignmentId=0198ee49-e983-75b1-aadf-d9d1966b20d7&projectId=0198ee3c-27ac-7803-a9ea-f3b4ad4ad678","B9CAB7E6DB6D41008B3DE44C35936159-2025-08-28-02-32-23","[{""page_index"":0,""viewing_time"":6818}]","6819","","","","",""
"","","","","","html-audio-response","22","923930","0.0-8.0","B9CAB7E6DB6D41008B3DE44C35936159","B9CAB7E6DB6D41008B3DE44C35936159","0198ee49-e983-75b1-aadf-d9d1966b20d7","0198ee3c-27ac-7803-a9ea-f3b4ad4ad678","{""num_scrambled_semantic"":""8"",""num_scrambled_causal"":""4"",""num_scrambled_schematic"":""4"",""participantId"":""B9CAB7E6DB6D41008B3DE44C35936159"",""assignmentId"":""0198ee49-e983-75b1-aadf-d9d1966b20d7"",""projectId"":""0198ee3c-27ac-7803-a9ea-f3b4ad4ad678""}","https://test12345.live/?num_scrambled_semantic=8&num_scrambled_causal=4&num_scrambled_schematic=4&participantId=B9CAB7E6DB6D41008B3DE44C35936159&assignmentId=0198ee49-e983-75b1-aadf-d9d1966b20d7&projectId=0198ee3c-27ac-7803-a9ea-f3b4ad4ad678","B9CAB7E6DB6D41008B3DE44C35936159-2025-08-28-02-32-23","","8517","","[""<span style=\""color: red; font-size: 24px\""> NOW RECORDING</span><p>Please say out loud all the images you saw, in the order of the story they create. Try to recall the sequence of events as they appeared in the story, not necessarily the order they were presented on the screen.</p>""]","","3",""
"","","","","","instructions","23","925965","0.0-9.0","B9CAB7E6DB6D41008B3DE44C35936159","B9CAB7E6DB6D41008B3DE44C35936159","0198ee49-e983-75b1-aadf-d9d1966b20d7","0198ee3c-27ac-7803-a9ea-f3b4ad4ad678","{""num_scrambled_semantic"":""8"",""num_scrambled_causal"":""4"",""num_scrambled_schematic"":""4"",""participantId"":""B9CAB7E6DB6D41008B3DE44C35936159"",""assignmentId"":""0198ee49-e983-75b1-aadf-d9d1966b20d7"",""projectId"":""0198ee3c-27ac-7803-a9ea-f3b4ad4ad678""}","https://test12345.live/?num_scrambled_semantic=8&num_scrambled_causal=4&num_scrambled_schematic=4&participantId=B9CAB7E6DB6D41008B3DE44C35936159&assignmentId=0198ee49-e983-75b1-aadf-d9d1966b20d7&projectId=0198ee3c-27ac-7803-a9ea-f3b4ad4ad678","B9CAB7E6DB6D41008B3DE44C35936159-2025-08-28-02-32-23","[{""page_index"":0,""viewing_time"":2027}]","2027","","","","",""
"","","","","","image-button-response","24","931967","0.0-10.0-0.0","B9CAB7E6DB6D41008B3DE44C35936159","B9CAB7E6DB6D41008B3DE44C35936159","0198ee49-e983-75b1-aadf-d9d1966b20d7","0198ee3c-27ac-7803-a9ea-f3b4ad4ad678","{""num_scrambled_semantic"":""8"",""num_scrambled_causal"":""4"",""num_scrambled_schematic"":""4"",""participantId"":""B9CAB7E6DB6D41008B3DE44C35936159"",""assignmentId"":""0198ee49-e983-75b1-aadf-d9d1966b20d7"",""projectId"":""0198ee3c-27ac-7803-a9ea-f3b4ad4ad678""}","https://test12345.live/?num_scrambled_semantic=8&num_scrambled_causal=4&num_scrambled_schematic=4&participantId=B9CAB7E6DB6D41008B3DE44C35936159&assignmentId=0198ee49-e983-75b1-aadf-d9d1966b20d7&projectId=0198ee3c-27ac-7803-a9ea-f3b4ad4ad678","B9CAB7E6DB6D41008B3DE44C35936159-2025-08-28-02-32-23","","null","","images/semantic_sequence/housework_semantic/housework_semantic_0.png","null","",""
"","","","","","image-button-response","25","936468","0.0-10.0-1.0-0.0","B9CAB7E6DB6D41008B3DE44C35936159","B9CAB7E6DB6D41008B3DE44C35936159","0198ee49-e983-75b1-aadf-d9d1966b20d7","0198ee3c-27ac-7803-a9ea-f3b4ad4ad678","{""num_scrambled_semantic"":""8"",""num_scrambled_causal"":""4"",""num_scrambled_schematic"":""4"",""participantId"":""B9CAB7E6DB6D41008B3DE44C35936159"",""assignmentId"":""0198ee49-e983-75b1-aadf-d9d1966b20d7"",""projectId"":""0198ee3c-27ac-7803-a9ea-f3b4ad4ad678""}","https://test12345.live/?num_scrambled_semantic=8&num_scrambled_causal=4&num_scrambled_schematic=4&participantId=B9CAB7E6DB6D41008B3DE44C35936159&assignmentId=0198ee49-e983-75b1-aadf-d9d1966b20d7&projectId=0198ee3c-27ac-7803-a9ea-f3b4ad4ad678","B9CAB7E6DB6D41008B3DE44C35936159-2025-08-28-02-32-23","","null","","images/semantic_sequence/housework_semantic/housework_semantic_1.png","null","",""
"","","","","","image-button-response","26","938253","0.0-10.0-1.0-1.0","B9CAB7E6DB6D41008B3DE44C35936159","B9CAB7E6DB6D41008B3DE44C35936159","0198ee49-e983-75b1-aadf-d9d1966b20d7","0198ee3c-27ac-7803-a9ea-f3b4ad4ad678","{""num_scrambled_semantic"":""8"",""num_scrambled_causal"":""4"",""num_scrambled_schematic"":""4"",""participantId"":""B9CAB7E6DB6D41008B3DE44C35936159"",""assignmentId"":""0198ee49-e983-75b1-aadf-d9d1966b20d7"",""projectId"":""0198ee3c-27ac-7803-a9ea-f3b4ad4ad678""}","https://test12345.live/?num_scrambled_semantic=8&num_scrambled_causal=4&num_scrambled_schematic=4&participantId=B9CAB7E6DB6D41008B3DE44C35936159&assignmentId=0198ee49-e983-75b1-aadf-d9d1966b20d7&projectId=0198ee3c-27ac-7803-a9ea-f3b4ad4ad678","B9CAB7E6DB6D41008B3DE44C35936159-2025-08-28-02-32-23","","1782","","images/semantic_sequence/housework_semantic/housework_semantic_1.png","0","",""
"","","","","","image-button-response","27","940055","0.0-10.0-1.0-2.0","B9CAB7E6DB6D41008B3DE44C35936159","B9CAB7E6DB6D41008B3DE44C35936159","0198ee49-e983-75b1-aadf-d9d1966b20d7","0198ee3c-27ac-7803-a9ea-f3b4ad4ad678","{""num_scrambled_semantic"":""8"",""num_scrambled_causal"":""4"",""num_scrambled_schematic"":""4"",""participantId"":""B9CAB7E6DB6D41008B3DE44C35936159"",""assignmentId"":""0198ee49-e983-75b1-aadf-d9d1966b20d7"",""projectId"":""0198ee3c-27ac-7803-a9ea-f3b4ad4ad678""}","https://test12345.live/?num_scrambled_semantic=8&num_scrambled_causal=4&num_scrambled_schematic=4&participantId=B9CAB7E6DB6D41008B3DE44C35936159&assignmentId=0198ee49-e983-75b1-aadf-d9d1966b20d7&projectId=0198ee3c-27ac-7803-a9ea-f3b4ad4ad678","B9CAB7E6DB6D41008B3DE44C35936159-2025-08-28-02-32-23","","null","","[]","null","",""
"","","","","","image-button-response","28","944559","0.0-10.0-1.0-0.1","B9CAB7E6DB6D41008B3DE44C35936159","B9CAB7E6DB6D41008B3DE44C35936159","0198ee49-e983-75b1-aadf-d9d1966b20d7","0198ee3c-27ac-7803-a9ea-f3b4ad4ad678","{""num_scrambled_semantic"":""8"",""num_scrambled_causal"":""4"",""num_scrambled_schematic"":""4"",""participantId"":""B9CAB7E6DB6D41008B3DE44C35936159"",""assignmentId"":""0198ee49-e983-75b1-aadf-d9d1966b20d7"",""projectId"":""0198ee3c-27ac-7803-a9ea-f3b4ad4ad678""}","https://test12345.live/?num_scrambled_semantic=8&num_scrambled_causal=4&num_scrambled_schematic=4&participantId=B9CAB7E6DB6D41008B3DE44C35936159&assignmentId=0198ee49-e983-75b1-aadf-d9d1966b20d7&projectId=0198ee3c-27ac-7803-a9ea-f3b4ad4ad678","B9CAB7E6DB6D41008B3DE44C35936159-2025-08-28-02-32-23","","null","","images/semantic_sequence/housework_semantic/housework_semantic_2.png","null","",""
"","","","","","image-button-response","29","945655","0.0-10.0-1.0-1.1","B9CAB7E6DB6D41008B3DE44C35936159","B9CAB7E6DB6D41008B3DE44C35936159","0198ee49-e983-75b1-aadf-d9d1966b20d7","0198ee3c-27ac-7803-a9ea-f3b4ad4ad678","{""num_scrambled_semantic"":""8"",""num_scrambled_causal"":""4"",""num_scrambled_schematic"":""4"",""participantId"":""B9CAB7E6DB6D41008B3DE44C35936159"",""assignmentId"":""0198ee49-e983-75b1-aadf-d9d1966b20d7"",""projectId"":""0198ee3c-27ac-7803-a9ea-f3b4ad4ad678""}","https://test12345.live/?num_scrambled_semantic=8&num_scrambled_causal=4&num_scrambled_schematic=4&participantId=B9CAB7E6DB6D41008B3DE44C35936159&assignmentId=0198ee49-e983-75b1-aadf-d9d1966b20d7&projectId=0198ee3c-27ac-7803-a9ea-f3b4ad4ad678","B9CAB7E6DB6D41008B3DE44C35936159-2025-08-28-02-32-23","","1094","","images/semantic_sequence/housework_semantic/housework_semantic_2.png","0","",""
"","","","","","image-button-response","30","947458","0.0-10.0-1.0-2.1","B9CAB7E6DB6D41008B3DE44C35936159","B9CAB7E6DB6D41008B3DE44C35936159","0198ee49-e983-75b1-aadf-d9d1966b20d7","0198ee3c-27ac-7803-a9ea-f3b4ad4ad678","{""num_scrambled_semantic"":""8"",""num_scrambled_causal"":""4"",""num_scrambled_schematic"":""4"",""participantId"":""B9CAB7E6DB6D41008B3DE44C35936159"",""assignmentId"":""0198ee49-e983-75b1-aadf-d9d1966b20d7"",""projectId"":""0198ee3c-27ac-7803-a9ea-f3b4ad4ad678""}","https://test12345.live/?num_scrambled_semantic=8&num_scrambled_causal=4&num_scrambled_schematic=4&participantId=B9CAB7E6DB6D41008B3DE44C35936159&assignmentId=0198ee49-e983-75b1-aadf-d9d1966b20d7&projectId=0198ee3c-27ac-7803-a9ea-f3b4ad4ad678","B9CAB7E6DB6D41008B3DE44C35936159-2025-08-28-02-32-23","","null","","[]","null","",""
"","","","","","image-button-response","31","951961","0.0-10.0-1.0-0.2","B9CAB7E6DB6D41008B3DE44C35936159","B9CAB7E6DB6D41008B3DE44C35936159","0198ee49-e983-75b1-aadf-d9d1966b20d7","0198ee3c-27ac-7803-a9ea-f3b4ad4ad678","{""num_scrambled_semantic"":""8"",""num_scrambled_causal"":""4"",""num_scrambled_schematic"":""4"",""participantId"":""B9CAB7E6DB6D41008B3DE44C35936159"",""assignmentId"":""0198ee49-e983-75b1-aadf-d9d1966b20d7"",""projectId"":""0198ee3c-27ac-7803-a9ea-f3b4ad4ad678""}","https://test12345.live/?num_scrambled_semantic=8&num_scrambled_causal=4&num_scrambled_schematic=4&participantId=B9CAB7E6DB6D41008B3DE44C35936159&assignmentId=0198ee49-e983-75b1-aadf-d9d1966b20d7&projectId=0198ee3c-27ac-7803-a9ea-f3b4ad4ad678","B9CAB7E6DB6D41008B3DE44C35936159-2025-08-28-02-32-23","","null","","images/semantic_sequence/housework_semantic/housework_semantic_3.png","null","",""
"","","","","","image-button-response","32","953468","0.0-10.0-1.0-1.2","B9CAB7E6DB6D41008B3DE44C35936159","B9CAB7E6DB6D41008B3DE44C35936159","0198ee49-e983-75b1-aadf-d9d1966b20d7","0198ee3c-27ac-7803-a9ea-f3b4ad4ad678","{""num_scrambled_semantic"":""8"",""num_scrambled_causal"":""4"",""num_scrambled_schematic"":""4"",""participantId"":""B9CAB7E6DB6D41008B3DE44C35936159"",""assignmentId"":""0198ee49-e983-75b1-aadf-d9d1966b20d7"",""projectId"":""0198ee3c-27ac-7803-a9ea-f3b4ad4ad678""}","https://test12345.live/?num_scrambled_semantic=8&num_scrambled_causal=4&num_scrambled_schematic=4&participantId=B9CAB7E6DB6D41008B3DE44C35936159&assignmentId=0198ee49-e983-75b1-aadf-d9d1966b20d7&projectId=0198ee3c-27ac-7803-a9ea-f3b4ad4ad678","B9CAB7E6DB6D41008B3DE44C35936159-2025-08-28-02-32-23","","1504","","images/semantic_sequence/housework_semantic/housework_semantic_3.png","0","",""
"","","","","","image-button-response","33","955270","0.0-10.0-1.0-2.2","B9CAB7E6DB6D41008B3DE44C35936159","B9CAB7E6DB6D41008B3DE44C35936159","0198ee49-e983-75b1-aadf-d9d1966b20d7","0198ee3c-27ac-7803-a9ea-f3b4ad4ad678","{""num_scrambled_semantic"":""8"",""num_scrambled_causal"":""4"",""num_scrambled_schematic"":""4"",""participantId"":""B9CAB7E6DB6D41008B3DE44C35936159"",""assignmentId"":""0198ee49-e983-75b1-aadf-d9d1966b20d7"",""projectId"":""0198ee3c-27ac-7803-a9ea-f3b4ad4ad678""}","https://test12345.live/?num_scrambled_semantic=8&num_scrambled_causal=4&num_scrambled_schematic=4&participantId=B9CAB7E6DB6D41008B3DE44C35936159&assignmentId=0198ee49-e983-75b1-aadf-d9d1966b20d7&projectId=0198ee3c-27ac-7803-a9ea-f3b4ad4ad678","B9CAB7E6DB6D41008B3DE44C35936159-2025-08-28-02-32-23","","null","","[]","null","",""
"","","","","","image-button-response","34","959772","0.0-10.0-1.0-0.3","B9CAB7E6DB6D41008B3DE44C35936159","B9CAB7E6DB6D41008B3DE44C35936159","0198ee49-e983-75b1-aadf-d9d1966b20d7","0198ee3c-27ac-7803-a9ea-f3b4ad4ad678","{""num_scrambled_semantic"":""8"",""num_scrambled_causal"":""4"",""num_scrambled_schematic"":""4"",""participantId"":""B9CAB7E6DB6D41008B3DE44C35936159"",""assignmentId"":""0198ee49-e983-75b1-aadf-d9d1966b20d7"",""projectId"":""0198ee3c-27ac-7803-a9ea-f3b4ad4ad678""}","https://test12345.live/?num_scrambled_semantic=8&num_scrambled_causal=4&num_scrambled_schematic=4&participantId=B9CAB7E6DB6D41008B3DE44C35936159&assignmentId=0198ee49-e983-75b1-aadf-d9d1966b20d7&projectId=0198ee3c-27ac-7803-a9ea-f3b4ad4ad678","B9CAB7E6DB6D41008B3DE44C35936159-2025-08-28-02-32-23","","null","","images/semantic_sequence/housework_semantic/housework_semantic_4.png","null","",""
"","","","","","image-button-response","35","961284","0.0-10.0-1.0-1.3","B9CAB7E6DB6D41008B3DE44C35936159","B9CAB7E6DB6D41008B3DE44C35936159","0198ee49-e983-75b1-aadf-d9d1966b20d7","0198ee3c-27ac-7803-a9ea-f3b4ad4ad678","{""num_scrambled_semantic"":""8"",""num_scrambled_causal"":""4"",""num_scrambled_schematic"":""4"",""participantId"":""B9CAB7E6DB6D41008B3DE44C35936159"",""assignmentId"":""0198ee49-e983-75b1-aadf-d9d1966b20d7"",""projectId"":""0198ee3c-27ac-7803-a9ea-f3b4ad4ad678""}","https://test12345.live/?num_scrambled_semantic=8&num_scrambled_causal=4&num_scrambled_schematic=4&participantId=B9CAB7E6DB6D41008B3DE44C35936159&assignmentId=0198ee49-e983-75b1-aadf-d9d1966b20d7&projectId=0198ee3c-27ac-7803-a9ea-f3b4ad4ad678","B9CAB7E6DB6D41008B3DE44C35936159-2025-08-28-02-32-23","","1509","","images/semantic_sequence/housework_semantic/housework_semantic_4.png","0","",""
"","","","","","image-button-response","36","963087","0.0-10.0-1.0-2.3","B9CAB7E6DB6D41008B3DE44C35936159","B9CAB7E6DB6D41008B3DE44C35936159","0198ee49-e983-75b1-aadf-d9d1966b20d7","0198ee3c-27ac-7803-a9ea-f3b4ad4ad678","{""num_scrambled_semantic"":""8"",""num_scrambled_causal"":""4"",""num_scrambled_schematic"":""4"",""participantId"":""B9CAB7E6DB6D41008B3DE44C35936159"",""assignmentId"":""0198ee49-e983-75b1-aadf-d9d1966b20d7"",""projectId"":""0198ee3c-27ac-7803-a9ea-f3b4ad4ad678""}","https://test12345.live/?num_scrambled_semantic=8&num_scrambled_causal=4&num_scrambled_schematic=4&participantId=B9CAB7E6DB6D41008B3DE44C35936159&assignmentId=0198ee49-e983-75b1-aadf-d9d1966b20d7&projectId=0198ee3c-27ac-7803-a9ea-f3b4ad4ad678","B9CAB7E6DB6D41008B3DE44C35936159-2025-08-28-02-32-23","","null","","[]","null","",""
"","","","","","image-button-response","37","967591","0.0-10.0-1.0-0.4","B9CAB7E6DB6D41008B3DE44C35936159","B9CAB7E6DB6D41008B3DE44C35936159","0198ee49-e983-75b1-aadf-d9d1966b20d7","0198ee3c-27ac-7803-a9ea-f3b4ad4ad678","{""num_scrambled_semantic"":""8"",""num_scrambled_causal"":""4"",""num_scrambled_schematic"":""4"",""participantId"":""B9CAB7E6DB6D41008B3DE44C35936159"",""assignmentId"":""0198ee49-e983-75b1-aadf-d9d1966b20d7"",""projectId"":""0198ee3c-27ac-7803-a9ea-f3b4ad4ad678""}","https://test12345.live/?num_scrambled_semantic=8&num_scrambled_causal=4&num_scrambled_schematic=4&participantId=B9CAB7E6DB6D41008B3DE44C35936159&assignmentId=0198ee49-e983-75b1-aadf-d9d1966b20d7&projectId=0198ee3c-27ac-7803-a9ea-f3b4ad4ad678","B9CAB7E6DB6D41008B3DE44C35936159-2025-08-28-02-32-23","","null","","images/semantic_sequence/housework_semantic/housework_semantic_5.png","null","",""
"","","","","","image-button-response","38","969501","0.0-10.0-1.0-1.4","B9CAB7E6DB6D41008B3DE44C35936159","B9CAB7E6DB6D41008B3DE44C35936159","0198ee49-e983-75b1-aadf-d9d1966b20d7","0198ee3c-27ac-7803-a9ea-f3b4ad4ad678","{""num_scrambled_semantic"":""8"",""num_scrambled_causal"":""4"",""num_scrambled_schematic"":""4"",""participantId"":""B9CAB7E6DB6D41008B3DE44C35936159"",""assignmentId"":""0198ee49-e983-75b1-aadf-d9d1966b20d7"",""projectId"":""0198ee3c-27ac-7803-a9ea-f3b4ad4ad678""}","https://test12345.live/?num_scrambled_semantic=8&num_scrambled_causal=4&num_scrambled_schematic=4&participantId=B9CAB7E6DB6D41008B3DE44C35936159&assignmentId=0198ee49-e983-75b1-aadf-d9d1966b20d7&projectId=0198ee3c-27ac-7803-a9ea-f3b4ad4ad678","B9CAB7E6DB6D41008B3DE44C35936159-2025-08-28-02-32-23","","1908","","images/semantic_sequence/housework_semantic/housework_semantic_5.png","0","",""
"","","","","","image-button-response","39","971302","0.0-10.0-1.0-2.4","B9CAB7E6DB6D41008B3DE44C35936159","B9CAB7E6DB6D41008B3DE44C35936159","0198ee49-e983-75b1-aadf-d9d1966b20d7","0198ee3c-27ac-7803-a9ea-f3b4ad4ad678","{""num_scrambled_semantic"":""8"",""num_scrambled_causal"":""4"",""num_scrambled_schematic"":""4"",""participantId"":""B9CAB7E6DB6D41008B3DE44C35936159"",""assignmentId"":""0198ee49-e983-75b1-aadf-d9d1966b20d7"",""projectId"":""0198ee3c-27ac-7803-a9ea-f3b4ad4ad678""}","https://test12345.live/?num_scrambled_semantic=8&num_scrambled_causal=4&num_scrambled_schematic=4&participantId=B9CAB7E6DB6D41008B3DE44C35936159&assignmentId=0198ee49-e983-75b1-aadf-d9d1966b20d7&projectId=0198ee3c-27ac-7803-a9ea-f3b4ad4ad678","B9CAB7E6DB6D41008B3DE44C35936159-2025-08-28-02-32-23","","null","","[]","null","",""
"","","","","","image-button-response","40","975804","0.0-10.0-1.0-0.5","B9CAB7E6DB6D41008B3DE44C35936159","B9CAB7E6DB6D41008B3DE44C35936159","0198ee49-e983-75b1-aadf-d9d1966b20d7","0198ee3c-27ac-7803-a9ea-f3b4ad4ad678","{""num_scrambled_semantic"":""8"",""num_scrambled_causal"":""4"",""num_scrambled_schematic"":""4"",""participantId"":""B9CAB7E6DB6D41008B3DE44C35936159"",""assignmentId"":""0198ee49-e983-75b1-aadf-d9d1966b20d7"",""projectId"":""0198ee3c-27ac-7803-a9ea-f3b4ad4ad678""}","https://test12345.live/?num_scrambled_semantic=8&num_scrambled_causal=4&num_scrambled_schematic=4&participantId=B9CAB7E6DB6D41008B3DE44C35936159&assignmentId=0198ee49-e983-75b1-aadf-d9d1966b20d7&projectId=0198ee3c-27ac-7803-a9ea-f3b4ad4ad678","B9CAB7E6DB6D41008B3DE44C35936159-2025-08-28-02-32-23","","null","","images/semantic_sequence/housework_semantic/housework_semantic_6.png","null","",""
"","","","","","image-button-response","41","977354","0.0-10.0-1.0-1.5","B9CAB7E6DB6D41008B3DE44C35936159","B9CAB7E6DB6D41008B3DE44C35936159","0198ee49-e983-75b1-aadf-d9d1966b20d7","0198ee3c-27ac-7803-a9ea-f3b4ad4ad678","{""num_scrambled_semantic"":""8"",""num_scrambled_causal"":""4"",""num_scrambled_schematic"":""4"",""participantId"":""B9CAB7E6DB6D41008B3DE44C35936159"",""assignmentId"":""0198ee49-e983-75b1-aadf-d9d1966b20d7"",""projectId"":""0198ee3c-27ac-7803-a9ea-f3b4ad4ad678""}","https://test12345.live/?num_scrambled_semantic=8&num_scrambled_causal=4&num_scrambled_schematic=4&participantId=B9CAB7E6DB6D41008B3DE44C35936159&assignmentId=0198ee49-e983-75b1-aadf-d9d1966b20d7&projectId=0198ee3c-27ac-7803-a9ea-f3b4ad4ad678","B9CAB7E6DB6D41008B3DE44C35936159-2025-08-28-02-32-23","","1548","","images/semantic_sequence/housework_semantic/housework_semantic_6.png","0","",""
"","","","","","image-button-response","42","979157","0.0-10.0-1.0-2.5","B9CAB7E6DB6D41008B3DE44C35936159","B9CAB7E6DB6D41008B3DE44C35936159","0198ee49-e983-75b1-aadf-d9d1966b20d7","0198ee3c-27ac-7803-a9ea-f3b4ad4ad678","{""num_scrambled_semantic"":""8"",""num_scrambled_causal"":""4"",""num_scrambled_schematic"":""4"",""participantId"":""B9CAB7E6DB6D41008B3DE44C35936159"",""assignmentId"":""0198ee49-e983-75b1-aadf-d9d1966b20d7"",""projectId"":""0198ee3c-27ac-7803-a9ea-f3b4ad4ad678""}","https://test12345.live/?num_scrambled_semantic=8&num_scrambled_causal=4&num_scrambled_schematic=4&participantId=B9CAB7E6DB6D41008B3DE44C35936159&assignmentId=0198ee49-e983-75b1-aadf-d9d1966b20d7&projectId=0198ee3c-27ac-7803-a9ea-f3b4ad4ad678","B9CAB7E6DB6D41008B3DE44C35936159-2025-08-28-02-32-23","","null","","[]","null","",""
"","","","","","image-button-response","43","983660","0.0-10.0-1.0-0.6","B9CAB7E6DB6D41008B3DE44C35936159","B9CAB7E6DB6D41008B3DE44C35936159","0198ee49-e983-75b1-aadf-d9d1966b20d7","0198ee3c-27ac-7803-a9ea-f3b4ad4ad678","{""num_scrambled_semantic"":""8"",""num_scrambled_causal"":""4"",""num_scrambled_schematic"":""4"",""participantId"":""B9CAB7E6DB6D41008B3DE44C35936159"",""assignmentId"":""0198ee49-e983-75b1-aadf-d9d1966b20d7"",""projectId"":""0198ee3c-27ac-7803-a9ea-f3b4ad4ad678""}","https://test12345.live/?num_scrambled_semantic=8&num_scrambled_causal=4&num_scrambled_schematic=4&participantId=B9CAB7E6DB6D41008B3DE44C35936159&assignmentId=0198ee49-e983-75b1-aadf-d9d1966b20d7&projectId=0198ee3c-27ac-7803-a9ea-f3b4ad4ad678","B9CAB7E6DB6D41008B3DE44C35936159-2025-08-28-02-32-23","","null","","images/semantic_sequence/housework_semantic/housework_semantic_7.png","null","",""
"","","","","","image-button-response","44","984713","0.0-10.0-1.0-1.6","B9CAB7E6DB6D41008B3DE44C35936159","B9CAB7E6DB6D41008B3DE44C35936159","0198ee49-e983-75b1-aadf-d9d1966b20d7","0198ee3c-27ac-7803-a9ea-f3b4ad4ad678","{""num_scrambled_semantic"":""8"",""num_scrambled_causal"":""4"",""num_scrambled_schematic"":""4"",""participantId"":""B9CAB7E6DB6D41008B3DE44C35936159"",""assignmentId"":""0198ee49-e983-75b1-aadf-d9d1966b20d7"",""projectId"":""0198ee3c-27ac-7803-a9ea-f3b4ad4ad678""}","https://test12345.live/?num_scrambled_semantic=8&num_scrambled_causal=4&num_scrambled_schematic=4&participantId=B9CAB7E6DB6D41008B3DE44C35936159&assignmentId=0198ee49-e983-75b1-aadf-d9d1966b20d7&projectId=0198ee3c-27ac-7803-a9ea-f3b4ad4ad678","B9CAB7E6DB6D41008B3DE44C35936159-2025-08-28-02-32-23","","1052","","images/semantic_sequence/housework_semantic/housework_semantic_7.png","0","",""
"","","","","","image-button-response","45","986516","0.0-10.0-1.0-2.6","B9CAB7E6DB6D41008B3DE44C35936159","B9CAB7E6DB6D41008B3DE44C35936159","0198ee49-e983-75b1-aadf-d9d1966b20d7","0198ee3c-27ac-7803-a9ea-f3b4ad4ad678","{""num_scrambled_semantic"":""8"",""num_scrambled_causal"":""4"",""num_scrambled_schematic"":""4"",""participantId"":""B9CAB7E6DB6D41008B3DE44C35936159"",""assignmentId"":""0198ee49-e983-75b1-aadf-d9d1966b20d7"",""projectId"":""0198ee3c-27ac-7803-a9ea-f3b4ad4ad678""}","https://test12345.live/?num_scrambled_semantic=8&num_scrambled_causal=4&num_scrambled_schematic=4&participantId=B9CAB7E6DB6D41008B3DE44C35936159&assignmentId=0198ee49-e983-75b1-aadf-d9d1966b20d7&projectId=0198ee3c-27ac-7803-a9ea-f3b4ad4ad678","B9CAB7E6DB6D41008B3DE44C35936159-2025-08-28-02-32-23","","null","","[]","null","",""
"","","","","","image-button-response","46","991019","0.0-10.0-1.0-0.7","B9CAB7E6DB6D41008B3DE44C35936159","B9CAB7E6DB6D41008B3DE44C35936159","0198ee49-e983-75b1-aadf-d9d1966b20d7","0198ee3c-27ac-7803-a9ea-f3b4ad4ad678","{""num_scrambled_semantic"":""8"",""num_scrambled_causal"":""4"",""num_scrambled_schematic"":""4"",""participantId"":""B9CAB7E6DB6D41008B3DE44C35936159"",""assignmentId"":""0198ee49-e983-75b1-aadf-d9d1966b20d7"",""projectId"":""0198ee3c-27ac-7803-a9ea-f3b4ad4ad678""}","https://test12345.live/?num_scrambled_semantic=8&num_scrambled_causal=4&num_scrambled_schematic=4&participantId=B9CAB7E6DB6D41008B3DE44C35936159&assignmentId=0198ee49-e983-75b1-aadf-d9d1966b20d7&projectId=0198ee3c-27ac-7803-a9ea-f3b4ad4ad678","B9CAB7E6DB6D41008B3DE44C35936159-2025-08-28-02-32-23","","null","","images/semantic_sequence/housework_semantic/housework_semantic_8.png","null","",""
"","","","","","image-button-response","47","992119","0.0-10.0-1.0-1.7","B9CAB7E6DB6D41008B3DE44C35936159","B9CAB7E6DB6D41008B3DE44C35936159","0198ee49-e983-75b1-aadf-d9d1966b20d7","0198ee3c-27ac-7803-a9ea-f3b4ad4ad678","{""num_scrambled_semantic"":""8"",""num_scrambled_causal"":""4"",""num_scrambled_schematic"":""4"",""participantId"":""B9CAB7E6DB6D41008B3DE44C35936159"",""assignmentId"":""0198ee49-e983-75b1-aadf-d9d1966b20d7"",""projectId"":""0198ee3c-27ac-7803-a9ea-f3b4ad4ad678""}","https://test12345.live/?num_scrambled_semantic=8&num_scrambled_causal=4&num_scrambled_schematic=4&participantId=B9CAB7E6DB6D41008B3DE44C35936159&assignmentId=0198ee49-e983-75b1-aadf-d9d1966b20d7&projectId=0198ee3c-27ac-7803-a9ea-f3b4ad4ad678","B9CAB7E6DB6D41008B3DE44C35936159-2025-08-28-02-32-23","","1096","","images/semantic_sequence/housework_semantic/housework_semantic_8.png","0","",""
"","","","","","image-button-response","48","993922","0.0-10.0-1.0-2.7","B9CAB7E6DB6D41008B3DE44C35936159","B9CAB7E6DB6D41008B3DE44C35936159","0198ee49-e983-75b1-aadf-d9d1966b20d7","0198ee3c-27ac-7803-a9ea-f3b4ad4ad678","{""num_scrambled_semantic"":""8"",""num_scrambled_causal"":""4"",""num_scrambled_schematic"":""4"",""participantId"":""B9CAB7E6DB6D41008B3DE44C35936159"",""assignmentId"":""0198ee49-e983-75b1-aadf-d9d1966b20d7"",""projectId"":""0198ee3c-27ac-7803-a9ea-f3b4ad4ad678""}","https://test12345.live/?num_scrambled_semantic=8&num_scrambled_causal=4&num_scrambled_schematic=4&participantId=B9CAB7E6DB6D41008B3DE44C35936159&assignmentId=0198ee49-e983-75b1-aadf-d9d1966b20d7&projectId=0198ee3c-27ac-7803-a9ea-f3b4ad4ad678","B9CAB7E6DB6D41008B3DE44C35936159-2025-08-28-02-32-23","","null","","[]","null","",""
"","","","","","image-button-response","49","998424","0.0-10.0-1.0-0.8","B9CAB7E6DB6D41008B3DE44C35936159","B9CAB7E6DB6D41008B3DE44C35936159","0198ee49-e983-75b1-aadf-d9d1966b20d7","0198ee3c-27ac-7803-a9ea-f3b4ad4ad678","{""num_scrambled_semantic"":""8"",""num_scrambled_causal"":""4"",""num_scrambled_schematic"":""4"",""participantId"":""B9CAB7E6DB6D41008B3DE44C35936159"",""assignmentId"":""0198ee49-e983-75b1-aadf-d9d1966b20d7"",""projectId"":""0198ee3c-27ac-7803-a9ea-f3b4ad4ad678""}","https://test12345.live/?num_scrambled_semantic=8&num_scrambled_causal=4&num_scrambled_schematic=4&participantId=B9CAB7E6DB6D41008B3DE44C35936159&assignmentId=0198ee49-e983-75b1-aadf-d9d1966b20d7&projectId=0198ee3c-27ac-7803-a9ea-f3b4ad4ad678","B9CAB7E6DB6D41008B3DE44C35936159-2025-08-28-02-32-23","","null","","images/semantic_sequence/housework_semantic/housework_semantic_9.png","null","",""
"","","","","","image-button-response","50","1001045","0.0-10.0-1.0-1.8","B9CAB7E6DB6D41008B3DE44C35936159","B9CAB7E6DB6D41008B3DE44C35936159","0198ee49-e983-75b1-aadf-d9d1966b20d7","0198ee3c-27ac-7803-a9ea-f3b4ad4ad678","{""num_scrambled_semantic"":""8"",""num_scrambled_causal"":""4"",""num_scrambled_schematic"":""4"",""participantId"":""B9CAB7E6DB6D41008B3DE44C35936159"",""assignmentId"":""0198ee49-e983-75b1-aadf-d9d1966b20d7"",""projectId"":""0198ee3c-27ac-7803-a9ea-f3b4ad4ad678""}","https://test12345.live/?num_scrambled_semantic=8&num_scrambled_causal=4&num_scrambled_schematic=4&participantId=B9CAB7E6DB6D41008B3DE44C35936159&assignmentId=0198ee49-e983-75b1-aadf-d9d1966b20d7&projectId=0198ee3c-27ac-7803-a9ea-f3b4ad4ad678","B9CAB7E6DB6D41008B3DE44C35936159-2025-08-28-02-32-23","","2620","","images/semantic_sequence/housework_semantic/housework_semantic_9.png","0","",""
"","","","","","image-button-response","51","1002847","0.0-10.0-1.0-2.8","B9CAB7E6DB6D41008B3DE44C35936159","B9CAB7E6DB6D41008B3DE44C35936159","0198ee49-e983-75b1-aadf-d9d1966b20d7","0198ee3c-27ac-7803-a9ea-f3b4ad4ad678","{""num_scrambled_semantic"":""8"",""num_scrambled_causal"":""4"",""num_scrambled_schematic"":""4"",""participantId"":""B9CAB7E6DB6D41008B3DE44C35936159"",""assignmentId"":""0198ee49-e983-75b1-aadf-d9d1966b20d7"",""projectId"":""0198ee3c-27ac-7803-a9ea-f3b4ad4ad678""}","https://test12345.live/?num_scrambled_semantic=8&num_scrambled_causal=4&num_scrambled_schematic=4&participantId=B9CAB7E6DB6D41008B3DE44C35936159&assignmentId=0198ee49-e983-75b1-aadf-d9d1966b20d7&projectId=0198ee3c-27ac-7803-a9ea-f3b4ad4ad678","B9CAB7E6DB6D41008B3DE44C35936159-2025-08-28-02-32-23","","null","","[]","null","",""
"","","","","","image-button-response","52","1007349","0.0-10.0-1.0-0.9","B9CAB7E6DB6D41008B3DE44C35936159","B9CAB7E6DB6D41008B3DE44C35936159","0198ee49-e983-75b1-aadf-d9d1966b20d7","0198ee3c-27ac-7803-a9ea-f3b4ad4ad678","{""num_scrambled_semantic"":""8"",""num_scrambled_causal"":""4"",""num_scrambled_schematic"":""4"",""participantId"":""B9CAB7E6DB6D41008B3DE44C35936159"",""assignmentId"":""0198ee49-e983-75b1-aadf-d9d1966b20d7"",""projectId"":""0198ee3c-27ac-7803-a9ea-f3b4ad4ad678""}","https://test12345.live/?num_scrambled_semantic=8&num_scrambled_causal=4&num_scrambled_schematic=4&participantId=B9CAB7E6DB6D41008B3DE44C35936159&assignmentId=0198ee49-e983-75b1-aadf-d9d1966b20d7&projectId=0198ee3c-27ac-7803-a9ea-f3b4ad4ad678","B9CAB7E6DB6D41008B3DE44C35936159-2025-08-28-02-32-23","","null","","images/semantic_sequence/housework_semantic/housework_semantic_ten.png","null","",""
"","","","","","image-button-response","53","1009313","0.0-10.0-1.0-1.9","B9CAB7E6DB6D41008B3DE44C35936159","B9CAB7E6DB6D41008B3DE44C35936159","0198ee49-e983-75b1-aadf-d9d1966b20d7","0198ee3c-27ac-7803-a9ea-f3b4ad4ad678","{""num_scrambled_semantic"":""8"",""num_scrambled_causal"":""4"",""num_scrambled_schematic"":""4"",""participantId"":""B9CAB7E6DB6D41008B3DE44C35936159"",""assignmentId"":""0198ee49-e983-75b1-aadf-d9d1966b20d7"",""projectId"":""0198ee3c-27ac-7803-a9ea-f3b4ad4ad678""}","https://test12345.live/?num_scrambled_semantic=8&num_scrambled_causal=4&num_scrambled_schematic=4&participantId=B9CAB7E6DB6D41008B3DE44C35936159&assignmentId=0198ee49-e983-75b1-aadf-d9d1966b20d7&projectId=0198ee3c-27ac-7803-a9ea-f3b4ad4ad678","B9CAB7E6DB6D41008B3DE44C35936159-2025-08-28-02-32-23","","1961","","images/semantic_sequence/housework_semantic/housework_semantic_ten.png","0","",""
"","","","","","image-button-response","54","1011116","0.0-10.0-1.0-2.9","B9CAB7E6DB6D41008B3DE44C35936159","B9CAB7E6DB6D41008B3DE44C35936159","0198ee49-e983-75b1-aadf-d9d1966b20d7","0198ee3c-27ac-7803-a9ea-f3b4ad4ad678","{""num_scrambled_semantic"":""8"",""num_scrambled_causal"":""4"",""num_scrambled_schematic"":""4"",""participantId"":""B9CAB7E6DB6D41008B3DE44C35936159"",""assignmentId"":""0198ee49-e983-75b1-aadf-d9d1966b20d7"",""projectId"":""0198ee3c-27ac-7803-a9ea-f3b4ad4ad678""}","https://test12345.live/?num_scrambled_semantic=8&num_scrambled_causal=4&num_scrambled_schematic=4&participantId=B9CAB7E6DB6D41008B3DE44C35936159&assignmentId=0198ee49-e983-75b1-aadf-d9d1966b20d7&projectId=0198ee3c-27ac-7803-a9ea-f3b4ad4ad678","B9CAB7E6DB6D41008B3DE44C35936159-2025-08-28-02-32-23","","null","","[]","null","",""
"","","","","","html-audio-response","55","1032065","0.0-11.0","B9CAB7E6DB6D41008B3DE44C35936159","B9CAB7E6DB6D41008B3DE44C35936159","0198ee49-e983-75b1-aadf-d9d1966b20d7","0198ee3c-27ac-7803-a9ea-f3b4ad4ad678","{""num_scrambled_semantic"":""8"",""num_scrambled_causal"":""4"",""num_scrambled_schematic"":""4"",""participantId"":""B9CAB7E6DB6D41008B3DE44C35936159"",""assignmentId"":""0198ee49-e983-75b1-aadf-d9d1966b20d7"",""projectId"":""0198ee3c-27ac-7803-a9ea-f3b4ad4ad678""}","https://test12345.live/?num_scrambled_semantic=8&num_scrambled_causal=4&num_scrambled_schematic=4&participantId=B9CAB7E6DB6D41008B3DE44C35936159&assignmentId=0198ee49-e983-75b1-aadf-d9d1966b20d7&projectId=0198ee3c-27ac-7803-a9ea-f3b4ad4ad678","B9CAB7E6DB6D41008B3DE44C35936159-2025-08-28-02-32-23","","5338","","[""<span style=\""color: red; font-size: 24px\""> NOW RECORDING</span><p>Please say out loud all the images you saw, in the order of the story they create. Try to recall the sequence of events as they appeared in the story, not necessarily the order they were presented on the screen.</p>""]","","3","housework_semantic"
"","","","","","image-button-response","56","1038071","0.0-12.0-0.0","B9CAB7E6DB6D41008B3DE44C35936159","B9CAB7E6DB6D41008B3DE44C35936159","0198ee49-e983-75b1-aadf-d9d1966b20d7","0198ee3c-27ac-7803-a9ea-f3b4ad4ad678","{""num_scrambled_semantic"":""8"",""num_scrambled_causal"":""4"",""num_scrambled_schematic"":""4"",""participantId"":""B9CAB7E6DB6D41008B3DE44C35936159"",""assignmentId"":""0198ee49-e983-75b1-aadf-d9d1966b20d7"",""projectId"":""0198ee3c-27ac-7803-a9ea-f3b4ad4ad678""}","https://test12345.live/?num_scrambled_semantic=8&num_scrambled_causal=4&num_scrambled_schematic=4&participantId=B9CAB7E6DB6D41008B3DE44C35936159&assignmentId=0198ee49-e983-75b1-aadf-d9d1966b20d7&projectId=0198ee3c-27ac-7803-a9ea-f3b4ad4ad678","B9CAB7E6DB6D41008B3DE44C35936159-2025-08-28-02-32-23","","null","","images/semantic_sequence/creative_activities_semantic/creative_activities_semantic_0.png","null","",""
"","","","","","image-button-response","57","1042574","0.0-12.0-1.0-0.0","B9CAB7E6DB6D41008B3DE44C35936159","B9CAB7E6DB6D41008B3DE44C35936159","0198ee49-e983-75b1-aadf-d9d1966b20d7","0198ee3c-27ac-7803-a9ea-f3b4ad4ad678","{""num_scrambled_semantic"":""8"",""num_scrambled_causal"":""4"",""num_scrambled_schematic"":""4"",""participantId"":""B9CAB7E6DB6D41008B3DE44C35936159"",""assignmentId"":""0198ee49-e983-75b1-aadf-d9d1966b20d7"",""projectId"":""0198ee3c-27ac-7803-a9ea-f3b4ad4ad678""}","https://test12345.live/?num_scrambled_semantic=8&num_scrambled_causal=4&num_scrambled_schematic=4&participantId=B9CAB7E6DB6D41008B3DE44C35936159&assignmentId=0198ee49-e983-75b1-aadf-d9d1966b20d7&projectId=0198ee3c-27ac-7803-a9ea-f3b4ad4ad678","B9CAB7E6DB6D41008B3DE44C35936159-2025-08-28-02-32-23","","null","","images/semantic_sequence/creative_activities_semantic/creative_activities_semantic_6.png","null","",""
"","","","","","image-button-response","58","1046577","0.0-12.0-1.0-1.0","B9CAB7E6DB6D41008B3DE44C35936159","B9CAB7E6DB6D41008B3DE44C35936159","0198ee49-e983-75b1-aadf-d9d1966b20d7","0198ee3c-27ac-7803-a9ea-f3b4ad4ad678","{""num_scrambled_semantic"":""8"",""num_scrambled_causal"":""4"",""num_scrambled_schematic"":""4"",""participantId"":""B9CAB7E6DB6D41008B3DE44C35936159"",""assignmentId"":""0198ee49-e983-75b1-aadf-d9d1966b20d7"",""projectId"":""0198ee3c-27ac-7803-a9ea-f3b4ad4ad678""}","https://test12345.live/?num_scrambled_semantic=8&num_scrambled_causal=4&num_scrambled_schematic=4&participantId=B9CAB7E6DB6D41008B3DE44C35936159&assignmentId=0198ee49-e983-75b1-aadf-d9d1966b20d7&projectId=0198ee3c-27ac-7803-a9ea-f3b4ad4ad678","B9CAB7E6DB6D41008B3DE44C35936159-2025-08-28-02-32-23","","null","","images/semantic_sequence/creative_activities_semantic/creative_activities_semantic_6.png","null","",""
"","","","","","image-button-response","59","1048379","0.0-12.0-1.0-2.0","B9CAB7E6DB6D41008B3DE44C35936159","B9CAB7E6DB6D41008B3DE44C35936159","0198ee49-e983-75b1-aadf-d9d1966b20d7","0198ee3c-27ac-7803-a9ea-f3b4ad4ad678","{""num_scrambled_semantic"":""8"",""num_scrambled_causal"":""4"",""num_scrambled_schematic"":""4"",""participantId"":""B9CAB7E6DB6D41008B3DE44C35936159"",""assignmentId"":""0198ee49-e983-75b1-aadf-d9d1966b20d7"",""projectId"":""0198ee3c-27ac-7803-a9ea-f3b4ad4ad678""}","https://test12345.live/?num_scrambled_semantic=8&num_scrambled_causal=4&num_scrambled_schematic=4&participantId=B9CAB7E6DB6D41008B3DE44C35936159&assignmentId=0198ee49-e983-75b1-aadf-d9d1966b20d7&projectId=0198ee3c-27ac-7803-a9ea-f3b4ad4ad678","B9CAB7E6DB6D41008B3DE44C35936159-2025-08-28-02-32-23","","null","","[]","null","",""
"","","","","","image-button-response","60","1052882","0.0-12.0-1.0-0.1","B9CAB7E6DB6D41008B3DE44C35936159","B9CAB7E6DB6D41008B3DE44C35936159","0198ee49-e983-75b1-aadf-d9d1966b20d7","0198ee3c-27ac-7803-a9ea-f3b4ad4ad678","{""num_scrambled_semantic"":""8"",""num_scrambled_causal"":""4"",""num_scrambled_schematic"":""4"",""participantId"":""B9CAB7E6DB6D41008B3DE44C35936159"",""assignmentId"":""0198ee49-e983-75b1-aadf-d9d1966b20d7"",""projectId"":""0198ee3c-27ac-7803-a9ea-f3b4ad4ad678""}","https://test12345.live/?num_scrambled_semantic=8&num_scrambled_causal=4&num_scrambled_schematic=4&participantId=B9CAB7E6DB6D41008B3DE44C35936159&assignmentId=0198ee49-e983-75b1-aadf-d9d1966b20d7&projectId=0198ee3c-27ac-7803-a9ea-f3b4ad4ad678","B9CAB7E6DB6D41008B3DE44C35936159-2025-08-28-02-32-23","","null","","images/semantic_sequence/creative_activities_semantic/creative_activities_semantic_ten.png","null","",""
"","","","","","image-button-response","61","1055332","0.0-12.0-1.0-1.1","B9CAB7E6DB6D41008B3DE44C35936159","B9CAB7E6DB6D41008B3DE44C35936159","0198ee49-e983-75b1-aadf-d9d1966b20d7","0198ee3c-27ac-7803-a9ea-f3b4ad4ad678","{""num_scrambled_semantic"":""8"",""num_scrambled_causal"":""4"",""num_scrambled_schematic"":""4"",""participantId"":""B9CAB7E6DB6D41008B3DE44C35936159"",""assignmentId"":""0198ee49-e983-75b1-aadf-d9d1966b20d7"",""projectId"":""0198ee3c-27ac-7803-a9ea-f3b4ad4ad678""}","https://test12345.live/?num_scrambled_semantic=8&num_scrambled_causal=4&num_scrambled_schematic=4&participantId=B9CAB7E6DB6D41008B3DE44C35936159&assignmentId=0198ee49-e983-75b1-aadf-d9d1966b20d7&projectId=0198ee3c-27ac-7803-a9ea-f3b4ad4ad678","B9CAB7E6DB6D41008B3DE44C35936159-2025-08-28-02-32-23","","2446","","images/semantic_sequence/creative_activities_semantic/creative_activities_semantic_ten.png","0","",""
"","","","","","image-button-response","62","1057135","0.0-12.0-1.0-2.1","B9CAB7E6DB6D41008B3DE44C35936159","B9CAB7E6DB6D41008B3DE44C35936159","0198ee49-e983-75b1-aadf-d9d1966b20d7","0198ee3c-27ac-7803-a9ea-f3b4ad4ad678","{""num_scrambled_semantic"":""8"",""num_scrambled_causal"":""4"",""num_scrambled_schematic"":""4"",""participantId"":""B9CAB7E6DB6D41008B3DE44C35936159"",""assignmentId"":""0198ee49-e983-75b1-aadf-d9d1966b20d7"",""projectId"":""0198ee3c-27ac-7803-a9ea-f3b4ad4ad678""}","https://test12345.live/?num_scrambled_semantic=8&num_scrambled_causal=4&num_scrambled_schematic=4&participantId=B9CAB7E6DB6D41008B3DE44C35936159&assignmentId=0198ee49-e983-75b1-aadf-d9d1966b20d7&projectId=0198ee3c-27ac-7803-a9ea-f3b4ad4ad678","B9CAB7E6DB6D41008B3DE44C35936159-2025-08-28-02-32-23","","null","","[]","null","",""
"","","","","","image-button-response","63","1061638","0.0-12.0-1.0-0.2","B9CAB7E6DB6D41008B3DE44C35936159","B9CAB7E6DB6D41008B3DE44C35936159","0198ee49-e983-75b1-aadf-d9d1966b20d7","0198ee3c-27ac-7803-a9ea-f3b4ad4ad678","{""num_scrambled_semantic"":""8"",""num_scrambled_causal"":""4"",""num_scrambled_schematic"":""4"",""participantId"":""B9CAB7E6DB6D41008B3DE44C35936159"",""assignmentId"":""0198ee49-e983-75b1-aadf-d9d1966b20d7"",""projectId"":""0198ee3c-27ac-7803-a9ea-f3b4ad4ad678""}","https://test12345.live/?num_scrambled_semantic=8&num_scrambled_causal=4&num_scrambled_schematic=4&participantId=B9CAB7E6DB6D41008B3DE44C35936159&assignmentId=0198ee49-e983-75b1-aadf-d9d1966b20d7&projectId=0198ee3c-27ac-7803-a9ea-f3b4ad4ad678","B9CAB7E6DB6D41008B3DE44C35936159-2025-08-28-02-32-23","","null","","images/semantic_sequence/creative_activities_semantic/creative_activities_semantic_9.png","null","",""
"","","","","","image-button-response","64","1063891","0.0-12.0-1.0-1.2","B9CAB7E6DB6D41008B3DE44C35936159","B9CAB7E6DB6D41008B3DE44C35936159","0198ee49-e983-75b1-aadf-d9d1966b20d7","0198ee3c-27ac-7803-a9ea-f3b4ad4ad678","{""num_scrambled_semantic"":""8"",""num_scrambled_causal"":""4"",""num_scrambled_schematic"":""4"",""participantId"":""B9CAB7E6DB6D41008B3DE44C35936159"",""assignmentId"":""0198ee49-e983-75b1-aadf-d9d1966b20d7"",""projectId"":""0198ee3c-27ac-7803-a9ea-f3b4ad4ad678""}","https://test12345.live/?num_scrambled_semantic=8&num_scrambled_causal=4&num_scrambled_schematic=4&participantId=B9CAB7E6DB6D41008B3DE44C35936159&assignmentId=0198ee49-e983-75b1-aadf-d9d1966b20d7&projectId=0198ee3c-27ac-7803-a9ea-f3b4ad4ad678","B9CAB7E6DB6D41008B3DE44C35936159-2025-08-28-02-32-23","","2250","","images/semantic_sequence/creative_activities_semantic/creative_activities_semantic_9.png","0","",""
"","","","","","image-button-response","65","1065693","0.0-12.0-1.0-2.2","B9CAB7E6DB6D41008B3DE44C35936159","B9CAB7E6DB6D41008B3DE44C35936159","0198ee49-e983-75b1-aadf-d9d1966b20d7","0198ee3c-27ac-7803-a9ea-f3b4ad4ad678","{""num_scrambled_semantic"":""8"",""num_scrambled_causal"":""4"",""num_scrambled_schematic"":""4"",""participantId"":""B9CAB7E6DB6D41008B3DE44C35936159"",""assignmentId"":""0198ee49-e983-75b1-aadf-d9d1966b20d7"",""projectId"":""0198ee3c-27ac-7803-a9ea-f3b4ad4ad678""}","https://test12345.live/?num_scrambled_semantic=8&num_scrambled_causal=4&num_scrambled_schematic=4&participantId=B9CAB7E6DB6D41008B3DE44C35936159&assignmentId=0198ee49-e983-75b1-aadf-d9d1966b20d7&projectId=0198ee3c-27ac-7803-a9ea-f3b4ad4ad678","B9CAB7E6DB6D41008B3DE44C35936159-2025-08-28-02-32-23","","null","","[]","null","",""
"","","","","","image-button-response","66","1070194","0.0-12.0-1.0-0.3","B9CAB7E6DB6D41008B3DE44C35936159","B9CAB7E6DB6D41008B3DE44C35936159","0198ee49-e983-75b1-aadf-d9d1966b20d7","0198ee3c-27ac-7803-a9ea-f3b4ad4ad678","{""num_scrambled_semantic"":""8"",""num_scrambled_causal"":""4"",""num_scrambled_schematic"":""4"",""participantId"":""B9CAB7E6DB6D41008B3DE44C35936159"",""assignmentId"":""0198ee49-e983-75b1-aadf-d9d1966b20d7"",""projectId"":""0198ee3c-27ac-7803-a9ea-f3b4ad4ad678""}","https://test12345.live/?num_scrambled_semantic=8&num_scrambled_causal=4&num_scrambled_schematic=4&participantId=B9CAB7E6DB6D41008B3DE44C35936159&assignmentId=0198ee49-e983-75b1-aadf-d9d1966b20d7&projectId=0198ee3c-27ac-7803-a9ea-f3b4ad4ad678","B9CAB7E6DB6D41008B3DE44C35936159-2025-08-28-02-32-23","","null","","images/semantic_sequence/creative_activities_semantic/creative_activities_semantic_4.png","null","",""
"","","","","","image-button-response","67","1071344","0.0-12.0-1.0-1.3","B9CAB7E6DB6D41008B3DE44C35936159","B9CAB7E6DB6D41008B3DE44C35936159","0198ee49-e983-75b1-aadf-d9d1966b20d7","0198ee3c-27ac-7803-a9ea-f3b4ad4ad678","{""num_scrambled_semantic"":""8"",""num_scrambled_causal"":""4"",""num_scrambled_schematic"":""4"",""participantId"":""B9CAB7E6DB6D41008B3DE44C35936159"",""assignmentId"":""0198ee49-e983-75b1-aadf-d9d1966b20d7"",""projectId"":""0198ee3c-27ac-7803-a9ea-f3b4ad4ad678""}","https://test12345.live/?num_scrambled_semantic=8&num_scrambled_causal=4&num_scrambled_schematic=4&participantId=B9CAB7E6DB6D41008B3DE44C35936159&assignmentId=0198ee49-e983-75b1-aadf-d9d1966b20d7&projectId=0198ee3c-27ac-7803-a9ea-f3b4ad4ad678","B9CAB7E6DB6D41008B3DE44C35936159-2025-08-28-02-32-23","","1147","","images/semantic_sequence/creative_activities_semantic/creative_activities_semantic_4.png","0","",""
"","","","","","image-button-response","68","1073147","0.0-12.0-1.0-2.3","B9CAB7E6DB6D41008B3DE44C35936159","B9CAB7E6DB6D41008B3DE44C35936159","0198ee49-e983-75b1-aadf-d9d1966b20d7","0198ee3c-27ac-7803-a9ea-f3b4ad4ad678","{""num_scrambled_semantic"":""8"",""num_scrambled_causal"":""4"",""num_scrambled_schematic"":""4"",""participantId"":""B9CAB7E6DB6D41008B3DE44C35936159"",""assignmentId"":""0198ee49-e983-75b1-aadf-d9d1966b20d7"",""projectId"":""0198ee3c-27ac-7803-a9ea-f3b4ad4ad678""}","https://test12345.live/?num_scrambled_semantic=8&num_scrambled_causal=4&num_scrambled_schematic=4&participantId=B9CAB7E6DB6D41008B3DE44C35936159&assignmentId=0198ee49-e983-75b1-aadf-d9d1966b20d7&projectId=0198ee3c-27ac-7803-a9ea-f3b4ad4ad678","B9CAB7E6DB6D41008B3DE44C35936159-2025-08-28-02-32-23","","null","","[]","null","",""
"","","","","","image-button-response","69","1077650","0.0-12.0-1.0-0.4","B9CAB7E6DB6D41008B3DE44C35936159","B9CAB7E6DB6D41008B3DE44C35936159","0198ee49-e983-75b1-aadf-d9d1966b20d7","0198ee3c-27ac-7803-a9ea-f3b4ad4ad678","{""num_scrambled_semantic"":""8"",""num_scrambled_causal"":""4"",""num_scrambled_schematic"":""4"",""participantId"":""B9CAB7E6DB6D41008B3DE44C35936159"",""assignmentId"":""0198ee49-e983-75b1-aadf-d9d1966b20d7"",""projectId"":""0198ee3c-27ac-7803-a9ea-f3b4ad4ad678""}","https://test12345.live/?num_scrambled_semantic=8&num_scrambled_causal=4&num_scrambled_schematic=4&participantId=B9CAB7E6DB6D41008B3DE44C35936159&assignmentId=0198ee49-e983-75b1-aadf-d9d1966b20d7&projectId=0198ee3c-27ac-7803-a9ea-f3b4ad4ad678","B9CAB7E6DB6D41008B3DE44C35936159-2025-08-28-02-32-23","","null","","images/semantic_sequence/creative_activities_semantic/creative_activities_semantic_8.png","null","",""
"","","","","","image-button-response","70","1081652","0.0-12.0-1.0-1.4","B9CAB7E6DB6D41008B3DE44C35936159","B9CAB7E6DB6D41008B3DE44C35936159","0198ee49-e983-75b1-aadf-d9d1966b20d7","0198ee3c-27ac-7803-a9ea-f3b4ad4ad678","{""num_scrambled_semantic"":""8"",""num_scrambled_causal"":""4"",""num_scrambled_schematic"":""4"",""participantId"":""B9CAB7E6DB6D41008B3DE44C35936159"",""assignmentId"":""0198ee49-e983-75b1-aadf-d9d1966b20d7"",""projectId"":""0198ee3c-27ac-7803-a9ea-f3b4ad4ad678""}","https://test12345.live/?num_scrambled_semantic=8&num_scrambled_causal=4&num_scrambled_schematic=4&participantId=B9CAB7E6DB6D41008B3DE44C35936159&assignmentId=0198ee49-e983-75b1-aadf-d9d1966b20d7&projectId=0198ee3c-27ac-7803-a9ea-f3b4ad4ad678","B9CAB7E6DB6D41008B3DE44C35936159-2025-08-28-02-32-23","","null","","images/semantic_sequence/creative_activities_semantic/creative_activities_semantic_8.png","null","",""
"","","","","","image-button-response","71","1083454","0.0-12.0-1.0-2.4","B9CAB7E6DB6D41008B3DE44C35936159","B9CAB7E6DB6D41008B3DE44C35936159","0198ee49-e983-75b1-aadf-d9d1966b20d7","0198ee3c-27ac-7803-a9ea-f3b4ad4ad678","{""num_scrambled_semantic"":""8"",""num_scrambled_causal"":""4"",""num_scrambled_schematic"":""4"",""participantId"":""B9CAB7E6DB6D41008B3DE44C35936159"",""assignmentId"":""0198ee49-e983-75b1-aadf-d9d1966b20d7"",""projectId"":""0198ee3c-27ac-7803-a9ea-f3b4ad4ad678""}","https://test12345.live/?num_scrambled_semantic=8&num_scrambled_causal=4&num_scrambled_schematic=4&participantId=B9CAB7E6DB6D41008B3DE44C35936159&assignmentId=0198ee49-e983-75b1-aadf-d9d1966b20d7&projectId=0198ee3c-27ac-7803-a9ea-f3b4ad4ad678","B9CAB7E6DB6D41008B3DE44C35936159-2025-08-28-02-32-23","","null","","[]","null","",""
"","","","","","image-button-response","72","1087957","0.0-12.0-1.0-0.5","B9CAB7E6DB6D41008B3DE44C35936159","B9CAB7E6DB6D41008B3DE44C35936159","0198ee49-e983-75b1-aadf-d9d1966b20d7","0198ee3c-27ac-7803-a9ea-f3b4ad4ad678","{""num_scrambled_semantic"":""8"",""num_scrambled_causal"":""4"",""num_scrambled_schematic"":""4"",""participantId"":""B9CAB7E6DB6D41008B3DE44C35936159"",""assignmentId"":""0198ee49-e983-75b1-aadf-d9d1966b20d7"",""projectId"":""0198ee3c-27ac-7803-a9ea-f3b4ad4ad678""}","https://test12345.live/?num_scrambled_semantic=8&num_scrambled_causal=4&num_scrambled_schematic=4&participantId=B9CAB7E6DB6D41008B3DE44C35936159&assignmentId=0198ee49-e983-75b1-aadf-d9d1966b20d7&projectId=0198ee3c-27ac-7803-a9ea-f3b4ad4ad678","B9CAB7E6DB6D41008B3DE44C35936159-2025-08-28-02-32-23","","null","","images/semantic_sequence/creative_activities_semantic/creative_activities_semantic_1.png","null","",""
"","","","","","image-button-response","73","1089840","0.0-12.0-1.0-1.5","B9CAB7E6DB6D41008B3DE44C35936159","B9CAB7E6DB6D41008B3DE44C35936159","0198ee49-e983-75b1-aadf-d9d1966b20d7","0198ee3c-27ac-7803-a9ea-f3b4ad4ad678","{""num_scrambled_semantic"":""8"",""num_scrambled_causal"":""4"",""num_scrambled_schematic"":""4"",""participantId"":""B9CAB7E6DB6D41008B3DE44C35936159"",""assignmentId"":""0198ee49-e983-75b1-aadf-d9d1966b20d7"",""projectId"":""0198ee3c-27ac-7803-a9ea-f3b4ad4ad678""}","https://test12345.live/?num_scrambled_semantic=8&num_scrambled_causal=4&num_scrambled_schematic=4&participantId=B9CAB7E6DB6D41008B3DE44C35936159&assignmentId=0198ee49-e983-75b1-aadf-d9d1966b20d7&projectId=0198ee3c-27ac-7803-a9ea-f3b4ad4ad678","B9CAB7E6DB6D41008B3DE44C35936159-2025-08-28-02-32-23","","1882","","images/semantic_sequence/creative_activities_semantic/creative_activities_semantic_1.png","0","",""
"","","","","","image-button-response","74","1091642","0.0-12.0-1.0-2.5","B9CAB7E6DB6D41008B3DE44C35936159","B9CAB7E6DB6D41008B3DE44C35936159","0198ee49-e983-75b1-aadf-d9d1966b20d7","0198ee3c-27ac-7803-a9ea-f3b4ad4ad678","{""num_scrambled_semantic"":""8"",""num_scrambled_causal"":""4"",""num_scrambled_schematic"":""4"",""participantId"":""B9CAB7E6DB6D41008B3DE44C35936159"",""assignmentId"":""0198ee49-e983-75b1-aadf-d9d1966b20d7"",""projectId"":""0198ee3c-27ac-7803-a9ea-f3b4ad4ad678""}","https://test12345.live/?num_scrambled_semantic=8&num_scrambled_causal=4&num_scrambled_schematic=4&participantId=B9CAB7E6DB6D41008B3DE44C35936159&assignmentId=0198ee49-e983-75b1-aadf-d9d1966b20d7&projectId=0198ee3c-27ac-7803-a9ea-f3b4ad4ad678","B9CAB7E6DB6D41008B3DE44C35936159-2025-08-28-02-32-23","","null","","[]","null","",""
"","","","","","image-button-response","75","1096145","0.0-12.0-1.0-0.6","B9CAB7E6DB6D41008B3DE44C35936159","B9CAB7E6DB6D41008B3DE44C35936159","0198ee49-e983-75b1-aadf-d9d1966b20d7","0198ee3c-27ac-7803-a9ea-f3b4ad4ad678","{""num_scrambled_semantic"":""8"",""num_scrambled_causal"":""4"",""num_scrambled_schematic"":""4"",""participantId"":""B9CAB7E6DB6D41008B3DE44C35936159"",""assignmentId"":""0198ee49-e983-75b1-aadf-d9d1966b20d7"",""projectId"":""0198ee3c-27ac-7803-a9ea-f3b4ad4ad678""}","https://test12345.live/?num_scrambled_semantic=8&num_scrambled_causal=4&num_scrambled_schematic=4&participantId=B9CAB7E6DB6D41008B3DE44C35936159&assignmentId=0198ee49-e983-75b1-aadf-d9d1966b20d7&projectId=0198ee3c-27ac-7803-a9ea-f3b4ad4ad678","B9CAB7E6DB6D41008B3DE44C35936159-2025-08-28-02-32-23","","null","","images/semantic_sequence/creative_activities_semantic/creative_activities_semantic_2.png","null","",""
"","","","","","image-button-response","76","1100148","0.0-12.0-1.0-1.6","B9CAB7E6DB6D41008B3DE44C35936159","B9CAB7E6DB6D41008B3DE44C35936159","0198ee49-e983-75b1-aadf-d9d1966b20d7","0198ee3c-27ac-7803-a9ea-f3b4ad4ad678","{""num_scrambled_semantic"":""8"",""num_scrambled_causal"":""4"",""num_scrambled_schematic"":""4"",""participantId"":""B9CAB7E6DB6D41008B3DE44C35936159"",""assignmentId"":""0198ee49-e983-75b1-aadf-d9d1966b20d7"",""projectId"":""0198ee3c-27ac-7803-a9ea-f3b4ad4ad678""}","https://test12345.live/?num_scrambled_semantic=8&num_scrambled_causal=4&num_scrambled_schematic=4&participantId=B9CAB7E6DB6D41008B3DE44C35936159&assignmentId=0198ee49-e983-75b1-aadf-d9d1966b20d7&projectId=0198ee3c-27ac-7803-a9ea-f3b4ad4ad678","B9CAB7E6DB6D41008B3DE44C35936159-2025-08-28-02-32-23","","null","","images/semantic_sequence/creative_activities_semantic/creative_activities_semantic_2.png","null","",""
"","","","","","image-button-response","77","1101950","0.0-12.0-1.0-2.6","B9CAB7E6DB6D41008B3DE44C35936159","B9CAB7E6DB6D41008B3DE44C35936159","0198ee49-e983-75b1-aadf-d9d1966b20d7","0198ee3c-27ac-7803-a9ea-f3b4ad4ad678","{""num_scrambled_semantic"":""8"",""num_scrambled_causal"":""4"",""num_scrambled_schematic"":""4"",""participantId"":""B9CAB7E6DB6D41008B3DE44C35936159"",""assignmentId"":""0198ee49-e983-75b1-aadf-d9d1966b20d7"",""projectId"":""0198ee3c-27ac-7803-a9ea-f3b4ad4ad678""}","https://test12345.live/?num_scrambled_semantic=8&num_scrambled_causal=4&num_scrambled_schematic=4&participantId=B9CAB7E6DB6D41008B3DE44C35936159&assignmentId=0198ee49-e983-75b1-aadf-d9d1966b20d7&projectId=0198ee3c-27ac-7803-a9ea-f3b4ad4ad678","B9CAB7E6DB6D41008B3DE44C35936159-2025-08-28-02-32-23","","null","","[]","null","",""
"","","","","","image-button-response","78","1106453","0.0-12.0-1.0-0.7","B9CAB7E6DB6D41008B3DE44C35936159","B9CAB7E6DB6D41008B3DE44C35936159","0198ee49-e983-75b1-aadf-d9d1966b20d7","0198ee3c-27ac-7803-a9ea-f3b4ad4ad678","{""num_scrambled_semantic"":""8"",""num_scrambled_causal"":""4"",""num_scrambled_schematic"":""4"",""participantId"":""B9CAB7E6DB6D41008B3DE44C35936159"",""assignmentId"":""0198ee49-e983-75b1-aadf-d9d1966b20d7"",""projectId"":""0198ee3c-27ac-7803-a9ea-f3b4ad4ad678""}","https://test12345.live/?num_scrambled_semantic=8&num_scrambled_causal=4&num_scrambled_schematic=4&participantId=B9CAB7E6DB6D41008B3DE44C35936159&assignmentId=0198ee49-e983-75b1-aadf-d9d1966b20d7&projectId=0198ee3c-27ac-7803-a9ea-f3b4ad4ad678","B9CAB7E6DB6D41008B3DE44C35936159-2025-08-28-02-32-23","","null","","images/semantic_sequence/creative_activities_semantic/creative_activities_semantic_5.png","null","",""
"","","","","","image-button-response","79","1110456","0.0-12.0-1.0-1.7","B9CAB7E6DB6D41008B3DE44C35936159","B9CAB7E6DB6D41008B3DE44C35936159","0198ee49-e983-75b1-aadf-d9d1966b20d7","0198ee3c-27ac-7803-a9ea-f3b4ad4ad678","{""num_scrambled_semantic"":""8"",""num_scrambled_causal"":""4"",""num_scrambled_schematic"":""4"",""participantId"":""B9CAB7E6DB6D41008B3DE44C35936159"",""assignmentId"":""0198ee49-e983-75b1-aadf-d9d1966b20d7"",""projectId"":""0198ee3c-27ac-7803-a9ea-f3b4ad4ad678""}","https://test12345.live/?num_scrambled_semantic=8&num_scrambled_causal=4&num_scrambled_schematic=4&participantId=B9CAB7E6DB6D41008B3DE44C35936159&assignmentId=0198ee49-e983-75b1-aadf-d9d1966b20d7&projectId=0198ee3c-27ac-7803-a9ea-f3b4ad4ad678","B9CAB7E6DB6D41008B3DE44C35936159-2025-08-28-02-32-23","","null","","images/semantic_sequence/creative_activities_semantic/creative_activities_semantic_5.png","null","",""
"","","","","","image-button-response","80","1112260","0.0-12.0-1.0-2.7","B9CAB7E6DB6D41008B3DE44C35936159","B9CAB7E6DB6D41008B3DE44C35936159","0198ee49-e983-75b1-aadf-d9d1966b20d7","0198ee3c-27ac-7803-a9ea-f3b4ad4ad678","{""num_scrambled_semantic"":""8"",""num_scrambled_causal"":""4"",""num_scrambled_schematic"":""4"",""participantId"":""B9CAB7E6DB6D41008B3DE44C35936159"",""assignmentId"":""0198ee49-e983-75b1-aadf-d9d1966b20d7"",""projectId"":""0198ee3c-27ac-7803-a9ea-f3b4ad4ad678""}","https://test12345.live/?num_scrambled_semantic=8&num_scrambled_causal=4&num_scrambled_schematic=4&participantId=B9CAB7E6DB6D41008B3DE44C35936159&assignmentId=0198ee49-e983-75b1-aadf-d9d1966b20d7&projectId=0198ee3c-27ac-7803-a9ea-f3b4ad4ad678","B9CAB7E6DB6D41008B3DE44C35936159-2025-08-28-02-32-23","","null","","[]","null","",""
"","","","","","image-button-response","81","1116762","0.0-12.0-1.0-0.8","B9CAB7E6DB6D41008B3DE44C35936159","B9CAB7E6DB6D41008B3DE44C35936159","0198ee49-e983-75b1-aadf-d9d1966b20d7","0198ee3c-27ac-7803-a9ea-f3b4ad4ad678","{""num_scrambled_semantic"":""8"",""num_scrambled_causal"":""4"",""num_scrambled_schematic"":""4"",""participantId"":""B9CAB7E6DB6D41008B3DE44C35936159"",""assignmentId"":""0198ee49-e983-75b1-aadf-d9d1966b20d7"",""projectId"":""0198ee3c-27ac-7803-a9ea-f3b4ad4ad678""}","https://test12345.live/?num_scrambled_semantic=8&num_scrambled_causal=4&num_scrambled_schematic=4&participantId=B9CAB7E6DB6D41008B3DE44C35936159&assignmentId=0198ee49-e983-75b1-aadf-d9d1966b20d7&projectId=0198ee3c-27ac-7803-a9ea-f3b4ad4ad678","B9CAB7E6DB6D41008B3DE44C35936159-2025-08-28-02-32-23","","null","","images/semantic_sequence/creative_activities_semantic/creative_activities_semantic_7.png","null","",""
"","","","","","image-button-response","82","1118026","0.0-12.0-1.0-1.8","B9CAB7E6DB6D41008B3DE44C35936159","B9CAB7E6DB6D41008B3DE44C35936159","0198ee49-e983-75b1-aadf-d9d1966b20d7","0198ee3c-27ac-7803-a9ea-f3b4ad4ad678","{""num_scrambled_semantic"":""8"",""num_scrambled_causal"":""4"",""num_scrambled_schematic"":""4"",""participantId"":""B9CAB7E6DB6D41008B3DE44C35936159"",""assignmentId"":""0198ee49-e983-75b1-aadf-d9d1966b20d7"",""projectId"":""0198ee3c-27ac-7803-a9ea-f3b4ad4ad678""}","https://test12345.live/?num_scrambled_semantic=8&num_scrambled_causal=4&num_scrambled_schematic=4&participantId=B9CAB7E6DB6D41008B3DE44C35936159&assignmentId=0198ee49-e983-75b1-aadf-d9d1966b20d7&projectId=0198ee3c-27ac-7803-a9ea-f3b4ad4ad678","B9CAB7E6DB6D41008B3DE44C35936159-2025-08-28-02-32-23","","1260","","images/semantic_sequence/creative_activities_semantic/creative_activities_semantic_7.png","0","",""
"","","","","","image-button-response","83","1119829","0.0-12.0-1.0-2.8","B9CAB7E6DB6D41008B3DE44C35936159","B9CAB7E6DB6D41008B3DE44C35936159","0198ee49-e983-75b1-aadf-d9d1966b20d7","0198ee3c-27ac-7803-a9ea-f3b4ad4ad678","{""num_scrambled_semantic"":""8"",""num_scrambled_causal"":""4"",""num_scrambled_schematic"":""4"",""participantId"":""B9CAB7E6DB6D41008B3DE44C35936159"",""assignmentId"":""0198ee49-e983-75b1-aadf-d9d1966b20d7"",""projectId"":""0198ee3c-27ac-7803-a9ea-f3b4ad4ad678""}","https://test12345.live/?num_scrambled_semantic=8&num_scrambled_causal=4&num_scrambled_schematic=4&participantId=B9CAB7E6DB6D41008B3DE44C35936159&assignmentId=0198ee49-e983-75b1-aadf-d9d1966b20d7&projectId=0198ee3c-27ac-7803-a9ea-f3b4ad4ad678","B9CAB7E6DB6D41008B3DE44C35936159-2025-08-28-02-32-23","","null","","[]","null","",""
"","","","","","image-button-response","84","1124331","0.0-12.0-1.0-0.9","B9CAB7E6DB6D41008B3DE44C35936159","B9CAB7E6DB6D41008B3DE44C35936159","0198ee49-e983-75b1-aadf-d9d1966b20d7","0198ee3c-27ac-7803-a9ea-f3b4ad4ad678","{""num_scrambled_semantic"":""8"",""num_scrambled_causal"":""4"",""num_scrambled_schematic"":""4"",""participantId"":""B9CAB7E6DB6D41008B3DE44C35936159"",""assignmentId"":""0198ee49-e983-75b1-aadf-d9d1966b20d7"",""projectId"":""0198ee3c-27ac-7803-a9ea-f3b4ad4ad678""}","https://test12345.live/?num_scrambled_semantic=8&num_scrambled_causal=4&num_scrambled_schematic=4&participantId=B9CAB7E6DB6D41008B3DE44C35936159&assignmentId=0198ee49-e983-75b1-aadf-d9d1966b20d7&projectId=0198ee3c-27ac-7803-a9ea-f3b4ad4ad678","B9CAB7E6DB6D41008B3DE44C35936159-2025-08-28-02-32-23","","null","","images/semantic_sequence/creative_activities_semantic/creative_activities_semantic_3.png","null","",""
"","","","","","image-button-response","85","1127709","0.0-12.0-1.0-1.9","B9CAB7E6DB6D41008B3DE44C35936159","B9CAB7E6DB6D41008B3DE44C35936159","0198ee49-e983-75b1-aadf-d9d1966b20d7","0198ee3c-27ac-7803-a9ea-f3b4ad4ad678","{""num_scrambled_semantic"":""8"",""num_scrambled_causal"":""4"",""num_scrambled_schematic"":""4"",""participantId"":""B9CAB7E6DB6D41008B3DE44C35936159"",""assignmentId"":""0198ee49-e983-75b1-aadf-d9d1966b20d7"",""projectId"":""0198ee3c-27ac-7803-a9ea-f3b4ad4ad678""}","https://test12345.live/?num_scrambled_semantic=8&num_scrambled_causal=4&num_scrambled_schematic=4&participantId=B9CAB7E6DB6D41008B3DE44C35936159&assignmentId=0198ee49-e983-75b1-aadf-d9d1966b20d7&projectId=0198ee3c-27ac-7803-a9ea-f3b4ad4ad678","B9CAB7E6DB6D41008B3DE44C35936159-2025-08-28-02-32-23","","3375","","images/semantic_sequence/creative_activities_semantic/creative_activities_semantic_3.png","0","",""
"","","","","","image-button-response","86","1129511","0.0-12.0-1.0-2.9","B9CAB7E6DB6D41008B3DE44C35936159","B9CAB7E6DB6D41008B3DE44C35936159","0198ee49-e983-75b1-aadf-d9d1966b20d7","0198ee3c-27ac-7803-a9ea-f3b4ad4ad678","{""num_scrambled_semantic"":""8"",""num_scrambled_causal"":""4"",""num_scrambled_schematic"":""4"",""participantId"":""B9CAB7E6DB6D41008B3DE44C35936159"",""assignmentId"":""0198ee49-e983-75b1-aadf-d9d1966b20d7"",""projectId"":""0198ee3c-27ac-7803-a9ea-f3b4ad4ad678""}","https://test12345.live/?num_scrambled_semantic=8&num_scrambled_causal=4&num_scrambled_schematic=4&participantId=B9CAB7E6DB6D41008B3DE44C35936159&assignmentId=0198ee49-e983-75b1-aadf-d9d1966b20d7&projectId=0198ee3c-27ac-7803-a9ea-f3b4ad4ad678","B9CAB7E6DB6D41008B3DE44C35936159-2025-08-28-02-32-23","","null","","[]","null","",""
"","","","","","html-audio-response","87","1439745","0.0-13.0","B9CAB7E6DB6D41008B3DE44C35936159","B9CAB7E6DB6D41008B3DE44C35936159","0198ee49-e983-75b1-aadf-d9d1966b20d7","0198ee3c-27ac-7803-a9ea-f3b4ad4ad678","{""num_scrambled_semantic"":""8"",""num_scrambled_causal"":""4"",""num_scrambled_schematic"":""4"",""participantId"":""B9CAB7E6DB6D41008B3DE44C35936159"",""assignmentId"":""0198ee49-e983-75b1-aadf-d9d1966b20d7"",""projectId"":""0198ee3c-27ac-7803-a9ea-f3b4ad4ad678""}","https://test12345.live/?num_scrambled_semantic=8&num_scrambled_causal=4&num_scrambled_schematic=4&participantId=B9CAB7E6DB6D41008B3DE44C35936159&assignmentId=0198ee49-e983-75b1-aadf-d9d1966b20d7&projectId=0198ee3c-27ac-7803-a9ea-f3b4ad4ad678","B9CAB7E6DB6D41008B3DE44C35936159-2025-08-28-02-32-23","","1427","","[""<span style=\""color: red; font-size: 24px\""> NOW RECORDING</span><p>Please say out loud all the images you saw, in the order of the story they create. Try to recall the sequence of events as they appeared in the story, not necessarily the order they were presented on the screen.</p>""]","","10","creative_activities_semantic"
"","","","","","image-button-response","88","1445749","0.0-14.0-0.0","B9CAB7E6DB6D41008B3DE44C35936159","B9CAB7E6DB6D41008B3DE44C35936159","0198ee49-e983-75b1-aadf-d9d1966b20d7","0198ee3c-27ac-7803-a9ea-f3b4ad4ad678","{""num_scrambled_semantic"":""8"",""num_scrambled_causal"":""4"",""num_scrambled_schematic"":""4"",""participantId"":""B9CAB7E6DB6D41008B3DE44C35936159"",""assignmentId"":""0198ee49-e983-75b1-aadf-d9d1966b20d7"",""projectId"":""0198ee3c-27ac-7803-a9ea-f3b4ad4ad678""}","https://test12345.live/?num_scrambled_semantic=8&num_scrambled_causal=4&num_scrambled_schematic=4&participantId=B9CAB7E6DB6D41008B3DE44C35936159&assignmentId=0198ee49-e983-75b1-aadf-d9d1966b20d7&projectId=0198ee3c-27ac-7803-a9ea-f3b4ad4ad678","B9CAB7E6DB6D41008B3DE44C35936159-2025-08-28-02-32-23","","null","","images/semantic_sequence/market_semantic/market_semantic_0.png","null","",""
"","","","","","image-button-response","89","1450251","0.0-14.0-1.0-0.0","B9CAB7E6DB6D41008B3DE44C35936159","B9CAB7E6DB6D41008B3DE44C35936159","0198ee49-e983-75b1-aadf-d9d1966b20d7","0198ee3c-27ac-7803-a9ea-f3b4ad4ad678","{""num_scrambled_semantic"":""8"",""num_scrambled_causal"":""4"",""num_scrambled_schematic"":""4"",""participantId"":""B9CAB7E6DB6D41008B3DE44C35936159"",""assignmentId"":""0198ee49-e983-75b1-aadf-d9d1966b20d7"",""projectId"":""0198ee3c-27ac-7803-a9ea-f3b4ad4ad678""}","https://test12345.live/?num_scrambled_semantic=8&num_scrambled_causal=4&num_scrambled_schematic=4&participantId=B9CAB7E6DB6D41008B3DE44C35936159&assignmentId=0198ee49-e983-75b1-aadf-d9d1966b20d7&projectId=0198ee3c-27ac-7803-a9ea-f3b4ad4ad678","B9CAB7E6DB6D41008B3DE44C35936159-2025-08-28-02-32-23","","null","","images/semantic_sequence/market_semantic/market_semantic_1.png","null","",""
"","","","","","image-button-response","90","1454254","0.0-14.0-1.0-1.0","B9CAB7E6DB6D41008B3DE44C35936159","B9CAB7E6DB6D41008B3DE44C35936159","0198ee49-e983-75b1-aadf-d9d1966b20d7","0198ee3c-27ac-7803-a9ea-f3b4ad4ad678","{""num_scrambled_semantic"":""8"",""num_scrambled_causal"":""4"",""num_scrambled_schematic"":""4"",""participantId"":""B9CAB7E6DB6D41008B3DE44C35936159"",""assignmentId"":""0198ee49-e983-75b1-aadf-d9d1966b20d7"",""projectId"":""0198ee3c-27ac-7803-a9ea-f3b4ad4ad678""}","https://test12345.live/?num_scrambled_semantic=8&num_scrambled_causal=4&num_scrambled_schematic=4&participantId=B9CAB7E6DB6D41008B3DE44C35936159&assignmentId=0198ee49-e983-75b1-aadf-d9d1966b20d7&projectId=0198ee3c-27ac-7803-a9ea-f3b4ad4ad678","B9CAB7E6DB6D41008B3DE44C35936159-2025-08-28-02-32-23","","null","","images/semantic_sequence/market_semantic/market_semantic_1.png","null","",""
"","","","","","image-button-response","91","1456057","0.0-14.0-1.0-2.0","B9CAB7E6DB6D41008B3DE44C35936159","B9CAB7E6DB6D41008B3DE44C35936159","0198ee49-e983-75b1-aadf-d9d1966b20d7","0198ee3c-27ac-7803-a9ea-f3b4ad4ad678","{""num_scrambled_semantic"":""8"",""num_scrambled_causal"":""4"",""num_scrambled_schematic"":""4"",""participantId"":""B9CAB7E6DB6D41008B3DE44C35936159"",""assignmentId"":""0198ee49-e983-75b1-aadf-d9d1966b20d7"",""projectId"":""0198ee3c-27ac-7803-a9ea-f3b4ad4ad678""}","https://test12345.live/?num_scrambled_semantic=8&num_scrambled_causal=4&num_scrambled_schematic=4&participantId=B9CAB7E6DB6D41008B3DE44C35936159&assignmentId=0198ee49-e983-75b1-aadf-d9d1966b20d7&projectId=0198ee3c-27ac-7803-a9ea-f3b4ad4ad678","B9CAB7E6DB6D41008B3DE44C35936159-2025-08-28-02-32-23","","null","","[]","null","",""
"","","","","","image-button-response","92","1460560","0.0-14.0-1.0-0.1","B9CAB7E6DB6D41008B3DE44C35936159","B9CAB7E6DB6D41008B3DE44C35936159","0198ee49-e983-75b1-aadf-d9d1966b20d7","0198ee3c-27ac-7803-a9ea-f3b4ad4ad678","{""num_scrambled_semantic"":""8"",""num_scrambled_causal"":""4"",""num_scrambled_schematic"":""4"",""participantId"":""B9CAB7E6DB6D41008B3DE44C35936159"",""assignmentId"":""0198ee49-e983-75b1-aadf-d9d1966b20d7"",""projectId"":""0198ee3c-27ac-7803-a9ea-f3b4ad4ad678""}","https://test12345.live/?num_scrambled_semantic=8&num_scrambled_causal=4&num_scrambled_schematic=4&participantId=B9CAB7E6DB6D41008B3DE44C35936159&assignmentId=0198ee49-e983-75b1-aadf-d9d1966b20d7&projectId=0198ee3c-27ac-7803-a9ea-f3b4ad4ad678","B9CAB7E6DB6D41008B3DE44C35936159-2025-08-28-02-32-23","","null","","images/semantic_sequence/market_semantic/market_semantic_2.png","null","",""
"","","","","","image-button-response","93","1462079","0.0-14.0-1.0-1.1","B9CAB7E6DB6D41008B3DE44C35936159","B9CAB7E6DB6D41008B3DE44C35936159","0198ee49-e983-75b1-aadf-d9d1966b20d7","0198ee3c-27ac-7803-a9ea-f3b4ad4ad678","{""num_scrambled_semantic"":""8"",""num_scrambled_causal"":""4"",""num_scrambled_schematic"":""4"",""participantId"":""B9CAB7E6DB6D41008B3DE44C35936159"",""assignmentId"":""0198ee49-e983-75b1-aadf-d9d1966b20d7"",""projectId"":""0198ee3c-27ac-7803-a9ea-f3b4ad4ad678""}","https://test12345.live/?num_scrambled_semantic=8&num_scrambled_causal=4&num_scrambled_schematic=4&participantId=B9CAB7E6DB6D41008B3DE44C35936159&assignmentId=0198ee49-e983-75b1-aadf-d9d1966b20d7&projectId=0198ee3c-27ac-7803-a9ea-f3b4ad4ad678","B9CAB7E6DB6D41008B3DE44C35936159-2025-08-28-02-32-23","","1517","","images/semantic_sequence/market_semantic/market_semantic_2.png","1","",""
"","","","","","image-button-response","94","1463882","0.0-14.0-1.0-2.1","B9CAB7E6DB6D41008B3DE44C35936159","B9CAB7E6DB6D41008B3DE44C35936159","0198ee49-e983-75b1-aadf-d9d1966b20d7","0198ee3c-27ac-7803-a9ea-f3b4ad4ad678","{""num_scrambled_semantic"":""8"",""num_scrambled_causal"":""4"",""num_scrambled_schematic"":""4"",""participantId"":""B9CAB7E6DB6D41008B3DE44C35936159"",""assignmentId"":""0198ee49-e983-75b1-aadf-d9d1966b20d7"",""projectId"":""0198ee3c-27ac-7803-a9ea-f3b4ad4ad678""}","https://test12345.live/?num_scrambled_semantic=8&num_scrambled_causal=4&num_scrambled_schematic=4&participantId=B9CAB7E6DB6D41008B3DE44C35936159&assignmentId=0198ee49-e983-75b1-aadf-d9d1966b20d7&projectId=0198ee3c-27ac-7803-a9ea-f3b4ad4ad678","B9CAB7E6DB6D41008B3DE44C35936159-2025-08-28-02-32-23","","null","","[]","null","",""
"","","","","","image-button-response","95","1468384","0.0-14.0-1.0-0.2","B9CAB7E6DB6D41008B3DE44C35936159","B9CAB7E6DB6D41008B3DE44C35936159","0198ee49-e983-75b1-aadf-d9d1966b20d7","0198ee3c-27ac-7803-a9ea-f3b4ad4ad678","{""num_scrambled_semantic"":""8"",""num_scrambled_causal"":""4"",""num_scrambled_schematic"":""4"",""participantId"":""B9CAB7E6DB6D41008B3DE44C35936159"",""assignmentId"":""0198ee49-e983-75b1-aadf-d9d1966b20d7"",""projectId"":""0198ee3c-27ac-7803-a9ea-f3b4ad4ad678""}","https://test12345.live/?num_scrambled_semantic=8&num_scrambled_causal=4&num_scrambled_schematic=4&participantId=B9CAB7E6DB6D41008B3DE44C35936159&assignmentId=0198ee49-e983-75b1-aadf-d9d1966b20d7&projectId=0198ee3c-27ac-7803-a9ea-f3b4ad4ad678","B9CAB7E6DB6D41008B3DE44C35936159-2025-08-28-02-32-23","","null","","images/semantic_sequence/market_semantic/market_semantic_3.png","null","",""
"","","","","","image-button-response","96","1469738","0.0-14.0-1.0-1.2","B9CAB7E6DB6D41008B3DE44C35936159","B9CAB7E6DB6D41008B3DE44C35936159","0198ee49-e983-75b1-aadf-d9d1966b20d7","0198ee3c-27ac-7803-a9ea-f3b4ad4ad678","{""num_scrambled_semantic"":""8"",""num_scrambled_causal"":""4"",""num_scrambled_schematic"":""4"",""participantId"":""B9CAB7E6DB6D41008B3DE44C35936159"",""assignmentId"":""0198ee49-e983-75b1-aadf-d9d1966b20d7"",""projectId"":""0198ee3c-27ac-7803-a9ea-f3b4ad4ad678""}","https://test12345.live/?num_scrambled_semantic=8&num_scrambled_causal=4&num_scrambled_schematic=4&participantId=B9CAB7E6DB6D41008B3DE44C35936159&assignmentId=0198ee49-e983-75b1-aadf-d9d1966b20d7&projectId=0198ee3c-27ac-7803-a9ea-f3b4ad4ad678","B9CAB7E6DB6D41008B3DE44C35936159-2025-08-28-02-32-23","","1352","","images/semantic_sequence/market_semantic/market_semantic_3.png","1","",""
"","","","","","image-button-response","97","1471543","0.0-14.0-1.0-2.2","B9CAB7E6DB6D41008B3DE44C35936159","B9CAB7E6DB6D41008B3DE44C35936159","0198ee49-e983-75b1-aadf-d9d1966b20d7","0198ee3c-27ac-7803-a9ea-f3b4ad4ad678","{""num_scrambled_semantic"":""8"",""num_scrambled_causal"":""4"",""num_scrambled_schematic"":""4"",""participantId"":""B9CAB7E6DB6D41008B3DE44C35936159"",""assignmentId"":""0198ee49-e983-75b1-aadf-d9d1966b20d7"",""projectId"":""0198ee3c-27ac-7803-a9ea-f3b4ad4ad678""}","https://test12345.live/?num_scrambled_semantic=8&num_scrambled_causal=4&num_scrambled_schematic=4&participantId=B9CAB7E6DB6D41008B3DE44C35936159&assignmentId=0198ee49-e983-75b1-aadf-d9d1966b20d7&projectId=0198ee3c-27ac-7803-a9ea-f3b4ad4ad678","B9CAB7E6DB6D41008B3DE44C35936159-2025-08-28-02-32-23","","null","","[]","null","",""
"","","","","","image-button-response","98","1476046","0.0-14.0-1.0-0.3","B9CAB7E6DB6D41008B3DE44C35936159","B9CAB7E6DB6D41008B3DE44C35936159","0198ee49-e983-75b1-aadf-d9d1966b20d7","0198ee3c-27ac-7803-a9ea-f3b4ad4ad678","{""num_scrambled_semantic"":""8"",""num_scrambled_causal"":""4"",""num_scrambled_schematic"":""4"",""participantId"":""B9CAB7E6DB6D41008B3DE44C35936159"",""assignmentId"":""0198ee49-e983-75b1-aadf-d9d1966b20d7"",""projectId"":""0198ee3c-27ac-7803-a9ea-f3b4ad4ad678""}","https://test12345.live/?num_scrambled_semantic=8&num_scrambled_causal=4&num_scrambled_schematic=4&participantId=B9CAB7E6DB6D41008B3DE44C35936159&assignmentId=0198ee49-e983-75b1-aadf-d9d1966b20d7&projectId=0198ee3c-27ac-7803-a9ea-f3b4ad4ad678","B9CAB7E6DB6D41008B3DE44C35936159-2025-08-28-02-32-23","","null","","images/semantic_sequence/market_semantic/market_semantic_4.png","null","",""
"","","","","","image-button-response","99","1477045","0.0-14.0-1.0-1.3","B9CAB7E6DB6D41008B3DE44C35936159","B9CAB7E6DB6D41008B3DE44C35936159","0198ee49-e983-75b1-aadf-d9d1966b20d7","0198ee3c-27ac-7803-a9ea-f3b4ad4ad678","{""num_scrambled_semantic"":""8"",""num_scrambled_causal"":""4"",""num_scrambled_schematic"":""4"",""participantId"":""B9CAB7E6DB6D41008B3DE44C35936159"",""assignmentId"":""0198ee49-e983-75b1-aadf-d9d1966b20d7"",""projectId"":""0198ee3c-27ac-7803-a9ea-f3b4ad4ad678""}","https://test12345.live/?num_scrambled_semantic=8&num_scrambled_causal=4&num_scrambled_schematic=4&participantId=B9CAB7E6DB6D41008B3DE44C35936159&assignmentId=0198ee49-e983-75b1-aadf-d9d1966b20d7&projectId=0198ee3c-27ac-7803-a9ea-f3b4ad4ad678","B9CAB7E6DB6D41008B3DE44C35936159-2025-08-28-02-32-23","","997","","images/semantic_sequence/market_semantic/market_semantic_4.png","0","",""
"","","","","","image-button-response","100","1478846","0.0-14.0-1.0-2.3","B9CAB7E6DB6D41008B3DE44C35936159","B9CAB7E6DB6D41008B3DE44C35936159","0198ee49-e983-75b1-aadf-d9d1966b20d7","0198ee3c-27ac-7803-a9ea-f3b4ad4ad678","{""num_scrambled_semantic"":""8"",""num_scrambled_causal"":""4"",""num_scrambled_schematic"":""4"",""participantId"":""B9CAB7E6DB6D41008B3DE44C35936159"",""assignmentId"":""0198ee49-e983-75b1-aadf-d9d1966b20d7"",""projectId"":""0198ee3c-27ac-7803-a9ea-f3b4ad4ad678""}","https://test12345.live/?num_scrambled_semantic=8&num_scrambled_causal=4&num_scrambled_schematic=4&participantId=B9CAB7E6DB6D41008B3DE44C35936159&assignmentId=0198ee49-e983-75b1-aadf-d9d1966b20d7&projectId=0198ee3c-27ac-7803-a9ea-f3b4ad4ad678","B9CAB7E6DB6D41008B3DE44C35936159-2025-08-28-02-32-23","","null","","[]","null","",""
"","","","","","image-button-response","101","1483349","0.0-14.0-1.0-0.4","B9CAB7E6DB6D41008B3DE44C35936159","B9CAB7E6DB6D41008B3DE44C35936159","0198ee49-e983-75b1-aadf-d9d1966b20d7","0198ee3c-27ac-7803-a9ea-f3b4ad4ad678","{""num_scrambled_semantic"":""8"",""num_scrambled_causal"":""4"",""num_scrambled_schematic"":""4"",""participantId"":""B9CAB7E6DB6D41008B3DE44C35936159"",""assignmentId"":""0198ee49-e983-75b1-aadf-d9d1966b20d7"",""projectId"":""0198ee3c-27ac-7803-a9ea-f3b4ad4ad678""}","https://test12345.live/?num_scrambled_semantic=8&num_scrambled_causal=4&num_scrambled_schematic=4&participantId=B9CAB7E6DB6D41008B3DE44C35936159&assignmentId=0198ee49-e983-75b1-aadf-d9d1966b20d7&projectId=0198ee3c-27ac-7803-a9ea-f3b4ad4ad678","B9CAB7E6DB6D41008B3DE44C35936159-2025-08-28-02-32-23","","null","","images/semantic_sequence/market_semantic/market_semantic_5.png","null","",""
"","","","","","image-button-response","102","1485835","0.0-14.0-1.0-1.4","B9CAB7E6DB6D41008B3DE44C35936159","B9CAB7E6DB6D41008B3DE44C35936159","0198ee49-e983-75b1-aadf-d9d1966b20d7","0198ee3c-27ac-7803-a9ea-f3b4ad4ad678","{""num_scrambled_semantic"":""8"",""num_scrambled_causal"":""4"",""num_scrambled_schematic"":""4"",""participantId"":""B9CAB7E6DB6D41008B3DE44C35936159"",""assignmentId"":""0198ee49-e983-75b1-aadf-d9d1966b20d7"",""projectId"":""0198ee3c-27ac-7803-a9ea-f3b4ad4ad678""}","https://test12345.live/?num_scrambled_semantic=8&num_scrambled_causal=4&num_scrambled_schematic=4&participantId=B9CAB7E6DB6D41008B3DE44C35936159&assignmentId=0198ee49-e983-75b1-aadf-d9d1966b20d7&projectId=0198ee3c-27ac-7803-a9ea-f3b4ad4ad678","B9CAB7E6DB6D41008B3DE44C35936159-2025-08-28-02-32-23","","2483","","images/semantic_sequence/market_semantic/market_semantic_5.png","1","",""
"","","","","","image-button-response","103","1487637","0.0-14.0-1.0-2.4","B9CAB7E6DB6D41008B3DE44C35936159","B9CAB7E6DB6D41008B3DE44C35936159","0198ee49-e983-75b1-aadf-d9d1966b20d7","0198ee3c-27ac-7803-a9ea-f3b4ad4ad678","{""num_scrambled_semantic"":""8"",""num_scrambled_causal"":""4"",""num_scrambled_schematic"":""4"",""participantId"":""B9CAB7E6DB6D41008B3DE44C35936159"",""assignmentId"":""0198ee49-e983-75b1-aadf-d9d1966b20d7"",""projectId"":""0198ee3c-27ac-7803-a9ea-f3b4ad4ad678""}","https://test12345.live/?num_scrambled_semantic=8&num_scrambled_causal=4&num_scrambled_schematic=4&participantId=B9CAB7E6DB6D41008B3DE44C35936159&assignmentId=0198ee49-e983-75b1-aadf-d9d1966b20d7&projectId=0198ee3c-27ac-7803-a9ea-f3b4ad4ad678","B9CAB7E6DB6D41008B3DE44C35936159-2025-08-28-02-32-23","","null","","[]","null","",""
"","","","","","image-button-response","104","1492140","0.0-14.0-1.0-0.5","B9CAB7E6DB6D41008B3DE44C35936159","B9CAB7E6DB6D41008B3DE44C35936159","0198ee49-e983-75b1-aadf-d9d1966b20d7","0198ee3c-27ac-7803-a9ea-f3b4ad4ad678","{""num_scrambled_semantic"":""8"",""num_scrambled_causal"":""4"",""num_scrambled_schematic"":""4"",""participantId"":""B9CAB7E6DB6D41008B3DE44C35936159"",""assignmentId"":""0198ee49-e983-75b1-aadf-d9d1966b20d7"",""projectId"":""0198ee3c-27ac-7803-a9ea-f3b4ad4ad678""}","https://test12345.live/?num_scrambled_semantic=8&num_scrambled_causal=4&num_scrambled_schematic=4&participantId=B9CAB7E6DB6D41008B3DE44C35936159&assignmentId=0198ee49-e983-75b1-aadf-d9d1966b20d7&projectId=0198ee3c-27ac-7803-a9ea-f3b4ad4ad678","B9CAB7E6DB6D41008B3DE44C35936159-2025-08-28-02-32-23","","null","","images/semantic_sequence/market_semantic/market_semantic_6.png","null","",""
"","","","","","image-button-response","105","1493528","0.0-14.0-1.0-1.5","B9CAB7E6DB6D41008B3DE44C35936159","B9CAB7E6DB6D41008B3DE44C35936159","0198ee49-e983-75b1-aadf-d9d1966b20d7","0198ee3c-27ac-7803-a9ea-f3b4ad4ad678","{""num_scrambled_semantic"":""8"",""num_scrambled_causal"":""4"",""num_scrambled_schematic"":""4"",""participantId"":""B9CAB7E6DB6D41008B3DE44C35936159"",""assignmentId"":""0198ee49-e983-75b1-aadf-d9d1966b20d7"",""projectId"":""0198ee3c-27ac-7803-a9ea-f3b4ad4ad678""}","https://test12345.live/?num_scrambled_semantic=8&num_scrambled_causal=4&num_scrambled_schematic=4&participantId=B9CAB7E6DB6D41008B3DE44C35936159&assignmentId=0198ee49-e983-75b1-aadf-d9d1966b20d7&projectId=0198ee3c-27ac-7803-a9ea-f3b4ad4ad678","B9CAB7E6DB6D41008B3DE44C35936159-2025-08-28-02-32-23","","1386","","images/semantic_sequence/market_semantic/market_semantic_6.png","1","",""
"","","","","","image-button-response","106","1495329","0.0-14.0-1.0-2.5","B9CAB7E6DB6D41008B3DE44C35936159","B9CAB7E6DB6D41008B3DE44C35936159","0198ee49-e983-75b1-aadf-d9d1966b20d7","0198ee3c-27ac-7803-a9ea-f3b4ad4ad678","{""num_scrambled_semantic"":""8"",""num_scrambled_causal"":""4"",""num_scrambled_schematic"":""4"",""participantId"":""B9CAB7E6DB6D41008B3DE44C35936159"",""assignmentId"":""0198ee49-e983-75b1-aadf-d9d1966b20d7"",""projectId"":""0198ee3c-27ac-7803-a9ea-f3b4ad4ad678""}","https://test12345.live/?num_scrambled_semantic=8&num_scrambled_causal=4&num_scrambled_schematic=4&participantId=B9CAB7E6DB6D41008B3DE44C35936159&assignmentId=0198ee49-e983-75b1-aadf-d9d1966b20d7&projectId=0198ee3c-27ac-7803-a9ea-f3b4ad4ad678","B9CAB7E6DB6D41008B3DE44C35936159-2025-08-28-02-32-23","","null","","[]","null","",""
"","","","","","image-button-response","107","1499831","0.0-14.0-1.0-0.6","B9CAB7E6DB6D41008B3DE44C35936159","B9CAB7E6DB6D41008B3DE44C35936159","0198ee49-e983-75b1-aadf-d9d1966b20d7","0198ee3c-27ac-7803-a9ea-f3b4ad4ad678","{""num_scrambled_semantic"":""8"",""num_scrambled_causal"":""4"",""num_scrambled_schematic"":""4"",""participantId"":""B9CAB7E6DB6D41008B3DE44C35936159"",""assignmentId"":""0198ee49-e983-75b1-aadf-d9d1966b20d7"",""projectId"":""0198ee3c-27ac-7803-a9ea-f3b4ad4ad678""}","https://test12345.live/?num_scrambled_semantic=8&num_scrambled_causal=4&num_scrambled_schematic=4&participantId=B9CAB7E6DB6D41008B3DE44C35936159&assignmentId=0198ee49-e983-75b1-aadf-d9d1966b20d7&projectId=0198ee3c-27ac-7803-a9ea-f3b4ad4ad678","B9CAB7E6DB6D41008B3DE44C35936159-2025-08-28-02-32-23","","null","","images/semantic_sequence/market_semantic/market_semantic_7.png","null","",""
"","","","","","image-button-response","108","1502258","0.0-14.0-1.0-1.6","B9CAB7E6DB6D41008B3DE44C35936159","B9CAB7E6DB6D41008B3DE44C35936159","0198ee49-e983-75b1-aadf-d9d1966b20d7","0198ee3c-27ac-7803-a9ea-f3b4ad4ad678","{""num_scrambled_semantic"":""8"",""num_scrambled_causal"":""4"",""num_scrambled_schematic"":""4"",""participantId"":""B9CAB7E6DB6D41008B3DE44C35936159"",""assignmentId"":""0198ee49-e983-75b1-aadf-d9d1966b20d7"",""projectId"":""0198ee3c-27ac-7803-a9ea-f3b4ad4ad678""}","https://test12345.live/?num_scrambled_semantic=8&num_scrambled_causal=4&num_scrambled_schematic=4&participantId=B9CAB7E6DB6D41008B3DE44C35936159&assignmentId=0198ee49-e983-75b1-aadf-d9d1966b20d7&projectId=0198ee3c-27ac-7803-a9ea-f3b4ad4ad678","B9CAB7E6DB6D41008B3DE44C35936159-2025-08-28-02-32-23","","2421","","images/semantic_sequence/market_semantic/market_semantic_7.png","0","",""
"","","","","","image-button-response","109","1504060","0.0-14.0-1.0-2.6","B9CAB7E6DB6D41008B3DE44C35936159","B9CAB7E6DB6D41008B3DE44C35936159","0198ee49-e983-75b1-aadf-d9d1966b20d7","0198ee3c-27ac-7803-a9ea-f3b4ad4ad678","{""num_scrambled_semantic"":""8"",""num_scrambled_causal"":""4"",""num_scrambled_schematic"":""4"",""participantId"":""B9CAB7E6DB6D41008B3DE44C35936159"",""assignmentId"":""0198ee49-e983-75b1-aadf-d9d1966b20d7"",""projectId"":""0198ee3c-27ac-7803-a9ea-f3b4ad4ad678""}","https://test12345.live/?num_scrambled_semantic=8&num_scrambled_causal=4&num_scrambled_schematic=4&participantId=B9CAB7E6DB6D41008B3DE44C35936159&assignmentId=0198ee49-e983-75b1-aadf-d9d1966b20d7&projectId=0198ee3c-27ac-7803-a9ea-f3b4ad4ad678","B9CAB7E6DB6D41008B3DE44C35936159-2025-08-28-02-32-23","","null","","[]","null","",""
"","","","","","image-button-response","110","1508563","0.0-14.0-1.0-0.7","B9CAB7E6DB6D41008B3DE44C35936159","B9CAB7E6DB6D41008B3DE44C35936159","0198ee49-e983-75b1-aadf-d9d1966b20d7","0198ee3c-27ac-7803-a9ea-f3b4ad4ad678","{""num_scrambled_semantic"":""8"",""num_scrambled_causal"":""4"",""num_scrambled_schematic"":""4"",""participantId"":""B9CAB7E6DB6D41008B3DE44C35936159"",""assignmentId"":""0198ee49-e983-75b1-aadf-d9d1966b20d7"",""projectId"":""0198ee3c-27ac-7803-a9ea-f3b4ad4ad678""}","https://test12345.live/?num_scrambled_semantic=8&num_scrambled_causal=4&num_scrambled_schematic=4&participantId=B9CAB7E6DB6D41008B3DE44C35936159&assignmentId=0198ee49-e983-75b1-aadf-d9d1966b20d7&projectId=0198ee3c-27ac-7803-a9ea-f3b4ad4ad678","B9CAB7E6DB6D41008B3DE44C35936159-2025-08-28-02-32-23","","null","","images/semantic_sequence/market_semantic/market_semantic_8.png","null","",""
"","","","","","image-button-response","111","1511041","0.0-14.0-1.0-1.7","B9CAB7E6DB6D41008B3DE44C35936159","B9CAB7E6DB6D41008B3DE44C35936159","0198ee49-e983-75b1-aadf-d9d1966b20d7","0198ee3c-27ac-7803-a9ea-f3b4ad4ad678","{""num_scrambled_semantic"":""8"",""num_scrambled_causal"":""4"",""num_scrambled_schematic"":""4"",""participantId"":""B9CAB7E6DB6D41008B3DE44C35936159"",""assignmentId"":""0198ee49-e983-75b1-aadf-d9d1966b20d7"",""projectId"":""0198ee3c-27ac-7803-a9ea-f3b4ad4ad678""}","https://test12345.live/?num_scrambled_semantic=8&num_scrambled_causal=4&num_scrambled_schematic=4&participantId=B9CAB7E6DB6D41008B3DE44C35936159&assignmentId=0198ee49-e983-75b1-aadf-d9d1966b20d7&projectId=0198ee3c-27ac-7803-a9ea-f3b4ad4ad678","B9CAB7E6DB6D41008B3DE44C35936159-2025-08-28-02-32-23","","2476","","images/semantic_sequence/market_semantic/market_semantic_8.png","1","",""
"","","","","","image-button-response","112","1512842","0.0-14.0-1.0-2.7","B9CAB7E6DB6D41008B3DE44C35936159","B9CAB7E6DB6D41008B3DE44C35936159","0198ee49-e983-75b1-aadf-d9d1966b20d7","0198ee3c-27ac-7803-a9ea-f3b4ad4ad678","{""num_scrambled_semantic"":""8"",""num_scrambled_causal"":""4"",""num_scrambled_schematic"":""4"",""participantId"":""B9CAB7E6DB6D41008B3DE44C35936159"",""assignmentId"":""0198ee49-e983-75b1-aadf-d9d1966b20d7"",""projectId"":""0198ee3c-27ac-7803-a9ea-f3b4ad4ad678""}","https://test12345.live/?num_scrambled_semantic=8&num_scrambled_causal=4&num_scrambled_schematic=4&participantId=B9CAB7E6DB6D41008B3DE44C35936159&assignmentId=0198ee49-e983-75b1-aadf-d9d1966b20d7&projectId=0198ee3c-27ac-7803-a9ea-f3b4ad4ad678","B9CAB7E6DB6D41008B3DE44C35936159-2025-08-28-02-32-23","","null","","[]","null","",""
"","","","","","image-button-response","113","1517344","0.0-14.0-1.0-0.8","B9CAB7E6DB6D41008B3DE44C35936159","B9CAB7E6DB6D41008B3DE44C35936159","0198ee49-e983-75b1-aadf-d9d1966b20d7","0198ee3c-27ac-7803-a9ea-f3b4ad4ad678","{""num_scrambled_semantic"":""8"",""num_scrambled_causal"":""4"",""num_scrambled_schematic"":""4"",""participantId"":""B9CAB7E6DB6D41008B3DE44C35936159"",""assignmentId"":""0198ee49-e983-75b1-aadf-d9d1966b20d7"",""projectId"":""0198ee3c-27ac-7803-a9ea-f3b4ad4ad678""}","https://test12345.live/?num_scrambled_semantic=8&num_scrambled_causal=4&num_scrambled_schematic=4&participantId=B9CAB7E6DB6D41008B3DE44C35936159&assignmentId=0198ee49-e983-75b1-aadf-d9d1966b20d7&projectId=0198ee3c-27ac-7803-a9ea-f3b4ad4ad678","B9CAB7E6DB6D41008B3DE44C35936159-2025-08-28-02-32-23","","null","","images/semantic_sequence/market_semantic/market_semantic_9.png","null","",""
